time division length width area intensity CMx CMy
0 0 75.0996 13.9015 1044 76.4914 1114.25 545.753
1 0 79.0747 14.4041 1139 75.6567 1113.58 542.326
2 1 41.0202 11.4334 469 76.1173 1113.82 562.079
3 0 43.0322 12.0375 518 76.029 1113.34 561.425
4 0 42.0751 12.1212 510 75.8157 1113.34 560.618
5 0 43.0214 12.273 528 78.1496 1114.06 560.034
6 0 45.0325 12.169 548 78.5383 1113.79 560.296
7 0 49.016 12.9346 634 77.4558 1113.5 556.427
8 0 50.0506 12.9069 646 77.9118 1113.57 556.771
9 0 53.0993 12.0906 642 78.5576 1113.76 556.615
10 0 53.0996 13.7101 728 77.4231 1114.09 554.567
11 0 55.018 13.4138 738 78.0759 1114.01 554.104
12 0 58.0577 13.9861 812 77.1355 1114.41 553.491
13 0 60.0472 14.1222 848 77.02 1114.39 551.625
14 0 61.1165 13.9897 855 77.7988 1114.02 550.002
15 0 64.0297 13.7592 881 78.7299 1115.39 549.58
16 0 67.1353 13.3313 895 78.962 1115.57 548.678
17 0 70.2393 13.3686 939 79.4089 1115.36 547.304
18 0 72.082 13.9147 1003 78.7547 1115.44 545.136
19 0 73.0544 13.6747 999 79.4284 1115.31 545.164
20 0 78.1257 13.9519 1090 78.7486 1115.68 542.322
21 0 80.1362 13.1401 1053 79.812 1115.66 541.628
22 0 81.082 13.5665 1100 79.5918 1115.3 540.425
23 0 85.0949 13.5966 1157 79.331 1115.24 537.694
24 1 44.0428 12.4424 548 77.6223 1115.18 558.469
25 0 45.0252 12.0155 541 78.7893 1115.43 557.891
26 0 47.0601 12.7709 601 77.5491 1115.06 557.003
27 0 48.1352 12.8804 620 77.5355 1115.13 555.887
28 0 50.0955 12.6359 633 78.9479 1115.01 555.545
29 0 53.0135 12.3742 656 77.8552 1115.07 554.183
30 0 55.0948 13.2317 729 76.2675 1114.16 553.782
31 0 57.1363 13.3365 762 75.6969 1114.62 553.045
32 0 57.1862 13.0451 746 77.3499 1114.23 552.235
33 0 61.0731 12.6733 774 76.9238 1114.54 550.76
34 0 63.1648 13.5994 859 75.4086 1114.89 549.464
35 0 64.06 12.6912 813 77.4403 1114.52 549.216
36 0 67.1909 13.7072 921 75.5375 1114.9 547.708
37 0 70.2049 12.7769 897 76.6968 1114.96 547.123
38 1 34.1065 10.9656 374 76.7219 1115.48 562.492
39 0 38.156 10.5619 403 75.6228 1115.51 562.816
40 0 38.0516 11.537 439 76.2301 1115.6 560.838
41 0 39.0933 12.1504 475 75.1389 1115.96 559.575
42 0 40.0468 11.8861 476 75.0126 1115.84 560.607
43 0 41.1344 12.3498 508 75.2953 1115.89 558.049
44 0 44.1196 12.3075 543 74.628 1116.31 558.276
45 0 45.0532 12.0968 545 75.7339 1116.8 557.64
46 0 46.0475 12.8563 592 74.8497 1116.54 556.841
47 0 49.1275 12.9256 635 73.9984 1116.93 555.6
48 0 50.04 12.0903 605 76.1256 1116.92 554.764
49 0 50.0388 12.9499 648 76.0262 1117.4 552.864
50 0 52.0498 13.4487 700 74.6914 1117.16 554.413
51 0 55.1291 12.6975 700 75.4914 1116.84 554.233
52 0 56.0877 13.4076 752 74.734 1117.11 552.285
53 0 58.0773 13.2582 770 75.2857 1117.1 551.361
54 0 59.0562 13.5295 799 74.5557 1115.98 551.239
55 0 61.0817 14.2269 869 66.8032 1116.19 548.9
56 0 62.0732 13.6774 849 67.3168 1115.95 548.342
57 0 65.1987 13.3898 873 65.992 1116.3 547.597
58 0 65.0842 14.028 913 66.1139 1116.43 544.742
59 0 69.1638 13.7644 952 66.6261 1117.34 545.4
60 0 71.0497 13.6665 971 68.9454 1116.87 545.214
61 0 74.154 13.9979 1038 68.4634 1116.9 541.351
62 0 76.1271 13.6614 1040 69.5096 1116.88 540.66
63 1 37.0516 10.7418 398 70.3894 1116.56 560.246
64 0 40.0365 11.2897 452 69.0553 1116.35 558.825
65 0 41.0799 11.7089 481 69.5405 1116.44 556.871
66 0 41.113 11.7724 484 70.6054 1116.32 556.643
67 0 45.0249 13.1039 590 67.6881 1116.84 556.214
68 0 46.1406 12.657 584 69.1079 1117.91 554.829
69 0 46.1452 12.6774 585 68.8496 1118.42 555.274
70 0 47.0704 12.7044 598 69.1538 1118.1 553.692
71 0 50.1945 12.7504 640 68.3703 1118 554.217
72 0 51.103 13.6978 700 67.1529 1117.56 551.263
73 0 54.0818 12.8509 695 88.1324 1117.75 551.97
74 0 55.1624 12.9073 712 67.5632 1118.97 551.544
75 0 55.1621 12.6899 700 68.8457 1118.21 548.604
76 0 57.1246 13.1292 750 67.9347 1119.05 548.623
77 0 60.1099 13.4088 806 67.3834 1118.89 546.087
78 0 61.3212 13.8777 851 66.9553 1119.23 545.156
79 0 65.215 13.8618 904 66.8131 1118.91 544.21
80 0 66.1123 13.6435 902 68.082 1119.13 542.123
81 0 67.3012 13.5213 910 69.1484 1118.5 540.474
82 0 73.1169 14.1964 1038 66.9451 1118.75 537.411
83 0 75.2589 13.6595 1028 67.8589 1119.54 538.786
84 1 36.3332 12.0276 437 69.5423 1118.57 556.561
85 0 39.235 12.1575 477 68.4025 1119.18 555.281
86 0 40.2517 12.6454 509 67.1532 1119.26 554.806
87 0 40.1725 12.6455 508 67.0906 1119.31 554.274
88 0 42.0934 13.5651 571 66.69 1119.63 552.144
89 0 47.1851 12.949 611 65.9574 1120.39 550.912
90 0 46.0349 13.2725 611 66.8101 1120.56 549.632
91 0 48.1657 14.4501 696 65.3103 1121.47 549.079
92 0 51.2075 13.416 687 66.4061 1121.67 548.729
93 0 50.1204 13.9065 697 65.9813 1121.82 547.44
94 0 52.2172 13.7694 719 65.5633 1121.76 545.339
95 0 52.0828 14.2465 742 64.0027 1121.94 544.64
96 0 55.1647 13.6863 755 63.3457 1121.83 543.621
97 0 58.1773 14.7308 857 85.5496 1122.21 542.831
98 0 58.1477 14.8587 864 61.9757 1121.82 543.096
99 0 62.1426 14.5472 904 62.104 1121.52 541.812
100 0 64.1311 15.1876 974 62.9045 1121.48 540.943
101 0 65.0687 14.1082 918 66.5196 1121.49 538.806
102 0 67.0856 14.3101 960 67.3146 1121.78 537.744
103 0 70.0677 14.8999 1044 63.5565 1121.75 536.898
104 0 72.2351 16.0448 1159 63.6255 1122.05 536.119
105 0 73.4749 15.5563 1143 66.4357 1121.8 533.306
106 0 77.2699 14.4558 1117 67.9687 1122.47 533.183
107 0 80.1358 14.2882 1145 68.5109 1122.36 532.214
108 0 82.3292 14.5878 1201 68.6303 1122.23 530.506
109 1 39.0605 12.2374 478 70.9958 1122.54 551.778
110 0 42.0581 12.6492 532 70.6372 1122.21 551.105
111 0 44.084 12.9299 570 70.9263 1121.89 548.339
112 0 43.0654 14.1877 611 70.0442 1121.72 547.84
113 0 48.0365 13.6563 656 68.8613 1121.66 547.78
114 0 46.0991 14.2085 655 69.7328 1121.78 545.728
115 0 50.0708 13.9203 697 68.3529 1121.49 545.97
116 0 49.0648 14.6949 721 68.7767 1121.83 545.331
117 0 51.0913 15.0124 767 67.5841 1121.7 543.966
118 0 53.0643 14.2092 754 68.1963 1122.08 544.143
119 0 55.1561 14.7944 816 67.0809 1121.42 542.123
120 0 57.2098 14.7352 843 67.3416 1121.56 541.422
121 0 59.141 15.1164 894 66.5369 1121.77 541.087
122 0 61.0584 15.1822 927 66.5912 1121.13 539.102
123 0 63.1483 14.8381 937 66.9936 1121.35 538.191
124 0 65.1505 14.7044 958 66.6159 1121.38 537.635
125 0 69.1968 15.4342 1068 65.2257 1121.43 537.141
126 0 69.1731 14.2541 986 67.6349 1121.63 536.391
127 0 72.1011 15.298 1103 66.68 1122 533.869
128 0 74.168 15.8289 1174 65.8612 1121.76 533.184
129 0 76.0458 15.346 1167 66.7335 1121.23 532.406
130 0 81.1079 15.7568 1278 65.5086 1121.18 530.994
131 0 83.1644 15.1387 1259 67.1803 1120.38 528.504
132 1 40.0378 13.5622 543 69.6667 1120.68 548.983
133 0 41.0503 14.5918 599 69.2454 1120.92 548.573
134 0 44.1812 13.8294 611 69.9705 1120.56 547.669
135 0 46.1781 15.9166 735 66.9796 1120.32 546.196
136 0 47.1386 15.9105 750 67.1213 1120.44 546.711
137 0 48.1009 15.3428 738 67.9566 1120.09 546.294
138 0 48.1728 15.8388 763 68.2896 1120.14 545.157
139 0 50.2878 15.809 795 68.4377 1120.06 544.22
140 0 53.1513 15.7663 838 68.3568 1120.11 542.729
141 0 55.2244 15.8626 876 68.3333 1120.01 541.676
142 0 57.3042 15.4264 884 69.3744 1120.3 541.7
143 0 59.4284 15.5313 923 68.9599 1120.14 540.346
144 0 61.1784 15.2178 931 70.334 1120.15 539.03
145 0 62.389 16.0124 999 69.5175 1120.1 538.79
146 0 66.2811 15.6606 1038 69.8613 1120.33 537.329
147 0 68.409 15.4366 1056 70.0549 1120.35 536.586
148 0 70.4443 15.2887 1077 70.6481 1119.78 535.747
149 0 74.8332 15.7417 1178 69.3956 1120.3 535.076
150 0 77.4993 15.5098 1202 70.1539 1120.52 534.412
151 1 33.0223 13.5363 447 74.2058 1120.27 553.385
152 0 36.3117 16.1105 585 70.906 1120.11 552.294
153 0 37.4237 14.7233 551 72.3975 1120.21 552.39
154 0 38.366 16.108 618 71.9951 1120.12 550.693
155 0 38.6513 16.2478 628 72.7309 1120.57 551.113
156 0 40.4953 15.3598 622 73.5434 1120.53 550.473
157 0 41.9384 16.1666 678 72.41 1120.64 550.453
158 0 44.7364 16.4519 736 71.6209 1120.24 548.981
159 0 46.1791 15.3749 710 73.0113 1120.04 549.617
160 0 47.2518 14.6449 692 75.5549 1120.27 548.53
161 0 50.9462 16.1543 823 72.2053 1120.58 547.815
162 0 51.3521 16.085 826 72.8886 1120.38 546.588
163 0 51.8403 16.1264 836 74.122 1120.72 544.774
164 0 54.8756 15.6536 859 75.0419 1121.1 543.588
165 0 55.8185 16.7507 935 73.7219 1120.27 544.309
166 0 55.7412 16.0922 897 76.136 1120.95 543.404
167 0 58.9942 16.6287 981 75.2722 1120.69 542.828
168 0 60.9068 16.2872 992 76.2067 1120.92 541.974
169 0 61.9242 16.391 1015 76.7172 1121.25 542.162
170 0 63.9179 16.0362 1025 77.72 1121.26 539.939
171 0 64.6634 16.4699 1065 78.369 1121.8 538.029
172 0 68.8848 17.13 1180 77.1008 1121.68 537.879
173 0 71.8084 17.1011 1228 77.2085 1121.76 538.014
174 0 71.7357 16.045 1151 80.715 1121.77 536.038
175 0 73.9931 16.015 1185 81.027 1121.57 533.023
176 1 33.71 14.6247 493 83.7606 1122.43 550.998
177 0 37.8204 16.1024 609 80.9097 1122.59 550.021
178 0 38.6591 15.9083 615 81.3463 1122.54 549.844
179 0 40.5562 15.9778 648 80.2438 1122.68 550.676
180 0 38.4636 17.4711 672 81.4315 1122.75 549.21
181 0 41.5492 16.0533 667 82.5442 1123.09 548.238
182 0 45.8804 17.0007 780 79.7321 1123.31 546.999
183 0 44.5599 17.3474 773 81.1876 1123.22 545.79
184 0 45.5479 16.7077 761 82.8712 1123.58 545.564
185 0 48.6412 17.1665 835 81.5234 1123.49 544.334
186 0 50.7008 17.4553 885 80.2588 1123.7 542.75
187 0 51.6834 16.543 855 82.1579 1123.6 542.698
188 0 54.5265 17.0559 930 80.9226 1123.46 541.277
189 0 55.4494 17.1688 952 80.9065 1123.43 540.727
190 0 57.7455 16.5381 955 82.5969 1123.47 540.035
191 0 56.8267 16.0136 910 86.322 1123.49 538.704
192 0 60.7296 17.2239 1046 82.3547 1123.8 538.62
193 0 64.8049 17.2672 1119 79.664 1123.73 536.621
194 0 65.6903 16.5778 1089 80.1708 1123.68 536.326
195 0 66.6272 16.7199 1114 79.6499 1123.78 535.494
196 0 69.6662 16.1484 1125 80.7947 1124.22 535.971
197 0 71.9006 16.2168 1166 83.4331 1124.04 532.993
198 0 73.6081 16.1939 1192 84.1904 1124.25 532.789
199 0 76.485 16.6699 1275 84.0118 1124.13 530.998
200 0 78.7759 16.9087 1332 82.5803 1124.48 529.995
201 0 81.9212 16.5769 1358 82.7636 1124.33 528.323
202 1 37.5318 14.4677 543 82.477 1124.88 549.589
203 0 37.8591 16.0595 608 82.1908 1124.98 548.467
204 0 39.6999 15.9194 632 81.8165 1124.94 548.321
205 0 39.5202 15.2074 601 84.1165 1124.89 546.983
206 0 39.6587 16.642 660 83.1 1124.94 546.282
207 0 40.5961 17.7111 719 81.9346 1124.98 547.274
208 0 42.5216 16.2976 693 84.29 1124.89 547.229
209 0 43.5507 16.8769 735 84.151 1124.2 546.245
210 0 44.4718 16.4824 733 84.9768 1124.64 546.787
211 0 46.6355 17.1114 798 83.6466 1124.28 546.377
212 0 46.6411 17.2595 805 85.077 1124.46 545.308
213 0 46.5692 16.9855 791 86.0051 1124.42 545.619
214 0 52.6344 15.9401 839 86.3576 1124.08 544.514
215 0 49.5614 16.7671 831 88.0505 1124.15 543.203
216 0 51.381 16.8934 868 88.0853 1123.77 543.266
217 0 54.3929 16.8404 916 87.6146 1123.21 542.646
218 0 54.2084 16.6579 903 89.2547 1123.63 541.89
219 0 56.3902 17.042 961 88.539 1123.42 541.784
220 0 60.4343 17.2584 1043 87.1975 1122.98 541.208
221 0 60.2499 17.1453 1033 89.1626 1123.3 539.093
222 0 62.3367 16.7638 1045 89.4708 1122.44 538.56
223 0 64.1934 16.8242 1080 90.0954 1122.85 537.274
224 0 68.344 17.4119 1190 88.6067 1122.76 537.903
225 0 68.3368 16.2138 1108 91.6354 1123.13 536.324
226 0 71.2844 16.0063 1141 91.9167 1122.83 535.633
227 0 74.4407 16.6173 1237 90.6435 1122.21 535.439
228 0 77.3729 16.4657 1274 91.0157 1121.94 533.892
229 0 78.4481 16.8264 1320 92.3167 1122.43 532.873
230 0 81.411 17.2581 1405 91.311 1122.22 531.692
231 0 83.5403 16.0402 1340 94.0873 1122.06 530.857
232 1 30.0838 15.2241 458 88.1463 1122.47 553.476
233 0 31.2119 15.7312 491 87.169 1122.18 552.766
234 0 31.1934 14.907 465 88.5312 1122.2 552.57
235 0 31.335 14.8077 464 89.0711 1122.33 552.765
236 0 31.2669 14.0724 440 88.4182 1121.97 552.748
237 0 33.3802 13.541 452 88.3142 1121.84 551.971
238 0 34.266 14.2999 490 89.5 1121.71 550.508
239 0 34.1471 13.1783 450 89.9711 1122.17 550.729
240 0 36.3078 11.0995 403 84.4913 1122.17 550.414
241 0 37.2809 10.783 402 85.4726 1121.79 550.565
242 0 40.3152 12.3775 499 83.1242 1121.9 549.687
243 0 40.3878 11.4391 462 85.645 1122.16 550.69
244 0 41.2895 12.7151 525 84.2438 1121.56 549.621
245 0 41.3033 11.0403 456 86.8816 1121.8 550.568
246 0 40.2961 10.7951 435 85.4828 1121.59 550.163
247 0 47.3146 12.4275 588 82.0816 1121.65 546.799
248 0 48.2666 12.0995 584 82.7466 1121.17 547.423
249 0 49.2611 11.2868 556 84.2374 1121.03 546.406
250 0 49.231 10.7859 531 83.7797 1121.29 546.267
251 0 53.1577 12.0773 642 80.8754 1120.45 544.964
252 0 54.3268 11.4492 622 81.8617 1121.04 544.408
253 1 28.1596 10.0854 284 79.5986 1119.98 558.37
254 0 29.3044 10.2374 300 79.7333 1119.88 557.913
255 0 28.0932 10.9635 308 81.3019 1119.77 558.367
256 0 30.0592 11.3443 341 80.4135 1119.38 555.944
257 0 32.1418 11.1693 359 78.6351 1119.65 555.744
258 0 32.0421 10.9855 352 80.946 1120.71 555.472
259 0 34.0654 10.656 363 80.3774 1120.35 555.198
260 0 34.1571 12.0326 411 79.7689 1119.94 553.988
261 0 36.1889 11.136 403 80.8511 1120.32 554.948
262 0 35.1765 11.3712 400 81.46 1120.2 553.632
263 0 37.2074 11.2881 420 80.9833 1120.13 554.052
264 0 39.2018 11.3005 443 80.7833 1120.35 552.885
265 0 38.2544 11.3712 435 81.6874 1119.97 552.745
266 0 41.2995 11.4771 474 81.7975 1120.14 551.829
267 0 42.3788 11.2084 475 82.5768 1120.45 551.236
268 0 45.4372 11.9946 545 81.4844 1120.52 549.699
269 0 47.2904 12.4338 588 80.7381 1120.45 547.876
270 0 48.3196 11.2584 544 82.9283 1120.73 549.075
271 0 49.482 11.9639 592 82.7753 1120.68 546.939
272 0 51.501 11.9415 615 82.3854 1120.43 546.367
273 0 52.513 11.5971 609 83.2282 1120.26 546.015
274 0 54.3397 12.3115 669 82.0688 1120.11 544.753
275 0 58.4375 12.4749 729 81.546 1120.37 543.653
276 0 57.4896 12.0369 692 83.9061 1120.6 544.532
277 0 60.3189 11.721 707 83.6209 1120.04 542.557
278 0 63.3406 12.3617 783 81.6437 1120.62 542.249
279 1 34.1924 10.9089 373 83.5764 1120.6 555.08
280 0 35.2846 10.968 387 83.1628 1120.9 554.581
281 0 37.2235 11.5787 431 82.2135 1121.14 554.775
282 0 38.3329 11.6349 446 82.6973 1120.8 554.386
283 0 37.2402 11.7078 436 83.7982 1121.68 552.95
284 0 41.2453 11.4195 471 83.0722 1121.84 550.9
285 0 43.4332 10.591 460 83.5239 1121.94 551.637
286 0 43.4221 11.584 503 81.5209 1122.07 551.875
287 0 45.3498 11.9736 543 81.1878 1122.03 550.273
288 0 45.2369 11.8929 538 81.448 1122.34 548.809
289 0 47.1708 12.3169 581 81.2427 1122.7 547.043
290 0 50.1929 15.2611 766 73.6775 1122.31 464.586
291 0 52.2265 14.8009 773 74.251 1122.02 443.684
292 0 53.3524 14.5635 777 75.1351 1122.41 440.709
293 0 54.1108 14.4888 784 75.463 1122.7 440.736
294 0 56.3316 15.036 847 73.9197 1122.83 438.609
295 0 58.4057 14.6219 854 74.0714 1123.09 438.177
296 0 60.3301 15.266 921 72.7687 1122.94 437.418
297 0 62.3285 15.0814 940 73.466 1123.18 435.647
298 0 64.4119 15.3388 988 72.6316 1123.49 433.908
299 0 67.2797 15.5916 1049 71.8942 1123.54 432.199
300 0 71.2598 15.0014 1069 72.1684 1123.58 432.27
301 0 71.2753 14.8719 1060 73.966 1124.04 429.21
302 1 37.1438 11.3612 422 80.981 1124.37 446.9
303 0 40.1018 12.2189 490 79.0673 1123.88 445.333
304 0 42.3011 12.9548 548 76.6661 1123.86 445.907
305 0 44.1594 13.2475 585 75.7436 1123.5 445.769
306 0 43.3614 13.5835 589 76.8336 1123.58 443.287
307 0 45.248 12.5309 567 78.3457 1123.77 443.226
308 0 47.2355 13.4433 635 77.2898 1123.84 441.872
309 0 49.2268 14.0371 691 75.3155 1124.12 440.715
310 0 50.2557 13.8293 695 76.5338 1123.95 440.659
311 0 51.2424 13.3483 684 78.3012 1123.74 439.365
312 0 53.3902 14.8904 795 75.3975 1123.74 438.093
313 0 52.1897 13.6809 714 78.7521 1123.51 438.099
314 0 56.2569 14.6471 824 76.1833 1123.35 436.553
315 0 58.3279 14.2642 832 76.9519 1123.25 436.894
316 0 58.2363 14.3381 835 77.4443 1122.78 437.019
317 0 59.3957 14.0751 836 78.134 1122.94 436.959
318 0 61.3258 14.1702 869 78.1024 1122.89 435.938
319 0 64.2769 15.2621 981 76.0907 1122.92 434.329
320 0 65.3604 13.9687 913 78.6177 1123.29 435.2
321 0 67.2423 15.2136 1023 75.7097 1123.03 434.543
322 0 69.3766 14.9618 1038 75.8516 1123.13 433.893
323 0 73.2766 15.9396 1168 73.1216 1123.27 433.178
324 0 75.4012 15.4772 1167 73.7001 1123.07 433.094
325 0 74.3768 14.8971 1108 75.8421 1122.5 430.949
326 0 76.2601 13.8211 1054 77.3349 1122.05 431.228
327 0 81.4957 15.2646 1244 73.4172 1122.43 430.038
328 0 83.6 14.9522 1250 73.7016 1122.05 428.983
329 0 88.5957 14.7976 1311 73.4554 1122.17 427.669
330 0 90.392 14.4482 1306 73.7404 1121.81 427.612
331 1 45.6934 12.4088 567 76.7284 1122 447.43
332 0 48.1966 13.8599 668 73.9641 1122.01 448.281
333 0 49.2072 13.7785 678 73.6475 1121.93 447.652
334 0 52.2023 14.3097 747 71.8701 1121.63 447.917
335 0 53.3614 14.3362 765 71.7686 1122.05 447.256
336 0 55.3405 13.9139 770 72.0091 1121.78 447.182
337 0 57.4103 14.4225 828 70.4094 1121.6 446.331
338 0 58.1081 14.3526 834 70.3165 1121.16 447.283
339 0 61.3959 14.1866 871 69.7015 1121.05 446.93
340 0 62.268 14.0682 876 69.8961 1121.6 446.598
341 0 65.1475 14.2292 927 69.425 1121.31 446.886
342 0 67.16 14.3091 961 69.4266 1121.06 445.304
343 0 68.4434 14.9174 1021 68.3066 1120.21 446.218
344 0 73.133 14.6445 1071 68.3371 1121.36 446.631
345 0 75.2094 14.4796 1089 68.6584 1121.46 446.066
346 0 78.261 14.1705 1109 68.9784 1121.35 447.307
347 0 80.1088 14.3804 1152 68.8819 1121.48 446.33
348 0 84.2483 14.481 1220 68.0336 1121.27 447.147
349 0 87.2077 14.7693 1288 68.0714 1121.3 447.297
350 0 90.3151 14.2723 1289 68.4003 1121.38 449.593
351 1 46.0798 11.2197 517 71.1257 1120.48 470.721
352 0 47.0508 11.7745 554 69.7202 1120.71 472.681
353 0 50.097 12.3959 621 69.3027 1120.4 474.34
354 0 51.0573 12.3195 629 69.7091 1120.29 475.854
355 0 53.0642 13.3046 706 67.6671 1120.84 478.62
356 0 56.1348 12.4522 699 68.7411 1120.81 479.811
357 0 57.1413 12.9329 739 68.728 1120.31 479.977
358 0 59.1599 13.4382 795 67.6918 1121.53 481.853
359 0 61.2328 14.0774 862 67.2332 1121.19 482.282
360 0 61.1434 13.9345 852 68.034 1121.32 482.676
361 0 64.1487 13.5622 870 68.7575 1120.85 484.439
362 0 65.0814 13.414 873 69.5498 1120.93 483.817
363 0 65.0814 13.3832 871 171.354 1121.92 483.943
364 0 72.0775 14.2069 1024 67.541 1120.41 486.369
365 0 73.0871 13.997 1023 68.1975 1120.42 487.511
366 0 77.1927 13.978 1079 68.0195 1120.93 487.965
367 0 80.0278 13.6827 1095 68.3242 1121.01 488.76
368 0 82.035 14.1281 1159 67.6859 1120.98 489.685
369 0 86.1218 13.4345 1157 68.3604 1121.54 492.185
370 0 89.1026 13.7145 1222 67.8404 1121.74 491.867
371 0 88.1778 13.4161 1183 68.7819 1121.72 493.25
372 0 93.1519 14.4066 1342 67.0768 1122.24 493.694
373 0 97.0511 13.4671 1307 68.1094 1121.99 495.702
374 1 57.0899 11.5432 659 66.4886 1122.61 519.906
375 0 58.0404 11.9227 692 66.1055 1122.42 522.415
376 0 60.1057 13.5428 814 63.9767 1122.64 524.63
377 0 63.1666 13.219 835 62.3701 1122.76 527.172
378 0 65.1744 13.6557 890 61.8438 1123.26 529.489
379 0 63.1714 11.9674 756 63.705 1123.11 530.073
380 0 67.1122 12.8442 862 62.058 1122.87 529.675
381 0 68.1354 13.165 897 62.0502 1123.19 527.614
382 0 72.2735 12.7156 919 62.667 1123.31 526.757
383 0 74.2683 12.7107 944 62.9672 1123.01 525.593
384 0 78.1153 12.648 988 62.8107 1123.21 524.226
385 0 79.2062 13.5595 1074 61.96 1123.42 524.309
386 0 82.3616 12.3966 1021 64.192 1123.39 519.422
387 0 86.2095 13.0264 1123 62.6883 1124.55 519.313
388 1 46.1348 10.0358 463 60.8315 1124.56 540.728
389 0 50.053 9.39004 470 61.2404 1124.51 539.96
390 0 50.1129 11.4342 573 59.7976 1123.47 538.443
391 0 51.1463 11.4573 586 59.4778 1123.67 540.229
392 0 53.0531 10.6874 567 62.522 1123.42 538.042
393 0 52.0531 10.3356 538 63.5911 1123.64 536.639
394 0 55.1185 11.4844 633 61.5798 1123.47 536.414
395 0 55.0317 11.3389 624 62.992 1123.62 535.231
396 0 59.1484 12.2066 722 61.3712 1124.25 533.668
397 0 60.0901 11.333 681 62.7606 1124.74 531.855
398 0 65.1055 12.4106 808 60.6126 1124.59 530.994
399 0 64.0795 11.4233 732 62.877 1124.64 528.817
400 0 68.1526 12.5601 856 60.465 1124.58 528.881
401 0 69.2109 11.8767 822 61.736 1124.4 529.901
402 0 71.1553 11.0322 785 63.3223 1124.47 527.307
403 0 75.2735 12.2088 919 61.6877 1124.59 526.602
404 0 76.0831 12.1315 923 62.7432 1124.66 523.571
405 0 77.2566 11.4812 887 64.0665 1124.97 522.599
406 0 82.2413 12.1715 1001 62.7582 1125.01 519.812
407 1 45.0483 9.47871 427 59.9625 1124.75 542.684
408 0 45.1472 10.056 454 61.0859 1124.65 540.352
409 0 47.1228 9.76174 460 61.3326 1124.99 540.613
410 0 49.2089 11.3394 558 60.1219 1125.24 538.855
411 0 50.0574 11.2671 564 60.1436 1125.51 539.309
412 0 51.1812 12.5046 640 60.9656 1125.74 538.117
413 0 52.1461 11.4678 598 62.903 1125.24 536.938
414 0 55.114 12.1929 672 60.9613 1125.17 536.659
415 0 57.1883 12.4676 713 61.4067 1125.73 535.687
416 0 57.129 11.8504 677 63.3427 1124.86 535.121
417 0 58.1193 11.8033 686 64.0904 1125.19 534.43
418 0 58.099 12.1 703 63.7824 1124.81 533.764
419 0 61.3043 11.8752 728 63.8654 1124.64 533.437
420 0 65.384 11.8836 777 63.4878 1124.1 532.444
421 0 66.2291 13.1211 869 62.8182 1123.69 530.427
422 0 66.3409 12.6166 837 64.3907 1124.06 530.553
423 0 69.2931 12.945 897 64.0546 1123.82 530.458
424 0 72.3466 12.758 923 64.9263 1123.6 528.891
425 0 74.3606 13.2194 983 64.6684 1123.45 526.965
426 0 77.3402 13.4859 1043 64.5225 1122.79 525.183
427 0 79.2433 12.9096 1023 65.7781 1122.74 526.652
428 0 83.2082 13.9409 1160 64.2069 1122.92 522.73
429 1 46.1246 10.1031 466 67.1695 1122.05 543.017
430 0 44.0967 10.6357 469 65.8188 1122.12 542.38
431 0 45.074 11.2704 508 66.1673 1122.74 541.825
432 0 47.1006 11.6559 549 66.1475 1121.82 539.849
433 0 50.1535 12.7409 639 64.5634 1122 538.469
434 0 49.2861 11.5651 570 66.8421 1121.19 538.986
435 0 52.439 11.9377 626 65.5144 1121.87 538.118
436 0 56.1363 11.9174 669 64.6996 1121.89 537.532
437 0 56.275 11.3905 641 65.9563 1122.02 537.626
438 0 54.0841 11.704 633 67.2844 1121.68 536.739
439 0 60.2132 12.7215 766 65.0235 1120.81 536.329
440 0 60.0857 12.4822 750 65.7253 1121.55 536.293
441 0 61.136 12.6112 771 65.9507 1121.36 535.415
442 0 65.1039 13.1482 856 64.2138 1121.14 534.675
443 0 68.0657 12.5173 852 64.7887 1120.83 533.129
444 0 69.2469 13.6613 946 63.6025 1121.09 531.986
445 0 72.1914 13.0487 942 64.5446 1121.43 532.412
446 0 73.1355 12.0461 881 65.9319 1121.04 531.763
447 0 75.1962 12.0352 905 66.7105 1121.06 528.951
448 0 80.1543 13.1621 1055 65.0825 1120.48 527.395
449 0 82.3611 12.8702 1060 66.3594 1120.8 526.35
450 1 43.0883 11.8594 511 65.8434 1120.06 545.022
451 0 45.2011 10.4201 471 66.2335 1119.63 546.431
452 0 48.1578 10.9017 525 66.1638 1120.1 544.518
453 0 48.0732 11.3785 547 65.3876 1120.12 543.274
454 0 48.1285 11.6355 560 64.9946 1120.04 542.525
455 0 52.0397 12.2407 637 63.821 1120.12 541.857
456 0 53.1056 12.3339 655 64.426 1120.14 540.545
457 0 53.0714 11.8708 630 65.919 1120.17 539.935
458 0 55.1001 12.5953 694 64.8329 1120.15 539.571
459 0 56.1235 12.1874 684 66.0892 1120.21 539.056
460 0 57.1075 12.2226 698 66.1519 1120.75 538.279
461 0 59.1308 13.3095 787 64.4905 1120.28 537.69
462 0 63.099 12.8211 809 64.7651 1120.27 537.405
463 0 64.1939 13.6306 875 64.1646 1120.3 534.914
464 0 67.0937 13.0564 876 64.8653 1120.18 533.481
465 0 68.136 12.9887 885 65.965 1120.54 532.454
466 0 71.1402 12.9744 923 66.1278 1120.55 532.55
467 0 71.1694 12.9972 925 67.2941 1120.77 531.138
468 0 76.123 12.6112 960 67.1156 1120.76 531.131
469 1 38.0489 10.0923 384 66.349 1119.94 549.352
470 0 40.0478 10.063 403 66.2531 1120.4 548.993
471 0 43.008 11.5095 495 64.3677 1120.56 548.129
472 0 44.0972 11.4747 506 65.0988 1120.28 547.314
473 0 44.0828 12.0682 532 65.3853 1120.54 546.675
474 0 46.1684 12.3894 572 64.472 1121.15 546.638
475 0 46.1684 12.3678 571 154.737 1121.14 546.667
476 0 49.1802 12.4847 614 65.2313 1120.84 545.448
477 0 50.0836 12.3993 621 66.5121 1121.14 543.536
478 0 51.0997 12.8376 656 66.3034 1121 543.508
479 0 51.1749 12.4866 639 67.5587 1121.38 542.592
480 0 53.1789 12.0725 642 68.1495 1120.97 542.302
481 0 55.0953 13.0683 720 67.0542 1121.21 540.331
482 0 56.0632 13.3599 749 66.4993 1121.34 541.031
483 0 57.135 12.4617 712 68.2669 1121.23 540.449
484 0 58.1673 13.1861 767 67.7797 1120.97 539.698
485 0 62.102 13.5422 841 67.0369 1121.05 538.599
486 0 64.1124 13.9443 894 65.7931 1121.48 537.472
487 0 65.0924 13.1198 854 68.3431 1121.67 536.041
488 0 67.1058 13.1881 885 68.6441 1121.63 535.501
489 0 69.0526 12.9467 894 69.1577 1121.43 534.022
490 0 72.1747 13.592 981 67.842 1121.76 532.403
491 0 73.0708 12.3716 904 70.4004 1121.9 532.581
492 1 39.1212 9.32998 365 69.5945 1121.71 550.348
493 0 38.0491 10.3288 393 69.0509 1121.45 550.672
494 0 38.0418 10.9879 418 69.1244 1121.46 549.567
495 0 40.0523 11.1354 446 68.722 1121.83 548.206
496 0 42.0629 11.4115 480 67.9854 1121.44 546.542
497 0 41.1174 11.6009 477 68.826 1122.48 545.434
498 0 44.1873 11.4286 505 67.2871 1122.63 547.279
499 0 45.1179 12.2124 551 67.1706 1122.84 545.76
500 0 46.1296 11.4677 529 68.3743 1122.5 544.718
501 0 48.0728 12.2107 587 67.2095 1122.92 543.704
502 0 48.1733 11.7492 566 67.9823 1122.84 544.723
503 0 49.0991 12.709 624 67.1426 1122.65 541.864
504 0 52.128 12.335 643 66.9331 1122.14 542.3
505 0 53.1237 12.838 682 67.0293 1122.07 541.393
506 0 53.1095 12.879 684 67.6784 1121.98 539.694
507 0 56.0665 13.0024 729 66.8038 1121.61 539.355
508 0 58.0943 12.9789 754 66.8077 1121.82 537.672
509 0 59.0935 12.9794 767 66.721 1121.42 537.66
510 0 60.0586 12.6044 757 68.0542 1121.4 536.424
511 0 63.0887 13.1719 831 67.0818 1121.56 535.765
512 0 65.1101 13.7306 894 67.1555 1121.38 533.887
513 0 67.05 13.4228 900 67.5822 1121.41 533.357
514 0 70.2058 12.7197 893 68.449 1121.39 533.113
515 1 34.0511 9.98498 340 69.7941 1120.76 549.797
516 0 37.057 10.7132 397 69.1839 1120.59 548.307
517 0 39.0205 10.9173 426 66.4038 1121.42 548.845
518 0 40.0492 11.2611 451 66.3459 1121.69 548.016
519 0 44.0701 11.3456 500 65.512 1121.46 546.614
520 0 42.1602 10.8159 456 68.5417 1122.15 545.265
521 0 45.0314 11.814 532 66.8759 1122.63 544.19
522 0 46.1722 12.2801 567 66.575 1122.18 544.527
523 0 48.0679 12.1287 583 66.8834 1122.95 543.419
524 0 49.0942 12.364 607 66.3707 1123.02 544.282
525 0 49.0942 12.3029 604 162.015 1122.99 544.359
526 0 53.1611 12.4527 662 66.4441 1123.03 541.053
527 0 52.1145 13.1441 685 66.2832 1122.72 540.74
528 0 54.1879 12.9549 702 66.8191 1122.65 539.947
529 0 59.2923 12.7841 758 65.8311 1123.3 538.583
530 0 61.1512 12.7716 781 66.201 1122.19 536.758
531 0 62.104 13.2037 820 65.9207 1122.39 536.601
532 0 65.0532 13.1585 856 65.5631 1122.5 533.699
533 0 67.1788 12.7272 855 66.0947 1122.55 532.613
534 0 70.0778 13.2424 928 65.4343 1123.37 531.706
535 0 72.0664 12.877 928 65.8912 1122.51 531.377
536 0 76.1272 13.5168 1029 64.622 1123.49 529.741
537 1 40.0183 10.97 439 64.9544 1122.64 546.433
538 0 41.129 10.4063 428 64.528 1122.64 547.921
539 0 41.0297 11.0164 452 65.3164 1122.27 545.684
540 0 44.0789 11.0257 486 64.8539 1121.81 546.628
541 0 44.0532 11.4634 505 65.1703 1122.47 544.364
542 0 43.038 11.6641 502 65.9323 1121.61 543.552
543 0 45.0576 11.3632 512 66.0273 1122.42 543.451
544 0 47.0788 12.5959 593 64.4772 1121.26 541.946
545 0 47.037 11.9268 561 66.3316 1121.5 541.567
546 0 50.046 12.2287 612 65.1242 1122.16 540.753
547 0 51.0468 12.3808 632 64.9763 1121.73 539.65
548 0 54.0683 11.9294 645 65.0109 1122.13 539.764
549 0 56.0608 13.4497 754 62.6711 1121.76 539.143
550 0 57.0713 12.7034 725 64.7766 1121.47 537.092
551 0 59.1064 12.7736 755 64.2238 1121.77 537.603
552 0 61.1538 12.9837 794 64.306 1122.08 536.704
553 0 62.1418 12.745 792 64.9962 1122.39 535.25
554 0 65.1774 13.3635 871 63.6395 1122.21 535.842
555 0 65.3289 12.9499 846 65.3227 1122.4 533.44
556 0 70.2332 13.1847 926 63.9222 1122.37 532.778
557 0 73.2824 13.1819 966 63.7174 1122.34 531.925
558 0 75.3007 13.6519 1028 63.3794 1122.49 529.393
559 0 79.3049 13.177 1045 63.334 1122.17 529.532
560 0 80.1699 13.3217 1068 64.0449 1122.05 527.149
561 0 82.3027 13.0615 1075 64.9098 1122.35 525.594
562 1 44.0364 10.3778 457 65.7155 1122.14 545.225
563 0 44.1211 11.6498 514 64.9572 1122.43 543.605
564 0 47.0253 11.1642 525 64.5124 1121.74 544.95
565 0 49.0753 11.9612 587 64.569 1122.09 543.627
566 0 50.0525 12.0474 603 64.5025 1121.64 543.587
567 0 50.0608 12.8244 642 63.8723 1121.23 543.257
568 0 53.0659 12.3997 658 64.4726 1122.03 541.459
569 0 55.1194 13.4798 743 63.4993 1121.72 539.402
570 0 55.1227 13.0618 720 64.9792 1121.53 539.825
571 0 57.1509 12.3183 704 66.169 1121.06 539.082
572 0 58.0547 12.8844 748 66.2273 1120.86 538.575
573 0 59.0879 13.3699 790 66.1266 1121.77 538.399
574 0 62.0828 13.5142 839 65.5066 1121.02 537.337
575 0 62.1328 13.2619 824 66.8883 1120.89 537.644
576 0 65.1461 13.5542 883 67.1925 1120.3 535.07
577 0 68.1218 13.7695 938 66.3262 1120.41 535.69
578 0 69.1709 13.3582 924 67.6212 1119.82 534.643
579 0 71.3193 13.6429 973 67.7153 1119.74 533.261
580 0 73.0571 12.9351 945 68.8794 1120.13 532.655
581 0 75.2181 13.7068 1031 68.4811 1119.47 530.732
582 0 78.2415 13.6884 1071 68.4613 1119.17 529.483
583 0 81.2745 13.6205 1107 68.5158 1119.27 529.043
584 0 83.2141 13.8678 1154 68.2149 1119.25 527.728
585 0 84.3139 13.6988 1155 68.9403 1119.14 526.505
586 0 87.2725 13.6011 1187 69.6125 1119.77 526.233
587 0 90.2188 14.1434 1276 69.0462 1119.04 523.426
588 0 93.3332 13.5107 1261 70.0238 1119.18 524.632
589 0 95.2712 13.4353 1280 70.3516 1119.34 523.213
590 1 53.2395 11.6079 618 70.7557 1119.69 544.617
591 0 56.1933 11.6384 654 72.0413 1119.68 543.102
592 0 56.1628 12.9089 725 71.3103 1119.2 542.55
593 0 58.09 13.1864 766 70.0953 1119.7 541.778
594 0 58.0835 13.2912 772 71.0168 1119.73 540.04
595 0 63.0791 13.0154 821 69.3654 1119.21 539.425
596 0 64.0863 13.4194 860 68.9919 1118.82 537.033
597 0 68.0977 13.745 936 67.7468 1118.62 536.887
598 0 69.1309 13.8867 960 68.2469 1118.61 534.116
599 0 71.1049 13.6278 969 68.6109 1118.27 534.123
600 0 74.1635 14.1849 1052 67.9278 1118.02 532.397
601 0 76.1597 13.9312 1061 68.5561 1118.71 531.683
602 0 78.0843 13.9209 1087 68.4637 1118.59 529.949
603 0 81.1067 14.0062 1136 68.7016 1118.68 527.676
604 0 83.2999 13.7335 1144 69.7684 1118.65 527.872
605 0 86.1844 14.2717 1230 68.6398 1118.22 527.657
606 0 89.1416 14.404 1284 68.2601 1119.02 526.731
607 0 92.1661 14.3328 1321 68.3429 1118.82 523.407
608 0 96.2082 14.4582 1391 67.4306 1119.02 524.387
609 0 97.2296 14.6663 1426 68.1438 1119.29 521.69
610 0 99.1727 14.621 1450 68.4172 1119.05 520.655
611 0 103.442 13.9208 1440 69.6306 1119.22 518.494
612 1 56.2206 12.3442 694 71.3386 1119.25 541.876
613 0 59.1049 12.4186 734 70.0177 1119.32 541.083
614 0 60.1168 12.5922 757 71.21 1119.24 539.564
615 0 62.0748 13.0971 813 69.9656 1119.79 537.982
616 0 65.0944 13.8722 903 69.1584 1119.07 537.172
617 0 67.0575 12.959 869 72.4822 1119.23 536.541
618 0 68.1146 13.3892 912 72.9792 1118.92 535.257
619 0 72.1051 14.0905 1016 70.9144 1119.23 533.556
620 0 73.1183 13.2935 972 72.3704 1118.68 531.471
621 0 75.1256 13.3243 1001 73.2268 1119.55 531.025
622 0 78.1683 14.149 1106 71.9322 1119.16 530.024
623 0 78.1683 14.1234 1104 172.577 1118.16 529.988
624 0 84.3727 14.6137 1233 72.3009 1119.33 527.856
625 0 85.2898 14.4097 1229 73.367 1119.33 526.933
626 0 89.3657 14.3344 1281 73.4067 1119.32 523.806
627 1 44.2867 10.7707 477 75.2117 1120 547.134
628 0 45.2397 11.627 526 74.7471 1119.63 545.698
629 0 48.3453 12.5348 606 74.0413 1120.09 543.856
630 0 50.1375 12.1466 609 73.8588 1119.63 544.373
631 0 50.1217 12.9684 650 73.0077 1119.81 542.985
632 0 52.0541 12.9096 672 73.4092 1119.32 542.246
633 0 54.0914 12.9226 699 72.6967 1120.82 542.445
634 0 56.1289 13.0058 730 71.8767 1119.92 540.61
635 0 59.0593 13.4441 794 70.2418 1120.58 539.338
636 0 60.0764 13.6326 819 70.5934 1120.32 536.718
637 0 63.0988 13.9464 880 69.3784 1120.2 536.038
638 0 66.0839 13.4677 890 68.9674 1120.48 535.716
639 0 69.0629 13.7266 948 67.9188 1120.53 534.922
640 0 72.1995 13.3519 964 68.2479 1120.34 533.825
641 0 72.3179 14.215 1028 67.1527 1121.33 531.804
642 0 74.1429 13.8516 1027 68.7868 1121.28 530.6
643 0 77.1838 13.6946 1057 69.1097 1120.61 528.158
644 0 81.0979 13.7365 1114 68.2253 1120.76 527.732
645 1 43.0492 11.9166 513 69.8869 1121.13 545.041
646 0 44.0652 12.368 545 69.2936 1120.58 543.765
647 0 45.0522 12.2746 553 69.1374 1120.48 543.738
648 0 47.0254 12.27 577 68.2496 1120.81 543.102
649 0 48.0306 13.2207 635 67.6866 1121.25 541.806
650 0 48.0394 13.7804 662 67.5529 1121.47 541.412
651 0 51.0556 13.2992 679 67.9278 1121.24 539.966
652 0 52.0841 12.7294 663 69.1704 1121.01 538.492
653 0 54.0426 13.2303 715 68.6713 1121.3 537.193
654 0 57.0418 12.9379 738 68.0772 1120.98 537.402
655 0 55.0252 12.7033 699 69.4993 1121.5 536.898
656 0 58.0225 13.4431 780 68.6397 1121.18 534.629
657 0 62.0371 14.1851 880 67.0784 1121.19 533.759
658 0 63.1593 13.5847 858 67.8555 1121.77 533.231
659 0 66.1444 13.7124 907 67.7266 1121.69 531.598
660 0 68.0913 13.7756 938 67.4424 1121.96 531.19
661 0 70.0397 13.8778 972 67.3837 1121.1 529.55
662 0 73.1092 13.4046 980 68.399 1121.59 527.436
663 0 76.0715 13.8028 1050 67.2695 1122.22 525.91
664 1 41.0151 10.5083 431 69.5545 1121.54 543.9
665 0 41.0135 12.1667 499 68.8637 1122.27 541.747
666 0 44.0185 12.2903 541 67.0444 1121.8 541.826
667 0 45.06 12.7386 574 67.3659 1122.55 541.258
668 0 46.119 12.2075 563 67.5027 1123.56 541.973
669 0 49.1942 12.9893 639 66.3646 1123.05 540.218
670 0 50.099 12.8745 645 67.1969 1122.99 539.202
671 0 50.1292 13.2258 663 67.7029 1123.74 537.021
672 0 53.0963 13.0329 692 67.659 1123.5 536.75
673 0 54.0793 13.5542 733 67.6385 1123.56 536.985
674 0 57.2431 13.3466 764 67.2291 1123.99 534.798
675 0 58.0619 13.5717 788 67.3629 1124.33 533.807
676 0 61.1297 13.2996 813 67.4293 1123.92 533.338
677 0 62.1576 13.9001 864 66.7986 1124.5 533.412
678 0 64.2162 13.2521 851 67.6463 1124.47 531.301
679 0 66.2855 13.7134 909 67.0781 1124.58 529.831
680 0 67.1095 13.2023 886 68.4379 1124.25 527.921
681 0 70.3482 13.3195 937 68.4141 1124.35 526.324
682 0 73.2343 13.9825 1024 67.2979 1124.1 524.231
683 1 37.3356 11.5975 433 69.3118 1124.76 543.208
684 0 36.1682 11.8889 430 69.5581 1124.99 543.467
685 0 40.1694 12.6962 510 68.2137 1124.77 541.145
686 0 41.1738 12.1437 500 68.086 1124.46 542.86
687 0 41.3239 13.2853 549 68.5355 1125.59 539.858
688 0 44.4941 14.0019 623 66.4912 1124.91 540.709
689 0 43.0984 13.272 572 70.3199 1124.99 541.327
690 0 46.3373 13.7902 639 68.5446 1125.43 540.998
691 0 46.1443 13.2844 613 70.9706 1126.09 539.548
692 0 46.0863 13.8436 638 70.0063 1125.36 539.765
693 0 49.4396 14.0576 695 69.4388 1125.17 538.065
694 0 50.3005 14.0158 705 69.2397 1125.4 538.268
695 0 53.5964 14.1428 758 68.6755 1124.93 536.644
696 0 53.4148 14.0223 749 69.9146 1124.74 535.984
697 0 55.3485 13.9299 771 69.2503 1125.22 536.108
698 0 56.4782 13.4388 759 70.7009 1124.94 533.975
699 0 59.5753 14.1837 845 69.0308 1124.54 533.312
700 0 59.6744 14.2105 848 69.1675 1125.26 533.434
701 0 63.6552 14.8927 948 67.6435 1124.29 531.969
702 0 65.49 14.048 920 68.9283 1123.7 530.747
703 0 68.3547 13.4885 922 69.167 1123.96 529.381
704 0 69.4779 13.8461 962 69.2048 1123.68 529.067
705 0 74.4365 14.5359 1082 67.5 1123.08 526.807
706 0 77.4776 14.3267 1110 67.7018 1123.19 526.987
707 0 79.4764 14.0042 1113 68.2336 1123.07 524.489
708 1 39.3196 11.7244 461 69.9653 1123.46 543.996
709 0 40.5878 12.7871 519 68.6012 1123.77 543.382
710 0 41.4677 12.1299 503 68.4911 1123.47 542.901
711 0 43.4871 13.7282 597 66.7404 1123.58 541.126
712 0 46.3161 14.1851 657 65.79 1123.63 541.234
713 0 46.5071 13.0518 607 68.0346 1123.87 540.343
714 0 47.4206 13.3908 635 67.2992 1123.62 539.91
715 0 49.2352 13.3238 656 67.471 1123.85 538.584
716 0 52.7114 14.2284 750 65.5867 1123.43 537.931
717 0 51.1966 13.1649 674 68.5697 1123.05 536.352
718 0 53.3897 13.4857 720 67.0111 1123.06 536.838
719 0 57.395 13.3113 764 66.4149 1122.72 535.7
720 0 58.5189 13.9271 815 65.9399 1122.61 533.904
721 0 61.288 14.1626 868 65.6175 1122.96 532.93
722 0 63.3475 13.2286 838 66.6456 1122.92 530.574
723 0 66.5015 13.1576 875 66.7371 1122.35 530.083
724 0 67.4408 14.4868 977 64.6448 1122.69 528.751
725 0 69.4848 12.751 886 67.2156 1121.85 529.186
726 0 73.4799 12.6293 928 66.7996 1121.73 527.908
727 0 74.4688 13.4687 1003 65.2473 1122.08 525.728
728 0 76.4463 12.741 974 66.0903 1121.51 524.847
729 1 41.3098 10.9175 451 64.8803 1121.76 543.124
730 0 44.2544 10.3267 457 64.2691 1121.5 543.072
731 0 43.0206 11.9013 512 62.7168 1120.44 543.459
732 0 44.1201 11.0607 488 63.1209 1119.91 542.635
733 0 45.0971 12.6838 572 62.1136 1120.03 540.612
734 0 47.1196 12.8821 607 61.4761 1120.06 540.145
735 0 47.0636 12.2175 575 62.8783 1119.85 539.337
736 0 51.0281 12.1306 619 61.6624 1119.86 539.932
737 0 52.1164 12.4529 649 62.0955 1119.94 538.342
738 0 53.1313 13.1184 697 61.5093 1119.97 537.895
739 0 55.2693 13.1538 727 61.5076 1119.99 537.149
740 0 59.3139 12.6952 753 60.8579 1119.87 537.543
741 0 59.2976 13.0359 773 60.5679 1120.34 536.352
742 0 61.2226 12.5444 768 61.2096 1120.51 534.129
743 0 64.0848 12.2026 782 61.3159 1120.01 534.331
744 0 65.2833 12.7751 834 60.6823 1119.77 531.977
745 0 69.2214 13.5363 937 59.7684 1119.56 530.411
746 0 71.3051 12.2993 877 60.8826 1119.67 531.438
747 1 37.0975 10.9441 406 59.6897 1120.48 547.18
748 0 40.083 10.4284 418 59.8923 1120.38 546.048
749 0 39.1015 10.5367 412 61.2282 1120.29 544.976
750 0 42.082 10.3607 436 60.8372 1120.4 545.014
751 0 44.0595 10.4631 461 60.2777 1120.17 545.139
752 0 46.069 11.5479 532 59.9511 1118.41 544.423
753 0 47.2511 11.7881 557 61.1616 1118.49 543.129
754 0 48.1293 11.9262 574 60.9983 1118.62 542.774
755 0 50.1246 12.6086 632 60.2959 1118.69 541.612
756 0 52.0735 12.4056 646 60.4087 1118.27 540.667
757 0 53.0726 12.172 646 61.1502 1118.53 541.133
758 0 55.1259 12.7526 703 60.5178 1118.36 540.73
759 0 57.1425 12.8276 733 60.6603 1117.88 540.861
760 0 59.0823 12.9142 763 60.2346 1117.92 539.107
761 0 61.1076 12.3062 752 61.0186 1118.38 538.52
762 0 63.2085 13.0995 828 59.8635 1118.15 537.528
763 0 65.086 13.3055 866 60.6432 1118.17 535.839
764 0 68.1414 13.1785 898 60.2717 1117.95 536.149
765 0 70.1833 13.3365 936 60.7564 1118.42 532.783
766 0 72.1175 12.7431 919 61.975 1118.99 532.087
767 0 73.2017 12.2128 894 62.943 1118.84 531.937
768 0 78.0669 12.848 1003 61.675 1118.56 530.697
769 1 40.0068 9.69835 388 62.5284 1118.18 548.771
770 0 40.1038 10.024 402 61.2189 1118.39 549.744
771 0 42.0391 10.0145 421 61.8836 1118.13 548.846
772 0 44.0757 10.6181 468 61.2906 1118.66 546.947
773 0 45.124 11.3243 511 61.2368 1118.98 546.068
774 0 46.1246 10.9269 504 61.0675 1118.94 547.248
775 0 48.181 11.7474 566 60.1961 1119.06 546.693
776 0 49.1506 11.536 567 61.3228 1119.9 546.806
777 0 51.1812 12.2506 627 60.4785 1119.72 544.104
778 0 52.0638 10.7945 562 61.8399 1118.57 543.66
779 0 55.0307 11.4663 631 60.8098 1118.83 541.979
780 0 57.1173 11.5552 660 60.3955 1118.92 541.482
781 0 57.0305 12.0287 686 60.5918 1119.26 541.503
782 0 60.063 11.6045 697 60.7977 1119.33 539.122
783 0 60.0998 11.8636 713 61.0084 1119.47 536.851
784 0 65.0669 12.4487 810 59.9778 1119.86 536.481
785 0 67.0451 11.9472 801 60.3071 1119.52 537.187
786 0 66.099 12.1484 803 61.5342 1119.97 534.56
787 0 69.1084 11.7931 815 62.0945 1119.68 533.566
788 0 70.1248 12.4635 874 62.0995 1120.28 532.022
789 0 73.0742 12.0562 881 63.3893 1120.01 531.572
790 0 76.0932 12.8921 981 62.2355 1120.29 529.901
791 0 78.1255 12.3391 964 63.1234 1120.7 528.273
792 0 79.182 12.5786 996 63.5984 1120.47 526.638
793 0 83.1227 12.259 1019 64.1845 1121.26 524.569
794 0 85.1044 13.1603 1120 62.6955 1121.64 523.922
795 0 88.1931 12.9035 1138 63.4649 1121.54 522.111
796 0 88.2269 12.5132 1104 64.0281 1122.16 520.257
797 0 92.3568 13.3396 1232 62.6745 1122.32 518.545
798 0 97.1183 12.7164 1235 63.1709 1122 517.724
799 0 101.271 12.7874 1295 62.9027 1122.06 516.269
800 0 102.218 12.3658 1264 63.9921 1122.38 514.766
801 0 104.22 12.819 1336 64.3069 1122.46 510.624
802 1 58.0458 10.2333 594 62.4646 1121.71 538.463
803 0 59.0756 10.4442 617 63.1216 1122.08 537.224
804 0 60.1721 10.3038 620 63.2306 1122.09 536.261
805 0 62.112 11.2861 701 61.9301 1122.23 536.797
806 0 64.1501 11.099 712 61.9466 1122.44 535.933
807 0 69.0184 11.794 814 61.9791 1122.69 534.205
808 0 70.1548 12.2301 858 61.1772 1122.85 531.942
809 0 72.1393 11.4639 827 62.1185 1122.88 532.757
810 0 72.1097 12.273 885 61.9695 1124.32 530.374
811 0 77.1367 12.1084 934 60.9946 1123.9 530.573
812 0 78.0955 12.0237 939 62.2492 1124.47 526.93
813 0 81.2021 12.1672 988 61.9099 1124.65 528.07
814 0 83.0715 12.2665 1019 62.3258 1124.05 523.945
815 0 87.1268 12.522 1091 62.1347 1124.57 524.147
816 0 88.1063 12.3487 1088 62.8704 1124.4 523.585
817 0 91.1495 13.2091 1204 61.8472 1124.8 519.39
818 0 94.1691 13.1041 1234 62.0924 1124.21 519.553
819 0 96.1417 11.8367 1138 64.3225 1124.3 517.499
820 0 99.204 11.6225 1153 64.7294 1124.23 518.29
821 0 104.069 12.1938 1269 63.6186 1124.82 515.204
822 1 56.0578 10.6319 596 62.953 1123.99 538.227
823 0 59.1762 9.85194 583 63.0978 1123.99 538.525
824 0 59.0564 10.4984 620 63.4339 1123.74 537.231
825 0 63.1287 10.8984 688 62.8692 1124.32 535.712
826 0 63.1232 11.5964 732 62.6817 1124.13 534.296
827 0 68.1174 11.6417 793 61.2736 1122.97 534.67
828 0 68.1718 12.2045 832 61.4159 1122.9 533.071
829 0 71.2454 11.0463 787 62.7268 1122.64 532.53
830 0 73.077 12.8631 940 60.6691 1122.79 528.224
831 0 74.2283 11.5455 857 62.105 1122.32 529.303
832 0 76.0691 12.068 918 61.8529 1122.77 528.254
833 0 81.1411 11.671 947 61.9451 1122.68 526.868
834 0 82.1685 12.0362 989 61.7877 1122.34 525.009
835 0 84.0578 11.4683 964 62.9129 1122.38 524.194
836 1 42.0595 9.32014 392 61.3316 1122.55 545.696
837 0 46.0271 9.47268 436 62.0367 1122.96 543.424
838 0 48.0547 11.4661 551 59.2033 1123.45 543.446
839 0 49.0092 10.7735 528 59.7008 1122.09 543.203
840 0 51.0391 10.7369 548 60.9891 1122.55 540.947
841 0 51.1303 12.0281 615 60.6894 1123.29 541.833
842 0 52.0614 11.9666 623 60.5024 1122.65 541.109
843 0 56.3099 12.4312 700 59.44 1123.22 539.864
844 0 55.1097 11.7584 648 61.5401 1123.38 537.793
845 0 58.1536 11.8823 691 60.8408 1121.72 537.214
846 0 60.0761 11.269 677 62.2792 1121.54 535.932
847 0 63.0582 12.1475 766 60.7663 1121.39 535.222
848 0 65.1131 13.2999 866 58.7921 1121.17 535.622
849 0 65.0373 12.6081 820 60.9305 1120.93 533.595
850 0 65.0373 12.6081 820 157.268 1120.93 533.595
851 0 68.1862 12.0112 819 62.6422 1121.59 533.628
852 0 70.2452 12.4137 872 62.6904 1121.19 530.891
853 0 71.2869 12.9898 926 62.2019 1121.08 530.347
854 0 72.1935 12.6881 916 63.0229 1120.97 530.747
855 0 76.3584 12.2973 939 63.4164 1121.14 529.564
856 0 77.3674 12.3308 954 63.8983 1121.11 528.416
857 0 81.3594 12.623 1027 63.0604 1120.91 528.06
858 1 44.1789 10.8197 478 65.046 1120.61 546.151
859 0 44.2272 10.22 452 65.8429 1120.5 546.104
860 0 46.2798 10.9983 509 65.611 1120.17 544.815
861 0 48.129 10.4926 505 66.1525 1120.17 545.255
862 0 50.1387 11.7075 587 64.9489 1120.41 542.956
863 0 51.1107 11.9153 609 65.8883 1120.17 541.642
864 0 54.171 12.6821 687 64.4833 1120.02 541.568
865 0 56.1628 12.0364 676 65.8935 1119.83 540.593
866 0 58.1471 13.0359 758 65.0752 1119.56 538.962
867 0 58.2728 12.922 753 66.1235 1119.54 538.158
868 0 60.1926 13.1079 789 65.5868 1119.31 538.771
869 0 62.294 13.1955 822 66.292 1119.19 537.558
870 0 63.2128 14.1427 894 65.2886 1119.17 538.234
871 0 65.334 13.6376 891 66.5365 1119.02 535.502
872 0 67.3214 13.5024 909 67.2178 1119.45 536.003
873 0 70.4266 13.4324 946 66.8319 1118.91 534.905
874 0 72.3545 14.3322 1037 65.7001 1119.58 532.631
875 0 73.1843 13.5412 991 67.001 1118.81 532.759
876 0 76.3507 13.0582 997 67.8415 1118.96 531.619
877 0 78.4055 13.6087 1067 66.8885 1118.66 532.195
878 0 80.3596 13.116 1054 68.3036 1119.17 530.759
879 0 81.3163 13.5397 1101 68.8156 1119.2 529.002
880 0 84.3576 14.0118 1182 68.0863 1118.66 528.325
881 0 87.3077 14.489 1265 66.8957 1118.68 527.383
882 0 92.3254 13.9723 1290 67.4698 1118.95 524.667
883 0 95.3135 14.3736 1370 67.1321 1119.26 522.834
884 1 48.1134 10.9741 528 70.4375 1118.73 546.498
885 0 50.1412 11.9064 597 70.0318 1118.59 544.789
886 0 50.2358 11.446 575 70.967 1118.34 544.117
887 0 53.1128 11.6356 618 70.2945 1118.54 543.958
888 0 56.1228 13.2566 744 67.6478 1119.44 540.675
889 0 57.116 12.4659 712 69.1517 1119.82 540.933
890 0 61.1428 13.1005 801 67.2871 1119.44 538.754
891 0 60.2099 12.9048 777 68.2999 1119.54 537.974
892 0 63.2079 13.8907 878 66.6241 1119.5 536.007
893 0 66.2694 14.3505 951 64.98 1119.9 535.289
894 0 66.4119 13.0549 867 94.5525 1119.57 534.563
895 0 69.2469 13.3724 926 66.8575 1120.26 533.042
896 0 72.3201 13.8965 1005 65.9164 1120.73 531.438
897 0 73.341 14.3576 1053 65.358 1120.68 529.596
898 0 76.3821 14.1133 1078 65.5158 1120.65 528.107
899 0 77.2076 14.325 1106 65.1067 1121.38 528.64
900 0 80.1779 13.944 1118 66.0242 1121.51 526.811
901 0 83.1278 14.4115 1198 64.4917 1121.52 526.261
902 0 84.3884 14.457 1220 65.2926 1122.1 523.643
903 0 88.2572 14.0838 1243 65.5406 1122.09 522.813
904 0 88.2609 14.5251 1282 65.507 1122.21 522.478
905 0 93.2608 14.5828 1360 64.6 1122.21 521.412
906 0 94.2771 14.4574 1363 65.755 1122.58 518.478
907 0 98.1836 14.646 1438 65.5459 1122.77 515.586
908 0 102.228 14.3209 1464 65.8832 1122.99 514.066
909 0 104.362 14.2581 1488 66.0222 1122.81 512.8
910 0 109.536 14.8445 1626 65.0818 1122.98 511.611
911 1 61.2298 12.4776 764 68.4476 1122.93 533.652
912 0 64.2865 13.0665 840 66.7976 1122.64 534.437
913 0 66.2216 13.6964 907 66.8931 1123.12 531.159
914 0 67.2323 12.5089 841 68.805 1122.98 531.95
915 0 68.2354 13.9517 952 67.7878 1123.43 530.699
916 0 73.2597 13.5545 993 67.4038 1123.31 530.665
917 0 73.2177 14.1086 1033 67.4066 1123.91 529.379
918 0 76.2495 14.4919 1105 66.7258 1123.9 526.533
919 0 80.1657 13.3099 1067 67.6898 1123.79 525.25
920 0 82.3023 13.1831 1085 67.9134 1123.78 522.638
921 0 84.1701 13.9836 1177 66.8029 1124.35 523.76
922 0 89.1886 14.1049 1258 65.9849 1124.57 521.682
923 0 91.1629 14.2273 1297 66.1974 1124.36 520.17
924 0 93.2624 14.7541 1376 66.3292 1124.98 518.247
925 0 96.1605 13.6231 1310 67.7061 1124.76 518.122
926 0 100.153 14.1184 1414 66.599 1124.76 517.182
927 0 103.128 14.6808 1514 66.3415 1124.76 513.448
928 0 106.167 13.8179 1467 67.591 1124.95 512.055
929 0 110.167 13.9515 1537 67.4418 1125.04 511.144
930 0 114.262 13.8103 1578 67.7763 1125.35 508.741
931 0 119.209 14.6717 1749 66.7387 1125.13 506.298
932 1 51.119 10.231 523 67.2333 1124.58 542.574
933 0 52.0666 9.92959 517 67.6944 1124.54 541.387
934 0 54.044 12.2678 663 65.8808 1124.09 539.852
935 0 55.1069 12.2489 675 66.4874 1124.43 539.267
936 0 59.0881 13.1499 777 65.0347 1124.16 539.293
937 0 59.1045 12.6556 748 67.1551 1124.35 537.437
938 0 63.0669 13.3192 840 65.4679 1124.49 536.99
939 0 65.157 12.4162 809 66.9098 1124.72 535.817
940 0 66.1097 12.8725 851 66.4841 1124.24 534.024
941 0 68.1287 12.9461 882 66.3141 1124.12 533.875
942 0 69.0742 12.5807 869 67.1956 1123.69 532.465
943 0 73.0954 12.8052 936 66.5449 1123.7 530.551
944 0 76.0687 12.7253 968 66.4256 1123.67 530.646
945 0 77.0786 13.4797 1039 66.2185 1123.42 529.021
946 0 79.0889 13.1624 1041 67.3218 1123.23 527.246
947 0 83.126 13.0645 1086 67.4567 1123.11 527.238
948 0 86.2302 13.7887 1189 66.7872 1122.94 524.087
949 1 44.0626 10.3035 454 68.7885 1122.2 546.452
950 0 46.0105 11.7799 542 67.1162 1121.71 545.98
951 0 48.013 11.8718 570 67.7596 1121.91 544.875
952 0 50.0343 12.6313 632 67.057 1121.71 543.087
953 0 51.0497 12.8698 657 67.2557 1121.77 543.04
954 0 53.0496 12.9879 689 67.1626 1121.95 543.048
955 0 53.0323 13.1995 700 68.7186 1121.6 541.343
956 0 53.0363 12.4632 661 70.4992 1122.1 541.528
957 0 56.0946 12.9424 726 70.2355 1122.2 540.64
958 0 57.0423 12.4995 713 70.669 1121.9 541.522
959 0 61.0758 13.1149 801 69.9763 1122.36 538.385
960 0 63.1002 12.9477 817 70.3084 1122.12 538.66
961 0 64.1756 12.9177 829 70.5078 1121.72 537.455
962 0 67.4131 13.128 885 69.6938 1122.17 536.956
963 0 69.2797 13.8857 962 68.6871 1122.23 534.746
964 0 72.2078 13.0041 939 69.5005 1121.76 532.678
965 0 74.2218 14.0121 1040 68.1452 1121.3 531.38
966 1 38.1707 11.6581 445 71.1618 1121.56 549.396
967 0 38.0709 12.6081 480 68.8417 1121.59 551.225
968 0 39.128 13.5708 531 69.1977 1122.08 550.049
969 0 42.0318 13.7515 578 68.9308 1122.06 547.412
970 0 42.0264 13.206 555 70.3495 1121.5 548.047
971 0 46.0536 14.3311 660 67.5106 1121.24 546.57
972 0 46.0435 13.0963 603 70.1658 1121.7 545.852
973 0 48.059 13.8372 665 68.8797 1121.51 545.618
974 0 47.0883 14.802 697 69.1636 1121.56 543.9
975 0 50.0736 15.1377 758 67.8773 1121.15 543.735
976 0 50.1575 14.4545 725 69.3793 1121.34 543.626
977 0 52.0439 14.3917 749 68.9733 1121.01 543.768
978 0 55.188 14.8946 822 67.9611 1120.86 541.328
979 0 55.2409 15.2966 845 67.7172 1120.59 542.004
980 0 56.0852 15.1912 852 68.2289 1120.87 541.185
981 0 58.2129 15.0482 876 68.8379 1120.85 539.244
982 0 60.2261 15.392 927 68.1338 1120.75 538.275
983 0 60.06 14.2524 856 70.7138 1120.52 538.516
984 0 62.134 15.0642 936 69.3825 1120.36 537.677
985 0 65.0481 14.8813 968 69.9174 1120.28 536.319
986 0 67.2574 15.5373 1045 68.9206 1120.34 536.221
987 0 69.0791 15.2289 1052 69.8089 1120.46 535.781
988 0 73.3586 14.9812 1099 69.6242 1120.44 533.562
989 0 75.5396 14.9855 1132 69.7226 1120.84 531.308
990 0 79.4181 15.1729 1205 68.79 1120.98 531.656
991 1 36.2776 14.4166 523 72.4608 1121.16 550.438
992 0 37.39 15.4854 579 71.7323 1120.94 549.917
993 0 39.4251 13.3925 528 74.8826 1120.98 549.998
994 0 41.5355 15.0714 626 72.1534 1121.17 549.356
995 0 41.5546 14.4388 600 74.025 1120.77 549.167
996 0 42.551 13.8892 591 75.4839 1120.95 549.731
997 0 44.6655 15.6721 700 73.2314 1121.11 548.431
998 0 46.5923 15.7108 732 73.2377 1120.55 547.161
999 0 48.4597 15.7451 763 72.8663 1120.82 545.668
1000 0 48.8207 15.0346 734 76.1989 1121.15 545.644
1001 0 52.0057 15.306 796 74.2035 1121.07 545.76
1002 0 53.9364 15.9633 861 72.5714 1120.82 544.178
1003 0 55.0813 15.6315 861 72.2323 1120.91 543.489
1004 0 56.8861 15.6277 889 72.6097 1120.98 543.321
1005 0 58.7043 16.0976 945 71.6931 1120.55 541.369
1006 0 61.995 16.2432 1007 70.7944 1120.89 540.955
1007 0 63.8843 16.3264 1043 70.2359 1121.09 540.861
1008 0 66.43 16.2577 1080 70.6565 1120.9 539.18
1009 0 67.7388 15.4712 1048 72.1813 1120.76 537.291
1010 0 70.8193 15.8855 1125 71.6933 1120.61 537.662
1011 0 71.7278 16.1304 1157 71.7226 1120.51 535.389
1012 0 74.708 15.835 1183 72.8453 1120.7 533.941
1013 0 77.679 15.4224 1198 73.0618 1120.71 533.677
1014 0 78.8379 15.9314 1256 73.0908 1120.49 532.597
1015 0 83.8813 16.0465 1346 71.1233 1120.5 531.251
1016 0 86.7744 16.1453 1401 71.1613 1120.71 530.903
1017 0 89.2176 15.2885 1364 72.2119 1120.97 528.306
1018 0 91.8916 16.1821 1487 70.3719 1121.2 525.51
1019 1 43.5967 14.2442 621 73.2609 1122.03 549.559
1020 0 43.923 15.2084 668 71.991 1121.51 549.948
1021 0 46.1265 13.463 621 74.2432 1121.34 549.092
1022 0 49.0341 15.1935 745 71.3436 1121.07 546.854
1023 0 48.7787 14.5965 712 72.7809 1121.61 547.274
1024 0 51.8557 15.4467 801 71.2534 1121.55 544.866
1025 0 53.6809 15.4058 827 71.3398 1122.24 544.264
1026 0 55.7651 15.8163 882 70.1723 1122.21 542.909
1027 0 58.9302 16.2226 956 68.7092 1122 542.547
1028 0 60.9998 15.7869 963 69.7591 1122.46 542.514
1029 0 63.6643 15.6446 996 69.998 1122.39 540.446
1030 0 64.7226 15.0334 973 71.9157 1122.57 538.732
1031 0 66.7383 16.6621 1112 69.2509 1122.37 536.884
1032 0 70.2105 15.539 1091 70.4528 1122.21 536.082
1033 0 71.6318 15.6774 1123 70.6634 1122.62 535.288
1034 0 73.6906 15.9722 1177 69.9567 1123.39 534.02
1035 0 75.6222 14.4402 1092 72.0678 1123.02 534.277
1036 0 77.6911 15.523 1206 70.8118 1123.33 532.973
1037 0 78.7128 15.0801 1187 72.8425 1123.44 530.563
1038 0 81.5572 15.0937 1231 72.5784 1123.98 529.128
1039 0 82.7079 14.7991 1224 73.5229 1123.9 528.34
1040 1 37.5345 13.9605 524 74.8397 1124.94 548.803
1041 0 39.7006 13.5011 536 75.5205 1125.42 548.302
1042 0 41.6735 15.1175 630 73.0143 1125.23 547.71
1043 0 43.6162 14.9257 651 72.6836 1125.29 546.61
1044 0 45.6131 14.8422 677 72.9439 1125.45 546.347
1045 0 45.661 15.0676 688 73.7602 1125.62 544.978
1046 0 45.5401 13.9877 637 76.0565 1125.78 544.706
1047 0 47.2809 13.8957 657 75.1705 1125.88 544.09
1048 0 48.3801 15.0062 726 74.2259 1125.75 542.533
1049 0 52.4719 14.6936 771 73.2438 1125.93 542.178
1050 0 52.3268 14.1037 738 74.9973 1126.45 542.359
1051 0 55.3593 14.1982 786 74.9453 1126.45 539.254
1052 0 57.4633 15.1923 873 74.0321 1126.71 537.948
1053 0 58.2306 14.4598 842 75.3777 1126.3 537.538
1054 0 59.3116 14.8032 878 75.4123 1126.3 535.877
1055 0 63.3781 13.8534 878 76.336 1126.59 535.688
1056 0 65.4563 15.0635 986 75.3448 1126.38 533.62
1057 0 68.2038 14.4273 984 75.9522 1126.24 533.195
1058 0 68.2301 13.9235 950 77.2947 1126.43 531.594
1059 0 71.1358 14.5356 1034 76.3897 1125.92 530.113
1060 0 74.1993 15.6875 1164 73.6134 1125.55 529.832
1061 0 73.1104 14.8132 1083 75.8735 1125.83 529.143
1062 0 78.1424 14.6271 1143 75.2205 1125.64 528.824
1063 0 81.2761 14.8629 1208 75.2144 1125.24 527.686
1064 0 83.2644 15.6129 1300 74.0554 1125.38 526.508
1065 0 86.3956 15.0818 1303 75.8396 1124.97 524.888
1066 0 86.1999 14.1531 1220 78.1418 1125.19 523.589
1067 0 91.3369 15.1746 1386 75.9704 1125.07 522.899
1068 0 93.3886 14.7663 1379 77.4518 1124.78 521.575
1069 0 96.3486 15.1222 1457 77.1393 1124.55 519.865
1070 0 99.2876 14.1609 1406 79.0775 1124.41 518.083
1071 0 102.247 14.0346 1435 79.6683 1124.58 516.96
1072 0 106.154 15.1383 1607 78.1998 1124.77 514.86
1073 0 110.212 14.8713 1639 78.3527 1124.45 513.594
1074 0 113.328 14.4448 1637 79.9462 1124.41 509.911
1075 0 118.211 15.1424 1790 79.1045 1124.18 509.339
1076 0 123.499 15.0284 1856 79.4089 1123.78 506.447
1077 0 128.38 15.8125 2030 77.8084 1123.89 503.392
1078 1 68.0993 12.1147 825 79.8448 1123.83 534.321
1079 0 71.22 12.0893 861 80.6655 1123.61 531.699
1080 0 74.2073 13.5971 1009 78.9455 1123.65 531.395
1081 0 76.1434 14.1706 1079 78.7266 1123.57 529.256
1082 0 79.1842 14.6368 1159 78.0328 1123.3 528.066
1083 0 81.2813 13.7424 1117 80.2247 1123.49 526.76
1084 0 82.1653 14.1544 1163 80.0602 1123.28 525.862
1085 0 85.3229 13.9236 1188 80.5143 1123.35 525.806
1086 0 89.3684 14.1101 1261 79.7272 1123.65 524.151
1087 0 91.2923 13.7799 1258 81.0167 1123.87 522.754
1088 0 95.4119 14.4007 1374 79.5211 1123.35 522.205
1089 1 52.1728 10.2352 534 78.8146 1123.37 544.101
1090 0 55.1605 11.4756 633 77.4803 1123.52 542.736
1091 0 56.3497 12.9548 730 74.7562 1123 542.059
1092 0 57.4453 11.907 684 77.3231 1123.6 541.566
1093 0 60.2657 13.3907 807 74.7249 1123.61 540.321
1094 0 62.5158 12.2849 768 75.8086 1123.82 539.09
1095 0 65.3992 13.6852 895 72.886 1123.11 536.85
1096 0 67.4051 11.6163 783 75.2184 1123.64 536.513
1097 0 71.4276 12.6422 903 73.4075 1122.6 534.707
1098 0 71.6066 12.3871 887 74.4126 1123.11 533.276
1099 0 75.52 12.9105 975 72.8544 1123.3 532.401
1100 0 77.3885 13.2319 1024 72.3115 1122.76 531.256
1101 0 81.4362 13.9373 1135 70.8379 1122.77 530.74
1102 0 84.53 12.741 1077 72.8459 1122.42 527.865
1103 1 46.4244 10.8133 502 73.3008 1122.4 547.155
1104 0 47.2636 10.5578 499 72.8577 1122.52 547.146
1105 0 51.352 12.1125 622 70.4293 1121.97 545.148
1106 0 48.2813 11.7437 567 72.0176 1122.25 544.478
1107 0 53.2134 11.7264 624 69.9022 1122.37 545.144
1108 0 52.3156 11.3542 594 71.5337 1122.33 543.589
1109 0 54.2166 11.7676 638 71.4608 1122.4 541.279
1110 0 55.3248 11.9657 662 70.3293 1122.67 541.56
1111 0 56.256 12.6387 711 69.218 1121.84 539.626
1112 0 59.1475 12.2068 722 68.8089 1122.2 539.666
1113 0 59.1341 11.8713 702 69.2564 1122.48 539.661
1114 0 63.3663 12.12 768 68.6341 1122.21 538.46
1115 0 64.4381 12.1046 780 68.2872 1121.57 537.541
1116 0 66.3391 12.5869 835 67.5521 1121.28 537.471
1117 0 68.4769 12.2961 842 67.8919 1121.07 536.253
1118 0 72.3961 12.9151 935 66.9743 1120.99 534.351
1119 1 40.8909 10.5158 430 68.4953 1121.39 550.044
1120 0 39.2787 10.8201 425 68.2965 1121.27 549.913
1121 0 40.3107 10.7416 433 68.2448 1121.65 548.554
1122 0 43.3409 10.6135 460 68.4348 1121.89 547.696
1123 0 45.4441 10.2984 468 68.0513 1121.93 545.895
1124 0 44.2669 9.96231 441 68.4558 1122.22 547.569
1125 0 45.375 10.9752 498 66.1084 1121.88 547.572
1126 0 48.194 12.1384 585 63.9111 1122.37 547.602
1127 0 48.1158 11.4723 552 66.6884 1122.17 546.348
1128 0 49.1056 12.3815 608 65.8898 1122.13 547.38
1129 0 51.0427 12.0096 613 67.0538 1121.56 543.594
1130 0 51.0427 12.0291 614 152.023 1121.53 543.552
1131 0 55.017 12.1781 670 65.9075 1121.5 541.391
1132 0 56.0347 12.9563 726 65.7796 1121.38 539.503
1133 0 57.0595 12.7411 727 65.7607 1121.25 539.645
1134 0 60.1065 12.6609 761 65.7254 1121.17 540.246
1135 0 59.1402 11.8363 700 68.2 1121.63 538.624
1136 0 60.0955 12.1806 732 67.7227 1121.36 537.286
1137 0 63.0427 13.007 820 65.8439 1121.42 539.02
1138 0 64.0504 12.0998 775 67.8194 1121.48 537.777
1139 0 65.1012 12.6572 824 67.4867 1121.82 537.272
1140 0 65.0401 11.4391 744 69.0511 1121.67 537.19
1141 0 67.0671 12.152 815 67.573 1121.96 536.575
1142 0 70.1194 12.6213 885 68.8102 1121.94 534.877
1143 0 73.2278 12.5499 919 68.7835 1122.09 534.153
1144 0 75.1681 13.3833 1006 67.7942 1122.28 530.506
1145 0 78.2395 12.5001 978 68.3548 1122.41 529.671
1146 1 41.2071 10.1439 418 69.2512 1122.56 547.892
1147 0 45.2038 11.5477 522 68.8372 1123.03 545.218
1148 0 46.0461 11.7925 543 68.7882 1123.27 544.867
1149 0 48.0627 12.6918 610 68.7967 1123.28 544.7
1150 0 51.1419 13.1204 671 67.3517 1123.18 544.86
1151 0 50.2551 13.133 660 68.8848 1123.6 544.27
1152 0 53.21 12.2158 650 69.4846 1123.67 543.522
1153 0 55.1628 13.723 757 67.0357 1124.03 543.003
1154 0 56.158 12.7854 718 69.3175 1124.12 541.4
1155 0 58.2516 14.0425 818 67.0636 1123.84 541.616
1156 0 58.2992 13.465 785 68.9172 1124 539.66
1157 0 61.126 13.6439 834 68.3285 1124.27 539.047
1158 0 62.1616 13.5614 843 68.6275 1124.61 538.306
1159 0 64.2236 13.1883 847 69.2078 1124.92 537.976
1160 0 66.3656 13.1695 874 69.3238 1125.5 535.533
1161 0 68.0828 14.1739 965 67.8663 1125.28 534.031
1162 0 70.2908 14.44 1015 67.1034 1125.77 533.636
1163 0 73.311 13.7906 1011 67.9466 1125.52 531.711
1164 0 74.1318 14.0291 1040 68.1481 1125.9 530.81
1165 0 77.2131 13.4692 1040 68.3308 1125.78 531.306
1166 0 81.1448 13.3835 1086 68.011 1125.59 528.574
1167 1 43.1382 11.9384 515 69.235 1126.33 547.388
1168 0 44.2258 12.4814 552 69.2283 1126.97 545.44
1169 0 47.2114 13.196 623 68.6244 1126.68 545.018
1170 0 49.0666 13.5938 667 66.8966 1126.57 542.999
1171 0 49.1743 14.2351 700 67.0014 1126.68 542.116
1172 0 52.137 14.7112 767 65.3442 1126.97 542.404
1173 0 54.188 13.8038 748 67.0094 1127.09 540.302
1174 0 54.2065 13.9836 758 67.0594 1126.98 540.234
1175 0 55.0982 12.995 716 69.1173 1127.16 540.099
1176 0 58.0792 13.3094 773 68.6494 1127.43 538.951
1177 0 59.268 14.4429 856 66.9322 1127.28 538.067
1178 0 60.1268 13.2886 799 69.4781 1127.42 536.773
1179 0 62.2029 13.8579 862 68.4594 1127.55 535.795
1180 0 64.1472 14.2641 915 68.2437 1127.37 535.05
1181 0 66.1743 13.7213 908 69.0275 1127.77 533.2
1182 0 70.2369 14.1094 991 67.444 1127.1 533.262
1183 0 72.2738 14.3205 1035 67.8048 1126.57 530.019
1184 0 75.3204 14.7769 1113 66.1051 1127.04 531.427
1185 0 77.1945 13.7056 1058 68.3204 1126.62 528.398
1186 0 80.5068 14.7814 1190 66.5336 1126.04 526.561
1187 0 83.389 14.0066 1168 67.8253 1125.82 526.449
1188 0 87.321 14.9792 1308 66.091 1126.29 524.054
1189 0 90.2915 14.8187 1338 66.1599 1126.47 521.854
1190 1 45.137 13.027 588 68.9337 1125.23 542.133
1191 0 48.1522 11.879 572 68.6329 1125.79 543.191
1192 0 49.2399 12.5508 618 68.6974 1125.44 542.769
1193 0 49.2277 12.4117 611 69.3191 1125.55 541.003
1194 0 53.2132 14.301 761 65.3272 1125.51 540.643
1195 0 56.3406 14.6253 824 63.9951 1125.3 538.85
1196 0 57.3754 13.6295 782 66.0102 1125.07 538.224
1197 0 59.158 13.7259 812 65.9852 1124.98 535.647
1198 0 59.4299 12.7545 758 67.9327 1124.85 536.76
1199 0 62.5021 13.8555 866 65.8118 1124.98 535.49
1200 0 62.3932 13.2867 829 67.0832 1124.75 534.235
1201 0 65.5305 13.9477 914 65.6182 1124.62 533.79
1202 0 66.321 13.1934 875 67.1269 1124.34 532.326
1203 0 69.3088 14.1108 978 65.6002 1124.33 531.226
1204 0 73.5607 14.9808 1102 63.8666 1124.24 529.675
1205 0 75.6121 13.966 1056 65.7188 1124.13 528.28
1206 0 76.4647 13.7318 1050 66.2067 1124.12 527.956
1207 0 80.5848 13.886 1119 66.1653 1123.8 526.902
1208 0 81.3558 13.7667 1120 66.9107 1123.86 526.002
1209 0 87.4966 14.4006 1260 65.0341 1124.01 523.924
1210 0 88.3912 13.9154 1230 65.5626 1123.52 522.237
1211 0 91.2484 14.0167 1279 65.4332 1124.37 522.342
1212 0 93.3692 13.8268 1291 66.33 1124.29 519.885
1213 0 99.2715 14.9086 1480 64.0365 1123.85 517.968
1214 1 50.2048 11.3933 572 67.299 1123.93 542.545
1215 0 52.7445 11.0154 581 68.5508 1123.81 541.522
1216 0 55.3384 12.017 665 67.7398 1123.45 538.442
1217 0 59.286 12.1783 722 67.1219 1123.35 537.91
1218 0 61.2617 13.5158 828 65.2572 1123.42 537.552
1219 0 61.465 13.8778 853 64.646 1123.25 537.6
1220 0 64.3677 13.3918 862 66.0278 1123.11 535.556
1221 0 67.3308 13.7084 923 65.2914 1123.82 533.785
1222 0 69.2293 13.8381 958 64.9645 1123.1 532.909
1223 0 71.1647 13.532 963 65.2378 1122.88 532.271
1224 0 74.4525 13.0553 972 65.7212 1122.41 532.401
1225 0 76.3665 13.8543 1058 64.8365 1122.17 529.432
1226 0 77.2804 13.9363 1077 65.403 1122.21 528.111
1227 0 81.3159 13.6259 1108 65.398 1122.24 527.84
1228 0 84.3853 13.2251 1116 66.0735 1122.06 527.13
1229 0 88.495 13.7974 1221 64.5479 1122.12 525.702
1230 0 91.3061 14.1721 1294 64.5201 1122.25 523.001
1231 0 93.2491 14.3701 1340 64.4993 1122.2 520.382
1232 0 95.4556 14.4046 1375 64.2742 1121.97 518.299
1233 0 99.2476 13.4109 1331 66.0331 1121.79 517.63
1234 0 102.223 13.9988 1431 65.007 1121.97 515.681
1235 0 106.251 15.0963 1604 63.1297 1121.32 515.839
1236 0 108.344 14.3893 1559 64.4176 1121.57 513.944
1237 1 57.355 10.3391 593 65.3423 1121.92 541.435
1238 0 58.1781 10.4679 609 65.2365 1122.23 539.747
1239 0 57.1738 11.0365 631 65.0127 1122.25 538.959
1240 0 62.3194 11.2325 700 64.1029 1121.63 538.904
1241 0 64.3359 12.155 782 62.9322 1122.3 537.723
1242 0 65.1249 11.547 752 63.3444 1121.35 535.883
1243 0 68.304 12.1662 831 62.0963 1121.5 535.306
1244 0 70.2341 12.259 861 62.3624 1121.61 533.337
1245 0 72.3677 12.7267 921 61.6515 1121.28 532.855
1246 0 74.2037 12.0479 894 62.3971 1121.65 531.232
1247 0 77.1097 13.0982 1010 61.4059 1121.2 529.887
1248 0 79.2023 13.0173 1031 62.7129 1121.11 529.97
1249 0 81.2481 12.6895 1031 63.7837 1121.44 526.999
1250 0 84.2689 11.9736 1009 64.4777 1121.98 526.458
1251 0 88.1365 12.7416 1123 63.3134 1122.12 524.515
1252 0 90.2046 13.0703 1179 62.894 1122.11 523.46
1253 0 92.2792 12.9498 1195 63.4427 1121.96 520.814
1254 0 97.4333 12.9935 1266 62.94 1122.25 520.727
1255 0 100.375 12.1744 1222 64.5867 1122.11 517.853
1256 0 100.436 11.9877 1204 65.4427 1122.42 518.344
1257 1 55.4282 11.3841 631 62.0713 1123.37 542.138
1258 0 56.2646 10.3795 584 63.2466 1123.98 541.825
1259 0 57.3347 11.4067 654 63.2355 1123.83 540.217
1260 0 59.4331 11.8621 705 62.1234 1124.03 539.444
1261 0 61.3895 11.7447 721 61.889 1124.08 537.245
1262 0 63.4404 12.2792 779 61.3684 1123.83 537.045
1263 0 65.3166 12.2633 801 61.2871 1124.02 537.32
1264 0 65.2981 12.4047 810 62.3049 1124.19 535.09
1265 0 67.3814 12.6444 852 62.1937 1123.77 535.458
1266 0 68.3076 11.9606 817 63.0979 1124.24 532.6
1267 0 72.4805 12.9414 938 61.6546 1124.35 531.576
1268 0 74.4809 12.3656 921 62.6417 1124.5 532.014
1269 0 76.408 12.3416 943 63.3181 1124.54 530.1
1270 0 79.5046 13.0181 1035 62.285 1124.44 528.723
1271 0 80.5052 12.7569 1027 63.7332 1124.84 526.336
1272 0 83.498 12.8865 1076 63.4154 1125.01 524.895
1273 0 84.4397 12.802 1081 63.914 1125.15 524.542
1274 0 88.3864 14.3461 1268 61.5678 1125.61 522.013
1275 0 90.3142 13.6634 1234 63.077 1125.9 521.087
1276 0 94.2724 14.0868 1328 62.3878 1126.09 517.383
1277 0 96.3214 13.4861 1299 63.311 1126.27 518.46
1278 0 99.3872 13.1003 1302 63.8495 1127.11 514.945
1279 0 103.657 14.3454 1487 61.883 1126.96 515.346
1280 0 104.371 13.8736 1448 63.232 1126.78 513.377
1281 0 109.555 13.9564 1529 63.0164 1126.7 510.224
1282 0 113.348 13.6483 1547 62.8093 1127.43 509.144
1283 0 116.356 14.1548 1647 61.9824 1127.17 505.775
1284 1 63.2725 12.2644 776 61.451 1127.72 534.107
1285 0 64.241 11.0833 712 62.7317 1127.76 535.468
1286 0 67.2345 12.6274 849 61.013 1127.55 532.232
1287 0 68.3134 12.4866 853 61.7913 1127.57 530.79
1288 0 71.4545 13.701 979 60.2012 1127.49 529.376
1289 0 75.2445 12.4395 936 61.4562 1127.41 529.34
1290 0 76.2933 12.8058 977 61.0563 1127.82 528.414
1291 0 77.3057 12.1595 940 61.9191 1127.64 526.349
1292 0 80.2097 12.2055 979 62.096 1127.41 525.375
1293 0 81.4121 12.0498 981 62.2834 1127.53 524.051
1294 0 84.3327 12.6878 1070 61.0019 1128.07 522.059
1295 0 87.3394 13.1899 1152 60.4479 1127.95 520.258
1296 0 92.2472 12.1088 1117 61.6509 1127.5 520.432
1297 0 93.3111 12.8495 1199 61.1268 1127.26 518.177
1298 0 97.1436 12.744 1238 60.8586 1127.12 514.943
1299 0 99.2395 12.6865 1259 60.8658 1127.5 514.963
1300 0 104.104 13.2464 1379 60.1574 1127.36 512.088
1301 1 57.169 11.0899 634 60.3076 1127.08 537.358
1302 0 60.2696 11.1333 671 60.0969 1126.78 536.069
1303 0 60.1981 11.8442 713 59.6816 1127.08 534.884
1304 0 62.2043 11.4622 713 59.7784 1127.68 535.857
1305 0 64.172 12.0302 772 58.2098 1127.04 534.273
1306 0 65.2659 13.0849 854 57.9895 1126.62 529.474
1307 0 67.1926 12.2335 822 59.4161 1127.53 529.116
1308 0 69.2286 13.1882 913 58.3779 1126.59 528.065
1309 0 73.2 13.2923 973 57.5899 1127.01 528.604
1310 0 76.3158 13.2345 1010 57.8069 1126.15 524.751
1311 0 78.3421 12.3178 965 59.028 1126.54 523.827
1312 0 78.0756 12.5519 980 59.9214 1126.39 523.174
1313 0 81.3161 12.2485 996 59.8283 1125.87 521.522
1314 0 84.2694 12.9466 1091 59.0156 1125.6 520.755
1315 0 88.3834 13.7582 1216 57.5025 1124.72 519.758
1316 0 90.3836 13.3653 1208 58.4727 1124.55 512.531
1317 0 95.5934 13.6202 1302 58.3978 1124.53 514.978
1318 0 97.7752 13.6129 1331 58.1946 1124.5 517.787
1319 1 53.1287 9.67462 514 60.0078 1124.25 537.654
1320 0 55.078 11.1841 616 57.5844 1123.75 539.226
1321 0 56.1038 10.7836 605 58.8165 1124.62 538.982
1322 0 57.0569 11.8654 677 57.6352 1124.01 538.313
1323 0 58.1683 12.3435 718 57.3315 1123.85 536.726
1324 0 61.1632 12.7528 780 56.6385 1124.54 535.513
1325 0 63.057 11.672 736 57.8899 1124.16 534.527
1326 0 65.1711 12.2447 798 57.1028 1124.31 535.774
1327 0 66.2397 12.5604 832 57.3702 1123.65 534.061
1328 0 67.1643 12.2386 822 58.2725 1123.75 532.978
1329 0 68.101 13.3185 907 56.2811 1123.84 532.111
1330 0 72.1436 13.3068 960 56.6177 1123.27 531.719
1331 0 72.1467 13.4032 967 56.7239 1123.13 530.882
1332 0 76.1057 12.7717 972 57.0885 1123.1 529.478
1333 0 75.2816 13.3764 1007 56.289 1122.45 526.282
1334 0 78.3259 13.4566 1054 57.7059 1122.81 528.804
1335 0 79.1377 13.4197 1062 58.2382 1122.63 526.521
1336 0 84.187 13.7551 1158 56.7712 1122.48 524.593
1337 0 86.2125 12.8288 1106 58.1157 1122.96 522.627
1338 1 46.1847 9.91669 458 58.2227 1122.73 544.537
1339 0 48.1426 11.7152 564 55.4167 1122.86 543.362
1340 0 50.0289 11.5533 578 55.7716 1123.25 542.41
1341 0 50.0812 11.8807 595 55.8706 1123.96 542.089
1342 0 54.163 12.2593 664 54.2575 1123.99 541.568
1343 0 52.1366 11.8726 619 54.9321 1123.52 540.102
1344 0 56.1544 12.2341 687 53.9229 1123.53 539.07
1345 0 56.0987 11.9254 669 54.3244 1123.63 538.033
1346 0 57.1817 12.5914 720 53.6625 1123.55 537.936
1347 0 60.1583 12.6998 764 53.6204 1123.1 537.195
1348 0 61.2262 11.5637 708 54.8305 1122.85 538.061
1349 0 62.1428 12.0046 746 54.7869 1122.79 535.622
1350 0 65.1488 12.2489 798 54.8308 1122.78 536.033
1351 0 66.0863 13.3764 884 54.3688 1122.55 532.922
1352 0 69.1132 13.1668 910 54.3879 1122.36 534.186
1353 0 71.2089 12.7512 908 55.4482 1122.49 533.514
1354 0 73.1344 12.6753 927 55.8695 1122.31 533.234
1355 0 73.148 11.4289 836 57.7452 1122.09 532.128
1356 0 77.0962 13.8139 1065 55.7709 1121.95 530.054
1357 0 78.1903 13.4416 1051 56.9077 1121.64 530.35
1358 0 81.152 13.0742 1061 57.2799 1121.26 529.429
1359 0 83.1438 13.2902 1105 57.5222 1121.26 526.921
1360 0 85.2247 12.4846 1064 59.3299 1121.02 526.623
1361 0 89.1695 13.4912 1203 57.8678 1120.8 525.567
1362 1 49.1444 9.64505 474 59.6414 1121.39 545.852
1363 0 51.0602 10.3995 531 59.0527 1121.18 544.895
1364 0 51.0936 10.9603 560 58.9071 1121.38 544.511
1365 0 52.0636 11.8893 619 58.4637 1121.26 543.842
1366 0 54.0479 11.7858 637 58.5306 1120.86 541.755
1367 0 54.0311 12.2707 663 59.3348 1121.76 541.303
1368 0 56.0396 11.8488 664 59.6642 1121.34 542.584
1369 0 58.067 12.0206 698 59.4327 1121.68 542.417
1370 0 59.0402 12.0257 710 60.7479 1121.82 538.799
1371 0 61.0464 12.8918 787 59.3748 1121.6 539.834
1372 0 61.1023 12.2254 747 61.4297 1121.49 538.299
1373 0 65.1451 12.9557 844 60.8045 1121.59 536.55
1374 0 67.1688 13.7713 925 59.5049 1121.28 536.594
1375 0 69.2072 13.3512 924 60.4632 1121.5 535.231
1376 0 70.2754 12.636 888 62.2354 1121.71 535.051
1377 0 71.1867 13.9914 996 61.1697 1121.61 532.887
1378 0 74.2677 14.1919 1054 61.2846 1121.51 533.307
1379 0 76.1485 13.5919 1035 62.2686 1120.95 532.638
1380 0 79.1268 13.3836 1059 62.4212 1120.89 532.699
1381 0 79.4957 12.5541 998 64.4339 1120.98 530.018
1382 0 84.3244 13.8631 1169 60.1001 1121.21 528.643
1383 0 86.3019 13.3717 1154 61.8215 1121.06 525.796
1384 0 89.418 13.23 1183 64.3567 1121.61 524.815
1385 0 90.2757 12.4064 1120 65.3705 1121.49 523.303
1386 1 49.4626 11.4026 564 63.6454 1122.54 544.931
1387 0 51.3001 13.6647 701 61.3081 1122.35 544.044
1388 0 51.0942 12.702 649 63.4807 1121.48 542.391
1389 0 54.1507 13.4809 730 61.7521 1121.57 542.544
1390 0 56.2443 12.6057 709 63.5303 1121.09 541.446
1391 0 57.2445 13.6083 779 62.4198 1121.34 540.388
1392 0 59.138 12.6484 748 63.6805 1122.08 540.342
1393 0 60.1231 13.5056 812 63.0862 1121.67 539.506
1394 0 63.1034 13.5492 855 62.9602 1121.55 538.495
1395 0 63.2097 13.1467 831 63.9723 1121.45 536.548
1396 0 67.1001 13.1296 881 63.1737 1121.86 535.156
1397 0 68.4495 13.6889 937 62.6809 1121.55 533.941
1398 0 70.3619 13.658 961 62.7732 1121.84 532.696
1399 0 72.1932 13.2284 955 63.2743 1122.65 531.542
1400 0 74.2848 13.4482 999 62.98 1122.3 530.89
1401 0 76.2387 13.5102 1030 62.9262 1123.15 529.453
1402 0 78.16 13.9969 1094 62.3766 1123.1 526.902
1403 0 83.1901 14.0642 1170 61.3393 1123.71 526.257
1404 0 86.2475 14.3888 1241 60.3642 1124.4 524.999
1405 0 87.3018 13.6309 1190 61.6504 1123.74 523.445
1406 0 90.2743 13.2264 1194 61.7948 1124.17 523.309
1407 0 92.3745 13.835 1278 61.252 1124.86 521.124
1408 0 95.3065 14.3852 1371 60.2239 1125.01 519.193
1409 0 98.1922 13.7791 1353 60.997 1125.28 515.517
1410 1 55.1723 10.2407 565 62.2814 1125.7 539.025
1411 0 56.1994 9.89334 556 62.8795 1126.04 538.424
1412 0 60.1953 11.3464 683 60.9561 1125.77 535.684
1413 0 61.1451 12.4785 763 59.8165 1126.28 535.379
1414 0 64.1322 12.178 781 59.831 1125.83 534.986
1415 0 66.1398 13.2295 875 58.2629 1125.85 532.919
1416 0 68.1388 12.3571 842 59.3622 1126.28 531.842
1417 0 70.131 12.6335 886 58.9639 1126.5 530.423
1418 0 73.1039 13.1183 959 58.4348 1126.29 529.577
1419 0 76.118 13.282 1011 57.7488 1126.17 527.968
1420 0 79.2553 12.9329 1025 58.2693 1126.03 527.889
1421 0 80.1759 12.7719 1024 59.123 1126.1 526.376
1422 0 82.2125 13.757 1131 57.5473 1126.23 525.595
1423 0 87.238 13.6867 1194 57.6047 1126.01 523.46
1424 0 90.2302 13.2328 1194 58.2513 1125.91 522.983
1425 0 92.1481 14.3139 1319 57.3427 1126.28 518.553
1426 0 97.3105 13.9245 1355 57.3565 1126.11 517.666
1427 1 51.166 10.6321 544 59.2978 1125.83 540.097
1428 0 54.2274 10.456 567 59.2698 1125.87 540.728
1429 0 55.2724 11.6333 643 57.4106 1125.9 538.851
1430 0 58.2325 12.6562 737 56.8657 1125.96 537.121
1431 0 58.243 12.7569 743 57.6406 1125.9 534.066
1432 0 61.139 12.4798 763 58.0236 1125.45 534.548
1433 0 63.0909 13.0288 822 57.4294 1125.42 533.672
1434 0 66.1562 12.7879 846 57.8948 1125.36 533.978
1435 0 66.239 12.2284 810 59.8877 1125.57 534.116
1436 0 68.026 12.7598 868 59.4931 1125.14 531.24
1437 0 71.0493 13.5821 965 58.4715 1124.74 530.754
1438 0 71.0493 13.6384 969 150.327 1124.78 530.724
1439 0 75.1353 13.4025 1007 58.7468 1124.82 528.201
1440 0 79.1401 12.5095 990 58.5222 1124.32 526.86
1441 0 79.1958 12.7785 1012 58.4526 1123.9 525.426
1442 0 82.1604 11.9401 981 58.999 1124.12 525.535
1443 0 86.1676 12.2784 1058 57.7883 1124.52 524.021
1444 0 89.3306 12.6273 1128 57.2642 1123.92 520.74
1445 1 49.1351 10.7255 527 56.4156 1123.44 542
1446 0 50.0718 10.7046 536 55.8694 1123.76 539.752
1447 0 50.0616 10.0676 504 57.3353 1123.78 538.062
1448 0 51.0753 10.6118 542 56.2546 1124.14 537.504
1449 0 54.0552 10.9703 593 56.2648 1123.4 538.155
1450 0 54.1196 11.4376 619 56.5444 1122.8 536.384
1451 0 56.0873 12.0705 677 55.8464 1122.84 536.103
1452 0 60.203 13.0558 786 53.827 1123.1 536.326
1453 0 62.1474 13.1623 818 54.0831 1122.71 535.741
1454 0 63.1146 12.105 764 56.0052 1123.62 533.632
1455 0 63.1146 12.0733 762 143.794 1124.6 533.605
1456 0 66.197 11.8585 785 56.2076 1122.95 532.538
1457 0 67.1143 12.2925 825 56.8933 1122.95 530.126
1458 0 69.1067 12.8352 887 56.4487 1122.64 529.338
1459 0 73.0702 12.4538 910 56.8341 1123.07 528.262
1460 0 75.2389 12.5334 943 56.3881 1123.22 529.539
1461 0 76.2209 12.5687 958 56.977 1122.96 525.809
1462 0 77.2798 11.7366 907 57.742 1122.67 525.476
1463 0 81.4843 12.4196 1012 56.2708 1123.03 523.067
1464 0 85.2581 12.3742 1055 56.1204 1122.4 522.538
1465 0 86.2597 12.8333 1107 55.9106 1122.19 521.686
1466 0 89.5153 12.8135 1147 56.3182 1122.63 520.154
1467 1 51.0644 9.94822 508 55.6201 1123.02 542.789
1468 0 50.0129 9.33758 467 56.758 1122.89 542.291
1469 0 54.0508 11.0082 595 54.7714 1122.56 539.121
1470 0 56.111 11.2099 629 54.5119 1122.66 538.232
1471 0 55.0609 10.6064 584 54.4486 1122.15 537.546
1472 0 57.1702 11.3171 647 53.3972 1122.07 536.474
1473 0 59.2179 11.2635 667 53.7556 1121.84 536.84
1474 0 61.199 10.9969 673 54.1456 1121.68 535.807
1475 0 62.2433 11.5032 716 53.4427 1121.37 536.271
1476 0 62.226 11.185 696 54.4167 1120.92 535.326
1477 0 66.1642 11.275 746 53.7855 1120.83 536.706
1478 0 66.1378 11.7331 776 53.2204 1120.43 535.826
1479 0 68.2455 12.8653 878 52.8098 1120.72 533.103
1480 0 70.097 11.4413 802 53.8441 1120.8 533.974
1481 0 70.1793 12.6391 887 53.416 1121.46 531.729
1482 0 74.1877 11.9562 887 54.1184 1120.9 530.095
1483 0 76.1605 12.71 968 53.3554 1121.93 529.57
1484 0 80.273 12.8561 1032 53.2345 1122.02 528.158
1485 0 83.5024 12.335 1030 54.2748 1121.76 526.985
1486 1 47.1381 10.3738 489 55.0695 1122.49 544.413
1487 0 49.1198 10.3421 508 54.5787 1122.77 545.409
1488 0 50.0703 10.3455 518 55.4633 1123.36 543.822
1489 0 52.0737 10.9844 572 54.4091 1122.53 543.624
1490 0 54.1368 11.5633 626 54.385 1122.29 541.558
1491 0 56.0846 11.9462 670 53.7478 1121.73 542.184
1492 0 56.1669 12.0534 677 54.8257 1122.02 540.775
1493 0 58.1738 11.861 690 54.9594 1122.65 540.51
1494 0 62.1547 12.3884 770 53.7701 1122.58 538.992
1495 0 63.139 13.0189 822 53.7956 1122.57 538.87
1496 0 63.1054 12.075 762 55.979 1122.75 536.322
1497 0 66.1331 12.49 826 55.8087 1122.98 536.341
1498 0 67.2019 13.4074 901 54.7525 1122.96 534.137
1499 0 71.185 12.5588 894 56.7025 1122.83 535.353
1500 0 73.1737 12.2312 895 57.0737 1123 534.487
1501 0 74.2578 13.2915 987 57.0446 1122.91 533.542
1502 0 77.202 12.7199 982 57.4633 1122.75 533.431
1503 0 80.2376 13.0737 1049 57.1544 1123.05 530.934
1504 1 43.0367 10.6421 458 59.8908 1123.41 547.035
1505 0 45.1924 10.931 494 59.2247 1123.13 548.002
1506 0 47.1701 10.9815 518 60.1506 1123.49 546.954
1507 0 47.0282 11.9928 564 58.8741 1123.77 543.91
1508 0 47.0282 11.9503 562 157.603 1124.75 543.915
1509 0 51.1628 11.8445 606 59.4406 1124.26 544.003
1510 0 50.1319 12.0083 602 59.2043 1124.57 542.724
1511 0 52.252 13.033 681 58.395 1124.43 544.203
1512 0 53.1591 12.7165 676 59 1124.55 542.76
1513 0 56.1626 12.4816 701 59.689 1125.11 541.566
1514 0 59.0863 12.0671 713 60.2973 1125.54 541.335
1515 0 59.2418 12.8794 763 60.4941 1125.47 539.077
1516 0 60.1901 13.3577 804 59.7537 1125.54 538.568
1517 0 63.1077 13.0571 824 60.2913 1125.87 536.41
1518 0 65.2391 13.0903 854 60.466 1126.11 535.833
1519 0 67.0611 13.2864 891 60.5645 1126.34 533.33
1520 0 68.1238 12.7268 867 62.0219 1126.69 534.016
1521 0 70.2314 12.9572 910 61.922 1126.39 534.799
1522 0 72.1138 13.2568 956 62.0513 1126.53 531.368
1523 0 76.0529 14.1218 1074 60.6667 1126.81 530.182
1524 1 40.0537 10.7356 430 64.214 1128 544.995
1525 0 43.0146 10.694 460 63.3935 1127.9 545.285
1526 0 46.0368 11.7297 540 61.5759 1127.98 546.326
1527 0 48.0713 12.3983 596 61.2232 1127.66 543.857
1528 0 50.1054 13.1722 660 60.3439 1127.19 542.929
1529 0 50.1311 12.5272 628 61.7787 1127.87 542.938
1530 0 51.0633 12.8664 657 62.0274 1127.59 541.513
1531 0 52.1952 12.4916 652 62.9034 1127.6 542.844
1532 0 55.1534 12.6737 699 62.3791 1127.07 538.791
1533 0 56.1472 12.3782 695 63.8705 1126.55 539.176
1534 0 58.1512 12.6223 734 63.4332 1127.76 538.045
1535 0 60.178 13.8256 832 62.0613 1126.78 537.076
1536 0 62.1667 12.4021 771 64.1894 1126.84 537.475
1537 0 63.1503 13.3016 840 63.4333 1126.77 534.955
1538 0 63.1857 12.8035 809 64.5192 1126.38 535.645
1539 0 66.1668 13.5415 896 63.5268 1125.94 532.069
1540 0 70.0873 13.0837 917 63.1668 1126.21 532.218
1541 0 72.1876 13.1047 946 63.4535 1126.28 531.675
1542 0 74.0827 13.7819 1021 62.9265 1126.01 530.119
1543 0 75.1034 13.315 1000 64.064 1125.8 530.675
1544 0 78.1082 13.5709 1060 63.2038 1125.72 528.355
1545 0 81.1585 13.3689 1085 63.1558 1125.9 527.924
1546 0 82.1256 13.4672 1106 62.9964 1125.45 527.03
1547 0 85.1394 13.5073 1150 62.6365 1125.5 525.59
1548 1 48.1044 12.0987 582 63.8127 1126.15 543.792
1549 0 50.0974 11.2182 562 64.952 1125.75 542.856
1550 0 51.0474 12.1848 622 63.664 1125.35 543.883
1551 0 54.127 11.5839 627 64.8756 1125.69 542.66
1552 0 54.069 13.2423 716 63.3897 1125.75 541.912
1553 0 55.0651 12.0585 664 65.2545 1124.63 540.468
1554 0 58.0966 12.5653 730 64.5041 1124.34 539.826
1555 0 57.148 12.7039 726 65.4711 1124.19 539.712
1556 0 60.1427 13.335 802 64.9052 1123.98 537.128
1557 0 61.0625 12.8229 783 66.198 1123.87 538.59
1558 0 66.2442 14.7334 976 63.083 1123.29 536.631
1559 0 65.1215 12.1926 794 67.8325 1123.66 536.592
1560 0 69.1948 13.9172 963 64.8339 1123.75 534.437
1561 0 72.2061 13.877 1002 65.476 1123.47 533.224
1562 0 74.118 13.8023 1023 66.0704 1123.09 531.264
1563 0 77.1926 13.5505 1046 66.2878 1123.09 532.272
1564 0 78.1546 13.8699 1084 65.8985 1123.43 531.203
1565 0 81.1013 13.5386 1098 66.7723 1122.55 527.225
1566 0 81.1013 13.5756 1101 159.945 1121.55 527.285
1567 0 85.1651 14.1138 1202 65.9892 1122.34 525.333
1568 0 89.1751 13.4679 1201 67.3339 1122.45 524.893
1569 0 92.4134 13.6777 1264 67.0696 1122.61 523.453
1570 1 50.0857 10.2025 511 68.8317 1123.16 546.37
1571 0 52.1033 11.1317 580 66.6724 1122.92 545.153
1572 0 54.1542 11.2457 609 66.5698 1122.85 546.325
1573 0 55.1861 12.6662 699 65.8813 1122.91 542.385
1574 0 57.1908 13.2889 760 64.6737 1122.87 542.861
1575 0 57.12 12.3774 707 66.5417 1122.39 541.165
1576 0 60.0901 13.0138 782 64.6432 1122.41 541.583
1577 0 64.1021 13.1821 845 65 1122.31 538.776
1578 0 65.1946 12.8692 839 65.3611 1122.27 538.098
1579 0 68.2059 13.1074 894 64.8758 1122.21 536.8
1580 0 69.252 13.126 909 65.1914 1122.05 536.936
1581 0 73.1633 14.2694 1044 63.8285 1122.62 532.987
1582 0 73.2705 13.6754 1002 65.5479 1121.98 532.17
1583 0 74.2242 12.6374 938 67.0245 1122.64 533.639
1584 0 78.2013 12.9793 1015 66.5409 1121.97 529.994
1585 0 80.2642 13.5677 1089 65.6428 1121.78 530.958
1586 0 84.2817 13.3362 1124 65.5943 1121.78 528.847
1587 0 85.1562 13.211 1125 66.5804 1121.69 527.934
1588 0 89.4225 12.905 1154 66.2808 1121.98 525.471
1589 0 93.1059 13.8767 1292 64.8181 1121.79 524.612
1590 0 95.2832 13.2447 1262 65.5515 1121.82 522.642
1591 1 52.0346 11.0311 574 66.23 1122.57 544.507
1592 0 53.0513 10.7632 571 65.7671 1123.18 545.095
1593 0 54.0286 11.7901 637 65.0989 1122.66 542.141
1594 0 55.0674 12.7662 703 63.1337 1122.56 542.97
1595 0 58.2343 12.6729 738 63.2778 1122.7 540.171
1596 0 58.1112 13.6635 794 62.1637 1122.78 538.635
1597 0 62.1078 13.5249 840 61.2893 1122.95 539.779
1598 0 61.2608 12.7161 779 63.2875 1122.98 538.042
1599 0 65.1699 12.3216 803 62.8257 1122.98 537.714
1600 0 67.1501 13.8496 930 60.8075 1123.29 534.984
1601 0 69.2646 13.0514 904 61.646 1122.68 532.843
1602 0 70.2024 14.216 998 60.3667 1123.3 532.372
1603 0 73.406 13.8 1013 60.5035 1123.17 532.726
1604 0 76.3217 14.321 1093 59.5901 1123.39 531.08
1605 0 78.3438 13.5684 1063 60.5936 1123.51 530.251
1606 0 80.3963 13.2966 1069 61.2339 1123.61 527.966
1607 0 82.4834 13.5664 1119 60.9705 1123.31 526.708
1608 0 85.3562 13.883 1185 60.2616 1123.35 524.112
1609 1 48.3916 11.159 540 60.5537 1123.99 542.706
1610 0 47.2168 10.7589 508 61.3543 1124.23 542.028
1611 0 48.2084 11.8029 569 60.3374 1124.5 541.654
1612 0 52.4181 12.7819 670 59.4179 1123.98 541.49
1613 0 52.1653 12.5179 653 60.4135 1125.05 539.714
1614 0 54.145 12.3188 667 61.0795 1125.35 539.589
1615 0 56.1259 12.5432 704 60.3097 1125.42 538.153
1616 0 56.0586 12.4691 699 60.6753 1125.59 537.13
1617 0 59.4089 13.1798 783 59.6641 1125.98 535.223
1618 0 60.1412 13.2522 797 60.1242 1126.32 534.136
1619 0 62.2096 13.4063 834 59.6619 1126.17 532.88
1620 0 65.3018 13.2768 867 59.0507 1126.75 533.246
1621 0 69.4265 13.1938 916 58.5917 1127.26 531.975
1622 0 69.47 12.6529 879 59.975 1127.47 529.406
1623 0 70.3322 12.2561 862 60.2668 1127.69 528.759
1624 0 72.3082 12.9722 938 59.3593 1127.38 527.515
1625 0 75.2482 12.6913 955 59.5393 1127.33 528.094
1626 0 80.3386 13.6174 1094 57.6545 1127.41 523.639
1627 0 81.3405 13.0439 1061 58.5533 1127.72 520.638
1628 0 83.2947 12.894 1074 58.811 1127.96 520.183
1629 0 86.2158 12.8399 1107 59.1707 1128.45 520.499
1630 0 89.2329 12.6971 1133 59.4078 1128.1 519.477
1631 0 93.2537 13.1898 1230 58.5024 1127.91 516.034
1632 1 51.0576 10.4 531 59.5141 1128.76 537.397
1633 0 51.0384 11.1681 570 58.5088 1128.73 537.646
1634 0 54.0622 11.6532 630 58.1254 1128.36 537.935
1635 0 54.0662 11.9298 645 58.3039 1128.54 537.749
1636 0 57.1167 12.5532 717 57.8131 1128.43 535.964
1637 0 57.1815 11.892 680 59.7471 1128.3 534.251
1638 0 59.2081 13.1063 776 57.8621 1128.2 534.302
1639 0 61.2416 13.4386 823 58.2746 1128.1 533.765
1640 0 61.1425 13.1823 806 58.8734 1127.77 532.886
1641 0 62.2361 13.015 810 59.2037 1127.88 530.504
1642 0 66.2281 12.7438 844 58 1127.51 530.88
1643 0 68.194 12.9484 883 58.5651 1127.68 529.984
1644 0 71.1878 13.1062 933 58.1329 1127.64 529.517
1645 0 71.2644 13.7235 978 58.0276 1127.35 526.758
1646 0 75.1382 12.5635 944 59.2044 1127.69 525.967
1647 0 77.1524 14.1538 1092 57.565 1127.73 526.527
1648 0 80.1951 13.729 1101 58.2016 1127.36 525.718
1649 0 80.2061 13.7521 1103 58.8087 1127.55 525.553
1650 0 82.1581 13.9609 1147 59.3182 1127.59 522.805
1651 0 84.3241 13.4244 1132 60.1617 1126.9 521.618
1652 0 89.1628 13.6043 1213 59.8013 1127.11 521.674
1653 0 92.1016 13.5937 1252 59.73 1126.58 518.383
1654 0 94.2214 13.9777 1317 59.2179 1127.17 519.09
1655 0 98.2879 13.4605 1323 59.6259 1126.49 515.831
1656 0 101.263 13.9143 1409 59.039 1126.35 517.415
1657 0 104.253 14.3977 1501 58.455 1126.19 514.647
1658 0 107.282 14.0471 1507 59.2422 1126.63 512.069
1659 0 111.284 14.3326 1595 58.8282 1126 511.613
1660 0 113.232 14.095 1596 59.6272 1125.72 509.521
1661 0 119.256 14.3557 1712 59.0532 1125.83 506.188
1662 0 122.291 13.2961 1626 60.305 1126.11 504.964
1663 0 127.292 15.1384 1927 58.0867 1125.84 503.855
1664 0 130.292 14.7514 1922 58.8059 1125.96 501.888
1665 0 135.216 15.0648 2037 58.676 1125.55 499.608
1666 1 68.0684 10.6804 727 61.74 1125.74 533.539
1667 0 72.0877 10.7924 778 61.8959 1125.65 533.045
1668 0 76.1573 11.8833 905 59.158 1124.96 531.394
1669 0 78.1203 12.9032 1008 58.3532 1125.17 529.763
1670 0 81.1245 13.732 1114 57.6858 1124.97 526.83
1671 0 81.2026 13.0291 1058 59.1881 1125.03 524.58
1672 0 85.1762 13.1844 1123 58.1184 1124.75 524.614
1673 0 89.1043 13.4 1194 58.0553 1124.84 521.997
1674 0 90.1918 13.5267 1220 57.8615 1124.5 522.368
1675 0 93.1105 13.586 1265 58.698 1124.38 519.057
1676 0 95.1761 14.0371 1336 58.116 1124 518.992
1677 0 99.2636 13.6002 1350 58.5489 1124.45 518.341
1678 0 102.408 13.5145 1384 58.6705 1124.29 516.444
1679 0 106.275 14.3026 1520 58.1901 1123.91 515.121
1680 0 108.141 14.5459 1573 58.1316 1124.05 514.233
1681 0 112.279 14.366 1613 58.6119 1124.16 514.966
1682 0 115.465 14.2467 1645 59.1696 1123.96 510.129
1683 0 118.284 13.9241 1647 59.9387 1123.51 510.654
1684 0 122.314 13.5062 1652 59.0545 1123.69 509.701
1685 1 72.2482 13.0938 946 57.8689 1123.64 532.886
1686 0 73.1619 12.5612 919 58.3634 1123.53 530.284
1687 0 76.0782 13.6044 1035 57.7652 1123.32 530.752
1688 0 80.1758 13.9194 1116 57.0242 1123.35 528.267
1689 0 84.1668 13.5802 1143 57.4173 1123.09 527.38
1690 0 84.2814 13.6566 1151 57.8749 1122.85 526.6
1691 0 89.1547 13.4934 1203 57.7664 1123.04 524.005
1692 0 89.238 13.4024 1196 58.24 1122.86 523.257
1693 0 93.1887 13.6605 1273 57.5491 1122.4 521.884
1694 0 97.443 13.7722 1342 57.3487 1122.25 519.885
1695 0 101.313 14.2529 1444 56.4508 1122.48 517.976
1696 0 102.282 13.9516 1427 57.2936 1122.16 515.156
1697 0 107.146 14.317 1534 56.4824 1121.85 513.082
1698 0 111.28 13.12 1460 57.3534 1121.62 512.482
1699 0 114.392 13.786 1577 56.4236 1121.46 511.474
1700 0 117.311 13.0081 1526 57.1612 1121.53 507.854
1701 0 121.301 13.3387 1618 56.4166 1121.07 508.043
1702 0 126.323 13.5209 1708 56.5779 1120.55 503.688
1703 0 131.358 13.2462 1740 56.2937 1120.73 501.564
1704 0 134.519 13.8271 1860 55.7914 1120.43 499.755
1705 1 76.4755 11.9515 914 55.5088 1120.47 529.965
1706 0 76.4617 12.8561 983 55.4517 1120.28 526.989
1707 0 80.4194 13.1436 1057 55.3576 1120.21 526.157
1708 0 81.3446 13.5104 1099 55.4659 1120.2 522.692
1709 0 84.4683 13.5672 1146 55.1414 1120.23 523.134
1710 0 86.6073 12.9204 1119 56.4906 1119.78 521.366
1711 0 92.725 13.0278 1208 55.4396 1120.41 520.945
1712 0 93.3166 12.6558 1181 55.8518 1120.23 520.234
1713 0 98.6053 14.4718 1427 53.8584 1120.18 516.159
1714 0 101.526 13.6813 1389 54.7718 1120.31 514.39
1715 0 102.478 13.3395 1367 55.4009 1120.94 512.396
1716 0 107.499 13.1816 1417 55.1849 1121.68 513.807
1717 0 111.729 13.5596 1515 54.6997 1121.87 510.119
1718 1 58.5046 11.6059 679 55.8233 1121.81 535.828
1719 0 61.3915 12.6402 776 55.5193 1121.51 532.103
1720 0 63.4216 12.9609 822 55.0706 1121.66 531.418
1721 0 65.8307 13.6562 899 53.7586 1122.03 530.432
1722 0 65.5666 12.8114 840 54.7488 1121.57 530.257
1723 0 67.6001 13.5651 917 54.3293 1121.89 528.048
1724 0 71.855 12.2469 880 54.8125 1122.42 529.251
1725 0 72.7593 12.9468 942 54.4766 1122.7 526.506
1726 0 74.4705 13.4013 998 54.2886 1122.48 525.582
1727 0 77.5389 13.2579 1028 54.3375 1122.51 524.723
1728 0 80.5822 14.0105 1129 53.3632 1122.64 522.616
1729 0 83.7785 12.8314 1075 54.1944 1122.67 521.271
1730 0 87.6236 13.6607 1197 52.934 1122.89 519.728
1731 0 87.5518 13.0437 1142 54.4291 1123.27 517.074
1732 0 93.5051 13.8923 1299 52.7098 1123.35 516.221
1733 0 93.5841 13.5814 1271 53.417 1124.21 515.495
1734 0 97.3708 14.3164 1394 52.7331 1124.25 510.654
1735 0 100.489 12.9168 1298 54.3259 1123.9 512.335
1736 1 53.6622 11.0133 591 55.308 1124.81 535.728
1737 0 54.4811 9.94841 542 57.4188 1124.87 533.849
1738 0 56.3233 11.2387 633 55.9194 1125.08 533.698
1739 0 62.482 13.4919 843 53.5635 1124.8 532.16
1740 0 65.6088 13.5348 888 54.0236 1125.1 529.9
1741 0 66.2308 13.5738 899 54.6808 1125.94 529.35
1742 0 71.2728 15.3495 1094 51.8592 1125.92 527.805
1743 0 72.3828 15.1417 1096 52.3577 1125.91 527.714
1744 0 72.1149 13.7974 995 54.8231 1126.09 526.582
1745 0 76.3389 14.0165 1070 54.9318 1126.44 525.963
1746 0 79.2202 14.7311 1167 54.2374 1126.56 524.4
1747 0 81.1127 14.6093 1185 54.7418 1127.09 522.7
1748 0 84.1387 14.2027 1195 55.4151 1127.54 520.455
1749 0 88.1444 14.7032 1296 55.2924 1127.7 520.37
1750 0 89.239 14.0297 1252 56.3075 1128.28 515.699
1751 0 92.1994 13.8613 1278 57.0869 1128.49 516.013
1752 0 94.1025 13.9741 1315 57.7696 1128.71 512.851
1753 0 99.4751 13.9532 1388 57.5843 1128.7 513.732
1754 0 101.285 13.8817 1406 58.3087 1128.51 512.014
1755 0 105.151 14.1607 1489 57.8321 1128.72 510.281
1756 0 108.254 14.6507 1586 57.8001 1128.31 509.979
1757 0 110.223 13.8719 1529 59.2721 1127.46 507.295
1758 0 116.271 14.6125 1699 57.9735 1127.76 506.294
1759 0 119.265 14.2037 1694 58.7857 1127.87 505.581
1760 0 123.262 14.8464 1830 58.377 1127.7 503.84
1761 1 63.2121 12.3236 779 60.5404 1127.75 529.878
1762 0 66.2788 11.2555 746 61.4303 1127.46 529.471
1763 0 70.1908 14.3893 1010 57.7782 1128.02 529.158
1764 0 72.2673 13.3532 965 59.0342 1127.08 529.466
1765 0 73.1887 13.9229 1019 59.1403 1126.5 526.903
1766 0 74.1981 13.4235 996 60.3183 1126.8 525.291
1767 0 78.1508 12.5271 979 60.8907 1127.06 522.443
1768 0 80.2666 13.5673 1089 59.9816 1126.86 521.29
1769 0 82.1483 13.1957 1084 61.0941 1126.84 519.737
1770 0 86.0601 14.1761 1220 58.7377 1126.74 519.606
1771 0 86.0601 14.1297 1216 160.934 1126.74 519.666
1772 0 90.2107 13.2357 1194 60.8802 1126.17 515.978
1773 0 94.2126 14.2868 1346 59.9079 1125.62 516.067
1774 0 96.2188 13.4277 1292 61.4752 1126.31 513.038
1775 0 98.1349 13.7668 1351 60.8845 1125.29 511.167
1776 0 102.194 14.267 1458 60.4486 1124.8 512.345
1777 0 104.284 13.1468 1371 62.3508 1125.17 509.516
1778 0 110.247 14.1047 1555 61.3595 1124.84 508.087
1779 0 112.169 14.077 1579 61.6612 1125.39 507.255
1780 0 117.169 14.031 1644 61.5596 1124.86 503.179
1781 0 121.289 14.5602 1766 61.1789 1125.25 500.698
1782 1 72.1551 9.8122 708 61.8559 1125.06 528.715
1783 0 74.0804 9.63817 714 60.8347 1124.95 529.793
1784 0 78.0696 11.5026 898 58.8708 1124.68 526.874
1785 0 78.0861 11.2696 880 59.8023 1125.2 524.382
1786 0 80.1631 11.6263 932 59.6792 1124.93 522.878
1787 0 85.0701 11.8726 1010 58.596 1124.87 522.403
1788 0 88.0689 11.1504 982 59.8422 1124.42 519.014
1789 0 89.1699 10.923 974 60.1622 1124.04 520.532
1790 0 91.1207 11.611 1058 60.0879 1124.11 517.697
1791 0 94.1372 10.9309 1029 60.5685 1124.08 517.531
1792 0 96.1628 10.9502 1053 61.3523 1124.19 515.534
1793 0 102.086 12.5287 1279 59.5192 1124.15 514.334
1794 0 104.252 12.2299 1275 60.1106 1124.02 511.304
1795 0 107.111 12.2303 1310 60.3504 1123.66 510.438
1796 0 110.245 11.7828 1299 61.1878 1123.54 507.647
1797 1 22.0122 6.40555 141 51.7447 1122.97 555.397
1798 0 21.0416 7.22379 152 50.6711 1123.12 554.178
1799 0 19.0135 6.57426 125 51.24 1123.03 556.6
1800 0 17.0083 7.23178 123 50.8293 1123.28 558.943
1801 0 23.0602 6.20117 143 52.3217 1123.35 554.399
1802 0 25.0211 7.47369 187 51.0749 1123.28 555.321
1803 0 25.0242 9.7106 243 49.749 1123.46 554.156
1804 0 17.0055 6.82132 116 50.8966 1123.42 557.802
1805 0 24.024 6.95139 167 52 1123.93 555.036
1806 0 26.0141 8.4954 221 50.0362 1123.17 554.516
1807 0 25.0179 7.91433 198 50.9848 1123.5 552.864
1808 0 20.0123 6.04628 121 51.6942 1123.6 555.934
1809 0 24.0616 5.73527 138 51.4493 1124.18 556.072
1810 0 23.0523 6.59371 152 50.2697 1123.98 557.342
1811 0 26.026 6.4935 169 50.7396 1123.51 557.178
1812 0 20.011 7.94562 159 50.1635 1123.24 557.101
1813 0 24.0047 6.54039 157 50.7389 1123.89 555.497
1814 0 24.0182 7.99393 192 49.7031 1123.36 555.589
1815 0 25.0206 6.27483 157 50.242 1123.76 555.796
1816 0 27.0038 6.44353 174 50.908 1124.06 554.149
1817 0 20.0321 5.79071 116 50.3276 1123.61 557.75
1818 0 25.0118 7.75633 194 49.2887 1123.85 555.093
1819 0 28.016 7.0317 197 49.2589 1123.26 554.898
1820 0 27.0124 7.29295 197 49.6904 1123.35 554.071
1821 0 27.0241 6.29068 170 50.4882 1123.23 554.012
1822 0 23.0065 7.56309 174 49.6954 1123.71 553.672
1823 0 25.0305 6.31229 158 49.3481 1123.55 555.551
1824 0 25.0126 6.35679 159 49.8553 1122.8 555.893
1825 0 28.0046 7.46307 209 49.2536 1123.41 554.522
1826 0 28.012 5.53334 155 50.8387 1123.37 555.09
1827 0 27.0175 6.58833 178 50.7079 1123.56 553.494
1828 0 24.003 6.62416 159 49.4906 1124.32 556.377
1829 0 23.0481 6.89863 159 49.5786 1124.19 556.472
1830 0 27.0089 6.92364 187 49.4225 1124.5 555.46
1831 0 17.0033 6.35172 108 49.3241 1124.25 556.046
1832 0 26.0121 4.80546 125 50.944 1124.59 553.392
1833 0 20.0086 6.74711 135 48.6296 1124.81 556.593
1834 0 24.0364 5.61648 135 49.563 1125.13 556.237
1835 0 24.0085 6.66432 160 49.8438 1125.32 554.125
1836 0 24.0246 8.40807 202 48.896 1125.12 554.292
1837 0 21.0301 7.22774 152 49.5526 1125.46 556.553
1838 0 23.0287 9.24933 213 48.1127 1125.75 555.596
1839 0 21.0235 7.18244 151 49.6358 1126.11 556.119
1840 0 22.0063 7.95228 175 49.0343 1126.43 554.789
1841 0 20.0078 7.39711 148 49.4054 1126.11 554.986
1842 0 21.0095 7.66319 161 48.5776 1126.39 554.199
1843 0 21.1024 7.29775 154 48.5 1126.2 555.468
1844 1 70.1197 10.4536 733 52.7422 1127.03 531.24
1845 0 69.1231 10.72 741 53.6154 1127.41 528.462
1846 0 71.1304 10.1785 724 55.105 1127.77 526.156
1847 0 74.06 11.7202 868 53.0703 1127.75 524.844
1848 0 74.0938 11.8229 876 53.6553 1127.74 527.231
1849 0 78.0829 11.7055 914 53.2932 1127.95 528.656
1850 0 80.0601 12.0784 967 53.4488 1128.31 524.827
1851 0 77.0987 11.4139 880 55.0989 1127.9 525.108
1852 0 79.1436 11.5234 912 55.3596 1127.94 524.09
1853 0 82.1153 11.3134 929 55.3208 1128.29 525.582
1854 0 82.1794 12.1077 995 53.9196 1128.44 523.181
1855 0 85.0762 12.9766 1104 52.9937 1128.31 521.702
1856 0 85.115 11.7841 1003 54.5354 1128.01 518.299
1857 0 88.0395 12.2445 1078 53.6818 1128.37 520.212
1858 0 91.1141 12.0947 1102 53.6098 1127.92 518.943
1859 0 94.1364 12.9599 1220 52.7787 1127.9 515.285
1860 0 96.1466 12.2625 1179 53.732 1127.86 515.366
1861 0 96.1089 12.4026 1192 53.9178 1127.66 514.933
1862 0 102.177 12.8111 1309 53.22 1127.25 513.031
1863 1 57.0814 10.0033 571 52.4098 1126.74 535.881
1864 0 59.1283 10.029 593 51.7184 1126.57 536.165
1865 0 62.03 9.10849 565 52.4513 1126.09 535.789
1866 0 63.133 11.547 729 50.7325 1126.67 532.698
1867 0 65.2472 11.8779 775 50.44 1127.55 531.022
1868 0 67.0879 12.8786 864 49.7523 1126.11 529.954
1869 0 69.0898 11.1883 773 51.3674 1126.08 532.149
1870 0 70.0659 12.5453 879 50.7975 1126.45 530.909
1871 0 71.1133 12.6137 897 50.4482 1126.03 528.688
1872 0 72.1276 12.1174 874 50.8959 1125.85 529.908
1873 0 75.1169 13.3392 1002 49.8663 1126.4 527.483
1874 0 77.277 13.0181 1006 50.3926 1125.9 525.243
1875 0 78.2277 13.4224 1050 50.2324 1125.81 527.216
1876 0 79.1525 12.6591 1002 51.2236 1125.58 526.911
1877 0 82.1699 12.6324 1038 51.2871 1125.18 524.667
1878 0 84.0996 14.1856 1193 49.6873 1126.05 526.043
1879 0 85.1566 12.9056 1099 51.576 1126.1 521.883
1880 0 87.1928 13.1548 1147 51.0645 1125.84 522.905
1881 0 92.1006 13.5613 1249 50.4428 1125.56 518.954
1882 0 95.3762 14.2698 1361 49.5393 1125.59 519.04
1883 1 52.0594 10.9106 568 49.9349 1125.74 542.07
1884 0 52.0703 10.217 532 51.3177 1125.67 540.212
1885 0 55.0943 9.71063 535 52.585 1125.56 539.198
1886 0 56.0286 11.9582 670 50.2328 1125.04 539.163
1887 0 58.0591 10.8338 629 52.2528 1125.01 537.269
1888 0 58.0591 10.8338 629 150.091 1125.01 537.269
1889 0 62.0506 11.5551 717 51.9484 1124.04 537.395
1890 0 64.089 12.8571 824 51.182 1125.21 537.012
1891 0 64.0999 12.9485 830 51.1928 1125.49 537.831
1892 0 67.1033 12.0411 808 52.1374 1125.33 536.599
1893 0 69.0759 11.538 797 52.3651 1125.21 535.561
1894 0 70.0917 12.398 869 51.9586 1124.21 533.779
1895 0 72.0862 13.3174 960 51.1958 1124.12 530.22
1896 0 74.143 12.6108 935 51.8781 1124.17 530.37
1897 0 76.1018 12.2599 933 51.9035 1124.83 530.837
1898 0 78.0517 12.3508 964 51.972 1123.45 527.893
1899 0 81.1038 12.8231 1040 51.8192 1123.44 526.165
1900 0 83.1441 13.0977 1089 51.4261 1123.05 527.326
1901 0 86.1376 13.1185 1130 51.3726 1122.75 527.021
1902 0 88.1217 12.9934 1145 51.6943 1122.72 525.868
1903 0 93.1167 12.6293 1176 52.0102 1122.15 523.707
1904 0 97.121 13.3854 1300 50.9338 1123.19 522.835
1905 0 99.082 13.4333 1331 51.169 1122.62 520.898
1906 0 104.113 13.5333 1409 50.6416 1122.18 518.33
1907 0 107.212 14.0096 1502 50.0459 1122.34 516.388
1908 1 54.1518 11.3939 617 50.094 1122.26 544.671
1909 0 55.0856 11.7817 649 50.5331 1121.66 542.971
1910 0 58.0719 12.0024 697 49.6442 1121.59 543.373
1911 0 58.1187 12.939 752 50.1755 1121.04 541.247
1912 0 59.0559 12.9369 764 50.5183 1121.22 540.161
1913 0 62.1036 13.7834 856 49.2593 1121.69 539.88
1914 0 64.1075 14.0077 898 49.0768 1121.52 539.263
1915 0 66.1361 13.2001 873 50.3219 1121.46 539.361
1916 0 67.0963 13.3987 899 50.6029 1121.59 537.647
1917 0 69.1495 12.6393 874 51.8112 1121.61 536.549
1918 0 70.0686 13.3441 935 50.8417 1121.71 536.343
1919 0 71.1572 12.901 918 53.0948 1121.69 535.063
1920 0 76.1241 13.4123 1021 51.8815 1123.11 532.868
1921 0 75.2227 12.9349 973 53.7862 1122.36 532.615
1922 0 78.129 13.2473 1035 53.6309 1122.04 531.992
1923 0 82.1131 12.9456 1063 53.857 1122.05 530.69
1924 0 83.2697 13.4983 1124 53.6032 1122.04 529.549
1925 0 86.337 13.7832 1190 53.563 1121.42 528.155
1926 0 89.2868 14.5822 1302 52.3103 1121.32 525.985
1927 0 90.2104 14.3221 1292 53.2988 1121.89 526.911
1928 0 94.2089 13.2259 1246 53.7127 1121.82 523.449
1929 0 98.3197 13.6392 1341 53.5056 1121.36 521.059
1930 0 100.292 13.5803 1362 53.699 1121.76 520.202
1931 1 54.0966 11.387 616 53.8977 1121.79 544.083
1932 0 55.046 11.4995 633 54.0395 1121.63 543.131
1933 0 57.0197 12.2765 700 53.2543 1121.58 541.959
1934 0 58.137 13.0382 758 52.2612 1122.03 542.029
1935 0 61.0664 12.6747 774 53.385 1121.39 541.411
1936 0 61.1416 13.2806 812 53.2931 1121.54 541.133
1937 0 64.1573 13.4357 862 52.8968 1121.83 540.038
1938 0 65.0785 12.8307 835 53.6431 1122.05 539.146
1939 0 68.1239 13.8131 941 52.441 1122.35 537.09
1940 0 69.2259 13.1887 913 53.2541 1122.62 537.999
1941 0 69.2259 13.1454 910 157.397 1122.61 537.934
1942 0 74.1259 13.8818 1029 52.585 1122.59 533.046
1943 0 74.2148 13.6496 1013 53.3435 1122.77 533.208
1944 0 80.1737 13.5955 1090 52.8183 1122.67 531.303
1945 0 81.2243 13.6043 1105 51.3701 1122.84 531.736
1946 0 83.3364 14.8794 1240 50.7024 1123.21 528.519
1947 0 88.2737 13.1523 1161 52.0749 1122.97 527.737
1948 0 90.1696 13.9737 1260 51.004 1123.38 526.711
1949 0 92.2429 14.3642 1325 51.1004 1123.03 520.907
1950 0 96.1781 14.3276 1378 50.7634 1123.37 522.257
1951 0 100.158 15.7151 1574 49.1239 1123.52 522.082
1952 1 57.1418 10.6402 608 51.4688 1123.53 545.146
1953 0 55.0652 11.1686 615 52.4846 1124.53 542.839
1954 0 58.0636 11.9007 691 51.9378 1124.7 542.069
1955 0 59.1202 13.3626 790 50.6658 1124.37 540.873
1956 0 61.0667 12.8384 784 51.5663 1124.08 539.065
1957 0 62.0591 12.5526 779 52.6547 1124.76 538.359
1958 0 65.0636 13.1564 856 51.4918 1124.83 536.704
1959 0 69.1148 14.0636 972 50.286 1124.72 536.18
1960 0 69.1126 13.2682 917 51.2574 1125.14 534.272
1961 0 73.1894 13.7042 1003 50.5952 1125.05 531.962
1962 0 73.1182 13.444 983 51.4914 1124.58 530.209
1963 0 75.1592 13.9038 1045 51.3579 1125.24 529.435
1964 0 78.2443 13.2534 1037 52 1124.89 528.288
1965 0 81.125 14.4838 1175 50.9149 1125.33 526.683
1966 0 83.2032 13.1485 1094 52.341 1125.84 523.073
1967 0 85.2031 13.6615 1164 51.518 1125.92 525.507
1968 0 88.153 14.1799 1250 51.0648 1126.42 521.045
1969 0 93.3222 14.691 1371 50.2531 1126.59 521.408
1970 0 95.1455 13.5477 1289 51.9255 1126.79 517.16
1971 0 97.2291 13.5248 1315 52.2297 1126.68 517.787
1972 0 102.352 14.0007 1433 51.7837 1126.65 514.034
1973 1 57.3482 10.8112 620 53.6274 1126.53 537.027
1974 0 60.4351 11.864 717 52.643 1127.12 535.541
1975 0 62.4742 13.2855 830 51.7096 1127.71 533.02
1976 0 64.5572 11.2923 729 53.1646 1127.57 532.646
1977 0 65.61 12.0866 793 52.6469 1127.89 531.709
1978 0 69.3601 13.2785 921 51.8382 1128.33 531.152
1979 0 68.4366 14.3637 983 51.5188 1128.17 527.69
1980 0 71.4328 13.4112 958 52.2547 1129.03 528.219
1981 0 74.7642 14.3652 1074 51.3622 1128.59 526.486
1982 0 75.4584 13.1728 994 53.0845 1128.61 526.47
1983 0 76.482 13.4803 1031 53.3375 1128.53 524.219
1984 0 79.3752 14.1354 1122 53.2941 1128.62 521.063
1985 0 81.3523 12.8454 1045 54.8057 1128.3 523.967
1986 0 85.4726 14.2736 1220 53.5877 1128.26 520.056
1987 0 89.4101 13.3654 1195 54.251 1128.23 518.595
1988 0 92.4084 14.2087 1313 53.495 1128.09 519.861
1989 0 95.4961 14.3357 1369 53.6457 1127.74 516.159
1990 0 97.5095 13.8756 1353 54.6075 1127.67 512.774
1991 0 101.679 14.0441 1428 54.402 1128.24 513.805
1992 0 104.54 14.6259 1529 54.0046 1128.41 512.833
1993 0 108.305 13.8868 1504 54.8285 1127.91 511.074
1994 0 110.299 13.6176 1502 55.4601 1127.82 508.22
1995 0 116.341 15.3772 1789 53.2091 1127.58 509.359
1996 1 59.2503 11.1054 658 56.2705 1127.64 535.284
1997 0 62.3386 11.0526 689 56.4107 1127.16 534.769
1998 0 65.1529 12.4937 814 55.1339 1127.12 531.892
1999 0 68.173 11.7349 800 55.4312 1126.98 532.394
2000 0 68.3273 13.611 930 54.2753 1127.29 528.887
2001 0 69.1574 13.5054 934 55.424 1126.94 528.754
2002 0 74.2011 13.1265 974 55.2556 1126.39 527.828
2003 0 73.2196 14.0809 1031 54.8671 1125.75 527.798
2004 0 79.1463 13.5445 1072 55.1521 1125.9 526.306
2005 0 81.1986 14.0027 1137 55.5198 1125.96 523.898
2006 0 82.3319 13.1541 1083 57.1302 1126.26 524.209
2007 0 84.1895 13.9329 1173 56.3555 1126.25 522.561
2008 0 87.1583 13.7222 1196 56.7952 1125.93 519.333
2009 0 92.2522 13.3872 1235 56.7611 1126.35 519.725
2010 0 95.3258 13.7528 1311 56.5728 1126.39 518.317
2011 0 100.219 15.0371 1507 53.99 1126.59 517.605
2012 0 101.226 14.3145 1449 55.4092 1126.32 515.539
2013 1 54.2016 12.3613 670 56.4836 1126.4 536.982
2014 0 54.1331 11.952 647 57.6971 1125.88 536.328
2015 0 58.0986 13.9762 812 55.8522 1125.01 535.941
2016 0 58.0311 12.9069 749 57.4633 1124.91 534.132
2017 0 64.0588 13.5188 866 56.2067 1125.03 533
2018 0 67.0655 14.4038 966 54.5321 1125.37 533.583
2019 0 70.0656 13.5873 952 54.9926 1124.84 532.819
2020 0 69.1028 14.1094 975 55.1672 1125.03 528.976
2021 0 72.0948 12.761 920 56.3467 1124.9 529.403
2022 0 75.1339 13.6423 1025 55.04 1125.08 528.724
2023 0 75.0951 13.5828 1020 55.5206 1125.34 527.448
2024 0 79.1074 13.7282 1086 54.907 1125.48 525.715
2025 0 81.1651 14.0947 1144 54.715 1125.82 523.573
2026 0 85.1887 13.8986 1184 54.0971 1125.71 523.274
2027 0 88.2523 14.8551 1311 53.3669 1125.39 519.99
2028 0 91.2015 13.9581 1273 53.7431 1125.29 518.369
2029 0 95.2112 13.3703 1273 54.2781 1123.76 520.274
2030 0 95.1743 13.5226 1287 54.5439 1124.16 516.838
2031 0 100.175 14.3049 1433 53.501 1125.22 515.088
2032 1 57.2003 11.6783 668 55.0419 1125.67 538.21
2033 0 58.1623 11.1928 651 56.4823 1124.83 536.816
2034 0 62.1064 12.8328 797 54.2384 1123.83 537.867
2035 0 64.1728 13.3857 859 53.9977 1123.69 538.399
2036 0 66.1109 13.2505 876 54.4041 1123.76 537.575
2037 0 66.0784 13.4083 886 54.7043 1123.56 535.84
2038 0 68.138 12.6655 863 55.4971 1124.07 533.373
2039 0 71.0724 13.9857 994 53.8702 1123.91 533.467
2040 0 73.0393 13.7734 1006 54.4702 1123.81 530.663
2041 0 76.106 13.5732 1033 54.5402 1124.3 530.658
2042 0 78.1658 14.111 1103 54.3155 1123.99 530.139
2043 0 81.1556 13.6281 1106 55.0325 1122.6 528.467
2044 0 85.2435 14.4175 1229 54.0822 1122.95 527.477
2045 0 86.1018 14.4248 1242 54.3889 1122.79 526.508
2046 0 90.3124 14.2395 1286 54.4448 1123.02 524.759
2047 0 92.1811 13.8966 1281 55.1194 1123.46 520.888
2048 0 96.1082 13.1727 1266 55.4676 1123.37 522.604
2049 0 100.314 14.634 1468 54.2425 1123.56 519.031
2050 1 55.2683 11.1999 619 56.021 1124.48 543.021
2051 0 58.2052 11.4594 667 56.7421 1123.26 540.804
2052 0 61.2211 12.8224 785 55.5936 1123.51 537.999
2053 0 62.1762 12.9471 805 55.7938 1123.44 536.822
2054 0 63.1111 12.8028 808 57.802 1123.54 536.175
2055 0 66.1227 13.2632 877 57.3865 1123.2 535.649
2056 0 68.158 13.4247 915 57.1158 1122.92 536.29
2057 0 71.2166 14.2102 1012 56.4931 1122.6 533.763
2058 0 70.3342 13.6491 960 58.0771 1122.5 533.44
2059 0 73.2767 14.4111 1056 56.5956 1122.86 533.642
2060 0 74.1735 12.7539 946 59.1406 1122.65 531.74
2061 0 77.2042 13.4578 1039 58.4081 1123 530.569
2062 0 81.1738 14.1548 1149 56.8755 1123.35 529.602
2063 0 83.1714 13.9711 1162 57.3959 1123.12 528.594
2064 0 87.377 13.4933 1179 57.6624 1122.95 527.494
2065 0 92.3264 13.9938 1292 56.9899 1122.87 525.751
2066 0 93.1115 13.9618 1300 57.7169 1122.47 523.668
2067 0 96.1927 13.7432 1322 57.9713 1123.32 520.464
2068 0 98.1696 14.1999 1394 58.0151 1122.98 520.044
2069 0 103.103 14.3255 1477 57.5328 1123.71 519.149
2070 1 52.2944 11.1867 585 60.5077 1123.4 543.846
2071 0 57.0634 11.7413 670 60.297 1124.18 541.26
2072 0 58.1184 12.1476 706 60.619 1124.18 541.235
2073 0 59.1069 13.5686 802 58.9713 1124.28 539.07
2074 0 62.1491 14.1273 878 58.1071 1124.19 537.556
2075 0 63.1073 14.0396 886 58.8623 1123.51 537.734
2076 0 65.0931 14.1797 923 58.9599 1123.51 535.784
2077 0 66.0825 13.5891 898 59.6949 1123.55 536.353
2078 0 68.0841 13.6743 931 59.7089 1123.45 535.207
2079 0 70.1626 13.9818 981 59.369 1123.3 533.119
2080 0 73.2281 13.0687 957 60.6562 1123.71 532.374
2081 0 76.1305 13.1616 1002 60.0898 1123.85 531.75
2082 0 81.063 14.0014 1135 58.8529 1124.1 527.911
2083 0 82.1374 14.0253 1152 59.1484 1124.58 525.867
2084 0 87.1322 14.8395 1293 57.894 1124.91 525.619
2085 0 90.1647 14.7508 1330 58.282 1124.95 522.632
2086 0 90.1291 14.2351 1283 59.4373 1125.09 522.348
2087 0 95.1122 14.3725 1367 59.049 1125.01 521.169
2088 0 98.2211 14.4063 1415 59.1456 1125.43 517.902
2089 0 99.0971 13.6129 1349 60.4826 1125.59 515.927
2090 0 105.137 14.3336 1507 59.2621 1125.97 515.07
2091 0 109.154 14.988 1636 58.5397 1126.27 513.533
2092 1 61.0543 10.0566 614 62.0668 1126.33 537.686
2093 0 61.0737 11.2814 689 61.3745 1126.31 535.88
2094 0 66.0833 13.1803 871 59.0057 1126.85 533.584
2095 0 65.0676 13.9701 909 59.4213 1126.66 533.042
2096 0 69.0419 13.3977 925 59.5405 1126.41 533.337
2097 0 70.0821 13.5841 952 60.2426 1126.47 528.797
2098 0 73.129 14.0847 1030 59.3553 1126.4 528.929
2099 0 73.129 14.1394 1034 154.285 1125.4 528.968
2100 0 78.0453 14.3378 1119 59.1868 1126.53 526.743
2101 0 79.0714 13.6965 1083 61.0471 1126.8 524.809
2102 0 83.0981 13.2855 1104 61.0562 1127.08 523.895
2103 0 87.1584 13.9287 1214 59.8517 1127.38 522.979
2104 0 88.2372 13.2257 1167 61.4619 1127.85 520.461
2105 0 91.2789 14.2859 1304 60.1756 1128.28 518.159
2106 0 94.1973 13.5673 1278 61.3326 1128.49 517.924
2107 0 98.1882 13.9528 1370 60.5029 1128.44 516.045
2108 0 102.42 14.7237 1508 59.6592 1128.44 513.402
2109 0 105.493 14.3707 1516 60.6016 1128.37 512.361
2110 0 107.391 13.9025 1493 61.4729 1128.34 509.23
2111 0 111.413 14.4956 1615 60.5238 1128.51 508.496
2112 1 65.2196 9.10769 594 62.5303 1129.15 534.032
2113 0 68.1397 11.4324 779 60.7651 1129.53 532.938
2114 0 70.0989 12.9674 909 60.0022 1128.14 528.593
2115 0 71.0309 12.6565 899 61.1702 1128.01 529.929
2116 0 74.0659 13.245 981 60.0408 1127.97 528.344
2117 0 78.2151 13.6419 1067 58.9053 1127.76 527.734
2118 0 80.0811 13.3615 1070 59.557 1127.65 525.971
2119 0 82.144 14.0607 1155 59.1039 1127.45 524.038
2120 0 85.1757 13.748 1171 59.2442 1127.07 522.336
2121 0 88.1732 14.755 1301 57.7863 1127.12 520.178
2122 0 88.1925 13.3571 1178 60.045 1127.12 519.108
2123 0 93.1199 13.3699 1245 59.7703 1127.03 518.23
2124 0 97.2176 13.8144 1343 59.2837 1126.7 516.875
2125 0 98.1659 13.2225 1298 59.7126 1126.45 516.852
2126 0 102.068 13.7164 1400 59.2843 1125.92 513.577
2127 0 105.206 13.678 1439 58.5817 1126.08 512.713
2128 0 110.161 14.0158 1544 57.7306 1126.1 512.547
2129 0 112.128 13.6095 1526 58.7929 1125.98 509.878
2130 0 115.198 13.3336 1536 58.763 1126.03 508.079
2131 1 67.0949 11.3869 764 56.6623 1126.46 534.339
2132 0 68.0953 10.6175 723 56.9184 1126.33 536.111
2133 0 69.0427 10.5007 725 57.3407 1125.7 534.695
2134 0 72.0471 11.7978 850 56.4224 1125.64 532.329
2135 0 71.0788 10.6924 760 57.2224 1125.53 533.403
2136 0 74.0488 11.5329 854 56.3162 1125.28 529.875
2137 0 76.1969 12.4808 951 55.3659 1124.93 529.858
2138 0 76.223 12.0436 918 56.4303 1124.72 529.976
2139 0 81.1401 11.437 928 57.1552 1123.97 529.074
2140 0 83.1695 12.8653 1070 55.2505 1123.86 527.41
2141 0 84.1776 13.0438 1098 55.6995 1123.85 526.301
2142 0 88.244 12.8961 1138 55.9657 1123.77 524.228
2143 0 92.3893 14.4714 1337 54.6238 1123.53 522.61
2144 0 93.3966 12.9448 1209 56.2109 1124.14 522.425
2145 0 95.3592 12.8042 1221 56.7215 1123.64 521.007
2146 0 99.212 12.7505 1265 56.2862 1123.58 518.278
2147 0 103.203 13.9241 1437 55.1705 1123.49 515.644
2148 0 105.344 12.4639 1313 56.949 1124.33 514.565
2149 0 107.242 12.9986 1394 56.6758 1124.02 514.468
2150 0 112.342 13.3254 1497 56.5498 1123.9 511.163
2151 0 114.233 13.455 1537 56.7554 1123.92 512.168
2152 0 118.148 14.1855 1676 56.0853 1123.92 505.995
2153 0 122.12 13.6587 1668 56.4496 1123.88 505.659
2154 1 69.0931 11.0431 763 56.2962 1123.94 535.666
2155 0 70.1773 10.8012 758 57.4525 1123.39 535.459
2156 0 72.0705 10.8366 781 57.0832 1123.12 535.963
2157 0 75.0442 12.4593 935 56.338 1123.06 531.821
2158 0 78.0399 13.0702 1020 55.3529 1123.81 531.059
2159 0 78.0571 12.2346 955 56.6325 1123.59 529.436
2160 0 84.0468 13.1117 1102 55.3221 1123.51 527.635
2161 0 85.089 13.5035 1149 54.9278 1123.34 526.534
2162 0 90.31 13.9187 1257 54.2005 1123.44 523.253
2163 0 92.1612 13.4547 1240 54.8806 1123.04 523.46
2164 0 95.2868 14.3567 1368 53.9284 1123.63 522.077
2165 0 97.1285 14.558 1414 54.3487 1122.9 519.417
2166 0 101.174 13.0666 1322 55.5053 1122.63 521.989
2167 0 103.286 13.39 1383 55.7426 1123.02 517.876
2168 0 106.258 13.7966 1466 55.3704 1122.23 516.372
2169 0 109.182 13.7385 1500 56.1067 1121.83 513.296
2170 0 112.148 14.4453 1620 55.6037 1121.77 512.925
2171 0 115.132 13.6539 1572 55.626 1121.76 512.47
2172 0 120.115 14.0115 1683 55.508 1121.62 509.195
2173 0 125.261 15.1443 1897 54.2256 1121.46 508.026
2174 0 127.159 14.7139 1871 54.915 1122.05 503.553
2175 1 72.1104 10.5394 760 57.2697 1121.71 535.729
2176 0 71.0472 12.7662 907 55.0232 1121.88 534.063
2177 0 74.1786 12.3216 914 56.2987 1122.34 533.581
2178 0 76.2739 12.7567 973 56.3073 1122.13 531.558
2179 0 79.05 12.7388 1007 55.7458 1122.78 530.25
2180 0 81.3424 12.7363 1036 56.4546 1122.79 529.933
2181 0 84.1691 14.0194 1180 54.7695 1122.96 527.407
2182 0 88.2217 13.9988 1235 54.5814 1122.52 526.028
2183 0 90.2668 13.7371 1240 55.2177 1122.54 523.509
2184 0 95.2119 14.2419 1356 54.6165 1122.7 521.953
2185 0 98.4812 14.4799 1426 54.5175 1122.79 519.833
2186 0 99.4455 14.601 1452 55.1618 1122.91 515.402
2187 0 105.208 14.0484 1478 55.3153 1123.19 515.612
2188 0 107.341 14.5331 1560 55.4853 1123.59 514.419
2189 0 109.201 14.1391 1544 56.5026 1123.73 513.494
2190 0 114.309 14.9682 1711 55.5932 1123.78 508.106
2191 0 116.245 13.9188 1618 57.1984 1123.5 508.963
2192 0 122.173 14.815 1810 56.8155 1124.13 506.361
2193 0 125.341 15.1427 1898 56.5068 1124.17 504.378
2194 0 128.281 15.1387 1942 56.5814 1124.69 505.396
2195 0 133.139 15.1421 2016 56.7391 1124.8 498.583
2196 0 138.338 14.5007 2006 57.0359 1125.12 497.498
2197 0 141.245 15.1226 2136 55.9251 1125.69 496.341
2198 1 76.1442 11.7671 896 58.7199 1125.45 526.772
2199 0 78.239 12.1039 947 58.5396 1125.58 524.977
2200 0 82.2335 14.1791 1166 56.03 1126.01 525.151
2201 0 83.1981 13.4859 1122 56.8538 1125.82 524.411
2202 0 86.2189 12.8858 1111 57.6436 1125.84 523.906
2203 0 89.1647 13.6265 1215 57.3663 1126.31 520.719
2204 0 93.3089 14.2644 1331 56.9444 1126.26 519.364
2205 0 95.2931 13.831 1318 57.7276 1126.58 516.606
2206 0 99.2361 14.0473 1394 56.4376 1126.99 516.803
2207 0 101.332 14.4969 1469 56.4683 1127.3 514.475
2208 0 103.13 13.7302 1416 58.2069 1127.02 512.729
2209 0 108.215 14.8131 1603 56.5696 1127.01 511.494
2210 0 110.227 13.5901 1498 58.2677 1127.15 509.316
2211 0 113.302 13.8303 1567 58.4844 1126.88 508.382
2212 0 118.244 14.7745 1747 57.0086 1127.13 506.625
2213 1 65.0565 12.5583 817 57.8054 1126.91 534.255
2214 0 68.1158 11.1722 761 59.1472 1126.81 532.28
2215 0 70.1284 13.6036 954 56.7537 1127.22 532.156
2216 0 72.0474 13.047 940 57.4362 1128.16 532.894
2217 0 74.0763 13.6616 1012 57.6877 1128.39 528.149
2218 0 76.106 13.4549 1024 57.7207 1128.61 529.359
2219 0 81.131 13.8911 1127 57.1846 1128.61 528.05
2220 0 83.2495 14.1502 1178 56.865 1128.55 523.835
2221 0 86.0878 14.4039 1240 56.8371 1127.98 524.931
2222 0 89.1498 13.7858 1229 57.9138 1128.66 522.329
2223 0 91.1523 14.4264 1315 57.6327 1128.46 520.008
2224 0 94.205 14.5852 1374 57.3595 1128.75 518.999
2225 0 97.147 15.07 1464 57.2486 1128.42 517.548
2226 0 97.071 13.9074 1350 59.2185 1128.09 518.191
2227 0 101.083 14.3347 1449 58.5493 1128.29 514.759
2228 0 105.207 14.5048 1526 58.9063 1128.11 513.494
2229 0 109.212 14.0553 1535 60.544 1128.07 511.255
2230 0 111.076 14.4136 1601 60.5453 1127.86 508.634
2231 0 116.266 14.7851 1719 60.139 1127.9 509.134
2232 0 119.301 15.4651 1845 59.7832 1128.04 507.237
2233 0 122.202 14.386 1758 61.1712 1127.61 505.688
2234 0 125.172 14.6119 1829 61.0487 1127.87 499.518
2235 1 68.0978 12.2471 834 63.6091 1127.66 530.203
2236 0 70.2 12.265 861 63.2509 1127.69 532.44
2237 0 74.1371 14.0011 1038 61.8449 1127.18 529.363
2238 0 76.1335 13.8178 1052 62.2091 1127.62 527.202
2239 0 78.1159 14.1969 1109 62.0478 1127.33 528.615
2240 0 81.0478 15.1762 1230 61.0659 1127.12 524.776
2241 0 83.0519 13.6541 1134 63.1173 1127.05 524.608
2242 0 87.1756 14.7977 1290 61.5271 1126.53 522.093
2243 0 91.1763 15.0258 1370 61.362 1126.44 521.896
2244 0 91.2061 12.9268 1179 65.0178 1127.88 519.449
2245 0 95.1751 15.4557 1471 62.0666 1127.62 517.507
2246 0 98.2074 14.8461 1458 63.0734 1127.14 516.337
2247 0 101.141 15.2163 1539 62.4347 1126.99 515.973
2248 0 104.203 14.299 1490 64.2852 1126.94 512.158
2249 0 107.139 15.8298 1696 62.6633 1127.09 511.753
2250 0 112.162 15.8075 1773 61.8139 1126.81 511.706
2251 0 115.18 15.9229 1834 62.3064 1126.57 510.539
2252 0 118.223 14.1258 1670 64.4216 1126.36 509.826
2253 1 66.0573 12.58 831 64.2443 1126.66 536.975
2254 0 66.0755 13.0003 859 65.3923 1126.57 533.808
2255 0 66.0755 13.0608 863 171.884 1126.6 533.813
2256 0 73.1807 14.0748 1030 64.6709 1126.11 532.239
2257 0 74.1632 14.8861 1104 63.4248 1126.17 531.43
2258 0 77.0601 14.8585 1145 64.269 1126.35 529.06
2259 0 80.0988 14.9316 1196 64.0836 1125.96 528.395
2260 0 83.04 14.8603 1234 64.8558 1125.91 527.256
2261 0 84.0856 14.6042 1228 65.4845 1125.87 525.537
2262 0 86.1888 15.0948 1301 65.7279 1125.85 525.038
2263 0 91.1028 14.9721 1364 65.6943 1125.71 522.88
2264 0 90.1274 14.2465 1284 67.8847 1126.49 521.588
2265 0 96.1173 15.5747 1497 65.3788 1126.87 520.621
2266 0 96.1173 15.5643 1496 168.63 1127.87 520.604
2267 0 101.226 15.3023 1549 66.2324 1126.39 518.405
2268 0 104.376 15.5304 1621 66.3325 1126.53 516.903
2269 0 104.376 15.5113 1619 170.773 1126.53 516.899
2270 0 110.292 16.1208 1778 65.5242 1126.08 514.498
2271 0 115.105 15.4555 1779 66.4255 1125.81 514.011
2272 0 117.34 16.0218 1880 66.0053 1125.47 511.892
2273 0 121.314 15.0107 1821 67.341 1125.47 508.557
2274 0 125.5 16.4143 2060 65.0922 1125.47 506.209
2275 1 67.2616 13.2022 888 69.7275 1126.01 536.384
2276 0 71.1893 13.5554 965 68.344 1126.1 536.452
2277 0 74.0751 15.5248 1150 67.2357 1125.96 532.746
2278 0 75.3239 14.5505 1096 68.4726 1125.68 532.513
2279 0 79.1871 16.0758 1273 66.0157 1125.58 529.753
2280 0 82.2523 15.4646 1272 66.5723 1124.93 527.711
2281 0 85.1857 16.5286 1408 64.4808 1125.41 527.344
2282 0 89.2784 15.6365 1396 65.4513 1124.67 526.607
2283 0 91.3109 15.8031 1443 65.1947 1124.79 525.586
2284 0 94.4086 15.1787 1433 65.9944 1124.82 524.401
2285 0 98.196 15.6626 1538 65.117 1124.29 524.441
2286 0 101.324 17.2417 1747 63.1826 1124.59 520.457
2287 0 104.235 15.2348 1588 65.9345 1124.43 519.674
2288 0 108.187 15.9816 1729 64.8623 1124.09 516.995
2289 0 109.205 15.4205 1684 65.4834 1123.93 515.762
2290 0 115.447 16.5877 1915 63.4099 1123.8 515.368
2291 0 118.285 16.1729 1913 64.2624 1123.92 511.855
2292 0 122.448 15.8843 1945 64.273 1123.57 511.128
2293 0 126.398 15.372 1943 64.4457 1123.26 511.242
2294 0 130.349 15.7194 2049 64.2543 1123.42 505.202
2295 0 138.335 15.5637 2153 63.7111 1123.64 504.561
2296 0 143.316 16.5509 2372 62.1024 1123.6 502.211
2297 1 82.1154 15.5026 1273 63.2773 1124.12 530.351
2298 0 83.2532 15.1826 1264 64.8521 1124.1 529.367
2299 0 89.2431 16.3598 1460 62.8342 1124.27 526.317
2300 0 92.1654 15.0816 1390 64.2317 1124.04 527.119
2301 0 95.2968 15.6563 1492 63.2835 1124.05 524.801
2302 0 99.2458 14.7009 1459 64.3948 1123.77 524.352
2303 0 102.298 16.5008 1688 62.481 1123.55 519.174
2304 0 107.389 15.5882 1674 63.368 1123.67 519.196
2305 1 56.1636 13.4785 757 67.7794 1123.44 543.135
2306 0 58.2081 13.864 807 67.1896 1124.11 542.059
2307 0 61.1983 13.7912 844 67.6327 1123.91 541.212
2308 0 65.3059 14.8379 969 66.7616 1123.89 539.484
2309 0 68.2166 15.8759 1083 65.5494 1123.8 535.368
2310 0 71.1586 15.7957 1124 65.6139 1124.07 535.571
2311 0 73.4671 16.1841 1189 65.2296 1124.37 534.238
2312 0 75.3863 15.7588 1188 66.3805 1124.44 533.279
2313 0 78.2626 17.6202 1379 64.1139 1124.6 530.882
2314 0 81.231 16.4223 1334 66.3186 1124.53 529.291
2315 0 83.4072 16.1377 1346 67.1293 1124.63 528.511
2316 0 85.3182 15.4246 1316 68.4088 1124.46 528.863
2317 0 88.2064 16.6088 1465 67.7788 1125.03 527.132
2318 0 90.3203 16.5301 1493 68.8654 1125.01 525.197
2319 0 95.3512 15.9725 1523 69.74 1124.86 523.517
2320 0 98.3297 17.0244 1674 68.6266 1125.23 521.498
2321 0 100.252 15.5009 1554 71.4279 1125.15 520.862
2322 0 104.266 16.0551 1674 70.8823 1125.39 517.41
2323 1 58.2862 14.6004 851 74.7344 1125.85 539.133
2324 0 61.2131 14.7844 905 74.6552 1125.86 537.048
2325 0 63.175 16.5888 1048 71.1508 1126.18 537.341
2326 0 65.1 16.5745 1079 71.8007 1126.41 535.991
2327 0 68.1982 16.2028 1105 71.8072 1126.01 533.644
2328 0 71.2134 15.8818 1131 71.4996 1126.46 532.356
2329 0 73.1357 15.2456 1115 73.1561 1126.51 529.834
2330 0 75.1035 17.0432 1280 70.357 1126.76 529.312
2331 0 78.3708 16.5368 1296 70.8627 1126.81 528.356
2332 0 81.1866 16.2712 1321 70.8683 1126.97 526.712
2333 0 83.3225 16.5262 1377 70.4713 1127.26 525.999
2334 0 87.1503 16.5232 1440 69.8646 1127.46 524.153
2335 0 89.144 16.1649 1441 70.3338 1127.31 522.855
2336 0 93.1644 16.2294 1512 70.1746 1127.28 520.095
2337 0 97.1485 16.8093 1633 68.6332 1127.45 519.859
2338 0 99.2548 16.7548 1663 69.0806 1127.27 515.851
2339 0 102.246 16.3038 1667 69.847 1127.22 514.936
2340 0 104.107 16.3006 1697 69.7625 1127.27 513.982
2341 0 110.139 17.0511 1878 68.1922 1127.54 514.51
2342 0 113.139 16.3781 1853 68.7091 1127.87 512.495
2343 1 61.1368 15.9478 975 70.1415 1128.37 536.587
2344 0 64.1086 16.5344 1060 69.5821 1128.35 533.516
2345 0 66.1401 16.6162 1099 69.1683 1128.29 531.837
2346 0 69.1592 16.7584 1159 68.1139 1128.24 532.612
2347 0 70.1624 16.6613 1169 68.994 1128.79 530.33
2348 0 73.0874 16.4871 1205 68.761 1128.47 528.593
2349 0 77.2002 16.5025 1274 68.1641 1128.42 527.068
2350 0 81.2212 17.5324 1424 66.6306 1128.5 527.713
2351 0 80.0488 15.8903 1272 69.809 1128.23 524.768
2352 0 84.2798 17.2165 1451 67.8697 1128.89 522.553
2353 0 89.1089 16.5865 1478 68.4378 1128.71 521.689
2354 0 90.2112 16.1177 1454 69.7153 1128.36 519.093
2355 0 94.164 17.2784 1627 68.8531 1128.32 518.092
2356 0 97.2501 17.419 1694 67.9132 1128.19 518.486
2357 0 101.212 18.1797 1840 66.5076 1128.65 515.466
2358 0 105.191 17.5396 1845 67.9978 1128.74 513.098
2359 0 106.183 17.0461 1810 69.0591 1127.54 513.139
2360 0 111.266 16.6718 1855 70.117 1127.96 508.886
2361 0 116.191 17.6004 2045 68.2572 1127.89 507.802
2362 0 122.242 17.5472 2145 67.7716 1127.82 506.029
2363 0 125.299 16.5444 2073 68.7795 1127.98 503.308
2364 0 130.258 18.1487 2364 66.4154 1127.41 501.805
2365 1 60.1992 13.4221 808 71.302 1127.24 536.371
2366 0 62.1931 14.9213 928 70.2834 1127.12 533.905
2367 0 65.0806 16.226 1056 68.9867 1127.02 532.607
2368 0 67.1549 15.2186 1022 70.0352 1126.65 531.546
2369 0 68.1321 15.0149 1023 70.7537 1127.01 529.592
2370 0 73.1723 16.2083 1186 68.6113 1126.7 526.81
2371 0 75.1612 16.1386 1213 68.4246 1127.09 526.279
2372 0 76.0894 16.3098 1241 69.1644 1126.33 524.313
2373 0 80.1301 16.4857 1321 68.4618 1126.17 524.111
2374 0 82.1729 15.869 1304 69.4502 1126.15 523.629
2375 0 86.1516 16.262 1401 68.8037 1126.07 522.103
2376 0 88.2994 15.5381 1372 69.2172 1126.29 520.745
2377 0 92.2374 17.3032 1596 67.3258 1125.8 520.14
2378 0 93.1849 16.4619 1534 68.749 1126.01 518.734
2379 0 99.2268 17.1123 1698 67.2238 1125.91 514.856
2380 0 103.291 16.3905 1693 67.8151 1125.86 515.344
2381 0 107.328 16.5847 1780 67.5697 1125.92 512.594
2382 0 111.524 16.0055 1785 64.9922 1125.72 511.38
2383 0 116.371 16.0005 1862 64.7288 1125.92 507.922
2384 0 120.239 15.4859 1862 65.399 1126.4 507.997
2385 0 126.216 16.6857 2106 63.6686 1125.92 503.659
2386 1 56.1837 14.5594 818 65.7518 1126.43 535.884
2387 0 57.0528 14.583 832 66.2825 1126.22 535.825
2388 0 59.3455 14.7442 875 66.8926 1126.55 535.787
2389 0 62.3271 15.7877 984 65.1016 1126.04 535.542
2390 0 65.409 16.0834 1052 64.8536 1126.05 534.454
2391 0 65.223 15.9146 1038 65.9027 1126.4 534.931
2392 0 68.1861 15.707 1071 66.0962 1126.39 531.747
2393 0 72.1874 15.5844 1125 65.6391 1125.94 530.131
2394 0 73.3662 15.9883 1173 65.613 1126.07 528.775
2395 0 77.1435 15.2832 1179 66.3715 1125.64 529.789
2396 0 80.2555 15.8618 1273 66.1005 1125.77 527.527
2397 0 80.183 15.2651 1224 68.4616 1125.8 526.332
2398 0 84.3135 15.7507 1328 67.4782 1125.89 525.095
2399 0 89.326 15.964 1426 67.3878 1125.3 523.257
2400 0 90.2467 14.959 1350 69.5519 1125.47 523.069
2401 0 90.2467 15.0366 1357 173.369 1125.49 522.993
2402 0 98.2057 17.0866 1678 66.6228 1125.21 518.11
2403 0 102.205 15.919 1627 68.9164 1124.6 516.235
2404 0 105.255 16.0277 1687 68.8975 1124.32 515.458
2405 1 44.1756 10.5488 466 71.573 1124.71 543.53
2406 0 47.1709 13.0377 615 70.3008 1124.07 540.698
2407 0 51.297 13.646 700 69.46 1124.17 538.529
2408 0 52.16 13.5161 705 70.2667 1124.08 539.182
2409 0 54.24 12.924 701 70.428 1124.41 539.265
2410 0 54.0438 13.1375 710 71.262 1124.29 537.466
2411 0 58.2952 13.7919 804 70.0609 1123.46 536.582
2412 0 58.1544 13.6877 796 70.5302 1124.32 538.598
2413 0 61.1398 14.6059 893 69.2486 1123.74 536.88
2414 0 64.1521 13.6083 873 70.0859 1123.89 534.901
2415 0 66.1868 14.308 947 69.7096 1123.89 535.619
2416 0 66.1542 12.4557 824 72.5231 1123.7 536.285
2417 0 69.0705 13.8264 955 70.7969 1123.24 534.685
2418 0 71.1916 14.5804 1038 70.6329 1123.24 532.358
2419 0 72.1256 13.7399 991 70.6842 1123.49 532.36
2420 0 73.1984 14.6178 1070 70.343 1123.75 530.295
2421 0 77.0997 14.786 1140 69.8132 1123.5 528.853
2422 0 79.101 14.058 1112 70.3813 1123.6 530.327
2423 0 82.0836 15.204 1248 68.984 1123.61 528.254
2424 0 83.1004 14.5848 1212 70.4818 1123.38 526.639
2425 0 86.1426 14.743 1270 70.4409 1123.47 526.149
2426 0 87.1207 14.5201 1265 70.7834 1123.14 524.494
2427 0 93.2366 14.8118 1381 70.0036 1123.14 523.031
2428 0 95.2653 14.3179 1364 71.1496 1123.4 520.533
2429 0 99.2858 15.8029 1569 68.0739 1123.36 519.435
2430 0 103.406 15.1732 1569 68.4003 1123.27 517.641
2431 0 105.275 14.2674 1502 69.7244 1123.78 517.71
2432 0 108.291 14.3226 1551 69.96 1123.73 513.821
2433 0 111.301 14.7797 1645 68.5836 1124.02 514.364
2434 0 115.177 14.5342 1674 68.9898 1124.22 511.755
2435 0 119.292 15.0639 1797 68.1692 1123.84 507.078
2436 0 122.178 14.929 1824 68.0312 1124.26 508.105
2437 0 125.155 15.0932 1889 67.6686 1124.29 506.111
2438 0 129.347 13.9624 1806 69.3594 1124.21 503.135
2439 0 134.429 15.8373 2129 66.1564 1124.22 498.85
2440 0 134.429 15.8448 2130 156.908 1124.22 498.79
2441 1 84.1946 12.3523 1040 68.05 1124.77 523.909
2442 0 88.2548 12.3166 1087 67.8832 1124.48 522.53
2443 0 90.1571 13.421 1210 67.9686 1124.33 520.164
2444 0 93.2823 12.8213 1196 68.8554 1124.31 517.592
2445 0 96.1997 13.3784 1287 68.0692 1124.18 517.065
2446 0 98.1194 14.1868 1392 66.9806 1124.43 514.494
2447 0 104.119 14.906 1552 65.3666 1124.02 513.506
2448 0 107.123 13.6573 1463 66.7293 1124.42 512.088
2449 0 110.211 14.6084 1610 65.7845 1125.25 507.391
2450 0 114.238 14.4698 1653 66.1682 1125.23 506.549
2451 0 115.387 14.603 1685 66.5157 1125.13 505.154
2452 0 119.258 14.4728 1726 66.9276 1124.89 502.17
2453 0 123.225 14.7697 1820 66.5621 1125.16 501.163
2454 0 126.218 14.4591 1825 66.0142 1124.88 501.45
2455 0 131.277 15.4407 2027 63.6862 1125.08 496.999
2456 0 136.193 15.7277 2142 62.6825 1125.13 494.795
2457 0 140.27 14.6718 2058 64.5986 1125.51 492.827
2458 0 142.244 15.3188 2179 64.2914 1125.49 490.462
2459 0 145.264 15.4891 2250 64.5218 1125.63 486.403
2460 0 153.214 15.5599 2384 63.8511 1126.07 485.492
2461 0 155.236 14.6745 2278 65.3275 1126.19 484.475
2462 0 160.347 14.7243 2361 65.3494 1126.45 482.071
2463 0 167.354 14.807 2478 65.1905 1126.54 477.422
2464 0 173.232 16.1459 2797 63.1548 1126.81 475.964
2465 0 177.357 14.6766 2603 64.8029 1127.08 470.359
2466 1 111.266 11.45 1274 65.5714 1127.63 505.788
2467 0 114.16 12.0182 1372 66.4475 1127.76 500.999
2468 0 117.269 12.3392 1447 65.6489 1127.9 500.193
2469 0 121.217 13.0014 1576 65.1713 1128.09 498.55
2470 0 124.19 12.8996 1602 65.5968 1128.11 493.282
2471 0 127.171 12.1883 1550 66.7103 1128.26 494.347
2472 1 33.0577 8.56079 283 52.2297 1129.01 547.36
2473 0 36.0367 7.13161 257 53.1012 1129.44 545.058
2474 0 34.0285 8.25777 281 51.7331 1129.46 547.139
2475 0 36.0301 7.74353 279 52.7778 1129.59 545.387
2476 0 32.0163 6.9652 223 51.4305 1129.65 549.668
2477 0 33.0188 7.05659 233 52.7468 1129.6 546.494
2478 0 32.0518 8.17426 262 52.3092 1129.79 544.141
2479 0 32.0956 7.38418 237 52.4895 1129.81 547.173
2480 0 34.0158 7.84929 267 51.2584 1129.38 546.843
2481 0 37.0686 6.87914 255 51.0118 1129.27 548.043
2482 0 38.039 5.49436 209 53.5359 1129.61 545.359
2483 0 36.0903 7.23186 261 51.6092 1129.98 545.839
2484 0 39.0451 7.83709 306 51.4542 1129.69 543.935
2485 0 39.0689 8.67697 339 50.2153 1129.45 545.251
2486 0 34.0039 4.70535 160 53.05 1129.42 544.6
2487 0 40.016 6.2725 251 52.4542 1128.58 545.339
2488 0 36.0154 7.63562 275 51.2073 1127.65 546.302
2489 0 45.0636 7.25641 327 51.9572 1127.34 541.434
2490 0 49.0892 7.37433 362 52.0635 1126.69 540.033
2491 0 48.0955 6.44551 310 52.8 1126.77 539.584
2492 0 50.2077 9.87896 496 49.9415 1128.62 537.829
2493 0 51.0886 7.49677 383 52.4804 1128.73 536.556
2494 0 52.0791 9.10154 474 51.1414 1128.56 540.243
2495 0 51.0591 8.77414 448 52.2946 1127.98 538.009
2496 0 53.0514 8.63314 458 53.1485 1127.56 539.028
2497 0 53.0816 9.73972 517 53.0696 1127.69 537.408
2498 0 57.0593 9.67415 552 52.1141 1127.47 539.386
2499 0 56.068 10.7548 603 52.1144 1127.74 537.282
2500 0 53.0362 10.3703 550 53.7036 1127.37 537.853
2501 0 54.0551 10.2858 556 54.1223 1127.17 537.597
2502 0 54.0651 10.1914 551 54.3103 1126.8 539.485
2503 0 56.0437 10.7416 602 54.8322 1126.91 538.143
2504 0 58.13 10.7002 622 54.3923 1127.04 539.084
2505 0 56.0845 9.98494 560 56.0375 1126.89 539.091
2506 0 57.0762 10.9853 627 55.5933 1126.46 538.927
2507 0 57.0882 10.5276 601 56.6755 1126.38 539.409
2508 0 58.0548 9.92166 576 56.5139 1126.49 539.866
2509 0 57.0721 10.8985 622 56.2476 1126.39 537.605
2510 0 59.0932 11.3042 668 56.2051 1126.46 537.531
2511 0 58.0445 10.7331 623 57.6035 1126.45 536.459
2512 0 61.0632 12.4461 760 55.5408 1125.88 535.766
2513 0 61.0559 12.6441 772 55.8174 1126.29 536.872
2514 0 63.0429 13.0387 822 55.1521 1126.51 537.505
2515 0 63.056 13.5752 856 54.1916 1126.39 535.136
2516 0 63.0503 12.8152 808 55.4728 1126.3 537.507
2517 0 61.1104 11.4383 699 57.5637 1125.78 537.986
2518 0 64.0747 13.6403 874 54.3238 1124.95 537.362
2519 0 63.0631 13.9067 877 54.1231 1125.67 537.556
2520 0 63.0306 11.899 750 57.0973 1125.32 535.428
2521 0 64.0517 12.9583 830 54.9711 1125.73 537.392
2522 0 64.0468 13.537 867 54.2434 1125.47 539.268
2523 0 63.0294 12.8194 808 55.3886 1125.96 537.952
2524 0 65.0771 12.4468 810 55.5049 1125.41 538.388
2525 0 65.1206 12.1774 793 56.0958 1126.1 536.826
2526 0 63.0874 12.5382 791 55.8319 1125.55 536.989
2527 0 63.1118 12.8185 809 56.0025 1125.42 536.09
2528 0 64.054 13.0515 836 55.3971 1124.93 536.652
2529 0 64.0294 11.9008 762 56.6444 1125.61 536.062
2530 0 65.0725 13.0931 852 55.1854 1125.51 536.703
2531 0 65.0687 13.724 893 54.2363 1125.03 534.353
2532 0 66.0346 12.4177 820 55.4561 1125.13 536.588
2533 0 67.0694 12.2858 824 55 1124.75 537.222
2534 0 67.0313 12.0391 807 55.197 1124.49 536.524
2535 0 66.0479 12.067 797 55.389 1124.84 537.417
2536 0 66.078 12.7576 843 54.8114 1124.7 535.204
2537 0 68.0395 13.5657 923 53.3088 1124.32 535.122
2538 0 66.044 11.9012 786 55.6908 1124.94 536.341
2539 0 66.0644 12.8208 847 56.1228 1124.44 534.208
2540 0 68.0487 13.9753 951 53.9895 1124.66 535.405
2541 0 67.0398 13.0669 876 55.4498 1124.77 533.575
2542 0 67.0693 12.42 833 56.3397 1124.26 534.694
2543 0 67.117 13.171 884 55.1708 1124.11 535.218
2544 0 67.0561 12.5417 841 56.4376 1123.72 533.911
2545 0 67.0877 13.9668 937 54.2636 1124.01 536.251
2546 0 67.0408 11.8883 797 56.5947 1123.82 534.806
2547 0 67.044 12.2606 822 56.3698 1123.86 535.662
2548 0 68.049 12.7261 866 55.2333 1123.88 535.863
2549 0 69.107 13.414 927 54.1791 1123.84 536.043
2550 0 69.1196 12.2541 847 55.9079 1123.83 534.909
2551 0 68.0536 11.9171 811 56.1467 1123.39 534.217
2552 0 70.069 14.0148 982 53.5193 1123.63 535.842
2553 0 69.0318 13.7183 947 53.8448 1123.65 534.922
2554 0 69.0889 12.9254 893 54.1254 1123.62 535.791
2555 0 68.0476 12.6529 861 54.489 1123.1 537.123
2556 0 68.0771 11.8983 810 55.979 1123.19 534.812
2557 0 69.0423 12.4996 863 54.7173 1123.54 535.973
2558 0 71.0868 13.4624 957 53.0522 1123.37 536.069
2559 0 69.1243 13.237 915 53.9639 1123.25 534.696
2560 0 70.0513 13.1047 918 53.9673 1123.47 536.422
2561 0 70.0366 14.4353 1011 52.632 1123.3 535.074
2562 0 70.0282 12.7234 891 54.0954 1122.89 536.478
2563 0 71.0591 12.1448 863 54.752 1122.88 535.139
2564 0 70.0349 13.4076 939 53.2758 1122.86 534.923
2565 0 70.0766 12.2723 860 54.857 1122.65 535.565
2566 0 69.0726 12.7981 884 54.6154 1123.14 536.12
2567 0 72.0991 14.1749 1022 53.7016 1122.51 534.061
2568 0 70.0882 13.6257 955 54.7717 1122.75 534.994
2569 0 70.0691 12.9016 904 55.3473 1123.07 537.194
2570 0 70.0458 12.2777 860 56.2326 1122.67 537.123
2571 0 70.0861 12.4561 873 55.9633 1123.23 535.218
2572 0 73.053 13.7982 1008 53.869 1123.08 534.5
2573 0 72.1157 13.201 952 54.6366 1123.07 534.71
2574 0 73.1108 13.9925 1023 53.4086 1123.08 534.115
2575 0 72.0441 13.3113 959 54.5057 1123.04 534.704
2576 0 73.0808 13.0814 956 54.8023 1122.91 534.653
2577 0 73.0654 12.961 947 54.3105 1122.74 535.535
2578 0 73.148 13.3975 980 53.3796 1122.57 535.793
2579 0 73.076 13.9033 1016 52.5679 1122.72 537.493
2580 0 74.0819 15.0914 1118 50.8936 1122.52 534.408
2581 0 75.0759 13.1733 989 52.6734 1122.71 536.237
2582 0 73.0953 13.927 1018 52.5855 1122.54 535.056
2583 0 73.051 13.867 1013 52.7187 1122.67 534.471
2584 0 73.046 13.471 984 52.6413 1122.76 535.746
2585 0 74.0268 13.36 989 52.7037 1123.16 534.031
2586 0 74.0688 14.338 1062 51.5527 1123.34 532.952
2587 0 73.1059 13.7198 1003 52.2901 1123.28 532.901
2588 0 74.0679 13.5416 1003 52.4796 1123.38 535.268
2589 0 74.0883 13.5919 1007 52.0238 1123.45 533.045
2590 0 73.0653 13.5358 989 52.184 1123.98 534.129
2591 0 73.0895 14.3523 1049 51.1935 1124.51 532.497
2592 0 73.0858 14.4488 1056 51.1752 1124.22 531.842
2593 0 73.0912 14.6119 1068 50.7978 1124.39 532.128
2594 0 75.0793 14.2782 1072 50.8041 1124.42 532.422
2595 0 74.0749 12.6359 936 52.3323 1124.63 533.298
2596 0 74.2885 13.7437 1021 51.5651 1124.47 533.681
2597 0 74.0592 14.5424 1077 50.7112 1124.28 532.643
2598 0 75.0725 13.8266 1038 51.6946 1124.68 530.623
2599 0 75.1085 13.8866 1043 51.3432 1125.27 530.655
2600 0 73.0312 12.7617 932 53.1588 1125.17 531.099
2601 0 75.0381 13.4332 1008 51.9911 1125.65 532.856
2602 0 75.0266 13.7151 1029 51.7872 1125.39 532.303
2603 0 76.0417 14.5315 1105 50.0842 1125.67 531.446
2604 0 77.0256 13.9045 1071 50.6489 1125.63 532.343
2605 0 76.0976 13.6667 1040 51.1346 1125.71 531.839
2606 0 75.0459 13.5384 1016 51.4173 1125.73 530.882
2607 0 75.0588 13.203 991 51.7316 1126.29 532.514
2608 0 75.1171 13.7119 1030 51.235 1126.78 530.856
2609 0 75.0258 13.6886 1027 51.555 1127.18 529.678
2610 0 74.104 13.2786 984 52.2642 1127.54 530.863
2611 0 75.0934 14.0625 1056 50.8816 1127.09 528.999
2612 0 75.0542 13.417 1007 51.5253 1127.04 530.996
2613 0 77.112 14.4725 1116 49.724 1127.88 530.927
2614 0 75.087 14.117 1060 50.7368 1128.17 526.903
2615 0 77.0776 13.8432 1067 50.5558 1127.87 530.295
2616 0 77.1435 14.7517 1138 49.6459 1128.28 529.325
2617 0 75.1145 13.7523 1033 50.5063 1128.48 532.267
2618 0 75.0345 13.9403 1046 50.63 1128.28 530.029
2619 0 75.1622 13.411 1008 51.2579 1128.12 528.147
2620 0 76.0931 13.9303 1060 50.5132 1128.67 528.122
2621 0 75.1066 13.7138 1030 50.8563 1128.54 529.172
2622 0 74.1441 13.258 983 51.4507 1128.63 529.98
2623 0 76.1017 14.3229 1090 49.8459 1128.57 530.99
2624 0 76.1035 13.6656 1040 50.7413 1127.78 528.219
2625 0 76.0774 13.6703 1040 50.8769 1127.6 529.913
2626 0 76.1013 13.2981 1012 51.0237 1128.21 527.602
2627 0 75.0378 12.5004 938 51.5597 1127.91 528.321
2628 0 76.0537 13.5299 1029 50.3848 1128 526.167
2629 0 76.0725 12.6721 964 51.1867 1127.88 526.647
2630 0 77.0622 14.1444 1090 49.5917 1128.32 526.974
2631 0 77.101 13.1386 1013 50.2873 1128.03 528.564
2632 0 76.0797 13.5779 1033 50.1045 1128.02 528.737
2633 0 76.0453 12.9923 988 51.168 1128.18 527.761
2634 0 76.0544 12.3333 938 51.4072 1127.67 528.648
2635 0 75.0625 12.8826 967 51.2792 1127.82 527.065
2636 0 76.1074 13.2839 1011 50.5509 1126.91 528.636
2637 0 75.0635 13.9748 1049 49.9199 1128.2 529.063
2638 0 74.0466 13.8561 1026 50.3762 1128.48 528.795
2639 0 75.0576 12.9367 971 50.7765 1128.22 530.156
2640 0 75.1781 12.7963 962 51.0301 1128.12 528.764
2641 0 75.0514 13.4041 1006 51.3052 1127.65 528.875
2642 0 76.1432 13.7241 1045 51.1129 1127.84 529.256
2643 0 76.0626 13.5809 1033 51.3011 1127.74 529.831
2644 0 75.0756 14.0125 1052 51.6778 1127.72 529.437
2645 0 74.1123 12.4946 926 53.3834 1126.55 528.239
2646 0 74.08 13.4044 993 52.4794 1126.94 526.663
2647 0 73.104 11.9829 876 54.0091 1127.02 526.36
2648 0 74.1825 12.7658 947 52.7709 1126.52 528.287
2649 0 75.0586 11.9373 896 53.1987 1126.67 529.825
2650 0 73.044 12.4446 909 50.8295 1126.05 528.099
2651 0 74.0766 12.7841 947 50.1816 1126.44 527.471
2652 0 75.1298 12.7912 961 49.8387 1126.74 528.553
2653 0 73.1543 14.2849 1045 48.9876 1126.43 527.877
2654 0 73.0814 12.6024 921 50.5407 1126.53 528.77
2655 0 73.0979 12.5448 917 50.4427 1126.18 529.502
2656 0 74.107 12.4145 920 50.3152 1125.78 529.372
2657 0 74.0694 13.3523 989 48.82 1125.91 528.968
2658 0 76.0294 13.9683 1062 48.4369 1125.45 527.653
2659 0 73.0736 13.2059 965 49.5119 1126.01 527.31
2660 0 72.0826 12.9019 930 49.8935 1126.86 527.988
2661 0 72.1048 11.8855 857 51.021 1126.78 528.042
2662 0 72.0578 12.6149 909 50.1529 1126.61 530.285
2663 0 73.0752 11.9877 876 50.8653 1126.87 528.829
