time division length width area intensity CMx CMy
0 0 50.173 12.6163 633 79.3712 885.739 555.926
1 0 51.0784 12.9017 659 79.0774 884.921 553.821
2 0 53.0651 13.0971 695 77.8317 885.082 554.094
3 0 55.0945 12.8325 707 77.8939 884.604 553.979
4 0 56.0472 13.0069 729 77.3374 884.656 552.204
5 0 59.0359 12.7719 754 78.0172 885.419 552.357
6 0 61.1168 12.9752 793 77.7427 885.076 552.078
7 0 62.174 13.6713 850 76.9988 884.775 549.887
8 0 65.109 13.4236 874 76.8352 884.707 548.354
9 0 68.0729 13.7059 933 76.0782 884.973 547.316
10 0 69.3139 13.3307 924 77.6158 885.209 545.972
11 0 71.2313 13.4211 956 77.9215 884.994 544.385
12 0 75.2716 13.5243 1018 76.9371 885.422 544.683
13 0 77.1548 13.285 1025 78.12 885.444 541.709
14 1 43.0872 10.7224 462 79.4199 884.682 559.087
15 0 43.0899 11.6733 503 80.0835 886.197 558.471
16 0 44.1898 12.1974 539 79.9072 886.273 556.694
17 0 48.1585 12.2512 590 79.3763 886.09 555.583
18 0 48.1535 12.8755 620 79.9548 886.124 553.716
19 0 50.0453 13.4878 675 78.5719 885.551 554.319
20 0 52.2566 13.051 682 78.7742 886.009 552.743
21 0 54.1633 13.3485 723 77.8368 885.891 553.024
22 0 56.1955 12.8836 724 78.9227 885.628 552.579
23 0 57.1635 13.1552 752 79.3258 885.61 550.864
24 0 58.2557 13.2691 773 79.5809 885.644 549.908
25 0 61.2156 13.1176 803 79.142 885.806 548.846
26 0 63.1382 13.0983 827 79.5429 885.779 546.886
27 0 67.4201 13.186 889 78.2126 885.813 546.692
28 0 68.2975 12.753 871 81.3375 885.598 544.317
29 1 34.1227 10.6381 363 80.6529 885.039 560.592
30 0 36.0678 10.813 390 80.2795 884.815 560.521
31 0 38.131 11.4605 437 78.8284 885.114 559.723
32 0 38.0767 12.1071 461 78.0846 884.92 559.375
33 0 38.0914 12.4963 476 78.0903 885.088 559.357
34 0 41.2642 12.214 504 77.9206 886.175 558.619
35 0 44.1721 12.2023 539 78.7681 885.772 557.039
36 0 43.0541 12.3333 531 79.3992 886.06 557.006
37 0 45.1986 12.5446 567 78.672 885.947 556.169
38 0 48.0843 12.1661 585 78.3231 886.19 554.224
39 0 50.2473 12.1997 613 77.8711 886.204 554.538
40 0 50.2258 13.2601 666 77.1502 886.405 553.734
41 0 51.1828 13.5202 692 76.841 886.738 552.056
42 0 54.2193 13.1503 713 76.6199 886.571 551.886
43 0 56.1713 12.6933 713 77.2595 886.592 550.387
44 0 57.1532 12.6852 725 77.5448 887.043 549.97
45 0 59.1762 12.9782 768 77.224 887.605 548.789
46 0 62.1972 13.7627 856 75.0654 887.389 547.076
47 0 64.2287 13.2028 848 75.7394 887.801 546.27
48 0 67.2567 13.3072 895 75.8313 887.867 545.044
49 0 69.2005 14.0028 969 74.2487 888.183 544.05
50 0 72.4193 13.5461 981 74.7441 887.831 543.575
51 0 74.1202 13.2892 985 75.3249 887.753 541.962
52 0 75.1736 12.97 975 76.1179 888.069 540.318
53 1 41.0598 10.984 451 76.2483 887.645 559.044
54 0 40.0331 11.7653 471 75.4119 886.728 557.943
55 0 43.0884 11.9754 516 66.7984 887.052 557.488
56 0 44.1043 12.153 536 67.819 886.978 555.763
57 0 45.0539 13.2064 595 65.6975 887.518 554.05
58 0 46.2533 12.3667 572 66.7395 887.535 553.893
59 0 49.0761 13.6523 670 65.1806 888.425 553.606
60 0 51.0914 13.0746 668 67.8668 888.063 553.545
61 0 51.078 13.078 668 68.8144 888.072 550.928
62 0 53.0727 13.0576 693 69.2482 888 550.768
63 0 54.2223 12.7623 692 69.7486 888.029 549.223
64 0 57.1285 13.741 785 67.7503 887.762 547.752
65 0 58.0744 13.3277 774 68.686 887.867 547.326
66 0 59.1236 13.3449 789 69.0393 887.91 547.236
67 0 60.1029 13.976 840 68.8988 888.41 546.083
68 0 64.0824 13.2798 851 69.1575 888.618 544.2
69 0 64.1522 13.4368 862 69.0139 889.265 543.84
70 0 64.1522 13.3589 857 168.858 890.271 543.832
71 0 71.2339 12.9714 924 68.8961 888.908 541.379
72 0 73.1135 14.1561 1035 66.9517 888.418 537.949
73 0 76.2126 14.3546 1094 87.9945 888.601 537.493
74 0 77.0752 13.7009 1056 67.554 889.749 537.355
75 0 81.0894 14.5149 1177 66.0102 889.206 534.726
76 1 40.0303 10.7169 429 70.5082 889.744 553.385
77 0 42.0344 10.5628 444 69.7838 889.646 552.689
78 0 43.0533 11.0096 474 69.8945 889.88 551.696
79 0 45.0504 12.0088 541 69.5545 889.738 550.22
80 0 47.1132 12.5867 593 68.344 890.162 548.172
81 0 48.1806 13.1588 634 67.7744 889.942 547.325
82 0 49.0313 12.8489 630 68.3556 890.684 545.9
83 0 50.1366 12.2266 613 69.6933 891.439 545.326
84 0 50.0342 12.9711 649 69.1772 891.072 545.86
85 0 54.0975 13.6235 737 67.2008 891.525 544.157
86 0 55.1546 12.7641 704 68.429 891.413 542.768
87 0 58.1182 13.2144 768 66.7943 891.56 541.647
88 0 59.0814 13.3714 790 66.9911 891.573 540.87
89 0 60.1341 13.1207 789 67.1787 892.423 538.99
90 0 63.0243 12.5031 788 68.1383 892.327 535.813
91 0 68.0851 14.1 960 65.3062 893.102 535.865
92 0 68.1975 13.4609 918 66.6362 893.232 534.292
93 0 71.0514 13.6239 968 66.3802 893.444 532.53
94 0 73.1232 14.332 1048 64.5162 893.329 529.97
95 0 75.1184 13.4321 1009 65.0753 893.556 529.049
96 0 78.2798 13.4134 1050 63.939 893.61 528.131
97 0 83.2321 14.2974 1190 87.5538 893.997 526.851
98 1 43.0771 10.8875 469 63.9147 893.721 546.9
99 0 44.1088 11.3583 501 64.5788 893.341 544.573
100 0 46.1534 11.7218 541 66.5046 893.335 543.512
101 0 47.0522 10.8815 512 68.7988 893.363 542.904
102 0 49.0736 11.7578 577 69.5407 893.69 541.915
103 0 51.2636 12.2699 629 66.6391 893.601 542.25
104 0 53.1319 13.3065 707 66.5007 893.801 541.632
105 0 54.1246 12.8038 693 68.3463 893.545 541.316
106 0 57.1213 12.2896 702 69.0883 894.083 539.587
107 0 58.1235 12.7487 741 69.1484 894.112 538.362
108 0 61.076 12.509 764 69.4895 893.877 537.467
109 0 63.1521 13.4437 849 68.2945 894.499 534.827
110 0 64.1379 13.471 864 68.1875 893.885 535.471
111 0 66.1058 12.4346 822 70.2956 892.918 534.174
112 0 67.1033 12.7266 854 70.0808 892.741 533.018
113 0 70.3964 12.4438 876 70.0582 892.663 531.764
114 0 70.3964 12.458 877 167.462 893.67 531.763
115 0 75.3325 12.9293 974 69.269 892.937 528.005
116 1 41.184 11.0237 454 69.9119 893.564 545.181
117 0 43.1946 10.9273 472 68.5572 893.36 545.18
118 0 42.1338 10.8227 456 69.4693 893.708 544.833
119 0 46.219 10.883 503 68.2187 892.954 544.326
120 0 48.2068 11.6374 561 67.3725 893.168 542.807
121 0 48.2062 11.9487 576 67.3472 892.467 543.457
122 0 49.3647 11.5265 569 68.2847 891.873 540.931
123 0 50.209 11.6115 583 68.7822 892.007 541.16
124 0 52.1604 12.174 635 67.4488 891.983 539.813
125 0 54.1674 12.5721 681 67.1439 892.073 539.714
126 0 56.1878 11.7107 658 68.2401 892.143 540.074
127 0 58.1553 11.3317 659 68.4385 892.572 538.869
128 0 58.1285 12.524 728 67.2981 892.295 538.055
129 0 60.1533 12.3352 742 67.8477 891.953 536.929
130 0 62.1766 12.4002 771 66.9844 891.763 538.425
131 0 65.1453 12.8175 835 66.8611 891.068 534.95
132 0 66.1531 12.3653 818 67.7738 891.352 534.001
133 0 68.1468 12.5611 856 67.5117 891.565 532.493
134 0 72.2449 12.4576 900 67.55 891.676 532.679
135 0 72.367 12.3399 893 69.2363 891.488 530.952
136 0 75.3453 12.4626 939 69.0128 891.633 531.171
137 0 78.4309 12.2528 961 69.3985 891.238 529.287
138 1 45.0807 10.6032 478 69.2741 891.613 545.036
139 0 44.1188 10.6531 470 70.4468 891.445 545.332
140 0 46.287 10.3701 480 70.575 891.673 544.406
141 0 48.2076 11.2845 544 69.5662 891.415 543.057
142 0 51.2135 11.7352 601 68.2296 891.792 542.554
143 0 52.1474 11.9469 623 68.0401 891.151 541.09
144 0 53.0828 12.716 675 67.2415 890.794 541.252
145 0 55.1346 12.4967 689 67.6488 890.771 540.3
146 0 56.1133 12.3322 692 67.9292 890.999 539.416
147 0 57.0965 12.4876 713 67.7489 891.081 538.843
148 0 60.1353 11.391 685 68.8993 890.394 538.908
149 0 60.1176 12.6585 761 67.611 890.934 538.53
150 0 62.1121 12.1554 755 68.5682 891.256 538.423
151 0 63.1815 12.5195 791 68.7345 890.64 537.579
152 0 66.2651 12.782 847 68.3353 890.583 535.736
153 0 67.1122 12.8591 863 68.1367 890.625 535.99
154 0 71.1877 13.4714 959 67.4849 890.667 533.995
155 0 74.0798 13.337 988 67.5445 891.047 533.121
156 0 75.111 13.1272 986 68.6227 890.969 531.148
157 0 78.1483 12.8218 1002 69.2236 890.943 530.642
158 1 40.0183 10.7201 429 69.4382 890.005 549.054
159 0 41.0354 10.9905 451 69.6652 890.058 548.721
160 0 43.0686 10.8896 469 70.1322 890.725 549.075
161 0 45.06 12.6942 572 67.472 891.365 546.916
162 0 46.1311 12.5512 579 67.867 891.095 544.782
163 0 48.0707 12.1696 585 68.4291 891.434 544.921
164 0 48.1538 12.5224 603 68.6667 891.925 543.672
165 0 51.1113 12.7956 654 68.2859 891.02 543.093
166 0 51.1113 12.776 653 161.922 890.008 543.101
167 0 53.101 13.0506 693 68.1804 890.949 542.108
168 0 54.0126 13.1636 711 69.083 891.256 540.184
169 0 55.0478 13.0614 719 69.3296 891.63 540.847
170 0 57.0358 12.7639 728 69.6511 891.731 538.673
171 0 59.078 13.5076 798 68.5414 892.122 538.272
172 0 62.1112 13.2504 823 68.9964 892.164 537.19
173 0 62.0862 13.0625 811 70.471 892.231 535.751
174 0 66.0513 13.5652 896 69.0982 892.577 535.725
175 0 66.0678 13.0018 859 71.0244 892.593 534.013
176 0 70.0818 13.898 974 69.1766 892.962 532.358
177 0 69.0436 13.7449 949 71.2803 893.146 531.129
178 0 72.1721 13.3847 966 72.2443 893.199 529.572
179 0 76.1463 13.4215 1022 72.408 893.348 528.372
180 1 41.0235 11.6519 478 73.1297 893.588 546.163
181 0 41.0174 10.9466 449 75.5523 893.96 544.904
182 0 44.0865 11.8404 522 74.4923 894.251 542.918
183 0 46.0939 11.021 508 175.348 894.228 543.177
184 0 46.0808 12.1743 561 74.0196 894.681 542.816
185 0 47.0787 12.8933 607 74.4234 894.511 540.471
186 0 50.0593 13.4241 672 71.9896 894.848 540.097
187 0 52.0865 13.5736 707 72.5827 894.782 538.932
188 0 54.0633 13.3547 722 73.0125 894.691 538.301
189 0 54.045 13.1372 710 74.0352 894.601 538.054
190 0 56.0857 13.7468 771 73.2412 894.595 537.179
191 0 59.0968 13.6217 805 74.6373 894.406 535.981
192 0 58.0931 13.6849 795 75.0881 894.697 534.911
193 0 61.0697 14.0823 860 72.2244 894.716 533.592
194 0 64.0533 13.8166 885 71.826 894.6 532.803
195 0 65.0716 14.1229 919 70.9325 894.792 532.163
196 0 69.0757 14.3611 992 70.9476 895.207 531.104
197 0 70.0695 13.2583 929 75.4747 894.967 529.477
198 0 72.0972 14.1476 1020 74.4873 895.25 528.753
199 0 74.2109 14.095 1046 74.6377 895.152 527.927
200 0 77.105 14.0847 1086 73.9963 895.438 527.314
201 0 80.1018 14.7063 1178 73.0696 895.448 524.716
202 0 83.0267 13.875 1152 75.2274 895.594 524.226
203 0 85.3689 14.1503 1208 74.6937 895.688 522.656
204 0 89.1425 14.8302 1322 73.2179 895.636 521.348
205 0 90.2362 13.9634 1260 75.2056 895.768 519.984
206 0 93.2493 14.0484 1310 75.0954 895.85 518.044
207 1 47.1204 10.887 513 77.7135 895.528 541.296
208 0 48.1316 10.9491 527 75.7021 895.26 542.835
209 0 52.1964 11.6866 610 74.9934 894.933 540.233
210 0 52.1386 12.1407 633 75.6825 895.547 539.216
211 0 53.1552 13.2631 705 73.0397 895.237 539.313
212 0 57.1637 13.4526 769 72.671 895.157 537.248
213 0 59.2165 13.2564 785 72.7083 895.122 536.385
214 0 61.155 12.8362 785 73.1452 894.799 536.902
215 0 62.0813 13.0313 809 73.3795 894.336 534.805
216 0 65.1432 12.6491 824 74 894.149 533.203
217 0 66.0389 12.9621 856 74 893.732 532.078
218 0 68.0869 12.6603 862 74.7587 894.218 531.331
219 0 70.2752 13.4329 944 73.6419 894.143 530.511
220 0 72.1666 13.0116 939 74.541 893.829 529.569
221 0 76.216 13.7504 1048 73.1727 894.223 527.603
222 0 79.1751 13.6533 1081 72.9667 893.36 526.125
223 0 81.5303 13.4306 1095 73.7041 893.731 524.366
224 0 85.1746 13.4195 1143 73.6614 893.679 523.612
225 0 87.2128 13.2205 1153 73.9245 894.052 523.425
226 1 46.1305 10.8171 499 73.6653 893.521 543.649
227 0 48.1573 11.5247 555 72.5568 893.178 542.62
228 0 50.1751 12.1773 611 70.6432 892.843 543.237
229 0 52.1479 12.5029 652 70.3466 893.336 541.644
230 0 52.1562 12.5968 657 70.0228 893.043 542.157
231 0 52.1143 11.7051 610 72.0328 892.974 541.141
232 0 56.1579 12.6607 711 70.2349 892.737 540.084
233 0 59.1513 13.0682 773 69.2691 892.671 538.587
234 0 60.2368 12.8161 772 70.6425 892.499 537.176
235 0 62.1044 12.6722 787 70.6086 892.673 537.884
236 0 64.1041 12.9321 829 71.6864 892.216 535.332
237 0 67.116 13.5139 907 70.8501 892.139 534.646
238 0 69.0634 12.7998 884 72.5441 892.057 534.214
239 0 69.1442 13.0741 904 73.2334 892.508 533.412
240 0 72.0507 12.7827 921 73.4908 892.448 531.61
241 0 74.1206 13.0598 968 73.9163 891.915 530.737
242 0 77.1982 12.9796 1002 74.4321 891.993 529.775
243 0 80.1243 12.7427 1021 75.1244 892.236 529.127
244 1 42.0506 10.7014 450 76.92 891.911 547.38
245 0 46.0781 10.9814 506 76.8636 891.747 546.812
246 0 47.0173 11.315 532 76.156 891.641 545.353
247 0 50.0712 12.1427 608 75.4276 892.089 543.123
248 0 50.0393 11.9106 596 75.2953 891.826 544.171
249 0 53.0187 12.0524 639 75.23 891.972 541.249
250 0 54.198 12.0115 651 76.0599 891.651 542.369
251 0 57.114 13.4468 768 73.5729 891.065 541.312
252 0 57.144 13.1247 750 74.4467 891.643 540.933
253 0 59.1445 13.0866 774 74.2804 891.448 539.907
254 0 60.1468 13.334 802 74.3367 891.4 539.516
255 0 62.1874 13.0412 811 74.9001 891.261 540.004
256 0 66.1413 13.577 898 73.1604 891.33 537.12
257 0 68.0956 13.4517 916 73.0317 891.447 536.294
258 0 70.2121 13.388 940 73.3585 891.935 534.81
259 0 71.2386 13.546 965 73.7907 891.518 533.952
260 0 74.1595 14.0508 1042 72.0739 891.147 531.672
261 0 76.066 13.4488 1023 73.6481 891.332 532.315
262 0 82.096 13.3624 1097 73.0356 891.231 530.82
263 0 85.1344 13.9897 1191 71.9135 891.075 529.732
264 0 84.081 12.928 1087 75.069 891.359 527.056
265 0 90.1722 14.0176 1264 72.6044 890.731 526.152
266 1 47.1236 10.7589 507 75.4635 890.4 546.471
267 0 48.063 11.6306 559 75.1628 890.639 546.07
268 0 48.063 11.5682 556 166.536 891.649 546.013
269 0 51.188 11.9755 613 75.1256 891.041 544.015
270 0 52.0973 12.1503 633 75.4945 891.227 544.125
271 0 53.1941 12.633 672 74.692 891.728 543.554
272 0 56.1929 13.0622 734 73.3515 891.56 541.504
273 0 56.2079 13.4323 755 73.9179 891.366 541.562
274 0 57.1515 13.5079 772 74.2306 890.723 539.338
275 0 60.1723 13.9932 842 72.7637 891.309 538.752
276 0 61.1889 12.5676 769 76.2315 891.737 538.865
277 0 63.1961 13.6242 861 73.8269 891.315 537.408
278 0 65.1835 13.0248 849 74.8563 891.872 538.049
279 0 66.1732 13.4949 893 75.1019 892.003 536.419
280 0 70.3525 14.6974 1034 72.7466 892.017 535.315
281 0 72.2535 14.1031 1019 74.2139 892.028 534.803
282 0 74.2539 14.006 1040 74.7615 891.926 533.192
283 0 75.4983 14.3844 1086 74.8913 892.711 531.119
284 0 80.3254 14.0055 1125 75.5618 892.823 529.252
285 0 81.3277 13.796 1122 76.6649 893.047 528.45
286 0 85.556 13.7688 1178 76.9414 893.042 526.249
287 0 88.2983 14.2358 1257 76.5203 892.975 525.661
288 0 92.4234 14.1739 1310 76.6809 893.231 522.32
289 0 93.1732 14.135 1317 78.2802 893.36 521.843
290 0 96.1962 14.4185 1387 77.4319 893.623 521.572
291 1 51.0625 11.8874 607 79.229 893.278 544.341
292 0 52.0382 11.7606 612 80.1422 893.374 542.41
293 0 54.1209 12.6753 686 78.6166 893.856 541.684
294 0 57.1106 12.5721 718 77.532 893.851 540.776
295 0 60.0537 13.1049 787 77.5235 894.108 537.657
296 0 60.1238 12.7903 769 78.7711 894.585 537.398
297 0 62.0903 13.7864 856 77.5327 894.864 534.951
298 0 66.0456 13.203 872 77.0034 894.876 533.775
299 0 68.1462 13.4564 917 76.6663 894.831 532.754
300 0 67.1865 13.5146 908 77.8656 894.898 529.947
301 0 71.0337 13.5006 959 77.4286 895.276 528.29
302 0 74.052 13.7066 1015 76.5961 895.744 528.108
303 0 76.0917 13.4837 1026 77.2359 895.195 526.91
304 0 79.0459 13.7388 1086 75.9199 895.634 525.93
305 0 81.1275 13.4356 1090 76.7633 895.783 524.208
306 0 87.1217 14.0952 1228 73.8371 895.814 522.12
307 0 89.2445 14.309 1277 74.1942 896.208 520.187
308 0 92.0396 13.9071 1280 75.4406 896.227 517.568
309 1 49.065 11.0262 541 77.2329 896.024 540.312
310 0 50.0204 11.3754 569 77.6063 895.64 539.016
311 0 52.0477 12.0466 627 75.6396 895.644 537.844
312 0 55.1141 12.1385 669 74.8819 895.933 535.535
313 0 56.1882 12.7429 716 73.6313 895.48 533.978
314 0 60.0912 12.8139 770 72.4909 895.291 533.736
315 0 60.0438 12.2244 734 74.0817 895.255 532.665
316 0 62.1876 13.7005 852 71.412 894.117 530.397
317 0 64.2235 12.5188 804 72.6082 894.405 531.276
318 0 66.2109 12.6263 836 72.5718 894.682 530.347
319 0 68.2572 12.7313 869 72.748 894.802 528.749
320 0 70.088 12.9694 909 72.2717 895.24 528.261
321 0 71.2019 12.935 921 72.7112 894.946 526.028
322 0 75.3172 12.6399 952 73.0137 894.967 525.829
323 0 78.2142 13.5653 1061 71.0688 895.161 524.356
324 0 79.3637 13.1042 1040 72.4644 895.004 523.681
325 0 84.3157 14.4339 1217 69.8258 894.366 520.566
326 0 86.2559 13.3904 1155 71.8017 893.893 520.609
327 0 88.1975 12.6648 1117 73.5112 894.218 519.711
328 0 91.2506 13.5342 1235 72.2623 893.883 517.883
329 0 96.1159 13.9207 1338 71.6308 893.902 516.666
330 0 98.1467 13.1028 1286 74.2201 893.587 512.274
331 0 101.142 14.0101 1417 72.6683 894.121 512.572
332 1 53.0584 11.0633 587 75.0664 894.102 536.555
333 0 58.0933 11.6881 679 72.3196 893.95 536.638
334 0 57.0847 12.2099 697 74.2253 893.806 534.35
335 0 61.0838 13.2441 809 71.2497 893.454 533.494
336 0 62.1631 12.7568 793 73.5422 893.359 532.887
337 0 65.1565 12.9995 847 72.8996 893.138 531.777
338 0 65.1301 12.974 845 73.7633 893.04 530.733
339 0 68.3243 12.7334 870 73.7138 893.038 529.715
340 0 70.2295 12.7155 893 73.6361 893.452 528.115
341 0 72.4265 12.4954 905 74.6519 893.301 527.051
342 0 75.2409 13.0647 983 73.3266 892.956 525.604
343 0 78.2468 12.8823 1008 72.5258 892.143 525.566
344 0 81.2775 13.0294 1059 72.1473 893.315 523.158
345 0 83.193 12.5852 1047 72.8825 893.288 521.679
346 0 86.2969 13.0364 1125 71.376 893.277 521.577
347 0 90.3913 12.7335 1151 71.4535 893.434 518.158
348 0 92.5109 12.7228 1177 70.1988 893.162 517.873
349 1 50.2049 10.8754 546 69.4066 893.487 538.597
350 0 50.2491 9.91062 498 71.0422 893.759 538.639
351 0 54.1482 11.4316 619 69.1858 893.131 536.664
352 0 54.1969 11.1815 606 69.1815 893.446 535.616
353 0 56.0991 11.8897 667 69.0405 893.096 535.007
354 0 60.2526 12.1655 733 66.8049 892.821 535.237
355 0 61.2328 12.1993 747 66.6359 893.339 535.305
356 0 63.2072 13.4953 853 64.4291 893.278 533.025
357 0 64.3548 12.2757 790 66.6468 892.757 531.414
358 0 69.3699 12.0081 833 65.5882 893.758 531.831
359 0 69.1677 12.3179 852 65.5528 893.232 529.854
360 0 71.31 12.2844 876 65.5422 893.135 527.434
361 0 74.2835 12.5331 931 64.9323 892.632 527.559
362 0 76.2936 12.3339 941 65.6174 892.68 524.538
363 0 78.2323 11.7215 917 66.1036 892.843 523.405
364 1 41.1105 9.92447 408 65.1765 891.578 542.245
365 0 43.1232 11.0613 477 64.6226 891.4 541.715
366 0 44.06 10.3949 458 65.2227 891.828 541.041
367 0 47.1837 11.4658 541 62.963 892.12 540.087
368 0 47.1428 11.1576 526 63.635 892.082 538.11
369 0 52.1514 12.2911 641 61.8253 893.59 538.48
370 0 49.1441 11.9445 587 151.821 893.545 537.339
371 0 52.1816 12.3415 644 63.2003 893.644 535.724
372 0 55.1256 12.3717 682 62.9941 894.085 536.095
373 0 57.2834 12.6389 724 62.4434 893.858 534.977
374 0 56.2046 12.757 717 63.3501 894.04 533.237
375 0 59.2497 12.6245 748 63.5241 894.156 533.608
376 0 60.1171 12.6586 761 64.0355 894.237 533.288
377 0 63.0964 12.6949 801 62.7803 894.135 530.151
378 0 66.2345 13.7542 911 60.8694 894.486 529.99
379 0 67.145 12.7038 853 63.2591 894.414 527.681
380 0 68.1531 13.2936 906 62.8852 894.44 528.123
381 0 69.2492 13.2565 918 63.5327 894.436 527.821
382 0 72.124 13.5739 979 63.3687 894.449 527.316
383 0 74.1339 14.0017 1038 63.3295 894.163 525.149
384 0 74.2458 13.6035 1010 64.7347 894.164 523.307
385 0 79.1423 13.4189 1062 64.4153 894.263 523.159
386 0 83.3104 14.1039 1175 62.8111 894.485 519.76
387 0 86.1747 14.1457 1219 62.8794 895.461 518.706
388 0 89.2144 14.6501 1307 61.8944 895.157 518.135
389 0 92.3488 13.8388 1278 63 895.479 514.754
390 1 47.3133 10.7581 509 64.1159 895.796 538.845
391 0 49.145 11.5983 570 62.7789 895.953 538.463
392 0 49.1963 11.444 563 63.4245 895.567 537.277
393 0 53.2829 11.3357 604 63.3146 895.916 535.911
394 0 55.1569 13.3437 736 60.5149 895.427 533.773
395 0 57.3404 12.9054 740 60.7919 895.551 534.176
396 0 58.2052 11.7344 683 62.9224 896.553 532.347
397 0 61.19 12.9433 792 59.9912 896.549 532.821
398 0 60.1812 12.0303 724 62.6036 896.3 529.612
399 0 64.2837 12.2582 788 61.9124 896.322 528.386
400 0 64.1946 12.4933 802 61.8404 896.047 526.854
401 0 69.2586 12.7204 881 60.9364 895.957 526.728
402 0 69.2454 12.333 854 62.5082 896.116 525.237
403 0 71.147 13.5073 961 60.7669 896.403 525.942
404 0 73.1738 12.8461 940 62.0851 896.481 522.733
405 0 77.1846 13.3576 1031 61.4724 896.756 523.594
406 0 79.3578 12.4121 985 63.0345 896.602 519.725
407 0 82.2606 13.1898 1085 62.0876 896.654 519.978
408 1 42.1304 10.42 439 64.3235 895.856 538.116
409 0 43.1794 11.9965 518 61.5193 896.058 540.083
410 0 47.1126 10.7402 506 63.6798 896.073 539.63
411 0 46.0868 11.7604 542 63.6218 896.574 538.264
412 0 48.0414 12.0521 579 63.753 896.276 536.459
413 0 50.1968 12.3514 620 62.9339 895.982 536.655
414 0 52.1227 11.6456 607 63.7694 895.904 537.221
415 0 53.1501 12.4177 660 63.2606 896.439 535.909
416 0 55.0741 13.8541 763 61.8073 895.726 534.461
417 0 56.0822 11.9646 671 64.1908 896.234 535.42
418 0 58.0701 12.1233 704 64.5795 896.209 534.051
419 0 60.0705 13.0014 781 64.3406 895.691 532.142
420 0 63.0329 13.4374 847 62.7308 895.132 531.607
421 0 65.0846 13.444 875 62.5337 894.617 530.786
422 0 67.0859 12.6703 850 63.5671 894.904 529.439
423 0 70.0615 13.1456 921 62.6232 894.489 528.484
424 1 37.0826 10.0317 372 63.2043 894.274 545.422
425 0 38.0125 11.0753 421 62.4822 894.135 544.922
426 0 42.025 11.0886 466 61.7232 893.607 542.689
427 0 43.0459 12.0569 519 60.7784 893.934 543.239
428 0 44.1062 12.4699 550 61.0618 894.213 540.173
429 0 47.1462 11.8355 558 61.4982 893.186 541.961
430 0 47.2025 12.3299 582 61.7079 893.392 540.973
431 0 51.1452 12.9044 660 60.2152 893.438 538.874
432 0 52.1343 13.1583 686 59.3294 892.487 539.121
433 0 53.163 13.1294 698 59.5544 892.731 537.725
434 0 54.0842 13.2016 714 59.881 892.088 537.647
435 0 56.1294 13.0769 734 59.8011 892.677 537.493
436 0 57.1094 13.0451 745 60.2591 892.694 537.16
437 0 57.1324 13.1974 754 60.6061 892.822 535.471
438 0 59.0311 13.603 803 60.32 892.522 535.809
439 0 63.1527 14.6945 928 58.6336 892.348 533.995
440 0 63.1067 13.8179 872 59.8268 892.972 535.442
441 0 66.0698 13.9852 924 59.6331 892.886 532.858
442 0 68.1064 12.9356 881 61.0602 892.519 532.363
443 0 71.0493 14.2155 1010 59.6218 892.37 530.761
444 0 73.0859 14.093 1030 60.0913 892.532 530.548
445 1 38.054 11.4311 435 63.6483 892.814 546.366
446 0 39.0523 11.5486 451 62.9379 892.499 547.259
447 0 42.1695 12.5921 531 61.5254 892.397 545.516
448 0 41.0414 11.9148 489 63.409 892.605 545.464
449 0 44.1165 12.5577 554 62.6787 892.986 544.505
450 0 43.0611 12.819 552 63.4583 892.953 543.525
451 0 46.1831 13.5981 628 61.9156 892.209 542.846
452 0 46.1846 12.4067 573 64.103 892.513 542.007
453 0 48.0767 13.2289 636 63.011 892.388 543.319
454 0 49.1607 13.0389 641 63.5413 892.011 541.903
455 0 51.2181 12.437 637 64.449 892.083 541.272
456 0 51.1394 13.4143 686 64.1312 892.125 540.742
457 0 52.1603 13.4968 704 63.983 892.17 539.724
458 0 53.1016 13.4271 713 64.9467 892.008 539.105
459 0 55.1673 13.2506 731 64.8495 892.249 540.082
460 0 57.0692 13.983 798 63.6704 892.773 538.684
461 0 59.0449 15.0563 889 62.9393 892.16 537.395
462 0 61.0893 14.2742 872 64.3245 892.122 536.327
463 0 63.0635 14.6519 924 64.1288 892.139 536.63
464 0 65.0547 14.7107 957 64.2738 891.977 534.348
465 0 67.1631 14.1447 950 65.5379 892.427 534.614
466 0 68.2573 14.0351 958 66.5031 892.396 532.157
467 0 71.1694 14.5568 1036 65.5965 892.555 531.593
468 0 75.1106 14.4187 1083 65.9021 892.434 530.784
469 1 40.1122 12.2656 492 68.1687 892.526 547.872
470 0 39.0698 12.772 499 67.6954 892.808 548.186
471 0 41.0664 12.005 493 69.3205 892.742 547.627
472 0 44.1014 13.9225 614 67.1629 892.764 545.945
473 0 45.0616 14.4913 653 66.7458 892.851 543.963
474 0 47.0923 14.2486 671 66.775 893.046 543.876
475 0 47.0744 14.3177 674 67.3591 892.955 544.288
476 0 51.0751 14.3122 731 66.4637 892.714 543.613
477 0 50.0557 13.6847 685 69.0088 892.996 541.644
478 0 53.1198 14.1755 753 67.8871 892.825 541.122
479 0 55.0998 14.5554 802 66.894 893.185 540.915
480 0 56.1609 14.6721 824 67.4284 892.743 538.984
481 0 58.1659 14.7337 857 67.3874 892.848 537.603
482 0 62.1069 15.2962 950 66.3232 892.907 536.936
483 0 62.1785 14.185 882 68.068 892.934 538.107
484 0 65.1623 14.4102 939 67.7497 892.512 536.88
485 0 68.1253 15.3834 1048 66.6097 892.612 534.68
486 0 70.0655 15.1287 1060 67.2358 892.972 532.987
487 0 74.1367 15.35 1138 66.7434 893.273 533.169
488 0 76.1635 15.2698 1163 67.4463 893.273 530.126
489 0 79.1466 15.2249 1205 67.9237 892.91 529.363
490 0 82.0661 15.1585 1244 68.1431 893.26 528.801
491 0 85.1411 14.6228 1245 69.0506 893.38 526.132
492 0 87.039 15.1082 1315 68.5513 893.75 526.351
493 1 42.0208 14.3262 602 70.5914 893.703 548.163
494 0 42.0929 14.4442 608 71.7484 893.673 547.118
495 0 43.1357 14.6514 632 71.8022 894.028 546.125
496 0 45.0477 14.7843 666 71.4189 893.647 544.393
497 0 46.1709 14.5113 670 72.5269 893.627 543.416
498 0 48.062 15.2927 735 70.7701 893.815 544.235
499 0 49.1279 15.2866 751 71.8868 893.798 543.148
500 0 51.0895 15.1499 774 71.4871 893.53 541.592
501 0 53.0162 15.1274 802 71.2868 893.945 540.744
502 0 56.0678 14.1971 796 72.343 893.788 540.534
503 0 57.0764 15.0675 860 72.0023 893.544 538.965
504 0 59.1653 15.2792 904 71.5265 893.267 537.79
505 0 63.1094 15.386 971 70.9681 893.204 537.16
506 0 65.0462 15.635 1017 71.1544 893.115 534.156
507 0 68.1143 15.0482 1025 71.7854 892.757 533.571
508 0 71.0831 15.8688 1128 70.7651 892.944 532.325
509 0 73.0783 14.9702 1094 72.287 892.452 532.05
510 1 37.0238 13.3428 494 73.7166 892.601 549.059
511 0 38.0566 13.9266 530 74.2811 892.832 548.666
512 0 38.0063 14.9712 569 74.1986 892.933 547.654
513 0 39.0251 15.3491 599 73.5109 893.003 547.038
514 0 41.1008 14.501 596 74.849 892.953 546.891
515 0 42.0366 14.2257 598 75.5602 892.977 546.962
516 0 44.0335 15.1248 666 74.6081 892.836 545.117
517 0 45.039 15.3645 692 72.4971 893.621 545.042
518 0 46.0443 15.3765 708 72.9025 893.822 544.84
519 0 51.1068 15.4774 791 70.9027 893.492 543.424
520 0 51.0574 15.7666 805 71.5155 893.37 541.476
521 0 52.0291 15.6066 812 72.3904 893.815 542.143
522 0 55.0404 14.9163 821 73.5457 893.473 540.114
523 0 57.0435 14.971 854 74.0094 894.142 539.779
524 0 59.1128 15.851 937 71.9317 894.407 540.91
525 0 61.1394 15.0476 920 73.4837 893.938 539.397
526 0 63.0504 15.5431 980 73.098 894.342 537.755
527 0 65.2465 15.0353 981 74.8512 894.038 535.758
528 0 69.1044 15.4549 1068 73.7097 893.954 534.359
529 1 33.027 12.7169 420 79.2524 894.495 550.231
530 0 34.1699 14.0182 479 79.1566 893.447 549.545
531 0 35.2068 14.429 508 78.0236 893.606 549.917
532 0 35.0554 14.9192 523 78.3308 893.707 547.891
533 0 37.1843 14.9525 556 77.9622 893.772 546.241
534 0 40.0931 15.5887 625 76.2768 894.653 546.6
535 0 40.0638 14.8763 596 78.0755 893.782 546.435
536 0 43.0408 15.009 646 76.9087 894.811 545.276
537 0 43.0557 14.4232 621 78.6683 894.135 543.781
538 0 44.0755 14.7701 651 78.5591 894.048 544.124
539 0 45.0225 15.7032 707 76.8501 893.7 542.823
540 0 48.1055 15.0295 723 77.0567 893.347 543.407
541 0 50.0876 16.1517 809 75.1867 894.053 540.827
542 0 51.1758 15.945 816 75.7892 893.44 541.093
543 0 54.0563 14.8364 802 77.2531 894.059 539.743
544 0 56.083 15.0848 846 76.6726 892.84 538.662
545 0 59.218 15.5189 919 75.9891 892.955 537.195
546 0 59.0479 14.7507 871 77.93 893.481 536.763
547 0 62.1585 15.2674 949 75.7387 892.994 536.321
548 0 65.0618 15.5391 1011 75.3264 893.304 535.088
549 0 67.2065 15.4003 1035 76.1575 892.986 532.73
550 0 70.0984 15.5353 1089 75.9532 892.914 531.146
551 1 33.0868 14.5375 481 79.1102 893.031 548.892
552 0 33.0283 13.3219 440 81.8045 892.941 548.314
553 0 34.1656 14.1077 482 80.2324 893.237 547.992
554 0 36.0274 14.7665 532 79.3289 893.336 548.165
555 0 37.0462 16.142 598 77.694 893.403 546.627
556 0 37.0555 15.3553 569 80.3533 893.459 546.378
557 0 40.2175 15.7891 635 78.2898 893.509 546.32
558 0 39.0643 15.4105 602 80.8439 893.724 545.472
559 0 42.1219 15.6926 661 79.2042 893.36 545.1
560 0 43.0963 14.8505 640 81.0031 893.178 544.733
561 0 44.1128 16.1631 713 79.6718 893.494 543.4
562 0 46.1377 16.1257 744 78.7594 893.249 542.767
563 0 47.1172 15.8965 749 80.0427 893.585 541.403
564 0 49.1817 16.0019 787 79.7992 892.909 540.67
565 0 52.1893 15.4438 806 80.7816 893.347 540.146
566 0 53.1894 16.0746 855 79.2901 892.896 540.437
567 0 54.1321 15.8501 858 80.6282 892.599 539.149
568 0 56.2124 16.2775 915 79.3202 893.044 537.255
569 0 58.2313 16.4688 959 79.6517 892.83 536.015
570 0 60.1822 16.5663 997 79.668 892.52 536.4
571 0 62.117 15.5352 965 81.7492 892.106 535.579
572 0 63.1505 15.946 1007 81.9255 892.012 534.711
573 1 29.1137 13.0179 379 87.5594 893.182 550.657
574 0 31.1038 14.3391 446 83.8812 892.345 549.648
575 0 31.0629 14.0682 437 85.746 892.362 549.847
576 0 33.2426 14.71 489 84.5072 891.849 548.751
577 0 34.2594 15.0616 516 85.1492 891.835 547.56
578 0 34.16 15.0176 513 86.0994 891.392 547.608
579 0 35.1774 14.6685 516 86.1919 891.227 547.622
580 0 38.2487 15.1639 580 84.3466 891.776 545.79
581 0 40.0962 16.1861 649 81.6872 891.166 545.851
582 0 41.1656 14.6967 605 84.3818 890.863 544.686
583 0 42.2038 15.5199 655 83.2153 890.682 545.183
584 0 43.1132 15.9116 686 81.7828 890.638 544.722
585 0 43.1228 15.1892 655 84.3435 890.647 544.049
586 0 45.1531 15.0156 678 84.4322 891.273 543.614
587 0 48.2156 15.804 762 82.7795 890.491 542.606
588 0 48.0863 16.4704 792 82.8321 890.54 543.639
589 0 50.1509 16.0117 803 83.0012 890.645 543.573
590 0 52.1746 15.9081 830 83.2012 891.076 542.602
591 0 53.2215 16.2153 863 83.6246 890.897 543.095
592 0 53.2248 16.3082 868 84.6544 890.616 541.181
593 0 57.1045 15.9357 910 84.089 890.91 541.145
594 0 59.1385 15.7596 932 85.2457 890.921 540.598
595 0 59.1381 16.6728 986 83.6329 890.369 538.79
596 0 61.3201 16.7156 1025 82.8888 890.105 539.418
597 0 64.2986 17.1855 1105 82.3059 889.911 537.369
598 0 66.3531 16.5328 1097 83.3345 889.995 536.166
599 0 68.2919 17.0738 1166 82.3353 889.855 535.713
600 0 69.1585 16.8743 1167 82.8852 889.515 534.957
601 0 71.1498 16.4723 1172 83.529 890.241 533.47
602 0 73.1752 16.85 1233 82.249 890.062 532.691
603 0 77.2214 16.4721 1272 82.2531 890.04 531.223
604 1 33.0625 14.0643 465 85.0258 890.237 550.378
605 0 35.2795 15.363 542 80.3413 889.766 551.083
606 0 36.0573 14.9762 540 81.5556 890.676 551.47
607 0 36.1077 15.2045 549 81.4699 890.381 551.04
608 0 38.2266 16.2714 622 79.1125 890.424 550.585
609 0 38.1479 15.2826 583 81.0669 890.521 550.407
610 0 40.2494 15.9257 641 80.103 890.214 549.774
611 0 41.4515 15.3191 635 82.1953 890.447 548.318
612 0 42.401 15.5657 660 82.9758 890.202 549.026
613 0 41.3916 15.293 633 84.2796 890.281 547.638
614 0 42.516 15.1707 645 84.5085 890.319 547.885
615 0 43.8087 15.8644 695 83.5971 890.754 546.329
616 0 44.5113 16.2206 722 84.4557 890.234 545.958
617 0 46.4417 15.8694 737 85.3691 890.29 546.535
618 0 48.3116 16.0003 773 86.2639 889.939 544.889
619 0 50.478 15.9475 805 85.113 890.25 544.343
620 0 50.6608 15.89 805 85.4857 889.764 543.143
621 0 55.61 15.7346 875 84.4011 890.571 543.067
622 0 55.806 16.4498 918 83.4717 890.233 542.249
623 0 56.9011 15.9048 905 85.6652 890.543 541.294
624 0 58.7221 15.9735 938 85.306 890.272 540.603
625 0 59.6735 16.2551 970 86.0361 890.426 539.295
626 0 61.5302 15.8296 974 86.8778 890.467 537.119
627 0 61.6259 15.2533 940 88.5745 890.631 537.386
628 0 63.4673 15.7877 1002 87.485 890.329 536.047
629 0 67.556 16.6973 1128 85.4078 890.854 533.142
630 0 69.5333 15.5465 1081 86.7558 890.552 533.908
631 0 73.5994 16.7936 1236 83.0752 890.535 531.061
632 0 76.685 16.7047 1281 83.1194 890.34 527.681
633 0 79.5048 17.3952 1383 80.5698 891.909 526.341
634 0 82.097 16.6754 1369 82.3156 890.835 524.936
635 0 83.7012 16.7501 1402 82.5756 891.643 522.719
636 0 84.7443 16.1663 1370 84.4109 891.393 522.376
637 0 88.9833 16.2727 1448 83.0345 891.247 521.802
638 0 91.7568 15.9443 1463 82.8592 891.606 519.967
639 0 94.8771 15.9153 1510 83.0808 891.568 517.788
640 0 99.0121 16.8464 1668 80.9562 891.417 515.166
641 0 100.82 15.1657 1529 83.9496 892.442 513.157
642 0 105.718 16.0521 1697 82.8338 892.496 510.806
643 1 66.7353 12.587 840 85.994 891.982 528.986
644 0 68.6296 12.6185 866 86.1536 892.222 529.047
645 0 69.685 12.9296 901 86.9245 892.536 527.267
646 0 72.6809 13.7312 998 85.1673 892.14 525.693
647 0 73.8435 13.8672 1024 85.7227 892.076 524.395
648 0 77.8858 14.4185 1123 83.366 892.469 524.658
649 0 81.6771 14.1166 1153 84.0078 892.61 522.437
650 0 82.7108 13.6137 1126 85.4369 892.933 519.675
651 0 84.6711 14.1843 1201 84.1166 892.791 517.661
652 0 86.6762 14.7099 1275 83.4557 892.573 517.174
653 0 90.4956 13.846 1253 84.9625 892.942 515
654 0 94.757 14.6374 1387 81.8745 892.562 513.575
655 1 58.4572 10.0244 586 80.8874 893.225 534.37
656 0 60.3453 10.7382 648 79.7423 892.917 532.369
657 0 64.4957 11.9388 770 77.4545 892.935 529.805
658 0 64.5173 12.2448 790 78.257 893.534 526.789
659 0 67.2626 13.0533 878 76.0148 892.972 525.994
660 0 69.399 12.5074 868 76.5576 893.377 525.054
661 0 72.4337 12.3009 891 76.0135 892.476 526.57
662 0 73.3991 11.8666 871 77.5121 893.082 525.549
663 0 76.2872 12.217 932 76.7854 893.83 523.118
664 0 79.48 11.6256 924 77.7219 893.248 523.655
665 0 81.288 11.9698 973 77.408 893.971 521.762
666 0 83.2332 11.4858 956 77.9697 893.521 522.899
667 0 85.2442 12.1299 1034 77.6857 894.159 520.071
668 0 89.2226 12.4296 1109 77.3399 895.087 517.416
669 0 92.2312 13.2493 1222 75.7455 894.299 517.416
670 0 92.1924 11.3567 1047 79.7412 894.328 516.072
671 0 97.2565 12.5441 1220 76.7934 895.011 515.693
672 0 99.2025 11.4715 1138 79.2996 894.903 512.098
673 0 104.382 13.1345 1371 75.6747 894.826 506.975
674 0 110.446 13.5994 1502 74.6079 895.254 501.774
675 1 57.2502 10.2532 587 79.1193 895.102 530.407
676 0 59.2575 10.6822 633 78.2528 894.545 530.91
677 0 61.3831 10.9313 671 78.7481 895.256 529.899
678 0 62.277 11.3043 704 78.4801 895.081 529.009
679 0 65.2121 12.007 783 77.0026 895.223 527.955
680 0 66.3017 10.8745 721 79.5118 894.791 527.585
681 0 70.2815 12.1084 851 77.1246 894.915 527.629
682 0 71.293 11.4317 815 78.7067 894.706 527.334
683 0 72.1738 11.4584 827 79.8634 895.239 526.63
684 0 73.2697 11.4918 842 80.4905 895.549 525.215
685 0 76.1047 11.5105 876 80.0023 895.279 523.326
686 0 78.1586 11.144 871 81.0023 895.067 523.589
687 0 81.1533 11.8418 961 78.5734 895.889 523.489
688 0 82.1017 10.9498 899 80.1724 895.269 523.753
689 0 84.1985 10.3209 869 81.7595 895.056 522.391
690 1 39.0776 10.6455 416 78.7572 895.111 543.031
691 0 41.0486 10.5728 434 79.1613 896.035 541.832
692 0 40.0787 10.3546 415 79.6795 895.084 542.892
693 0 44.0712 11.1638 492 77.8171 894.756 541.384
694 0 43.0357 11.3394 488 78.4652 894.811 540.477
695 0 46.0144 11.692 538 76.5037 893.942 539.771
696 0 45.0845 10.4027 469 80.3987 893.855 540.207
697 0 47.0486 11.9663 563 77.2682 894.266 539.394
698 0 50.033 12.132 607 76.5157 894.155 537.722
699 0 51.0498 11.7141 598 77.4365 893.736 538.885
700 0 52.0266 12.7435 663 76.1795 894.629 538.284
701 0 53.0232 11.1272 590 80.3271 893.622 539.083
702 0 54.0821 12.1297 656 79.0869 893.099 536.942
703 0 58.0553 13.3494 775 76.2581 893.418 535.716
704 0 60.0346 11.9931 720 79.2 893.05 534.979
705 0 160.375 11.7225 1880 73.8495 893.564 472.153
706 0 169.386 11.8251 2003 73.0764 893.294 455.859
707 0 167.229 12.0434 2014 73.9613 893.22 455.528
708 1 124.167 8.88322 1103 79.9737 892.762 489.313
709 0 122.278 9.74013 1191 80.3904 893.03 485.303
710 1 75.2061 15.278 1149 71.0235 892.751 500.935
711 0 75.0552 15.1622 1138 73.2909 893.033 501.943
712 0 75.1065 15.3382 1152 74.3898 892.979 500.9
713 0 76.2024 14.4484 1101 77.5132 893.387 500.181
714 0 75.0903 13.9565 1048 80.1345 893.179 500.098
715 0 78.0985 13.6238 1064 80.9803 893.428 501.846
716 0 78.0985 13.611 1063 174.128 893.424 501.88
717 0 80.1041 13.9444 1117 81.5685 892.946 498.621
718 0 82.1774 13.6899 1125 81.7582 892.983 499.802
719 0 84.2688 14.1927 1196 80.3344 892.583 499.808
720 0 88.3553 14.3285 1266 79.3112 892.685 496.798
721 0 89.4096 14.7635 1320 79.2318 893.183 496.595
722 0 92.2902 14.2594 1316 80.3951 893.185 496.019
723 0 93.275 13.9051 1297 81.569 892.889 497.958
724 1 49.0916 10.7758 529 85.4953 893.238 521.648
725 0 51.0988 12.74 651 83.1751 892.69 521.244
726 0 53.1066 12.4655 662 82.8973 892.434 522.119
727 0 55.0672 12.4575 686 81.6239 892.52 522.131
728 0 57.1631 13.5227 773 79.6843 892.054 523.684
729 0 57.0794 13.4725 769 79.6203 891.814 524.923
730 0 61.2818 13.2829 814 78.7985 891.45 525.714
731 0 58.1007 12.5644 730 82.3123 891.377 526.427
732 0 62.3059 13.0967 816 79.7022 890.864 527.232
733 0 64.1728 13.6974 879 78.8874 890.907 528.673
734 0 64.1767 13.6966 879 79.917 890.795 529.328
735 0 69.1146 13.6151 941 79.2359 890.751 530.089
736 0 69.1759 13.9355 964 78.4855 891 529.253
737 0 72.3468 13.7809 997 78.8796 891.172 529.83
738 0 73.2381 13.8726 1016 78.6791 891.175 529.06
739 0 76.2795 14.3813 1097 77.2425 891.083 528.276
740 0 79.2448 14.0072 1110 77.6261 890.8 527.558
741 0 82.2588 13.9316 1146 77.3831 891.345 525.221
742 0 86.3164 14.7017 1269 74.8542 891.353 523.611
743 1 44.1766 11.3409 501 77.9022 890.838 545.323
744 0 45.21 12.0327 544 77.0165 890.7 543.873
745 0 46.1404 11.9418 551 77.4719 890.71 543.352
746 0 50.1643 12.4591 625 75.4016 890.79 542.97
747 0 51.081 13.273 678 74.0693 890.4 541.416
748 0 52.1209 13.1809 687 73.7613 890.703 540.869
749 0 53.2544 12.6562 674 74.5608 890.513 540.614
750 0 56.151 12.7513 716 73.8003 890.712 539.228
751 0 58.1451 13.3631 777 71.8366 890.737 538.322
752 0 60.1581 13.5144 813 71.3186 890.021 536.807
753 0 60.1051 12.8442 772 73.5816 890.211 536.644
754 0 63.1813 13.3584 844 72.2725 890.19 535.059
755 0 65.1476 13.5845 885 71.6486 890.316 535
756 0 66.3845 13 863 72.6315 889.903 533.008
757 0 69.1785 13.2411 916 72.333 890.17 532.857
758 0 71.5676 13.0227 932 72.4109 890.134 531.869
759 0 73.189 12.9664 949 72.2181 889.557 532.781
760 0 76.204 13.3851 1020 71.3147 889.461 529.074
761 1 37.1086 10.0246 372 74.4086 890.142 548.691
762 0 42.1953 11.5179 486 70.7202 889.889 548.233
763 0 44.0495 11.6233 512 70.5293 889.232 546.836
764 0 43.0455 11.8247 509 70.9411 889.128 545.845
765 0 45.1042 12.3048 555 69.8378 889.324 544.897
766 0 45.1717 12.22 552 70.779 889.909 543.897
767 0 47.0904 12.3167 580 69.8448 890.138 543.319
768 0 48.13 12.7571 614 68.9039 889.889 544.085
769 0 51.1232 11.2669 576 69.7969 889.997 542.493
770 0 52.2811 11.8398 619 68.9192 890.313 541.848
771 0 53.2853 12.0483 642 68.1838 890.079 541.931
772 0 53.1329 11.9512 635 68.737 890.535 540.005
773 0 57.3991 12.4741 716 67.2291 890.756 539.302
774 0 58.301 12.3325 719 67.5438 890.567 538.597
775 0 60.2178 11.7739 709 67.9901 890.588 539.223
776 0 62.2614 11.9336 743 67.5559 891.306 539.197
777 0 63.3059 12.2579 776 67.8299 890.901 536.747
778 0 68.1505 12.223 833 66.7791 891.03 535.345
779 0 69.2131 12.5988 872 66.8005 891.144 534.166
780 0 70.1616 12.0151 843 67.688 891.047 534.083
781 0 73.2211 13.3022 974 66.3131 891.293 531.53
782 0 77.1891 12.6572 977 67.1412 891.23 530.437
783 0 78.2413 12.8193 1003 67.6401 891.474 528.357
784 0 79.2221 12.3955 982 69.4369 891.815 527.884
785 0 84.2277 12.7868 1077 68.403 891.556 525.47
786 0 84.2626 13.007 1096 69.292 892.082 524.239
787 0 88.2147 12.5263 1105 70.1593 891.826 522.828
788 1 53.1023 10.7905 573 70.4363 892.454 540.948
789 0 54.1039 11.7921 638 69.2618 892.292 539.951
790 0 53.054 11.6485 618 70.3803 892.625 538.443
791 0 56.1198 12.8297 720 68.9042 893.014 538.474
792 0 58.1717 12.996 756 68.7341 891.742 538.591
793 0 57.1074 12.3627 706 71.3286 892.425 537.71
794 0 61.2131 12.1216 742 70.7992 893.018 536.895
795 0 63.0842 12.0315 759 70.7141 892.941 535.632
796 0 66.2098 12.1281 803 70.5019 893.078 533.978
797 0 69.1722 12.5918 871 69.3766 893.249 533.281
798 0 71.1159 12.4867 888 70.2083 893.009 530.047
799 0 75.1812 12.9421 973 68.8931 892.851 528.939
800 0 76.2282 12.8824 982 69.169 893.228 527.125
801 0 80.2554 12.9088 1036 69.1757 893.465 524.945
802 0 83.3564 12.5965 1050 69.1381 893.601 524.919
803 0 87.297 13.1391 1147 68.4969 893.779 522.908
804 0 89.2016 12.9034 1151 68.4709 893.758 522.271
805 0 91.2096 12.5316 1143 69.4016 893.849 520.43
806 1 48.0807 10.1704 489 70.182 894.047 541.822
807 0 50.0565 10.4282 522 69.6245 894.161 541.282
808 0 54.0574 11.9503 646 67.2709 894.759 539.262
809 0 55.1121 12.4655 687 67.3406 894.56 538.23
810 0 56.0229 11.8166 662 68.1511 894.494 538.172
811 0 57.1085 11.6795 667 68.6867 893.97 537.171
812 0 60.0928 13.4625 809 66.0853 894.467 535.03
813 0 61.1277 11.0752 677 69.6115 894.727 536.058
814 0 63.0892 12.2208 771 67.93 894.029 533.792
815 0 64.0767 11.6267 745 68.5087 894.804 534.954
816 0 67.0598 12.7498 855 66.9181 894.602 532.372
817 0 68.1172 11.7445 800 68.0875 894.916 531.211
818 0 71.1098 11.8127 840 68.45 894.505 529.298
819 0 72.1493 12.7929 923 66.9686 894.554 528.36
820 0 73.1385 11.4851 840 69.3381 894.695 527.579
821 0 76.0746 12.5403 954 67.7966 895.389 525.112
822 0 79.1513 12.1034 958 68.2568 894.53 525.862
823 1 39.0136 10.4323 407 67.8894 893.737 545.371
824 0 43.0248 9.90126 426 68.4836 893.134 543.822
825 0 42.094 10.7141 451 68.1197 893.909 543.202
826 0 45.0492 10.2111 460 68.5065 893.796 543.428
827 0 45.0193 10.3956 468 68.8825 893.944 542.957
828 0 44.0354 11.2864 497 68.9899 893.92 541.779
829 0 46.1041 11.0185 508 69.5906 893.703 540.984
830 0 48.1137 11.2234 540 68.3759 894.619 540.474
831 0 48.1572 11.6701 562 68.6601 894.119 540.217
832 0 49.1259 11.6639 573 69.6283 894.627 540.305
833 0 53.0703 12.6813 673 67.2452 894.642 538.938
834 0 53.1845 12.1088 644 68.722 894.286 537.758
835 0 54.167 12.5168 678 68.733 894.178 536.456
836 0 58.0416 12.0776 701 68.2511 893.792 536.599
837 0 58.1643 12.1036 704 68.3991 893.913 536.301
838 0 60.0761 12.118 728 68.4354 894.093 536.257
839 0 61.0419 11.8116 721 69.3911 893.183 533.467
840 0 65.1039 12.7796 832 67.119 893.274 533.859
841 0 64.0665 11.8159 757 68.7715 893.151 533.661
842 0 67.0854 12.2232 820 68.0744 892.734 532.067
843 0 68.0831 11.8532 807 69.3098 893.203 531.025
844 0 71.0891 12.843 913 67.1216 893.391 528.61
845 0 74.065 12.3945 918 67.5261 892.498 527.651
846 0 76.088 12.3147 937 67.6606 892.245 527.177
847 1 41.0935 10.5613 434 68.4585 892.097 544.463
848 0 41.108 10.5332 433 67.5289 891.677 545.259
849 0 43.0733 10.4937 452 66.6881 891.754 544.518
850 0 44.0967 10.9759 484 67.1715 892.238 543.386
851 0 46.0794 11.1764 515 65.9029 893.041 542.276
852 0 48.1884 11.7041 564 63.9344 892.628 541.415
853 0 49.1725 12.2833 604 63.3344 892.409 540.767
854 0 50.1808 11.4187 573 64.5375 892.586 539.014
855 0 52.2234 11.7189 612 63.5229 892.484 540.315
856 0 54.1029 11.2933 611 64.5417 892.426 538.087
857 0 56.1203 11.8139 663 63.3243 892.279 538
858 0 58.1231 12.3875 720 62.8208 892.431 537.433
859 0 58.0739 12.1053 703 63.3115 892.283 535.903
860 0 60.0965 11.5814 696 64.181 891.909 535.374
861 0 62.0984 11.3852 707 64.1924 891.949 534.905
862 0 62.1169 12.3799 769 63.1586 892.099 533.023
863 0 65.1814 12.5803 820 62.9902 891.784 530.827
864 0 68.2066 12.5354 855 62.931 891.545 530.616
865 0 70.1505 11.9172 836 63.7213 891.421 530.196
866 0 72.1508 13.056 942 62.2452 891.039 529.724
867 0 75.1568 12.6802 953 62.8573 891.199 526.512
868 0 79.1704 12.8836 1020 61.6088 890.851 527.98
869 0 79.1596 12.5569 994 63.9688 890.791 525.673
870 1 42.0464 10.1554 427 64.6862 889.775 546.141
871 0 42.1089 10.3541 436 64.8968 889.557 544.956
872 0 44.0569 11.2582 496 64.4617 890.085 544.28
873 0 45.0194 11.6616 525 64.1143 889.59 542.95
874 0 48.216 11.5314 556 64.3489 891.228 541.948
875 0 49.2257 11.4777 565 64.4478 890.271 542.678
876 0 49.2042 11.9502 588 64.801 890.366 541.459
877 0 51.2355 12.3742 634 64.2208 890.216 539.632
878 0 55.2655 12.9014 713 62.5554 890.658 539.975
879 0 55.1668 12.3806 683 64.2079 890.638 540.012
880 0 58.084 12.7746 742 63.4299 890.073 538.667
881 0 60.1751 12.4138 747 63.8112 890.075 538.842
882 0 61.2919 12.3997 760 64.6526 890.324 537.891
883 0 61.084 12.7202 777 64.7889 890.583 537.559
884 0 62.2545 12.1758 758 66.0923 890.596 535.975
885 0 66.1591 12.4548 824 65.1566 890.381 534.913
886 0 66.1346 12.777 845 65.5491 890 533.047
887 0 70.2195 12.7315 894 65.377 890.317 532.057
888 0 74.3364 12.7528 948 64.5211 890.339 531.883
889 0 73.0973 11.8746 868 67.5518 890.319 531.363
890 1 39.0548 10.3445 404 66.9233 889.995 547.386
891 0 39.108 10.4582 409 66.9829 890.262 547.044
892 0 41.0679 10.4218 428 67.6192 890.117 545.701
893 0 43.0658 11.5869 499 66.5411 890.445 543.707
894 0 46.1622 11.3946 526 97.0437 890.61 542.89
895 0 46.1622 11.4379 528 146.299 890.631 542.731
896 0 48.1223 12.676 610 65.5787 892.177 541.779
897 0 48.3473 12.1 585 67.306 892.156 540.805
898 0 49.242 11.9004 586 67.459 891.828 540.72
899 0 52.1268 13.4672 702 65.2721 892.548 539.311
900 0 51.1526 12.0033 614 68.8893 892.529 539.516
901 0 53.167 13.4294 714 66.3978 892.717 538.444
902 0 56.1329 12.6664 711 67.8059 893.1 537.238
903 0 58.2601 13.7487 801 65.4794 893.086 536.22
904 0 58.233 13.1712 767 67.6089 893.199 536.428
905 0 59.2116 12.7171 753 68.907 893.349 534.625
906 0 61.1634 12.5402 767 69.3116 893.724 533.322
907 0 64.1838 12.5577 806 69.0806 894.089 532.46
908 0 66.1155 13.3857 885 68.1028 894.27 530.541
909 0 67.1292 12.7068 853 69.5698 893.988 530.005
910 0 70.0966 13.2246 927 68.1629 894.268 528.19
911 0 72.1023 12.9399 933 69.284 894.177 527.725
912 0 74.1057 13.0085 964 69.5643 893.904 526.318
913 0 78.1259 13.5806 1061 67.8549 894.258 525.86
914 1 39.1454 9.78403 383 72.3629 893.266 542.292
915 0 42.0768 10.5521 444 69.3041 893.745 543.757
916 0 44.0407 11.0352 486 70.2613 893.535 542.202
917 0 45.021 11.0393 497 70.8672 894.042 541.362
918 0 44.104 11.5862 511 70.7554 894.114 539.607
919 0 46.1173 11.6659 538 70.1338 894.688 540.048
920 0 48.187 11.7667 567 69.8166 894.802 538.755
921 0 50.2314 12.5021 628 67.9968 895.387 539.215
922 0 50.0553 12.0067 601 68.9384 895.451 536.977
923 0 51.1861 11.7219 600 69.92 895.285 535.86
924 0 53.1071 12.3147 654 69.2003 895.827 536.489
925 0 54.2065 11.4931 623 70.2151 895.628 534.1
926 0 57.0707 12.3356 704 68.1435 895.663 533.616
927 0 59.1514 11.8171 699 69.0944 895.597 534.162
928 0 60.1209 12.242 736 68.7649 895.814 533.029
929 0 61.0558 11.4322 698 70.0344 895.864 532.792
930 0 63.1326 12.6559 799 68.0263 896.22 531.782
931 0 66.1735 12.8299 849 67.8716 896.037 529.31
932 0 65.1188 12.6538 824 68.7755 895.783 528.964
933 0 67.0956 12.9219 867 68.2584 895.949 527.526
934 0 71.1263 12.4426 885 68.2136 895.436 527.383
935 0 73.1153 12.8154 937 67.5966 895.656 527.099
936 0 75.1315 13.3766 1005 66.7711 895.442 526.286
937 0 75.1665 12.3592 929 69.1442 895.27 523.686
938 0 80.1398 12.9274 1036 67.2847 895.636 524.94
939 0 81.1092 12.5263 1016 68.6654 895.834 521.165
940 1 42.0357 8.94478 376 69.4441 894.957 543.205
941 0 43.0307 10.2253 440 69.2227 894.98 541.055
942 0 45.103 10.4428 471 69.4926 894.157 541.412
943 0 47.0899 11.8497 558 67.3889 894.127 540.473
944 0 49.0441 11.3163 555 68.355 894.205 538.825
945 0 51.1109 12.4435 636 67.2123 894.544 539.132
946 0 52.0694 12.5025 651 67.384 894.376 537.753
947 0 53.1114 12.5397 666 67.7477 894.167 538.59
948 0 54.0875 12.3504 668 67.6272 894.07 537.111
949 0 57.1572 12.6143 721 66.6311 893.942 535.843
950 0 56.0937 12.5148 702 67.3917 893.43 536.229
951 0 59.1496 12.088 715 67.4573 893.566 534.894
952 0 60.1259 12.5071 752 67.3989 893.386 533.338
953 0 63.0539 12.1166 764 67.3979 893.467 534.022
954 0 65.0786 12.9075 840 66.3929 893.348 531.351
955 0 68.0625 13.8843 945 64.6762 893.169 531.78
956 0 69.0709 12.7116 878 66.8645 893.624 531.054
957 0 71.0734 12.8318 912 67.193 893.666 529.789
958 0 73.0718 13.6031 994 66.004 893.376 528.822
959 0 75.0821 13.1856 990 66.9051 893.791 527.564
960 0 75.0582 13.0166 977 68.3675 893.372 526.552
961 0 78.1171 12.8269 1002 68.3852 892.896 526.276
962 0 83.1144 12.6212 1049 68.184 892.778 524.864
963 0 85.1056 13.7241 1168 66.7012 892.962 523.411
964 0 87.1975 13.2229 1153 67.2498 892.775 522.16
965 1 46.0595 11.5503 532 67.7406 892.56 543.124
966 0 47.0543 11.3273 533 69.0882 892.792 542.122
967 0 49.0523 11.8853 583 68.1767 893.019 542.108
968 0 50.1034 11.8954 596 68.052 892.847 543.351
969 0 52.1387 12.1215 632 68.4604 892.622 541.046
970 0 52.0967 12.7647 665 68.4346 892.944 540.198
971 0 56.0513 13.4876 756 66.8294 892.515 539.198
972 0 57.0527 13.2509 756 66.8942 893.075 538.017
973 0 59.1249 12.1438 718 68.2967 892.713 538.4
974 0 61.19 13.4826 825 66.6352 892.766 535.253
975 0 62.2512 12.6102 785 67.786 892.236 536.446
976 0 64.1661 14.0105 899 66.2169 892.363 534.151
977 0 66.1585 13.4677 891 66.4074 891.973 534.599
978 0 66.0456 12.8093 846 68.1489 891.87 533.501
979 0 70.0471 13.3624 936 67.1699 891.348 531.861
980 0 74.0706 13.6491 1011 66.0593 891.6 532.188
981 0 76.1011 13.7186 1044 66.4128 891.53 529.706
982 0 79.0809 13.3913 1059 66.5222 891.401 529.029
983 0 80.0654 13.489 1080 66.9593 891.131 527.18
984 0 84.0606 13.2404 1113 67.4798 890.986 526.499
985 1 42.0317 9.49284 399 68.2632 890.634 548.248
986 0 44.0846 10.9562 483 68.1884 890.681 546.518
987 0 46.0821 11.154 514 67.965 890.749 546.294
988 0 47.0908 11.085 522 68.5 890.791 545.126
989 0 46.0518 11.1831 515 69.3165 890.994 544.625
990 0 48.0316 11.888 571 68.7233 891.387 543.688
991 0 51.0868 12.7822 653 67.5345 891.023 541.923
992 0 52.0333 12.5497 653 68.608 890.521 541.689
993 0 53.0457 13.1396 697 67.8393 890.677 541.902
994 0 54.1009 12.5321 678 69.2448 890.966 539.938
995 0 56.0355 12.6884 711 68.5752 890.561 540.398
996 0 57.0223 12.6091 719 68.733 890.814 540.761
997 0 60.085 13.664 821 66.7284 891.123 539.269
998 0 61.1179 12.6313 772 68.7034 890.44 536.549
999 0 63.1131 12.7232 803 67.9838 890.863 535.928
1000 0 65.2455 12.4453 812 69.4975 891.417 536.371
1001 0 67.0551 12.6463 848 68.0696 891.473 536.081
1002 0 70.2296 13.285 933 66.9753 891.224 532.249
1003 0 72.0542 13.3927 965 65.9824 891.392 531.736
1004 0 75.1972 13.7372 1033 65.2023 891.502 530.312
1005 0 76.1126 13.2435 1008 65.9901 891.127 530.952
1006 0 78.2543 12.9322 1012 66.5504 891.435 529.01
1007 0 78.2543 12.9322 1012 163.513 892.445 529.159
1008 0 84.2264 12.9176 1088 65.9559 891.551 528.343
1009 0 86.144 13.3497 1150 65.4843 891.437 525.691
1010 0 91.0973 13.4142 1222 65.1064 891.208 524.626
1011 0 93.1736 13.2763 1237 65.5756 891.213 523.634
1012 0 96.0804 13.5824 1305 66.2858 891.382 519.349
1013 0 101.112 13.1241 1327 66.3353 891.512 519.213
1014 0 102.119 13.3863 1367 66.4755 891.189 516.822
1015 0 106.086 13.4042 1422 65.5612 891.134 514.996
1016 1 53.0377 11.1996 594 66.0303 891.458 543.2
1017 0 56.0247 12.6373 708 64.387 891.856 541.432
1018 0 57.0638 11.4959 656 66.1936 891.919 539.593
1019 0 60.0246 12.1117 727 64.74 892.125 537.574
1020 0 61.1071 12.5845 769 64.502 891.303 537.419
1021 0 64.1118 12.3222 790 64.5101 891.273 535.873
1022 0 67.0972 12.2658 823 63.9283 891.187 534.842
1023 0 69.0463 12.4699 861 63.8444 891.631 533.813
1024 0 71.1322 12.4697 887 64.1838 891.599 530.791
1025 0 73.1 12.3119 900 64.5233 892.251 530.284
1026 0 75.1152 11.8085 887 65.0237 892.227 529.908
1027 0 78.0978 12.3691 966 63.8872 892.038 529.571
1028 0 81.0501 12.1036 981 64.3578 892.641 527.692
1029 0 85.2865 13.355 1139 62.6558 892.445 524.28
1030 0 85.1984 11.9838 1021 65.6523 892.582 521.802
1031 1 47.0368 10.3748 488 64.9467 892.613 542.717
1032 0 51.0749 11.0034 562 64.4235 892.457 541.692
1033 0 52.0704 11.6381 606 63.2756 892.88 541.35
1034 0 52.0529 11.9494 622 63.4003 894.079 541.46
1035 0 54.1334 11.9889 649 63.5285 893.273 538.854
1036 0 55.0693 11.7488 647 63.8748 893.878 538.453
1037 0 57.0806 11.948 682 63.9751 894.18 537.827
1038 0 61.0871 13.7672 841 60.6052 894.822 535.702
1039 0 61.0912 12.8005 782 62.4015 894.687 535.629
1040 0 63.0688 13.0492 823 61.6719 895.087 534.792
1041 0 65.0493 12.7134 827 63.1524 895.586 533.236
1042 0 66.0249 12.5862 831 63.6606 895.507 532.432
1043 0 70.0771 12.9714 909 62.6799 895.551 530.221
1044 0 73.0625 12.8931 942 62.9597 895.699 530.361
1045 0 74.1047 13.5349 1003 62.5743 895.961 528.329
1046 0 76.2199 12.8444 979 63.9816 896.075 527.368
1047 0 79.166 12.8464 1017 63.1878 896.098 525.662
1048 1 41.0212 9.3854 385 65.9299 896.442 545.519
1049 0 45.0329 10.6811 481 63.447 896.443 544.805
1050 0 45.0283 10.3046 464 64.6487 897.084 545.192
1051 0 46.0404 11.7505 541 63.5952 897.292 542.301
1052 0 47.0213 12.2285 575 64.32 897.525 540.273
1053 0 48.0545 12.028 578 64.9844 896.479 539.682
1054 0 51.0179 12.4858 637 63.3375 896.885 541.002
1055 0 50.0388 12.0107 601 65.8502 897.862 539.988
1056 0 53.1649 12.6211 671 64.8897 897.615 537.311
1057 0 53.026 12.9936 689 65.2279 897.479 538.21
1058 0 56.1032 12.6731 711 65.7511 897.181 537.105
1059 0 56.1032 12.6909 712 166.264 897.171 537.117
1060 0 60.0861 12.1992 733 66.4802 896.243 536.465
1061 0 63.0628 13.2883 838 64.2506 896.74 534.498
1062 0 64.0525 12.2244 783 66.3142 896.498 534.497
1063 0 67.0746 13.3284 894 65.0761 896.144 533.161
1064 0 68.0707 12.8837 877 66.4618 896.569 531.552
1065 0 70.0653 14.1011 988 65.0405 896.141 530.25
1066 0 71.0999 12.5879 895 67.7117 896.333 530.173
1067 0 75.1197 13.4585 1011 65.6795 896.246 529.563
1068 0 76.1718 12.3274 939 68.4973 895.994 527.388
1069 1 40.0621 10.4338 418 69.3373 895.739 545.818
1070 0 41.0449 9.74542 400 70.8275 895.442 546.198
1071 0 42.0698 10.8154 455 70.411 895.967 544.492
1072 0 44.1052 10.9511 483 70.1553 896.296 544.273
1073 0 45.1088 11.4168 515 70.6485 895.907 543.21
1074 0 50.0303 12.8522 643 67.4899 895.272 542.036
1075 0 50.0443 12.3491 618 69.8851 895.403 541.879
1076 0 50.1236 12.9679 650 69.5492 895.332 541.191
1077 0 54.0509 12.7472 689 69.2903 895.222 540.213
1078 0 54.0596 12.4677 674 70.2537 894.832 538.709
1079 0 57.0571 12.689 724 69.0166 894.552 538.968
1080 0 59.0436 12.6517 747 69.3373 894.782 538.817
1081 0 59.1139 13.1949 780 69.4833 894.717 536.136
1082 0 61.1487 12.6904 776 70.0142 894.477 537.013
1083 0 62.0983 13.1566 817 70.1102 894.503 534.306
1084 0 65.1963 12.9915 847 69.7957 893.953 533.641
1085 0 66.117 13.9298 921 69.3768 894.129 533.352
1086 0 68.1015 13.3624 910 69.3495 894.335 533.151
1087 0 70.1086 13.0512 915 70.3093 894.41 533.192
1088 0 72.2033 12.9634 936 70.2692 894.002 533.592
1089 0 76.2279 13.2104 1007 68.7001 893.752 531.192
1090 0 77.2569 12.3614 955 70.8115 893.862 528.987
1091 1 40.0391 11.0892 444 70.982 893.595 546.66
1092 0 43.0807 11.4901 495 70.9576 894.174 545.257
1093 0 45.1145 11.8144 533 69.8612 894.287 546.4
1094 0 46.0398 12.272 565 69.7345 894.492 544.68
1095 0 47.03 13.2256 622 68.709 894.376 542.415
1096 0 49.0294 13.4409 659 68 894.545 542.118
1097 0 49.0181 12.526 614 70.4186 893.705 541.111
1098 0 51.0867 13.526 691 68.9378 894.11 540.715
1099 0 51.0587 13.083 668 70.235 894.332 540.472
1100 0 54.0491 12.8402 694 70.2651 893.935 539.134
1101 0 55.0529 12.4971 688 72.0203 893.885 538.756
1102 0 57.0436 13.0251 743 70.9125 893.61 536.864
1103 0 57.0826 13.1213 749 71.3965 893.322 538.12
1104 0 59.0512 13.429 793 70.7163 893.494 536.69
1105 0 61.0245 12.7326 777 71.852 893.031 535.916
1106 0 63.019 13.25 835 71.3066 893.132 534.811
1107 0 67.0726 12.6579 849 71.0789 893.352 533.832
1108 0 67.0346 13.3215 893 70.8455 893.203 531.863
1109 0 71.1612 12.9143 919 71.2155 893.162 530.619
1110 0 73.1465 13.3431 976 70.7725 893.5 529.266
1111 0 75.2672 13.4986 1016 70.3465 892.632 527.318
1112 1 40.0732 11.1047 445 71.6899 892.91 545.461
1113 0 41.1925 11.2399 463 71.6177 893.309 546.218
1114 0 41.1658 11.2229 462 72.5368 893.091 545.463
1115 0 42.2602 11.9734 506 71.3834 892.931 545.043
1116 0 44.047 12.8953 568 70.5458 893.095 545.842
1117 0 46.0589 12.5926 580 71.5052 892.934 544.578
1118 0 46.043 13.0965 603 71.5058 892.954 544.939
1119 0 50.1426 13.6211 683 69.0278 893.29 544.198
1120 0 51.0405 13.1464 671 70.5127 892.949 543.618
1121 0 52.07 13.1746 686 71.0029 893.364 541.596
1122 0 54.0412 12.9716 701 70.8616 892.986 541.715
1123 0 55.1482 12.7112 701 71.8417 892.618 539.787
1124 0 56.1521 13.0004 730 70.9918 892.623 541.658
1125 0 58.1739 13.2534 771 69.7173 892.601 541.326
1126 0 59.2819 12.8538 762 70.895 892.961 540.478
1127 0 59.2647 12.267 727 72.9959 892.64 539.512
1128 0 63.1991 13.4496 850 70.5941 892.661 537.701
1129 0 65.2391 13.8107 901 70.4784 892.463 536.619
1130 0 64.238 13.9326 895 71.3754 892.873 537.827
1131 0 67.2418 13.2061 888 71.9414 892.634 535.557
1132 0 71.343 13.9327 994 70.5835 892.665 533.164
1133 0 71.1606 13.9263 991 71.886 892.576 531.671
1134 0 74.296 13.0155 967 72.818 892.402 533.15
1135 0 77.255 13.8114 1067 71.5736 892.81 530.803
1136 0 78.2618 13.2248 1035 72.7749 892.513 529.813
1137 0 80.1964 13.654 1095 72.7507 892.479 528.057
1138 0 84.2985 14.0928 1188 71.5438 892.601 526.896
1139 0 86.2115 13.7105 1182 72.2132 892.866 526.569
1140 0 88.1964 13.7647 1214 72.0008 892.716 525.381
1141 0 92.2863 13.3823 1235 71.3709 892.964 525.449
1142 1 50.1628 11.662 585 76.0496 893.166 542.607
1143 0 50.0637 11.2656 564 76.7943 893.293 542.702
1144 0 54.057 12.2463 662 74.7326 893.577 540.622
1145 0 57.0822 12.8762 735 72.0966 893.346 539.007
1146 0 57.1538 12.8425 734 73.4837 893.46 536.984
1147 0 60.0854 13.4475 808 72.7166 893.978 537.323
1148 0 62.1674 12.402 771 73.9728 894.307 537.047
1149 0 64.1223 13.3183 854 72.8056 894.08 534.584
1150 0 66.1927 13.4003 887 71.9098 894.125 533.26
1151 0 70.1504 13.7989 968 70.561 894.465 531.373
1152 0 71.1551 13.7165 976 71.0635 894.545 530.701
1153 0 74.0862 13.2818 984 70.8638 895.165 529.539
1154 0 76.091 13.6284 1037 69.9084 895.22 528.738
1155 0 78.1797 14.1213 1104 69.3442 894.974 527.562
1156 0 80.2287 13.3618 1072 70.6063 894.994 525.232
1157 0 84.0712 14.6661 1233 67.6626 895.328 523.598
1158 0 85.1456 13.3653 1138 69.3445 895.814 523.362
1159 0 88.0813 13.9871 1232 68.8839 896.145 520.773
1160 0 93.0932 15.1031 1406 66.5292 896.793 519.232
1161 0 95.0675 14.1689 1347 68.337 896.65 516.845
1162 0 99.0775 14.312 1418 67.7447 897.244 516.058
1163 0 102.063 14.3441 1464 67.7643 896.884 514.697
1164 1 53.0565 10.7244 569 70.6221 897.431 539.708
1165 0 54.0374 11.6401 629 69.4197 897.351 539.041
1166 0 56.0653 11.4153 640 69.5844 897.131 537.967
1167 0 58.0424 13.2145 767 66.7001 897.477 538.514
1168 0 59.0456 12.9222 763 68.0013 898.09 537.109
1169 0 62.1375 12.1183 753 68.7158 898.155 536.223
1170 0 64.1322 12.8641 825 67.5915 898.013 534.526
1171 0 66.1009 13.2525 876 67.6473 898.281 532.652
1172 0 66.1169 13.3098 880 67.4443 898.39 532.611
1173 0 70.0737 13.2432 928 67.4235 898.49 529.696
1174 0 71.0833 14.1946 1009 66.1675 898.393 527.382
1175 0 74.0613 13.1648 975 67.5528 898.373 528.903
1176 0 76.1176 13.2821 1011 67.4144 898.745 527.522
1177 0 80.1092 13.8311 1108 66.3448 898.631 525.599
1178 0 82.1115 14.4925 1190 65.6361 898.729 524.851
1179 0 85.1923 14.0858 1200 66.2058 898.832 523.477
1180 0 87.1308 13.5084 1177 67.6058 898.698 521.432
1181 0 89.1046 13.5683 1209 67.5087 898.968 520.619
1182 0 95.132 14.5692 1386 65.4026 898.363 518.482
1183 1 47.1869 11.6982 552 69.2409 897.909 540.004
1184 0 49.1218 10.9117 536 70.5765 898.565 540.377
1185 0 49.1276 12.2945 604 68.9454 898.111 539.114
1186 0 51.2966 12.1061 621 68.7601 897.631 538.246
1187 0 54.2525 12.4787 677 68.4077 897.408 538.826
1188 0 56.0879 12.6944 712 68.3848 897.754 536.336
1189 0 58.0507 13.5054 784 66.6901 897.974 535.651
1190 0 60.1121 12.2771 738 68.3415 896.588 534.595
1191 0 61.3086 12.3963 760 68.1566 897.192 534.254
1192 0 63.1676 12.0948 764 68.9424 897.022 534.147
1193 0 65.1068 13.547 882 66.3186 897.257 533.363
1194 0 67.2106 12.9444 870 67.5483 897.237 531.957
1195 0 71.2739 13.0903 933 66.865 897.163 528.932
1196 0 72.3118 12.4461 900 68.0556 896.744 528.582
1197 0 76.225 13.6701 1042 65.8455 896.614 526.058
1198 0 78.1988 13.2611 1037 66.4484 896.63 526.764
1199 0 80.2633 12.6957 1019 67.5417 896.697 525.52
1200 1 38.1151 10.7306 409 69.9707 896.506 543.88
1201 0 40.1423 11.1354 447 69.4228 896.398 543.481
1202 0 42.0618 12.553 528 67.928 896.17 542.483
1203 0 44.0747 12.5696 554 67.0271 896.724 541.574
1204 0 47.1064 12.3975 584 66.7654 896.322 542.476
1205 0 47.1115 13.0541 615 67.2618 895.849 541.818
1206 0 49.1419 13.4305 660 66.5273 895.836 539.815
1207 0 51.1766 13.3069 681 66.7122 895.535 538.626
1208 0 52.1235 13.8325 721 66.3606 895.545 539.158
1209 0 53.1633 12.2829 653 68.1424 895.715 539.691
1210 0 55.215 13.5652 749 65.9306 895.077 537.367
1211 0 56.2397 13.4958 759 66.0119 895.736 538.914
1212 0 58.2937 13.9295 812 65.5702 895.579 536.447
1213 0 60.1177 13.5401 814 66.0713 895.318 534.491
1214 0 62.1437 13.7423 854 65.5597 894.951 535.088
1215 0 64.3903 13.6822 881 66.0193 894.865 534.362
1216 0 67.1986 14.0777 946 65.703 894.416 530.784
1217 0 67.1986 14.0479 944 151.727 893.433 530.726
1218 0 71.3278 13.8375 987 66.3384 894.498 530.937
1219 0 73.2802 13.9738 1024 66.3311 894.247 527.52
1220 0 77.4068 14.159 1096 65.7892 894.244 526.948
1221 0 81.4308 14.4663 1178 64.6817 894.9 527.134
1222 0 82.2413 14.0562 1156 66.1228 894.278 525.298
1223 0 84.4494 13.7005 1157 66.1582 894.006 524.801
1224 1 42.1614 11.1239 469 69.177 893.45 546.036
1225 0 42.3954 10.3313 438 69.71 893.107 545.813
1226 0 45.43 12.7449 579 68.7306 892.974 542.05
1227 0 46.4365 12.7486 592 68.5709 892.662 542.169
1228 0 49.4774 13.2586 656 66.7576 892.454 543.692
1229 0 50.5418 13.8895 702 66.802 892.655 540.859
1230 0 52.6613 13.9761 736 66.6549 892.609 540.682
1231 0 51.3087 13.6819 702 68.6638 892.585 539.214
1232 0 55.4172 14.3818 797 66.2735 892.129 537.851
1233 0 57.3941 15.2455 875 64.8571 891.982 537.998
1234 0 61.3813 15.1512 930 63.9559 892.175 537.672
1235 0 62.4516 15.0357 939 64.6581 891.521 535.591
1236 0 62.2495 14.3455 893 67.0067 891.975 535.414
1237 0 66.5369 14.1125 939 66.1693 891.873 535.312
1238 0 67.5531 14.2702 964 66.2604 892.036 532.971
1239 0 69.202 13.8146 956 67.8651 892.068 532.189
1240 0 73.375 14.5963 1071 66.0392 891.573 531.58
1241 1 37.2622 11.8887 443 69.9255 892.099 548.122
1242 0 36.3408 11.172 406 70.9803 891.823 546.963
1243 0 40.1381 12.8556 516 67.4864 891.576 545.913
1244 0 41.1923 12.0896 498 69.3133 891.693 543.878
1245 0 43.4089 13.3383 579 67.924 891.58 543.775
1246 0 44.2828 13.6396 604 67.9205 891.791 543.192
1247 0 46.2508 13.4917 624 67.4663 891.317 542.325
1248 0 47.1252 14.5782 687 68.5531 891.438 541.124
1249 0 49.1505 14.242 700 68.9129 891.863 541.606
1250 0 47.1823 14.2638 673 70.9079 892.44 539.877
1251 0 48.1899 14.0071 675 71.563 892.52 540.404
1252 0 52.2304 14.034 733 70.618 892.66 538.585
1253 0 53.2641 14.3812 766 70.0979 892.49 539.705
1254 0 56.0974 14.6174 820 70.3012 892.812 538.706
1255 0 55.144 14.4712 798 71.8471 892.724 536.83
1256 0 56.2392 14.5983 821 72.3301 893.285 535.882
1257 0 58.2353 14.0808 820 72.9939 893.561 536.432
1258 0 61.1279 13.8562 847 73.2857 894.179 534.609
1259 0 64.0858 14.8083 949 72.2877 893.874 534.784
1260 0 66.1573 14.7225 974 72.0051 894.161 533.792
1261 0 67.065 14.3443 962 73.6923 894.426 530.565
1262 0 69.1731 14.9191 1032 73.1957 894.451 529.658
1263 0 72.1401 14.6936 1060 72.8849 894.69 529.047
1264 0 73.0875 14.7631 1079 73.7451 894.829 527.198
1265 0 77.1516 15.0613 1162 73.0559 894.526 526.592
1266 0 80.145 15.5219 1244 71.8167 894.968 524.083
1267 0 85.0665 15.3409 1305 71.2008 895.117 523.396
1268 0 88.0789 14.7368 1298 72.1202 895.311 522.56
1269 0 90.234 14.8835 1343 72.2673 895.334 520.94
1270 1 50.0396 12.0305 602 74.3189 895.332 540.239
1271 0 51.0319 12.1297 619 74.6882 895.774 538.265
1272 0 53.0783 13.5084 717 72.1088 896.091 538.135
1273 0 55.1382 13.6566 753 71.5179 896.288 537.141
1274 0 57.1216 14.3729 821 70.5566 896.937 534.943
1275 0 57.0766 13.0176 743 73.0767 897.295 534.537
1276 0 60.1419 13.3351 802 72.0274 897.495 533.243
1277 0 63.1261 13.6394 861 70.5459 897.782 531.401
1278 0 64.1534 13.7015 879 70.802 898.425 530.304
1279 0 68.1069 14.1836 966 69.2236 898.341 530.051
1280 0 70.0997 14.137 991 69.4117 898.045 529.209
1281 0 73.1207 14.4419 1056 69.5682 898.02 526.565
1282 0 73.1283 14.8506 1086 69.244 898.803 525.459
1283 0 76.0887 14.3517 1092 69.5861 898.494 523.189
1284 0 80.2326 14.9191 1197 68.7084 898.701 521.504
1285 0 82.1937 14.0035 1151 70.503 898.774 521.298
1286 0 85.1519 14.0455 1196 70.3453 898.798 518.206
1287 1 43.0607 10.4736 451 69.765 899.151 541.534
1288 0 43.0972 11.6945 504 68.7996 899.256 540.937
1289 0 46.1369 11.7476 542 67.4779 899.011 540.954
1290 0 46.0315 11.3618 523 69.9866 899.237 538.816
1291 0 48.0713 12.0238 578 68.1471 899.353 537.458
1292 0 50.0908 12.4574 624 68.0321 899.329 537.425
1293 0 50.0908 12.4773 625 155.074 899.317 537.362
1294 0 52.0741 11.9829 624 68.4199 900.139 536.537
1295 0 54.149 12.6133 683 68.1025 899.971 535.227
1296 0 56.0787 12.0545 676 68.6464 899.315 535.501
1297 0 57.1339 12.8645 735 68.0177 898.917 534.961
1298 0 58.1507 12.8803 749 67.996 898.569 534.73
1299 0 60.0958 12.3469 742 68.8194 899.026 532.763
1300 0 63.2469 11.5737 732 69.3743 898.779 532.63
1301 0 64.2277 12.2533 787 68.4066 897.949 533.011
1302 0 65.2223 11.2078 731 70.8988 897.91 530.101
1303 0 69.1094 12.7045 878 68.5672 898.166 529.295
1304 0 70.1897 12.1813 855 68.9895 898.667 528.6
1305 0 71.119 11.8955 846 70.1418 898.253 527.385
1306 0 73.0954 12.1485 888 70.0473 897.795 524.666
1307 1 43.0761 10.5859 456 67.3684 899.072 543.086
1308 0 40.1462 9.91377 398 68.7789 898.028 543.407
1309 0 42.0657 9.93684 418 68.3301 898.373 543.134
1310 0 44.105 10.5204 464 67.5323 897.838 542.487
1311 0 45.0526 11.1425 502 67.4124 898.492 541.958
1312 0 44.1635 10.5743 467 69.7473 897.527 541.726
1313 0 49.1183 11.8082 580 66.7431 897.145 539.897
1314 0 49.0678 11.5962 569 67.8471 897.195 539.049
1315 0 49.1039 11.7913 579 68.0052 896.522 539.466
1316 0 51.1293 11.1873 572 68.9406 896.257 534.357
1317 0 52.1554 11.3507 592 68.7247 896.318 541.002
1318 0 54.3223 12.1497 660 68.0818 896.3 539.811
1319 0 55.2445 11.5306 637 69.4349 896.323 538.655
1320 0 55.2824 10.9981 608 70.648 895.78 539.156
1321 0 57.1419 11.3227 647 71.6631 896.037 537.105
1322 0 60.2211 11.9393 719 71.4868 895.519 537.007
1323 0 61.2386 11.5613 708 72.4548 895.287 535.938
1324 0 65.1904 12.1644 793 70.1828 895.343 534.521
1325 0 64.2751 11.9642 769 72.013 895.036 533.164
1326 0 67.3508 11.7148 789 72.2662 895.144 534.252
1327 0 68.3832 12.079 826 72.3608 894.627 531.746
1328 0 71.4781 12.2835 878 72.3132 894.655 530.642
1329 1 38.1742 10.7664 411 71.7129 894.942 546.584
1330 0 39.2084 11.1456 437 72.4989 894.556 545.666
1331 0 41.2579 10.907 450 72.1044 894.551 546.856
1332 0 43.1065 11.7616 507 72.2446 894.771 544.813
1333 0 44.1126 12.1734 537 70.8529 894.261 543.98
1334 0 43.0836 12.3249 531 74.7608 894.697 543.819
1335 0 45.157 12.5562 567 74.097 893.915 542.086
1336 0 48.1297 12.0716 581 74.0327 893.871 541.587
1337 0 50.0543 12.4065 621 73.2432 894.338 541.894
1338 0 49.1329 12.1914 599 75.3623 894.447 541.479
1339 0 51.0941 11.7235 599 75.8164 894.135 540.905
1340 0 52.1415 11.9099 621 75.1578 894.709 540.889
1341 0 55.2356 12.3833 684 73.3845 895.237 539.276
1342 0 57.1789 12.1548 695 73.1899 895.544 539.335
1343 0 58.2189 12.1954 710 73.0408 895.025 538.479
1344 0 58.1253 12.6107 733 73.0177 894.836 537.232
1345 0 59.0905 13.0986 774 72.6382 895.018 536.159
1346 0 62.1943 13.088 814 71.8612 894.881 534
1347 0 63.1277 12.7044 802 73.3142 894.373 534.988
1348 0 67.1697 12.2525 823 73.3378 894.233 534.936
1349 0 67.2169 12.4969 840 73.4155 894.036 533.138
1350 0 70.1188 12.0652 846 73.8629 893.7 532.485
1351 1 38.0744 10.2956 392 75.3087 893.827 547.436
1352 0 39.0518 10.4477 408 76.1127 893.321 547.037
1353 0 39.1498 10.6003 415 75.7807 893.419 546.819
1354 0 43.0148 11.5774 498 73.6285 893.094 546.598
1355 0 42.021 12.1844 512 73.2598 892.867 546.707
1356 0 45.0092 12.0198 541 74.2366 892.728 544.222
1357 0 45.0588 13.3603 602 72.1777 892.62 543.734
1358 0 46.0425 11.9889 552 75.6739 892.357 543.813
1359 0 47.0456 12.0734 568 75.1479 892.301 544.343
1360 0 49.0392 12.1128 594 75.7458 892.173 543.244
1361 0 52.0162 13.515 703 72.0669 892.064 540.417
1362 0 51.0217 12.7593 651 75.1229 891.759 541.777
1363 0 53.0181 12.3354 654 75.9128 891.635 540.763
1364 0 56.0508 13.345 748 73.6872 891.761 539.078
1365 0 56.0315 12.4751 699 76.5837 891.569 540.272
1366 0 57.0576 13.7054 782 74.5064 891.147 537.472
1367 0 57.137 13.2313 756 76.7963 891.923 538.335
1368 0 59.023 13.4354 793 76.1879 891.96 539.213
1369 0 61.0363 13.2872 811 76.852 891.986 538.494
1370 0 61.0913 13.0297 796 78.5302 892.295 537.299
1371 0 63.1328 12.4024 783 79.2018 892.138 537.042
1372 0 65.0609 12.9264 841 78.9358 892.666 535.527
1373 0 65.1 12.3195 802 81.2406 892.928 535.781
1374 0 67.0589 12.571 843 80.2859 892.453 534.66
1375 0 69.0632 13.3646 923 78.8137 892.733 534.36
1376 0 72.0757 13.3471 962 77.8285 892.817 533.057
1377 0 73.0431 13.5126 987 77.8004 892.88 531.835
1378 1 38.0347 9.46505 360 80.2417 893.342 551.025
1379 0 39.0317 11.1192 434 77.2765 892.488 549.571
1380 0 40.0122 11.2216 449 78.0535 892.488 547.902
1381 0 42.0792 12.12 510 75.3765 892.569 546.922
1382 0 43.0835 11.5821 499 73.0862 892.814 546.854
1383 0 45.0556 12.6954 572 72.5227 892.477 544.836
1384 0 46.0616 12.4833 575 76.0626 892.637 544.899
1385 0 48.0691 13.2934 639 73.5149 892.723 543.759
1386 0 50.0224 13.2741 664 73.3599 893.023 543.443
1387 0 51.0568 13.0051 664 73.2108 893.158 542.471
1388 0 52.0794 13.3642 696 72.6595 892.848 540.269
1389 0 54.0936 13.4581 728 72.467 893.102 541.201
1390 0 53.0963 12.7693 678 74.8392 892.553 541.246
1391 0 54.0594 13.3742 723 74.3541 892.686 540.325
1392 0 55.0788 13.4898 743 74.2746 893.156 538.388
1393 0 57.1703 13.451 769 73.6892 892.827 539.787
1394 0 58.0454 13.5583 787 74.0025 892.794 538.615
1395 0 59.0871 13.7932 815 73.5301 892.625 536.494
1396 0 60.1028 13.6267 819 74.0659 893.133 537.032
1397 0 62.1221 14.4071 895 72.1855 892.768 534.234
1398 0 65.0733 13.9074 905 72.6409 892.961 533.852
1399 0 66.0956 13.4048 886 73.4458 893.708 534.361
1400 0 69.1094 14.0502 971 72.1946 893.221 531.636
1401 0 72.1034 14.4653 1043 70.838 893.887 531.335
1402 0 73.0519 13.8805 1014 72.4487 893.631 529.536
1403 0 75.1388 14.1072 1060 71.8858 894.249 527.538
1404 0 78.2123 14.4734 1132 70.8498 894.974 526.799
1405 0 81.1684 14.1311 1147 71.3801 894.309 526.21
1406 1 43.0157 12.1119 521 71.8925 894.785 544.486
1407 0 45.0336 10.8808 490 72.8755 895.427 544.3
1408 0 47.0546 12.4111 584 71.125 895.649 541.875
1409 0 46.0348 12.4037 571 71.9159 895.933 540.508
1410 0 51.0902 12.84 656 69.3582 896.345 540.434
1411 0 51.0155 12.8785 657 70.9269 896.938 538.388
1412 0 52.0195 12.7837 665 71.1654 896.947 537.555
1413 0 54.1441 12.6514 685 70.3752 897.501 538.561
1414 0 55.0616 13.276 731 69.4706 897.042 536.922
1415 0 56.1232 12.9358 726 69.4353 896.901 537.372
1416 0 58.0982 13.2018 767 69.2386 897.353 536.254
1417 0 59.2215 13.3735 792 68.9583 897.742 534.938
1418 0 63.0932 12.8064 808 68.9257 897.522 533.223
1419 0 63.0826 13.6646 862 67.8376 897.408 531.256
1420 0 66.1029 13.2974 879 68.0296 897.354 530.057
1421 0 69.0406 13.5717 937 66.8506 897.309 531.03
1422 0 70.1905 13.2069 927 67.6472 897.435 529.639
1423 0 74.0539 13.5577 1004 66.2371 897.343 528.43
1424 0 76.1697 14.1395 1077 65.597 897.149 526.735
1425 0 79.1085 14.9162 1180 64.122 897.312 525.385
1426 0 83.1138 13.9929 1163 64.7111 897.233 523.468
1427 0 83.0668 13.2544 1101 65.9691 896.527 524.2
1428 0 87.0634 14.8512 1293 63.109 896.621 522.425
1429 0 89.0842 13.1561 1172 65.0623 896.579 520.984
1430 1 47.0589 10.9437 515 65.9806 896.468 541.794
1431 0 49.0421 12.3159 604 64.8278 896.343 539.507
1432 0 51.0348 11.6391 594 65.569 896.155 539.468
1433 0 54.0423 11.7131 633 65.5403 896.316 538.049
1434 0 54.0373 13.2316 715 65.2713 896.145 536.354
1435 0 57.1464 13.4217 767 65.2568 896.396 536.522
1436 0 58.1039 12.6842 737 66.1872 895.947 536.369
1437 0 60.0305 12.9934 780 66.3487 895.624 534.745
1438 0 62.0257 13.3816 830 65.7518 895.763 534.211
1439 0 64.0814 13.9822 896 64.6373 895.68 532.605
1440 0 66.0756 13.0759 864 65.0081 895.272 530.531
1441 0 70.0678 14.3004 1002 62.4092 894.859 528.701
1442 0 71.1219 13.8776 987 63.3799 895.189 529.451
1443 0 74.1164 13.7621 1020 63.2941 895.713 527.489
1444 0 75.1893 13.6589 1027 63.5044 894.904 526.765
1445 0 79.2076 13.8118 1094 63.2313 894.457 525.098
1446 0 80.193 13.4675 1080 63.5963 894.659 523.957
1447 0 84.1778 13.2101 1112 63.9757 894.54 522.337
1448 0 86.2342 14.0663 1213 62.8937 895.075 521.812
1449 1 44.0285 10.6749 470 65.5064 894.826 542.081
1450 0 47.1428 11.0939 523 65.4971 894.866 539.497
1451 0 49.087 12.0602 592 64.4088 894.753 538.566
1452 0 49.087 12.101 594 173.461 894.763 538.487
1453 0 52.1084 13.8557 722 62.3712 894.289 537.226
1454 0 52.1084 13.8749 723 167.076 894.279 537.212
1455 0 52.1084 13.9517 727 166.128 894.275 537.305
1456 0 52.1084 13.9517 727 165.781 894.275 537.305
1457 0 59.2065 13.2587 785 63.5287 894.042 534.991
1458 0 62.0737 13.1134 814 63.6572 893.714 534.084
1459 0 63.0589 13.2892 838 64.1229 894.103 532.643
1460 0 66.0964 13.8434 915 62.6284 893.872 532.546
1461 0 66.1608 12.9835 859 64.5646 893.559 530.851
1462 0 70.1433 13.3441 936 62.8462 893.163 531.031
1463 0 71.1931 13.4845 960 62.7823 893.532 529.593
1464 0 73.2034 12.9092 945 63.7037 892.97 529.233
1465 0 77.1725 14.6814 1133 61.0556 892.845 528.229
1466 0 79.2021 13.6865 1084 62.6467 893.203 526.468
1467 0 80.1121 14.1676 1135 62.0344 892.844 526.393
1468 0 85.2513 14.4983 1236 61.0251 892.807 524.46
1469 0 87.0642 13.6106 1185 61.6008 892.52 524.489
1470 0 88.0891 13.9745 1231 62.2998 892.684 521.901
1471 0 91.0518 13.8163 1258 61.9873 892.246 522.072
1472 0 96.2478 14.2964 1376 61.032 892.396 517.794
1473 0 98.1924 13.0967 1286 62.7908 892.44 516.694
1474 0 103.295 14.3375 1481 60.9203 892.369 515.402
1475 1 53.0744 11.173 593 62.8263 891.927 538.707
1476 0 55.0353 10.7567 592 63.1943 891.432 540.032
1477 0 57.0944 11.9451 682 62.1364 891.409 537.736
1478 0 59.1101 12.6882 750 60.0253 891.1 537.295
1479 0 63.0835 12.7926 807 60.1177 891.612 535.535
1480 0 65.1021 12.6417 823 60.0923 891.575 535.078
1481 0 66.1376 13.6685 904 58.9259 892.267 534.972
1482 0 70.0672 13.4014 939 58.8381 891.849 534.153
1483 0 70.0599 13.2744 930 59.7097 892.676 531.834
1484 0 74.0758 13.4052 993 58.7925 892.544 530.627
1485 0 74.0694 12.6773 939 60.2066 892.256 528.941
1486 0 77.2632 13.111 1013 59.2359 892.516 529.192
1487 0 81.0844 13.6401 1106 58.3327 892.548 525.112
1488 0 84.2495 13.5668 1143 58.1776 893.132 524.361
1489 0 87.3924 13.3421 1166 57.7419 892.583 523.862
1490 0 90.1934 13.6374 1230 57.3065 892.467 523.755
1491 0 93.1702 12.9118 1203 57.9551 892.192 520.791
1492 0 95.2286 13.2523 1262 57.7948 892.399 519.492
1493 1 54.1405 11.7657 637 56.8367 892.896 541.62
1494 0 54.0757 11.299 611 57.3633 893.159 539.466
1495 0 56.0493 12.1679 682 55.9282 893.226 538.416
1496 0 59.1429 12.2753 726 56.5399 893.264 535.842
1497 0 59.0273 12.1978 720 56.6389 893.871 534.829
1498 0 61.0948 11.7686 719 56.5883 893.996 532.765
1499 0 65.1018 12.1348 790 56.6519 893.637 534.896
1500 0 66.052 12.4902 825 55.8824 893.663 532.427
1501 0 67.0832 12.1044 812 56.952 893.72 532.365
1502 0 71.0426 12.3166 875 56.2663 893.67 530.27
1503 0 73.0375 12.3909 905 56.1116 894.057 530.308
1504 0 74.1182 13.0467 967 56.1768 893.805 528.011
1505 0 77.0289 11.7488 905 57.6022 893.664 525.024
1506 0 77.1848 12.7875 987 56.9159 894.053 525.851
1507 0 81.1336 13.5702 1101 55.7811 894.478 525.497
1508 0 82.1321 12.8208 1053 57.1947 894.335 521.665
1509 0 83.1351 12.594 1047 58.0974 895.252 523.471
1510 0 88.1872 12.8477 1133 57 895.384 519.311
1511 0 90.0865 13.7423 1238 56.9136 895.393 520.565
1512 0 94.0714 13.7874 1297 56.7471 895.591 519.284
1513 1 49.0442 10.7658 528 58.9659 896.015 540.199
1514 0 51.0838 10.7275 548 59.4234 896.4 539.688
1515 0 53.02 11.2976 599 59.01 896.073 538.356
1516 0 53.0469 11.2542 597 59.6248 896.134 538.315
1517 0 57.036 12.4483 710 58.7085 896.603 534.313
1518 0 60.0693 13.1681 791 58.4425 897.154 535.028
1519 0 61.0875 13.2597 810 58.5716 897.327 533.056
1520 0 63.0523 13.6077 858 58.5315 897.726 534.163
1521 0 66.0845 13.9972 925 57.9881 897.339 534.103
1522 0 67.1134 12.9482 869 60.2175 897.526 531.652
1523 0 67.1134 12.9482 869 167.87 897.526 531.652
1524 0 71.0591 14.509 1031 58.1154 898.692 529.401
1525 0 75.1776 13.7275 1032 59.1453 898.608 527.284
1526 0 76.041 13.8215 1051 58.9734 898.746 527.7
1527 0 76.0566 13.7529 1046 59.892 898.387 526.709
1528 0 80.1478 14.049 1126 59.3233 898.63 523.473
1529 0 82.0644 13.4894 1107 60.5872 898.751 522.498
1530 0 85.0778 13.4935 1148 60.4286 898.632 523.361
1531 0 87.0306 14.5121 1263 60.0372 898.576 520.747
1532 0 90.143 13.7226 1237 61.2199 898.24 519.812
1533 0 94.1202 13.9715 1315 61.235 897.777 516.867
1534 0 99.1724 14.742 1462 59.3386 898.862 517.548
1535 1 52.0533 10.1819 530 62.6811 898.196 538.832
1536 0 55.0518 9.95425 548 63.0219 898.252 538.622
1537 0 56.0871 11.0899 622 62.9293 898.593 534.174
1538 0 58.0391 10.9581 636 63.1305 898.387 535.561
1539 0 60.1104 11.7617 707 62.5884 897.976 535.256
1540 0 62.0461 13.1354 815 61.1067 897.66 534.027
1541 0 64.0696 12.0182 770 64.3987 897.312 533.729
1542 0 66.1718 12.4827 826 63.9988 896.992 532.102
1543 0 68.114 12.8168 873 63.7308 896.871 531.743
1544 0 68.0756 12.8681 876 64.1724 896.809 531.296
1545 0 73.1629 13.5861 994 62.3964 897.022 529.377
1546 0 76.0914 13.5626 1032 62.218 896.552 527.349
1547 0 78.0934 13.8296 1080 61.6352 896.631 527.378
1548 0 80.1095 14.2929 1145 61.6087 896.58 525.953
1549 0 81.088 13.2572 1075 63.1209 896.209 525.062
1550 0 86.1472 13.6975 1180 61.8949 895.956 522.642
1551 0 89.0773 13.8644 1235 61.5336 896.185 521.864
1552 0 91.1144 12.7751 1164 62.9064 896.046 521.393
1553 0 94.1404 13.1612 1239 62.8208 895.293 517.973
1554 0 94.2709 13.1854 1243 63.0072 895.028 517.316
1555 0 100.245 13.5368 1357 61.7369 894.855 514.845
1556 0 101.106 13.4612 1361 61.8538 894.551 515.051
1557 0 105.198 12.966 1364 62.7243 894.54 513.008
1558 0 109.151 13.66 1491 61.1764 894.144 511.304
1559 0 112.142 12.9389 1451 62.3666 894.551 509.616
1560 1 62.1787 9.92301 617 62.094 894.574 536.261
1561 0 63.057 10.2288 645 61.2853 894.505 536.202
1562 0 67.0631 11.7501 788 59.7234 894.052 534.006
1563 0 69.0542 12.9174 892 58.9148 893.804 532.98
1564 0 71.1613 13.7856 981 57.5637 894.481 530.378
1565 0 72.1288 12.644 912 59.5526 894.02 528.985
1566 0 76.2378 13.0381 994 58.4336 893.936 528.63
1567 0 76.1944 12.7043 968 59.4525 893.746 525.678
1568 0 79.2363 13.2263 1048 58.8406 893.74 525.265
1569 0 81.2791 13.6813 1112 58.2203 894.014 524.437
1570 0 83.3565 13.1243 1094 59.4397 894.05 525.622
1571 0 87.2321 13.7679 1201 57.7136 893.87 522.683
1572 0 89.1686 13.6595 1218 58.0854 893.787 523.069
1573 0 91.424 13.3553 1221 58.6003 893.785 520.951
1574 0 95.3074 13.5981 1296 58.4267 893.814 521.106
1575 0 97.2608 13.5306 1316 59.3123 893.878 516.806
1576 0 101.464 14.478 1469 57.6521 893.924 516.523
1577 0 100.475 12.8988 1296 60.7215 893.708 513.049
1578 0 107.408 14.375 1544 58.3316 893.783 512.343
1579 0 108.307 14.3942 1559 59.086 893.593 510.264
1580 0 113.542 13.7658 1563 59.8663 893.434 509.008
1581 0 119.548 14.8393 1774 57.8123 893.975 506.839
1582 1 61.3272 9.81621 602 61.7243 893.726 537.472
1583 0 62.1774 11.2742 701 60.6862 893.777 537.893
1584 0 64.1045 11.4813 736 61.0435 893.082 534.376
1585 0 67.1604 12.1649 817 60.7846 893.127 534.044
1586 0 69.2232 12.7847 885 60.1842 893.202 531.233
1587 0 72.2605 13.1192 948 59.8956 893.038 530.591
1588 0 73.1374 13.2764 971 59.689 893.318 529.704
1589 0 78.2042 13.03 1019 59.3817 893.295 528.556
1590 0 80.2136 13.863 1112 58.5072 893.296 526.712
1591 0 81.2013 12.7954 1039 60.5996 893.404 525.992
1592 0 85.1573 13.3752 1139 59.7603 893.858 525.22
1593 0 87.2686 13.1319 1146 61.2086 893.212 521.804
1594 0 91.3222 13.6331 1245 59.6731 893.334 521.693
1595 0 93.2812 13.068 1219 60.4971 893.399 520.01
1596 0 96.2427 13.9647 1344 58.8363 893.576 520.222
1597 0 99.4727 14.2853 1421 59.0049 893.671 516.469
1598 1 55.1372 10.7913 595 61.0454 894.42 540.44
1599 0 58.1296 11.6636 678 60.5147 894.441 537.929
1600 0 59.064 12.8505 759 59.4216 894.051 536.986
1601 0 61.0973 12.5865 769 60.8466 893.557 535.631
1602 0 63.0963 13.8043 871 59.8703 894.348 535.656
1603 0 64.2126 12.7856 821 61.6236 894.258 534.566
1604 0 65.0942 11.7522 765 63.3895 894.659 535.191
1605 0 68.1067 13.8753 945 60.7354 894.795 531.325
1606 0 70.1345 13.0891 918 61.4978 895.011 532.62
1607 0 74.2265 13.2702 985 61.0416 894.401 530.746
1608 0 75.1015 13.1289 986 61.3884 894.439 528.748
1609 0 78.2125 12.1592 951 62.7056 894.845 527.09
1610 0 81.1416 12.8418 1042 61.4962 894.925 524.179
1611 0 86.1543 13.3249 1148 60.3005 895.2 524.142
1612 0 87.2249 13.2416 1155 61.1558 894.622 522.269
1613 0 89.1662 13.4468 1199 60.8324 895.987 521.746
1614 0 93.1375 13.26 1235 61.0259 896.198 520.823
1615 0 96.2495 14.1611 1363 59.9112 896.236 516.007
1616 1 52.1344 10.6648 556 62.2014 897.147 539.944
1617 0 54.3183 11.2853 613 61.7635 897.086 538.437
1618 0 55.1723 11.6182 641 62.3994 897.373 536.317
1619 0 58.1924 13.1632 766 59.2272 897.236 535.244
1620 0 58.0255 13.0977 760 60.7408 897.501 533.814
1621 0 60.1205 12.8908 775 60.9445 897.848 533.01
1622 0 61.0258 12.4701 761 61.8265 898.23 533.791
1623 0 62.0278 12.704 788 61.3858 898.515 533.249
1624 0 66.0839 13.5283 894 60.1298 898.24 530.122
1625 0 65.0754 13.3384 868 61.5035 898.234 530.494
1626 0 67.1532 13.4171 901 61.192 898.272 528.499
1627 0 70.1646 13.4113 941 60.6408 898.645 525.999
1628 0 73.1677 14.2002 1039 58.8816 898.826 526.17
1629 0 74.1987 13.5717 1007 60.4926 899.243 525.545
1630 0 75.242 13.224 995 61.396 899.002 523.602
1631 0 78.1154 13.4801 1053 60.7958 898.769 522.966
1632 0 80.2517 12.7349 1022 62.0705 898.987 522.529
1633 0 84.2495 12.7716 1076 61.5809 899.033 521.654
1634 0 83.177 13.0565 1086 62.6087 898.774 519.729
1635 0 89.2133 13.989 1248 60.6482 898.832 519.794
1636 0 92.362 13.014 1202 62.3869 898.7 516.782
1637 0 96.3312 13.9103 1340 60.756 898.896 516.299
1638 0 97.1576 12.876 1251 63.1918 898.837 512.666
1639 1 52.0532 11.4498 596 63.8674 898.634 534.879
1640 0 55.064 12.2403 674 62.5579 898.45 534.059
1641 0 57.0555 11.8481 676 63.1376 898.564 532.849
1642 0 58.1312 12.1966 709 63.0381 898.052 531.104
1643 0 60.0979 12.28 738 62.8089 898.447 531.481
1644 0 63.0385 12.6907 800 62.4488 898.649 530.156
1645 0 64.0776 13.2027 846 62.1749 898.416 527.749
1646 0 65.1005 13.1796 858 62.796 898.679 526.709
1647 0 68.2756 13.1526 898 63.0935 898.771 526.32
1648 0 70.2381 12.7424 895 63.9486 898.371 524.902
1649 0 74.2149 14.175 1052 61.6397 898.701 524.369
1650 0 75.2566 14.2978 1076 61.6069 898.761 523.581
1651 0 78.3023 14.8016 1159 61.2813 898.032 519.46
1652 0 80.404 13.5068 1086 63.1786 898.138 522.586
1653 0 83.3469 14.0737 1173 62.5652 897.737 518.981
1654 0 85.3051 13.7155 1170 63.5932 898.164 517.554
1655 0 88.2561 13.914 1228 63.2899 897.632 517.495
1656 0 92.3911 14.1031 1303 63.779 897.448 513.628
1657 0 96.4506 14.0486 1355 63.293 897.165 512.697
1658 0 98.4589 14.0465 1383 63.9082 897.621 509.583
1659 1 53.3547 12.0514 643 63.8787 897.252 535.313
1660 0 54.538 11.8083 644 65.455 896.887 532.693
1661 0 54.4238 12.9539 705 64.8624 896.96 533.033
1662 0 58.2697 13.592 792 63.7841 897.706 532.093
1663 0 60.5501 13.7902 835 64.0263 897.301 531.849
1664 0 61.2213 13.1817 807 65.2255 897.568 531.803
1665 0 64.4692 14.7512 951 63.1914 897.195 530.283
1666 0 65.3889 13.3815 875 65.2994 897.05 529.066
1667 0 67.5017 12.7849 863 65.8575 896.578 526.392
1668 0 71.4762 13.445 961 63.589 896.14 523.877
1669 0 72.5274 13.4432 975 64.0082 896.388 522.907
1670 0 76.504 14.7705 1130 61.9248 896.373 521.877
1671 0 79.5432 14.3193 1139 62.2888 896.522 521.169
1672 0 81.3716 14.1573 1152 62.2517 896.253 523.038
1673 0 85.4928 14.4924 1239 61.7522 896.462 520.154
1674 0 87.3535 13.8403 1209 62.2887 896.041 519.37
1675 0 92.5981 14.05 1301 61.7394 896.064 516.979
1676 0 93.3846 13.4069 1252 63.0911 895.562 515.625
1677 0 98.5369 14.1267 1392 61.7184 896.106 513.351
1678 1 51.2582 11.6274 596 63.4614 896.312 537.876
1679 0 50.2289 11.2087 563 64.2522 895.755 536.659
1680 0 52.2589 10.869 568 65.2817 895.644 534.627
1681 0 56.3185 11.3284 638 64.1379 895.785 534.892
1682 0 59.2884 12.9705 769 61.9233 895.762 534.229
1683 0 58.0993 13.5113 785 62.0548 894.926 534.659
1684 0 59.2502 12.4557 738 62.813 895.267 534.432
1685 0 62.2119 12.6021 784 62.4668 894.681 531.857
1686 0 66.3399 13.7172 910 60.1582 894.813 530.402
1687 0 68.3603 14.7015 1005 58.9642 894.734 529.864
1688 0 69.104 13.3856 925 61.1373 894.711 530.355
1689 0 71.1637 13.2933 946 61.8097 894.335 527.702
1690 0 72.1639 13.5525 978 61.7372 894.225 527.881
1691 0 77.3282 13.7466 1063 61.4149 894.373 524.941
1692 0 79.2764 13.7998 1094 61.458 894.218 525.112
1693 0 82.2804 14.5964 1201 60.6978 893.838 523.415
1694 0 82.3292 13.5553 1116 62.9704 893.774 522.814
1695 0 88.337 14.6032 1290 60.8465 894.315 520.285
1696 0 89.2319 13.0895 1168 63.2337 893.883 521.641
1697 0 92.2049 14.9884 1382 61.1737 893.849 518.758
1698 1 51.0965 11.2728 576 62.6562 894.184 539.292
1699 0 51.0839 10.7275 548 64.1898 893.779 539.619
1700 0 52.1909 10.6149 554 63.7166 893.579 540.998
1701 0 55.1087 12.0489 664 62.3268 892.316 538.146
1702 0 57.2907 12.4977 716 61.5573 891.599 538.232
1703 0 60.2823 13.0055 784 60.8852 891.676 536.985
1704 0 61.1186 13.0075 795 61.5774 891.816 535.142
1705 0 61.0538 12.5136 764 62.8102 891.746 535.292
1706 0 64.1138 13.1641 844 61.34 891.528 535.089
1707 0 66.0801 13.1507 869 61.8504 891.514 533.964
1708 0 67.072 13.2693 890 61.5899 891.672 530.08
1709 0 69.1891 12.184 843 62.9312 891.535 530.926
1710 0 72.1946 12.397 895 62.4648 891.337 529.464
1711 0 74.1289 12.4378 922 62.1193 892.126 530.495
1712 0 74.0752 12.3118 912 62.7226 892.077 528.713
1713 0 79.1332 12.5737 995 62.1045 891.935 527.283
1714 0 81.1301 12.4122 1007 62.1549 891.818 525.787
1715 0 84.3721 12.4567 1051 62.333 892.2 523.391
1716 0 87.2581 13.7523 1200 61.1833 892.872 521.503
1717 0 91.149 14.3282 1306 60.0283 893.074 520.911
1718 0 92.0956 12.6282 1163 62.1668 893.191 518.504
1719 1 53.1243 10.9931 584 59.012 892.515 540.801
1720 0 53.1548 11.4947 611 59.2471 893.208 540.687
1721 0 53.1548 11.5135 612 148.889 893.204 540.781
1722 0 55.1493 11.895 656 60.003 893.53 537.341
1723 0 57.1846 12.0662 690 60.329 893.741 537.838
1724 0 59.0698 11.6642 689 60.852 894.392 538.041
1725 0 61.132 11.9414 730 60.274 894.634 535.962
1726 0 63.1316 12.5927 795 60.0038 894.526 533.738
1727 0 65.1923 12.7316 830 59.7831 894.586 533.772
1728 0 66.1798 13.1611 871 59.6269 894.769 531.803
1729 0 68.1085 12.3479 841 60.0297 894.79 531.273
1730 0 69.1086 13.0953 905 59.5801 894.956 529.577
1731 0 71.2631 12.9801 925 59.4173 895.348 528.946
1732 0 75.2884 13.5479 1020 58.0618 895.328 527.409
1733 0 75.3853 13.6366 1028 58.034 896.239 527.151
1734 0 77.3756 12.8723 996 59.005 896.193 524.764
1735 0 82.3336 12.8502 1058 58.7202 895.975 523.065
1736 0 83.2574 13.2241 1101 58.7375 896.781 522.467
1737 0 86.1712 13.1018 1129 58.7538 896.8 520.832
1738 0 88.2235 13.2504 1169 57.8358 897.066 518.884
1739 1 48.135 9.97196 480 57.7708 896.906 541.129
1740 0 48.1018 11.6628 561 56.6988 896.889 537.907
1741 0 50.0848 11.201 561 57.713 897.67 538.198
1742 0 53.0594 11.9489 634 55.6782 897.309 534.91
1743 0 54.1181 12.8053 693 55.2569 897.595 535.551
1744 0 57.0536 12.0764 689 55.7983 898.369 535.623
1745 0 56.0701 11.6105 651 57.576 898.65 534.611
1746 0 58.0602 12.6076 732 55.9932 898.69 533.402
1747 0 60.037 13.9247 836 54.573 899.236 532.513
1748 0 60.0709 12.8515 772 56.3705 899.706 529.693
1749 0 63.0655 12.7328 803 56.7858 899.866 529.06
1750 0 66.0885 14.0872 931 54.2427 900.322 530.11
1751 0 65.0997 12.9033 840 56.95 900.48 526.652
1752 0 69.089 14.1846 980 55.2663 900.721 527.329
1753 0 70.0879 14.1822 994 55.2002 900.709 529.06
1754 0 72.0654 13.571 978 56.1656 900.464 527.281
1755 0 74.1449 13.2983 986 56.3124 900.587 525.201
1756 0 74.2686 12.5356 931 58.1547 900.178 524.694
1757 0 79.2837 13.849 1098 56.5328 899.388 522.441
1758 0 81.4963 14.6019 1190 56.0286 899.631 521.58
1759 0 79.283 13.2311 1049 59.1697 899.671 517.095
1760 0 82.2015 13.5521 1114 58.8555 899.502 521.44
1761 0 85.4165 14.5288 1241 58.3997 899.836 516.554
1762 0 89.5947 14.2084 1273 58.846 899.701 514.403
1763 0 93.6057 14.4756 1355 58.2177 900.244 514.779
1764 0 96.5117 14.1848 1369 59.0292 899.202 512.705
1765 0 98.5051 14.9942 1477 58.4543 898.671 511.509
1766 0 102.351 14.4894 1483 59.2987 899.038 509.683
1767 1 55.2825 10.9076 603 60.66 899.186 535.113
1768 0 57.3697 11.6264 667 60.8111 898.981 534.103
1769 0 59.2037 12.0094 711 61.0253 899.093 533.197
1770 0 60.2173 13.5509 816 59.6887 898.996 531.386
1771 0 64.2227 14.076 904 58.6692 898.764 530.212
1772 0 62.1755 12.143 755 62.6291 898.568 529.109
1773 0 64.3033 12.9853 835 62.109 898.04 527.766
1774 0 66.2259 13.3181 882 61.2959 898.726 527.693
1775 0 71.2434 14.3452 1022 58.911 897.688 525.249
1776 0 73.356 14.9408 1096 57.9106 897.266 526.441
1777 0 75.3234 13.5682 1022 60.0949 897.722 524.718
1778 0 77.2876 13.7668 1064 60.5733 897.391 522.44
1779 0 81.3497 13.9275 1133 60.0344 897.968 521.268
1780 0 84.4022 14.893 1257 58.2466 897.372 520.161
1781 0 87.3733 13.0246 1138 60.5967 897.706 521.612
1782 0 89.4232 13.2292 1183 60.3838 897.791 519.093
1783 0 92.2727 14.132 1304 59.0828 897.544 516.984
1784 1 52.2947 11.4161 597 60.6315 897.023 538.127
1785 0 56.1816 13.6878 769 57.9285 897.1 537.434
1786 0 56.2144 12.2388 688 60.3808 896.632 535.709
1787 0 58.2161 12.5223 729 60.2236 896.464 533.144
1788 0 58.1549 12.6387 735 60.9156 895.848 532.648
1789 0 62.0841 13.981 868 59.1417 895.49 531.755
1790 0 64.1167 13.2415 849 59.2815 895.615 532.641
1791 0 67.1274 14.0181 941 58.4442 895.728 531.81
1792 0 69.3852 14.6861 1019 57.5711 895.658 529.259
1793 0 70.2653 13.7906 969 58.9453 895.698 528.405
1794 0 73.1454 13.4663 985 59.1685 895.501 528.079
1795 0 76.1799 14.3476 1093 57.4886 895.409 528.212
1796 0 76.0705 14.3025 1088 58.1774 895.362 525.9
1797 0 80.1973 14.3895 1154 57.8778 895.385 524.482
1798 0 83.076 14.2159 1181 57.8146 895.181 523.032
1799 0 86.1309 14.7914 1274 57.5738 895.108 522.305
1800 0 89.1242 13.2624 1182 59.0262 895.111 524.702
1801 0 93.2662 14.1209 1317 58.6484 894.883 520.466
1802 1 49.0599 11.9038 584 57.9212 895.041 544.303
1803 0 51.0209 11.7991 602 58.9169 895.256 541.794
1804 0 51.0269 11.5821 591 59.7699 895.176 540.398
1805 0 55.0623 12.1136 667 58.997 895.303 540.643
1806 0 53.1182 12.8016 680 59.3544 894.522 538.984
1807 0 56.0503 12.7742 716 59.0475 894.441 537.884
1808 0 57.1404 12.443 711 59.1547 894.428 539.038
1809 0 58.0386 13.0775 759 58.9526 895.022 536.03
1810 0 62.0492 13.9244 864 57.3148 894.928 536.24
1811 0 64.0854 13.3572 856 57.8388 894.769 536.303
1812 0 67.0412 14.0958 945 56.7778 894.674 535.477
1813 0 68.0682 13.8244 941 57.5983 894.995 532.666
1814 0 69.1799 13.9491 965 58.3596 894.716 532.051
1815 0 72.0766 13.5411 976 58.751 895.352 529.551
1816 0 75.0635 13.8016 1036 58.3523 895.545 530.554
1817 0 78.14 14.4868 1132 57.6749 895.075 528.443
1818 0 80.0835 13.4734 1079 58.924 895.381 528.741
1819 0 82.1354 13.429 1103 59.4288 894.888 525.533
1820 0 86.1648 13.7063 1181 58.7045 894.932 524.727
1821 0 88.1442 13.3758 1179 59.6472 894.89 523.427
1822 0 91.1507 13.2967 1212 59.3523 895.484 521.594
1823 1 49.0793 10.2283 502 61.3884 895.269 543.791
1824 0 50.0517 12.2074 611 59.8756 894.725 542.887
1825 0 53.0591 11.3647 603 60.6716 895.277 541.614
1826 0 56.0726 12.8405 720 58.9389 895.029 540.125
1827 0 56.1286 13.4869 757 59.148 895.54 538.876
1828 0 59.1015 13.4853 797 59.2861 896.125 537.861
1829 0 59.1907 13.2115 782 60.399 896.219 537.57
1830 0 62.1104 14.6191 908 58.1443 896.702 535.378
1831 0 64.0979 15.2891 980 57.4378 896.558 533.186
1832 0 65.1334 14.2937 931 58.3781 896.589 533.876
1833 0 69.1564 14.3587 993 57.9537 896.747 530.823
1834 0 69.1111 14.4405 998 58.5982 896.924 530.615
1835 0 73.1996 14.8635 1088 57.5938 897.256 528.847
1836 0 74.2038 13.8403 1027 58.9367 896.814 527.054
1837 0 79.1668 14.0589 1113 57.9173 897.03 526.64
1838 0 81.1576 14.0837 1143 57.8793 897.545 525.943
1839 0 85.2605 13.8751 1183 57.9349 897.669 523.722
1840 0 88.1318 13.8202 1218 57.3875 897.908 521.565
1841 0 90.1822 14.1824 1279 57.0766 898.054 519.765
1842 0 96.176 14.7854 1422 55.8713 898.738 516.535
1843 0 98.0481 13.6362 1337 57.181 898.653 514.465
1844 0 102.238 13.9869 1430 56.5615 898.646 513.889
1845 0 105.195 15.8088 1663 54.6025 898.9 513.515
1846 0 108.374 13.6565 1480 57.0953 899.031 511.222
1847 0 110.212 13.9277 1535 56.6717 898.897 507.337
1848 0 114.275 13.275 1517 57.1991 898.964 509.353
1849 0 117.367 13.871 1628 56.8729 899.28 503.119
1850 0 123.229 14.1362 1742 56.2997 899.742 503.649
1851 0 128.298 14.6768 1883 55.4663 899.462 499.988
1852 0 130.23 14.6434 1907 56.0813 899.446 498.779
1853 0 137.356 15.58 2140 54.1967 899.857 499.957
1854 0 141.183 14.2156 2007 54.8371 899.798 496.575
1855 0 146.554 14.4383 2116 54.647 899.568 494.244
1856 0 153.352 15.2199 2334 53.7579 899.276 488.201
1857 1 81.2363 13.6762 1111 55.6625 899.849 521.458
1858 0 85.3283 14.3446 1224 55.1242 899.295 519.963
1859 0 85.1548 13.8219 1177 56.3934 899.396 518.41
1860 0 89.3628 15.3419 1371 54.6937 899.63 516.688
1861 0 93.3208 14.5305 1356 55.4041 899.559 517.3
1862 0 96.3631 14.6633 1413 55.6447 899.234 514.636
1863 0 100.448 14.8833 1495 55.8308 899.029 513.365
1864 0 101.42 14.4449 1465 56.4662 898.827 512.816
1865 0 108.368 16.4071 1778 54.0444 898.794 508.989
1866 0 111.375 14.3839 1602 56.578 898.691 507.62
1867 0 115.189 15.5136 1787 55.5797 898.694 505.767
1868 0 118.363 15.1061 1788 56.4508 898.235 502.93
1869 0 119.305 14.1654 1690 57.6959 898.181 504.99
1870 0 126.51 14.3704 1818 57.1546 898.557 502.445
1871 0 130.471 14.7542 1925 55.7777 898.073 501.128
1872 1 69.3631 13.1338 911 57.764 897.87 528.271
1873 0 70.3336 12.9241 909 58.7613 898.178 526.952
1874 0 76.3979 14.5685 1113 56.1563 897.757 525.407
1875 0 76.2966 14.2863 1090 57.3431 897.531 523.416
1876 0 80.331 14.4527 1161 57.2084 897.107 520.172
1877 0 84.2397 13.6397 1149 57.4273 896.93 520.384
1878 0 86.3752 14.2286 1229 56.9984 897.695 520.266
1879 0 90.3852 13.8408 1251 57.5132 897.703 517.924
1880 0 92.3776 14.4516 1335 57.0112 897.354 514.945
1881 0 96.3382 14.7397 1420 56.2944 897.336 517.358
1882 0 98.4034 14.3084 1408 57.3643 897.039 515.945
1883 0 100.475 14.3917 1446 57.9426 897.024 515.155
1884 0 104.443 15.6641 1636 56.61 897.071 511.482
1885 0 108.531 14.6594 1591 58.4098 896.824 510.13
1886 0 111.216 13.9548 1552 59.0973 896.62 511.585
1887 0 114.468 14.6941 1682 59.2753 896.705 507.858
1888 0 119.223 15.1313 1804 58.2323 896.389 510.496
1889 1 61.3647 11.6842 717 62.106 896.787 534.727
1890 0 67.1438 13.4636 904 59.6637 896.759 534.27
1891 0 69.2042 14.002 969 59.4056 896.969 532.483
1892 0 72.2325 15.2563 1102 58.2078 896.752 530.517
1893 0 72.1097 14.3809 1037 59.8293 896.471 528.969
1894 0 77.3462 13.8986 1075 59.8921 895.558 527.897
1895 0 78.3358 14.2464 1116 59.9991 895.286 525.792
1896 0 80.3626 14.7954 1189 59.3474 895.575 525.248
1897 0 84.2078 14.8561 1251 59.1958 896.19 522.369
1898 0 88.3584 14.4185 1274 59.4553 894.995 522.632
1899 0 88.2986 14.3037 1263 60.5804 895.026 520.88
1900 0 93.3167 14.5526 1358 59.8093 894.658 520.567
1901 0 96.2613 13.8893 1337 60.5295 894.597 519.159
1902 0 99.1939 14.9707 1485 59.2114 894.367 518.274
1903 0 103.262 14.3906 1486 60.1534 893.777 515.744
1904 0 106.166 14.9766 1590 59.7226 894.743 514.166
1905 1 57.1932 11.5398 660 60.4939 894.7 540.414
1906 0 60.1782 11.5657 696 60.2083 894.658 538.81
1907 0 64.1811 12.1064 777 60.0914 894.212 535.64
1908 0 66.1852 12.0873 800 60.3025 894.132 535.551
1909 0 69.1073 13.5442 936 59.2137 893.394 532.08
1910 0 70.2045 13.1616 924 59.5563 893.268 531.514
1911 0 73.1273 13.1004 958 59.8768 893.241 531.719
1912 0 75.1235 12.353 928 61.2909 893.268 529.161
1913 0 81.0655 13.9517 1131 58.7356 893.673 528.416
1914 0 82.1151 13.4324 1103 59.932 893.458 527.439
1915 0 85.1619 14.1026 1201 59.3172 893.348 525.292
1916 0 87.1503 14.0562 1225 59.6604 893.447 525.022
1917 0 92.1433 14.8682 1370 59.0745 893.408 523.102
1918 0 93.3052 14.3186 1336 59.9768 893.48 520.124
1919 0 96.3457 13.4204 1293 62.6234 893.39 520.08
1920 0 101.193 14.0425 1421 61.3406 894.793 518.49
1921 1 51.0559 10.2437 523 64.348 894.526 543.075
1922 0 53.0605 11.3267 601 63.9967 894.015 542.928
1923 0 58.0545 11.782 684 63.6389 893.535 540.488
1924 0 58.0858 13.6694 794 62.2267 893.108 538.325
1925 0 61.1238 13.2191 808 62.703 892.526 538.171
1926 0 61.1896 12.306 753 64.0823 892.478 537.898
1927 0 65.1812 12.9945 847 62.9894 892.999 537.591
1928 0 65.0966 13.1036 853 63.3212 893.056 536.375
1929 0 69.1363 13.1769 911 63.5214 892.605 535.049
1930 0 68.054 13.0779 890 64.9989 893.2 534.379
1931 0 72.1589 12.9298 933 65.0461 892.852 533.233
1932 0 73.0549 13.0724 955 65.1382 892.879 532.603
1933 0 77.1833 14.4332 1114 63.2612 892.961 531.597
1934 0 80.1026 13.6949 1097 63.9572 893.069 530.587
1935 0 82.1325 13.0034 1068 65.4747 892.719 527.683
1936 0 86.1595 13.4286 1157 64.2904 892.643 527.793
1937 0 89.1569 13.6164 1214 64.6318 892.985 525.482
1938 0 93.0613 12.8088 1192 65.4656 893.127 523.652
1939 0 96.1269 13.8359 1330 64.3323 893.437 521.173
1940 1 53.0258 11.3718 603 66.524 894.166 542.879
1941 0 53.1398 12.1943 648 65.1775 893.969 542.585
1942 0 55.116 13.1722 726 63.7961 893.825 540.391
1943 0 58.0903 12.6871 737 64.1343 894.03 540.719
1944 0 61.1785 13.1255 803 63.9988 893.851 538.455
1945 0 60.0217 13.6617 820 61.9073 894.128 538.762
1946 0 62.0811 12.7253 790 63.1671 894.309 537.453
1947 0 66.056 13.7308 907 61.376 894.127 536.524
1948 0 66.1226 13.8984 919 61.951 894.267 533.365
1949 0 67.1891 13.9011 934 62.0931 893.922 532.669
1950 0 70.2398 15.02 1055 60.2161 894.197 532.448
1951 0 72.2446 13.2328 956 62.3107 894.093 531.748
1952 0 75.1884 14.2176 1069 60.9158 894.049 529.647
1953 0 76.1212 13.8726 1056 62.1203 895.017 525.985
1954 0 78.0695 13.4752 1052 62.3327 895.136 527.522
1955 0 81.2895 14.3684 1168 60.6173 895.362 525.479
1956 0 84.1854 14.5156 1222 60.4108 895.076 524.309
1957 0 87.4516 13.2988 1163 61.8899 895.386 523.817
1958 0 89.1244 14.3283 1277 60.7392 895.564 519.295
1959 0 95.1728 15.7923 1503 58.0878 895.517 517.037
1960 1 51.1504 12.1993 624 61.5337 896.022 540.442
1961 0 50.2989 11.8889 598 61.4582 896.022 538.574
1962 0 51.1979 11.9146 610 61.6623 895.4 538.798
1963 0 53.1509 11.8154 628 62.2245 896.127 537.869
1964 0 54.1934 12.9905 704 60.7031 895.71 536.812
1965 0 58.2095 13.7091 798 60.3145 895.886 534.378
1966 0 60.5321 13.3152 806 60.4739 896.392 532.493
1967 0 62.2739 13.6654 851 59.745 896.311 533.877
1968 0 62.2169 15.4781 963 57.8422 896.872 530.922
1969 0 65.3324 15.4594 1010 57.5931 896.903 530.172
1970 0 66.165 14.0407 929 59.9806 897.266 526.366
1971 0 69.3855 15.1472 1051 58.0913 897.334 527.951
1972 0 71.1808 14.8917 1060 58.3802 897.432 524.563
1973 0 74.2744 14.2041 1055 59.2095 897.372 523.955
1974 0 77.2517 15.8702 1226 56.3295 897.75 523.972
1975 0 81.3887 14.5598 1185 57.8371 898.111 521.403
1976 0 84.3873 15.2393 1286 56.8219 898.205 520.725
1977 0 87.3365 15.2628 1333 56.7202 898.564 519.075
1978 0 89.3339 15.5036 1385 56.5061 899.063 518.318
1979 0 93.2946 15.0277 1402 56.4173 898.659 516.209
1980 0 95.186 15.1283 1440 56.8125 899.548 512.356
1981 1 51.256 11.4913 589 58.9338 898.463 537.582
1982 0 51.3602 11.468 589 60.0679 898.829 537.121
1983 0 52.2142 12.736 665 58.9368 898.872 535.304
1984 0 56.4179 13.3468 753 58.239 899 533.636
1985 0 56.1895 13.8104 776 59.0026 898.843 531.022
1986 0 57.426 14.2096 816 58.451 898.803 531.575
1987 0 61.1504 14.5379 889 57.3082 898.756 529.787
1988 0 60.1874 15.269 919 57.0881 898.547 530.724
1989 0 64.2312 14.5568 935 57.3209 898.234 529.487
1990 0 64.4017 14.363 925 58.573 898.397 528.086
1991 0 69.2902 15.6876 1087 56.172 898.774 528.09
1992 0 71.2053 14.4512 1029 57.5364 898.967 527.966
1993 0 71.2876 14.21 1013 58.8628 898.649 524.784
1994 0 74.374 13.4321 999 59.4875 898.551 523.242
1995 0 78.2325 14.1373 1106 59.0533 898.143 522.32
1996 0 79.2169 14.9084 1181 58.3649 898.133 519.872
1997 0 85.2107 14.6226 1246 57.8796 897.921 520.478
1998 0 87.1446 14.2292 1240 58.529 897.884 519.223
1999 0 88.4308 14.4294 1276 59.3832 898.027 516.888
2000 0 91.2703 14.9118 1361 58.917 898.311 515.337
2001 0 94.3743 14.4743 1366 59.4663 898.002 515.402
2002 0 97.2363 13.9146 1353 60.3947 897.661 511.457
2003 0 102.443 15.267 1564 57.649 897.084 512.378
2004 0 103.26 14.2552 1472 59.6549 897.085 507.575
2005 0 110.264 15.4267 1701 57.9906 897.047 507.755
2006 1 62.061 11.7465 729 59.0947 897.086 533.702
2007 0 64.0807 13.0617 837 58.6619 897.106 528.83
2008 0 66.1226 12.2348 809 60.1928 897.042 525.644
2009 0 70.1951 13.4625 945 58.2413 897.229 525.84
2010 0 71.1956 12.7255 906 59.7384 897.317 524.422
2011 0 74.1537 13.1619 976 58.7111 897.236 523.653
2012 0 76.2023 13.2804 1012 58.916 897.155 521.956
2013 0 81.1483 14.2086 1153 56.9029 896.885 522.775
2014 0 83.0881 13.1547 1093 58.678 896.43 520.973
2015 0 86.2052 12.7138 1096 59.3677 896.149 520.329
2016 0 88.246 14.4822 1278 57.7332 895.972 517.478
2017 0 90.3298 13.9267 1258 58.8911 895.951 517.298
2018 0 93.1625 12.6982 1183 60.738 896.286 515.257
2019 0 97.1704 13.0287 1266 60.6588 895.694 513.343
2020 0 100.178 13.7656 1379 59.4068 896.065 513.606
2021 1 56.3089 10.1227 570 60.7439 896.116 535.154
2022 0 57.2275 10.1525 581 59.3597 896.824 536.107
2023 0 59.1081 11.3521 671 60.1207 897.124 531.693
2024 0 61.1091 11.7822 720 59.7417 897.314 532.618
2025 0 62.1691 11.71 728 60.5577 897.334 531.944
2026 0 68.1299 12.8284 874 58.1979 897.442 528.936
2027 0 68.1641 11.8537 808 59.3812 896.844 529.592
2028 0 72.146 12.2529 884 59.1663 896.568 527.023
2029 0 74.2897 13.1243 975 58.4226 895.256 526.695
2030 0 78.1986 12.7368 996 58.3755 895.988 525.18
2031 0 79.1338 12.7506 1009 58.9653 896.805 525.046
2032 0 83.3245 12.5413 1045 59.6335 896.367 522.471
2033 0 85.2777 12.8287 1094 59.9707 895.793 521.481
2034 0 87.2685 11.8027 1030 60.8233 895.324 520.466
2035 1 45.2154 9.35523 423 60.1489 895 544.518
2036 0 47.0838 10.1946 480 59.8896 895.417 540.496
2037 0 52.0984 11.3055 589 58.2564 895.463 538.862
2038 0 52.0683 10.7167 558 59.3692 896.025 537.604
2039 0 53.0325 11.6155 616 58.3782 895.622 538.463
2040 0 54.0929 11.9239 645 58.7736 895.107 537.208
2041 0 57.1107 12.467 712 57.7331 895.281 536.742
2042 0 56.154 11.2726 633 59.8815 894.951 535.273
2043 0 59.0701 12.5783 743 58.6124 894.114 534.67
2044 0 59.1303 12.0919 715 59.0811 894.225 534.53
2045 0 63.0732 11.8592 748 58.6591 893.862 534.697
2046 0 64.123 11.4 731 58.9453 893.936 535.943
2047 0 65.1477 13.2775 865 57.6012 894.764 532.395
2048 0 67.1119 13.6042 913 57.4326 894.788 529.062
2049 0 69.0613 13.7124 947 57.5649 894.68 529.402
2050 0 71.094 12.0826 859 58.83 895.034 530.657
2051 0 72.146 13.2786 958 57.8664 894.209 530.547
2052 0 75.1493 12.0693 907 59.4675 894.638 528.469
2053 0 76.0784 12.0796 919 59.7933 894.41 527.109
2054 0 78.2243 12.592 985 61.0893 894.237 525.865
2055 0 81.1232 13.0665 1060 60.65 893.908 524.25
2056 0 84.1275 12.4335 1046 61.5478 893.641 524.105
2057 0 86.0625 13.6993 1179 60.7116 893.451 522.072
2058 0 88.16 13.4301 1184 61.6402 893.785 523.078
2059 0 90.2505 13.0526 1178 62.7946 894.114 519.989
2060 0 95.1535 13.0631 1243 61.9614 893.854 519.447
2061 0 97.5337 13.0416 1272 62.7814 894.164 517.028
2062 0 100.244 13.7663 1380 62.1826 894.331 514.736
2063 0 101.409 13.7857 1398 63.0086 894.024 515.557
2064 1 57.2641 12.2066 699 63.1502 894.064 536.702
2065 0 58.3862 11.8007 689 64.3643 893.987 535.988
2066 0 58.1963 12.3719 720 64.6556 893.511 535.456
2067 0 61.196 12.4681 763 65.1389 893.903 534.735
2068 0 63.2503 13.0276 824 64.1056 893.339 534.013
2069 0 65.3394 12.0907 790 65.3203 894.125 534.095
2070 0 66.2065 12.5214 829 65.3076 893.799 532.668
2071 0 68.3387 13.0526 892 64.9114 894.599 529.624
2072 0 69.3387 13.1528 912 66.5822 894.74 531.249
2073 0 73.2446 14.158 1037 64.6172 894.411 529.481
2074 0 74.163 13.713 1017 66.3088 894.934 527.76
2075 0 77.2733 14.5587 1125 65.2071 894.426 526.925
2076 0 78.3162 14.4542 1132 66.0636 894.493 525.753
2077 0 81.235 14.1318 1148 66.9625 894.683 524.666
2078 0 82.4638 13.8485 1142 67.6935 894.43 524.761
2079 0 86.2489 14.5625 1256 66.7707 894.32 522.219
2080 0 86.2915 14.6017 1260 68.069 894.72 521.571
2081 0 91.3112 14.1604 1293 68.2831 895.067 519.281
2082 0 93.1842 14.466 1348 67.9955 895.327 518.694
2083 0 94.3981 14.3541 1355 69.0775 895.707 515.323
2084 0 99.4064 14.8381 1475 68.2969 895.967 513.947
2085 0 102.251 15.0218 1536 68.4622 895.751 512.771
2086 0 104.443 15.0226 1569 68.1058 896.097 512.542
2087 1 54.1594 11.2815 611 71.6203 895.998 536.686
2088 0 57.124 12.044 688 70.8488 896.573 535.583
2089 0 56.224 11.6676 656 72.6646 896.822 535.628
2090 0 60.218 12.9862 782 70.1023 897.128 533.004
2091 0 62.0965 14.0104 870 69.1966 897.113 532.81
2092 0 62.0891 13.3196 827 71.6675 897.542 531.59
2093 0 65.2475 13.9622 911 70.3754 897.582 529.125
2094 0 68.1724 14.2286 970 69.4629 897.751 528.641
2095 0 69.2032 12.9185 894 71.5515 897.754 528.472
2096 0 71.2386 13.167 938 71.5714 897.557 526.871
2097 0 75.2165 13.5742 1021 70.2253 897.419 525.918
2098 0 76.3537 13.3065 1016 71.9439 897.462 523.553
2099 0 78.1464 13.2316 1034 72.3607 897.5 522.3
2100 0 82.2249 14.7036 1209 69.7692 897.446 522.523
2101 0 84.1597 14.1636 1192 70.5067 898.025 522.142
2102 0 86.0987 13.5426 1166 71.4331 898.21 520.964
2103 0 90.1718 13.7515 1240 71.0685 898.397 518.964
2104 0 92.1081 14.0161 1291 71.4717 898.69 517.222
2105 1 51.2389 10.7926 553 72.6781 898.689 537.893
2106 0 51.0533 11.8504 605 71.9124 899.136 538.555
2107 0 54.0572 11.6173 628 73.1975 899.258 534.416
2108 0 54.1499 13.1487 712 71.0435 899.147 534.848
2109 0 57.1074 13.1156 749 70.5394 899.162 534.41
2110 0 58.0202 12.668 735 71.0544 899.359 533.484
2111 0 60.0829 13.1152 788 70.519 899.456 532.496
2112 0 61.055 13.3814 817 70.3709 899.465 531.971
2113 0 64.0699 12.4395 797 71.2698 900.069 530.918
2114 0 66.1444 13.3798 885 69.0825 899.399 529.033
2115 0 67.1107 13.8428 929 68.9494 899.595 528.63
2116 0 70.1515 13.6561 958 67.1503 899.496 528.937
2117 0 72.1013 13.1204 946 67.5825 899.473 526.448
2118 0 74.1355 13.1786 977 66.9816 899.347 526.396
2119 0 78.1031 14.5321 1135 64.6987 899.084 524.322
2120 0 79.1048 14.5882 1154 65.0399 898.834 521.31
2121 0 83.0767 14.8778 1236 63.873 898.639 519.944
2122 0 84.0912 13.2475 1114 66.3869 898.364 517.186
2123 0 87.1075 13.3284 1161 66.0034 897.829 518.176
2124 0 92.1137 14.1673 1305 63.9134 897.766 519.271
2125 0 94.2872 14.9013 1405 62.9637 897.756 513.521
2126 1 55.042 12.6449 696 63.5819 897.397 535.371
2127 0 55.163 12.309 679 63.1443 897.112 536.991
2128 0 58.038 11.5269 669 63.7489 897.001 536.852
2129 0 59.1007 12.724 752 62.8896 897.153 537.062
2130 0 59.1098 13.3311 788 63.5546 897.104 533.086
2131 0 61.0886 12.9975 794 63.573 896.754 531.565
2132 0 65.1597 12.9835 846 62.7837 896.725 532.284
2133 0 66.1164 13.3401 882 62.4059 896.091 531.465
2134 0 67.112 13.321 894 63.0336 896.138 529.036
2135 0 70.2609 13.0941 920 62.6598 896.428 529.436
2136 0 73.1296 13.1957 965 62.3244 896.092 528.873
2137 0 74.1025 13.4139 994 62.3974 895.513 527.78
2138 0 77.2165 12.8859 995 63.0995 895.927 525.731
2139 0 79.2253 13.5184 1071 62.746 895.161 526.132
2140 0 83.2518 13.5252 1126 62.3641 895.306 523.859
2141 0 82.1782 13.057 1073 64.3579 894.962 522.832
2142 0 87.0993 14.2251 1239 62.3035 894.927 521.362
2143 1 45.1518 10.055 454 65.8216 894.786 540.965
2144 0 48.0214 11.0784 532 63.5226 895.387 543.071
2145 0 50.0972 11.5974 581 64.2151 895.036 540.377
2146 0 51.0405 11.5007 587 64.0034 894.884 539.337
2147 0 53.1085 12.6157 670 62.8597 894.758 538.599
2148 0 53.1311 12.9303 687 63.7904 895.801 537.79
2149 0 56.0305 12.5111 701 64.2867 895.268 536.903
2150 0 59.0353 13.7545 812 62.6823 895.156 536.411
2151 0 61.0474 13.5632 828 63.4372 895.158 535.097
2152 0 62.1364 13.5669 843 63.981 895.298 534.518
2153 0 65.045 12.6835 825 64.6461 895.216 535.183
2154 0 67.0646 13.2857 891 64.2705 895.334 534.409
2155 0 70.1095 14.4346 1012 62.8706 894.874 533.893
2156 0 70.0797 14.0269 983 64.2706 894.77 531.626
2157 0 73.0299 13.6519 997 64.4574 894.624 531.77
2158 0 77.0925 13.7368 1059 64.2786 895.178 529.652
2159 0 78.0963 13.4962 1054 65.2619 894.719 529.2
2160 0 83.0701 13.8919 1154 64.4151 894.578 526.501
2161 1 44.0544 10.3281 455 66.6945 894.58 546.677
2162 0 48.0187 11.6621 560 65.8286 894.839 544.655
2163 0 47.1175 11.5032 542 66.8229 894.618 544.12
2164 0 48.0694 12.2739 590 66.9085 895.246 542.441
2165 0 50.0561 12.3462 618 67.0485 894.503 543.107
2166 0 50.0784 12.74 638 67.9373 894.313 542.318
2167 0 53.0576 13.2498 703 67.3954 894.744 542.259
2168 0 56.0912 13.4602 755 66.9272 893.981 540.242
2169 0 56.1346 13.9842 785 66.9274 893.539 539.304
2170 0 57.0751 13.6662 780 68.0218 893.626 537.846
2171 0 59.2548 13.6698 810 67.5531 893.748 537.385
2172 0 60.0913 14.1285 849 67.6431 893.549 536.793
2173 0 62.2314 14.1086 878 67.5786 893.456 536.994
2174 0 66.2245 13.9828 926 67.2829 894.036 535.288
2175 0 67.2358 14.7243 990 66.7172 893.262 532.121
2176 0 69.1423 14.8968 1030 65.5427 893.818 534.163
2177 0 70.1503 13.8987 975 69.2359 893.673 531.725
2178 0 73.1313 14.6449 1071 67.5714 893.539 531.233
2179 0 75.142 15.4507 1161 66.4763 894.493 529.93
2180 0 75.1725 14.0876 1059 69.441 894.1 529.035
2181 0 78.1578 14.5603 1138 68.5255 894.516 528.213
2182 0 77.1688 14.5525 1123 172.434 894.475 527.866
2183 0 82.0957 14.8242 1217 68.6615 894.191 525.372
2184 0 86.1711 14.4016 1241 68.3022 894.249 525.263
2185 0 90.2441 16.1229 1455 65.7574 894.419 521.069
2186 0 93.2084 15.4707 1442 66.3405 894.512 520.26
2187 0 97.1821 14.478 1407 67.5572 894.842 518.694
2188 0 100.271 14.7699 1481 67.3423 895.205 517.686
2189 1 56.1583 12.2867 690 69.387 895.671 539.152
2190 0 58.1293 12.3174 716 68.9679 895.563 537.348
2191 0 58.0845 13.7214 797 67.8582 895.25 537.04
2192 0 62.1322 13.262 824 67.6032 895.913 536.742
2193 0 65.2377 14.2096 927 65.7131 895.837 534.554
2194 0 65.0856 13.5668 883 67.0827 896.411 533.713
2195 0 67.2725 14.5082 976 65.3299 896.555 532.297
2196 0 69.091 13.75 950 66.6453 896.715 527.311
2197 0 73.2803 14.5196 1064 63.9906 897.402 527.811
2198 0 74.2087 13.6372 1012 65.3577 896.962 528.002
2199 0 76.051 13.8986 1057 65.509 897.063 524.888
2200 0 80.1059 14.1063 1130 64.6142 897.267 524.219
2201 0 83.1249 14.4121 1198 63.4215 897.272 523.617
2202 0 83.167 13.1903 1097 66.1012 897.352 520.242
2203 0 88.2489 13.6999 1209 64.6427 898.021 519.808
2204 0 91.1232 15.0675 1373 63.3736 897.95 518.87
2205 0 95.1374 14.9573 1423 62.8904 898.387 516.479
2206 0 97.158 14.3272 1392 64.0266 898.558 514.372
2207 0 101.116 14.0532 1421 64.3716 898.863 513.46
2208 1 62.1602 12.2908 764 63.8626 898.772 532.559
2209 0 60.1201 11.2941 679 66.056 898.932 531.012
2210 0 64.046 13.0375 835 63.9257 899.247 529.521
2211 0 64.0787 13.2337 848 63.3208 898.772 529.721
2212 0 68.0955 14.7587 1005 60.8687 898.725 527.194
2213 0 72.0612 13.8355 997 61.1214 899.122 526.898
2214 0 75.0772 14.1188 1060 60.0198 899.02 526.573
2215 0 76.1566 13.2621 1010 61.4426 899.17 525.251
2216 0 78.1378 14.1929 1109 60.6312 899.417 523.951
2217 0 83.193 13.7031 1140 61.1053 899.756 521.951
2218 0 85.2272 13.8571 1181 60.6054 899.817 520.618
2219 0 88.1891 13.0969 1155 61.8909 899.87 519.359
2220 0 92.1763 13.9732 1288 60.028 900.274 517.266
2221 0 93.2137 14.2254 1326 60.5347 899.704 516.176
2222 0 94.2127 12.7902 1205 63.4315 900.095 511.871
2223 0 100.228 14.7065 1474 60.3982 899.885 511.712
2224 0 104.185 14.4743 1508 60.1718 900.071 511.445
2225 0 105.1 13.3777 1406 62.0825 899.705 509.757
2226 1 58.0714 10.4871 609 61.9475 899.603 533.726
2227 0 59.0692 10.4454 617 62.295 899.908 532.211
2228 0 60.2315 9.87855 595 63.7328 899.652 529.867
2229 0 65.1728 12.1063 789 61.6451 899.041 529.009
2230 0 65.1345 13.357 870 61.0322 899.367 526.559
2231 0 69.1504 13.1886 912 60.8618 899.568 527.928
2232 0 69.0828 12.6225 872 62.2489 899.728 527.788
2233 0 72.2408 12.7352 920 62.3728 899.155 523.657
2234 0 75.184 13.0081 978 61.8354 899.527 522.537
2235 0 75.1492 12.6947 954 63.3008 898.94 522.982
2236 0 78.2042 12.5952 985 62.9878 898.968 522.746
2237 0 81.3287 13.0335 1060 63.1387 898.437 520.327
2238 0 85.1939 13.4282 1144 61.5717 898.67 519.962
2239 0 87.2532 12.8477 1121 62.9607 898.496 517.886
2240 0 89.313 13.5703 1212 62.4084 898.388 515.987
2241 0 93.2182 13.2807 1238 62.7843 898.299 513.422
2242 0 97.2556 14.1071 1372 60.9322 897.87 512.093
2243 0 100.172 14.3453 1437 60.5226 897.609 511.98
2244 0 103.23 14.24 1470 61.1639 899.172 507.45
2245 0 105.208 13.0788 1376 62.798 898.672 505.943
2246 0 110.211 13.4379 1481 61.8325 898.191 504.816
2247 0 113.305 13.9623 1582 60.866 898.025 501.437
2248 0 117.238 14.1336 1657 61.029 898.199 500.181
2249 1 67.1939 10.879 731 61.1792 898.231 528.146
2250 0 69.2169 11.8468 820 59.4354 897.734 530.959
2251 0 72.1769 12.0537 870 60.4011 897.811 527.471
2252 0 73.2034 12.7043 930 60.286 897.535 526.444
2253 0 76.1197 13.3868 1019 59.1688 897.551 525.434
2254 0 78.2357 13.5105 1057 59.7105 897.153 523.213
2255 0 81.2242 13.7398 1116 59.4561 896.969 523.789
2256 0 83.3704 13.8059 1151 59.993 896.84 521.209
2257 0 84.2813 12.2922 1036 61.8996 896.85 521.602
2258 0 87.456 12.6464 1106 61.5036 896.94 518.993
2259 0 89.3579 12.6905 1134 61.3959 896.688 519.296
2260 0 95.6201 13.1562 1258 60.4396 896.642 519.577
2261 0 95.3547 13.2453 1263 61.5922 896.573 516.645
2262 0 98.2575 12.1314 1192 63.5755 896.559 514.633
2263 0 102.308 12.8339 1313 62.2719 896.457 510.609
2264 0 105.299 13.5708 1429 61.3765 897.232 511.593
2265 1 58.2506 9.73381 567 63.7478 897.462 534.478
2266 0 60.2061 9.73324 586 63.7099 897.14 535.295
2267 0 60.1976 10.7978 650 63.7538 897.163 532.343
2268 0 62.1975 11.8815 739 62.9418 897.407 535.138
2269 0 62.0458 12.2812 762 63.1995 896.715 532.814
2270 0 64.0607 12.5974 807 62.7286 896.763 533.207
2271 0 67.1647 13.0872 879 62.3197 896.501 532.845
2272 0 67.0492 12.9457 868 63.4516 896.432 530.879
2273 0 70.1275 13.0191 913 63.1501 896.206 527.882
2274 0 74.1595 13.026 966 62.3758 896.373 529.093
2275 0 75.1778 13.7009 1030 61.8447 896.506 528.246
2276 0 78.1181 13.3004 1039 62.0029 896.516 527.5
2277 0 78.1487 12.9113 1009 63.4876 896.655 525.45
2278 0 82.2382 13.1204 1079 63.0287 896.204 524.306
2279 0 84.2037 13.883 1169 61.9504 896.262 524.686
2280 0 87.2236 13.8609 1209 62.1092 895.726 522.074
2281 0 92.2597 13.2994 1227 61.8615 896.055 522.87
2282 0 94.3903 15.3512 1449 59.5604 895.6 519.594
2283 0 98.2302 14.578 1432 60.5761 895.618 519.208
2284 0 99.3969 13.4914 1341 62.5973 895.579 515.204
2285 0 103.298 15.0439 1554 60.8629 895.21 516.441
2286 0 106.33 14.2669 1517 62.1285 895.421 513.376
2287 1 60.2984 11.1114 670 64.6388 895.713 536.246
2288 0 63.2394 12.5555 794 63.8589 895.407 534.746
2289 0 65.3386 11.1113 726 64.9725 895.321 535.16
2290 0 68.2141 11.6691 796 63.9322 895.101 535.639
2291 0 68.3588 12.6099 862 64.3689 895.048 532.292
2292 0 72.2465 13.8415 1000 61.791 894.891 531.963
2293 0 73.2283 13.2462 970 63.1062 894.647 529.306
2294 0 77.2574 13.0085 1005 63.2975 895.027 529.119
2295 0 79.2799 13.0424 1034 63.2747 895.191 527.854
2296 0 81.3624 13.4829 1097 62.4002 895.057 526.153
2297 0 83.1008 14.2839 1187 61.1542 895.284 523.092
2298 0 87.3042 14.2147 1241 61.2925 895.274 523.201
2299 0 91.296 15.0499 1374 59.8413 895.301 521.919
2300 0 95.1862 14.5189 1382 60.1961 895.16 522.642
2301 0 95.1065 13.8897 1321 61.4474 894.949 517.749
2302 0 100.199 14.9303 1496 59.7447 894.812 518.316
2303 0 103.329 14.236 1471 60.8287 894.517 516.853
2304 0 104.226 13.8737 1446 61.4737 894.739 514.19
2305 0 110.185 14.7298 1623 59.9686 894.466 514.869
2306 0 111.167 14.1498 1573 61.1882 895.072 513.116
2307 0 116.19 15.2078 1767 59.8155 894.986 510.556
2308 0 118.233 13.6256 1611 62.0385 894.981 510.263
2309 0 123.301 15.4338 1903 59.3148 894.995 508.89
2310 0 123.289 14.1457 1744 61.6709 895.139 504.466
2311 0 128.159 13.7173 1758 62.0882 895.356 505.119
2312 1 73.233 12.2895 900 63.7689 895.229 526.972
2313 0 75.2176 13.9063 1046 61.9455 895.32 525.862
2314 0 80.412 13.8536 1114 62.0889 895.369 524.311
2315 0 79.2684 13.3975 1062 63.3729 895.541 523.337
2316 0 85.3515 14.3524 1225 61.1698 895.423 521.89
2317 0 86.1548 14.0793 1213 62.3949 896.02 519.463
2318 0 89.3279 14.2956 1277 61.8857 896.027 519.993
2319 0 92.3947 14.8926 1376 61.8953 895.887 519.217
2320 0 93.1801 14.6169 1362 63.0595 896.059 514.758
2321 0 99.3425 15.4818 1538 61.8505 896.189 513.748
2322 0 103.629 14.9862 1553 62.0457 896.529 514.112
2323 0 104.274 15.2962 1595 62.2746 896.644 512.098
2324 0 106.276 15.1116 1606 63.1065 896.577 507.561
2325 0 112.371 15.5913 1752 61.863 896.974 506.846
2326 0 113.322 15.6281 1771 62.6098 897.09 504.119
2327 0 116.502 15.2701 1779 63.4075 896.753 504.056
2328 0 123.484 17.1358 2116 60.232 897.066 502.599
2329 0 126.389 15.7371 1989 62.6742 897.365 497.023
2330 0 128.27 15.4206 1978 63.3261 897.368 495.114
2331 0 134.287 16.7254 2246 61.5877 897.509 495.866
2332 0 137.291 15.886 2181 62.9917 897.746 492.504
2333 0 140.123 15.0654 2111 64.613 897.969 488.17
2334 0 147.346 16.4103 2418 62.6935 898.233 486.24
2335 1 62.2115 8.69615 541 66.2126 898.314 528.29
2336 0 66.2345 11.2479 745 64.0456 898.29 528.077
2337 0 69.1956 11.3157 783 63.5926 898.49 527.326
2338 0 71.2589 13.065 931 62.5456 898.34 524.103
2339 0 71.2062 12.7657 909 63.8031 898.3 523.504
2340 0 75.1027 12.6493 950 63.8779 898.341 521.389
2341 0 76.2787 12.769 974 64.0719 898.503 522.977
2342 0 80.1156 13.2683 1063 62.921 898.93 522.192
2343 0 81.2068 13.2378 1075 63.7991 899.268 517.88
2344 0 84.1844 13.7674 1159 63.3736 899.292 516.018
2345 0 87.2147 13.4381 1172 63.5904 899.328 516.742
2346 0 91.3605 14.1418 1292 62.6741 899.317 514.831
2347 0 94.0789 13.7969 1298 63.2565 899.855 513.28
2348 0 95.1651 13.3242 1268 64.474 899.644 509.997
2349 0 99.23 13.897 1379 63.3597 899.536 511.379
2350 0 103.106 14.3542 1480 62.9899 899.566 509.566
2351 0 105.22 13.1059 1379 65.1849 899.613 503.943
2352 0 108.167 14.5054 1569 63.8426 900.221 502.647
2353 0 113.338 14.5582 1650 63.6152 900.027 504.012
2354 0 114.297 13.4561 1538 66.0501 899.625 497.044
2355 0 119.144 14.6713 1748 64.6859 899.465 499.194
2356 1 48.1235 10.0159 482 57.1971 899.809 538.548
2357 0 49.0783 9.37278 460 58.0935 900.433 537.441
2358 0 51.1337 9.87606 505 58.0733 900.497 535.808
2359 0 50.0824 9.24477 463 59.1641 899.408 536.68
2360 0 51.0677 10.163 519 58.264 899.942 535.617
2361 0 52.0197 11.3226 589 57.9762 899.985 535.384
2362 0 53.083 9.7018 515 59.0777 899.891 535.715
2363 0 54.034 10.845 586 57.785 900.273 534.906
2364 0 54.0439 10.0289 542 58.9262 899.546 535.197
2365 0 54.1097 9.59163 519 58.8266 899.297 535.376
2366 0 52.0406 9.06985 472 60.7839 899.311 534.218
2367 0 55.0312 10.3033 567 59.4621 899.106 534.284
2368 0 54.045 9.5291 515 59.7709 898.878 533.118
2369 0 54.0821 9.4301 510 60.8804 899.341 534.241
2370 0 54.0781 9.2089 498 61.494 898.942 533.39
2371 0 56.1137 9.30255 522 59.8161 899.216 534.207
2372 0 55.1624 9.73489 537 60.4264 898.689 532.635
2373 0 58.098 10.5167 611 58.5041 898.339 532.579
2374 0 58.1348 8.44588 491 59.558 898.316 534.837
2375 0 57.0464 7.71302 440 61.025 898.298 534.173
2376 0 59.0789 10.359 612 58.1814 898.273 529.967
2377 0 61.1004 8.87065 542 60.262 897.53 531.404
2378 0 61.0899 10.2963 629 59.5294 897.917 532.849
2379 0 60.1021 9.83327 591 59.7157 897.895 535.756
2380 0 60.1558 8.345 502 62.9562 897.871 533.624
2381 0 64.0519 8.07158 517 63.3017 897.93 534.137
2382 1 42.0487 9.98842 420 59.7286 897.898 540.143
2383 0 42.0106 9.90227 416 60.1394 898.565 541.786
2384 0 42.0239 9.9943 420 61.0762 898.983 543.138
2385 0 42.0086 9.80752 412 61.5267 898.456 542.701
2386 0 45.0772 11.3361 511 58.9354 898.495 543.047
2387 0 45.0328 9.70403 437 61.7346 898.243 543.92
2388 0 43.0177 10.6235 457 62.3545 898.617 543.58
2389 0 44.0538 11.1682 492 61.9919 898.25 542.657
2390 0 45.0282 11.1708 503 62.0398 898.093 542.471
2391 0 44.0304 10.7653 474 62.8544 898.338 545.03
2392 0 46.128 11.0995 512 62.002 898.445 544.008
2393 0 45.0464 10.7667 485 62.8495 897.922 543.503
2394 0 45.1151 11.0828 500 63.128 896.81 541.648
2395 0 47.0768 11.768 554 61.8592 896.444 543.572
2396 0 47.1062 12.0579 568 61.1303 896.678 544.771
2397 0 46.11 11.4292 527 63.8444 896.583 542.994
2398 0 45.1483 10.8974 492 64.376 896.707 542.37
2399 0 46.1219 11.6864 539 63.7514 896.219 542.176
2400 0 47.085 12.1482 572 62.972 896.318 542.427
2401 0 46.1771 11.5858 535 63.7159 895.916 541.888
2402 0 46.1753 12.4742 576 62.9167 896.102 542.03
2403 0 46.1394 11.2052 517 64.354 895.551 543.712
2404 0 47.1426 11.8152 557 63.5332 895.411 542.567
2405 0 46.1076 10.8659 501 65.483 895.194 541.595
2406 0 47.0704 12.4707 587 63.3986 894.692 540.581
2407 0 48.0914 11.894 572 63.9773 894.974 541.948
2408 0 48.0963 12.7868 615 63.039 894.8 542.641
2409 0 48.0721 12.7101 611 62.8036 895.286 542.439
2410 0 49.1661 12.2645 603 63.5141 895.098 542.463
2411 0 48.0801 11.8552 570 64.7474 894.323 542.596
2412 0 50.1519 13.2398 664 61.8494 895.163 543.572
2413 0 48.1636 12.2707 591 64.0846 894.621 543.113
2414 0 50.2565 13.5903 683 61.2167 894.915 542.073
2415 0 48.2155 12.4649 601 64.6156 894.674 543.855
2416 0 50.1645 13.077 656 63.529 894.642 544.05
2417 0 48.12 12.2818 591 65.5499 894.046 543.993
2418 0 48.1132 12.9486 623 64.2986 894.213 543.144
2419 0 49.1249 12.397 609 63.3875 894.461 544.153
2420 0 49.137 12.3532 607 63.6557 894.735 543.47
2421 0 48.1507 12.7309 613 63.447 894.571 543.524
2422 0 48.1021 12.5358 603 63.0398 894.534 544.579
2423 0 49.1198 13.9659 686 61.242 894.692 542.923
2424 0 48.121 12.2607 590 63.8576 894.361 543.192
2425 0 49.1371 12.8213 630 62.7571 894.61 543.806
2426 0 49.1506 13.7333 675 61.397 894.384 543.889
2427 0 50.1739 12.078 606 63.0297 894.343 544.152
2428 0 51.1301 13.5928 695 60.5842 894.508 544.61
2429 0 49.1824 13.8261 680 60.4721 894.676 544.628
2430 0 50.1121 13.4299 673 60.5765 894.517 543.257
2431 0 50.2653 13.011 654 61.1223 895.041 544.879
2432 0 50.143 13.3618 670 61.0552 894.885 542.857
2433 0 50.0817 13.8174 692 60.146 895.16 542.78
2434 0 51.0922 12.5851 643 61.605 895.538 542.837
2435 0 51.1769 13.1309 672 60.4345 895.22 543.168
2436 0 52.0931 14.0518 732 58.7664 895.717 543.389
2437 0 52.0783 13.9982 729 59.2812 895.672 543.1
2438 0 51.0468 12.9685 662 60.5045 895.571 544.533
2439 0 52.068 13.9049 724 58.9793 895.612 542.827
2440 0 49.1589 12.4494 612 62.3415 895.266 543.905
2441 0 51.1397 14.3333 733 59.1241 895.804 542.577
2442 0 50.1407 12.9236 648 61.0571 895.458 540.981
2443 0 49.072 13.5515 665 61.3699 895.43 542.284
2444 0 50.1021 12.8338 643 62.4417 895.267 542.252
2445 0 50.0794 12.8196 642 62.634 895.033 539.755
2446 0 49.1009 13.9712 686 61.1458 895.442 540.915
2447 0 50.1308 13.6842 686 59.9548 895.16 544.309
2448 0 51.1195 15.004 767 58.5319 895.529 542.291
2449 0 51.1615 13.4476 688 61.2326 896.048 538.808
2450 0 49.0905 12.9557 636 62.184 896.17 540.66
2451 0 50.0907 13.3558 669 61.3393 896.048 540.537
2452 0 50.0928 11.7781 590 63.7153 895.885 539.617
2453 0 50.0907 14.4139 722 59.9418 896.222 539.672
2454 0 50.0635 13.3231 667 60.6117 895.93 539.562
2455 0 50.1049 14.1104 707 58.9519 895.996 538.46
2456 0 50.1106 14.3083 717 58.0893 896.137 539.276
2457 0 50.1744 13.4531 675 59.4607 896.486 538.148
2458 0 52.1181 15.3306 799 56.7534 896.656 538.283
2459 0 50.0781 13.459 674 59.7982 896.562 539.843
2460 0 51.1525 12.5311 641 60.6349 897.08 539.08
2461 0 51.0986 13.7577 703 59.0341 897.233 539.344
2462 0 51.0971 13.2493 677 59.6071 897.48 538.699
2463 0 52.1384 13.4833 703 58.3912 897.744 539.771
2464 0 50.1516 12.1831 611 61.3568 897.841 539.506
2465 0 49.1629 13.0383 641 59.9173 898.172 538.357
2466 0 50.1512 13.6986 687 59.2504 898.345 538.039
2467 0 52.0991 13.7814 718 58.2521 898.603 538.979
