time division length width area intensity CMx CMy
0 0 80.2056 14.0639 1128 75.0106 122.075 533.585
1 0 84.1636 13.2599 1116 76.6783 121.607 530.069
2 1 44.0684 11.5048 507 76.1578 122.057 551.333
3 0 45.073 10.6716 481 77.8067 121.553 551.948
4 0 47.0619 11.113 523 78.4952 121.642 548.683
5 0 49.0198 11.1995 549 78.3333 122.22 551.053
6 0 49.0739 11.6151 570 78.4158 121.986 549.642
7 0 54.0337 12.2886 664 76.4051 121.432 547.598
8 0 54.0537 12.8946 697 76.1793 121.791 547.016
9 0 56.0358 12.5455 703 77.1735 122.03 547.115
10 0 56.0545 13.4869 756 76.0886 122.019 545.631
11 0 58.0671 11.8656 689 79.402 121.887 544.296
12 0 59.0985 12.0138 710 78.9915 122.258 544.349
13 0 64.0604 13.5029 865 75.4983 122.386 542.434
14 0 64.1963 12.306 790 78.5557 121.922 539.932
15 0 67.0843 12.8346 861 77.1278 123.333 540.987
16 0 69.1479 12.7987 885 77.3356 123.464 538.832
17 0 71.0568 12.6378 898 78.088 123.19 537.324
18 0 73.0767 12.6306 923 78.5677 123.219 534.744
19 0 76.0774 12.1981 928 78.2791 123.095 535.869
20 0 78.1849 13.2123 1033 76.8925 123.404 531.74
21 1 42.027 10.4933 441 76.2404 122.9 552.998
22 0 43.019 11.0416 475 76.6526 122.537 551.52
23 0 45.0223 11.572 521 74.0345 122.624 551.361
24 0 47.0713 12.0031 565 74.223 122.674 549.404
25 0 49.0377 12.1743 597 73.6181 122.724 548.4
26 0 48.1762 12.5373 604 74.6573 122.859 546.608
27 0 51.1274 12.5177 640 73.9172 122.956 545.706
28 0 52.0454 12.2778 639 76.2942 122.737 544.113
29 0 53.1703 11.9804 637 74.8948 122.776 544.683
30 0 56.0548 12.4878 700 73.9957 122.653 542.491
31 0 57.0406 11.9389 681 74.5609 122.921 543.493
32 0 59.1777 11.5753 685 75.038 122.512 541.818
33 0 60.0939 12.0811 726 74.2934 122.847 541.142
34 0 63.1138 13.0082 821 72.7515 123.128 539.951
35 0 64.1138 12.9925 833 72.892 122.784 538.724
36 0 67.0877 12.2377 821 73.4641 123.011 538.537
37 0 69.2249 12.221 846 73.5626 122.935 537.144
38 0 71.1207 12.4155 883 72.7486 123.105 536.946
39 0 75.2619 12.6093 949 72.4405 123.065 534.655
40 0 76.2554 11.3828 868 75.2972 123.132 533.685
41 1 38.0568 10.1953 388 74.384 123.381 551.601
42 0 38.0156 9.36458 356 76.2669 123.455 551.567
43 0 40.0396 10.6644 427 74.0422 123.272 550.518
44 0 41.055 9.9379 408 76.0098 123.694 549.225
45 0 44.0185 11.5633 509 73.2613 124.517 548.595
46 0 45.0529 11.1647 503 74.6402 125.034 547.845
47 0 47.037 12.4158 584 72.7517 125.307 547.858
48 0 46.0747 11.9371 550 75.5582 125.476 546.475
49 0 49.0281 11.7688 577 75.227 125.88 545.977
50 0 49.0474 12.2127 599 74.9783 125.593 548.407
51 0 52.1408 11.6991 610 75.5541 125.511 546.7
52 0 53.0924 12.3746 657 74.9163 125.932 544.347
53 0 52.1708 12.2291 638 77.0204 125.693 543.574
54 0 56.0331 12.4748 699 75.6137 124.649 542.805
55 0 57.0477 11.9198 680 69.5588 125.01 543.729
56 0 59.0474 12.6 744 68.5027 124.714 542.031
57 0 62.0521 12.2961 763 67.6003 124.839 542.066
58 0 64.1362 12.645 811 68.4809 124.597 537.559
59 0 66.1374 12.595 833 69.9136 125.383 538.697
60 0 70.1243 12.1356 851 71.6733 124.503 538.016
61 0 71.0636 12.9743 922 71.0499 124.394 535.47
62 0 71.0428 12.3869 880 73.3 124.305 534.611
63 1 40.0344 10.9905 440 73.4114 124.311 550.12
64 0 42.1414 10.536 444 71.8288 124.106 550.518
65 0 43.0441 10.919 470 72.5872 124.181 549.202
66 0 43.0394 11.199 482 74 124.473 548.008
67 0 44.0688 11.0282 486 75.9835 125.665 547.765
68 0 46.0865 12.1945 562 73.6246 125.779 546.61
69 0 46.0882 12.0855 557 75.1831 126.571 546.145
70 0 47.0425 12.6906 597 74.191 126.072 545.065
71 0 50.0288 11.4534 573 75.4852 125.955 545.129
72 0 52.199 12.5864 657 73.2998 125.309 542.584
73 0 54.2314 11.3034 613 94.478 125.586 543.467
74 0 54.2164 12.8743 698 73.3138 126.812 542.451
75 0 56.2077 13.0053 731 73.0397 126.135 539.662
76 0 58.379 13.1211 766 72.6319 126.855 538.316
77 0 60.3013 13.7476 829 71.3028 126.73 537.773
78 0 59.2514 13.4849 799 72.9161 126.957 536.309
79 0 61.3052 12.5927 772 74.4028 126.711 535.815
80 0 63.4472 13.0345 827 73.4692 127.056 532.967
81 0 65.3115 13.4586 879 73.1991 126.803 531.147
82 0 68.3199 13.349 912 72.5658 126.89 530.657
83 0 70.416 13.6475 961 72.6514 127.563 529.81
84 0 70.5408 12.5601 886 75.1388 127.297 527.936
85 0 74.4772 12.6616 943 74.9883 127.768 526.263
86 1 38.3993 10.1043 388 75.1082 127.41 544.771
87 0 43.512 10.342 450 72.9933 127.598 543.991
88 0 42.3516 11.5698 490 71.9653 127.837 542.643
89 0 44.3049 11.9626 530 72.434 128.674 541.749
90 0 47.2163 11.6697 551 72.6588 128.127 540.37
91 0 45.2598 13.1684 596 71.7416 129.294 538.782
92 0 47.2419 12.2984 581 72.0981 129.485 538.086
93 0 47.1971 12.6067 595 71.1849 129.634 537.218
94 0 51.2867 13.3563 685 67.7912 129.477 536.218
95 0 51.4213 11.5711 595 69.3076 129.6 535.622
96 0 53.4183 12.3553 660 67.7833 129.692 534.245
97 0 55.2994 12.6945 702 89.8803 129.734 534.261
98 0 55.2994 12.6945 702 152.121 130.729 534.301
99 0 58.1819 12.8219 746 67.5188 129.001 531.973
100 0 59.328 12.3045 730 70.4068 129.763 532.241
101 0 59.2194 12.5972 746 70.9129 129.601 530.105
102 0 59.2447 12.5243 742 72.2871 129.788 529.613
103 0 64.4826 13.3214 859 68.8882 129.551 528.637
104 0 65.4336 13.1125 858 70.0932 129.788 527.573
105 0 68.381 11.9916 820 72.2976 129.67 526.34
106 0 70.4914 12.6115 889 71.4904 130.298 525.304
107 0 72.5113 12.5084 907 72.1499 130.294 522.925
108 0 75.5146 11.8917 898 72.3775 130.125 523.077
109 1 39.276 9.82789 386 71.9689 130.174 539.352
110 0 40.3183 10.5411 425 70.7059 129.913 538.722
111 0 42.3436 10.462 443 69.7607 129.09 539.386
112 0 44.3992 12.0723 536 67.0019 129.157 537.625
113 0 42.2721 11.6152 491 68.2546 129.196 536.387
114 0 46.4231 11.3306 526 66.6103 129.133 536.394
115 0 47.4362 11.3415 538 66.6208 129.032 534.615
116 0 48.3652 11.8887 575 65.9148 129.254 534.562
117 0 50.2412 11.7832 592 65.6503 129.204 533.446
118 0 51.3398 11.9206 612 65.5817 129.654 532.861
119 0 54.3008 12.8175 696 63.7241 129.19 531.533
120 0 53.3223 12.2275 652 65.8267 129.261 531.153
121 0 53.1678 12.0562 641 66.6225 129.44 530.846
122 0 56.2285 12.6093 709 65.2525 128.835 528.437
123 0 58.2226 12.0056 699 65.8484 128.845 529.144
124 0 60.1907 12.5767 757 64.4042 128.822 528.704
125 0 60.2051 12.9889 782 65.0217 129.031 527.058
126 0 62.1584 12.3073 765 66.0549 129.125 527.345
127 0 64.1309 12.4433 798 66.0514 129.569 525.862
128 0 66.1475 12.8047 847 65.6198 129.296 525.182
129 0 68.0883 12.2047 831 66.8556 129.041 525.765
130 0 70.1484 12.9297 907 66.0485 129.17 523.51
131 0 74.2071 13.5432 1005 64.9234 128.272 521.924
132 0 76.1504 13.0006 990 66.1828 128.582 520.292
133 0 79.1084 12.6409 1000 66.637 128.704 518.266
134 0 80.1276 12.6798 1016 67.0049 128.434 518.447
135 0 84.3305 13.4945 1138 65.6766 127.959 516.391
136 0 85.1655 12.8691 1096 66.7673 127.895 515.297
137 1 45.1261 9.9499 449 67.3229 127.474 537.245
138 0 48.0393 10.8037 519 66.4855 127.696 534.324
139 0 48.0967 10.7908 519 66.6628 127.638 535.048
140 0 49.0507 11.4371 561 66.7647 127.61 532.966
141 0 51.1236 11.4624 586 66.1365 127.63 532.44
142 0 54.035 12.0292 650 65.7508 127.909 533.603
143 0 53.0774 11.568 614 67.2687 128.148 532.233
144 0 56.0304 11.94 669 66.2885 128.058 532.904
145 0 57.0532 13.0931 747 65.3788 128.05 531.301
146 0 58.085 12.9121 750 66.0827 128.208 530.479
147 0 59.056 13.2078 780 66.4654 128.247 529.087
148 0 61.024 13.0277 795 67.1736 127.792 528.937
149 0 64.0901 12.9349 829 67.193 128.135 529.311
150 0 66.096 13.435 888 67.1363 128.452 527.709
151 0 68.201 13.2403 903 67.6955 127.806 528.086
152 0 68.1328 12.9306 881 68.9614 127.585 526.807
153 0 72.0461 13.8384 997 67.7382 127.6 526.652
154 0 75.0461 13.5517 1017 68.4887 127.686 523.922
155 0 77.2257 13.5965 1050 68.7838 127.972 523.454
156 0 81.0647 14.0505 1139 68.2212 127.931 521.602
157 0 82.1069 13.385 1099 69.9272 127.999 522.416
158 0 85.0561 14.3787 1223 69.2576 127.619 518.457
159 0 87.0671 14.2074 1237 69.8828 127.454 517.254
160 0 93.106 14.0378 1307 69.7873 127.696 516.985
161 0 95.1677 14.3116 1362 69.5646 128.095 515.906
162 0 97.1033 14.3353 1392 70.2256 127.895 513.789
163 0 102.085 14.4586 1476 70.1301 128.24 511.009
164 0 103.103 14.0053 1444 71.3186 128.641 509.571
165 0 106.221 13.7919 1465 72.3734 127.771 508.198
166 0 108.144 13.7501 1487 72.7243 128.612 506.732
167 0 111.161 13.8898 1544 72.726 128.445 505.904
168 0 117.193 14.1647 1660 71.8584 128.667 503.524
169 0 118.159 14.7513 1743 71.7292 129.07 501.457
170 0 126.285 14.5227 1834 71.2301 128.932 498.98
171 1 71.0578 10.8362 770 73.0026 129.632 525.513
172 0 75.1348 12.0184 903 71.361 129.61 523.795
173 0 76.1218 13.2682 1010 70.9228 129.503 521.568
174 0 79.0966 13.2243 1046 71.0765 129.621 520.749
175 0 81.2036 13.0043 1056 71.3873 129.453 518.763
176 0 84.3471 13.0651 1102 71.4791 129.765 517.242
177 0 86.2372 12.8019 1104 72.5616 129.765 514.799
178 0 91.4358 13.3099 1217 71.3295 129.764 514.314
179 0 94.2748 13.1637 1241 72.1765 130.033 511.956
180 0 97.3242 12.6485 1231 73.121 130.162 509.665
181 0 102.421 12.9465 1326 73.0852 130.527 507.532
182 0 104.358 12.6966 1325 73.8453 130.703 505.737
183 1 60.3676 10.1213 611 72.2324 130.75 528.578
184 0 62.3012 10.1924 635 71.7417 131.364 528.817
185 0 64.3887 11.648 750 70.7533 131.211 526.779
186 0 66.2972 11.4937 762 70.8005 131.428 524.451
187 0 69.4667 12.3512 858 68.9872 130.98 522.388
188 0 72.3869 12.9029 934 67.9743 131.043 522.223
189 0 71.6086 11.9259 854 70.4602 131.053 520.651
190 0 75.3977 12.4805 941 69.8108 131.111 519.944
191 0 77.405 12.2473 948 70.7489 131.152 518.524
192 0 79.4191 12.39 984 70.186 131.483 517.521
193 0 83.532 12.4982 1044 68.5115 131.368 516.162
194 0 86.3458 12.3341 1065 69.2357 131.368 513.439
195 0 88.3528 12.6425 1117 68.9902 131.557 512.788
196 1 46.2684 9.57458 443 69.8781 131.957 534.321
197 0 50.3202 9.37994 472 70.9216 131.845 531.767
198 0 51.215 9.45036 484 71.314 132.048 531.401
199 0 54.2406 10.5272 571 69.7373 132.095 530.497
200 0 55.3072 11.0474 611 68.563 132.411 529.764
201 0 57.2956 11.4843 658 68 132.199 528.543
202 0 58.3367 11.1422 650 69.3892 132.472 527.405
203 0 60.3247 11.1397 672 66.6801 132.025 527.787
204 0 60.386 11.2112 677 67.8301 132.043 526.267
205 0 60.354 11.3497 685 68.4861 132.2 525.153
206 0 62.3862 11.3487 708 68.3249 132.295 525.126
207 0 65.328 11.7408 767 68.3377 132.147 524.768
208 0 67.363 11.7869 794 68.8678 132.132 522.492
209 0 68.4606 12.4159 850 68.2224 131.464 522.445
210 0 71.4383 12.9062 922 67.1605 131.916 522.285
211 0 71.3578 11.7156 836 69.1148 131.512 521.057
212 0 74.5131 11.9711 892 69.398 131.746 519.343
213 0 77.3919 12.7145 984 68.5081 131.749 518.532
214 0 79.5859 12.1001 963 69.4143 131.406 518.05
215 0 82.6838 13.0497 1079 68.4875 131.392 515.371
216 0 86.5737 12.2323 1059 69.9141 131.052 514.679
217 0 87.5161 12.3634 1082 70.2495 130.482 513.054
218 0 90.3612 12.4058 1121 70.3095 130.944 510.281
219 0 95.35 11.9664 1141 70.6407 130.642 510.079
220 1 49.2726 9.61995 474 69.2616 129.783 533.519
221 0 50.178 9.84495 494 69.3138 130.259 533.381
222 0 53.2479 10.93 582 67.8093 129.639 531.053
223 0 53.0954 11.6771 620 67.0435 131.106 530.3
224 0 55.0908 11.6353 641 67.9922 131.206 532.192
225 0 57.1864 11.209 641 68.3541 131.544 530.498
226 0 60.0262 11.6116 697 67.2525 131.112 529.059
227 0 62.1489 11.9069 740 66.473 130.568 528.769
228 0 61.1656 12.2782 751 66.3502 130.326 528.262
229 0 63.1298 13.005 821 65.754 130.836 527.051
230 0 64.0588 12.2388 784 66.764 130.506 526.21
231 0 68.0785 12.0596 821 66.2984 130.392 525.211
232 0 70.0666 12.1599 852 66.0646 130.033 524.138
233 0 71.2245 12.0464 858 66.4545 129.909 523.464
234 0 73.1025 12.2978 899 66.8265 129.661 521.021
235 0 76.0765 12.7898 973 65.6064 129.774 521.63
236 0 75.1401 11.9111 895 67.8268 129.188 518.878
237 0 80.1367 12.4537 998 66.6212 129.208 517.614
238 0 82.1868 12.4716 1025 66.682 129.052 517.707
239 0 84.1716 12.3557 1040 67.349 129.414 516.497
240 0 88.247 12.3064 1086 67.1694 129.311 513.729
241 0 91.1157 13.642 1243 65.3266 128.903 511.705
242 1 49.0947 9.2067 452 66.3142 129.383 536.27
243 0 50.0455 9.67121 484 65.3802 129.554 537.581
244 0 53.0606 10.1771 540 65.1426 129.426 535.826
245 0 53.1339 11.1417 592 65.9307 129.934 533.399
246 0 54.0367 11.7883 637 65 129.422 533.014
247 0 55.0929 11.4171 629 65.8108 129.661 532.504
248 0 57.0615 12.0572 688 65.5116 128.419 531.843
249 0 57.0522 12.1468 693 66.1328 128.378 532.085
250 0 60.1581 11.6028 698 66.3266 128.56 531.607
251 0 63.1055 12.0592 761 66.1629 128.062 530.43
252 0 65.1444 12.0962 788 66.4213 128.472 528.365
253 0 65.0669 12.2643 798 66.9561 128.224 528.404
254 0 68.1575 12.2657 836 67.2656 128.097 527.761
255 0 71.1003 11.3783 809 68.4116 128.163 528.986
256 0 74.1366 12.6253 936 67.3814 128.109 525.839
257 0 76.2116 13.0164 992 66.6089 128.19 525.421
258 0 78.3169 12.2707 961 68.5713 128.881 523.599
259 0 82.2286 12.2707 1009 68.5273 128.796 522
260 0 85.3076 12.4608 1063 68.1439 128.391 520.588
261 1 46.0746 10.2877 474 69.1878 129.154 539.808
262 0 49.08 9.69845 476 69.3298 128.996 539.155
263 0 49.2081 9.99835 492 70.2398 127.419 537.984
264 0 48.239 10.5724 510 69.4431 127.531 537.349
265 0 49.2243 11.1124 547 69.7806 127.205 535.797
266 0 54.3758 11.4757 624 68.9423 127.393 534.728
267 0 55.4516 12.5154 694 67.4236 127.794 534.176
268 0 57.346 12.4682 715 67.8909 127.917 533.66
269 0 58.3949 12.3127 719 68.331 127.875 532.214
270 0 58.3147 12.3811 722 69.0249 128.349 532.089
271 0 61.4796 12.9962 799 67.9612 128.333 530.839
272 0 63.284 12.1674 770 69.4403 128.253 529.609
273 0 66.2487 12.7852 847 68.4935 127.967 528.302
274 0 66.263 12.556 832 69.8161 127.815 526.434
275 0 69.1578 12.204 844 70.5652 128.101 526.505
276 0 69.2774 12.2118 846 72.2045 128.433 526.658
277 0 74.3869 13.5508 1008 69.1032 127.941 525.342
278 0 75.2824 12.8317 966 71.2474 128.61 524.439
279 0 78.2663 13.7735 1078 69.6122 128.647 523.194
280 0 79.3377 13.0455 1035 71.6309 128.9 520.586
281 0 83.325 13.5014 1125 70.5262 129.069 519.726
282 0 86.3201 13.6816 1181 70.232 128.712 519.356
283 1 43.1675 9.28939 401 73.1147 128.628 539.718
284 0 45.1564 11.3605 513 71.6491 128.969 536.877
285 0 49.1841 11.1012 546 70.2454 129.114 537.348
286 0 51.2543 11.4722 588 69.8367 129.349 537.422
287 0 51.3196 11.5356 592 70.3209 129.375 535.568
288 0 50.2887 11.9112 599 70.5643 129.761 533.503
289 0 54.216 12.0444 653 69.0168 130.04 533.825
290 0 54.1527 11.9108 645 69.6016 130.38 533.589
291 0 55.202 12.3908 684 68.5819 130.268 534.063
292 0 56.2897 11.8139 665 69.818 130.502 531.871
293 0 59.1863 12.5705 744 68.211 130.743 530.527
294 0 62.2689 11.9642 745 68.153 130.785 530.239
295 0 64.1045 12.5264 803 67.7223 131.804 526.832
296 0 66.2537 12.422 823 67.8748 131.598 526.442
297 0 68.0208 12.9813 883 67.2435 131.715 525.128
298 0 70.1464 13.0299 914 66.9705 132.174 522.888
299 0 73.0575 12.8255 937 67.3287 132.115 521.4
300 0 74.2477 12.4583 925 68.1438 132.042 520.383
301 0 77.1186 12.4095 957 67.9446 132.782 519.142
302 0 79.1851 12.6413 1001 68.8052 133.178 518.037
303 0 82.1272 12.4198 1020 69.049 132.775 516.081
304 1 42.0317 9.37388 394 68.7437 133.277 538.208
305 0 47.0445 10.5432 496 67.9133 133.165 535.607
306 0 46.0928 10.1968 470 69.3809 133.053 533.879
307 0 49.0112 10.4466 512 68.0645 133.191 533.43
308 0 49.0112 10.6098 520 159.587 134.185 533.173
309 0 52.0102 11.5939 603 67.2239 133.156 531.221
310 0 52.0812 11.3477 591 68.3046 132.849 530.543
311 0 54.1073 12.1425 657 67.9406 132.157 530.084
312 0 55.047 12.1533 669 67.8505 132.233 527.725
313 0 57.1758 12.5752 719 67.1794 131.974 525.864
314 0 59.0317 12.3324 728 67.3063 131.92 525.673
315 0 61.0819 11.5419 705 68.1418 131.799 525.109
316 0 63.084 11.8255 746 67.9249 131.523 524.221
317 0 64.0739 12.6417 810 66.8617 131.716 522.321
318 0 67.1436 11.9297 801 67.2871 131.873 523.623
319 0 67.1451 12.1528 816 67.9853 131.924 522.441
320 0 70.1407 13.5442 950 65.9905 132.242 521.105
321 0 72.1034 12.6346 911 66.933 131.985 520.45
322 0 74.1728 12.727 944 67.2669 132.007 518.237
323 0 78.1579 12.897 1008 66.1756 132.169 517.672
324 0 79.3001 12.6734 1005 67.2935 131.955 514.39
325 0 82.2437 12.1711 1001 67.7473 131.295 513.689
326 0 86.2061 13.1661 1135 65.9868 130.909 512.377
327 0 88.1814 12.4289 1096 67.3431 131.115 511.073
328 0 90.1167 12.2841 1107 67.505 130.721 508.02
329 0 92.2011 12.4294 1146 67.6815 130.767 507.873
330 0 95.2782 13.193 1257 67.2753 130.258 504.874
331 0 99.2464 12.605 1251 67.498 130.863 504.86
332 1 52.156 9.75919 509 67.8487 130.782 529.397
333 0 54.2286 11.0089 597 66.943 130.794 527.119
334 0 56.2489 11.9113 670 65.6866 130.446 526.319
335 0 57.297 11.5538 662 66.4169 130.671 525.73
336 0 59.0613 11.4796 678 65.6814 131.174 525.962
337 0 59.064 11.3944 673 66.1872 130.947 525.33
338 0 61.1107 12.1746 744 65.5349 130.57 523.466
339 0 63.0724 12.557 792 64.8737 130.394 523.439
340 0 67.0929 12.3113 826 64.8741 130.633 521.702
341 0 67.0817 12.3432 828 66.0012 130.56 522.812
342 0 70.0688 12.5591 880 65.8705 130.203 521.493
343 0 71.0896 12.5475 892 66.2422 129.268 519.876
344 0 73.132 12.1151 886 67.7133 130.406 518.272
345 0 76.0888 13.0374 992 66.4002 130.141 518.556
346 0 79.1466 12.5842 996 67.244 129.784 516.617
347 0 80.1285 12.3427 989 68.6603 129.799 515.732
348 0 83.1361 13.0749 1087 67.8335 129.583 513.92
349 0 84.1655 12.7487 1073 69.9646 129.689 512.089
350 0 90.2377 13.3315 1203 68.3516 129.742 511.087
351 0 91.2614 13.3792 1221 69.7002 129.365 510.152
352 0 94.2125 13.2785 1251 70.1111 129.639 508.82
353 0 98.2252 13.3163 1308 70.4151 129.31 507.456
354 0 101.497 13.1432 1334 70.2496 129.631 503.957
355 0 103.255 13.2778 1371 70.7542 130.03 504.18
356 0 107.352 13.5443 1454 70.2352 130.053 502.73
357 1 56.1227 10.2989 578 70.4827 130.213 527.67
358 0 58.0821 11.105 645 71.4512 130.812 528.716
359 0 60.1151 12.2598 737 69.3365 129.858 527.212
360 0 62.1461 12.2293 760 69.7382 129.979 525.797
361 0 64.0311 12.244 784 70.0612 129.12 526.37
362 0 66.0899 12.0896 799 70.3229 129.153 524.262
363 0 69.0778 12.2036 843 70.5291 129.339 522.049
364 0 71.0474 12.5691 893 69.7256 128.51 522.106
365 0 73.0731 13.5754 992 68.7298 128.438 519.458
366 0 74.0957 12.3219 913 71.1314 129.123 518.563
367 0 77.0805 12.5583 968 70.7727 129.011 516.688
368 0 80.0415 12.7934 1024 69.8086 129.142 515.568
369 0 81.1932 12.8213 1041 69.9289 129.432 515.324
370 0 85.1534 12.7887 1089 70.045 129.738 511.556
371 0 86.1949 12.9474 1116 69.9498 129.735 510.888
372 0 91.2315 12.8793 1175 69.6979 130.287 510.483
373 0 93.2116 12.5092 1166 70.199 129.919 509.461
374 0 96.1263 12.8685 1237 70.1326 129.783 505.664
375 0 99.1271 13.1347 1302 69.7204 129.879 505.899
376 0 102.113 13.1717 1345 69.7056 130.059 504.762
377 0 105.244 12.5328 1319 68.9659 129.779 503.217
378 0 110.164 13.2712 1462 67.3249 130.12 499.826
379 0 110.24 12.8901 1421 68.5503 130.088 498.282
380 1 63.0297 9.96356 628 66.9124 129.518 525.347
381 0 65.0662 10.3279 672 66.5193 129.923 522.484
382 0 68.0262 10.8488 738 65.5542 130.068 523.801
383 0 69.0373 10.545 728 67.0412 129.809 521.408
384 0 72.0575 11.4908 828 65.0459 131.333 520.307
385 0 73.0913 11.1915 818 65.7861 131.793 519.554
386 0 74.096 11.1207 824 66.307 132.055 516.735
387 0 77.0348 11.9946 924 65.1104 132.891 517.014
388 0 79.1452 11.4347 905 66.6773 132.571 515.831
389 0 83.0478 12.258 1018 65.2642 133.066 513.339
390 0 84.055 11.6352 978 66.4141 133.445 511.826
391 0 89.054 11.4874 1023 65.6804 133.239 510.762
392 1 46.0702 9.24676 426 63.2277 132.437 533.592
393 0 51.0214 9.30981 475 63.9137 131.916 531.011
394 0 52.0318 9.18669 478 63.4247 131.079 531.18
395 0 53.0112 10.4884 556 61.8004 131.135 530.072
396 0 55.0559 10.4984 578 61.9879 131.723 528.285
397 0 56.059 10.5425 591 61.5482 131.739 528.239
398 0 59.048 11.3128 668 62.1722 131.85 526.253
399 0 60.0634 11.1216 668 62.3847 132.066 525.424
400 0 61.0777 11.2316 686 62.1327 131.735 523.934
401 0 63.0566 11.2121 707 62.4851 131.727 523.344
402 0 65.056 10.2373 666 63.2583 131.925 522.67
403 0 66.0774 11.2293 742 62.1415 132.263 520.991
404 0 67.0994 11.1327 747 62.0656 132.254 520.716
405 0 70.0888 12.1845 854 60.6593 132.417 520.076
406 0 72.0801 11.6398 839 61.4124 132.462 518.219
407 0 74.0725 11.7318 869 61.9712 132.816 517.368
408 0 76.0951 11.9193 907 61.9405 132.561 515.721
409 0 78.2044 12.3522 966 61.7402 132.968 516.212
410 0 79.6672 12.3263 982 62.7016 132.482 513.888
411 0 83.4093 11.8332 987 63.4448 133.039 513.993
412 1 44.2045 10.2478 453 63.9934 133.015 533.318
413 0 48.2415 9.47318 457 64.5689 132.486 532.781
414 0 47.2852 10.0454 475 64.8737 132.528 531.225
415 0 48.3352 9.74446 471 65.6879 133.108 531.609
416 0 51.2961 10.3322 530 65.7736 132.515 529.657
417 0 52.1781 11.2499 587 65.7138 132.087 529.208
418 0 55.2373 11.0071 608 66.426 131.414 528.627
419 0 57.4705 11.6234 668 66.3997 132.693 526.999
420 0 59.2577 11.8297 701 65.6377 131.789 526.307
421 0 60.3446 12.0806 729 65.6872 131.373 524.521
422 0 61.2967 12.415 761 65.8016 131.665 524.966
423 0 62.3152 11.6023 723 67.2241 131.382 524.069
424 0 66.2301 12.0942 801 65.8027 131.437 523.74
425 0 67.4381 12.4559 840 65.494 131.202 523.246
426 0 68.4596 12.1093 829 66.842 130.578 521.45
427 0 70.3406 12.34 868 66.7857 130.494 522.545
428 0 70.3937 12.217 860 68.1721 130.735 518.559
429 0 73.4132 12.9268 949 66.98 129.909 518.092
430 0 75.3317 12.7038 957 67.6144 130.061 518.054
431 0 79.3388 12.7932 1015 67.5724 130.031 517.931
432 0 80.2296 12.9254 1037 68.0771 129.124 516.684
433 0 83.3045 13.1325 1094 68.021 129.915 514.729
434 0 85.1974 13.0286 1110 68.5775 129.095 513.464
435 0 89.1631 13.2342 1180 68.0746 129.711 512.651
436 0 91.1978 13.1363 1198 68.3264 129.737 512.649
437 0 97.285 13.7123 1334 67.2511 129.705 510.915
438 0 99.3862 13.3218 1324 68.4237 129.128 509.267
439 0 101.361 13.2399 1342 69.4039 128.943 505.899
440 1 53.2452 10.4986 559 71.4615 129.267 530.852
441 0 53.2354 9.91822 528 72.7008 129.114 530.653
442 0 58.1414 10.87 632 70.5475 128.959 529.052
443 0 60.1914 11.6462 701 69.5991 128.699 529.244
444 0 61.2011 11.7482 719 70.2045 128.919 528.327
445 0 65.2174 12.4353 811 69.767 129.321 527.552
446 0 66.0868 12.4231 821 68.9233 129.287 526.973
447 0 67.0655 12.4356 834 69.9089 129.131 525.454
448 0 69.1098 12.3861 856 70.2044 128.881 523.235
449 0 70.1131 13.0076 912 69.977 129.16 523.532
450 0 72.143 13.1822 951 69.7266 129.177 522.864
451 0 73.2231 13.0423 955 70.6932 128.85 522.925
452 0 78.0772 13.5251 1056 69.7027 129.333 520.024
453 0 79.142 13.1283 1039 70.5592 129.185 519.815
454 0 80.1316 12.8913 1033 72.181 128.829 517.264
455 0 84.1555 13.2493 1115 71.0054 128.748 517.318
456 0 87.0762 13.7121 1194 70.2454 128.902 515.267
457 0 91.1305 13.2447 1207 70.2469 128.78 514.653
458 0 93.1835 12.8027 1193 71.1174 128.621 513.261
459 0 98.1487 14.2029 1394 68.4871 128.74 510.42
460 1 48.0241 9.87004 474 70.9072 128.7 535.584
461 0 53.0307 10.8993 578 68.8322 128.133 535.689
462 0 54.0299 11.179 604 68.7285 128.007 533.911
463 0 53.1586 11.4375 608 69.852 128.043 532.151
464 0 58.2823 12.1135 706 67.9717 127.911 532.033
465 0 59.2944 12.3283 731 68.1929 128.334 530.226
466 0 62.2104 12.1684 757 67.6816 128.349 530.88
467 0 61.1079 11.6842 714 69.5448 128.504 528.269
468 0 65.1094 12.3484 804 67.8507 128.501 528.525
469 0 64.0857 12.3429 791 68.4159 128.205 527.824
470 0 69.1334 12.7435 881 66.5936 128.547 527.894
471 0 70.1005 12.2681 860 67.3279 128.422 526.602
472 0 74.1037 12.7389 944 66.143 128.31 524.665
473 0 74.052 12.0456 892 67.9619 128.573 523.994
474 0 77.1935 12.4751 963 66.9335 128.821 521.569
475 0 78.1168 12.7757 998 67.1663 128.762 520.428
476 0 81.1087 12.588 1021 67.571 128.579 520.191
477 0 86.1372 12.8632 1108 66.6652 128.954 519.005
478 1 46.0358 9.64467 444 66.2297 128.514 539.755
479 0 48.0721 9.88099 475 66.2189 128.943 538.053
480 0 48.0272 10.7647 517 66.1779 128.565 535.395
481 0 50.0214 11.1352 557 65.4937 128.732 535.799
482 0 51.0521 11.5568 590 65.0627 128.795 534.983
483 0 51.048 11.7536 600 64.9717 128.363 534.358
484 0 55.1572 12.0746 666 63.8964 129.375 533.788
485 0 55.1269 12.9519 714 63.2199 128.574 533.195
486 0 57.1287 12.3406 705 64.3461 129.064 531.241
487 0 59.1845 12.4188 735 64.151 129.502 530.548
488 0 60.1535 12.4348 748 64.3476 129.516 529.448
489 0 63.2026 12.8634 813 63.4465 129.379 529.39
490 0 63.1727 12.7587 806 63.8821 129.783 527.986
491 0 65.1217 13.2675 864 63.1829 129.912 526.764
492 0 67.1992 12.8871 866 63.8776 130.246 526.881
493 0 67.1715 12.2671 824 65.8192 129.968 526.433
494 0 70.1634 12.7132 892 65.0807 129.971 525.589
495 0 70.1219 13.3339 935 65.2246 130.274 523.475
496 0 74.0671 13.2853 984 64.6037 129.825 522.566
497 0 75.0857 13.6511 1025 64.442 129.737 519.078
498 0 78.1216 13.031 1018 65.0835 129.823 521.89
499 0 80.1951 12.719 1020 66.0892 129.855 519.102
500 0 85.4285 13.8712 1185 63.5072 129.557 517.531
501 0 84.2302 12.3946 1044 66.5326 129.844 516.316
502 0 88.1633 13.2822 1171 65.1042 129.914 514.955
503 1 47.0766 11.8318 557 65.6661 129.138 534.413
504 0 50.1158 11.3537 569 66.0264 128.917 533.996
505 0 51.0313 11.0325 563 66.7993 128.915 533.798
506 0 55.0591 12.2596 675 64.2874 129.124 531.603
507 0 55.2106 12.0991 668 64.7874 129.328 531.87
508 0 56.1215 12.562 705 63.9901 129.807 530.774
509 0 55.2326 12.4926 690 65.9072 128.629 530.071
510 0 59.2556 12.8427 761 64.7398 128.71 529.206
511 0 60.2817 13.0222 785 64.7439 129.076 528.915
512 0 62.1424 13.0829 813 64.1242 129.157 528.509
513 0 64.2307 13.109 842 64.1983 129.284 526.773
514 0 67.1091 12.8746 864 63.8322 129.181 525.938
515 0 68.1301 13.6063 927 63.2255 129.229 526.098
516 0 71.3268 13.0666 932 63.8594 129.107 524.341
517 0 73.2128 12.3749 906 63.3598 129.896 523.978
518 0 76.1062 13.0344 992 62.624 130.274 522.021
519 0 76.2574 13.2971 1014 62.3807 129.927 520.009
520 0 79.2318 12.1163 960 63.3531 130.069 519.169
521 0 83.2045 13.6291 1134 61.6155 130.632 517.509
522 0 86.2602 12.7289 1098 63.1412 130.425 515.301
523 0 87.1622 12.9758 1131 62.7135 130.976 515.354
524 0 91.5104 12.9493 1185 62.2143 130.996 514.452
525 1 45.2254 10.1049 457 63.2363 130.088 538.002
526 0 47.1493 11.3045 533 61.9456 130.477 535.754
527 0 49.1798 11.3055 556 62.2824 130.299 534.002
528 0 49.458 12.0506 596 61.802 130.307 532.185
529 0 53.2891 13.0421 695 60.0201 130.787 531.833
530 0 53.292 12.5347 668 61.244 129.765 531.202
531 0 55.23 12.4389 687 60.7074 129.911 529.977
532 0 57.3052 11.8837 681 61.3465 130.019 528.292
533 0 60.206 12.5403 755 60.1709 130.164 526.604
534 0 60.2477 12.7474 768 59.9505 130.956 528.117
535 0 64.1908 12.79 821 59.592 130.266 524.787
536 0 66.1189 12.417 821 59.8319 131.141 524.887
537 0 67.103 11.4898 771 61.153 130.568 523.96
538 0 71.0796 13.1261 933 59.1758 130.543 524.034
539 0 72.125 12.3951 894 60.6107 130.319 521.178
540 0 75.1314 13.3499 1003 59.4905 129.945 520.303
541 0 77.1363 12.4844 963 60.4548 130.601 519.469
542 0 79.1943 13.1323 1040 60.6346 130.102 518.609
543 0 82.2973 13.2325 1089 60.2626 130.601 517.892
544 0 86.3397 12.9604 1119 60.8499 129.334 515.521
545 0 89.3942 13.5244 1209 60.3863 129.348 513.481
546 0 91.2713 13.4325 1226 61.0008 129.886 511.911
547 0 94.1675 13.8689 1306 60.4801 129.482 510.053
548 0 98.3062 13.0511 1283 61.6321 129.585 508.072
549 1 51.3031 10.7401 551 62.2123 129.116 531.975
550 0 52.3371 11.0629 579 61.8636 128.867 532.086
551 0 54.2723 11.9398 648 60.6019 129.198 532.026
552 0 56.1816 12.335 693 61.14 129.644 529.776
553 0 57.1776 12.5923 720 60.6806 130.387 530.072
554 0 60.1949 12.2768 739 61.1488 130.135 530.345
555 0 61.1747 12.2763 751 61.8229 130.245 528.537
556 0 63.196 12.7698 807 61.3519 130.069 527.812
557 0 64.187 12.7752 820 61.9854 130.196 526.4
558 0 68.2512 12.8789 879 61.7179 130.167 525.471
559 0 70.2265 12.7302 894 62.4418 129.579 524.686
560 0 72.2639 12.6204 912 62.6272 129.382 524.87
561 0 75.2825 12.4597 938 63.0021 129.728 523.563
562 0 76.3799 12.8306 980 63.2357 129.437 521.277
563 0 78.6949 12.6946 999 63.6256 129.666 520.115
564 0 82.4547 13.2436 1092 63.3269 128.945 516.731
565 1 44.0918 11.3853 502 63.1275 128.815 536.928
566 0 44.1736 11.1831 494 62.8563 128.296 538.374
567 0 45.1115 11.4162 515 63.8097 128.293 538.072
568 0 49.1854 11.7108 576 63.6181 130.151 535.694
569 0 49.1922 12.0954 595 63.8437 129.208 533.22
570 0 50.1053 11.8151 592 64.7838 129.132 534.65
571 0 51.0356 12.1876 622 65.1158 128.72 533.871
572 0 51.061 11.9465 610 66.1279 128.472 534.303
573 0 54.0887 12.6829 686 64.6297 129.5 532.867
574 0 57.1335 12.7071 726 64.6584 128.85 531.574
575 0 58.2082 12.4896 727 65.7483 128.849 530.633
576 0 60.146 12.3699 744 66.9691 128.313 528.086
577 0 63.1187 13.1498 830 65.5398 128.302 529.13
578 0 63.1914 12.1219 766 67.6789 128.022 529.215
579 0 68.2979 12.709 868 66.2938 127.967 526.321
580 0 67.1467 12.7482 856 67.1238 128.299 524.903
581 0 72.3929 13.4129 971 65.0278 127.572 523.178
582 0 74.1578 12.1228 899 67.04 127.042 523.727
583 0 77.2021 13.1084 1012 65.7678 127.098 523.613
584 0 79.2001 13.1439 1041 66.5485 127.204 521.41
585 0 81.2589 13.4508 1093 66.5215 127.118 519.502
586 0 83.3538 12.6929 1058 68.206 127.683 518.982
587 0 87.3284 12.8022 1118 67.9973 126.706 517.72
588 0 90.3153 12.8992 1165 67.8858 126.713 516.756
589 0 90.2617 12.6521 1142 68.9475 126.909 515.56
590 0 95.2301 13.7037 1305 67.8751 127.202 512.3
591 0 98.4709 13.3745 1317 68.2103 127.169 514.492
592 1 50.2318 10.7103 538 68.8717 126.414 538.362
593 0 51.2597 11.432 586 68.4164 126.735 538.415
594 0 54.0526 12.6914 686 67.6968 126.937 535.563
595 0 56.0973 12.5496 704 66.6222 126.913 534.544
596 0 58.0641 12.624 733 67.0614 127.338 532.849
597 0 61.1191 13.0074 795 66.2956 127.059 532.116
598 0 62.0527 12.6505 785 67.2599 127.306 530.283
599 0 63.0857 13.125 828 67.2886 127.186 529.606
600 0 66.1325 12.5657 831 67.2455 126.806 528.066
601 0 69.1864 13.4275 929 65.605 127.467 527.857
602 0 70.2628 13.1079 921 65.9338 127.452 526.99
603 0 73.1551 11.8789 869 67.6341 127.315 526.151
604 0 74.3305 13.5476 1007 66.859 126.477 524.667
605 0 77.197 13.5757 1048 66.2863 126.118 522.254
606 0 80.2342 13.5852 1090 65.8092 127.191 524.332
607 0 80.2678 13.0688 1049 67.8827 126.937 520.771
608 0 84.3279 13.8981 1172 66.122 126.907 522.12
609 0 88.2914 13.9425 1231 66.4054 127.084 519.015
610 0 90.5271 12.7476 1154 68.1655 126.628 518.856
611 1 49.3779 11.7462 580 67.8603 126.791 538.105
612 0 50.1767 11.8581 595 69.0622 126.366 537.013
613 0 52.0287 11.9165 620 69.5 127.208 535.831
614 0 53.2098 13.1367 699 68.6867 127.001 535.538
615 0 54.1391 12.5602 680 69.2309 127.251 535.325
616 0 56.2686 13.1157 738 69.0325 126.66 532.768
617 0 56.0971 12.5853 706 71.8513 126.666 534.469
618 0 60.0647 13.3023 799 70.2528 126.342 532.416
619 0 60.1114 13.1922 793 70.8613 126.556 531.99
620 0 62.069 13.4044 832 70.5385 126.139 529.78
621 0 62.1889 13.5233 841 71.0832 126.942 529.474
622 0 64.1311 13.6439 875 70.9669 126.623 529.354
623 0 68.3216 14.4756 989 69.543 126.844 529.076
624 0 69.2807 14.1453 980 71.2592 126.592 527.068
625 0 72.2454 13.9386 1007 71.1738 126.65 526.603
626 0 73.3064 14.8691 1090 70.233 126.739 523.43
627 0 75.1921 14.3366 1078 71.282 127.004 522.202
628 0 77.3487 13.924 1077 71.7846 126.55 521.325
629 0 81.1599 14.108 1145 71.09 127.145 519.815
630 0 83.2274 14.2501 1186 70.6374 126.856 519.184
631 0 88.339 14.4104 1273 69.806 126.931 516.937
632 0 90.4253 14.1774 1282 70.727 126.624 515.073
633 1 48.2577 13.1171 633 71.5308 128.321 536.457
634 0 48.1616 12.4996 602 72.5515 127.372 535.962
635 0 51.2595 13.2463 679 71.1149 127.999 533.437
636 0 51.1877 13.3235 682 71.2595 127.642 532.786
637 0 53.1952 14.5126 772 68.9728 127.64 532.263
638 0 55.2233 14.5591 804 68.5522 128.011 531.488
639 0 57.4876 14.2987 822 67.9757 127.811 530.461
640 0 60.2791 14.2006 856 68.2757 127.749 528.335
641 0 63.2906 15.0101 950 66.1432 128.82 527.617
642 0 64.3797 15.0047 966 67.0228 128.886 525.594
643 0 67.6455 14.0734 952 67.8172 128.239 524.527
644 0 69.3011 14.069 975 67.6174 128.408 523.634
645 0 72.9997 13.8494 1011 67.633 128.826 522.556
646 0 72.7043 14.6621 1066 66.924 128.401 522.399
647 0 75.456 14.7238 1111 67.1116 128.241 520.394
648 0 77.6595 14.1129 1096 67.5703 128.786 518.647
649 0 81.6854 14.7762 1207 66.2693 129.012 518.418
650 0 81.2968 14.5024 1179 67.4775 129.251 516.442
651 0 87.4382 14.7762 1292 66.1463 129.12 514.803
652 0 88.4601 14.8542 1314 66.3288 128.849 513.521
653 0 92.3721 14.8855 1375 66.3607 129.151 511.647
654 0 96.4802 15.2363 1470 64.8497 128.761 511.501
655 1 47.4614 12.8526 610 68.0656 129.21 533.074
656 0 50.5728 13.446 680 67.5176 129.06 529.81
657 0 53.356 14.675 783 66.0856 128.853 528.991
658 0 55.3988 14.9642 829 66.0362 129.275 528.961
659 0 57.5158 14.4656 832 66.6851 128.905 526.897
660 0 58.4609 14.4199 843 66.86 129.397 525.356
661 0 59.3681 14.1659 841 67.4221 128.532 524.491
662 0 65.4202 14.8272 970 65.1557 129.008 523.825
663 0 67.4761 14.168 956 66.0439 129.701 522.225
664 0 68.4052 13.8586 948 66.5411 129.114 521.402
665 0 71.4807 14.4235 1031 66.097 129.989 518.759
666 0 74.56 14.5252 1083 65.626 129.531 517.709
667 0 76.5418 14.3451 1098 66.0255 130.025 518.364
668 0 78.2932 13.9859 1095 67.5699 130.94 515.879
669 0 83.6475 14.0351 1174 66.6124 130.268 515.209
670 0 85.4795 14.2958 1222 66.6653 130.298 513.276
671 0 88.6287 13.9233 1234 67.3039 131.04 510.143
672 0 92.2593 14.1449 1305 67.3004 130.799 509.205
673 1 47.3405 12.1249 574 67.9965 130.514 531.934
674 0 47.5324 12.076 574 68.3397 130.932 531.488
675 0 49.3698 12.5583 620 68.5645 131.445 530.527
676 0 49.474 12.7946 633 69.1438 130.874 529.107
677 0 53.3543 12.7825 682 68.4956 131.472 528.097
678 0 54.3746 13.5541 737 66.559 131.221 528.114
679 0 57.4497 13.6467 784 67.352 131.598 526.452
680 0 59.3008 13.1364 779 67.4852 131.222 526.019
681 0 60.4625 13.5291 818 68.2274 131.39 523.588
682 0 63.3867 13.4886 855 67.9006 131.199 523.931
683 0 63.3435 13.1979 836 68.6388 131.916 523.574
684 0 66.4735 13.9003 924 67.9946 132.12 521.474
685 0 68.3591 14.2044 971 67.7477 131.896 520.326
686 0 68.3235 13.3336 911 69.8277 131.745 519.818
687 0 72.3795 13.2634 960 69.3281 132.545 518.763
688 0 74.4062 14.4208 1073 68.3103 131.699 517.814
689 0 75.3391 13.4459 1013 70.5311 131.647 516.362
690 0 80.2181 13.8373 1110 69.5694 131.874 514.588
691 0 82.4774 13.822 1140 69.4763 132.684 513.697
692 0 85.3998 13.4192 1146 70.308 131.846 512.292
693 1 44.2344 10.2183 452 71.0885 131.095 532.801
694 0 47.426 10.7114 508 71.3681 131.305 530.118
695 0 50.2977 12.4658 627 68.9011 131.008 529.266
696 0 50.0993 11.8365 593 70.2361 131.764 529.516
697 0 50.1967 12.5307 629 69.8521 132.094 527.983
698 0 54.1451 12.5219 678 68.6991 131.841 528.468
699 0 52.1512 12.3295 643 70.1291 131.529 528.541
700 0 54.1454 13.0944 709 68.6996 132.36 528.55
701 0 58.2388 12.4316 724 69.2044 131.394 527.253
702 0 58.0818 13.5671 788 68.0279 130.773 526.451
703 0 61.1973 12.9908 795 68.4604 130.952 524.408
704 0 63.2356 12.4455 787 69.3825 130.637 523.695
705 0 65.151 13.1694 858 68.2075 130.29 521.953
706 0 68.1196 13.2121 900 67.9211 130.397 522.699
707 0 70.4036 12.8261 903 68.5947 130.365 520.53
708 0 71.366 12.597 899 69.1379 130.155 519.625
709 0 74.2614 12.8869 957 68.4953 130.137 516.129
710 0 78.3132 12.6288 989 67.817 129.451 517.321
711 0 80.4501 13.325 1072 67.1716 129.908 516.136
712 0 83.4319 12.2974 1026 69.1394 129.877 513.177
713 1 45.2053 10.4191 471 67.1253 129.66 533.142
714 0 48.1978 9.75149 470 67.6596 129.547 532.377
715 0 48.1491 10.6336 512 67.0703 130.234 532.791
716 0 51.0551 12.0262 614 65.2476 130.218 530.715
717 0 53.104 11.6375 618 64.8786 129.672 531.749
718 0 53.1014 10.9037 579 66.2919 129.722 530.366
719 0 56.1293 11.8476 665 64.7383 129.176 529.493
720 0 58.0826 11.3976 662 64.8807 129.243 526.94
721 0 59.2735 11.9615 709 64.268 129.504 526.01
722 0 63.1685 11.3981 720 64.5486 129.668 524.583
723 0 64.0743 11.1433 714 65.3978 129.076 523.786
724 0 67.2002 11.741 789 63.6565 129.376 522.563
725 0 68.1515 12.1934 831 63.9278 129.149 521.922
726 0 69.2489 11.7547 814 64.3329 129.373 521.828
727 0 72.0786 12.2644 884 63.5554 129.757 520.421
728 1 36.0986 9.75106 352 63.3068 129.858 538.037
729 0 40.0803 9.68055 388 62.0954 129.381 538.755
730 0 39.0477 10.5512 412 61.3471 128.833 539.223
731 0 42.151 10.842 457 60.7112 128.652 537.858
732 0 41.2005 11.4319 471 62.6794 127.658 536.047
733 0 42.2739 10.6922 452 62.9668 127.728 537.473
734 0 44.1399 11.4182 504 61.9921 127.623 536.982
735 0 45.1201 11.1924 505 62.9307 127.614 536.768
736 0 48.1871 11.6836 563 61.8579 127.81 535.538
737 0 46.1439 12.8944 595 62.4454 127.911 534.375
738 0 50.18 11.2993 567 64.037 127.75 535.471
739 0 50.1493 12.5425 629 63.9157 127.797 533.625
740 0 52.0646 11.9083 620 64.5806 127.697 533.408
741 0 53.1276 11.99 637 65.8477 128.133 533.314
742 0 55.1056 11.7955 650 66.1338 128.209 532.598
743 0 57.1337 12.0769 690 66.0348 127.775 531.465
744 0 59.1191 11.9251 705 66.0184 127.633 530.275
745 0 61.0595 11.9719 731 66.699 127.497 528.888
746 0 64.1735 13.0116 835 64.8455 127.65 528.788
747 0 64.1159 12.1187 777 66.4582 127.532 527.076
748 0 67.1987 13.155 884 64.9706 127.714 525.981
749 0 67.152 12.911 867 66.1003 127.392 526.262
750 0 71.0953 13.1936 938 65.9531 127.505 523.949
751 0 73.2423 12.247 897 67.612 127.513 523.355
752 0 76.153 12.5931 959 67.4369 126.911 522.423
753 0 76.1241 13.0708 995 68.2241 126.863 522.225
754 0 80.1656 13.3723 1072 67.0532 127.118 520.399
755 0 83.1977 13.3177 1108 68.0144 127.169 519.116
756 1 44.0192 9.13238 402 70.3706 126.149 538.291
757 0 47.1347 10.7988 509 69.8861 126.468 533.287
758 0 46.1702 10.4396 482 70.5996 126.241 535.359
759 0 48.136 12.1738 586 68.3208 125.939 534.036
760 0 50.2175 12.2865 617 68.5397 125.895 531.789
761 0 53.0806 13.0933 695 67.3453 126.737 534.197
762 0 53.1645 12.151 646 69.3406 126.449 534.289
763 0 54.2172 12.1179 657 70.3196 126.464 531.88
764 0 56.1879 12.6896 713 69.2931 126.338 530.297
765 0 57.175 12.7154 727 70.4828 126.62 528.095
766 0 59.2362 11.9859 710 71.2662 127.096 528.165
767 0 61.2089 12.8903 789 70.3967 127.255 526.394
768 0 60.3562 12.741 769 69.3511 127.811 527.479
769 0 63.2644 13.0721 827 68.4281 126.966 527.862
770 0 64.2081 12.5685 807 69.9727 127.139 528.145
771 0 66.2593 12.7076 842 69.3302 127.055 528.196
772 0 68.4228 13.402 917 68.3795 127.469 525.544
773 0 68.3025 12.7228 869 70.1461 127.646 525.333
774 0 71.2336 13.1399 936 69.1624 127.421 523.308
775 0 74.5345 12.8531 958 69.2818 127.392 523.945
776 0 76.5953 13.3167 1020 68.4882 128.325 521.109
777 0 79.4117 13.6126 1081 68.1896 127.918 519.629
778 0 80.4513 13.7599 1107 68.28 128.008 516.48
779 0 83.4448 13.0146 1086 69.3398 127.832 514.507
780 0 87.5536 13.7516 1204 67.8912 127.885 513.799
781 0 87.4592 13.2519 1159 69.7153 128.076 512.321
782 0 90.5515 12.9871 1176 70.1913 128.018 511.089
783 0 92.4871 13.7533 1272 69.3781 128.189 508.437
784 0 97.3245 13.5321 1317 69.4108 128.507 508.45
785 0 99.3005 14.0181 1392 68.7428 128.283 505.807
786 0 102.268 14.0025 1432 68.72 128.718 503.272
787 0 104.168 14.3038 1490 68.7678 128.517 503.185
788 0 106.228 13.8287 1469 69.6555 128.829 500.652
789 1 43.1608 11.2139 484 66.5041 129.62 533.789
790 0 44.0873 10.4112 459 67.6253 129.58 535.27
791 0 45.1002 11.2638 508 66.128 130.134 535.409
792 0 46.1944 12.3175 569 65.5589 128.573 535.004
793 0 49.2107 12.4363 612 65.4069 129.025 534.655
794 0 50.2294 12.1443 610 65.4262 129.539 532.654
795 0 51.2613 12.6411 648 64.8318 129.341 533.248
796 0 53.2062 12.5549 668 65.0329 129.766 530.904
797 0 53.2197 12.2699 653 65.5758 129.83 531.335
798 0 58.2404 13.2897 774 63.009 129.651 530.565
799 0 58.2397 12.2425 713 65.5259 129.669 527.954
800 0 61.2326 11.7258 718 65.3677 129.875 528.558
801 0 63.2096 12.245 774 64.6499 130.323 525.479
802 0 65.2571 12.06 787 64.8564 130.203 525.944
803 0 68.2742 12.9038 881 63.7514 130.394 525.623
804 0 70.3815 12.6596 891 63.9697 130.465 523.609
805 0 71.3134 12.9148 921 63.4267 130.524 522.667
806 0 75.2716 12.8468 967 63.0155 130.731 521.862
807 0 77.24 12.9078 997 62.5848 130.877 520.425
808 0 77.1799 12.879 994 62.9537 131.38 519.482
809 0 80.1582 12.4504 998 62.8717 131.263 518.286
810 0 83.1346 11.8723 987 63.2705 131.61 516.781
811 0 85.2764 11.9259 1017 62.8053 131.526 514.581
812 0 90.1702 12.5319 1130 61.5053 131.894 513.66
813 0 93.3164 11.9915 1119 61.8499 132.228 512.614
814 0 96.1693 12.0621 1160 61.5121 131.374 509.992
815 0 97.1806 12.1629 1182 61.0296 131.972 508.898
816 0 103.398 12.979 1342 59.0484 131.818 505.437
817 0 105.313 12.2112 1286 60.3616 132.076 502.521
818 0 109.39 12.4509 1362 59.7504 131.402 502.8
819 0 113.296 12.4894 1415 59.7986 131.494 500.934
820 0 118.482 13.4113 1589 58.7168 131.305 499.52
821 0 118.283 12.1151 1433 60.3943 132.207 497.348
822 0 123.388 12.3675 1526 60.1068 131.593 494.835
823 0 125.281 11.9332 1495 60.9304 131.347 493.047
824 0 130.363 12.1277 1581 60.3922 130.744 490.235
825 0 134.411 12.3427 1659 60.3816 131.426 490.339
826 0 137.566 12.3431 1698 60.8934 131.384 486.785
827 0 143.676 12.2707 1763 60.3256 131.437 486.041
828 1 72.1281 10.9805 792 60.3283 131.231 520.995
829 0 74.24 10.8028 802 61.1933 131.029 520.521
830 0 76.1888 11.2746 859 60.596 130.854 517.508
831 0 80.313 12.1898 979 59.1736 130.928 515.944
832 0 81.2847 12.3762 1006 59.7147 131.323 515.848
833 0 85.1913 12.6304 1076 59.855 131.302 511.481
834 0 87.2451 12.2872 1072 60.2659 130.448 511.208
835 0 90.195 13.1604 1187 59.4979 130.411 510.988
836 0 90.2653 12.3635 1116 60.4247 130.218 507.763
837 0 96.4548 12.2648 1183 59.8115 130.604 508.303
838 0 100.289 12.793 1283 59.3281 130.938 504.758
839 0 101.22 11.9245 1207 60.7738 129.988 505.206
840 1 41.0603 8.37792 344 59.5465 129.462 535.451
841 0 44.0958 9.47936 418 58.0191 129.237 530.091
842 0 46.0138 10.1926 469 58.7825 129.247 532.569
843 0 48.0412 11.3028 543 57.709 129.689 531.67
844 0 57.1101 16.0392 916 47.8352 129.523 528.405
845 0 57.2623 13.2548 759 52.3083 128.673 528.142
846 0 58.2086 13.486 785 52.4688 128.362 527.213
847 0 58.2302 14.5114 845 52.3633 128.368 528.546
848 0 58.1473 13.0015 756 55.119 127.927 528.361
849 0 58.1478 13.0185 757 55.9313 127.802 527.392
850 0 62.2268 13.2097 822 55.3005 128.074 527.388
851 0 60.1782 11.5823 697 59.1851 128.663 528.024
852 0 64.1964 12.4306 798 59.1504 128.174 526.355
853 0 65.0297 11.7024 761 60.3246 128.124 526.679
854 0 68.0744 12.883 877 58.9829 128.149 524.288
855 0 68.2932 12.6806 866 59.0531 129.207 523.793
856 0 70.3283 11.233 790 61.3089 129.222 523.373
857 0 73.2718 12.3786 907 59.2282 129.004 523.464
858 0 73.2095 11.8974 871 60.9219 129.176 522.792
859 0 77.2784 12.7591 986 59.7089 128.952 519.89
860 0 77.1914 12.605 973 60.668 128.401 518.764
861 0 80.2927 12.716 1021 60.3928 128.462 518.2
862 1 42.2166 9.54602 403 61.9206 127.943 535.725
863 0 42.1191 9.30695 392 62.1403 127.378 537.089
864 0 45.2112 10.3293 467 61.7152 127.522 535.251
865 0 46.1957 10.672 493 60.6187 127.256 534.057
866 0 48.138 11.2177 540 59.5389 127.098 533.793
867 0 50.1974 11.7138 588 59.131 127.468 533.488
868 0 52.2514 10.7366 561 60.574 127.203 532.633
869 0 53.1631 12.678 674 58.5549 127.105 530.904
870 0 54.2349 11.653 632 60.7468 127.07 532.481
871 0 57.1465 12.8792 736 59.0245 127.026 529.182
872 0 57.104 12.0482 688 60.8648 127.371 529.529
873 0 60.211 11.8915 716 60.7151 126.844 528.098
874 0 59.1072 12.655 748 60.488 127.318 528.195
875 0 62.1368 11.7322 729 61.406 126.761 526.612
876 0 64.1979 12.6484 812 60.532 126.958 526.002
877 0 62.1544 11.8415 736 62.7079 126.707 525.546
878 0 64.1392 12.3793 794 62.4937 127.3 524.594
879 0 70.1648 13.4968 947 59.905 127.421 524.469
880 0 70.1102 13.3361 935 60.6866 126.745 524.771
881 0 70.0962 12.3687 867 62.4256 126.714 523.953
882 0 75.1699 13.5294 1017 60.1052 127.101 521.386
883 0 76.1293 13.3326 1015 60.6847 127.367 520.704
884 0 77.1139 12.6566 976 61.5482 127.373 519.203
885 0 81.1741 12.8859 1046 60.7275 127.27 517.848
886 0 84.1242 13.5395 1139 59.8499 127.043 514.498
887 0 85.1693 11.894 1013 62.2527 127.161 513.887
888 1 45.1298 11.5223 520 58.7673 127.048 534.042
889 0 48.0799 10.5242 506 59.5632 127.057 534.304
890 0 50.0894 10.1219 507 58.4063 126.773 535.554
891 0 50.127 11.012 552 57.8225 127.19 531.996
892 0 51.2496 11.8245 606 57.9637 127.043 531.987
893 0 56.2627 12.5127 704 55.4957 127.332 531.885
894 0 55.2116 11.0846 612 90.9248 127.351 530.678
895 0 55.2116 10.9578 605 136.661 126.357 530.876
896 0 57.2037 11.8524 678 58.7094 128.369 528.413
897 0 61.2713 12.5834 771 56.93 128.23 527.606
898 0 61.2276 11.5961 710 59.3324 128.249 526.573
899 0 63.3013 12.3536 782 58.6714 128.831 527.029
900 0 65.2221 12.2504 799 59.7372 129.001 525.844
901 0 65.3334 11.9847 783 60.9923 129.157 523.835
902 0 67.1832 12.3245 828 60.5121 129.552 524.536
903 0 71.2283 13.3514 951 59.551 129.605 522.272
904 0 72.1638 13.4001 967 60.5119 129.891 520.775
905 0 73.2432 12.6565 927 61.9622 129.918 519.624
906 0 77.0512 13.0562 1006 61.6223 131.049 519.716
907 0 78.0681 12.8221 1001 62.7043 131.338 516.523
908 0 82.0702 12.9401 1062 62.2966 131.451 517.8
909 0 82.186 13.0071 1069 63.0674 130.789 515.449
910 0 84.0864 12.6299 1062 64.4482 131.126 514.839
911 0 87.1018 13.777 1200 63.065 131.099 513.107
912 1 45.0336 9.63724 434 65.9585 130.276 533.385
913 0 47.0623 9.49805 447 65.5391 130.698 533.557
914 0 50.0379 10.552 528 65.0019 130.985 531.231
915 0 52.0284 10.5135 547 65.4516 131.585 531.702
916 0 52.0821 11.0787 577 65.766 131.685 530.177
917 0 56.1601 11.6631 655 64.829 131.331 528.055
918 0 58.0131 11.6181 674 64.6365 131.323 528.119
919 0 57.0359 12.0626 688 65.5901 131.182 526.86
920 0 60.068 11.8699 713 66.9523 131.165 526.181
921 0 62.0683 12.2446 760 66.1145 131.891 525.946
922 0 65.113 12.2556 798 65.4073 132.114 523.85
923 0 67.1345 12.6165 847 65.2739 131.923 523.54
924 0 68.09 12.9094 879 64.6496 132.555 523.051
925 0 70.1551 12.5009 877 65.3273 132.551 520.727
926 0 71.099 12.1943 867 65.5467 132.495 521.961
927 0 73.0946 12.518 915 65.3596 132.375 519.351
928 0 77.1536 12.9352 998 64.4028 132.427 518.423
929 0 79.0663 12.9511 1024 63.9648 132.652 518.032
930 0 81.0715 11.9524 969 65.871 132.782 514.716
931 0 83.1684 11.6751 971 67.758 132.423 515.374
932 1 44.0484 10.0798 444 66.759 132.419 535.034
933 0 45.0181 10.4403 470 65.5702 132.532 534.97
934 0 47.0639 10.6238 500 65.664 131.99 532.428
935 0 49.0228 10.6481 522 65.2088 132.439 533.506
936 0 50.0563 12.1663 609 62.8506 132.299 533.043
937 0 51.0551 11.2428 574 64.4146 131.676 532.265
938 0 53.1048 12.0893 642 63.6137 131.788 531.424
939 0 54.0501 11.6189 628 64.1369 133.282 531.108
940 0 54.0409 11.3618 614 65.6417 132.48 530.399
941 0 55.1504 11.7678 649 65.2527 132.445 528.228
942 0 56.0491 11.6148 651 65.5269 132.101 527.516
943 0 60.068 12.0863 726 63.9477 131.944 528.113
944 0 61.0988 11.6696 713 64.7475 131.899 526.014
945 0 63.1124 11.9153 752 64.3777 131.629 525.613
946 0 64.0661 11.894 762 64.5761 131.524 525.909
947 0 67.064 13.2113 886 62.8454 131.467 523.361
948 0 67.1111 12.2782 824 64.54 131.409 522.721
949 0 72.0925 12.5672 906 62.8819 131.242 521.691
950 0 74.0915 13.1594 975 62.1549 130.933 520.815
951 0 76.0478 13.1759 1002 61.8713 131.129 519.478
952 0 77.111 12.1902 940 63.3138 131.066 519.109
953 0 79.0941 12.6937 1004 63.0548 131.178 517.099
954 0 83.0922 12.9735 1078 62.7449 130.968 516.198
955 0 85.282 12.8163 1093 63.0769 130.64 513.141
956 1 44.0518 10.0791 444 64.2342 130.95 535.045
957 0 44.0748 11.7528 518 63.3282 130.739 533.295
958 0 46.0939 10.7606 496 63.5786 130.369 534.321
959 0 49.0476 10.3165 506 63.9625 130.889 533.589
960 0 48.0212 11.6823 561 63.0428 130.187 533.023
961 0 52.0668 11.9654 623 62.2584 130.709 531.53
962 0 53.0882 12.451 661 61.941 130.622 529.89
963 0 55.083 12.0545 664 61.4985 130.789 530.197
964 0 56.0671 12.3424 692 61.2095 130.361 528.514
965 0 59.0879 12.3037 727 61.4085 130.063 529.803
966 0 57.1492 11.9512 683 63.6515 130.255 527.656
967 0 60.0984 13.0619 785 61.3554 130.242 527.924
968 0 61.1599 12.4919 764 62.5955 129.973 528.28
969 0 65.1115 12.9624 844 61.9206 129.611 525.955
970 0 68.0499 12.7847 870 62.2759 129.844 524.136
971 0 70.0777 11.9867 840 63.7429 129.376 524.945
972 0 72.1302 13.1013 945 62.7735 129.909 522.781
973 0 72.0677 12.4744 899 64.733 129.782 522.633
974 0 76.14 13.0155 991 64.0081 129.635 521.724
975 0 77.0965 13.1394 1013 64.7345 129.162 519.068
976 0 79.0839 13.1 1036 65.3079 129.282 518.887
977 0 83.1329 12.7747 1062 65.9849 129.158 518.192
978 0 87.2647 12.8116 1118 65.8113 129.049 514.873
979 0 89.1335 13.1713 1174 65.816 128.623 514.636
980 1 49.0785 9.75988 479 67.5449 128.102 536.942
981 0 52.0445 10.8945 567 66.2769 128.021 535.219
982 0 51.1406 10.9893 562 67.8185 128.091 533.897
983 0 54.2179 11.5276 625 67.3344 128.037 532.213
984 0 57.3155 12.6667 726 65.1887 127.547 532.05
985 0 58.3577 12.0293 702 66.7607 127.614 531.202
986 0 58.2582 11.243 655 68.7267 127.791 531.963
987 0 62.3222 11.954 745 67.8309 128.074 529.099
988 0 65.2984 12.9712 847 65.9622 128.234 527.914
989 0 65.3154 12.9831 848 66.1144 128.599 527.504
990 0 68.1027 12.9804 884 65.5577 128.587 526.648
991 0 69.246 12.7805 885 66.4023 128.549 524.906
992 0 71.1455 12.5658 894 66.8982 128.266 524.418
993 0 75.1377 13.3355 1002 65.3832 128.406 522.924
994 0 77.2849 13.3791 1034 65.3027 128.67 522.347
995 0 80.2596 12.933 1038 65.7987 128.443 521.819
996 0 81.1665 12.6037 1023 66.6217 128.17 522.319
997 0 83.3414 13.3547 1113 66.1042 128.196 519.18
998 0 88.291 12.5721 1110 66.4009 127.514 516.666
999 1 45.2797 9.87198 447 66.3982 128.385 538.707
1000 0 47.2646 11.2769 533 65.6811 128.587 538.221
1001 0 48.3168 11.3832 550 64.78 128.551 537.32
1002 0 50.2582 11.2817 567 64.8959 128.171 536.453
1003 0 51.2858 12.1281 622 63.9421 128.331 535.727
1004 0 52.2292 11.7559 614 65.0814 128.469 534.542
1005 0 56.3032 11.9709 674 64.1558 127.973 533.234
1006 0 55.1894 12.4662 688 64.2733 128.244 532.634
1007 0 58.1829 11.6873 680 64.4956 128.424 532.325
1008 0 59.0736 12.002 709 64.0113 128.213 531.622
1009 0 61.2219 12.4955 765 63.149 128.158 529.757
1010 0 62.2562 11.4848 715 65.3441 127.965 529.559
1011 0 64.2285 13.1717 846 63.6619 128.074 528.811
1012 0 65.2252 12.8018 835 65.8719 128.046 527.969
1013 0 68.4238 12.7733 874 65.9634 128.212 527.848
1014 0 72.2618 13.4511 972 65.7191 127.821 524.903
1015 0 73.5028 13.36 982 66.3473 127.81 524.876
1016 0 76.4888 13.9759 1069 65.869 127.909 522.97
1017 0 78.5316 13.0139 1022 68.0186 128.224 523.708
1018 0 78.6889 13.7376 1081 67.9362 128.444 518.339
1019 0 84.3963 13.0456 1101 68.2716 128.44 520.648
1020 0 84.5609 13.6588 1155 68.6242 127.972 519.073
1021 0 88.3887 13.8366 1223 68.4783 127.849 516.739
1022 1 45.4386 10.9378 497 70.6278 127.535 537.662
1023 0 48.6482 11.1412 542 70.2952 128.039 537.446
1024 0 48.3525 11.4782 555 71.164 128.171 535.577
1025 0 52.4462 12.2983 645 69.7333 128.891 534.243
1026 0 53.1957 12.6514 673 70.0461 129.233 534.698
1027 0 54.2593 12.8826 699 69.6724 129.117 533.396
1028 0 57.2968 12.985 744 69.8468 129.777 533.546
1029 0 59.2591 13.0107 771 70.0973 129.541 531.036
1030 0 60.2696 12.8589 775 70.2942 129.872 530.36
1031 0 62.3285 12.8673 802 70.8915 129.551 528.401
1032 0 63.4034 12.6807 804 71.6331 129.307 528.16
1033 0 64.284 12.5692 808 72.0631 129.561 527.551
1034 0 68.3309 13.2736 907 70.1246 130.236 526.915
1035 0 70.4816 12.7835 901 71.0599 129.933 525.796
1036 0 72.4721 13.5224 980 70.5245 130.279 523.967
1037 0 74.3931 12.6221 939 72.771 130.456 521.857
1038 0 77.6869 13.2069 1026 71.999 130.895 521.45
1039 0 77.592 12.991 1008 73.7202 130.656 519.09
1040 0 80.376 12.8148 1030 74.265 131.094 518.417
1041 0 83.5308 13.5878 1135 73.0511 131.753 516.749
1042 0 85.4635 13.3156 1138 74.2548 131.67 515.501
1043 0 88.4117 13.4258 1187 74.123 131.698 514.615
1044 1 49.2537 11.39 561 76.4082 131.734 533.217
1045 0 53.2156 11.1246 592 76.2399 131.887 533.103
1046 0 54.1935 11.3482 615 77.413 132.156 531.21
1047 0 55.144 11.4246 630 75.4635 132.227 530.505
1048 0 58.2448 12.4303 724 74.2804 132.174 529.916
1049 0 61.0487 13.0552 797 72.7742 132.536 528.291
1050 0 60.3608 13.0051 785 74.465 132.831 528.387
1051 0 62.1799 12.0457 749 76.5768 132.837 526.81
1052 0 65.2888 12.4524 813 76.3358 133.071 525.873
1053 0 66.1582 13.5584 897 74.864 132.686 525.402
1054 0 69.2456 12.7517 883 76.0929 132.829 523.822
1055 0 71.244 13.0818 932 76.4238 133.016 523.097
1056 0 70.3302 12.8821 906 78.3289 133.001 520.827
1057 0 74.3039 13.2429 984 77.1504 132.843 520.112
1058 0 77.2387 13.3741 1033 77.0523 133.053 519.796
1059 0 80.5019 13.2792 1069 76.8765 132.472 517.487
1060 0 82.3054 13.8023 1136 75.8565 132.172 519.073
1061 0 84.3242 12.95 1092 77.4542 132.586 514.809
1062 1 47.1147 9.63605 454 78.3833 131.969 535.222
1063 0 50.1493 11.047 554 76.3051 131.599 533.486
1064 0 51.1635 10.2221 523 76.6979 131.931 532.975
1065 0 52.0401 11.7986 614 75.0668 131.845 532.064
1066 0 53.0717 10.7025 568 77.3539 132.412 531.285
1067 0 53.2821 11.4485 610 74.4885 133.252 530.636
1068 0 56.2092 11.7596 661 73.5885 132.678 529.784
1069 0 57.1654 12.1402 694 73.9222 132.415 528.539
1070 0 61.2341 12.493 765 71.719 132.322 528.864
1071 0 61.2489 12.4574 763 72.6448 132.789 526.887
1072 0 61.1989 11.961 732 74.3948 132.977 525.81
1073 0 63.2458 11.7794 745 73.8926 132.236 525.549
1074 0 65.1415 12.7261 829 72.8637 132.276 524.049
1075 0 67.2352 12.0175 808 74.1819 132.014 523.434
1076 0 70.1968 12.7926 898 71.686 131.955 524.65
1077 0 72.2367 13.0266 941 71.2933 132.031 521.875
1078 0 73.2019 12.2811 899 73.4127 131.611 519.909
1079 0 76.0714 13.1455 1000 73.607 130.757 520.584
1080 0 78.2257 12.5918 985 74.3827 130.891 519.824
1081 0 80.1223 12.8928 1033 72.6157 131.044 518.133
1082 0 82.3214 13.1922 1086 71.4365 130.936 516.404
1083 0 84.162 12.1314 1021 73.9109 131.444 512.965
1084 0 88.296 13.115 1158 71.9067 131.164 511.439
1085 0 91.2388 12.4508 1136 73.1232 131.289 510.776
1086 1 49.1194 9.73139 478 71.8117 131.856 533.492
1087 0 50.123 10.5341 528 71.9867 132.227 532.663
1088 0 52.06 11.7365 611 69.4648 130.558 534.52
1089 0 55.2408 11.8572 655 68.2061 131.244 529.418
1090 0 54.2145 11.8972 645 67.9101 131.105 529.574
1091 0 57.1604 12.3512 706 67.8003 130.397 530.191
1092 0 58.2017 12.0615 702 68.3419 130.759 529.067
1093 0 58.1956 12.6814 738 68.5637 130.997 529.366
1094 0 61.1589 12.2141 747 68.9746 131.193 527.423
1095 0 64.1693 12.8878 827 67.2539 130.75 526.7
1096 0 66.1805 12.3148 815 68.0417 131.099 526.356
1097 0 68.2066 12.9166 881 67.2804 130.169 523.112
1098 0 70.1845 12.1537 853 68.1618 130.574 523.203
1099 0 73.2796 12.3773 907 67.5987 130.95 521.56
1100 0 76.2665 12.2596 935 67.7016 130.253 519.574
1101 0 76.3395 11.6715 891 68.9877 129.988 519.547
1102 0 80.2502 12.5732 1009 67.7017 129.672 517.224
1103 1 43.1287 10.8744 469 66.9915 130.309 537.243
1104 0 42.1245 9.80427 413 67.753 130.637 537.719
1105 0 43.2238 11.961 517 65.5261 130.056 535.946
1106 0 47.1183 11.5879 546 65.1996 130.046 536.458
1107 0 47.1701 12.5715 593 65.1349 129.449 535.826
1108 0 48.3102 11.9437 577 65.9064 129.153 533.88
1109 0 51.3069 12.8053 657 64.828 129.387 534.263
1110 0 51.2918 11.5808 594 67.1195 129.727 534.468
1111 0 52.1657 12.1728 635 66.5134 129.006 532.087
1112 0 55.2614 11.9251 659 66.1077 129.188 531.844
1113 0 57.4373 12.901 741 64.7409 129.49 532.235
1114 0 58.1978 12.4232 723 65.9142 129.538 530.47
1115 0 60.2096 12.6392 761 64.5283 129.06 531.032
1116 0 63.4271 12.7706 810 64.5938 128.731 529.153
1117 0 66.2673 12.9325 857 63.9463 128.594 528.735
1118 0 67.2174 12.9282 869 64.382 128.764 527.273
1119 0 69.1121 12.8053 885 64.374 128.923 527.391
1120 0 73.2205 13.5754 994 63.1922 128.557 527.225
1121 0 75.3405 14.2818 1076 63.0753 129.848 523.489
1122 0 78.1868 13.2759 1038 64.7351 129.559 523.239
1123 1 44.2371 10.5567 467 66.2505 128.325 539.002
1124 0 46.3071 11.9852 555 63.6541 128.573 540.013
1125 0 47.3293 12.5081 592 62.799 129.321 538.9
1126 0 48.2603 11.2929 545 65.0165 129.404 539.182
1127 0 50.2735 12.4519 626 63.3754 128.976 536.791
1128 0 51.1097 12.2677 627 63.8581 129.041 535.356
1129 0 54.1049 12.8639 696 62.1825 129.691 530.121
1130 0 54.158 12.6666 686 63.3265 129.379 534.745
1131 0 57.1848 12.3459 706 62.8343 129.744 534.255
1132 0 67.2602 16.1611 1087 53.8142 128.029 527.599
1133 0 64.0971 15.9134 1020 56.2559 128.063 527.515
1134 0 64.1658 14.9612 960 58.7833 127.754 528.804
1135 0 63.1688 13.5668 857 61.7841 128.17 528.915
1136 0 64.2694 12.7277 818 63.1528 128.784 529.167
1137 0 65.3426 13.1461 859 62.8277 129.631 526.754
1138 0 68.3931 12.5744 860 63.3744 129.591 527.033
1139 0 71.1897 13.3868 953 61.8269 129.866 526.712
1140 0 71.3444 13.4278 958 62.4906 129.632 524.772
1141 0 73.1816 12.6808 928 62.7802 129.897 524.468
1142 0 77.1954 12.6562 977 64.0604 130.063 523.225
1143 1 39.0964 10.9729 429 62.9977 130.508 543.133
1144 0 38.1012 10.5246 401 64.7057 130.791 541.374
1145 0 40.0479 10.3126 413 65.2615 130.952 540.136
1146 0 41.125 11.5988 477 64.0608 131.526 536.99
1147 0 44.141 11.3953 503 63.3976 130.666 537.738
1148 0 45.0592 11.9177 537 62.8454 129.864 536.648
1149 0 47.2498 12.2752 580 62.2948 130.44 536.334
1150 0 49.1524 12.0645 593 62.0202 130.508 534.929
1151 0 50.1488 12.1239 608 62.3569 130.959 534.625
1152 0 50.1289 12.2085 612 62.7745 131.113 533.884
1153 0 53.0908 12.3939 658 61.617 131.781 532.628
1154 0 53.1045 11.468 609 63.3941 131.737 532.759
1155 0 55.0842 11.546 636 62.9371 131.766 532.318
1156 0 58.1068 12.2361 711 61.2771 131.782 530.639
1157 0 59.1395 12.293 727 61.8748 132.208 529.576
1158 0 61.0776 12.656 773 60.9858 132.723 528.598
1159 0 60.0616 12.7369 765 61.4693 133.043 527.715
1160 0 64.0226 12.4643 798 61.5075 133.665 526.503
1161 0 65.1328 13.0042 847 61.3601 133.396 524.368
1162 0 66.0893 12.3318 815 62.8209 133.944 524.229
1163 0 68.1137 13.2132 900 61.9644 133.647 522.506
1164 0 68.274 12.5817 859 63.1537 133.981 522.398
1165 0 72.1014 13.4949 973 61.481 133.885 520.99
1166 0 75.1568 12.6269 949 62.9052 133.736 519.601
1167 0 77.1923 13.3692 1032 62.5862 134.031 519.238
1168 0 79.2124 13.3691 1059 63.0236 134.778 517.216
1169 0 83.2104 13.5079 1124 62.831 134.644 517.415
1170 0 84.3161 13.5087 1139 63.2116 134.503 514.701
1171 0 87.1751 13.8916 1211 63.2403 134.746 513.075
1172 0 90.3543 13.9119 1257 62.5792 135.158 512.946
1173 0 92.4791 13.1814 1219 64.361 135.454 509.321
1174 1 47.1883 10.5535 498 65.2791 136.1 532.386
1175 0 50.1187 11.7122 587 64.0324 136.184 532.644
1176 0 51.1129 12.3256 630 63.7937 136.295 531.124
1177 0 53.1144 12.2754 652 63.8451 136.44 531.454
1178 0 54.0599 12.9856 702 64.4815 136.101 532.043
1179 0 55.1183 13.0991 722 64.6773 136.251 529.306
1180 0 57.1243 12.7791 730 65.4918 136.088 530.197
1181 0 58.0881 13.1008 761 65.1327 136.246 528.689
1182 0 61.0466 12.5806 768 65.3503 135.56 527.48
1183 0 63.0966 13.2812 838 64.506 134.851 526.424
1184 0 65.1256 13.3742 871 63.9839 135.421 525.898
1185 0 66.0408 13.2494 875 64.4937 134.727 524.314
1186 0 67.0176 12.6534 848 65.5708 134.38 522.092
1187 0 70.1899 13.6629 959 63.6382 134.166 523.914
1188 0 72.2273 13.3329 963 64.6957 134.603 521.058
1189 0 75.204 13.2706 998 64.1212 134.823 520.02
1190 0 75.2083 13.815 1039 64.1213 133.425 518.821
1191 0 77.2057 13.3798 1033 64.7744 134.227 518.09
1192 0 80.325 13.657 1097 64.3017 133.888 517.697
1193 0 84.193 13.5166 1138 64.2478 133.939 515.46
1194 1 40.1152 11.9157 478 64.4707 134.316 537.799
1195 0 44.0658 10.0305 442 66.6697 134.247 534.787
1196 0 45.0689 10.5394 475 66.4547 133.888 535.021
1197 0 48.0547 11.9239 573 65.4747 133.712 531.948
1198 0 51.0518 12.6734 647 64.5549 133.799 531.896
1199 0 51.0533 12.9668 662 64.9396 133.958 531.304
1200 0 53.0495 12.5732 667 65.4798 134.16 529.531
1201 0 53.0936 12.8641 683 65.7042 133.996 529.939
1202 0 57.1202 13.6729 781 63.8438 133.533 529.88
1203 0 59.0672 13.0868 773 64.5524 133.398 528.549
1204 0 61.1055 13.2394 809 64.3572 133.18 528.035
1205 0 63.0574 12.9564 817 64.9816 133.201 526.752
1206 0 65.0591 14.1256 919 63.4342 132.97 526.153
1207 0 68.1621 13.6146 928 64.2231 132.873 525.115
1208 0 66.1422 13.4105 887 65.876 132.731 525.676
1209 0 71.1683 13.2924 946 65.1057 133.018 522.754
1210 0 71.0712 13.1277 933 65.3666 132.372 522.139
1211 0 74.0734 13.4326 995 64.3286 133.216 521.901
1212 0 78.1901 14.3369 1121 62.4924 133.011 519.591
1213 0 82.1965 14.222 1169 62.0676 132.618 518.236
1214 0 82.1275 13.7956 1133 63.7643 132.187 517.287
1215 0 85.2025 14.5301 1238 62.4709 131.956 516.232
1216 0 90.1329 13.935 1256 62.3424 131.664 515.991
1217 0 91.1573 14.7986 1349 61.8466 131.46 513.895
1218 0 94.2372 14.3574 1353 62.3304 131.362 512.514
1219 0 96.2216 14.1548 1362 62.1975 131.353 511.61
1220 0 101.134 14.377 1454 61.9395 131.161 509.164
1221 0 102.131 14.2268 1453 62.3138 131.99 508.638
1222 0 105.122 14.6782 1543 61.8801 131.342 506.448
1223 1 54.2165 9.99696 542 65.0664 130.607 532.341
1224 0 59.1957 11.8083 699 62.7582 130.213 531.546
1225 0 62.2115 12.0717 751 61.5193 129.907 530.045
1226 0 64.1136 12.2907 788 62.5685 129.825 527.874
1227 0 66.2377 13.9649 925 60.1924 130.035 526.625
1228 0 67.2257 13.2092 888 61.268 129.884 525.639
1229 0 70.1078 14.1069 989 59.8352 130.199 524.709
1230 0 72.1936 13.5608 979 60.9387 130.097 523.475
1231 0 74.2385 13.2815 986 61.7262 130.041 520.685
1232 0 76.2298 12.5541 957 62.2738 129.808 520.33
1233 0 79.1692 12.8459 1017 62.3923 129.727 520.915
1234 0 83.2998 13.8536 1154 60.7184 129.643 517.906
1235 0 83.3175 13.4786 1123 62.0837 128.965 516.214
1236 0 88.3888 13.4972 1193 61.9732 129.29 516.174
1237 0 90.1372 13.3685 1205 62.6448 129.119 512.646
1238 0 92.1559 13.3795 1233 63.0884 129.204 510.942
1239 0 97.181 13.4286 1305 63.1663 129.28 510.238
1240 1 51.0324 10.9146 557 62.9749 128.621 534.971
1241 0 54.0336 11.6409 629 62.3784 129.272 533.132
1242 0 55.0489 12.0983 666 61.3468 129.113 532.266
1243 0 56.0814 13.3378 748 59.7955 129.595 531.729
1244 0 60.2198 12.9193 778 60.3766 130.078 530.686
1245 0 60.221 11.8231 712 62.0407 129.902 530.41
1246 0 62.2591 12.3998 772 61.6891 130.135 529.449
1247 0 63.1119 12.5491 792 61.4407 129.634 528.968
1248 0 66.1607 12.6812 839 63.0524 129.555 527.696
1249 0 69.1672 13.9083 962 61.4948 129.745 525.772
1250 0 69.2301 12.6968 879 63.8259 130.278 525.445
1251 0 70.3111 12.53 881 64.8138 130.06 524.205
1252 0 74.1012 12.6179 935 64.7455 130.297 522.624
1253 0 76.2694 12.6525 965 64.9824 130.105 522.876
1254 0 77.4185 13.3043 1030 65.465 130.322 520.699
1255 0 81.329 12.5785 1023 66.651 130.04 518.216
1256 0 84.2101 13.0269 1097 66.5196 130.442 517.565
1257 1 46.0543 10.5311 485 67.2165 130.831 537.709
1258 0 51.1298 11.5002 588 66.0697 131.371 536.391
1259 0 50.0749 12.4014 621 67.628 130.994 534.931
1260 0 51.0349 12.6776 647 67.4158 131.164 535.148
1261 0 54.0562 12.339 667 69.2129 131.355 533.219
1262 0 55.1516 12.8011 706 68.9858 131.559 533.197
1263 0 57.1233 12.2367 699 69.1803 131.857 532.08
1264 0 59.171 13.0638 773 69.1307 131.92 529.52
1265 0 61.1432 13.1985 807 68.9665 131.68 529.869
1266 0 63.1063 13.5486 855 68.4819 131.994 527.632
1267 0 66.1126 13.7039 906 68.0276 132.185 526.65
1268 0 68.1392 13.7513 937 68.0886 132.506 523.566
1269 0 69.0558 13.728 948 68.788 132.57 523.991
1270 0 73.2804 13.3733 980 68.6276 132.753 521.21
1271 0 75.2228 13.5198 1017 69.1622 133.034 519.492
1272 0 76.1711 13.916 1060 68.8509 133.018 519.338
1273 0 81.2192 13.8883 1128 68.2748 133.254 517.313
1274 0 82.1839 13.3724 1099 69.5023 133.621 517.934
1275 0 84.2947 14.0578 1185 68.9544 133.988 515.468
1276 0 88.1514 14.1234 1245 68.5904 134.059 515.106
1277 1 45.0851 10.8683 490 70.8347 133.945 535.457
1278 0 47.0896 10.5543 497 70.2656 134.728 535.416
1279 0 48.0386 11.9071 572 69.4003 134.642 534.969
1280 0 51.0609 12.6124 644 68.5124 134.132 534.326
1281 0 53.0691 12.1351 644 69.4627 134.725 532.03
1282 0 53.1879 12.8601 684 69.0614 135.804 530.833
1283 0 57.0677 13.2649 757 67.5059 134.867 529.215
1284 0 56.0656 13.181 739 69.364 134.794 527.792
1285 0 60.1148 13.4409 808 67.8824 134.835 528.401
1286 0 62.0604 13.0679 811 68.2515 135.057 527.333
1287 0 64.1255 13.6763 877 67.8997 135.008 525.891
1288 0 63.0666 13.8108 871 68.7474 135.297 526.247
1289 0 67.058 13.7791 924 68.7911 135.333 524.269
1290 0 68.0384 12.9633 882 70.1825 135.673 525.55
1291 0 71.0875 14.1938 1009 67.8751 135.525 523.043
1292 0 72.1148 13.9223 1004 69.2799 135.344 521.762
1293 0 72.1148 13.9084 1003 177.333 135.337 521.741
1294 0 77.1224 14.0296 1082 69.0111 135.846 518.57
1295 0 78.1321 13.7715 1076 69.9535 135.859 518.224
1296 0 80.4786 13.954 1123 70.7729 135.382 513.05
1297 0 83.3627 13.9871 1166 70.928 135.208 512.041
1298 0 87.3461 14.4941 1266 69.7148 134.905 511.631
1299 0 89.356 14.4254 1289 70.2141 135.3 509.944
1300 0 92.4588 13.671 1264 71.8165 135.114 508.04
1301 0 96.4272 14.135 1363 71.1387 134.303 508.34
1302 1 50.454 11.7533 593 71.1484 134.556 530.29
1303 0 51.2967 10.9754 563 73.1776 134.909 528.556
1304 0 52.3428 11.0235 577 73.1577 135.435 527.142
1305 0 55.2854 11.2145 620 72.4774 135.211 526.469
1306 0 57.4524 12.5321 720 69.7 134.767 526.378
1307 0 59.3304 13.1973 783 69.9336 135.811 524.928
1308 0 61.4262 14.0657 864 68.7766 134.924 523.317
1309 0 63.4692 13.2978 844 69.5782 135.445 523.973
1310 0 65.5223 13.7053 898 69.4621 134.629 521.834
1311 0 65.5064 13.8154 905 70.0773 135.091 521.131
1312 0 66.4039 13.0715 868 71.97 134.879 520.957
1313 0 69.4771 13.3425 927 70.9795 134.36 518.409
1314 0 73.3261 12.8331 941 71.2614 134.237 518.015
1315 0 75.4399 13.2954 1003 70.5723 133.464 514.283
1316 0 77.5643 13.2664 1029 70.4548 133.405 512.516
1317 0 79.2209 13.557 1074 70.2169 133.15 515.977
1318 0 82.3767 13.6689 1126 70.5959 133.034 513.396
1319 0 86.412 13.7828 1191 69.5197 133.14 513.264
1320 0 87.3537 13.6342 1191 69.796 132.331 512.709
1321 0 91.4958 13.5963 1244 70.8481 132.692 509.739
1322 0 93.4462 13.0663 1221 71.3898 132.197 509.687
1323 0 94.6162 13.2747 1256 71.4148 131.908 508.011
1324 1 51.317 11.8284 607 70.1367 132.278 528.969
1325 0 51.2284 11.478 588 71.1156 131.75 529.544
1326 0 52.2195 12.3326 644 69.2966 131.933 530.606
1327 0 56.1821 12.6553 711 68.4191 131.377 530.464
1328 0 56.3652 13.3593 753 67.923 131.636 529.256
1329 0 59.284 13.4438 797 67.1179 131.701 528.698
1330 0 60.2746 13.256 799 68.4631 131.324 527.693
1331 0 64.2763 13.1464 845 67.8355 131.263 526.85
1332 0 66.2748 13.3082 882 67.7506 131.266 524.807
1333 0 68.1515 13.7488 937 66.6051 130.831 524.478
1334 0 69.1897 13.9182 963 69.0083 131.16 523.214
1335 0 70.429 13.4462 947 70.3949 131.116 522.479
1336 0 72.3568 13.1985 955 69.9225 131.026 521.208
1337 0 74.2997 13.4994 1003 69.6211 131.193 520.266
1338 0 77.4128 13.7574 1065 69.154 131.305 518.823
1339 0 80.1794 13.5571 1087 68.805 130.99 517.741
1340 0 82.3553 14.0974 1161 67.6288 131.709 518.835
1341 0 86.3157 13.9256 1202 67.2088 132.15 516.669
1342 0 87.3205 13.4791 1177 68.0399 132.353 514.46
1343 0 90.3351 13.8595 1252 66.7636 131.819 513.43
1344 0 95.373 13.6412 1301 66.372 131.755 511.029
1345 1 53.2118 10.6743 568 68.2236 131.808 532.706
1346 0 55.2782 11.5054 636 67.2893 131.654 531.608
1347 0 57.2706 11.4893 658 67.3389 131.178 531.426
1348 0 58.2333 12.3984 722 67.7493 130.82 530.384
1349 0 59.266 12.6717 751 67.0599 130.72 528.703
1350 0 62.1541 12.4529 774 67.6421 130.466 528.062
1351 0 64.34 12.7759 822 67.5182 130.14 526.706
1352 0 66.2052 12.7634 845 67.5089 129.8 526.277
1353 0 67.1984 12.5152 841 68.3555 130.043 526.139
1354 0 68.0882 13.2328 901 68.3762 129.67 524.651
1355 0 71.0885 13.5324 962 68.0437 129.673 521.944
1356 0 73.2803 13.1004 960 69.4198 129.492 522.322
1357 0 75.4986 13.2055 997 70.0171 129.225 521.036
1358 0 78.3916 13.0754 1025 70.5259 129.147 518.045
1359 0 80.5028 12.6952 1022 71.1223 129.167 516.158
1360 0 83.3877 13.2873 1108 71.2148 128.997 513.683
1361 0 87.3138 13.6977 1196 70.6773 128.954 512.138
1362 1 45.1871 10.3127 466 73.691 128.981 534.273
1363 0 49.1183 11.34 557 72.9946 128.51 531.892
1364 0 49.0774 12.5312 615 72.052 128.434 533.554
1365 0 52.0812 12.0773 629 73.8251 128.014 531.172
1366 0 52.1184 12.6443 659 73.5615 127.819 531.8
1367 0 54.0391 12.8796 696 73.0029 128.539 533.599
1368 0 55.0943 13.014 717 73.855 128.573 532.259
1369 0 58.1526 13.3786 778 73.2391 128.807 529.784
1370 0 58.2425 13.3064 775 74.5161 128.77 525.382
1371 0 61.1525 12.9839 794 74.8967 128.718 525.928
1372 0 63.0995 13.6451 861 74.1336 129.272 525.577
1373 0 64.131 13.6751 877 75.1243 129.576 525.213
1374 0 65.1687 13.5648 884 75.6176 129.219 525.223
1375 0 67.1371 13.0181 874 76.103 129.564 526.612
1376 0 70.3202 13.0261 916 75.0524 129.656 522.27
1377 0 72.32 13.3988 969 74.418 129.689 524.193
1378 0 75.3852 13.504 1018 74.335 129.924 522.106
1379 0 76.3098 12.921 986 74.7323 129.45 522.302
1380 0 79.4492 14.0845 1119 73.479 129.518 519.394
1381 1 42.3179 10.1848 431 76.065 129.657 539.45
1382 0 44.2309 11.3947 504 70.9901 129.889 536.855
1383 0 46.3094 13.0427 604 69.106 129.507 536.988
1384 0 46.2825 12.186 564 74.4344 129.401 536.378
1385 0 49.1177 12.1138 595 72.6269 129.171 535.854
1386 0 50.1071 12.9323 648 72.6404 130.282 534.216
1387 0 52.1912 12.8949 673 72.5305 130.36 533.749
1388 0 52.2301 12.7896 668 73.1946 129.93 533.127
1389 0 55.1548 12.8729 710 72.7324 130.227 532.413
1390 0 55.1668 13.142 725 73.04 129.727 531.24
1391 0 55.2312 13.018 719 74.4256 129.707 530.502
1392 0 58.0974 13.7184 797 72.5358 130.212 529.312
1393 0 57.0698 13.4397 767 74.3051 130.083 528.806
1394 0 59.0377 12.8562 759 74.9262 129.817 527.972
1395 0 62.3619 13.6782 853 72.7597 129.726 526.535
1396 0 66.3215 13.2084 876 72.3824 130.22 526.215
1397 0 68.0944 13.7897 939 72.0043 129.797 523.257
1398 0 71.1429 13.6345 970 71.4608 129.86 521.627
1399 0 72.3064 12.8619 930 73.6075 130.354 520.804
1400 0 76.4572 14.204 1086 70.3766 129.632 518.821
1401 0 78.38 14.3404 1124 70.5792 130.428 516.155
1402 0 81.2706 13.8796 1128 71.18 130.335 515.936
1403 1 42.1337 11.7246 494 70.9555 130.636 534.662
1404 0 44.1577 11.7986 521 70.4088 131.225 535.219
1405 0 43.2335 11.727 507 70.7357 130.625 534.679
1406 0 46.083 12.7162 586 68.6843 131.317 533.259
1407 0 45.0842 12.155 548 70.7281 133.073 532.909
1408 0 48.0908 11.9773 576 69.5677 133.307 533.488
1409 0 48.0322 13.2203 635 68.4504 133.424 532.038
1410 0 49.1506 12.3295 606 70.4686 133.568 530.472
1411 0 51.1037 12.2496 626 69.8546 134.005 529.899
1412 0 54.1762 13.0315 706 67.3909 133.865 529.34
1413 0 56.1179 13.0796 734 67.5123 134.463 527.165
1414 0 56.1413 13.1632 739 67.5575 134.099 528.238
1415 0 57.0622 13.8445 790 66.9658 134.08 527.09
1416 0 58.117 13.2319 769 68.3784 134.35 526.096
1417 0 60.1917 13.3075 801 68.4032 134.179 524.764
1418 0 62.1883 13.4913 839 68.4982 134.203 524.291
1419 0 64.0682 13.3608 856 67.9381 134.119 524.169
1420 0 66.2253 14.5715 965 66.5098 133.272 521.715
1421 0 69.1373 14.7243 1018 65.7908 133.383 521.993
1422 0 70.1243 12.6632 888 68.2511 133.521 521.801
1423 0 72.5533 13.5073 980 66.8837 133.344 518.65
1424 0 76.2265 14.0765 1073 65.7055 133.225 517.203
1425 0 77.3282 13.6173 1053 66.3476 133.453 516.695
1426 0 80.3669 14.6329 1176 64.2917 133.321 514.28
1427 0 82.1221 14.4541 1187 64.5459 132.634 514.19
1428 0 86.2138 13.9537 1203 64.5885 132.705 513.13
1429 1 48.09 12.435 598 64.2525 132.689 530.584
1430 0 50.104 11.3165 567 65.1728 133.279 529.894
1431 0 51.1317 11.7344 600 64.255 133.635 530.72
1432 0 54.2453 11.9826 650 65.06 133.348 529.074
1433 0 55.1792 13.1028 723 63.9585 133.412 527.57
1434 0 56.1509 13.1966 741 64.4561 133.443 527.981
1435 0 57.246 12.9267 740 65.5311 133.72 528.262
1436 0 61.2012 13.1207 803 64.8829 133.097 526.105
1437 0 62.2648 13.1535 819 65.4066 132.841 525.366
1438 0 63.2157 13.5093 854 65.377 133.052 524.81
1439 0 66.2065 13.911 921 64.6808 132.879 523.634
1440 0 67.1237 13.5124 907 64.882 132.348 522.854
1441 0 71.283 13.6638 974 64.2895 132.065 520.429
1442 0 73.2486 13.2972 974 64.3963 132.617 521.168
1443 0 74.1491 13.7561 1020 63.9696 133.082 520.168
1444 0 76.259 13.0476 995 65.0553 132.365 516.846
1445 0 78.1799 13.405 1048 65.0038 131.676 516.461
1446 0 81.3593 13.4342 1093 65.0201 131.871 514.629
1447 0 83.1923 13.1863 1097 65.3099 131.637 513.385
1448 0 86.308 13.7067 1183 64.8183 131.725 512.194
1449 0 91.3093 14.0621 1284 63.9759 131.297 510.742
1450 1 49.3148 10.9703 541 64.4233 131.824 531.778
1451 0 51.1686 11.7064 599 63.2805 131.669 529.915
1452 0 52.287 10.997 575 63.6557 132.017 530.637
1453 0 55.1965 11.8667 655 63.6947 131.35 529.186
1454 0 56.2876 12.7204 716 62.7472 132.218 527.487
1455 0 56.2876 12.7737 719 160.045 133.221 527.376
1456 0 60.1534 12.1024 728 63.2679 131.284 526.626
1457 0 61.3739 12.6764 778 63.3586 131.242 524.781
1458 0 61.1109 11.6182 710 65.8028 130.928 523.973
1459 0 66.183 12.5712 832 63.863 131.317 522.347
1460 0 69.2733 12.8044 887 62.8151 131.223 523.28
1461 0 70.1297 12.9332 907 63.3947 130.848 521.34
1462 0 72.1949 12.8403 927 63.1079 130.385 518.886
1463 0 75.2315 12.3486 929 63.2928 130.772 518.507
1464 0 76.1409 13.173 1003 62.3549 130.277 518.088
1465 0 79.2839 13.3318 1057 62.1306 130.003 516.983
1466 0 81.1897 13.7825 1119 61.5424 130.265 515.954
1467 0 84.2357 12.9755 1093 62.3742 129.833 514.222
1468 0 84.216 13.1329 1106 62.8246 129.737 513.051
1469 0 89.1385 13.5519 1208 61.4801 129.521 511.48
1470 0 91.238 13.2949 1213 62.0033 129.676 511.388
1471 0 92.1647 12.7055 1171 62.8224 129.208 510.381
1472 0 94.2659 12.7193 1199 62.9333 129.263 507.27
1473 0 100.409 13.216 1327 61.4326 129.537 507.787
1474 0 101.247 12.988 1315 62.4289 129.431 505.351
1475 1 54.1482 10.0834 546 60.9487 129.667 530.222
1476 0 58.1679 10.3837 604 60.6142 129.023 529.363
1477 0 61.2634 10.5936 649 60.9584 128.9 528.786
1478 0 63.249 11.6207 735 59.1905 128.571 527.94
1479 0 66.2054 11.3888 754 59.118 128.789 526.691
1480 0 68.2071 11.5384 787 58.8856 128.776 526.328
1481 0 71.247 10.9338 779 59.7587 129.281 525.439
1482 0 72.3196 11.0205 797 59.9059 128.888 525.772
1483 0 73.2928 12.4296 911 59.7772 129.492 519.729
1484 0 78.2643 12.4833 977 59.3255 129.444 520.284
1485 0 78.2584 11.9348 934 60.6017 129.238 517.937
1486 0 80.2887 12.2309 982 60.2424 129.267 517.39
1487 0 83.2503 12.1441 1011 60.6815 129.906 515.911
1488 0 87.3365 12.2744 1072 60.5644 130.468 514.477
1489 0 89.385 12.6308 1129 60.4801 129.772 511.764
1490 0 92.342 12.8977 1191 60.1327 129.738 512.096
1491 0 96.4889 12.789 1234 60.1288 129.441 510.816
1492 0 100.252 12.7179 1275 60.2314 129.87 510.64
1493 0 100.446 12.0562 1211 61.9158 130.439 508.154
1494 0 104.275 12.7451 1329 60.8209 130.476 506.442
1495 0 110.434 12.804 1414 60.2815 130.448 504.815
1496 1 62.2995 10.2569 639 60.18 130.95 527.588
1497 0 63.1388 9.56622 604 60.5745 131.199 528.886
1498 0 66.2163 11.4473 758 58.8047 131.4 527.235
1499 0 68.1642 11.5897 790 60.6405 130.994 523.719
1500 0 70.181 12.824 900 59.0444 130.792 522.579
1501 0 73.2372 12.0431 882 60.3027 130.977 523.596
1502 0 74.5379 12.2086 910 60.2077 130.985 522.749
1503 0 77.2722 12.4107 959 60.2722 131.663 519.877
1504 0 77.1922 12.7733 986 60.7596 131.294 518.338
1505 0 81.1983 13.2146 1073 60.1966 131.047 518.024
1506 0 82.2227 12.7215 1046 61.2141 131.329 516.914
1507 0 85.1967 12.6413 1077 61.5218 131.691 514.678
1508 0 86.401 11.9675 1034 62.7466 131.444 512.74
1509 0 90.3274 13.2297 1195 60.964 132.234 513.137
1510 0 92.2803 12.4295 1147 61.6181 132.249 509.517
1511 0 95.1381 13.2754 1263 61.521 132.325 508.959
1512 0 98.2637 13.5554 1332 61.4317 132.413 507.844
1513 0 101.168 12.7609 1291 63.3098 132.757 505.473
1514 0 103.335 12.8224 1325 64.0823 133.176 502.839
1515 0 107.192 13.4245 1439 63.2877 133.165 501.598
1516 0 109.166 12.8337 1401 64.7794 133.319 500.379
1517 0 112.284 14.0715 1580 62.9924 133.88 498.841
1518 0 117.255 13.8757 1627 62.8525 134.177 497.852
1519 0 118.318 13.4722 1594 64.3237 134.403 494.741
1520 0 121.46 13.1154 1593 65.4476 134.838 491.869
1521 0 125.286 14.1756 1776 63.7218 134.546 492.34
1522 0 131.27 14.573 1913 63.3988 134.821 488.55
1523 0 132.341 14.0394 1858 64.2836 135.065 487.325
1524 0 139.306 14.3641 2001 63.8336 135.879 482.927
1525 0 144.307 13.79 1990 64.5256 135.719 482.519
1526 0 148.204 14.5138 2151 63.4705 135.809 481.034
1527 1 83.1221 10.8274 900 62.9533 135.956 515.564
1528 0 86.0721 11.2464 968 62.9731 135.401 511.42
1529 0 88.1082 11.8264 1042 62.8378 135.866 511.41
1530 0 92.2652 12.0305 1110 62.3892 136.053 509.886
1531 0 95.3454 11.3482 1082 63.4889 135.586 509.381
1532 0 96.4314 12.5063 1206 63.6924 134.49 506.732
1533 0 100.294 12.6129 1265 64.253 134.125 505.168
1534 0 103.426 12.5887 1302 64.0192 135.082 504.665
1535 0 106.367 12.7671 1358 64.4543 134.133 501.667
1536 0 110.371 12.3401 1362 65.13 134.071 501.709
1537 0 113.544 12.6912 1441 65.2783 134.779 496.833
1538 0 118.782 12.586 1495 65.7057 134.405 494.595
1539 0 120.613 12.6106 1521 65.8008 134.195 495.641
1540 1 66.2026 9.84856 652 64.8144 135.19 524.244
1541 0 69.1139 10.0993 698 65.4656 135.486 523.021
1542 0 71.117 11.235 799 63.6608 135.259 520.577
1543 0 75.128 11.3939 856 64.6776 133.445 521.585
1544 0 77.1523 11.6782 901 64.0255 134.505 519.169
1545 0 77.0619 11.8217 911 64.2151 134.776 518.011
1546 0 82.108 12.1304 996 62.9277 134.068 516.341
1547 0 84.0854 12.4516 1047 62.3763 134.053 515.84
1548 0 85.1239 12.0648 1027 63.5745 134.078 513.821
1549 0 91.1207 12.1048 1103 62.5213 133.805 510.946
1550 0 94.2054 12.3878 1167 62.108 133.102 511.609
1551 0 96.1756 13.1946 1269 61.2506 132.717 508.01
1552 0 98.2123 11.9842 1177 63.1937 132.887 508.238
1553 0 101.301 12.833 1300 62.2538 131.959 505.769
1554 0 105.611 14.5439 1536 59.3906 131.872 500.219
1555 0 107.5 13.2744 1427 61.9257 131.698 501.93
1556 0 109.402 12.2484 1340 63.4604 131.399 500.525
1557 0 111.196 12.7253 1415 62.5484 131.131 498.137
1558 1 62.3044 9.72644 606 61.231 131.3 525.213
1559 0 60.1904 9.90191 596 62.8792 131.586 524.378
1560 0 63.2006 9.25624 585 62.4803 132.103 527.068
1561 0 64.0911 9.64253 618 63.5307 131.798 522.697
1562 0 70.3695 11.468 807 61.0657 131.367 519.606
1563 0 70.3399 11.2312 790 61.6949 131.166 520.42
1564 0 72.1787 12.7738 922 59.8395 132.623 518.593
1565 0 74.1302 12.3027 912 60.545 131.882 517.295
1566 0 76.1444 11.5307 878 61.7711 131.72 517.331
1567 0 77.069 11.7946 909 61.6755 131.538 515.34
1568 0 83.1374 12.8582 1069 59.9916 131.567 514.781
1569 0 82.1048 12.5815 1033 61.4956 131.772 512.36
1570 0 86.1459 13.0012 1120 61.0991 131.799 512.743
1571 0 87.1237 12.3503 1076 61.4907 131.626 512.308
1572 0 90.1253 12.6269 1138 61.2232 131.429 511.793
1573 0 94.076 13.234 1245 60.6386 131.405 510.057
1574 0 97.2553 13.2743 1291 60.9566 131.294 510.021
1575 0 100.152 13.7092 1373 60.8653 131.169 508.094
1576 0 103.216 12.8275 1324 60.9962 130.958 505.798
1577 0 105.204 12.9272 1360 61.8324 130.839 504.516
1578 0 110.222 12.5202 1380 62.3304 130.346 503.451
1579 0 114.203 13.1783 1505 61.1874 130.322 500.501
1580 0 117.371 13.5894 1595 61.6075 130.197 499.09
1581 0 118.224 14.0327 1659 61.5763 130.801 496.354
1582 0 122.278 13.4775 1648 63.0667 130.255 496.186
1583 0 125.39 13.8927 1742 62.4432 130.67 493.595
1584 0 130.36 13.923 1815 62.5686 130.217 490.529
1585 1 73.089 11.1918 818 62.4242 130.582 522.116
1586 0 73.1434 11.7304 858 62.3741 130.697 520.618
1587 0 77.1986 11.9691 924 62.237 130.346 519.485
1588 0 80.0741 12.1762 975 62.0185 130.726 517.367
1589 0 82.1709 12.7783 1050 61.1733 130.413 516.508
1590 0 84.1046 12.3656 1040 62.0135 130.319 515.102
1591 0 86.094 12.707 1094 61.4707 130.512 512.725
1592 0 91.1256 12.3785 1128 61.2447 130.813 512.298
1593 0 94.6594 11.7579 1113 62.7862 128.881 511.236
1594 0 97.607 11.6488 1137 63.0018 129.403 506.844
1595 0 100.572 12.5881 1266 60.9755 129.269 509.111
1596 1 57.492 9.34043 537 60.9646 129.603 531.302
1597 0 57.5442 9.83592 566 61.2297 129.684 529.74
1598 0 59.4136 10.3848 617 60.9481 130.028 527.653
1599 0 63.4675 11.1868 710 58.5986 130.235 527.377
1600 0 62.3384 12.1915 760 58.7276 130.543 526.216
1601 0 68.4035 11.286 772 58.9313 130.203 524.71
1602 0 67.2201 12.169 818 58.3435 130.808 523.333
1603 0 71.3734 11.2927 806 58.5484 130.556 523.656
1604 0 73.3581 11.2189 823 58.8603 130.33 523.011
1605 0 74.1186 11.8459 878 58.1606 131.137 522.073
1606 0 76.1569 12.4611 949 58.0748 131.934 519.002
1607 0 79.1799 11.7707 932 58.9388 131.462 518.102
1608 0 82.191 12.2519 1007 58.3019 131.455 518.287
1609 0 82.1402 12.5517 1031 59.2415 131.841 514.768
1610 0 83.1393 12.016 999 60.1031 132.039 514.1
1611 0 89.1004 12.9966 1158 58.4128 132.163 513.091
1612 0 91.1862 12.3922 1130 60.1009 131.801 511.456
1613 0 95.2127 12.4668 1187 59.8458 133.011 510.27
1614 0 98.1475 12.8276 1259 59.946 133.199 508.087
1615 1 56.0765 10.0755 565 59.7327 133.86 530.235
1616 0 58.043 11.1297 646 59.2957 134.2 528.641
1617 0 60.0884 11.1502 670 59.6463 134.157 526.119
1618 0 60.1121 11.6449 700 59.5057 134.319 526.127
1619 0 63.2168 11.9272 754 58.7785 133.183 524.033
1620 0 63.3181 11.4185 723 60.0526 133.811 524.45
1621 0 65.2259 11.6211 758 59.1794 135.485 521.65
1622 0 67.1035 12.2497 822 59.2457 135.092 523.35
1623 0 68.1212 12.786 871 59.1745 135.949 520.358
1624 0 72.1473 12.9735 936 58.1058 135.331 519.844
1625 0 72.2161 12.1995 881 59.8445 135.455 520.093
1626 0 74.1519 12.7846 948 58.9272 135.485 516.906
1627 0 75.0987 12.1174 910 60.1945 135.748 513.167
1628 0 78.1322 12.4661 974 59.8717 135.967 512.174
1629 0 81.0638 12.8911 1045 59.4077 136.412 515.022
1630 0 85.2304 13.6571 1164 58.6323 135.953 513.814
1631 0 87.2301 13.4128 1170 59.2897 135.514 510.979
1632 0 90.2084 13.7238 1238 59.1422 135.734 510.135
1633 0 91.195 12.9174 1178 60.5756 136.171 506.783
1634 0 95.23 12.9476 1233 60.3617 135.744 507.61
1635 0 98.2982 12.7978 1258 60.845 135.735 503.506
1636 0 102.169 12.6164 1289 61.3142 136.019 502.729
1637 1 57.0488 10.5524 602 61.6246 136.882 524.772
1638 0 59.139 10.2132 604 62.2715 136.06 523.869
1639 0 60.1119 10.5803 636 62.5189 135.324 523.263
1640 0 62.2611 12.1585 757 60.786 134.926 521.688
1641 0 65.2227 11.7904 769 60.6125 135.428 520.555
1642 0 66.1324 13.4427 889 58.6153 134.933 519.796
1643 0 67.0602 11.5419 774 61.2339 135.14 520.68
1644 0 70.2236 11.677 820 60.7488 135.033 518.752
1645 0 72.2171 12.1162 875 60.0526 134.918 516.592
1646 0 73.3198 12.8342 941 59.4718 135.234 515.654
1647 0 75.2005 12.5132 941 60.3273 135.433 515.437
1648 0 78.1999 12.5064 978 60.4182 135.034 513.828
1649 0 79.1621 12.7713 1011 60.4955 135.33 513.577
1650 0 82.2482 12.6203 1038 60.8728 135.37 512.339
1651 0 84.2659 11.8316 997 62.1665 134.798 510.899
1652 0 89.4219 12.7038 1136 59.7086 135.233 508.046
1653 0 90.3802 12.8568 1162 60.0086 134.745 506.71
1654 0 95.3464 12.9633 1236 59.5469 135.222 507.125
1655 0 97.2589 12.7906 1244 60.3521 134.688 504.464
1656 0 101.453 12.8533 1304 60.8535 134.396 502.348
1657 0 104.357 12.8405 1340 61.0993 134.037 499.955
1658 0 107.508 12.3525 1328 62.0813 134.499 498.084
1659 0 109.528 12.8826 1411 61.6945 133.843 496.91
1660 0 114.615 13.445 1541 60.7365 133.572 496.486
1661 0 119.413 14.1358 1688 60.0231 133.784 496.324
1662 1 65.2479 10.1612 663 60.5189 135.044 525.121
1663 0 67.175 10.882 731 61.1943 134.137 524.356
1664 0 69.2212 11.3693 787 60.5159 134.221 523.023
1665 0 72.2723 12.1623 879 59.81 133.172 520.473
1666 0 74.1725 12.4035 920 59.2196 132.838 520.12
1667 0 78.1207 12.5063 977 59.0829 132.591 518.617
1668 0 77.1012 11.8546 914 60.046 131.993 517.434
1669 0 81.2472 12.1481 987 59.4164 132.2 515.927
1670 0 83.0744 12.5069 1039 59.6391 132.032 517.123
1671 0 87.1478 12.519 1091 59.8607 132.157 513.383
1672 0 89.1583 12.775 1139 59.2941 131.946 514.038
1673 0 93.2617 12.792 1193 59.3244 131.94 511.932
1674 0 97.1058 12.6769 1231 58.7896 131.639 510.752
1675 0 96.1845 11.3948 1096 61.4599 131.603 508.859
1676 0 103.122 12.5483 1294 59.323 131.116 506.959
1677 0 104.212 12.5513 1308 59.6919 131.791 507.615
1678 0 107.117 12.5844 1348 60.276 131.774 504.277
1679 0 112.337 12.8008 1438 60.5195 131.259 501.834
1680 0 112.396 12.0467 1354 61.8589 131.405 502.589
1681 0 116.298 12.6744 1474 61.1343 131.618 500.128
1682 0 121.358 12.9534 1572 61.1495 131.574 498.056
1683 1 67.179 9.18442 617 61.705 131.118 528.229
1684 0 69.107 10.1003 698 60.3768 131.407 526.113
1685 0 72.1979 11.6208 839 58.6627 130.917 521.638
1686 0 74.1154 11.6305 862 58.0371 130.817 521.769
1687 0 75.3279 12.0672 909 58.0264 130.613 521.081
1688 0 79.1806 12.061 955 58.0052 130.596 518.948
1689 0 80.1678 11.7254 940 58.8723 130.329 518.201
1690 0 81.1413 11.8559 962 59.2547 130.047 516.938
1691 0 85.1602 12.1418 1034 58.7515 130.236 515.39
1692 0 87.1506 11.9104 1038 58.9769 129.442 513.768
1693 0 90.1374 12.0927 1090 59.1147 129.319 513.35
1694 0 92.2381 11.9907 1106 59.3879 129.618 509.187
1695 0 97.1166 12.2327 1188 58.3939 130.004 513.356
1696 0 97.302 11.9114 1159 60.4599 129.864 508.563
1697 0 99.3411 11.9387 1186 61.1214 129.782 507.229
1698 0 104.461 11.8322 1236 59.7743 129.773 507.21
1699 1 58.2697 9.74777 568 59.7042 130.162 530.048
1700 0 61.2522 10.8404 664 58.988 130.274 526.152
1701 0 64.2919 10.4523 672 59.7262 129.644 524.716
1702 0 65.1166 10.7499 700 59.5786 129.469 520.369
1703 0 67.2573 10.8984 733 58.1078 129.741 523.794
1704 0 68.2782 11.5264 787 58.8996 129.515 522.088
1705 0 70.2196 11.4783 806 58.9926 129.107 523.656
1706 0 72.1678 11.3763 821 59.5542 128.912 523.266
1707 0 74.1044 12.2395 907 58.9923 129.028 517.607
1708 0 76.2151 12.3466 941 58.8193 129.002 518.655
1709 0 78.2059 12.3776 968 58.625 129.224 515.049
1710 0 80.0905 12.361 990 58.7303 128.819 518.136
1711 0 86.1896 13.7952 1189 56.2422 129.406 515.914
1712 0 85.1003 11.8566 1009 59.4252 129.336 515.537
1713 0 89.1246 12.7125 1133 58.4104 129.152 512.994
1714 0 90.2677 12.5737 1135 58.6661 129.135 512.257
1715 0 96.2354 13.2176 1272 57.4127 129.672 509.674
1716 0 98.2035 12.8101 1258 58.1041 130.276 509.941
1717 0 99.1673 12.726 1262 58.6957 130.613 509.059
1718 0 100.316 12.4607 1250 58.9384 130.338 506.706
1719 0 106.12 12.9947 1379 57.8158 130.162 505.399
1720 0 109.223 13.2665 1449 58.3734 130.242 503.998
1721 1 60.3138 9.10239 549 59.3206 129.805 526.914
1722 0 60.3445 9.57834 578 59.3339 129.834 525.913
1723 0 65.2623 11.3542 741 57.4534 129.981 526.501
1724 0 64.3597 10.8453 698 59.0501 130.701 525.643
1725 0 68.1785 12.0273 820 56.3915 131.962 524.649
1726 0 69.2001 12.6011 872 56.7706 131.733 522.463
1727 0 71.1602 11.5092 819 58.1282 131.656 520.802
1728 0 73.2096 11.7608 861 58.2137 131.8 520.843
1729 0 74.1383 12.2069 905 57.4188 131.79 519.299
1730 0 77.182 11.8033 911 57.9243 131.802 517.552
1731 0 79.119 12.5507 993 57.3444 132.122 515.504
1732 0 84.382 12.6686 1069 56.6024 132.168 514.734
1733 0 83.2345 12.1224 1009 57.8285 133.056 513.341
1734 0 88.2432 12.9075 1139 56.7349 133.001 510.766
1735 0 91.2613 12.5902 1149 56.6014 132.691 511.523
1736 0 93.505 12.6517 1183 57.2815 133.199 509.739
1737 0 94.3439 12.359 1166 57.5575 133.426 506.897
1738 0 97.4809 12.7922 1247 56.498 133.675 504.225
1739 0 102.263 13.8271 1414 55.2001 133.647 504.109
1740 0 105.327 14.1274 1488 54.6828 133.956 503.148
1741 1 59.2765 10.1895 604 55.404 134.303 527.295
1742 0 62.1862 11.5942 721 52.6311 134.147 524.993
1743 0 61.1811 11.327 693 53.7893 134.232 525.405
1744 0 62.2646 11.3708 708 53.9138 134.555 524.219
1745 0 65.1544 11.8948 775 54.0465 134.152 521.806
1746 0 64.1548 11.8152 758 54.9697 134.861 520.584
1747 0 67.2589 11.9984 807 54.9653 135.385 520.641
1748 0 68.2997 12.1962 833 53.9796 135.81 518.385
1749 0 70.2479 11.6872 821 55.1717 135.97 517.923
1750 0 73.2823 12.2949 901 53.7236 136.292 517.285
1751 0 76.2584 12.7855 975 53.9395 136.491 516.558
1752 0 78.1433 12.7842 999 54.5826 136.846 513.758
1753 0 78.2876 12.6968 994 55.2716 137.011 512.415
1754 0 82.2248 12.6969 1044 54.9243 136.585 513.268
1755 0 83.2273 12.8083 1066 55.2974 136.777 511.371
1756 0 85.3953 12.7759 1091 55.9753 136.335 510.095
1757 0 88.2123 13.1047 1156 56.4559 135.452 507.293
1758 0 92.323 12.5537 1159 56.9146 135.751 508.904
1759 0 95.4152 13.2579 1265 56.732 135.828 506.277
1760 0 96.3428 12.632 1217 58.4988 135.65 504.979
1761 1 54.3481 8.96075 487 59.3244 135.218 525.045
1762 0 56.246 9.68958 545 58.9651 134.914 524.826
1763 0 56.1426 10.1527 570 59.5105 135.402 524.83
1764 0 61.1063 10.3263 631 58.2742 134.254 525.826
1765 0 62.1118 10.6421 661 59.4796 133.707 522.427
1766 0 62.1652 11.0834 689 57.7329 134.34 522.332
1767 0 63.2872 12.1036 766 57.6932 135.593 519.209
1768 0 66.2407 12.5904 834 57.482 135.228 521.001
1769 0 68.0954 12.4531 848 56.8868 136.34 520.509
1770 0 69.0825 11.7251 810 57.0407 135.9 520.053
1771 0 71.0446 13.3578 949 55.2392 135.757 518.528
1772 0 71.1049 13.0371 927 56.9612 135.151 517.348
1773 0 75.0907 13.3305 1001 56.6264 134.451 515.628
1774 0 77.125 12.7844 986 57.0436 135.112 515.082
1775 0 80.1003 14.3695 1151 54.3319 133.891 515.911
1776 0 81.1493 13.1856 1070 57.4159 133.716 512.625
1777 0 85.115 13.8753 1181 56.3133 134.05 511.88
1778 0 86.115 13.2729 1143 57.895 133.718 510.565
1779 0 89.1795 14.297 1275 56.7827 134.257 510.297
1780 0 91.1898 13.6748 1247 58.1997 133.645 507.363
1781 0 95.199 14.4014 1371 57.8373 133.997 506.772
1782 0 98.0724 13.7449 1348 58.0957 134.073 505.462
1783 0 102.111 13.975 1427 57.6006 133.809 505.764
1784 0 105.111 14.3658 1510 56.9762 133.184 505.693
1785 1 61.1737 10.2985 630 59.0571 133.024 528.768
1786 0 63.0446 11.9598 754 57.7122 132.589 525.639
1787 0 65.1284 11.7153 763 57.7261 132.389 524.043
1788 0 67.0741 12.6576 849 56.3074 131.656 521.612
1789 0 68.1513 12.8537 876 56.8927 132.261 521.132
1790 0 71.1755 13.5861 967 55.7859 132.521 521.867
1791 0 73.116 13.3897 979 56.2513 132.472 520.445
1792 0 75.0805 12.4 931 56.9774 132.582 519.549
1793 0 75.1275 12.6452 950 57.5284 132.709 518.897
1794 0 77.142 13.3001 1026 57.0721 132.448 517.239
1795 0 79.1633 13.1627 1042 57.5269 132.159 515.753
1796 0 81.1181 12.8578 1043 57.511 131.853 515.259
1797 0 85.1253 13.0631 1112 57.4047 131.631 513.131
1798 0 89.1698 13.222 1179 56.7176 131.533 512.059
1799 0 90.1603 12.7994 1154 57.5953 131.159 509.159
1800 0 93.1729 13.9203 1297 56.2714 131.847 510.005
1801 0 96.2569 12.7783 1230 57.6772 131.58 508.898
1802 0 99.2785 13.8096 1371 56.4843 131.324 504.992
1803 0 101.169 13.3045 1346 57.2184 131.483 504.552
1804 0 106.149 13.2361 1405 57.2833 131.274 500.756
1805 1 59.0763 10.5795 625 56.504 131.811 527.141
1806 0 61.0458 10.8607 663 56.6968 131.27 524.652
1807 0 63.0861 10.5412 665 57.7053 131.552 524.102
1808 0 66.0553 12.3533 816 55.2917 131.306 522.335
1809 0 66.104 11.6029 767 57.2008 131.937 524.656
1810 0 68.0682 13.3689 910 55.4121 131.47 523.116
1811 0 70.0934 13.1539 922 55.7213 131.374 523.249
1812 0 73.0844 12.6703 926 56.5367 130.987 520.607
1813 0 73.0771 13.4926 986 55.6714 131.371 519.896
1814 0 75.1508 13.6392 1025 56.0341 131.05 519.027
1815 0 79.1984 13.0306 1032 56.7422 131.704 516.213
1816 0 80.1198 13.1179 1051 56.7355 131.875 518.01
1817 0 83.1321 13.5808 1129 56.8406 131.426 514.213
1818 0 86.3357 13.3433 1152 57.138 131.747 512.228
1819 0 89.1715 13.7264 1224 56.7149 131.303 512.021
1820 0 91.3765 13.3623 1221 57.7158 131.366 509.462
1821 0 94.2218 13.3621 1259 58.0461 131.358 507.664
1822 0 98.1761 14.912 1464 56.4529 131.827 506.542
1823 0 101.131 15.0003 1517 57.0646 131.808 504.409
1824 0 103.272 14.6216 1510 57.6298 131.101 503.72
1825 0 105.119 14.1079 1483 58.735 131.696 503.03
1826 0 109.186 14.1593 1546 58.4948 131.393 500.741
1827 0 112.121 14.3773 1612 58.5273 131.93 498.9
1828 0 117.271 14.701 1724 58.1114 132.478 498.659
1829 0 118.141 14.6181 1727 59.0591 132.674 495.382
1830 0 124.296 14.6345 1819 58.2958 133.08 495.044
1831 0 128.236 15.6196 2003 57.4998 132.94 489.719
1832 0 131.241 14.6448 1922 59.0973 132.972 488.613
1833 0 136.251 15.266 2080 58.2663 133.17 486.716
1834 1 78.0503 11.3645 887 59.4363 133.098 516.209
1835 0 82.0826 12.4752 1024 57.9707 133.416 516.361
1836 0 81.171 11.987 973 59.4224 133.11 514.086
1837 0 84.1949 12.8393 1081 58.1822 134.348 514.225
1838 0 89.1983 13.1953 1177 57.5726 134.643 512.239
1839 0 90.2431 12.6104 1138 59.0193 134.714 508.952
1840 0 93.2076 12.8638 1199 58.6564 134.759 507.006
1841 0 96.3627 12.536 1208 59.4089 134.956 504.163
1842 0 99.3967 13.0286 1295 58.7884 135.547 502.317
1843 0 101.505 11.9305 1211 60.2304 135.623 501.598
1844 0 105.39 12.8285 1352 59.3905 135.438 500.555
1845 0 107.278 12.6867 1361 60.5577 135.171 497.918
1846 0 112.189 13.0672 1466 59.4816 135.425 497.686
1847 0 117.332 13.6876 1606 58.3917 135.413 495.425
1848 0 121.255 12.9974 1576 59.0082 135.333 492.574
1849 0 127.586 13.4889 1721 58.0366 135.793 490.195
1850 1 74.0754 10.4218 772 55.3588 136.209 520.957
1851 0 75.1547 11.5761 870 55.3253 135.847 517.367
1852 0 79.1995 11.8056 935 54.8545 136.075 516.247
1853 0 80.2547 11.7999 947 54.9314 136.473 515.19
1854 0 84.2254 11.5761 975 54.0451 136.534 513.31
1855 0 85.1808 11.1527 950 54.8568 136.167 511.384
1856 0 88.3428 11.0479 976 54.7203 135.671 510.211
1857 0 90.1783 11.2555 1015 54.531 135.858 508.795
1858 0 93.2698 11.515 1074 54.5642 135.222 505.607
1859 0 96.3861 11.9623 1153 54.379 135.085 503.385
1860 0 98.3909 11.1494 1097 55.474 135.336 503.954
1861 0 102.201 12.8375 1312 54.1776 135.267 501.379
1862 0 104.375 11.9377 1246 56.0321 135.106 499.311
1863 0 109.272 13.3154 1455 54.4495 134.869 500.915
1864 0 109.26 12.5298 1369 56.1592 134.874 498.584
1865 1 65.2862 10.2165 667 55.1784 134.376 521.889
1866 0 66.2899 10.8614 720 54.6847 134.299 521.122
1867 0 66.3008 11.3573 753 54.6693 134.278 519.972
1868 0 69.3008 13.4198 930 52.6161 133.967 518.683
1869 0 73.1825 12.5576 919 52.7236 135.184 520.707
1870 0 71.164 12.3798 881 53.3621 135.373 520.017
1871 0 75.1565 12.6536 951 51.9653 134.683 518.201
1872 0 75.0891 12.4519 935 52.893 134.188 515.601
1873 0 77.1125 11.8917 917 53.7361 134.697 517.382
1874 0 78.0773 12.5901 983 53.1445 134.057 514.992
1875 0 82.1838 12.6789 1042 53.0681 134.018 512.443
1876 0 83.1461 12.5442 1043 53.5762 133.69 511.496
1877 0 87.134 12.4636 1086 53.4503 133.544 511.563
1878 0 90.1645 12.4661 1124 53.6388 134.21 509.159
1879 0 93.2179 13.6347 1271 52.4886 134.223 509.019
1880 0 95.2492 12.798 1219 53.8138 134.059 506.511
1881 0 98.1628 13.8851 1363 52.5268 133.716 506.848
1882 0 99.2073 12.993 1289 53.7975 133.461 504.692
1883 0 103.327 14.5654 1505 52.5322 133.3 504.078
1884 0 107.319 13.7161 1472 53.2568 133.234 503.254
1885 0 109.442 13.5322 1481 54.8231 132.991 499.025
1886 0 111.281 14.0275 1561 54.6233 132.533 497.732
1887 0 114.416 14.6396 1675 54.4525 132.478 497.289
1888 0 117.346 13.5667 1592 55.6734 132.212 496.656
1889 1 67.3186 10.8588 731 56.1053 132.606 523.486
1890 0 65.3976 10.5508 690 56.1058 132.583 525.01
1891 0 69.3698 10.7972 749 56.1856 132.766 522.623
1892 0 72.5251 11.7752 854 55.993 132.759 521.701
1893 0 73.5086 12.2571 901 55.7891 132.623 517.911
1894 0 77.312 12.5595 971 55.2317 131.138 519.979
1895 0 79.4337 13.2815 1055 54.7953 130.966 516.87
1896 0 78.4532 12.4023 973 56.4789 131.276 515.999
1897 0 82.4227 12.7392 1050 56.4533 132.043 514.139
1898 0 81.5946 13.3955 1093 56.7667 130.896 511.817
1899 0 87.5309 13.4924 1181 56.0982 130.942 511.573
1900 0 89.4087 13.2649 1186 56.8482 130.625 510.407
1901 0 94.6424 14.3487 1358 54.9389 130.421 512.18
1902 0 96.4284 13.9689 1347 55.974 130.402 510.226
1903 0 100.405 14.3817 1444 55.4813 129.792 511.407
1904 0 101.6 13.6614 1388 56.5519 130.816 508.238
1905 0 105.51 14.482 1528 55.5641 130.278 505.869
1906 0 108.508 14.6256 1587 55.7473 130.227 502.204
1907 0 111.401 14.3176 1595 55.9034 130 501.421
1908 1 64.4595 11.5576 745 56.1906 129.781 527.192
1909 0 63.4143 11.4801 728 55.6868 129.011 528.816
1910 0 66.3016 11.0555 733 56.3042 129.082 526.098
1911 0 69.289 12.3396 855 56.2456 129.133 524.849
1912 0 71.3551 14.0705 1004 54.6464 129.174 522.3
1913 0 73.2907 12.2526 898 56.6704 129.447 522.247
1914 0 74.2736 13.2887 987 56.2188 129.306 520.578
1915 0 77.2568 12.1931 942 57.2484 129.214 519.83
1916 0 79.2053 13.3956 1061 56.59 129.304 517.669
1917 0 83.2653 13.535 1127 56.4969 129.063 517.358
1918 0 84.3461 13.1363 1108 57.2157 129.037 514.502
1919 0 88.1889 13.4257 1184 58.3454 129.063 514.214
1920 0 93.2872 13.9891 1305 57.4766 130.47 511.246
1921 0 95.1979 14.2965 1361 57.507 129.644 511.018
1922 0 95.282 12.8671 1226 60.3972 129.293 508.864
1923 0 101.316 13.3049 1348 59.7055 129.064 508.052
1924 0 102.246 13.8195 1413 59.603 129.129 507.707
1925 0 105.159 13.8837 1460 59.7548 128.538 505.21
1926 0 110.354 13.9369 1538 59.0052 128.495 503.328
1927 0 114.243 13.8389 1581 58.8811 128.915 502.392
1928 0 116.251 14.0213 1630 58.7785 128.856 500.991
1929 1 67.1161 10.4446 701 59.0399 127.843 524.776
1930 0 66.0916 10.3795 686 58.7566 128.526 525.628
1931 0 71.1815 11.843 843 57.306 130.179 524.649
1932 0 72.1223 12.3263 889 57.4004 130.039 523.172
1933 0 75.1741 12.6905 954 56.8082 129.122 522.96
1934 0 77.1847 13.2928 1026 56.0897 129.612 524.673
1935 0 78.1718 11.9864 937 59.1003 129.128 520.813
1936 0 83.1971 12.9812 1080 57.7167 129.234 519.376
1937 0 83.0999 12.491 1038 59.2909 129.552 517.861
1938 0 87.26 12.6633 1105 58.8018 129.59 515.423
1939 0 90.178 13.4955 1217 57.6664 130.062 515.114
1940 0 92.1385 12.9153 1190 58.6714 130.311 513.839
1941 0 93.2194 12.7656 1190 59.4176 130.247 512.511
1942 0 97.1849 13.109 1274 59.0196 130.232 510.227
1943 0 98.2944 13.4392 1321 59.3883 130.368 509.382
1944 0 101.207 12.341 1249 60.8094 130.26 507.825
1945 0 105.327 13.3489 1406 57.968 130.318 506.765
1946 0 109.218 13.4319 1467 58.1418 130.706 503.564
1947 0 109.174 12.5488 1370 59.7613 130.394 501.807
1948 0 113.264 13.1639 1491 58.9121 130.904 501.304
1949 0 118.188 13.4362 1588 58.2802 130.516 499.918
1950 0 119.251 12.9642 1546 59.5362 130.759 496.138
1951 0 124.297 13.9988 1740 58.0684 130.903 492.236
1952 0 127.265 13.743 1749 58.3333 130.929 493.834
1953 0 131.285 13.5049 1773 59.1591 131.925 491.646
1954 0 136.272 14.1115 1923 58.6037 132.112 487.81
1955 0 139.4 14.3616 2002 58.0245 132.3 484.958
1956 0 144.21 13.1822 1901 59.384 132.104 484.93
1957 1 83.2017 9.61519 800 57.7838 132.545 518.849
1958 0 87.1189 11.1916 975 56.7138 132.698 514.701
1959 0 90.1949 11.4862 1036 55.9624 132.762 513.844
1960 0 92.2546 11.3599 1048 56.8225 133.193 511.145
1961 0 97.3405 12.9442 1260 54.7762 132.667 510.246
1962 0 99.3019 12.5778 1249 55.5548 132.155 508.417
1963 0 100.297 12.0243 1206 56.3856 132.834 506.959
1964 0 105.172 12.3892 1303 55.551 132.464 506.942
1965 0 106.21 12.5977 1338 55.9245 132.922 504.813
1966 0 111.282 13.0838 1456 54.9121 133.453 500.863
1967 0 114.199 13.2137 1509 55.1021 133.557 499.471
1968 0 115.436 12.7863 1476 55.3462 134.039 499.859
1969 0 119.298 13.2693 1583 55.283 134.173 495.951
1970 0 122.179 12.9646 1584 55.5221 134.475 493.927
1971 0 128.386 13.2413 1700 55.1606 134.523 492.606
1972 0 129.347 13.0347 1686 55.9205 134.575 490.614
1973 0 136.351 13.4505 1834 55.1925 134.436 490.531
1974 0 136.189 13.6061 1853 55.6616 134.64 486.811
1975 0 141.234 13.7644 1944 55.7269 134.97 484.311
1976 0 143.276 12.6678 1815 57.0534 134.859 483.498
1977 0 151.472 13.4282 2034 56.0939 135.206 481.486
1978 1 86.1045 10.5569 909 55.5996 135.757 514.374
1979 0 88.0857 12.0451 1061 54.3468 135.428 512.035
1980 0 91.2052 12.3458 1126 54.9876 135.573 509.707
1981 0 94.0943 11.7648 1107 56.0723 136.058 507.248
1982 0 98.1352 13.4712 1322 53.9796 136.166 506.088
1983 0 101.164 12.3957 1254 54.8931 135.782 505.589
1984 0 102.226 12.5604 1284 55.3894 135.801 502.137
1985 0 105.182 12.9205 1359 54.7366 135.696 502.256
1986 0 109.25 12.6225 1379 54.9231 135.69 499.324
1987 0 112.27 13.3606 1500 53.9373 135.721 495.629
1988 0 116.213 13.3892 1556 53.7423 135.375 497.024
1989 0 120.314 12.9245 1555 54.1498 135.111 495.096
1990 0 123.322 14.304 1764 52.8396 135.21 491.635
1991 0 127.333 13.1387 1673 53.991 135.718 488.365
1992 0 131.667 13.3291 1755 53.5157 135.624 487.613
1993 0 137.38 13.823 1899 52.4803 135.358 486.038
1994 0 141.568 14.0216 1985 52.5174 135.228 481.48
1995 0 146.538 14.6447 2146 51.9972 134.756 481.121
1996 0 148.515 13.2108 1962 53.6239 134.563 480.109
1997 0 154.499 13.7023 2117 53.4672 134.444 474.403
1998 0 161.443 13.2864 2145 53.9375 134.415 471.972
1999 0 167.463 13.5433 2268 53.664 134.553 472.024
2000 0 172.395 13.6083 2346 53.7144 134.675 469.509
2001 0 178.41 14.2985 2551 53.2587 134.235 466.343
2002 0 183.54 14.6453 2688 53.1793 133.931 461.202
2003 0 190.515 14.739 2808 52.7062 133.265 459.665
2004 0 197.613 14.4222 2850 53.1116 133.262 456.272
2005 0 204.548 14.0798 2880 54.0819 133.21 451.67
2006 0 209.394 14.0357 2939 54.591 133.514 450.436
2007 0 215.39 14.1696 3052 54.7566 133.474 445.312
2008 0 223.532 14.074 3146 54.8735 133.509 441.382
2009 1 172.585 11.3741 1963 56.8365 133.381 470.736
2010 0 177.718 12.3904 2202 56.445 133.42 467.041
2011 0 183.496 13.1338 2410 55.4793 133.904 464.237
2012 0 190.457 13.7984 2628 54.7024 133.631 458.367
2013 0 196.521 13.566 2666 54.6557 133.366 456.418
2014 0 202.34 13.8776 2808 54.6407 132.966 453.29
2015 0 209.457 13.2867 2783 54.9095 132.62 451.609
2016 0 216.409 14.3571 3107 54.046 132.687 446.958
2017 0 222.472 14.2715 3175 54.2888 132.581 443.38
2018 1 62.3331 11.1498 695 50.5626 133.652 525.734
2019 0 65.2842 12.1163 791 49.9823 133.099 523.909
2020 0 65.3255 12.0933 790 50.1367 133.244 524.162
2021 0 66.1532 12.6827 839 50.8892 132.714 522.614
2022 0 67.3362 12.846 865 51.3145 133.112 524.225
2023 0 69.415 12.2596 851 52.3502 133.203 521.918
2024 0 72.5555 13.879 1007 50.7925 133.253 519.679
2025 0 75.4142 14.1353 1066 50.5985 133.683 520.286
2026 0 76.5151 13.1608 1007 51.1758 133.495 519.643
2027 0 78.5366 13.7515 1080 51.8204 132.965 516.501
2028 0 82.5857 13.0894 1081 52.1073 132.667 517.436
2029 0 84.4692 14.7864 1249 50.442 132.005 514.314
2030 0 86.7322 13.2477 1149 52.3908 132.752 515.195
2031 0 88.5805 12.8245 1136 53.4762 133.584 513.126
2032 0 98.5314 16.4922 1625 48.1372 133.462 507.15
2033 0 98.6657 17.0171 1679 48.2972 133.05 508.501
2034 0 99.5597 14.3231 1426 51.3058 132.538 510.244
2035 0 100.609 14.1438 1423 52.3148 132.072 511.22
2036 1 59.4356 13.2412 787 52.5616 132.395 530.991
2037 0 58.4677 13.1012 766 53.6501 132.151 529.082
2038 0 60.2949 12.8037 772 53.5091 132.465 525.163
2039 0 63.2238 13.9188 880 51.9716 132.225 525.932
2040 0 64.2414 13.4648 865 53.2728 131.986 522.932
2041 0 68.3738 15.0935 1032 50.969 132.309 523.363
2042 0 70.5769 14.0131 989 52.3367 132.02 523.401
2043 0 69.5034 14.4741 1006 53.2684 130.958 521.246
2044 0 71.8253 13.7278 986 54.072 131.157 520.091
2045 0 74.3835 13.2825 988 54.5334 130.85 522.361
2046 0 76.5824 14.8468 1137 52.5893 131.045 520.712
2047 0 79.6726 14.1579 1128 53.6002 131.727 518.797
2048 0 79.5957 14.046 1118 54.0912 131.47 518.137
2049 0 83.5013 14.6704 1225 53.5241 131.597 518.058
2050 0 86.6207 14.4538 1252 53.4545 131.887 515.845
2051 0 89.7949 14.934 1341 53.1581 130.954 515.939
2052 0 90.3545 14.2882 1291 54.2587 131.53 514.968
2053 0 94.8221 14.8067 1404 53.7949 131.273 512.216
2054 0 98.6981 14.3974 1421 55.5588 131.217 511.675
2055 0 99.456 14.2777 1420 56.1007 130.73 510.214
2056 0 103.581 15.4469 1600 54.8388 130.616 509.323
2057 0 108.754 14.4823 1575 55.8692 130.398 508.731
2058 0 110.471 14.058 1553 56.7688 130.311 506.323
2059 0 113.543 14.5143 1648 55.9873 130.642 504.142
2060 1 66.3582 12.4627 827 56.283 130.721 529.029
2061 0 67.2264 11.796 793 56.4729 131.052 527.351
2062 0 71.4003 13.0392 931 54.724 131.363 526.211
2063 0 72.5149 13.2662 962 55.1653 131.161 525.5
2064 0 74.3179 13.052 970 55.5103 130.987 523.422
2065 0 75.4251 13.4173 1012 55.418 130.92 521.916
2066 0 79.4877 14.3041 1137 54.0994 130.544 521.476
2067 0 81.3519 14.0009 1139 54.309 131.399 520.957
2068 0 84.2746 13.7408 1158 54.7392 130.853 518.6
2069 0 87.4625 13.743 1202 54.5641 131.63 518.497
2070 0 88.4566 13.4755 1192 55.3809 131.197 515.676
2071 0 91.631 13.3252 1221 55.4562 132.006 514.695
2072 0 94.5178 13.68 1293 55.8809 131.877 514.014
2073 0 98.3762 14.4344 1420 55.7662 131.8 510.557
2074 0 102.622 14.5486 1493 55.923 132.052 509.05
2075 0 104.449 14.1792 1481 56.6941 131.687 508.424
2076 0 108.592 14.7248 1599 55.5547 131.725 509.574
2077 0 110.379 13.961 1541 57.3348 131.733 505.327
2078 0 114.33 14.2219 1626 56.3942 131.663 505.651
2079 0 118.541 13.7758 1633 56.8641 131.453 502.06
2080 0 122.41 14.6312 1791 56.1597 131.933 501.339
2081 1 66.3638 11.4369 759 58.8617 132.286 527.08
2082 0 66.395 12.4407 826 58.3584 132.454 526.344
2083 0 71.2199 12.8897 918 57.415 132.722 524.596
2084 0 73.2428 14.7045 1077 55.611 133.171 522.04
2085 0 74.3252 13.8176 1027 58.0253 132.923 520.026
2086 0 76.4184 13.2821 1015 58.3074 133.392 520.043
2087 0 79.3119 14.1971 1126 57.4885 133.497 518.854
2088 0 82.2188 15.0452 1237 56.7777 134.116 518.675
2089 0 84.3783 13.8306 1167 58.7541 134.016 516.947
2090 0 86.2884 14.4631 1248 58.5841 134.571 516.411
2091 0 88.3121 14.1543 1250 59.9248 134.788 514.444
2092 0 93.4277 14.1821 1325 60.1472 134.88 512.494
2093 0 96.3777 15.3459 1479 59.0203 134.969 511.024
2094 0 99.4682 14.4669 1439 60.4225 135.082 510.067
2095 0 100.313 15.3818 1543 60.4822 135.137 506.998
2096 0 101.363 14.5418 1474 62.4003 135.034 504.37
2097 0 104.401 14.8754 1553 62.3052 134.849 503.031
2098 0 108.293 14.313 1550 63.4748 134.832 501.889
2099 0 113.161 14.4838 1639 63.1733 134.766 501.099
2100 1 65.2018 12.2236 797 64.1016 135.243 526.123
2101 0 65.0914 11.8449 771 64.9455 135.73 524.599
2102 0 69.1415 11.8453 819 65.2515 135.365 524.626
2103 0 68.1077 13.0675 890 65.6416 135.419 522.126
2104 0 74.1082 13.5613 1005 65.0348 135.737 520.753
2105 0 75.1258 14.4691 1087 64.2466 135.463 519.686
2106 0 77.1084 14.4602 1115 64.9794 135.706 519.575
2107 0 78.1106 13.7369 1073 66.7968 135.829 517.476
2108 0 79.0756 13.4934 1067 67.6026 135.706 516.812
2109 0 84.0686 13.8577 1165 67.4146 135.614 515.355
2110 0 86.0731 13.7093 1180 67.6373 135.955 514.331
2111 0 88.0927 13.8036 1216 68.6217 135.948 512.514
2112 0 91.0803 14.3719 1309 67.7028 135.922 512.019
2113 0 92.1344 14.6091 1346 68.0854 136.629 510.979
2114 0 96.0733 14.2287 1367 68.8456 135.805 508.731
2115 0 100.146 14.1194 1414 69.1075 136.049 508.593
2116 0 100.174 13.9158 1394 69.3759 135.943 506.74
2117 0 106.077 15.0363 1595 67.6013 135.973 504.153
2118 0 109.198 15.2292 1663 67.4083 135.955 501.239
2119 0 111.147 14.6563 1629 68.6206 135.649 500.306
2120 1 66.0877 11.1216 735 70.0925 135.486 524.26
2121 0 66.0933 10.9693 725 70.5297 135.366 521.772
2122 0 67.1538 13.3276 895 67.5486 135.218 520.993
2123 0 73.1727 13.3793 979 66.999 135.004 520.42
2124 0 73.1576 13.7921 1009 67.338 134.721 519.817
2125 0 75.177 13.5015 1015 67.4946 134.317 518.611
2126 0 79.1962 13.4855 1068 67.5805 134.051 516.714
2127 0 83.1369 13.7123 1140 66.5132 133.661 517.091
2128 0 85.1195 13.4517 1145 67.0873 133.661 515.187
2129 0 88.1402 14.2841 1259 65.7053 133.696 514.653
2130 0 91.2184 14.1528 1291 66.0643 133.559 512.59
2131 0 92.0898 14.1601 1304 66.5683 133.268 512.005
2132 0 96.1313 14.0953 1355 66.555 133.159 511.506
2133 0 97.2318 14.2443 1385 67.1661 132.685 508.424
2134 0 103.199 14.3994 1486 66.5949 132.928 507.209
2135 0 104.104 14.6681 1527 67.2371 133.239 505.419
2136 0 109.163 14.8494 1621 66.4164 132.804 504.418
2137 0 111.206 14.3518 1596 67.6253 132.242 502.828
2138 0 114.178 14.4511 1650 68.083 132.67 502.264
2139 0 119.218 15.09 1799 67.1112 132.036 499.361
2140 1 67.2081 11.0552 743 68.9246 132.001 526.357
2141 0 70.0218 12.3105 862 68.5638 132.035 524.375
2142 0 72.1 12.8155 924 68.1331 131.416 523.236
2143 0 74.1252 13.005 964 68.3693 131.384 521.082
2144 0 77.1311 14.5726 1124 66.3167 132.192 521.536
2145 0 78.0897 13.779 1076 68.0883 131.654 520.617
2146 0 80.0712 13.6129 1090 68.4468 131.685 519.504
2147 0 82.1007 13.2155 1085 70.1189 131.43 515.38
2148 0 86.0462 13.609 1171 69.4364 132.442 515.933
2149 0 89.062 14.1138 1257 69.4391 131.949 515.444
2150 0 93.1227 14.6259 1362 68.8429 131.932 513.77
2151 0 94.1302 14.1294 1330 70.3857 131.883 512.437
2152 0 98.2077 13.9806 1373 70.5914 131.969 511.613
2153 0 101.258 13.8558 1403 71.206 131.907 509.574
2154 0 102.07 13.9806 1427 72.0925 131.989 508.793
2155 0 105.101 14.3862 1512 71.8856 131.582 507.907
2156 0 110.091 14.8332 1633 70.5738 131.533 506.549
2157 0 115.161 14.5796 1679 70.7123 131.492 503.522
2158 0 117.165 14.6546 1717 70.9039 132.048 501.739
2159 0 119.105 14.3655 1711 71.6745 131.547 499.307
2160 0 123.161 13.5839 1673 72.3604 131.467 498.812
2161 0 129.168 15.0579 1945 69.9774 131.412 495.844
2162 0 131.107 14.103 1849 72.1942 131.472 495.793
2163 0 134.238 13.9976 1879 72.8233 131.119 491.484
2164 0 138.154 14.8312 2049 71.6227 131.656 489.689
2165 0 145.33 14.7801 2148 71.1229 130.885 488.49
2166 0 147.115 14.8592 2186 71.5956 130.583 485.006
2167 0 153.354 13.759 2110 73.3791 130.885 482.26
2168 1 90.1257 11.2288 1012 73.3231 130.102 516.151
2169 0 94.2672 12.6237 1190 72.2235 129.686 511.885
2170 0 97.2473 13.0184 1266 71.9589 129.874 510.039
2171 0 100.096 13.457 1347 70.5197 130.137 508.108
2172 0 105.064 13.5251 1421 70.2597 129.725 507.992
2173 0 106.252 13.4398 1428 71.6597 129.583 504.929
2174 0 110.118 13.6308 1501 71.5683 130.1 503.36
2175 0 114.11 13.8901 1585 70.6871 129.557 500.322
2176 0 118.17 14.293 1689 69.9716 129.947 498.915
2177 0 120.14 13.8421 1663 71.7757 129.894 494.919
2178 0 125.23 14.118 1768 71.2245 129.589 493.909
2179 0 131.2 14.3598 1884 69.983 130.39 493.097
2180 0 133.208 14.7814 1969 70.1427 130.346 492.311
2181 0 137.326 14.4328 1982 70.9183 130.649 489.493
2182 0 140.315 14.332 2011 71.5385 130.521 486.093
2183 0 147.217 15.0119 2210 69.8697 130.555 484.689
2184 0 150.265 14.2881 2147 71.5049 130.689 481.623
2185 0 156.387 14.4833 2265 70.9183 130.89 478.848
2186 0 162.335 14.9197 2422 70.2325 131.121 474.677
2187 0 168.456 14.6447 2467 70.4058 131.304 472.146
2188 0 171.302 13.8819 2378 72.4113 131.766 468.495
2189 0 180.276 14.683 2647 70.3948 132.075 467.503
2190 0 186.556 14.6819 2739 70.3206 131.982 462.747
2191 0 191.381 14.7089 2815 70.4252 131.69 460.134
2192 0 199.343 14.8137 2953 70.9956 132.302 457.288
2193 0 204.565 15.1101 3091 70.3054 132.246 455.5
2194 0 210.359 15.2976 3218 70.7641 132.875 449.153
2195 0 217.563 15.8391 3446 69.4643 133.151 444.617
2196 0 224.599 14.9555 3359 70.4409 133.457 441.871
2197 0 230.372 15.8874 3660 68.635 133.996 434.877
2198 0 238.557 15.665 3737 68.9628 133.614 432.958
2199 0 243.531 16.2361 3954 67.7739 133.7 428.253
2200 1 194.281 11.8385 2300 71.72 133.899 462.152
2201 0 201.254 13.0233 2621 70.5746 133.988 454.106
2202 1 68.0964 9.69214 660 62.3424 135.124 522.548
2203 0 68.0483 9.55203 650 62.0692 135.662 520.331
2204 0 70.1476 10.763 755 61.8993 135.612 518.307
2205 0 73.0547 10.7591 786 62.1921 135.959 516.328
2206 0 75.2136 11.3144 851 61.0752 135.847 517.387
2207 0 78.2357 12.1556 951 60.081 136.306 515.65
2208 0 82.2828 11.266 927 61.4099 136.1 513.058
2209 0 85.2404 11.6259 991 61.0706 136.268 511.455
2210 0 86.1431 11.6898 1007 61.3009 136.463 510.385
2211 0 89.2075 11.9497 1066 60.8133 136.065 508.206
2212 1 16.0083 6.24676 100 55.32 136.43 543.4
2213 0 13.0068 6.30442 82 56.7317 136.671 544.72
2214 0 18.0062 7.66403 138 54.6377 134.645 542.688
2215 0 16.018 7.74129 124 54.0645 134.952 543.516
2216 0 18.0417 8.14779 147 53.3401 135.422 542.17
2217 0 20.0375 8.33438 167 53.4671 135.305 542.246
2218 0 22.0925 7.10647 157 52.7962 135.446 542.121
2219 0 11.0037 6.08886 67 53.791 134.597 545.239
2220 0 14.0053 6.14052 86 52.7442 136.547 545.919
2221 0 13.0255 6.60243 86 53.7442 137.267 546.651
2222 0 13.0014 7.53766 98 53.4898 138.071 546.071
2223 0 12.0035 8.16431 98 51.3061 137.49 546.367
2224 0 13.0101 6.68713 87 53.5402 137.494 546.885
2225 0 14.0032 7.14123 100 50.8 137.21 547.08
2226 0 13.0121 7.07034 92 52.2065 136.163 545.38
2227 0 13.066 7.95961 104 50.3365 136.577 546.115
2228 0 14.1152 7.79299 110 50.1545 138.355 546
2229 1 95.3793 17.1421 1635 49.1792 137.643 500.417
2230 0 96.4969 16.7363 1615 49.405 137.038 499.393
2231 0 96.4771 17.061 1646 49.9204 136.892 499.312
2232 0 94.3698 15.2591 1440 52.4646 135.851 501.781
2233 0 96.4422 13.521 1304 55.1097 135.217 503.554
2234 0 100.521 14.5044 1458 53.8663 136.329 499.527
2235 0 99.493 13.3376 1327 56.4755 135.765 500.937
2236 0 102.468 13.8873 1423 56.1265 135.741 498.89
2237 0 107.341 13.7972 1481 56.0777 135.176 497.918
2238 0 107.547 13.5755 1460 56.7699 135.553 497.029
2239 0 110.564 13.802 1526 56.9168 135.571 495.702
2240 0 114.769 14.3157 1643 56.6086 135.667 493.194
2241 0 117.707 13.9754 1645 56.9544 135.584 491.518
2242 1 67.5971 10.0152 677 58.2644 134.956 519.409
2243 0 71.5666 10.7592 770 58.2026 134.674 518.491
2244 0 75.735 12.4645 944 57.0636 136.132 514.87
2245 0 76.5836 11.9869 918 58.6013 135.504 512.752
2246 0 77.3454 12.8644 995 58.2955 135.147 511.617
2247 0 79.5132 13.3185 1059 57.5373 134.999 510.621
2248 0 80.3357 13.4062 1077 58.3231 135.091 508.084
2249 0 85.5801 13.7883 1180 56.8864 135.213 511.454
2250 0 86.67 12.7611 1106 58.4973 134.751 509.059
2251 0 88.7427 13.68 1214 58.0972 134.502 508.475
2252 0 93.6183 14.3669 1345 57.3145 134.412 506.917
2253 0 97.5359 13.8001 1346 57.4034 134.354 506.475
2254 0 99.6315 14.0217 1397 58.0487 134.33 503.333
2255 0 101.414 14.1696 1437 58.5073 134.036 502.239
2256 0 104.693 14.0411 1470 59.0605 133.789 502.454
2257 0 105.49 13.9349 1470 59.6027 133.733 499.293
2258 0 109.545 14.9254 1635 58.3633 133.832 499.658
2259 0 114.665 15.3403 1759 57.8522 133.348 498.489
2260 0 115.521 14.7765 1707 59.1271 133.297 497.913
2261 0 118.565 13.7815 1634 60.4315 133.269 494.752
2262 0 123.536 14.6678 1812 59.4934 133.281 495.047
2263 0 127.699 15.0275 1919 58.9578 133.206 490.565
2264 0 129.418 13.9857 1810 60.4547 133.831 490.546
2265 0 135.597 14.6759 1990 59.4698 134.16 487.754
2266 1 76.2993 11.7039 893 60.3651 133.896 518.572
2267 0 80.3075 12.6887 1019 59.0765 133.819 516.145
2268 0 83.5703 12.8395 1073 58.726 133.938 516.497
2269 0 86.3313 13.3324 1151 58.1764 133.525 514.122
2270 0 87.2548 13.3861 1168 58.6901 133.526 512.199
2271 0 90.3613 13.2247 1195 58.6485 133.597 514.469
2272 0 92.3911 13.6052 1257 59.1384 133.422 509.504
2273 0 96.2821 13.18 1269 59.3656 133.567 509.046
2274 0 99.4176 13.3377 1326 58.9766 133.463 509.557
2275 0 102.523 13.7238 1407 59.1421 133.576 507.265
2276 0 105.224 13.4 1410 59.6262 133.628 507.014
2277 0 108.272 14.2419 1542 58.7769 133.49 504.853
2278 0 110.247 13.2793 1464 60.2077 133.109 504.124
2279 0 114.483 14.4301 1652 58.6762 133.03 504.181
2280 0 117.348 13.4812 1582 60.5449 132.365 500.685
2281 0 120.456 13.9055 1675 60.36 132.648 498.093
2282 0 124.321 13.7789 1713 60.6643 131.989 497.211
2283 0 128.536 14.5873 1875 59.4592 132.182 495.915
2284 0 131.31 13.7841 1810 60.7243 132.162 492.941
2285 0 135.25 14.3882 1946 59.9168 131.7 494.986
2286 0 140.24 14.5108 2035 59.599 132.024 492.003
2287 1 80.1808 12.2847 985 60.9208 131.917 520.193
2288 0 81.1107 12.3782 1004 61.1942 131.478 518.461
2289 0 84.254 11.9401 1006 61.6004 131.545 517.554
2290 0 86.2172 13.64 1176 59.9269 131.257 515.251
2291 0 92.1656 14.4631 1333 58.6699 131.872 515.246
2292 0 93.1304 13.5294 1260 60.1587 131.48 515.342
2293 0 96.1675 13.7365 1321 59.8774 131.271 514.28
2294 0 98.2754 13.3197 1309 60.8923 131.51 510.501
2295 0 102.262 14.1597 1448 60.1499 131.707 509.896
2296 0 106.289 13.9149 1479 60.3509 131.556 507.201
2297 0 109.291 13.917 1521 60.33 131.665 505.377
2298 0 112.325 14.5471 1634 60.0734 131.762 505.696
2299 0 115.209 14.643 1687 60.4149 131.847 503.406
2300 0 118.277 14.4069 1704 60.706 131.726 501.354
2301 0 123.27 14.4804 1785 60.4241 131.55 496.818
2302 0 126.34 14.0019 1769 60.7518 131.336 498.326
2303 0 130.305 13.668 1781 61.1859 131.115 497.043
2304 1 71.2436 11.973 853 60.4631 131.612 523.994
2305 0 76.1375 12.9897 989 59.0758 131.503 523.284
2306 0 77.2527 13.4753 1041 58.5956 131.995 520.384
2307 0 81.1749 13.1321 1066 59.0319 131.76 520.629
2308 0 81.0994 12.8114 1039 59.7007 131.808 520.192
2309 0 83.275 13.2693 1105 59.4534 131.545 516.238
2310 0 86.2205 13.0943 1129 59.5598 131.764 515.867
2311 0 90.1609 13.7088 1236 59.0566 131.917 513.775
2312 0 92.2057 13.4157 1237 59.5238 132.051 511.227
2313 0 95.1885 12.9953 1237 59.8124 132.174 510.732
2314 0 98.3326 12.9764 1276 60.0141 132.209 509.357
2315 0 101.356 13.9213 1411 59.2077 132.227 507.282
2316 0 102.304 11.9546 1223 61.4832 132.086 505.108
2317 0 107.383 13.4565 1445 59.9737 132.451 504.651
2318 0 109.385 13.5119 1478 60.502 132.468 501.388
2319 0 112.404 13.5137 1519 60.9223 132.354 499.67
2320 0 114.533 13.507 1547 60.927 132.598 498.357
2321 0 119.425 13.1129 1566 61.2989 132.699 495.785
2322 0 120.582 13.2441 1597 60.9944 133.09 495.124
2323 0 126.413 14.7848 1869 59.3884 133.255 491.065
2324 0 128.464 13.7937 1772 61.1676 133.205 488.574
2325 0 135.51 14.7959 2005 59.2 133.523 486.961
2326 0 138.421 13.6251 1886 60.7572 133.694 485.715
2327 0 143.525 13.9349 2000 60.676 133.386 481.181
2328 1 86.4595 11.3811 984 60.187 133.582 511.82
2329 0 85.3331 11.8946 1015 60.5192 133.972 509.375
2330 0 91.411 12.2852 1123 60.1416 134.118 509.082
2331 0 92.3024 12.8491 1186 60.7057 134.175 506.433
2332 0 94.2932 12.4293 1172 61.5316 134.599 504.432
2333 0 98.4211 13.3406 1313 60.2795 134.916 503.511
2334 0 103.301 13.4752 1392 60.3276 135.165 501.713
2335 0 105.427 13.2604 1398 61.231 135.089 500.31
2336 0 106.223 14.1212 1500 60.6167 135.028 499.46
2337 0 113.2 14.1255 1599 60.5228 135.201 498.074
2338 0 114.274 13.5463 1548 61.4451 135.194 494.632
2339 0 117.28 13.5403 1588 62.0838 135.182 491.742
2340 0 121.195 14.1012 1709 61.8403 135.216 491.303
2341 0 124.218 13.8386 1719 62.1018 135.31 489.366
2342 0 130.21 14.5534 1895 61.1261 135.558 486.728
2343 0 132.197 13.5025 1785 62.4157 135.782 486.968
2344 0 137.356 14.2768 1961 61.8628 135.796 482.695
2345 0 142.164 14.3145 2035 61.7037 135.831 480.566
2346 0 145.21 14.0693 2043 62.2022 135.815 476.133
2347 0 153.18 14.088 2158 61.5964 136.551 474.843
2348 1 94.0883 9.70365 913 60.5728 137.322 509.462
2349 0 97.1359 12.0347 1169 59.0017 137.238 504.664
2350 0 100.145 12.0526 1207 58.3886 137.386 506.28
2351 0 101.078 11.1597 1128 60.0789 137.324 501.186
2352 0 104.141 11.35 1182 59.3105 138.005 499.947
2353 0 108.081 11.5284 1246 59.3379 137.6 497.202
2354 0 108.174 10.7881 1167 60.9563 136.956 493.414
2355 0 112.208 11.9154 1337 59.8646 136.634 493.979
2356 0 117.264 11.069 1298 59.5239 136.257 493.495
2357 1 20.0078 7.04726 141 48.8369 138.34 543.702
2358 0 21.02 7.32634 154 49.5779 137.896 542.877
2359 0 16.0182 6.74234 108 49.1944 137.389 544.593
2360 0 15.0014 7.46596 112 49.6339 137.759 542.723
2361 0 20.0343 7.43724 149 49.3893 137.268 543.852
2362 0 18.0042 5.05437 91 51.3846 137.593 540.868
2363 0 17.0358 6.57441 112 49.6071 137.446 542.536
2364 0 20.0062 6.99782 140 49.1929 136.907 542.464
2365 0 14.0059 5.21208 73 49.0548 136.452 545.726
2366 0 14.001 4.57111 64 50.8906 136.875 544.5
2367 0 15.0008 6.59964 99 49.4747 136.929 545.091
2368 0 17.0058 4.46907 76 51.6316 136.368 543.263
2369 0 22.0067 7.04332 155 49.5226 137.032 541.961
2370 0 18.0066 3.55426 64 51.5625 136.703 541.656
2371 0 20.0022 6.4493 129 49.938 136.814 541.403
2372 0 20.0122 5.99633 120 50.3333 136.275 541.233
2373 0 21.0067 7.23578 152 50.2105 135.934 541.039
2374 0 17.0036 7.05733 120 49.5417 136.158 542.633
2375 0 22.0066 6.08907 134 50.2239 135.799 541.321
2376 1 126.386 13.4113 1695 55.7493 133.803 486.297
2377 0 130.196 12.5273 1631 56.7449 133.611 488.027
2378 0 133.279 13.2654 1768 56.4327 133.77 486.199
2379 0 135.37 13.3634 1809 56.7623 133.734 481.144
2380 0 139.331 13.4787 1878 57.0048 133.715 481.07
2381 0 143.424 13.4845 1934 57.6003 133.859 479.283
2382 0 149.419 13.9139 2079 54.5633 133.937 479.019
2383 0 151.426 13.5974 2059 55.1389 133.979 475.883
2384 1 96.3121 10.2895 991 54.5045 134.445 508.541
2385 0 99.3985 10.5434 1048 54.3473 134.171 506.179
2386 0 104.309 11.9357 1245 53.0594 134.074 503.575
2387 0 105.236 11.8686 1249 53.8823 133.958 503.167
2388 0 109.235 12.1756 1330 53.2008 132.895 501.442
2389 0 111.234 12.3613 1375 53.1353 132.623 498.903
2390 0 115.36 11.6505 1344 53.9033 132.677 498.457
2391 0 120.413 12.781 1539 52.9838 133.247 497.117
2392 0 122.328 12.2131 1494 53.8876 133.485 492.765
2393 0 124.287 11.9562 1486 54.4327 132.692 491.224
2394 0 132.285 12.836 1698 52.9817 133.286 488.923
2395 0 136.408 13.2397 1806 52.531 132.666 488.287
2396 0 138.405 12.8608 1780 53.3388 132.835 485.179
2397 0 143.672 12.967 1863 53.9726 133.043 483.513
2398 0 144.551 12.7913 1849 54.5289 133.077 479.663
2399 0 150.576 13.5214 2036 53.6012 132.498 479.266
2400 0 156.492 13.4895 2111 53.5528 132.568 477.762
2401 1 96.4652 10.0969 974 53.6191 132.206 507.071
2402 0 99.357 10.9102 1084 52.7454 132.376 506.387
2403 0 103.355 11.5814 1197 51.9983 131.931 503.947
2404 0 103.273 11.639 1202 52.9584 131.993 500.433
2405 0 108.465 12.7046 1378 51.0965 131.902 500.087
2406 0 110.429 12.1526 1342 52.0745 131.311 495.768
2407 0 113.493 12.4501 1413 52.0502 131.281 497.102
2408 0 118.553 12.9984 1541 51.6613 131.138 496.633
2409 0 120.36 12.0472 1450 52.7855 131.646 493.237
2410 0 123.382 12.1087 1494 53.3046 131.444 491.576
2411 0 127.44 14.0929 1796 51.3619 130.665 489.823
2412 0 130.428 13.3943 1747 52.1517 131.378 491.712
2413 0 134.311 12.9699 1742 52.833 130.614 489.418
2414 0 136.367 12.547 1711 53.8375 130.75 484.681
2415 0 140.299 12.7514 1789 53.0207 130.635 487.651
2416 0 144.435 13.4662 1945 52.6021 130.463 483.847
2417 0 147.276 13.8651 2042 52.3408 130.088 482.739
2418 0 150.445 13.932 2096 52.7257 130.201 476.465
2419 1 23.0045 8.607 198 42.8081 128.187 545.985
2420 0 22.0029 6.99908 154 44.0455 128.494 546.188
2421 0 19.0151 7.41517 141 44.5461 128.567 545.61
2422 0 21.0231 7.61069 160 43.2188 128.419 547.688
2423 0 22.0027 7.54451 166 43.0241 128.723 547.307
2424 0 22.0679 5.5284 122 44.2541 129.328 546.73
2425 0 18.088 6.19196 112 43.3036 130.598 549.795
2426 0 18.0018 7.38817 133 42.5188 129.03 549.271
2427 0 16.0427 3.67769 59 45.1864 127.797 549.441
2428 0 20.0703 6.92565 139 43.6619 128.525 548.489
2429 0 19.0023 4.73628 90 45.5444 129.9 547.8
2430 0 19.0043 7.57723 144 44.7847 129.438 545.312
2431 0 27.0757 6.90655 187 43.9893 129.428 546.957
2432 0 25.0343 7.27003 182 43.6099 129.242 545.538
2433 0 26.1078 6.77959 177 43.3955 129.322 545.514
2434 0 24.1174 7.9196 191 42.4712 129.838 546.45
2435 0 21.022 6.32669 133 43.391 129.316 546.195
2436 0 27.0498 5.36047 145 43.9931 129.738 545
2437 0 22.0473 6.25928 138 42.9783 129.667 548.384
2438 0 25.0506 6.98586 175 42.4571 129.36 546.84
2439 0 23.0143 6.25698 144 43.0694 128.951 545.34
2440 0 22.0194 6.49428 143 42.7762 129.105 548.035
2441 1 173.366 13.9647 2421 50.6398 132.207 468.922
2442 0 179.357 13.002 2332 51.8358 131.85 465.553
2443 0 184.379 13.098 2415 52.5072 131.688 467.239
2444 0 187.304 13.2298 2478 53.0056 131.55 461.873
2445 0 196.285 14.7592 2897 51.5499 131.388 458.923
2446 0 201.426 14.3278 2886 52.4009 131.695 456.066
2447 0 206.46 14.1916 2930 52.8505 131.238 451.178
2448 0 211.424 14.7145 3111 52.4603 131.571 452.041
2449 0 219.356 15.6321 3429 51.6133 132.209 447.362
2450 0 224.387 14.3591 3222 53.4721 132.232 441.356
2451 1 166.257 10.4657 1740 54.6155 132.02 479.705
2452 0 172.303 11.6074 2000 54.539 131.792 473
2453 0 177.313 13.9358 2471 52.8624 132.136 467.87
2454 0 181.277 14.6461 2655 52.2821 131.744 465.13
2455 0 186.304 13.5907 2532 52.4301 131.863 460.77
2456 0 191.235 13.4756 2577 52.447 131.901 457.075
2457 0 195.2 13.248 2586 53.2394 132.279 452.925
2458 0 202.273 13.5905 2749 53.1244 132.373 450.842
2459 0 208.339 13.7372 2862 53.2313 132.483 451.837
2460 0 215.335 14.1454 3046 53.0991 132.96 445.394
2461 0 224.286 18.5477 4160 48.712 133.245 437.171
2462 0 234.422 19.2729 4518 47.8446 133.547 425.365
2463 0 237.313 17.8878 4245 49.9305 133.87 429.263
2464 0 239.449 13.4726 3226 54.8927 134.242 433.051
2465 0 249.514 17.4459 4353 50.5222 134.748 425.801
2466 0 253.414 15.9462 4041 52.7325 134.848 420.445
2467 0 262.454 17.184 4510 51.7681 135.076 415.571
2468 0 270.475 17.6209 4766 51.3044 135.468 414.872
2469 0 275.396 16.4236 4523 53.117 135.749 407.683
2470 0 286.511 18.9452 5428 50.4543 135.963 403.373
2471 0 286.447 18.5794 5322 51.5092 136.072 402.137
2472 0 45.1724 9.47481 428 43.7617 137.224 531.647
2473 0 42.1852 8.77084 370 43.7216 137.503 533.951
2474 0 44.1907 6.33617 280 44.2679 137.375 536.086
2475 0 44.2587 7.74989 343 44.312 137.224 533.606
2476 0 44.2769 8.19841 363 44.292 137.386 532.923
2477 0 44.3096 6.54486 290 44.2276 137.09 533.538
2478 0 42.1574 5.93016 250 44.824 137.444 534.152
2479 0 45.2581 8.99287 407 43.2801 137.093 532.194
2480 0 45.187 7.7456 350 43.8714 136.937 532.586
2481 0 39.1311 7.58987 297 45.0976 136.498 530.923
2482 0 44.2163 7.39546 327 44.1437 136.404 534.92
2483 0 39.0496 7.75937 303 44.2508 136.878 535.617
2484 0 36.0837 4.7667 172 46.0291 136.762 537.465
2485 0 38.1131 6.79556 259 45.0386 136.772 534.251
2486 0 34.0446 6.16837 210 45.5238 136.81 534.933
2487 0 36.0455 8.68347 313 43.3259 136.847 536.013
2488 0 35.1441 8.56473 301 44.0033 136.595 537.355
2489 0 32.0969 7.13465 229 44.6638 136.773 536.489
2490 0 34.1576 7.14337 244 44.1352 136.48 536.725
2491 0 35.1297 8.22667 289 43.3183 136.723 535.706
2492 0 36.1946 6.82423 247 43.8381 137.008 537.409
2493 0 34.1304 7.32484 250 44.404 136.916 536.236
2494 0 36.1316 6.89148 249 43.9719 137.068 537.104
2495 0 37.1929 9.30286 346 42.9393 136.306 534.653
2496 0 33.0663 5.53433 183 44.7158 136.383 538.792
2497 0 37.0335 5.31951 197 44.7208 136.472 538.873
2498 0 36.2438 7.94618 288 43.9514 136.528 534.66
2499 0 35.063 8.27083 290 42.8241 136.797 536.555
2500 0 33.059 5.05158 167 44.1257 136.701 539.844
2501 0 34.1232 7.70738 263 43.5285 136.791 536.901
2502 0 33.1957 7.41059 246 43.0447 136.394 539.041
2503 0 31.1835 6.60605 206 44.7816 136.505 538.675
2504 0 32.0416 7.17817 230 44.6826 136.313 537.861
2505 0 32.1307 6.72255 216 44.1204 136.014 539.88
2506 0 32.0127 6.46617 207 44.4831 135.072 539.932
2507 0 35.0244 6.45264 226 44.5044 133.973 538.301
2508 0 41.0301 7.21421 296 43.7838 131.723 536.527
2509 0 38.0321 7.94066 302 44.0596 131.397 536.331
2510 0 37.0445 6.26274 232 44.4741 131.845 538.237
2511 0 36.086 7.03874 254 44.1732 132.142 536.268
2512 0 32.123 8.18728 263 43.7376 132.662 536.403
2513 0 32.108 8.596 276 43.9312 133.453 538.819
2514 0 33.3131 8.49516 283 43.8728 133.138 532.569
2515 0 32.2504 7.84487 253 43.4704 133.854 536.838
2516 0 35.6714 7.20464 257 44.5097 136.058 539
2517 0 34.7014 9.30798 323 43.7895 134.854 538.981
2518 0 35.6372 9.09162 324 44.429 134.157 540.556
2519 0 33.3609 10.911 364 44.1896 134.797 539.637
2520 0 35.4171 11.0399 391 44.3581 134.097 535.793
2521 0 35.491 9.32631 331 46.4109 134.353 535.822
2522 0 38.347 14.9164 572 41.3671 132.577 515.171
2523 0 40.1006 13.2417 531 42.0264 134.584 515.03
2524 0 39.1037 14.6533 573 42.5201 134.344 517.883
2525 0 40.0062 13.248 530 43.3868 133.762 518.151
2526 0 38.0707 13.5537 516 45.3391 134.399 516.996
2527 0 41.072 13.6833 562 44.6263 133.957 520.913
2528 0 38.0611 13.4521 512 46.6191 132.949 516.912
2529 0 42.032 15.631 657 44.2024 132.61 522.403
2530 0 40.0958 13.8917 557 46.2944 133.833 527.549
2531 0 40.0861 14.3192 574 47.1533 132.629 524.848
2532 0 40.0817 14.2709 572 47.4773 132.974 529.897
2533 0 39.1641 14.0179 549 48.3862 133 530.286
2534 0 42.0667 14.1442 595 47.7983 133.262 528.114
2535 0 40.0436 13.9847 560 48.2643 132.905 524.605
2536 0 42.1026 15.1297 637 47.4223 132.904 530.498
2537 0 40.0935 13.8676 556 49.8633 132.293 526.329
2538 0 41.277 14.221 587 49.6559 132.871 533.523
2539 0 40.0468 13.9836 560 50.825 132.688 529.702
2540 0 41.0711 15.0227 617 50.3323 132.666 530.538
2541 0 42.0882 13.6143 573 51.0873 132.204 528.614
2542 0 41.0663 14.2209 584 52.0462 132.116 528.026
2543 0 42.0347 13.8457 582 51.0842 133.015 528.718
2544 0 39.0973 14.0419 549 53.2568 131.505 533.027
2545 0 43.0735 15.0208 647 49.966 131.617 524.9
2546 0 42.0968 14.7517 621 51.2738 132.014 530.573
2547 0 41.0633 13.8567 569 53.3251 133.127 530.605
2548 0 39.3189 13.683 538 54.4888 130.9 535.792
2549 0 42.1447 14.6638 618 51.4191 131.184 531.694
2550 0 41.1525 15.1388 623 51.9326 132.135 533.902
2551 0 39.1847 13.5512 531 54.4068 132.465 534.559
2552 0 42.0392 14.0821 592 52.2804 131.706 531.709
2553 0 41.1315 13.8337 569 53.5993 132.288 531.582
2554 0 43.1234 13.7744 594 52.0202 132.251 533.704
2555 0 42.2423 15.2691 645 51.3442 132.595 536.442
2556 0 40.1035 14.5374 583 53.9039 132.614 533.88
2557 0 41.2518 13.1146 541 54.5323 132.702 537.495
2558 0 42.2351 13.5906 574 53.5174 132.902 538.765
