time division length width area intensity CMx CMy
0 0 90.1218 12.7605 1150 71.6843 1037.51 538.956
1 0 92.2782 12.6899 1171 72.6132 1036.79 534.261
2 1 47.2412 10.33 488 70.4221 1036.62 558.102
3 0 48.2064 10.455 504 70.7302 1036.11 557.885
4 0 51.1298 11.1872 572 70.5507 1036.28 554.43
5 0 53.0942 10.5096 558 71.2133 1037.06 555.803
6 0 54.1271 11.9349 646 70.7709 1036.9 554.751
7 0 57.1297 12.3228 704 70.7188 1036.96 550.96
8 0 58.2246 12.7437 742 69.7049 1036.9 551.442
9 0 62.1921 12.3649 769 70.303 1037.18 550.345
10 0 61.1727 13.2249 809 70.0816 1037.34 548.65
11 0 64.1761 12.6059 809 70.7553 1037.29 548.66
12 0 65.1439 13.0173 848 70.8384 1037.7 548.499
13 0 69.1735 12.2879 850 71.2471 1037.64 545.576
14 0 71.0744 12.7894 909 70.7965 1037.15 544.504
15 0 73.224 13.8206 1012 69.8804 1038.59 543.396
16 0 75.2433 13.1573 990 70.9273 1038.76 543.251
17 0 77.1132 13.6163 1050 70.821 1038.42 541.094
18 0 78.0812 12.9096 1008 72.2827 1038.44 538.551
19 0 83.1363 13.0749 1087 71.0662 1038.21 538.615
20 0 86.3073 13.3361 1151 70.0756 1038.56 537.284
21 0 88.221 13.2508 1169 70.2224 1038.46 535.737
22 1 50.105 10.7375 538 69.1283 1037.93 557.242
23 0 49.0392 11.1543 547 69.4534 1037.82 555.463
24 0 49.1096 12.0343 591 69.0305 1037.78 552.401
25 0 53.057 10.6489 565 69.5752 1037.72 553.255
26 0 55.0581 12.2779 676 67.4467 1037.59 552.246
27 0 56.1748 11.7134 658 68.9787 1038.27 551.19
28 0 57.1657 12.42 710 70.2746 1038.08 549.385
29 0 59.1384 12.5807 744 67.836 1038.15 549.372
30 0 60.1165 12.3926 745 68.9611 1037.87 547.831
31 0 63.1307 12.1811 769 68.5683 1038.27 547.516
32 0 67.1016 12.2203 820 67.9256 1037.82 546.782
33 0 68.088 11.4558 780 69.7128 1038.08 545.671
34 0 71.1409 13.1289 934 67.2066 1038.39 543.532
35 0 73.0998 12.695 928 68.2123 1037.96 542.948
36 0 77.0894 12.9979 1002 67.506 1038.42 541.568
37 0 80.1108 12.4328 996 68.7149 1038.35 540.107
38 0 83.2673 13.1744 1097 68.134 1038.48 537.165
39 0 86.2863 13.2582 1144 67.5402 1038.51 537.354
40 0 89.3635 13.2045 1180 68.5373 1038.55 534.696
41 0 92.3838 13.0975 1210 69.1372 1038.92 533.731
42 1 47.31 10.8222 512 70.4238 1038.73 557.127
43 0 49.165 10.1292 498 71.4418 1038.82 556.44
44 0 49.2626 11.2662 555 70.5874 1038.89 555.256
45 0 51.3253 11.3199 581 71.5938 1039.54 554.63
46 0 53.2632 12.5603 669 70.7593 1039.53 551.504
47 0 55.3167 12.4736 690 70.4971 1039.82 551.161
48 0 55.1972 12.7361 703 71.2916 1039.92 550.549
49 0 58.1436 11.5748 673 72.682 1040.5 550.186
50 0 61.342 12.7156 780 71.0808 1040.32 549.254
51 0 63.3044 13.1744 834 70.2566 1040.24 549.886
52 0 66.3925 12.893 856 70.3201 1040.57 547.944
53 0 66.3846 12.8644 854 71.2319 1040.54 547.778
54 0 69.3313 13.8321 959 69.5235 1039.52 546.097
55 0 69.3909 13.0132 903 64.7829 1039.86 545.2
56 0 72.4947 12.9113 936 64.9092 1039.67 543.788
57 0 74.4319 13.6635 1017 63.3156 1039.95 540.916
58 0 78.3452 14.6914 1151 61.7107 1040.01 539.52
59 0 81.4028 13.4885 1098 64.1412 1040.91 540.295
60 0 82.3539 13.1627 1084 66.8118 1040.63 538.622
61 0 84.3089 13.3438 1125 67.3031 1040.53 535.899
62 0 88.3262 13.5747 1199 66.7973 1040.44 536.918
63 0 91.2847 13.4524 1228 67.3648 1040.44 532.98
64 1 48.22 11.4475 552 68.5308 1040.17 553.63
65 0 48.3679 11.5159 557 68.4434 1040.04 553.998
66 0 50.3358 13.2113 665 67.1083 1040.29 551.397
67 0 53.212 12.4784 664 67.6521 1040.48 552.045
68 0 54.2578 12.7355 691 67.4674 1040.75 550.518
69 0 55.3101 14.3554 794 65.1411 1041.29 549.067
70 0 57.1826 13.8678 793 65.3644 1040.92 548.881
71 0 60.1884 14.1556 852 65.1326 1040.82 547.59
72 0 60.3122 13.5793 819 65.9902 1040.47 545.294
73 0 63.194 13.419 848 86.1733 1040.63 545.048
74 0 66.1924 14.0197 928 65.0291 1041.87 543.708
75 0 65.0802 13.4142 873 66.953 1041.32 541.428
76 0 68.2757 14.0167 957 65.838 1042.23 540.514
77 0 71.2074 14.7737 1052 64.8118 1042.19 537.736
78 0 74.2532 14.3563 1066 65.1257 1042.53 536.753
79 0 76.1361 14.0012 1066 66.0206 1042.32 536.237
80 0 80.1303 14.0022 1122 65.6996 1042.71 533.52
81 0 84.2951 14.6391 1234 65.1167 1042.36 531.319
82 0 86.3094 14.2395 1229 65.5419 1042.71 531.193
83 0 88.2285 14.5305 1282 66.1225 1043.41 527.428
84 0 90.233 14.1079 1273 67.2404 1043.16 525.687
85 0 93.3071 14.2862 1333 66.8252 1043.6 526.071
86 0 97.2403 14.675 1427 66.2509 1043.71 522.622
87 0 99.3122 13.8049 1371 67.0131 1043.68 520.895
88 1 51.253 10.9067 559 67.025 1043.68 546.674
89 0 53.2603 11.4156 608 67.2812 1044.41 544.515
90 0 57.1146 12.7113 726 64.759 1044.42 542.59
91 0 57.1242 12.6566 723 65.7123 1045.24 541.429
92 0 60.155 12.3182 741 65.3779 1044.93 540.923
93 0 61.1007 12.9131 789 64.7985 1045.19 538.689
94 0 63.1722 12.5847 795 63.2981 1045.11 537.964
95 0 67.1568 13.8631 931 60.6992 1045.3 535.083
96 0 67.2928 13.0029 875 61.0583 1045.3 535.105
97 0 71.2293 13.8988 990 82.7434 1045.59 534.884
98 0 73.1857 14.1831 1038 58.8709 1045.35 532.799
99 0 77.175 13.6054 1050 60.0048 1045.14 529.534
100 0 79.1674 13.3262 1055 62.1308 1045.17 529.548
101 0 81.185 13.0197 1057 64.3519 1045.09 525.134
102 0 86.1511 13.8245 1191 63.4156 1045.37 524.916
103 0 87.1843 13.4084 1169 62.5535 1045.42 522.763
104 1 48.08 10.3161 496 63.2016 1045.28 545.351
105 0 48.1018 10.9351 526 65.3935 1044.96 543.848
106 0 52.1509 11.1407 581 64.8675 1045.54 542.795
107 0 53.0479 11.1032 589 64.7725 1045.56 540.767
108 0 54.0088 11.6462 629 65.4086 1045.44 539.423
109 0 57.0526 11.8312 675 64.5437 1045.94 538.935
110 0 56.1904 12.4576 700 63.9257 1046.25 538.166
111 0 58.1216 11.562 672 64.8467 1045.66 537.601
112 0 61.1641 12.1313 742 64.1604 1045.35 536.016
113 0 63.1905 12.2012 771 64.0376 1045.32 533.975
114 0 65.1483 12.1876 794 64.1335 1045.53 533.365
115 0 65.1818 11.9205 777 65.1982 1045.28 532.709
116 0 68.2044 13.0344 889 63.8774 1045.5 530.344
117 0 70.2609 12.6101 886 64.4244 1045.44 529.248
118 0 74.0904 12.6062 934 65.1221 1045.66 529.673
119 0 76.2796 12.7557 973 65.0904 1045.01 527.207
120 0 78.1519 12.4885 976 65.9037 1045.12 527.35
121 0 80.1405 12.9148 1035 66.0995 1045.32 525.468
122 1 44.1215 9.42851 416 64.8173 1044.43 545.087
123 0 45.171 10.0286 453 64.1148 1044.69 543.594
124 0 47.1892 9.85395 465 64.2086 1044.84 543.011
125 0 47.0933 9.74661 459 63.7255 1044.77 544.105
126 0 48.1175 10.703 515 62.6136 1044.78 544.46
127 0 49.153 10.5589 519 62.9499 1045.64 542.881
128 0 51.2024 10.605 543 61.86 1045.11 543.444
129 0 53.1324 11.876 631 60.6719 1044.8 541.349
130 0 54.2941 10.1853 553 63.2785 1044.63 541.515
131 0 56.0962 10.9633 615 62.9089 1043.93 539.764
132 0 55.3186 11.2078 620 63.6097 1044.23 539.716
133 0 57.261 10.7054 613 64.0196 1044.4 538.675
134 0 58.25 11.2275 654 63.4098 1044.02 539.523
135 0 61.2526 11.9995 735 62.5497 1043.82 536.672
136 0 62.3528 12.2849 766 62.1358 1043.27 536.355
137 0 64.3443 11.8425 762 62.2087 1043.09 536.802
138 0 64.2981 11.991 771 62.5473 1043.35 535.774
139 0 69.1608 12.9119 893 61.1456 1043.3 533.3
140 0 68.4911 11.5343 790 63.3987 1043.53 532.819
141 0 71.2509 11.9858 854 63.1557 1043.51 530.269
142 0 74.3552 13.7314 1021 60.4623 1043.67 530.995
143 0 75.3614 12.8182 966 62.0994 1043.59 529.623
144 0 79.3767 12.6359 1003 62.4756 1043.56 528.665
145 0 81.3267 12.4805 1015 63.0079 1043.57 527.693
146 0 83.3478 12.5618 1047 63.3419 1043.71 527.297
147 0 85.3671 12.499 1067 63.5933 1043.82 526.745
148 0 90.2733 12.3403 1114 63.9102 1043.19 524.55
149 0 91.321 12.2535 1119 64.9044 1043.71 523.276
150 0 94.2558 12.8692 1213 64.357 1043.92 522.792
151 0 97.4101 12.3704 1205 65.5627 1043.44 520.272
152 1 58.2488 11.3994 664 63.3976 1043.08 542.494
153 0 56.2203 11.4016 641 64.0047 1043.09 542.819
154 0 59.252 11.5608 685 64.7518 1043.15 539.879
155 0 60.0996 11.8803 714 64.0056 1042.85 538.945
156 0 64.227 12.8295 824 62.517 1043.63 537.495
157 0 67.2612 12.9049 868 62.0484 1043.56 537.331
158 0 68.2287 12.5021 853 62.8886 1043.2 534.89
159 0 70.2428 11.9016 836 63.4892 1043 536.317
160 0 74.2026 13.3284 989 61.5986 1043.29 534.395
161 0 74.2245 12.9337 960 62.5198 1043.66 531.609
162 0 76.2223 12.1487 926 63.5508 1043.56 531.241
163 0 80.11 13.419 1075 61.8056 1044.06 528.164
164 0 83.2677 13.3305 1110 61.3559 1044.2 528.405
165 0 85.5895 12.3263 1055 63.2692 1043.18 527.269
166 0 88.3979 13.394 1184 62.0726 1043.91 525.074
167 0 91.3186 12.878 1176 63.0332 1043.54 523.68
168 0 94.4237 12.9417 1222 63.6751 1043.77 521.76
169 1 52.2018 10.8234 565 63.8531 1044.15 544.458
170 0 54.1922 10.4812 568 64.2835 1044.17 542.317
171 0 56.2691 12.227 688 62.9913 1044.82 539.735
172 0 58.3353 11.9139 695 63.1626 1044.55 539.787
173 0 58.3101 11.7475 685 64.1942 1044.64 538.876
174 0 62.2406 12.9658 807 62.9554 1044.87 536.721
175 0 64.2388 12.2356 786 63.7557 1044.63 535.774
176 0 65.1785 12.8263 836 63.4007 1044.98 534.469
177 0 69.3891 13.518 938 62.1343 1045.31 533.751
178 0 69.1871 12.3722 856 64.875 1045.14 532.471
179 0 72.2561 13.0231 941 63.9543 1045.39 532.522
180 0 74.1518 13.4589 998 64.0922 1045.54 530.546
181 0 76.1252 12.1116 922 66.2701 1045.84 529.755
182 0 78.1721 13.2272 1034 64.6673 1046.06 527.765
183 0 82.2257 13.4751 1108 63.8565 1046.09 525.431
184 0 85.2186 13.084 1115 64.7982 1046.46 525.178
185 0 86.1647 12.9287 1114 65.412 1046.28 522.748
186 1 48.0794 9.7963 471 64.6985 1046.06 542.58
187 0 47.094 10.0438 473 65.1438 1045.89 541.901
188 0 51.0925 10.4908 536 64.528 1045.8 541.677
189 0 52.0407 11.6832 608 62.5329 1045.84 540.104
190 0 52.0727 12.4057 646 62.2957 1045.8 539.935
191 0 54.1367 11.7296 635 63.7276 1045.79 538.603
192 0 56.2691 11.9959 675 63.1926 1047.3 536.517
193 0 57.3474 12.5725 721 61.0943 1047.09 537.451
194 0 60.2648 12.7106 766 59.3303 1047.11 536.539
195 0 61.1145 12.7466 779 59.0424 1047.18 534.877
196 0 62.1916 12.0434 749 60.6676 1047.56 535.615
197 0 65.1481 12.4639 812 61.7315 1047.42 533.006
198 0 64.2589 12.6519 813 62.6101 1047.59 532.523
199 0 69.2593 13.0524 904 61.4668 1047.44 531.684
200 0 71.1468 13.7181 976 60.5092 1047.85 530.727
201 0 72.17 13.2742 958 61.2568 1047.69 529.018
202 0 73.1874 12.3519 904 63.3805 1047.91 528.372
203 0 78.149 12.9624 1013 62.6318 1048.06 526.842
204 0 79.3054 12.6473 1003 63.4078 1048.03 525.912
205 0 82.2524 12.9115 1062 63.7363 1048.17 522.661
206 0 87.2646 12.7429 1112 63.83 1048.09 521.464
207 1 46.216 10.0182 463 65.5486 1047.77 542.073
208 0 47.1303 9.67531 456 66.057 1047.55 541.825
209 0 51.1939 11.1732 572 64.8566 1047.09 540.101
210 0 52.1699 11.2517 587 65.046 1047.54 540.743
211 0 54.203 11.5307 625 64.8304 1047.27 539.011
212 0 56.1965 12.0114 675 64.6193 1047.21 539.49
213 0 57.1041 12.5385 716 65.2779 1047.39 535.845
214 0 58.1736 13.0643 760 64.5421 1047.3 537.734
215 0 59.2691 11.9961 711 67.045 1047.27 535.401
216 0 58.188 11.9784 697 67.9928 1046.93 535.947
217 0 62.1193 12.5565 780 66.859 1046.42 535.219
218 0 62.2391 12.2913 765 68.0144 1046.77 533.952
219 0 66.136 12.565 831 66.9471 1046.63 533.529
220 0 70.3297 13.5362 952 65.1176 1046.21 532.298
221 0 70.1714 13.3245 935 66.185 1046.61 531.569
222 0 71.0917 12.3784 880 68.4568 1045.84 529.325
223 0 74.1383 12.9353 959 67.9406 1046.32 527.95
224 0 77.2719 13.4849 1042 67.3225 1046.24 528.001
225 0 78.2454 12.8186 1003 68.8544 1046.52 526.248
226 0 83.1731 13.526 1125 67.6489 1046.07 525.052
227 0 84.2405 13.5089 1138 68.1134 1045.54 524.615
228 0 89.2013 13.8227 1233 67.3252 1045.32 523.298
229 1 45.0752 10.7598 485 69.2763 1045.38 544.971
230 0 50.0821 10.7823 540 68.9907 1045.15 543.019
231 0 52.0563 11.1226 579 68.5769 1045.2 542.636
232 0 52.048 11.6239 605 68.9818 1045.15 541.147
233 0 54.0311 11.4008 616 69.7078 1045 539.166
234 0 55.1156 12.5736 693 69.7734 1045.3 538.824
235 0 56.1352 11.5079 646 71.1099 1045.31 539.901
236 0 59.1801 12.2169 723 70.4219 1044.85 537.194
237 0 59.1183 12.382 732 70.5314 1044.85 537.13
238 0 61.2359 12.4274 761 70.6084 1044.51 537.878
239 0 63.1413 12.5275 791 70.6612 1044.65 536.301
240 0 65.0632 12.7261 828 70.3104 1044.38 534.864
241 0 66.2484 12.5286 830 71.2277 1043.96 533.834
242 0 69.091 13.0408 901 70.5694 1044.46 532.584
243 0 73.2021 13.2783 972 69.6523 1044.51 532.878
244 0 75.1193 13.5251 1016 69.7293 1044.25 530.615
245 0 78.1164 13.1342 1026 70.7768 1044.35 530.454
246 0 82.2911 13.7682 1133 69.3027 1044.22 527.9
247 1 43.1399 10.0835 435 72.0046 1044.03 547.524
248 0 43.0968 10.5112 453 72 1043.61 548.018
249 0 43.1259 10.2954 444 72.8018 1043.43 548.185
250 0 47.1683 11.2152 529 71.3308 1043.75 546.348
251 0 48.156 11.9819 577 70.9515 1043.18 546.052
252 0 49.109 11.9734 588 71.1837 1043.89 545.543
253 0 54.1218 12.1208 656 69.6829 1043.7 544.404
254 0 53.1244 12.3484 656 70.6128 1043.75 544.23
255 0 56.2373 13.3897 753 68.5378 1043.66 543.891
256 0 58.1061 12.3911 720 70.9139 1043.79 541.265
257 0 58.1013 13.1322 763 69.1166 1043.78 541.806
258 0 60.1097 12.4938 751 70.8921 1044.4 540.181
259 0 61.1019 12.4546 761 71.6649 1044.02 539.573
260 0 62.0644 12.3259 765 71.9124 1043.23 538.601
261 0 67.2132 12.7356 856 70.8528 1043.54 538.345
262 0 69.1951 12.5153 866 71.0115 1043.31 536.367
263 0 70.1468 12.9015 905 71.0166 1043.4 536.815
264 0 72.1057 13.078 943 71.1357 1043.59 534.359
265 0 76.1773 13.2454 1009 70.4609 1043.17 533.678
266 0 77.2109 12.8609 993 71.9235 1043.3 531.492
267 0 80.4207 13.4045 1078 71.4119 1043.59 530.251
268 0 82.1539 13.7425 1129 71.0558 1043.62 528.252
269 0 86.2342 13.1154 1131 71.6295 1043.55 527.141
270 0 89.1394 13.4172 1196 71.6413 1043.7 525.036
271 1 48.0495 10.51 505 71.2634 1043.51 547.481
272 0 49.1386 10.216 502 72.1912 1043.24 545.588
273 0 49.1338 10.9293 537 72.175 1043.08 544.421
274 0 51.0762 11.1206 568 71.3081 1043.04 543.66
275 0 51.1209 11.6391 595 71.1445 1043.47 542.521
276 0 54.169 12.4979 677 70.1137 1043.92 541.409
277 0 57.2219 12.3904 709 67.5219 1044.13 542.883
278 0 56.2122 11.759 661 70.7247 1044.79 540.675
279 0 58.1649 12.3442 718 69.7632 1044.85 540.308
280 0 61.2907 12.5957 772 69.2085 1044.84 539.527
281 0 62.2926 12.6821 790 69.6759 1044.91 538.706
282 0 65.2931 12.9876 848 68.8833 1044.56 537.699
283 0 65.2931 12.9876 848 161.784 1043.56 537.579
284 0 69.2293 12.668 877 70.9236 1045.51 534.609
285 0 71.3022 12.8327 915 70.7661 1045.58 533.904
286 0 73.2313 12.9863 951 70.9516 1045.5 533.406
287 0 74.248 12.4179 922 72.9783 1045.62 530.842
288 0 79.2702 13.7757 1092 69.9551 1045.92 528.991
289 0 81.3604 13.0407 1061 71.8058 1046.02 529.146
290 0 82.3211 13.3259 1097 70.8459 1046.38 528.253
291 0 85.2648 13.2528 1130 70.9575 1046.25 526.941
292 0 89.3979 14.016 1253 69.6943 1046.33 523.752
293 1 50.1366 11.0498 554 72.3249 1046.59 544.108
294 0 51.1152 11.1709 571 71.7863 1046.64 542.42
295 0 53.1657 11.5676 615 71.6179 1047.04 540.034
296 0 54.1191 11.9736 648 71.9352 1046.63 539.515
297 0 57.1271 11.9033 680 72.2838 1046.64 538.456
298 0 58.1007 12.6332 734 71.0259 1047.41 536.324
299 0 60.0972 12.9457 778 70.6671 1047.65 534.337
300 0 61.0835 12.8185 783 70.9246 1047.59 534.059
301 0 62.092 13.3351 828 70.378 1048.16 532.993
302 0 64.0719 12.1426 778 72.7224 1048.47 532.355
303 0 67.2375 12.5674 845 71.1621 1048 530.544
304 0 68.0428 12.9477 881 70.4983 1048.07 529.457
305 0 71.1977 13.0903 932 69.9378 1047.99 529.548
306 0 73.1378 13.4951 987 68.8642 1048.01 526.768
307 0 75.1011 13.1822 990 69.1586 1048.4 525.909
308 0 77.1458 13.0921 1010 69.5644 1048.53 523.386
309 0 79.1315 12.7257 1007 69.9911 1048.58 523.049
310 0 84.1407 12.6692 1066 69.3077 1048.34 522.354
311 0 83.1659 12.4931 1039 70.3773 1048.32 519.522
312 0 88.164 13.6791 1206 67.9544 1048.4 516.366
313 0 92.3078 13.2708 1225 68.769 1048.05 515.066
314 0 95.3618 13.0451 1244 68.7018 1047.86 512.78
315 1 48.1401 10.7187 516 67.4884 1047.71 538.928
316 0 48.2124 10.5782 510 68.5667 1047.27 537.335
317 0 50.1811 11.0599 555 67.7568 1047.35 537.292
318 0 51.1816 11.1954 573 68.4433 1047.44 534.621
319 0 51.1985 10.762 551 69.8657 1047.55 534.445
320 0 55.1667 11.8006 651 67.4639 1047.65 535.353
321 0 56.2215 12.8243 721 65.154 1047.34 535.559
322 0 58.1347 12.8151 745 65.9007 1047.31 533.079
323 0 62.1286 13.0375 810 64.5494 1047.38 532.519
324 0 63.2125 12.4659 788 65.533 1047.26 532.873
325 0 65.2043 12.5605 819 65.2332 1046.61 532.545
326 0 64.1729 12.1702 781 67.1472 1046.23 530.563
327 0 67.1386 11.9603 803 67.3126 1046.39 529.884
328 0 70.2702 12.9216 908 65.4207 1045.97 528.78
329 0 72.2762 12.8811 931 66.4103 1045.99 526.81
330 0 76.1918 13.4398 1024 65.3086 1045.74 526.022
331 0 77.3352 12.879 996 66.0572 1046.13 526.384
332 0 81.3001 13.1734 1071 66.1335 1045.96 524.548
333 0 83.2143 12.594 1048 67.3693 1045.78 523.134
334 0 86.1878 12.2639 1057 67.8212 1045.68 521.238
335 0 89.2507 12.5377 1119 67.4727 1045.98 520.347
336 1 46.0635 10.4638 482 66.8008 1044.96 541.122
337 0 47.0862 10.1304 477 66.9665 1044.78 539.916
338 0 48.0645 10.6732 513 66.731 1044.53 539.168
339 0 50.0478 11.1693 559 66.7424 1044.45 538.016
340 0 54.0379 11.2143 606 65.1551 1044.83 537.977
341 0 53.1548 11.965 636 64.9465 1045.85 537.269
342 0 54.3794 12.0266 654 64.8471 1045.46 537.358
343 0 57.172 12.2263 699 63.9642 1044.57 536.585
344 0 57.3193 12.0902 693 65.1962 1045.91 534.856
345 0 59.2234 12.056 714 65.2605 1045.87 535.182
346 0 63.299 12.4962 791 64.1783 1045.84 533.296
347 0 64.259 13.8191 888 62.9245 1045.86 532.149
348 0 65.1494 12.5865 820 64.0293 1045.46 532.983
349 0 67.1219 12.7231 854 64.4309 1045.53 530.266
350 0 70.1484 12.5734 882 64.1644 1045.71 529.429
351 0 71.298 12.5529 895 64.781 1045.25 527.696
352 0 74.1353 12.4502 923 64.4323 1045.44 527.677
353 0 77.2282 12.7285 983 63.9898 1045.02 527.321
354 0 79.2032 12.6384 1001 64.2498 1044.86 525.003
355 0 82.188 13.4813 1108 62.9468 1045.3 525.56
356 1 41.1081 10.7035 440 61.9614 1044.41 545.809
357 0 42.14 9.7532 411 63.8589 1043.93 545.849
358 0 43.2345 11.1485 482 63.3734 1045.43 543.869
359 0 44.2738 11.203 496 62.5585 1045.11 544.435
360 0 45.2381 11.2737 510 62.6196 1045.35 543.004
361 0 47.1434 11.4756 541 62.8262 1045.27 542.641
362 0 50.2124 11.8696 596 62.0453 1045.37 540.252
363 0 50.2124 11.8895 597 153.296 1045.38 540.268
364 0 52.1387 12.2941 641 61.7691 1044.67 538.365
365 0 53.1577 11.7763 626 62.5607 1044.73 537.407
366 0 53.1677 11.4355 608 63.227 1044.96 537.901
367 0 55.2127 11.7545 649 63.0401 1044.94 536.948
368 0 59.2175 12.7496 755 60.8808 1044.69 537.004
369 0 59.1763 12.4036 734 62.1335 1045.22 535.527
370 0 62.241 13.0461 812 60.7672 1045.37 534.842
371 0 62.2307 13.0161 810 61.542 1045.37 532.962
372 0 65.2069 12.0233 784 62.6365 1045.65 534.23
373 0 67.3418 12.8598 866 62.6524 1045.35 532.409
374 0 70.1372 12.5753 882 63.042 1045.35 531.999
375 0 70.1619 12.4141 871 64.3387 1045.43 529.443
376 0 73.1267 12.3484 903 64.0941 1045.48 529.441
377 0 75.4051 12.4925 942 62.6879 1045.44 527.318
378 0 80.1682 13.6463 1094 60.6801 1045.82 526.002
379 0 82.1694 12.7176 1045 61.9522 1045.85 523.288
380 0 83.2722 13.2697 1105 61.1276 1046.09 522.409
381 1 41.1647 10.2515 422 62.519 1046.22 543.393
382 0 45.1198 10.727 484 61.6426 1046.43 541.539
383 0 46.3145 11.206 519 61.2466 1046.37 542.287
384 0 50.1453 11.1875 561 60.0196 1046.59 541.494
385 0 49.3068 11.7022 577 60.8614 1046.93 540.184
386 0 49.1311 11.7237 576 61.5139 1047.07 538.054
387 0 50.2734 12.1535 611 60.9214 1048.07 538.733
388 0 52.2562 12.5344 655 60.0336 1047.59 538.577
389 0 55.3678 12.7872 708 59.8616 1047.96 536.949
390 0 56.1592 12.9453 727 60.1719 1048.18 535.948
391 0 58.0703 12.5193 727 60.0564 1047.74 535.931
392 0 57.22 12.8801 737 60.8792 1047.47 535.735
393 0 61.1633 13.5375 828 59.9686 1047.88 533.204
394 0 61.1278 12.5475 767 61.6389 1047.54 532.876
395 0 65.0845 12.1842 793 61.8424 1047.65 533.487
396 0 67.1976 13.0808 879 61.4312 1048.32 529.945
397 0 68.3149 13.5988 929 60.9903 1048.3 529.675
398 0 71.138 13.6355 970 61.1691 1048.13 528.78
399 0 71.3169 12.7599 910 63.2121 1048.47 527.974
400 0 76.5401 13.0781 1001 62.2018 1048.21 526.609
401 0 78.4613 13.1147 1029 63.0661 1048.21 525.5
402 0 79.5471 13.0112 1035 63.9333 1048.26 525.183
403 0 81.2821 13.4962 1097 63.7876 1048.6 523.862
404 1 41.2593 10.7127 442 66.0204 1048.39 542.925
405 0 43.2438 11.3311 490 65.6041 1048.61 542.163
406 0 44.2098 11.3323 501 65.7425 1048.53 541.377
407 0 46.2466 12.0874 559 65.9267 1048.72 540.055
408 0 49.28 11.9927 591 64.709 1048.41 540.623
409 0 50.1494 12.5026 627 64.5215 1048.39 539.212
410 0 50.1135 13.0703 655 63.7832 1048.49 538.672
411 0 52.2184 12.5626 656 64.4893 1048.95 539.052
412 0 53.1709 12.9958 691 64.6585 1048.85 537.101
413 0 56.1983 12.8474 722 63.7756 1048.22 536.753
414 0 58.1982 12.509 728 64.1909 1048.25 536.508
415 0 60.2679 12.992 783 63.9221 1048.62 535.434
416 0 60.1614 12.8654 774 64.6835 1047.83 534.704
417 0 63.2702 12.4545 788 65.3896 1048.24 533.656
418 0 64.1861 12.6351 811 65.2096 1048.43 533.506
419 0 68.206 13.5179 922 63.7289 1048.1 532.357
420 0 68.189 12.8026 873 64.8969 1047.55 531.501
421 0 72.1379 12.7534 920 64.7761 1047.07 530.276
422 0 74.1731 12.8214 951 64.6814 1047.31 528.758
423 0 76.2603 12.8638 981 65.1121 1046.99 526.857
424 1 39.1508 11.5962 454 64.0419 1046.08 545.518
425 0 41.1245 11.8421 487 64.614 1046.16 544.546
426 0 42.0911 10.6198 447 65.1119 1045.46 545.951
427 0 44.2824 11.8331 524 64.6927 1046.06 543.966
428 0 45.2641 12.2393 554 63.4477 1046.11 543.273
429 0 46.156 12.7611 589 63.9423 1045.48 541.862
430 0 48.1846 12.6389 609 63.8391 1045.71 540.897
431 0 50.2224 12.6039 633 63.8073 1045.63 541.624
432 0 50.1571 12.9593 650 64.2231 1044.89 539.734
433 0 53.197 12.3127 655 64.8504 1045.24 538.15
434 0 51.1292 12.3804 633 65.2543 1044.45 539.698
435 0 56.2025 12.6685 712 63.7725 1045.02 539.046
436 0 56.1698 12.5512 705 64.3972 1045.13 538.403
437 0 57.1809 13.2562 758 63.8259 1045.3 537.164
438 0 60.2608 13.508 814 62.4312 1044.86 538.834
439 0 63.2434 13.1081 829 62.9879 1044.64 535.068
440 0 64.2696 12.3075 791 64.1214 1045.31 535.039
441 0 66.3709 13.304 883 62.8177 1045.19 534.12
442 0 69.1952 12.8911 892 62.889 1044.94 533.194
443 0 70.2591 13.1371 923 63.078 1044.64 531.965
444 1 36.1498 10.6225 384 64.6771 1043.99 549.185
445 0 38.0455 11.5388 439 62.6879 1044.33 549.462
446 0 37.0838 11.3796 422 63.6161 1044 548.801
447 0 40.1569 11.7041 470 63.2553 1044.04 547.396
448 0 42.264 12.5402 530 61.834 1044.23 546.153
449 0 42.2579 12.4947 528 62.8409 1044.75 545.277
450 0 43.1396 12.193 526 63.3612 1044.63 545.257
451 0 45.19 12.8347 580 62.2052 1044.44 543.984
452 0 45.2207 12.5827 569 62.6221 1045.03 543.278
453 0 48.3324 12.683 613 61.9984 1045.16 542.054
454 0 50.1519 13.5389 679 60.3402 1044.83 541.719
455 0 52.1629 12.9402 675 60.9852 1044.71 540.544
456 0 52.069 13.0404 679 60.9293 1044.24 539.888
457 0 54.139 12.8743 697 60.9455 1044.21 540.076
458 0 55.1059 13.1565 725 60.3793 1044.11 540.32
459 0 56.1084 12.9927 729 61.2675 1044.23 538.241
460 0 58.251 13.2358 771 61.2607 1044.72 537.454
461 0 60.1484 13.1508 791 61.311 1044.19 537.282
462 0 64.1269 13.5357 868 60.4562 1044.06 536.415
463 0 65.2145 13.7853 899 60.6385 1044.12 533.455
464 0 66.1047 12.9643 857 62.07 1043.81 533.94
465 0 69.257 13.8325 958 60.8685 1044.32 532.104
466 0 71.3275 13.459 960 61.5438 1044.43 533.334
467 0 74.2891 13.9994 1040 60.7596 1044.66 530.651
468 0 75.2104 12.3653 930 63.5645 1044.6 530.068
469 0 80.3024 14.0344 1127 60.9281 1044.27 528.595
470 0 81.1813 13.8456 1124 61.5899 1044.57 527.689
471 0 85.3827 13.0354 1113 62.575 1044.55 526.156
472 0 89.2426 13.1776 1176 62.0043 1044.48 525.338
473 1 46.1163 10.9506 505 64.1248 1044.59 544.356
474 0 47.0659 12.0044 565 63.7558 1044.92 543.885
475 0 47.0659 12.0469 567 163.755 1044.92 543.813
476 0 51.1037 13.4041 685 61.7124 1044.59 543.784
477 0 54.0634 13.6507 738 61.6409 1044.94 541.415
478 0 54.1805 13.8057 748 62.2821 1044.77 541.1
479 0 56.1086 13.5452 760 62.8671 1045.26 539.689
480 0 60.0976 13.9939 841 61.9405 1044.87 538.452
481 0 62.1426 12.9219 803 63.4894 1045.03 538.569
482 0 65.0764 14.1526 921 62.6623 1045.13 536.898
483 0 66.1333 14.0323 928 63.7101 1045.01 535.537
484 0 68.0877 13.8498 943 64.7423 1044.77 535.071
485 0 72.1152 14.047 1013 64.8598 1044.94 532.561
486 0 73.1499 13.8346 1012 65.8063 1045.3 531.76
487 0 74.1128 13.8168 1024 66.3926 1045.55 532.841
488 0 78.0906 13.4972 1054 67.425 1045.41 530.791
489 0 80.2032 14.0019 1123 67.9831 1045.22 527.889
490 0 83.2418 13.7431 1144 68.632 1045.59 526.756
491 0 88.2822 14.6349 1292 67.0882 1045.82 524.234
492 0 89.2366 14.0637 1255 68.4685 1046.08 523.295
493 0 92.3242 14.3191 1322 68.8623 1045.88 522.433
494 1 48.0398 11.199 538 72.9647 1045.75 545.11
495 0 51.0999 12.2309 625 70.5712 1045.96 543.994
496 0 50.0337 12.6115 631 70.7559 1045.52 542.854
497 0 52.0624 12.7539 664 70.8148 1045.45 540.589
498 0 53.0182 13.4293 712 70.2065 1045.77 540.239
499 0 57.0596 13.1617 751 70.9254 1046.13 538.635
500 0 59.1391 13.8825 821 69.5968 1045.91 538.315
501 0 62.0991 13.1886 819 70.2723 1046.16 536.766
502 0 64.0587 13.191 845 70.3953 1046.15 535.65
503 0 68.1384 13.6487 930 69.1763 1046 534.259
504 0 70.0319 14.1792 993 68.6626 1045.78 532.976
505 0 70.0619 13.5737 951 70.9422 1045.58 531.56
506 0 76.1193 13.4788 1026 70.1218 1045.66 529.346
507 0 78.0753 14.0633 1098 69.8716 1045.42 528.061
508 0 79.1228 13.22 1046 72.1721 1045.49 526.26
509 1 39.0669 11.7747 460 73.8826 1044.63 546.178
510 0 42.0149 10.9961 462 74.197 1044.5 545.786
511 0 44.0195 12.8352 565 72.2619 1044.97 545.235
512 0 44.014 12.4279 547 73.6654 1045.09 544.923
513 0 46.0402 12.7932 589 73.8812 1045.3 543.178
514 0 48.0491 13.9025 668 71.8593 1045.6 542.133
515 0 50.1114 13.47 675 72.9081 1045.71 540.6
516 0 53.1229 13.4217 713 72.5484 1045.46 539.734
517 0 54.1603 14.014 759 70.4993 1046.37 539.519
518 0 55.0989 13.6482 752 71.4335 1046.49 538.634
519 0 56.038 13.7585 771 71.4125 1046.28 536.885
520 0 57.049 14.2684 814 71.1192 1046.19 535.801
521 0 59.0834 14.4372 853 70.6225 1046.7 535.911
522 0 61.2233 14.4553 885 70.7944 1046.38 534.676
523 0 63.0689 14.0798 888 71.6926 1047.12 532.672
524 0 67.1875 14.7349 990 69.3737 1047.19 534.163
525 0 67.1875 14.8242 996 167 1046.22 534.097
526 0 71.1408 14.647 1042 69.9607 1047.14 531.505
527 0 74.2533 14.9892 1113 69.451 1046.98 529.475
528 0 77.1688 15.6799 1210 68.4 1046.97 527.978
529 0 80.1632 15.4185 1236 68.9272 1047.56 525.407
530 0 82.0928 15.4094 1265 69.2751 1046.34 523.168
531 0 86.3462 14.5693 1258 70.093 1046.58 522.506
532 0 88.2713 14.4554 1276 70.1803 1046.42 519.25
533 1 43.1851 12.8516 555 73.2991 1046.57 541.088
534 0 46.3285 13.6633 633 71.2038 1047.43 540.359
535 0 46.0748 12.0239 554 73.9621 1046.48 540.336
536 0 50.1619 13.8551 695 69.9324 1047.71 539.282
537 0 50.3578 14.0793 709 69.8702 1047.01 538.365
538 0 53.2933 13.6978 730 70.1548 1046.97 537.632
539 0 53.2667 14.3617 765 69.3111 1046.66 536.601
540 0 57.3181 14.5155 832 68.1562 1046.3 534.749
541 0 59.2704 14.4254 855 68.1977 1047.02 533.43
542 0 61.4443 13.2641 815 69.7043 1046.31 533.708
543 0 65.3521 14.7815 966 66.7443 1046.96 531.832
544 0 66.5061 14.6603 975 67.2338 1045.75 529.777
545 0 69.431 15.0797 1047 66.6122 1045.91 528.717
546 0 73.4752 14.6308 1075 66.1916 1046.44 528.512
547 0 75.4527 13.81 1042 67.2447 1046 526.347
548 0 77.427 13.8453 1072 67.375 1046.3 524.729
549 0 81.4501 13.7385 1119 66.9553 1046.02 524.015
550 0 84.4485 14.1743 1197 66.3375 1046.01 522.772
551 0 86.3819 14.5864 1260 66.0833 1046.09 521.909
552 1 43.2083 11.919 515 68.5417 1046.02 542.171
553 0 44.3645 11.5182 511 69.0822 1046.47 541.476
554 0 45.3098 11.9179 540 68.6704 1046.26 542.019
555 0 48.3121 13.2679 641 67.6661 1046.49 538.516
556 0 50.5238 14.1517 715 66.2741 1046.52 538.674
557 0 50.3538 13.286 669 68.719 1046.53 538.728
558 0 52.3234 13.3019 696 67.9555 1046.56 538.211
559 0 55.2973 14.2864 790 65.862 1046.37 537.223
560 0 57.2935 14.0854 807 66.5688 1046.14 536.078
561 0 61.4902 14.5389 894 65.1678 1046.54 535.879
562 0 62.165 14.2846 888 65.4009 1046.28 534.375
563 0 63.1005 14.5165 916 65.8974 1046.51 532.515
564 0 66.1831 13.1907 873 67.6208 1045.75 532.383
565 0 68.3477 14.4701 989 66.2174 1046.05 530.587
566 0 69.1535 14.2581 986 66.3022 1045.7 531.342
567 0 74.4406 14.6694 1092 65.2344 1045.39 529.766
568 0 76.1711 13.9292 1061 66.672 1045.81 526.779
569 0 80.2689 14.3642 1153 65.7138 1045.43 524.023
570 0 82.2569 14.6492 1205 65.1602 1045.18 523.624
571 0 83.1743 14.5478 1210 66.3711 1044.74 521.752
572 0 86.2056 14.3378 1236 66.0882 1044.39 522.197
573 0 90.3213 13.4852 1218 67.1174 1045.22 520.874
574 0 95.3225 14.8968 1420 64.9662 1044.4 516.957
575 1 47.0401 11.5221 542 67.679 1044.54 541.443
576 0 48.0663 11.7546 565 67.9593 1043.82 540.078
577 0 52.0903 13.2462 690 65.3333 1043.58 539.388
578 0 53.0734 12.7559 677 66.6558 1043.22 539.645
579 0 56.1721 13.3874 752 64.8311 1043.31 538.798
580 0 55.2138 13.3662 738 64.9743 1043.66 538.402
581 0 58.087 12.9461 752 65.1715 1043.03 537.153
582 0 61.0606 13.5603 828 64.1884 1042.62 536.066
583 0 63.2847 14.1108 893 62.7816 1042.63 537.243
584 0 63.325 13.3754 847 64.4675 1042.62 536.678
585 0 67.2036 14.0618 945 62.7217 1042.64 534.865
586 0 71.1483 13.4789 959 62.8811 1043.32 533.728
587 0 72.2206 14.1096 1019 62.8047 1042.54 531.976
588 0 73.2358 13.6545 1000 63.48 1042.55 532.449
589 0 75.1536 12.521 941 64.762 1042.67 530.422
590 1 40.0446 12.0366 482 63.8963 1043.06 547.344
591 0 41.0285 11.0167 452 64.9712 1042.96 548.595
592 0 43.1042 12.7598 550 63.2291 1042.42 546.96
593 0 45.0473 12.7422 574 62.5784 1042.79 546.657
594 0 46.0363 12.1643 560 64.8054 1042.7 544.93
595 0 46.0345 12.8382 591 63.5956 1042.22 543.404
596 0 48.125 13.3818 644 62.6925 1041.83 542.494
597 0 50.0393 13.6892 685 62.1883 1041.72 540.882
598 0 51.0843 12.9198 660 63.0152 1041.89 540.026
599 0 55.1336 14.3832 793 59.9369 1041.77 540.214
600 0 56.1852 14.3632 807 59.9876 1041.38 539.169
601 0 56.1588 13.6755 768 61.418 1041.93 538.284
602 0 57.2148 13.1784 754 61.9164 1041.79 536.289
603 0 61.2839 12.9887 796 61.6143 1041.95 535.305
604 0 65.2469 14.6214 954 59.1855 1041.86 535.206
605 0 64.5061 13.3786 863 61.4334 1041.51 533.61
606 0 66.2794 12.8245 850 62.0682 1042.26 535.242
607 0 69.4562 13.8217 960 60.7333 1042 533.346
608 0 73.2895 14.7224 1079 59.1631 1042.01 532.14
609 0 74.5329 14.1817 1057 60.3775 1042.46 529.382
610 0 78.4031 13.9918 1097 59.9827 1041.94 529.294
611 0 80.5077 13.5639 1092 61.337 1042.26 527.212
612 0 82.4507 13.4747 1111 62.495 1041.98 526.94
613 1 43.453 11.8059 513 63.8343 1042.17 544.333
614 0 44.3018 13.2049 585 62.4821 1042.08 544.453
615 0 43.1715 11.9755 517 64.5203 1042.68 543.455
616 0 46.3055 12.2448 567 64.7919 1042.18 543.152
617 0 48.231 12.8963 622 64.9502 1042.09 543.217
618 0 49.3928 13.2813 656 65.0701 1041.98 542.838
619 0 49.3738 13.0636 645 65.3178 1042.11 541.823
620 0 52.2487 14.3353 749 63.0307 1041.81 540.518
621 0 53.1567 13.4884 717 65.4477 1042.65 539.22
622 0 55.3277 14.2243 787 64.3926 1042.31 537.806
623 0 55.3277 14.2605 789 168.342 1041.29 537.795
624 0 58.5411 13.4094 785 66.7261 1042.47 537.949
625 0 61.157 13.6207 833 66.2581 1042.48 535.297
626 0 63.4184 13.1192 832 66.8233 1042.62 534.851
627 0 66.4536 14.2054 944 65.5805 1042.81 532.882
628 0 67.2978 14.5027 976 65.3842 1042.49 532.326
629 0 72.3249 15.1815 1098 64.2514 1043.08 530.829
630 0 71.5253 13.6036 973 67.0617 1042.72 530.39
631 0 77.3914 14.3556 1111 64.8506 1042.79 527.093
632 0 78.3736 14.3543 1125 65.3431 1042.52 526.837
633 0 82.6022 13.9948 1156 64.8702 1044.2 526.618
634 1 38.2101 11.6461 445 66.4067 1043.11 546.919
635 0 40.3779 12.1601 491 65.6701 1043.78 544.868
636 0 40.1817 12.5679 505 66.1545 1043.44 543.402
637 0 42.0764 12.5724 529 65.5614 1043.39 543.561
638 0 44.2102 13.5715 600 64.1917 1043.7 543.082
639 0 44.2423 13.1774 583 64.94 1043.55 543.087
640 0 47.169 13.335 629 64.8935 1043.44 541.188
641 0 48.1582 13.7879 664 63.994 1044.45 540.123
642 0 48.4355 14.2251 689 64.6938 1044.59 539.358
643 0 49.4861 14.206 703 65.2461 1044.07 538.312
644 0 53.2028 14.0218 746 65.0429 1044.11 537.492
645 0 53.1696 14.8017 787 64.9619 1044.5 536.658
646 0 55.3541 14.3259 793 65.3354 1044.07 536.525
647 0 58.1561 14.2719 830 65.2289 1044.13 534.483
648 0 59.3364 13.3813 794 66.4521 1044.47 534.311
649 0 61.2057 14.0836 862 66.0638 1044.77 533.137
650 0 62.3208 14.3612 895 66.4257 1045 531.983
651 0 62.3812 13.8984 867 67.752 1044.95 530.775
652 0 67.3182 15.345 1033 65.1297 1044.72 528.93
653 0 66.2255 13.9674 925 68.2865 1045.13 528.169
654 0 68.1764 13.8611 945 68.581 1044.76 527.094
655 0 73.2361 14.6239 1071 67.0243 1045.27 525.799
656 0 74.259 14.1262 1049 68.1382 1044.98 523.721
657 0 78.1933 14.5153 1135 67.3154 1045.05 523.852
658 0 79.2132 13.9623 1106 68.7902 1045.42 522.035
659 0 83.2628 14.3762 1197 67.8513 1045.04 521.004
660 0 86.2572 13.8191 1192 68.3582 1045.44 520.188
661 0 86.28 14.6268 1262 68.3193 1044.64 518.17
662 0 90.4001 13.4845 1219 69.5734 1045.19 516.567
663 0 95.3359 14.2024 1354 67.7799 1045.91 513.972
664 1 47.262 12.7375 602 69.0116 1045.34 537.291
665 0 46.1915 12.0585 557 71.0269 1046.08 535.892
666 0 51.0778 12.7844 653 68.3323 1045.57 535.101
667 0 50.2878 13.3432 671 68.7899 1046.13 534.298
668 0 55.3087 12.5297 693 68.6551 1047.16 532.934
669 0 55.1703 13.1049 723 69.0318 1046.43 531.397
670 0 60.209 13.121 790 67.8494 1046.36 530.897
671 0 61.3928 13.3403 819 68.1099 1046.98 528.319
672 0 63.2271 14.1395 894 66.9575 1046.89 527.585
673 0 64.2851 13.0357 838 68.8305 1046.96 527.415
674 0 67.2115 12.8549 864 69.0799 1047.39 525.249
675 0 70.2565 13.5788 954 67.8784 1047.74 523.578
676 0 75.344 13.2857 1001 67.002 1047.19 523.843
677 0 74.3081 12.9326 961 68.9199 1047.74 521.952
678 0 77.2742 14.015 1083 66.9584 1047.49 520.283
679 0 82.2186 13.7925 1134 66.8607 1047.76 520.312
680 1 39.0803 10.3377 404 67.9678 1046.93 539.428
681 0 40.0456 10.7378 430 69.1721 1047.39 538.14
682 0 43.028 11.2252 483 67.8406 1047.3 535.789
683 0 45.1073 10.1314 457 69 1048.14 536.492
684 0 46.097 11.5843 534 66.5506 1048.43 536.397
685 0 49.0765 11.6349 571 67.1033 1048.34 533.363
686 0 48.0586 11.2363 540 68.1426 1048.03 533.352
687 0 51.061 11.6331 594 67.0758 1048.95 532.162
688 0 55.0905 12.4522 686 64.8921 1048.15 532.133
689 0 57.08 11.6854 667 65.4543 1048.16 532.616
690 0 59.0689 12.0368 711 65.9845 1048.38 529.454
691 0 61.0371 12.3695 755 65.2781 1049.24 528.727
692 0 63.1049 12.5981 795 65.2553 1048.5 527.152
693 0 64.0701 11.9869 768 66.5794 1048.25 526.233
694 0 65.1737 11.4463 746 67.7198 1048.43 524.653
695 0 70.1305 11.9777 840 66.481 1048.01 523.332
696 0 71.114 12.0089 854 67.5925 1047.91 521.04
697 0 73.235 12.6715 928 66.8287 1048.45 521.147
698 0 76.1417 11.6887 890 68.7978 1048.42 519.548
699 1 42.0632 8.79628 370 63.8838 1048.71 539.519
700 0 42.0802 9.45812 398 63.5402 1048.97 541.327
701 0 47.1357 9.95 469 65.0768 1046.91 541.081
702 0 47.2363 10.3734 490 65.8714 1046.24 540.69
703 0 48.1133 10.7455 517 65.8704 1046.63 538.273
704 0 48.1007 11.4551 551 65.9819 1046.19 537.987
705 0 50.3063 10.3367 520 67.6942 1045.38 538.281
706 0 54.2008 11.3467 615 65.5707 1045.55 539.065
707 0 55.2595 11.1293 615 66.2276 1045.48 537.015
708 0 56.2112 11.5813 651 65.5991 1045.31 535.47
709 0 57.1884 11.6632 667 65.8096 1045.43 535.487
710 0 59.2573 10.9354 648 66.0849 1044.94 534.21
711 0 62.2878 12.7954 797 63.1054 1045.42 532.866
712 0 62.1804 11.4345 711 66.1139 1045.19 532.246
713 0 64.1407 11.2097 719 66.3672 1045.45 531.573
714 0 65.242 11.4037 744 66.4073 1045.3 528.786
715 0 69.2169 11.9335 826 65.1174 1045.55 528.384
716 0 71.1584 10.4696 745 67.1584 1045.05 527.813
717 0 73.2243 11.335 830 66.1133 1045.02 527.354
718 0 76.2206 11.4274 871 65.1206 1045.06 525.806
719 0 78.2277 11.4793 898 65.0757 1044.71 525.183
720 0 80.2138 10.9707 880 65.4364 1044.69 521.965
721 0 83.12 11.6218 966 64.6315 1045.04 521.032
722 1 45.0883 8.96019 404 62.3738 1044.21 541.366
723 0 44.0285 8.17653 360 63.8 1043.71 542.594
724 0 46.047 8.64334 398 62.0477 1044.04 542.749
725 0 46.0396 9.33978 430 62.4698 1043.4 541.426
726 0 49.0329 9.85052 483 60.5155 1043.24 540.267
727 0 51.1441 10.6366 544 59.6857 1045.13 539.949
728 0 52.1757 10.9246 570 61.1895 1044.71 539.025
729 0 54.2391 11.0621 600 60.5217 1044.49 538.822
730 0 55.2525 12.0719 667 59.2594 1043.99 539.271
731 0 57.3147 10.8698 623 60.8957 1043.98 538.335
732 0 57.3769 10.5617 606 61.538 1043.69 536.363
733 0 58.2628 10.9675 639 61.5149 1043.63 536.246
734 0 61.2401 11.3161 693 60.824 1043.43 536.823
735 0 65.1968 11.0742 722 61.1593 1043.5 534.988
736 0 66.2513 11.5017 762 60.5486 1043.48 534.547
737 0 67.138 11.4093 766 61.6684 1043.66 532.758
738 0 70.1722 11.4005 800 61.0063 1043.46 532.986
739 0 72.2606 11.0295 797 61.5521 1043.51 532.711
740 0 77.2545 11.7145 905 60.3768 1043.26 529.895
741 0 78.2383 11.7462 919 60.6181 1043.76 529.385
742 0 80.1993 11.7831 945 60.9471 1043.86 527.87
743 0 83.2107 11.7413 977 61.0952 1043.32 524.68
744 1 44.1043 9.43219 416 60.9399 1042.06 546.132
745 0 46.0247 10.2554 472 60.5487 1041.96 545.083
746 0 49.027 9.54577 468 60.4017 1041.91 544.876
747 0 48.0646 10.5275 506 60.2866 1041.36 543.407
748 0 48.2948 10.0632 486 62.286 1043.6 541.794
749 0 52.2429 11.2168 586 59.8276 1043.38 541.553
750 0 53.2499 11.7559 626 59.4649 1043.46 540.915
751 0 55.3069 11.4995 636 59.0425 1043.4 540.17
752 0 56.2838 11.0334 621 60.2448 1042.81 539.174
753 0 58.3643 11.4625 669 59.849 1042.69 539.263
754 0 58.2684 11.2411 655 59.5618 1042.81 538.169
755 0 59.2847 10.8797 645 60.7814 1042.83 537.96
756 0 59.2539 10.7504 637 61.2496 1042.42 535.523
757 0 65.2615 12.2584 800 58.1538 1042.48 534.829
758 0 63.2667 10.8904 689 60.5689 1042.3 533.768
759 0 67.2587 11.8646 798 58.708 1041.78 535.388
760 0 69.1832 12.0694 835 59.2216 1041.91 532.461
761 0 71.2871 12.2883 876 59.7728 1042.5 531.876
762 0 73.2617 11.8343 867 60.1061 1042.07 533.619
763 0 72.1941 11.3444 819 62.0464 1042.36 528.868
764 0 78.2259 11.4284 894 61.4172 1042.15 528.268
765 1 41.1087 8.0275 330 62.5879 1041.13 547.394
766 0 42.1605 10.0805 425 60.9412 1041.79 546.372
767 0 43.0963 9.88485 426 60.1596 1041.86 547.521
768 0 44.0472 9.92118 437 60.6362 1041.65 546.973
769 0 45.1231 10.2165 461 60.5141 1041.66 545.451
770 0 47.1811 10.6822 504 60.1825 1041.9 545.375
771 0 47.2454 10.8159 511 61.6262 1042.65 544.147
772 0 50.1979 12.132 609 59.2282 1042.92 543.011
773 0 52.1943 11.3231 591 60.4484 1043.01 542.354
774 0 53.129 11.5003 611 60.6318 1042.76 540.609
775 0 54.1913 11.8654 643 60.6314 1042.56 541.972
776 0 56.2638 12.1392 683 60.2123 1043.35 542.268
777 0 59.1899 12.8738 762 60.6667 1043.74 539.629
778 0 59.2033 12.4993 740 60.8014 1043.71 539.242
779 0 60.2225 13.1844 794 60.2783 1043.64 537.679
780 0 64.1163 12.8828 826 60.0799 1043.69 537.877
781 0 64.2737 12.2756 789 61.455 1043.84 537.322
782 0 66.2459 12.6498 838 61.3747 1043.29 533.054
783 0 68.1777 12.8781 878 61.0513 1043.59 528.731
784 0 70.2015 12.4499 874 62.0332 1044.15 524.784
785 0 70.2571 11.9419 839 63.0489 1043.79 520.251
786 0 75.2923 13.1488 990 61.1293 1044.21 521.658
787 0 78.3087 12.8211 1004 61.9542 1044.05 524.8
788 0 79.3729 13.6823 1086 61.1022 1044.26 524.919
789 0 83.2919 14.6833 1223 58.9362 1044.23 521.314
790 1 46.2936 10.9302 506 62.5198 1043.51 543.482
791 0 45.1621 10.3405 467 64.5054 1044.91 543.33
792 0 45.0911 10.0685 454 62.4515 1044.53 543.901
793 0 48.1869 11.6837 563 61.6377 1044.45 541.753
794 0 49.1843 11.6704 574 61.4965 1045.61 540.397
795 0 51.2168 11.5587 592 61.8632 1045.49 540.792
796 0 54.2542 12.0728 655 61.2947 1045.61 535.853
797 0 56.3119 12.3065 693 60.0058 1045.68 537.859
798 0 56.2634 12.2104 687 60.6608 1045.5 536.764
799 0 59.2767 12.4838 740 59.55 1045.78 537.659
800 0 59.3168 12.526 743 59.9919 1045.96 537.629
801 0 60.3078 12.4859 753 59.927 1046.23 536.766
802 0 63.4039 13.0591 828 58.4601 1046.18 534.141
803 0 63.3148 11.9245 755 60.5801 1046.47 535.331
804 0 66.4253 12.2694 815 59.4098 1046.33 534.688
805 0 68.446 12.6669 867 58.9527 1046.38 533.262
806 0 70.6246 13.4797 952 57.3351 1046.44 531.881
807 0 73.5413 13.353 982 56.7342 1046.73 530.718
808 0 75.5457 13.3032 1005 57.1483 1047.2 529.566
809 0 77.5786 13.5604 1052 56.2101 1046.97 527.648
810 0 79.4201 12.7298 1011 56.7488 1047.16 524.154
811 0 81.4742 11.9179 971 57.0268 1046.95 524.373
812 1 42.0969 9.92947 418 56.8876 1046.61 543.66
813 0 44.1134 10.2463 452 55.7456 1047 543.965
814 0 44.1673 11.3206 500 55.562 1046.3 542.182
815 0 46.0901 10.4795 483 55.6418 1047.05 541.671
816 0 51.2001 12.1289 621 54.6957 1046.97 543.108
817 0 52.1768 13.0709 682 53.7287 1047.3 540.622
818 0 54.2267 11.7839 639 55.2911 1046.84 540.648
819 0 52.2429 11.9059 622 56.2605 1046.8 540.757
820 0 55.3276 13.8087 764 53.572 1046.89 540.599
821 0 56.2858 12.3832 697 55.3472 1047.63 539.007
822 0 58.1246 12.4044 721 55.5409 1047.24 537.749
823 0 59.2086 12.1942 722 56.09 1047.11 537.688
824 0 62.4003 12.564 784 55.5523 1046.55 535.978
825 0 64.2559 13.3217 856 54.1075 1047.21 537.447
826 0 65.2871 13.6321 890 54.8528 1047.26 532.982
827 0 66.4165 12.0302 799 57.3191 1047.19 533.597
828 0 69.2674 12.8054 887 56.5028 1047.1 530.834
829 0 72.3098 13.6634 988 55.5374 1046.75 530.347
830 0 74.3507 13.6381 1014 55.3886 1046.91 529.591
831 0 77.2243 13.7392 1061 55.8256 1046.45 526.342
832 0 78.303 13.154 1030 56.8515 1046.96 526.819
833 0 80.4176 13.2434 1065 57.6638 1046.88 524.508
834 1 43.1121 10.9946 474 58.3692 1045.97 545.114
835 0 41.1561 11.2985 465 59.3892 1046.01 544.561
836 0 44.0475 10.7157 472 59.3136 1045.83 544.492
837 0 47.0635 10.8152 509 58.9273 1046.38 542.536
838 0 48.1089 12.7211 612 57.3693 1046.86 541.157
839 0 49.0486 12.6201 619 55.7496 1047.36 539.082
840 0 52.0505 12.5455 653 56.6248 1047.29 539.263
841 0 53.1674 12.9214 687 57.5357 1046.24 539.275
842 0 53.1383 13.1544 699 57.8512 1047.01 537.886
843 0 56.0875 12.6766 711 58.706 1047.05 537.776
844 0 57.0793 13.2447 756 57.4669 1047.18 538.43
845 0 58.0842 11.931 693 60.2915 1046.51 537.456
846 0 58.0306 12.9242 750 60.212 1046.07 535.964
847 0 62.1806 13.0105 809 59.3177 1045.95 535.886
848 0 62.0849 13.0789 812 60.1823 1045.7 532.935
849 0 64.2479 12.9031 829 60.3872 1045.56 532.577
850 0 67.0693 14.3732 964 58.4554 1045.74 531.002
851 0 69.1104 13.8329 956 59.7249 1046.32 529.703
852 0 72.1432 13.4178 968 60.1653 1045.97 529.856
853 0 74.1251 13.5177 1002 60.497 1045.21 528.34
854 0 76.2156 14.2359 1085 59.7088 1045.14 527.501
855 0 78.3809 13.4854 1057 60.8297 1045.24 526.703
856 0 82.1171 13.8826 1140 60.0702 1045.16 523.644
857 1 42.2933 11.0183 466 63.4356 1045.39 542.655
858 0 45.2276 12.0944 547 62.0055 1045.57 541.991
859 0 45.2438 11.427 517 63.8182 1045.45 540.702
860 0 45.1638 12.2886 555 63.9964 1044.94 538.665
861 0 49.3223 12.2663 605 62.9372 1044.96 538.775
862 0 51.1249 13.3399 682 61.217 1044.79 540.553
863 0 51.2136 12.5162 641 63.6583 1044.49 538.285
864 0 53.157 12.3032 654 64.0199 1044.39 538.943
865 0 55.1195 13.4979 744 62.0833 1044.19 538.227
866 0 55.2009 13.8404 764 62.5825 1043.92 536.644
867 0 59.4486 13.5747 807 61.6753 1043.94 535.644
868 0 58.359 12.4231 725 64.3172 1043.65 534.83
869 0 63.3355 13.0575 827 63.1814 1043.59 533.618
870 0 63.2436 12.9025 816 64.1973 1043.51 533.567
871 0 66.3545 12.9908 862 64.2633 1043.4 529.592
872 0 67.3947 13.7103 924 63.5249 1043.82 530.916
873 0 69.3011 13.6073 943 63.6819 1043.38 529.878
874 0 74.5818 14.0517 1048 62.8006 1043.99 526.858
875 0 74.3567 13.0183 968 65.0692 1043.1 527.796
876 0 79.4406 13.0412 1036 64.3986 1043.17 527.383
877 0 81.3237 13.8951 1130 63.9186 1042.86 524.567
878 1 42.2093 11.9642 505 65.6495 1043.29 543.796
879 0 44.0728 11.1407 491 67.9837 1043.41 542.299
880 0 46.2187 12.0081 555 66.0162 1042.85 542.544
881 0 49.1763 11.713 576 66.1424 1042.91 542.271
882 0 49.2588 12.3836 610 66.0115 1043.43 541.569
883 0 50.2727 12.2134 614 67.1433 1043.95 540.845
884 0 52.3147 12.788 669 66.42 1043.68 538.888
885 0 54.4852 13.1045 714 65.2283 1043.43 539.417
886 0 57.3685 12.9514 743 65.9219 1043.11 536.939
887 0 57.5071 11.9811 689 67.9942 1043.61 536.594
888 0 61.3054 12.9679 795 65.7547 1043.72 534.726
889 0 63.2682 12.7868 809 66.2126 1043.97 534.951
890 0 65.3398 12.9783 848 66.3561 1043.88 532.591
891 0 66.4201 12.5113 831 67.5897 1043.97 531.851
892 0 70.4354 12.9338 911 66.7596 1043.7 531.228
893 0 73.316 13.2168 969 65.7668 1044.03 529.513
894 0 76.3395 14.108 1077 92.637 1043.81 527.957
895 0 76.3525 13.4377 1026 67.4552 1044.69 524.687
896 0 78.4075 13.3533 1047 67.9408 1045.12 523.183
897 0 81.399 13.1574 1071 67.9757 1044.88 520.576
898 0 85.4991 13.427 1148 67.5436 1044.72 519.16
899 0 89.437 13.3837 1197 67.4227 1045.32 518.541
900 0 90.4072 13.1516 1189 68.6442 1045.65 518.181
901 1 45.1215 11.458 517 69.6828 1045.95 538.588
902 0 47.3464 11.3419 537 68.9795 1046.4 538.287
903 0 48.4106 10.9273 529 69.6049 1046.38 538.371
904 0 51.3242 10.9695 563 68.8686 1046.59 537.053
905 0 50.2993 11.9087 599 69.5225 1046.27 536.03
906 0 52.2846 12.0877 632 68.3434 1046.41 534.472
907 0 55.386 12.5844 697 68.0947 1046.74 534.099
908 0 56.6242 13.0686 740 65.9432 1046.7 533.107
909 0 59.3232 13.1315 779 65.7779 1046.41 527.807
910 0 61.3482 13.35 819 66.0745 1046.59 529.076
911 0 64.6171 13.2937 859 65.5541 1046.61 530.92
912 0 66.6093 12.806 853 66.8664 1046.4 528.084
913 0 68.4675 13.1157 898 67.2906 1046.85 524.705
914 0 69.7824 12.9975 907 67.7288 1046.66 523.538
915 0 74.7206 14.0791 1052 65.3203 1047.1 522.625
916 0 75.5049 14.0123 1058 66.7335 1046.97 521.574
917 0 77.4924 13.4336 1041 67.5341 1047.39 521.332
918 0 79.6898 13.1761 1050 68.7267 1047.62 517.632
919 0 82.7878 13.287 1100 68.5955 1047.44 516.669
920 1 42.3628 10.8114 458 68.9061 1047.27 538.197
921 0 44.4107 10.1777 452 70.7478 1048.06 536.916
922 0 45.467 10.843 493 69.501 1048.21 536.235
923 0 47.3866 11.6911 554 68.4188 1048.25 535.798
924 0 48.4281 12.1624 589 68.1205 1048.8 536.924
925 0 54.58 12.3122 672 68.0491 1048.58 536.76
926 0 54.2505 12.9768 704 68.0312 1048.62 536.827
927 0 56.4078 12.5869 710 68.2549 1048.57 536.549
928 0 57.4265 13.095 752 67.8577 1048.56 535.227
929 0 58.625 13.1343 770 68.3623 1048.53 533.848
930 0 62.5202 13.6116 851 66.7356 1048.55 532.702
931 0 64.6421 13.041 843 68.5338 1048.41 530.977
932 0 64.8468 12.6298 819 69.6117 1048.12 530.042
933 0 67.5076 13.4355 907 68.3903 1048.42 527.95
934 0 67.6231 12.9985 879 69.7747 1047.95 528.29
935 0 68.608 12.9722 890 69.7652 1048.14 527.847
936 0 73.362 13.0449 957 68.884 1048.05 526.614
937 0 75.6073 12.7766 966 69.0497 1047.68 526.152
938 0 78.4501 12.7597 1001 68.7812 1048.04 524.911
939 0 80.3958 12.3265 991 69.115 1048.32 523.175
940 0 85.3203 13.1387 1121 67.1615 1047.67 523.733
941 1 45.091 10.9113 492 67.9431 1047.16 540.74
942 0 45.0666 11.1391 502 66.5578 1046.62 542.229
943 0 47.0307 9.82337 462 67.7641 1046.59 540.97
944 0 49.0416 11.5004 564 65.2145 1046.5 538.863
945 0 50.0562 11.5071 576 66.2674 1046.52 536.582
946 0 54.0332 12.1407 656 64.1067 1046.34 536.863
947 0 55.0787 12.7091 700 65.0943 1046.09 537.071
948 0 56.1131 12.5283 703 65.4367 1046.45 537.593
949 0 57.2606 12.2772 703 65.9659 1046.42 536.589
950 0 59.1183 12.9571 766 64.9243 1045.9 536.09
951 0 61.1499 12.3631 756 64.6323 1045.92 536.606
952 0 62.1339 12.7306 791 64.9608 1045.94 533.134
953 0 64.1384 13.58 871 63.496 1045.85 533.87
954 0 67.2339 13.7133 922 62.8091 1045.76 532.552
955 0 67.1582 13.6097 914 63.8654 1045.56 530.1
956 0 70.169 12.8547 902 64.531 1046.02 529.788
957 0 71.085 13.3643 950 64.1695 1045.94 528.637
958 0 73.1738 13.3244 975 63.7528 1045.26 530.135
959 0 76.1242 12.9657 987 63.9271 1045.71 526.078
960 0 78.1291 13.9641 1091 62.6599 1045.38 526.701
961 0 80.1368 12.6783 1016 64.3524 1044.97 525.611
962 0 84.2348 13.2724 1118 63.1923 1045.4 523.032
963 0 88.0808 13.1016 1154 62.4558 1045.45 523.133
964 0 89.1334 13.4293 1197 61.8922 1045.35 518.558
965 1 47.1174 10.1449 478 62.0188 1044.68 542.155
966 0 49.0835 10.6553 523 61.0057 1044.98 541.572
967 0 48.0637 10.8814 523 61.9044 1045.23 540.943
968 0 51.1314 11.6758 597 60.8861 1045.1 541.032
969 0 54.1991 11.4762 622 60.7026 1044.63 538.973
970 0 57.1063 12.6781 724 58.8439 1045 538.919
971 0 55.1899 12.5385 692 60.526 1044.77 537.296
972 0 60.1355 12.9541 779 58.6085 1045.36 536.176
973 0 61.0977 12.2427 748 59.8543 1045.11 535.663
974 0 60.1743 12.1813 733 60.7094 1045.21 533.256
975 0 64.1263 12.9276 829 59.1568 1044.55 534.369
976 0 66.1168 12.856 850 59.5459 1044.61 533.978
977 0 67.1279 12.4985 839 60.4768 1044.08 534.411
978 0 70.1525 13.3139 934 58.8704 1044.05 530.439
979 0 73.1332 12.5935 921 59.4929 1043.56 531.047
980 0 76.1536 12.4748 950 59.0453 1044.09 531.479
981 0 77.1778 13.4495 1038 58.8054 1044.24 527.343
982 0 79.3289 12.8831 1022 59.2789 1044.08 527.503
983 0 81.2169 12.5836 1022 59.8542 1043.84 527.128
984 0 86.2665 13.7017 1182 58.6717 1043.51 525.767
985 0 86.2258 12.3165 1062 61.2778 1043.37 524.065
986 0 88.1896 13.0628 1152 61.0052 1043.56 523.802
987 1 45.2244 8.35832 378 61.9206 1043.02 547
988 0 47.221 10.4614 494 59.8927 1043.15 544.605
989 0 49.0815 10.2279 502 60.3765 1043.33 543.01
990 0 52.157 11.7338 612 58.6176 1043.87 542.31
991 0 50.1498 11.8046 592 60.2078 1043.59 542.458
992 0 52.1809 12.0159 627 59.8262 1043.39 541.796
993 0 54.1237 12.2867 665 59.2556 1043.28 541.821
994 0 55.1828 11.779 650 60.6292 1043.56 539.963
995 0 57.1437 12.0048 686 60.6531 1043.22 538.624
996 0 59.1271 12.211 722 60.3573 1043.34 538.783
997 0 59.1204 12.094 715 60.779 1043.46 538.234
998 0 63.1459 11.7981 745 60.0013 1042.86 536.352
999 0 65.1981 12.5617 819 58.9084 1043.23 534.807
1000 0 66.1799 11.8918 787 61.2262 1043.63 533.82
1001 0 66.1799 11.8616 785 145.144 1044.61 533.825
1002 0 71.1418 11.709 833 60.7179 1042.93 534.172
1003 0 72.1818 12.1222 875 59.88 1043.42 531.398
1004 0 76.2319 11.9504 911 60.0154 1043.59 528.926
1005 0 78.0731 12.2577 957 59.1912 1043 527.82
1006 1 44.1129 8.41025 371 59.6092 1043.14 547.296
1007 0 45.1434 9.63596 435 59.0483 1043.29 545.579
1008 0 46.0752 9.37598 432 59.088 1042.73 547.986
1009 0 48.0451 11.3227 544 57.7757 1042.58 544.783
1010 0 50.1656 10.5052 527 58.7476 1042.29 544.266
1011 0 52.0191 11.3804 592 59.228 1042.38 543.583
1012 0 53.0869 11.2646 598 60.0719 1042.63 542.013
1013 0 54.0662 11.8743 642 59.3193 1042.63 542.636
1014 0 56.063 12.0757 677 59.5199 1042.43 541.388
1015 0 56.0792 11.3768 638 60.1364 1042.47 540.92
1016 0 58.0469 11.439 664 60.3886 1042.65 540.992
1017 0 60.131 12.19 733 59.3561 1043.08 539.693
1018 0 63.0638 12.0513 760 58.7289 1043.36 538.107
1019 0 66.1175 12.4022 820 57.6915 1043.64 536.813
1020 0 66.092 10.9242 722 60.2188 1043.08 534.73
1021 0 72.2007 12.022 868 57.765 1042.94 535.488
1022 0 72.1358 12.3101 888 57.8919 1042.99 530.662
1023 0 74.0838 12.3644 916 58.1561 1043.4 531.226
1024 0 77.2369 12.4422 961 58.3007 1043.4 529.235
1025 1 38.0889 8.74271 333 60.4925 1044.12 550.64
1026 0 40.0788 10.5292 422 59.2133 1044.25 548.344
1027 0 41.1239 10.3103 424 58.6462 1044.04 547.915
1028 0 42.1403 12.1261 511 58.2994 1044.79 546.515
1029 0 42.2058 11.515 486 59.5432 1045 546.502
1030 0 43.2315 12.0283 520 59.7865 1045.44 544.877
1031 0 44.1567 11.8895 525 59.7676 1045.2 545.187
1032 0 45.2082 11.9447 540 59.8944 1045.06 545.161
1033 0 46.1802 11.7583 543 60.6832 1045.12 544.569
1034 0 48.1754 12.4753 601 59.4326 1045.98 544.18
1035 0 50.2304 12.0047 603 60.1857 1045.84 541.866
1036 0 51.1227 12.7928 654 59.2294 1046.11 541.385
1037 0 52.1486 11.9658 624 60.9087 1046.32 541.014
1038 0 55.2124 12.4066 685 59.5124 1046.9 540.517
1039 0 56.0866 12.0885 678 60.059 1046.84 539.981
1040 0 59.0967 13.0633 772 58.1049 1047.27 537.837
1041 0 60.1009 12.8451 772 58.5984 1047.9 537.778
1042 0 60.1526 12.6512 761 59.2497 1047.88 536.48
1043 0 61.0742 12.5257 765 59.5621 1047.97 535.571
1044 0 63.1215 12.5472 792 59.2361 1048.04 533.801
1045 0 65.1213 12.4537 811 59.1911 1048.38 533.714
1046 0 66.1407 13.1991 873 58.8786 1048.56 532.032
1047 0 71.1266 13.244 942 56.9183 1048.51 532.346
1048 0 71.1941 13.4983 961 57.6254 1048.59 528.906
1049 0 73.1901 13.0892 958 58.2933 1048.89 526.766
1050 0 76.128 12.8205 976 58.8135 1049.17 528.346
1051 0 79.2814 13.2944 1054 57.8586 1049.58 525.037
1052 0 80.1022 13.1207 1051 58.1465 1049.86 525.413
1053 0 84.2759 13.6457 1150 57.9539 1049.51 522.629
1054 0 86.1118 13.5289 1165 58.4292 1049.53 521.267
1055 0 87.2363 14.2028 1239 58.3906 1049.55 518.635
1056 0 91.3355 12.9084 1179 60.296 1049.45 516.444
1057 1 46.1142 10.9944 507 61.2249 1049.51 541.25
1058 0 46.2699 11.2168 519 61.5356 1049.55 540.854
1059 0 49.343 11.2883 557 61.1867 1049.01 538.847
1060 0 51.1937 12.2867 629 60.3688 1048.86 538.731
1061 0 54.1076 12.0685 653 60.6263 1049.57 536.775
1062 0 53.1673 11.5673 615 61.8472 1049.72 537.646
1063 0 55.0768 12.1648 670 61.3045 1049.23 536.351
1064 0 57.057 12.4086 708 61.4972 1049.48 535.778
1065 0 60.0834 13.0152 782 60.8005 1049.09 534.817
1066 0 61.2387 12.5084 766 61.8068 1049.21 533.033
1067 0 64.0591 12.8787 825 61.0133 1049.1 534.164
1068 0 66.2682 12.4796 827 62.0895 1048.7 532.111
1069 0 68.2281 13.279 906 61.1015 1048.42 530.726
1070 0 71.2965 13.0441 930 60.9204 1048.38 530.472
1071 0 70.4364 13.6151 959 61.415 1048.52 530.241
1072 0 74.4878 13.2371 986 61.8387 1048.72 528.714
1073 0 76.3767 13.6822 1045 61.1675 1048.42 528.571
1074 0 79.4408 12.9405 1028 62.9397 1048.29 526.202
1075 0 81.3699 13.4448 1094 62.4845 1048 526.29
1076 0 83.5248 12.7627 1066 64.1426 1047.62 523.917
1077 0 85.3691 13.4006 1144 63.5498 1047.55 522.076
1078 0 88.2846 12.4144 1096 65.1186 1047.25 520.09
1079 0 92.4376 12.4949 1155 64.8294 1046.95 518.497
1080 0 96.5458 13.434 1297 63.5929 1047.15 516.812
1081 1 47.1296 10.4605 493 65.3773 1047.91 540.004
1082 0 49.1148 10.8114 531 66.0019 1047.69 537.996
1083 0 53.0867 12.0558 640 64.6891 1048.13 537.242
1084 0 55.1453 12.6031 695 64.2777 1047.75 532.262
1085 0 54.0873 12.4429 673 65.7415 1047.88 536.519
1086 0 58.0161 12.4448 722 65.0111 1048.28 536.557
1087 0 61.2047 12.8748 788 64.6942 1047.28 539.648
1088 0 61.1753 12.832 785 65.7592 1047.01 539.256
1089 0 64.1439 13.3762 858 64.7832 1046.84 535.145
1090 0 67.2228 12.2726 825 65.8836 1046.99 535.421
1091 0 69.2366 13.8077 956 63.7301 1046.59 533.05
1092 0 70.1699 12.4982 877 65.61 1047.01 533.439
1093 0 72.1413 12.9052 931 65.0859 1046.48 531.755
1094 0 77.2693 13.0453 1008 64.0188 1046.84 530.936
1095 0 78.2112 12.9905 1016 64.5797 1046.55 527.83
1096 0 80.4784 13.0221 1048 64.4962 1046.86 526.892
1097 1 43.0861 9.37657 404 65.4257 1045.8 546.948
1098 0 46.0513 10.7706 496 63.994 1046.4 545.196
1099 0 44.0768 10.5724 466 65.0687 1046.69 545.442
1100 0 48.3275 10.6151 513 65.3723 1046.18 544.14
1101 0 49.1973 11.7486 578 64.0727 1046.3 543.196
1102 0 52.0865 12.6904 661 62.4766 1046.03 540.434
1103 0 53.1401 12.4953 664 61.7515 1045.89 541.462
1104 0 54.1377 12.0618 653 62.4472 1046.02 540.655
1105 0 55.1136 11.2858 622 64.8376 1045.33 540.617
1106 0 59.1356 12.1923 721 61.7614 1045.65 540.997
1107 0 59.1195 12.1956 721 62.3606 1045.84 540.352
1108 0 61.0778 12.7215 777 61.5882 1045.74 538.156
1109 0 63.181 12.7095 803 62.807 1045.72 537.92
1110 0 63.0745 13.603 858 62.2156 1046.05 535.692
1111 0 65.0844 13.06 850 62.4553 1045.36 534.914
1112 0 67.0922 13.3846 898 62.0468 1045.46 534.646
1113 0 70.0745 12.8863 903 62.5006 1045.58 534.694
1114 0 73.0895 13.6271 996 60.999 1045.45 532.721
1115 0 73.0411 12.2671 896 63.2969 1045.09 531.699
1116 0 77.0938 12.9323 997 62.0411 1044.82 529.674
1117 0 80.1112 12.5451 1005 62.3612 1044.6 526.803
1118 1 38.0306 8.25651 314 63.4459 1043.71 551.666
1119 0 41.0139 9.28953 381 62.958 1044.09 550.627
1120 0 41.1283 11.0386 454 61.3458 1044.09 549.104
1121 0 43.0502 10.3368 445 61.7146 1044.65 546.969
1122 0 45.1657 11.8231 534 60.1891 1044.59 545.828
1123 0 47.1416 11.1791 527 61.4326 1044.78 546.061
1124 0 46.1043 12.1681 561 61.7897 1044.04 546.071
1125 0 45.0553 11.5858 522 63.3851 1044.08 545.238
1126 0 49.0976 12.0169 590 61.5898 1044.37 545.208
1127 0 50.1042 12.3542 619 61.5913 1044.13 544.147
1128 0 51.075 12.7264 650 60.54 1044.09 543.406
1129 0 53.0437 12.1598 645 61.3705 1044.01 543.344
1130 0 54.135 11.6745 632 61.8259 1044.34 543.498
1131 0 57.0767 12.8599 734 59.8842 1044.27 541.623
1132 0 56.2095 13.0049 731 60.8181 1044.24 541.062
1133 0 59.0847 12.4905 738 61.1789 1044.23 540.149
1134 0 61.0869 12.7032 776 61.9936 1044.13 538.656
1135 0 63.0662 12.7802 806 61.7854 1044.62 537.901
1136 0 65.0747 12.9543 843 62.1127 1044.48 536.894
1137 0 68.3978 12.7343 871 62.6315 1044.47 536.855
1138 0 69.0994 12.3735 855 64.2117 1044.64 534.853
1139 0 71.1362 13.2141 940 63.0617 1045.94 533.519
1140 0 74.1477 12.556 931 63.9119 1045.63 532.783
1141 1 38.0565 9.03919 344 67.1366 1045.44 550.738
1142 0 43.232 10.3164 446 66.3363 1045.61 550.392
1143 0 42.1897 10.4528 441 68 1045.9 548.472
1144 0 45.1349 11.6097 524 65.5477 1046.3 546.597
1145 0 48.1586 12.1058 583 65.0892 1046.03 544.679
1146 0 47.1647 12.2973 580 66.5448 1045.29 543.519
1147 0 49.2746 12.5014 616 66.8166 1047.08 544.284
1148 0 53.2798 13.0443 695 65.4935 1047.29 542.734
1149 0 53.1968 12.8955 686 66.5743 1047.05 543.216
1150 0 53.1514 13.1511 699 66.8069 1047.14 540.684
1151 0 58.4206 12.4442 727 67.033 1047.54 539.294
1152 0 58.4688 12.5366 733 67.8595 1047.66 537.977
1153 0 62.3676 13.4525 839 65.124 1048.28 537.887
1154 0 62.1713 13.3985 833 65.7227 1048.3 536.658
1155 0 62.2417 13.0298 811 66.9704 1048.15 536.586
1156 0 64.2852 12.9112 830 66.8422 1048.23 534.676
1157 0 66.2878 12.5815 834 68.0851 1048.54 533.266
1158 0 68.3191 12.8954 881 66.8888 1048.91 532.276
1159 0 73.1305 12.8537 940 65.1181 1049.14 531.427
1160 0 73.3829 12.7414 935 66.4642 1049.73 528.836
1161 0 77.3671 12.9642 1003 66.2124 1049.1 527.521
1162 1 39.1833 10.6423 417 68.7146 1049.59 546.098
1163 0 43.1095 10.8561 468 67.0833 1049.6 545.85
1164 0 47.1352 11.7534 554 65.4422 1050.04 543.693
1165 0 48.3155 11.5284 557 67.2406 1050.16 543.223
1166 0 50.1972 12.0325 604 66.0993 1048.73 542.237
1167 0 49.1422 12.2909 604 66.7086 1049.11 541.43
1168 0 53.134 12.6285 671 65.4814 1049.81 540.25
1169 0 54.1266 12.3599 669 65.707 1049.87 539.761
1170 0 53.0927 11.866 630 67.5206 1049.78 538.203
1171 0 56.0615 12.2009 684 67.0015 1049.98 537.553
1172 0 59.125 12.4651 737 65.4532 1050.21 538
1173 0 61.0983 13.1591 804 66.0547 1050.34 534.471
1174 0 63.1676 12.4114 784 67.2691 1050.43 533.938
1175 0 65.2509 12.2604 800 67.3812 1050.6 534.389
1176 0 65.1444 12.6949 827 67.786 1051.1 533.771
1177 0 68.2016 13.0202 888 66.991 1051.04 532.157
1178 0 69.2268 13.0441 903 67.4297 1051.08 531.836
1179 0 73.2729 12.9243 947 67.095 1051.46 530.636
1180 0 74.218 13.2178 981 67.4312 1051.42 530.526
1181 0 77.2599 13.5387 1046 67.3537 1051.64 527.321
1182 0 80.2473 13.2964 1067 68.1078 1050.84 525.111
1183 0 83.5522 13.4646 1125 68.4249 1050.38 524.351
1184 0 84.4674 13.2714 1121 68.4541 1050.65 523.346
1185 1 44.1652 10.2343 452 71.1681 1050.42 542.834
1186 0 48.343 10.9633 530 71.034 1049.5 539.694
1187 0 49.3935 10.8719 537 72.0223 1049.18 539.503
1188 0 51.5145 11.8607 611 70.5908 1049.75 538.074
1189 0 53.4057 12.2459 654 70.1437 1050.02 537.087
1190 0 55.3488 13.4962 747 68.8661 1048.81 534.62
1191 0 54.2533 12.9946 705 70.1333 1049.77 537.532
1192 0 57.2378 13.7671 788 69.368 1049.62 536.943
1193 0 59.3452 13.1434 780 70.1269 1049.24 535.547
1194 0 60.268 13.2574 799 70.1965 1049.71 536.574
1195 0 62.2421 12.7888 796 70.7802 1049.47 535.412
1196 0 65.0855 13.4746 877 69.8301 1049.2 532.979
1197 0 66.2223 13.0621 865 71.037 1049.18 532.353
1198 0 68.2855 13.7511 939 69.7923 1048.69 532.349
1199 0 68.3436 13.359 913 70.6648 1049.01 531.179
1200 0 72.3414 13.4501 973 70.1459 1048.77 530.674
1201 0 74.3362 13.5331 1006 69.831 1048.66 530.349
1202 0 77.4162 13.5889 1052 70.0998 1048.13 527.433
1203 0 78.2726 13.0442 1021 70.9079 1048.25 526.511
1204 0 83.5202 13.5536 1132 69.0857 1048.1 526.466
1205 1 42.127 11.7977 497 69.6801 1047.26 546.781
1206 0 43.0778 11.8622 511 70.8063 1047.24 544.556
1207 0 46.1827 11.7143 541 70.024 1046.79 543.911
1208 0 45.1152 12.3018 555 70.8541 1046.85 543.735
1209 0 48.0738 12.0856 581 70.7504 1047.09 543.269
1210 0 50.1765 12.4361 624 69.3974 1047.42 542.381
1211 0 51.1894 13.1277 672 68.4479 1048.12 542.558
1212 0 52.2891 13.5592 709 67.9831 1047.98 540.45
1213 0 55.2562 13.0302 720 68.4139 1047.57 539.719
1214 0 54.168 13.8458 750 67.5667 1047.32 538.6
1215 0 56.2276 13.2853 747 67.7403 1047.19 539.232
1216 0 56.3365 12.9579 730 68.6151 1046.7 537.33
1217 0 61.3541 13.3487 819 67.0391 1046.65 537.033
1218 0 59.2754 13.2433 785 67.5414 1046.68 534.93
1219 0 61.3111 13.5212 829 66.8347 1046.63 535.344
1220 0 64.2302 13.4983 867 66.3195 1046.57 533.504
1221 0 65.2493 13.1036 855 67.1918 1047.19 532.444
1222 0 68.304 13.7766 941 65.559 1046.46 531.213
1223 0 70.4054 13.3228 938 65.8678 1046.18 531.02
1224 0 73.2782 13.36 979 65.6588 1045.65 530.222
1225 0 75.2057 13.8553 1042 64.4722 1045.59 528.102
1226 0 77.2793 13.5612 1048 65.3931 1045.46 525.486
1227 0 80.4023 13.3703 1075 65.4074 1045.5 525.655
1228 1 39.0654 9.4457 369 67.6396 1045.03 546.602
1229 0 43.0543 10.0338 432 65.7338 1045.11 545.315
1230 0 44.1202 9.90477 437 65.6911 1045.21 545.906
1231 0 44.072 11.3451 500 64.88 1045.15 543.556
1232 0 47.0265 12.0145 565 64.9965 1044.8 542.136
1233 0 49.0854 12.4273 610 62.7443 1045.27 542.37
1234 0 51.1046 12.9343 661 62.5265 1045.39 543.357
1235 0 51.1389 12.9256 661 62.9425 1044.78 542.619
1236 0 54.1679 12.3874 671 63.4232 1045 543.134
1237 0 54.1558 13.0549 707 63.2221 1045.14 541.399
1238 0 56.2677 13.4713 758 62.5026 1045.21 540.821
1239 0 57.1365 13.0214 744 63.9691 1045.32 540.011
1240 0 61.2487 13.584 832 62.5385 1044.85 538.875
1241 0 62.1893 14.1825 882 61.7472 1045.43 538.474
1242 0 61.1496 12.2486 749 64.8865 1045.25 538.204
1243 0 65.07 13.0014 846 63.2778 1045.21 537.582
1244 0 66.2311 12.5772 833 64.431 1045.24 536.421
1245 0 69.1727 12.8519 889 63.9618 1044.58 535.382
1246 0 72.1329 13.8494 999 62.6016 1045.12 534.239
1247 0 74.1035 13.3597 990 63.9101 1044.55 531.848
1248 0 75.0616 12.3898 930 67.2634 1044.38 532.566
1249 0 79.1634 13.2005 1045 66.4278 1045.16 530.645
1250 0 81.3754 14.0092 1140 65.1614 1045.78 529.675
1251 0 81.2269 12.7544 1036 67.9237 1045.71 528.553
1252 1 44.2318 11.2589 498 67.6004 1045.17 547.323
1253 0 45.238 11.2958 511 67.8767 1045.15 546.515
1254 0 47.1856 12.4614 588 67.2551 1045.65 545.532
1255 0 49.067 13.0026 638 67.6458 1045.74 541.561
1256 0 51.1167 12.7943 654 67.3976 1046.25 543.42
1257 0 52.0888 13.1122 683 68.0878 1046.54 542.41
1258 0 53.195 13.0839 696 68.2744 1047.12 542.01
1259 0 55.1382 13.0581 720 68.4861 1046.86 541.075
1260 0 56.1665 13.3176 748 68.1912 1047.15 539.922
1261 0 59.16 12.7958 757 68.2708 1047.28 539.734
1262 0 62.2505 13.5581 844 66.4017 1047.25 538.316
1263 0 63.134 14.097 890 66.2573 1047.44 536.643
1264 0 66.1147 13.7942 912 66.2237 1047.45 535.102
1265 0 69.132 13.1343 908 66.7577 1047.16 536.283
1266 0 69.1424 13.8989 961 65.9958 1047.54 533.574
1267 0 72.1684 13.5794 980 66.3224 1048.06 531.837
1268 0 74.1532 14.3352 1063 65.4873 1048.13 531.083
1269 0 75.0731 13.5734 1019 67.2277 1048.04 530.057
1270 0 81.2286 13.9975 1137 65.438 1048 529.02
1271 0 82.1989 13.735 1129 66.7564 1048.51 525.822
1272 0 84.1262 13.4679 1133 67.2877 1048.53 524.547
1273 0 88.1349 13.7289 1210 67.1595 1048.45 523.049
1274 0 93.2756 14.9771 1397 64.6206 1048.98 521.349
1275 1 49.0616 11.5773 568 69.2359 1048.88 542.294
1276 0 52.1109 11.9169 621 67.4911 1049.25 541.807
1277 0 54.1135 13.1021 709 66.8251 1049.58 539.054
1278 0 56.153 13.1427 738 66.7182 1051.02 539.558
1279 0 56.1072 13.296 746 67.2212 1050.98 539.257
1280 0 58.2507 13.6822 797 67.0025 1050.66 538.376
1281 0 62.2208 13.2753 826 67.5666 1050.55 536.512
1282 0 63.2254 13.27 839 67.3373 1051.3 534.828
1283 0 64.2983 13.2974 855 67.4316 1050.87 533.901
1284 0 68.1653 13.5553 924 66.9978 1050.85 532.306
1285 0 69.2555 13.7895 955 66.7885 1050.72 532.448
1286 0 71.1712 14.2192 1012 66.3666 1050.72 529.461
1287 0 74.313 13.497 1003 67.4556 1050.76 528.794
1288 0 78.2582 13.8644 1085 66.3917 1050.96 528.635
1289 0 81.1943 13.7571 1117 66.675 1050.96 527.204
1290 0 81.5558 13.4632 1098 67.9244 1051.27 525.034
1291 1 42.1478 11.0326 465 67.9742 1051.25 545.37
1292 0 44.1046 11.8582 523 68.8623 1051.05 543.235
1293 0 44.1608 12.1148 535 68.8093 1051.26 543.196
1294 0 45.2332 12.5793 569 67.5097 1051.8 542.035
1295 0 47.0783 13.3182 627 67.1356 1051.21 540.518
1296 0 49.2273 12.3509 608 68.4523 1050.67 540.013
1297 0 51.1344 13.0049 665 67.4271 1050.45 539.833
1298 0 53.0446 13.253 703 66.3883 1050.3 540.009
1299 0 53.293 13.5665 723 65.7178 1050.68 538.722
1300 0 56.2254 13.2325 744 65.5618 1050.46 538.566
1301 0 57.1743 13.1528 752 65.3763 1049.92 538.751
1302 0 59.3241 13.6538 810 64.4148 1049.9 536.27
1303 0 61.1222 13.3503 816 64.8971 1050.14 534.391
1304 0 63.2493 13.7393 869 63.4545 1050.67 533.223
1305 0 63.2737 13.655 864 63.8924 1050.37 532.557
1306 0 66.4117 13.6121 904 63.2345 1050 531.834
1307 0 68.1916 13.5941 927 63.7282 1050.82 530.695
1308 0 70.1133 13.25 929 63.9645 1049.92 530.815
1309 0 73.2207 13.8486 1014 62.6746 1050.31 529.242
1310 0 75.2308 13.4253 1010 63.3554 1049.7 527.837
1311 0 78.3697 13.2577 1039 63.6622 1050.17 526.176
1312 0 79.3837 13.5544 1076 64.0604 1050.01 526.368
1313 1 44.29 11.4473 507 63.1696 1049.79 543.623
1314 0 44.1581 11.9797 529 63.3535 1049.54 543.276
1315 0 45.3187 12.7541 578 63.2561 1049.08 541.431
1316 0 49.2857 11.829 583 63.4751 1048.97 537.533
1317 0 49.0993 12.9941 638 63.4389 1048.41 542.839
1318 0 50.1731 12.2177 613 64.6998 1048.38 542.507
1319 0 51.1285 12.9282 661 64.1664 1048.44 541.638
1320 0 54.244 13.1627 714 63.3992 1047.88 540.832
1321 0 55.2628 12.9744 717 65.166 1048.23 539.088
1322 0 58.1238 12.9895 755 64.147 1047.87 539.253
1323 0 58.1249 13.6086 791 64.0733 1047.59 538.121
1324 0 59.1951 12.7038 752 64.7434 1047.69 536.915
1325 0 65.1939 14.0351 915 61.812 1047.28 535.98
1326 0 67.3358 13.5886 915 62.1104 1047.48 535.736
1327 0 67.3911 13.1471 886 63.7404 1047.05 533.53
1328 0 69.32 12.839 890 63.3876 1047.1 533.081
1329 0 72.301 13.5268 978 62.1329 1047.23 531.17
1330 0 74.4955 13.1417 979 63.0501 1046.89 529.48
1331 0 76.3483 13.3336 1018 62.0855 1046.7 530.257
1332 0 81.2649 13.7821 1120 61.2411 1046.68 526.694
1333 0 83.2459 13.382 1114 60.9345 1046.18 524.999
1334 0 83.2655 13.0666 1088 63.6553 1046.46 526.114
1335 1 45.0457 12.6094 568 63.0722 1046.46 545.285
1336 0 46.1395 12.0938 558 62.4194 1046.2 544.955
1337 0 48.1026 11.7873 567 62.7549 1046.55 543.914
1338 0 48.143 13.4599 648 60.946 1046.46 543.934
1339 0 49.1415 12.6573 622 62.1865 1046.32 542.129
1340 0 52.1343 13.0241 679 60.8763 1047 541.878
1341 0 51.1905 12.3265 631 62.3962 1047.55 541.433
1342 0 56.1538 13.3918 752 59.4255 1047.8 541.501
1343 0 56.1994 12.8471 722 60.7812 1047.25 539.744
1344 0 59.1308 13.3433 789 59.488 1047.25 538.022
1345 0 60.1683 12.9636 780 60.6359 1047.38 536.64
1346 0 62.216 12.8263 798 61.0276 1047.32 537.227
1347 0 65.2482 13.5483 884 59.5509 1046.63 535.428
1348 0 65.1777 13.3635 871 60.7979 1046.33 535.123
1349 0 67.2013 12.9462 870 61.9793 1046.4 532.697
1350 0 71.1591 12.0013 854 62.9169 1046.02 533.605
1351 0 72.3358 12.995 940 62.2915 1045.67 532.485
1352 0 75.2132 12.4978 940 63.7436 1045.28 531.029
1353 0 76.3042 12.5943 961 64.3985 1045.43 527.405
1354 0 80.3035 12.9384 1039 63.6449 1045.01 528.422
1355 1 41.2366 10.9611 452 64.3916 1044.38 547.657
1356 0 42.1664 10.672 450 65.9356 1044.41 546.893
1357 0 44.2653 10.7985 478 66.3452 1044.25 546.609
1358 0 47.1208 11.2052 528 65.2557 1044.28 547.572
1359 0 48.1292 12.0924 582 64.7869 1044.51 546.469
1360 0 48.1129 12.055 580 66.6259 1044.42 545.181
1361 0 48.0793 11.8554 570 68.3895 1044.74 544.195
1362 0 50.1133 12.4119 622 67.2363 1044.39 543.617
1363 0 51.0922 12.7808 653 67.1639 1044.27 543.406
1364 0 51.1543 12.2179 625 69.168 1044.49 542.429
1365 0 56.0528 13.4516 754 66.057 1044.27 541.451
1366 0 58.0522 13.1433 763 66.6107 1043.82 539.676
1367 0 58.1664 12.1032 704 69.0469 1044.46 541.169
1368 0 59.0839 12.5415 741 68.7031 1044.45 541.599
1369 0 62.1687 13.2382 823 67.644 1044.71 539.064
1370 0 63.1021 13.3434 842 68.2981 1044.56 537.529
1371 0 66.1509 13.5901 899 67.2425 1043.89 538.763
1372 0 66.1892 12.3434 817 70.6157 1044.36 536.665
1373 0 69.0834 13.5778 938 67.8667 1044.7 535.552
1374 0 71.0854 13.2939 945 68.6508 1044.23 534.962
1375 0 72.1746 12.9824 937 69.5293 1044.52 535.49
1376 0 76.1613 13.5108 1029 68.0787 1044.61 533.017
1377 0 76.1705 12.7215 969 69.8359 1044.72 532.134
1378 0 80.1456 13.5379 1085 68.7641 1044.85 531.033
1379 1 42.0131 10.6871 449 70.5523 1043.9 549.755
1380 0 44.0486 11.0787 488 69.1844 1044.63 547.891
1381 0 47.0793 11.6187 547 66.6088 1045.11 548.214
1382 0 48.0383 11.8447 569 64.9051 1044.35 547.383
1383 0 48.076 12.3138 592 65.6672 1044.27 546.179
1384 0 48.2341 11.7966 569 69.9086 1044.7 545.246
1385 0 50.1474 12.4234 623 68.703 1044.85 544.194
1386 0 53.1528 12.7745 679 67.8969 1045.19 543.81
1387 0 53.0907 12.7894 679 68.5096 1045.39 542.558
1388 0 57.1156 14.0417 802 64.8978 1044.96 542.233
1389 0 57.1067 12.8706 735 66.8245 1045.17 541.259
1390 0 59.0632 13.3755 790 66.4937 1044.76 539.78
1391 0 59.0958 12.8943 762 68.4633 1044.74 540.657
1392 0 63.1501 13.27 838 66.7267 1045.28 539.101
1393 0 64.1398 13.4394 862 67.0998 1045.17 537.966
1394 0 65.1425 13.0176 848 68.0189 1045.08 536.658
1395 0 68.1019 13.612 927 66.7141 1045.1 535.7
1396 0 70.2793 14.0013 984 66.0803 1045.63 534.547
1397 0 71.1176 13.8222 983 66.5148 1045.02 532.859
1398 0 74.2776 13.7188 1019 66.0618 1045.17 530.623
1399 0 76.4403 14.2333 1088 65.5211 1045.89 530.237
1400 0 79.2225 13.9859 1108 65.4603 1045.48 527.534
1401 0 82.2573 14.0048 1152 65.3359 1046.24 527.209
1402 1 45.2567 12.1087 548 65.8504 1045.76 544.923
1403 0 46.0859 12.2163 563 65.579 1046.51 544.584
1404 0 47.2249 11.2017 529 66.1096 1047.53 545.913
1405 0 47.0601 12.4309 585 66.3419 1046.59 543.781
1406 0 49.0987 13.2997 653 64.2205 1047.31 542.051
1407 0 51.1336 13.1029 670 63.609 1048.27 541.297
1408 0 53.0588 12.9102 685 63.546 1048.48 539.777
1409 0 54.0448 13.2853 718 63.3844 1048.77 538.996
1410 0 55.1146 13.9527 769 63.0858 1048.99 538.445
1411 0 57.1747 13.52 773 63.5912 1049.4 535.88
1412 0 59.0606 13.6301 805 62.4596 1049.3 536.466
1413 0 60.1166 13.4738 810 63.4123 1049.77 535.289
1414 0 63.0595 13.5903 857 62.0035 1049.37 535.698
1415 0 65.1158 13.7447 895 61.4983 1049.21 535.013
1416 0 68.0931 14.2305 969 60.7276 1049.57 533.564
1417 0 69.1653 13.1858 912 62.7061 1049.74 531.497
1418 0 71.0714 14.9146 1060 60.1528 1049.55 530.606
1419 0 73.191 14.2231 1041 60.9164 1049.39 528.949
1420 0 74.1655 14.0901 1045 61.2775 1049.49 528.035
1421 0 79.0968 14.4001 1139 60.324 1049.37 527.56
1422 0 80.2924 14.4347 1159 60.2873 1049.57 526.019
1423 0 82.2096 14.0616 1156 60.7716 1049.26 524.365
1424 0 85.0952 14.9245 1270 59.8071 1048.99 523.062
1425 0 91.1258 14.9903 1366 58.5944 1049.16 522.684
1426 1 46.1172 11.6659 538 62.1357 1049 541.335
1427 0 47.0184 12.0378 566 61.7986 1048.28 540.518
1428 0 48.0624 12.2757 590 60.9339 1048.27 540.925
1429 0 50.0967 12.2164 612 60.7892 1048.46 539.688
1430 0 54.1624 11.9271 646 60.6935 1048.35 538.938
1431 0 56.1063 12.7793 717 59.9596 1048.42 536.697
1432 0 56.0449 13.6855 767 59.7692 1048.16 535.171
1433 0 59.0722 14.0167 828 58.8756 1048.49 535.508
1434 0 60.1175 13.7231 825 60.2703 1048.59 535.116
1435 0 63.1661 14.1215 892 60.5045 1048.85 534.103
1436 0 64.1323 13.5501 869 61.4914 1048.36 533.49
1437 0 65.1417 12.4344 810 63.9358 1048.16 532.573
1438 0 65.1417 12.3884 807 179.929 1048.15 532.574
1439 0 71.3412 14.2975 1020 61.5353 1048.27 530.978
1440 0 72.2073 14.3199 1034 61.4052 1047.81 528.74
1441 0 75.1809 14.1924 1067 61.0797 1047.52 527.002
1442 0 79.1617 13.1377 1040 62.1615 1047.84 527.976
1443 0 78.2163 13.5777 1062 61.9783 1048.33 527.368
1444 0 84.09 14.7937 1244 59.5603 1047.62 524.961
1445 0 86.1524 13.8824 1196 61.2124 1047.12 521.978
1446 0 88.3405 13.0857 1156 61.8529 1047.3 521.307
1447 0 91.2176 13.1992 1204 61.2724 1047.05 520.642
1448 1 47.1225 9.7618 460 61.2326 1047.42 544.078
1449 0 49.3652 10.6755 527 61.241 1047.24 541.545
1450 0 50.1768 11.7784 591 59.22 1047.05 541.311
1451 0 50.0731 12.342 618 59.6214 1047.14 538.608
1452 0 52.1802 11.4986 600 59.805 1047.25 539.245
1453 0 56.3086 12.2362 689 58.6531 1046.87 538.75
1454 0 56.2874 12.3651 696 58.6092 1047.67 537.286
1455 0 56.2874 12.3296 694 149.071 1048.67 537.287
1456 0 60.2872 11.3789 686 58.9504 1046.43 536.646
1457 0 62.4323 11.8208 738 58.9431 1046.46 534.919
1458 0 66.3715 12.3848 822 58.1046 1046.3 532.173
1459 0 68.4048 12.3237 843 57.8754 1046.62 532.898
1460 0 68.1526 12.0612 822 58.9526 1046.49 532.709
1461 0 72.2965 12.1998 882 58.4739 1046.15 530.88
1462 0 74.1973 12.4263 922 58.218 1045.8 529.884
1463 0 78.2536 12.7278 996 57.489 1046.11 527.829
1464 0 80.3173 11.7907 947 58.9662 1045.49 525.904
1465 0 83.3207 12.2179 1018 58.1778 1045.18 524.763
1466 0 87.2543 12.1369 1059 58.2814 1045.5 523.102
1467 1 47.1487 9.05644 427 58.452 1045.41 546.115
1468 0 47.0817 10.2375 482 58.8589 1045.24 544.241
1469 0 49.1553 10.9856 540 58.0204 1045.14 543.396
1470 0 50.1623 11.9014 597 57.5059 1045.27 542.519
1471 0 55.1405 12.1145 668 56.6901 1045.03 541.927
1472 0 53.1379 11.9877 637 56.9984 1044.93 540.688
1473 0 56.0738 12.2161 685 56.8292 1045.12 539.854
1474 0 56.1292 12.3643 694 57.4366 1045.09 539.659
1475 0 60.0711 13.4341 807 55.1846 1044.75 538.853
1476 0 61.1753 12.7175 778 56.6941 1044.26 537.819
1477 0 64.1223 13.3183 854 56.356 1044.17 537.409
1478 0 67.1054 13.1435 882 56.3073 1043.95 537.294
1479 0 68.1037 13.2886 905 56.7945 1044.28 535.929
1480 0 69.1002 12.0405 832 58.2584 1044.26 535.802
1481 0 74.1462 13.851 1027 56.147 1044.93 532.554
1482 0 75.1004 12.5698 944 58.3697 1044.23 533.139
1483 0 78.1843 13.2379 1035 57.9478 1045.05 531.155
1484 0 82.1606 13.7292 1128 57.4025 1045.12 530.398
1485 1 41.1184 10.2874 423 60.5603 1044.35 548.969
1486 0 43.1501 9.47854 409 61.11 1044.14 549.401
1487 0 44.0678 11.3235 499 59.3467 1044.29 547.637
1488 0 46.1171 11.1455 514 59.4008 1044.78 548.805
1489 0 46.0752 11.5246 531 58.855 1044 547.309
1490 0 48.0283 12.4718 599 58.3255 1044.01 546.13
1491 0 50.246 12.2995 618 59.7087 1044.89 545.288
1492 0 50.1728 11.859 595 60.3697 1044.92 545.045
1493 0 52.1426 12.4658 650 59.2646 1045.49 545.06
1494 0 53.1803 13.05 694 58.9553 1045.55 543.016
1495 0 56.1217 12.9718 728 58.5371 1045.51 542.396
1496 0 57.1757 13.2924 760 58.8776 1045.74 540.483
1497 0 59.168 12.9631 767 59.7432 1045.85 540.502
1498 0 59.1437 13.1375 777 60.8636 1045.9 540.394
1499 0 63.1297 12.8466 811 62.185 1045.87 538.428
1500 0 65.2216 13.4311 876 60.8447 1046.03 537.707
1501 0 66.2395 12.5303 830 62.9843 1045.94 537.445
1502 0 68.2119 12.7544 870 62.2609 1045.98 535.561
1503 0 70.1538 12.3871 869 62.1162 1046.37 534.803
1504 0 73.2674 12.7478 934 62 1046.24 532.809
1505 1 39.0575 11.1374 435 62.5494 1044.96 549.124
1506 0 40.0438 11.3126 453 62.6049 1045.65 549.499
1507 0 42.0691 10.6492 448 63.75 1046.23 548.404
1508 0 42.0691 10.6254 447 163.982 1046.24 548.378
1509 0 45.0469 11.1439 502 63.4422 1046.72 546.12
1510 0 47.1523 12.2369 577 59.6984 1048.26 544.841
1511 0 45.1287 11.722 529 62.2042 1048.19 547.132
1512 0 49.0934 12.3642 607 60.7068 1048.26 545.549
1513 0 49.2679 12.7061 626 61.1406 1048.63 544.137
1514 0 50.1782 12.1567 610 62.3803 1049.1 543.449
1515 0 53.1024 12.5983 669 61.5725 1049.03 542.115
1516 0 54.1428 12.3008 666 62.1306 1049.18 541.554
1517 0 56.1099 13.5627 761 60.1564 1049.61 539.13
1518 0 59.0499 13.3616 789 60.1432 1050.18 536.335
1519 0 61.1632 15.4178 943 56.7052 1050.41 534.319
1520 0 67.201 17.2021 1156 52.5424 1051.09 531.739
1521 0 66.0828 14.6937 971 58.0525 1050.66 534.266
1522 0 70.1022 15.3062 1073 56.1715 1050.99 531.445
1523 0 66.2379 13.6327 903 61.1672 1050.94 533.373
1524 0 69.1206 13.5994 940 61.1074 1051.61 532.23
1525 0 69.2089 13.6543 945 61.6286 1051.58 531.348
1526 0 71.2518 13.2628 945 62.2169 1051.65 530.229
1527 0 75.1399 14.1869 1066 60.2448 1051.21 530.249
1528 0 77.2594 13.6165 1052 60.9002 1051.51 529.837
1529 0 79.1616 13.8072 1093 61.108 1051.3 526.602
1530 0 82.3029 13.3653 1100 62.0155 1050.64 525.176
1531 0 86.1836 13.274 1144 61.8899 1050.64 526.115
1532 0 90.3077 13.8083 1247 60.769 1050.21 524.031
1533 0 90.139 13.0243 1174 63.333 1049.72 521.664
1534 0 94.2403 14.4312 1360 60.6934 1050.77 520.49
1535 0 96.1899 13.5253 1301 62.608 1049.77 517.294
1536 1 48.1076 11.7445 565 63.4743 1050.18 542.869
1537 0 50.3214 12.3407 621 62.0918 1050.44 541.924
1538 0 51.1269 12.5179 640 62.9047 1049.91 541.967
1539 0 51.215 11.6763 598 65.4331 1049.93 535.681
1540 0 54.1332 12.8756 697 63.3242 1049.7 524.298
1541 0 57.303 12.5124 717 63.152 1049.67 527.622
1542 0 57.2269 12.6164 722 63.6842 1049.56 527.763
1543 0 60.2806 12.4584 751 62.2956 1049.22 533.18
1544 0 60.3183 12.8485 775 63.2503 1049.28 536.628
1545 0 61.2579 12.7167 779 63.6162 1049.42 536.444
1546 0 64.3651 12.3514 795 63.7245 1049.04 533.557
1547 0 65.307 12.6326 825 63.0352 1049 533.245
1548 0 70.2629 12.3678 869 62.7503 1048.95 532.112
1549 0 71.2478 13.2355 943 62.3913 1048.62 529.896
1550 0 73.6883 13.2043 973 61.6752 1048.26 528.535
1551 0 75.3336 13.0088 980 61.9561 1048.38 528.15
1552 0 79.6028 12.9769 1033 61.3146 1048.36 526.687
1553 0 82.2539 12.7046 1045 61.5541 1047.54 525.652
1554 0 84.3253 13.0922 1104 61.2518 1047.36 522.562
1555 0 87.4576 12.9091 1129 61.2259 1047.15 523.924
1556 0 89.4144 12.2464 1095 62.5909 1047.07 521.171
1557 0 91.2269 12.869 1174 61.9497 1046.92 521.209
1558 0 96.2806 12.8375 1236 61.4814 1046.37 520.771
1559 0 99.2835 12.6305 1254 61.87 1046.76 518.979
1560 0 99.3907 12.9791 1290 62.3217 1046.98 514.989
1561 0 103.303 13.1265 1356 61.4853 1046.77 515.147
1562 0 108.257 13.4772 1459 60.5593 1046.32 510.637
1563 0 111.282 12.9761 1444 61.108 1046.37 510.98
1564 0 114.333 13.0583 1493 60.7709 1046.8 508.648
1565 0 116.36 12.8308 1493 61.5486 1046.04 504.816
1566 0 122.432 13.5422 1658 60.0688 1045.93 503.656
1567 0 125.278 12.9472 1622 60.8113 1045.71 501.041
1568 1 68.1849 12.1875 831 59.3935 1045.87 532.011
1569 0 71.2678 12.3057 877 59.236 1046.06 531.303
1570 0 72.1709 11.9993 866 59.9515 1046.37 530.321
1571 0 75.2854 12.8312 966 59.0859 1045.98 529.252
1572 0 78.3697 12.2624 961 58.8543 1046 529.402
1573 0 80.2032 13.2788 1065 57.6789 1046.18 527.22
1574 0 85.1576 12.8233 1092 57.7363 1046.55 525.31
1575 0 87.1012 13.1341 1144 57.6206 1046.06 523.702
1576 0 88.2171 12.4239 1096 58.4425 1045.89 523.647
1577 0 91.3149 12.2433 1118 58.9016 1045.84 520.699
1578 0 95.3592 12.972 1237 57.7114 1046.02 516.798
1579 0 98.3724 13.3269 1311 57.386 1045.82 515.211
1580 1 53.202 11.0898 590 58.3203 1045.75 538.712
1581 0 55.1839 10.7459 593 57.9174 1046.3 537.236
1582 0 58.3125 11.9014 694 57.1974 1045.61 535.692
1583 0 60.1724 12.0155 723 57.6058 1046.14 535.802
1584 0 61.1491 12.5595 768 57.2279 1045.27 535.458
1585 0 64.1115 12.6654 812 58.0998 1044.67 537.192
1586 0 67.179 12.0424 809 58.3115 1044.76 536.247
1587 0 68.1477 13.8816 946 55.9101 1045.26 531.459
1588 0 72.1281 13.5315 976 55.6014 1045.93 530.648
1589 0 73.1181 13.6218 996 56.2671 1045.8 528.662
1590 0 77.2443 14.2017 1097 54.9088 1045.89 529.253
1591 0 76.187 13.4537 1025 56.959 1046 526.758
1592 0 81.2876 14.0366 1141 56.3146 1046.47 524.632
1593 0 82.2008 13.9415 1146 57.2836 1045.91 523.577
1594 0 84.2925 13.4532 1134 57.8069 1045.92 523.034
1595 0 88.3043 14.1216 1247 56.4379 1046.06 521.082
1596 0 91.2712 12.8409 1172 57.8729 1046.09 519.526
1597 1 48.0753 10.0467 483 58.9441 1046.91 541.747
1598 0 49.0803 11.2265 551 58.0327 1046.93 540.851
1599 0 49.1374 10.5012 516 57.7829 1046.78 541.455
1600 0 50.0477 10.53 527 58.0968 1047.19 540.556
1601 0 57.0681 12.8793 735 55.4898 1045.96 540.181
1602 0 57.0965 12.33 704 56.875 1046.5 540.67
1603 0 57.1412 12.8104 732 57.0041 1046.43 539.926
1604 0 60.105 12.9773 780 56.6667 1046.73 539
1605 0 63.1464 13.1282 829 55.8287 1046.85 538.472
1606 0 64.0938 13.1994 846 56.0272 1047.07 535.488
1607 0 66.0516 12.5054 826 57.086 1045.66 535.223
1608 0 68.0724 12.7805 870 56.6115 1045.73 533.997
1609 0 69.0955 13.3004 919 56.3362 1046.36 532.396
1610 0 73.0719 13.0146 951 56.3807 1046.4 530.802
1611 0 73.1256 13.6341 997 56.3992 1046.99 528.574
1612 0 76.0755 12.3036 936 58.1068 1046.62 529.005
1613 0 79.067 12.0025 949 58.3941 1047.98 526.593
1614 0 85.3081 13.5392 1155 56.4762 1048.24 524.926
1615 0 84.0959 13.2111 1111 57.5293 1048.23 522.822
1616 0 88.0926 12.9863 1144 57.9388 1048.66 521.903
1617 0 92.0625 13.48 1241 57.8751 1048.27 519.201
1618 0 94.1767 13.1774 1241 58.6076 1048.89 518.17
1619 1 50.0753 10.8037 541 59.1349 1048.46 539.144
1620 0 49.0474 9.868 484 60.2314 1048.96 541.469
1621 0 51.036 11.3645 580 59.2017 1049.52 539.271
1622 0 54.0754 11.8168 639 59.0626 1049.99 538.089
1623 0 57.1561 12.0547 689 58.4049 1050.72 537.306
1624 0 57.131 12.1475 694 58.7536 1050.52 536.144
1625 0 59.0995 12.9612 766 57.8734 1050.51 535.345
1626 0 63.1403 13.7155 866 56.1801 1050.5 534.739
1627 0 63.1783 13.5964 859 57.56 1050.98 531.136
1628 0 63.1968 12.7696 807 59.0235 1051.16 530.822
1629 0 65.1276 13.1741 858 58.7576 1051.61 532.111
1630 0 68.0773 13.7785 938 58.3539 1051.13 530.061
1631 0 69.0966 13.3581 923 59.0553 1050.95 528.543
1632 0 73.2267 13.4787 987 58.6059 1051.1 527.482
1633 0 74.2337 13.3767 993 59.0886 1051.07 525.934
1634 0 78.2226 13.2698 1038 59.0058 1050.64 525.205
1635 0 79.2694 12.7414 1010 60.4307 1050.72 523.56
1636 0 82.1053 13.4461 1104 59.7754 1050.97 521.962
1637 0 85.1667 13.2564 1129 59.8193 1051.19 521.019
1638 0 89.1492 12.9895 1158 60.1459 1051.13 520.163
1639 0 92.1405 13.6748 1260 59.9849 1051.17 517.635
1640 0 93.159 13.5253 1260 60.573 1050.85 516.632
1641 1 48.0371 10.3878 499 62.1523 1050.74 539.585
1642 0 51.1207 12.089 618 59.6553 1050.37 537.657
1643 0 53.0964 12.3737 657 59.8965 1050.53 536.636
1644 0 53.0512 12.1769 646 60.6656 1050.39 536.065
1645 0 56.1617 12.5886 707 60.2786 1050.91 535.454
1646 0 57.2089 13.0749 748 60.254 1051 534.045
1647 0 58.0869 13.4454 781 60.1216 1051.01 535.006
1648 0 62.1143 13.5718 843 59.3298 1050.88 533.477
1649 0 63.1201 13.5931 858 59.7669 1050.85 532.09
1650 0 64.1072 13.7738 883 59.6546 1050.92 532.121
1651 0 65.1946 12.8232 836 61.128 1050.21 531.173
1652 0 67.0972 14.2331 955 59.0147 1050.64 529.084
1653 0 69.053 13.1638 909 60.2673 1050.03 528.37
1654 0 73.1693 13.3253 975 59.5723 1050.81 527.699
1655 0 73.1292 13.6197 996 59.8082 1050.22 525.649
1656 0 77.2041 13.7557 1062 59.4416 1049.81 524.458
1657 0 77.1073 13.6304 1051 60.0971 1049.63 524.446
1658 0 82.0816 14.3881 1181 58.5512 1050.11 523.248
1659 0 84.2056 13.8471 1166 59.2899 1049.55 521.838
1660 0 87.1842 14.0278 1223 59.7032 1049.37 520.213
1661 0 89.2271 13.9756 1247 60.0489 1049.52 519.722
1662 1 47.0537 11.2212 528 59.9375 1050.41 541.879
1663 0 51.0668 11.5339 589 59.854 1049.87 541.73
1664 0 51.1337 11.7144 599 60.2154 1049.74 539.95
1665 0 51.2561 11.9595 613 60.4192 1048.38 536.84
1666 0 56.3213 12.3932 698 59.2364 1048.3 534.835
1667 0 55.0427 12.6629 697 59.142 1049.03 537.359
1668 0 58.072 12.7772 742 56.9973 1048.56 538.933
1669 0 59.0818 12.4573 736 57.8424 1048.81 536.111
1670 0 60.0735 12.7178 764 58.0537 1048.71 535.495
1671 0 61.1139 12.3376 754 58.3236 1048.9 536.126
1672 0 63.0911 11.5389 728 58.4986 1048.62 535.706
1673 0 67.1484 13.1351 882 56.5057 1048.86 532.203
1674 0 68.1109 12.1126 825 57.7806 1048.48 532.144
1675 0 72.1986 13.4767 973 55.9342 1048.57 529.787
1676 0 74.138 12.5981 934 56.6242 1048.16 529.708
1677 0 76.1957 12.901 983 56.468 1048.66 527.867
1678 0 78.2251 13.0521 1021 56.3702 1048.64 528.019
1679 0 81.0661 13.7912 1118 55.4249 1047.34 527.022
1680 0 84.115 13.1249 1104 56.2627 1047.33 524.737
1681 0 88.1564 13.1017 1155 55.5429 1047.33 524.561
1682 1 46.1004 10.6073 489 56.2045 1047.85 544.436
1683 0 45.0857 10.1806 459 56.3159 1047.43 546.02
1684 0 47.0966 10.6377 501 55.5669 1047.74 543.978
1685 0 49.1023 10.8141 531 55.3239 1046.88 543.237
1686 0 50.0923 11.2991 566 54.6572 1046.61 540.763
1687 0 51.1525 12.0424 616 53.6169 1046.15 540.792
1688 0 53.0911 12.0547 640 53.4797 1046.45 540.259
1689 0 53.1088 11.8248 628 54.0239 1046.08 540.248
1690 0 57.1211 12.7974 731 52.528 1046.05 538.304
1691 0 57.1151 12.7987 731 52.8413 1046.18 537.342
1692 0 56.1549 11.9135 669 54.3004 1046.16 535.731
1693 0 60.1861 11.398 686 53.8542 1045.62 536.413
1694 0 62.1337 11.5718 719 53.8734 1045.47 531.783
1695 0 65.1166 12.6389 823 52.7132 1045.8 533.454
1696 0 68.1404 12.0193 819 52.8535 1045.34 532.49
1697 0 70.0948 12.3832 868 53.1786 1045.16 530.487
1698 0 72.2274 13.2083 954 52.2453 1045.01 530.074
1699 0 73.1412 13.0159 952 52.8393 1044.98 531.065
1700 0 76.0713 13.4873 1026 52.2554 1045.09 528.045
1701 0 78.2504 13.3801 1047 52.5616 1044.7 526.871
1702 0 82.2175 13.294 1093 52.7475 1044.31 526.447
1703 0 82.1818 13.0443 1072 53.8843 1044.56 522.948
1704 0 85.0902 13.2095 1124 54.2215 1044.34 522.416
1705 0 88.1576 12.9427 1141 54.8615 1044.39 522.051
1706 0 91.2475 12.8442 1172 55.0828 1044.21 519.638
1707 1 46.1758 10.7199 495 55.6566 1043.74 542.917
1708 0 48.1533 11.6088 559 55.254 1043.89 539.055
1709 0 52.1323 11.4516 597 55.3903 1043.93 539.188
1710 0 52.1579 11.2926 589 56.2886 1043.86 538.806
1711 0 53.0902 12.5824 668 54.4581 1044.6 539.132
1712 0 57.2783 12.3083 705 53.1901 1044.68 541.186
1713 0 59.1885 12.7727 756 53.1429 1044.75 537.403
1714 0 60.3615 12.3092 743 53.7766 1044.72 534.637
1715 0 62.3879 12.4704 778 53.4563 1045.2 534.185
1716 0 64.322 13.5723 873 52.4318 1045.82 533.666
1717 0 67.5086 12.5466 847 53.0201 1045.88 531.797
1718 0 69.2192 12.1643 842 52.4299 1045.85 533.627
1719 0 70.4154 11.7872 830 53.8253 1045.48 529.305
1720 0 72.3879 12.8336 929 52.7481 1045.8 528.673
1721 0 76.4471 13.4995 1032 51.5853 1045.98 526.325
1722 0 78.1707 13.381 1046 51.9522 1045.91 524.802
1723 1 41.1373 11.0119 453 52.8565 1046.05 543.859
1724 0 42.2277 9.9224 419 52.7852 1046.58 544.699
1725 0 42.2459 10.3915 439 52.9066 1046.97 542.866
1726 0 45.5166 11.732 534 51.1629 1047.34 541.494
1727 0 46.1565 11.8077 545 52.211 1046.47 540.084
1728 0 48.0524 12.4656 599 51.8214 1046.92 540.8
1729 0 50.0654 12.2839 615 51.7203 1047.06 539.839
1730 0 51.0675 12.552 641 50.4368 1048.46 537.07
1731 0 50.1487 11.9644 600 52.88 1047.87 538.187
1732 0 54.0936 12.312 666 51.473 1047.93 537.258
1733 0 55.254 12.2344 676 51.1509 1048.84 536.241
1734 0 56.3154 12.6431 712 51.0801 1048.99 535.601
1735 0 56.2878 12.7381 717 51.7671 1049.24 532.678
1736 0 59.3993 12.7611 758 51.7863 1049.64 533.239
1737 0 61.2174 12.2188 748 53.1858 1049.2 531.329
1738 0 63.2666 13.4826 853 51.3447 1049.87 528.804
1739 0 62.3113 13.0153 811 52.2404 1049.62 528.063
1740 0 69.358 14.1728 983 50.4262 1050.01 527.776
1741 0 66.4738 13.5542 901 52.9545 1050.59 525.397
1742 0 69.3592 14.1582 982 51.7352 1050.45 524.748
1743 0 72.2497 13.8132 998 52.509 1050.47 524.418
1744 0 73.4748 14.2226 1045 52.91 1050.84 523.062
1745 0 76.3141 13.1168 1001 54.9071 1051.12 522.003
1746 0 80.2764 13.74 1103 53.9175 1051.08 519.613
1747 1 43.3648 10.0542 436 54.7248 1052.51 540.378
1748 0 44.2331 10.3542 458 55.9629 1052.75 537.659
1749 0 46.2711 11.0004 509 55.6778 1053.04 537.823
1750 0 46.0807 11.3714 524 56.1756 1053.03 537.382
1751 0 49.0684 11.861 582 56.1237 1052.43 537.527
1752 0 48.2247 12.0478 581 57.7539 1052.99 536.744
1753 0 52.0529 12.9291 673 56.2184 1052.89 537.768
1754 0 52.0911 12.1326 632 58.0506 1052.63 536.753
1755 0 55.1012 12.468 687 57.083 1052.69 535.836
1756 0 56.1289 13.273 745 57.4738 1052.2 535.011
1757 0 58.0339 13.8023 801 56.9238 1051.27 534.888
1758 0 59.1228 13.176 779 58.5558 1051.56 533.517
1759 0 60.0957 13.4286 807 58.8017 1051.78 531.73
1760 0 63.2516 13.0906 828 59.2814 1051.64 532.643
1761 0 67.162 13.9662 938 58.2313 1051.94 530.065
1762 0 67.1719 13.6218 915 59.7486 1051.78 529.377
1763 0 69.1039 13.6027 940 59.5585 1052.88 527.534
1764 0 69.1587 13.4907 933 60.5563 1051.93 527.527
1765 0 72.1547 13.4295 969 60.5779 1051.23 525.669
1766 0 75.2219 14.1581 1065 59.939 1051.6 524.781
1767 0 75.251 13.5812 1022 61.5274 1051.57 523.29
1768 0 79.1945 13.6752 1083 60.8744 1051.5 523.616
1769 0 80.1381 14.1007 1130 61.2655 1051.6 521.642
1770 0 85.1809 13.5124 1151 60.9826 1051.42 521.609
1771 0 88.1098 14.028 1236 60.7484 1051.18 520.827
1772 0 88.2457 13.5417 1195 62.0879 1051.02 518.947
1773 0 90.2183 13.423 1211 63.5359 1050.45 516.491
1774 1 49.0452 11.0918 544 63.2261 1051.5 538.244
1775 0 50.062 11.8054 591 62.5939 1050.5 537.027
1776 0 54.1097 12.2898 665 61.7233 1049.86 536.735
1777 0 55.1576 12.1107 668 62.3278 1049.97 538.04
1778 0 55.1395 13.0759 721 62.8155 1049.73 535.807
1779 0 58.1019 12.9256 751 62.3222 1049.97 536.835
1780 0 62.0356 13.8308 858 60.3427 1049.26 534.992
1781 0 63.103 13.3433 842 61.5202 1048.94 534.601
1782 0 63.0609 13.3839 844 61.7441 1048.86 533.519
1783 0 67.106 13.4861 905 60.7282 1048.68 531.733
1784 0 69.0836 13.0566 902 60.5776 1048.03 532.588
1785 0 73.0634 13.7278 1003 59.1196 1048.27 531.625
1786 0 74.0997 13.2524 982 60.2525 1047.99 529.373
1787 0 76.1008 13.2324 1007 60.2423 1048.05 527.008
1788 0 78.2085 13.0165 1018 61.0707 1047.55 525.265
1789 0 81.2431 13.4042 1089 60.3425 1047.33 525.307
1790 0 86.2417 13.7289 1184 59.141 1047.35 524.096
1791 0 88.1703 13.2584 1169 59.9897 1047.24 521.984
1792 0 92.287 13.4147 1238 59.5792 1047.17 521.293
1793 1 49.1033 9.26618 455 62.178 1046.8 540.624
1794 0 50.0479 10.1503 508 61.2933 1046.5 540.587
1795 0 51.0546 11.9284 609 59.9195 1046.49 540.322
1796 0 53.1462 12.1175 644 59.2811 1046.56 539.113
1797 0 58.0346 12.975 753 57.9031 1046.59 538.151
1798 0 58.098 13.6149 791 57.5221 1047.22 536.735
1799 0 59.1648 12.93 765 58.9412 1047.35 536.392
1800 0 61.0755 13.1313 802 57.7357 1047.31 538.53
1801 0 64.0593 13.0192 834 58.4089 1047.26 534.489
1802 0 66.1493 13.2579 877 57.5188 1047.09 534.497
1803 0 67.0846 12.3128 826 58.0981 1047.28 534.875
1804 0 69.0847 12.3472 853 58.095 1047.23 531.435
1805 0 73.148 13.7119 1003 56.1326 1047.43 530.977
1806 0 75.2269 13.9179 1047 55.6972 1046.88 528.37
1807 0 77.2719 12.6696 979 56.9336 1047.09 527.364
1808 0 78.2043 12.9405 1012 56.3251 1047.08 526.516
1809 0 82.2143 12.9175 1062 55.8089 1047.59 526.8
1810 0 84.1421 12.8354 1080 56.0796 1047.23 523.647
1811 0 87.179 13.4321 1171 55.1375 1047.17 523.471
1812 0 92.272 14.3164 1321 53.701 1046.9 521.544
1813 1 51.1145 10.3298 528 54.892 1047.35 541.009
1814 0 53.1526 11.1754 594 53.8215 1047.01 541.229
1815 0 52.1709 10.3123 538 54.5967 1047.62 540.372
1816 0 56.0526 10.7042 600 53.7733 1047.72 539.233
1817 0 57.0722 11.1263 635 53.315 1047.17 537.34
1818 0 58.064 11.5907 673 52.9287 1047.37 535.89
1819 0 61.2015 11.9115 729 52.6872 1047.18 537.181
1820 0 61.0918 11.229 686 54.086 1047.36 535.625
1821 0 64.0877 12.1396 778 53.0758 1047.41 533.4
1822 0 68.0799 12.2062 831 52.3598 1047.72 533.018
1823 0 70.202 12.3786 869 52.42 1047.67 532.419
1824 0 72.1244 11.91 859 53.2643 1047.08 530.371
1825 0 75.1543 12.9068 970 52.1536 1047.52 529.194
1826 0 76.2924 12.5963 961 52.6785 1047.23 528.316
1827 0 79.139 12.0168 951 53.1872 1047.71 526.457
1828 0 82.2176 13.0021 1069 52.5257 1048.38 525.418
1829 0 83.214 12.2455 1019 53.7821 1048.47 524.001
1830 0 86.2259 11.7598 1014 54.0069 1048.8 523.211
1831 1 48.0637 10.1948 490 52.8551 1048.3 542.935
1832 0 48.022 10.7451 516 52.5562 1048.2 543.165
1833 0 50.1705 11.5805 581 52.6145 1048.94 540.064
1834 0 53.2426 11.2504 599 52.7479 1049.72 540.503
1835 0 54.0728 11.0592 598 53.6622 1050.09 538.94
1836 0 55.1161 12.138 669 53.0419 1048.72 538.891
1837 0 57.0997 11.7339 670 53.9119 1048.84 537.673
1838 0 59.1358 12.8856 762 52.5157 1049.38 536.976
1839 0 60.1449 11.8547 713 54.1178 1049.58 534.083
1840 0 62.0899 12.0632 749 54.0227 1049.63 533.599
1841 0 64.1042 12.1365 778 53.7725 1049.87 532.383
1842 0 66.1508 12.2599 811 53.4673 1050.48 530.986
1843 0 70.1311 12.3055 863 53.5771 1050.56 530.243
1844 0 71.2814 12.4717 889 53.1957 1050.53 530.647
1845 0 73.1233 12.7456 932 53.9024 1050.84 528.047
1846 0 77.279 13.5224 1045 52.6689 1051.29 527.89
1847 0 78.3346 13.0594 1023 53.0665 1051.24 526.767
1848 0 81.2427 12.715 1033 53.8877 1051.44 525.096
1849 0 84.2664 13.1962 1112 53.2608 1051.85 523.662
1850 0 88.29 13.3197 1176 53.0816 1052.18 520.816
1851 0 90.2254 13.4109 1210 53.0769 1051.96 519.731
1852 0 94.3193 14.0586 1326 52.0671 1052.06 519.452
1853 0 98.3973 13.5878 1337 52.1301 1052.26 518.73
1854 1 54.1265 10.2907 557 53.1167 1052.6 537.804
1855 0 59.3519 11.2212 666 51.506 1051.4 534.306
1856 0 60.2524 11.485 692 51.3165 1050.87 532.303
1857 0 60.2664 11.8806 716 51.8254 1051.28 529.064
1858 0 64.4193 12.1703 784 49.4043 1052.55 528.67
1859 0 72.137 14.5002 1046 45.8566 1052.68 523.062
1860 0 74.3435 15.4284 1147 45.0009 1052.86 523.619
1861 0 74.1915 16.6731 1237 44.08 1052.79 519.597
1862 0 76.0982 15.9531 1214 45.3871 1052.41 521.224
1863 0 76.2825 15.9539 1217 45.9334 1052.24 521.118
1864 0 75.1168 13.8451 1040 49.4962 1051.88 521.812
1865 0 77.1559 14.6327 1129 48.8813 1051.43 519.825
1866 0 82.1816 15.3319 1260 47.7278 1051.42 519.37
1867 0 81.2104 12.8678 1045 51.3301 1051.07 518.792
1868 0 83.2058 13.1481 1094 51.4744 1050.74 519.909
1869 0 87.2595 14.8064 1292 49.5302 1050.71 516.325
1870 0 90.2075 14.4334 1302 50.0046 1050.95 515.664
1871 0 93.189 14.433 1345 49.3584 1050.38 512.48
1872 0 95.1694 13.6283 1297 50.4418 1049.98 513.441
1873 0 97.212 14.1238 1373 50.2178 1050.32 512.495
1874 1 53.1299 10.5214 559 50.6619 1050.13 534.977
1875 0 53.1936 10.9412 582 50.1838 1050.28 535.54
1876 0 56.1786 11.5346 648 49.9923 1049.69 532.819
1877 0 59.2358 12.3912 734 48.1172 1049.57 534.456
1878 0 60.2335 12.4515 750 48.7413 1050.4 531.888
1879 0 60.0428 12.5244 752 48.8271 1050.89 531.719
1880 0 62.0213 12.528 777 48.8777 1050.65 531.398
1881 0 65.1096 12.1487 791 48.5866 1050.33 530.426
1882 0 69.0353 13.6887 945 46.9608 1050.22 530.14
1883 0 68.0595 12.6213 859 48.6042 1050.01 530.678
1884 0 68.1327 12.6811 864 49.2824 1049.23 527.846
1885 0 71.2093 12.4984 890 49.6719 1049.27 527.506
1886 0 73.2241 12.728 932 49.4174 1048.85 524.387
1887 0 77.1354 13.8458 1068 48.397 1049.12 525.532
1888 0 77.1486 13.312 1027 49.3836 1048.69 525.597
1889 0 80.2958 13.5374 1087 49.4729 1048.39 526.376
1890 0 82.3262 14.1753 1167 49.2211 1048.41 522.95
1891 0 89.4457 14.8135 1325 47.8226 1048.55 523.594
1892 0 91.5874 13.4625 1233 49.3617 1048.35 523.269
1893 0 92.395 13.5397 1251 49.5076 1048.07 521.044
1894 1 50.3575 10.2467 516 50.4826 1046.62 542.258
1895 0 51.4881 10.7403 553 51.3165 1046.78 537.986
1896 0 50.4346 11.0837 559 51.5564 1046.95 539.458
1897 0 53.27 12.1457 647 50.7249 1047.72 539
1898 0 56.2327 12.9995 731 50.0547 1046.63 537.912
1899 0 56.1708 12.6222 709 51.1001 1046.85 538.138
1900 0 59.107 13.9577 825 49.8206 1046.04 537.75
1901 0 59.0866 13.201 780 50.7218 1045.79 538.653
1902 0 62.2033 13.6327 848 50.4587 1045.68 535.816
1903 0 63.1055 13.0417 823 51.5784 1045.15 536.537
1904 0 64.1261 12.9433 830 51.8217 1046.19 536.442
1905 0 69.1947 13.3536 924 51.29 1045.67 534.897
1906 0 67.2352 12.4191 835 53.2311 1045.68 530.97
1907 0 72.1848 13.8256 998 51.2545 1045.46 532.214
1908 0 73.1054 13.6926 1001 51.8691 1045.42 532.045
1909 0 76.1779 13.3635 1018 52.4224 1045.01 530.907
1910 0 78.1998 12.7238 995 53.5899 1044.94 529.056
1911 0 81.1543 14.1089 1145 52.6035 1045.09 528.387
1912 0 83.2463 13.37 1113 53.8473 1045.1 526.644
1913 0 86.2538 13.5994 1173 53.7059 1045.39 525.471
1914 0 90.2139 14.0777 1270 53.2614 1045.32 525.72
1915 1 49.1275 10.1165 497 55.3602 1044.99 544.887
1916 0 49.1275 10.89 535 55.3981 1044.96 543.507
1917 0 51.1163 12.0314 615 54.7431 1044.98 543.78
1918 0 52.1361 11.3549 592 55.0456 1045.07 543.059
1919 0 54.0629 12.282 664 54.6325 1044.81 541.587
1920 0 55.235 12.1843 673 56.1842 1047.38 540.747
1921 0 58.2153 12.7458 742 55.5445 1046.43 540.968
1922 0 59.1601 12.8127 758 55.9142 1046.06 540.26
1923 0 61.138 12.2837 751 56.4687 1045.72 539.105
1924 0 62.1033 13.3004 826 55.9177 1045.66 538.849
1925 0 63.0671 13.002 820 57.1976 1044.97 536.263
1926 0 66.1659 13.8742 918 55.3115 1044.55 535.194
1927 0 67.0725 11.7485 788 57.5114 1045.01 536.51
1928 0 70.1152 13.2924 932 56.0569 1045.31 533.965
1929 0 73.0877 12.8065 936 57.1987 1044.79 533.21
1930 0 73.0624 12.4004 906 58.1082 1045.37 533.563
1931 0 78.2922 13.5135 1058 56.9253 1045.55 529.556
1932 0 80.0755 12.4383 996 58.7239 1045.58 529.759
1933 0 83.2627 12.5026 1041 58.8252 1045.25 528.868
1934 1 45.1491 11.6281 525 57.0571 1045.82 548.775
1935 0 47.1175 11.8003 556 58.6007 1045.58 545.176
1936 0 50.1292 12.2284 613 57.8352 1045.64 545.176
1937 0 51.2063 12.0688 618 58.4579 1044.96 545.469
1938 0 51.1658 12.782 654 58.7737 1045.14 542.488
1939 0 51.1057 12.0534 616 60.9416 1045.57 542.102
1940 0 53.1089 12.7097 675 59.7215 1045.73 542.921
1941 0 56.086 13.6932 768 58.9453 1045.74 541.44
1942 0 59.0794 12.7286 752 59.9109 1045.68 540.376
1943 0 59.1721 13.1312 777 60.2278 1045.99 539.048
1944 0 60.1341 13.104 788 61.1066 1045.97 537.071
1945 0 61.0896 12.539 766 60.2924 1046.01 538.634
1946 0 62.0729 12.872 799 60.5657 1046.37 535.511
1947 0 69.0956 13.5899 939 58.722 1046.05 536.38
1948 0 68.1828 13.3905 913 60.0559 1046.47 533.529
1949 0 72.1783 12.954 935 60.1968 1046.15 532.301
1950 0 73.1641 13.5176 989 60.4732 1046.64 528.435
1951 0 76.1518 13.8539 1055 59.5801 1046.62 528.064
1952 0 78.0435 14.1716 1106 59.8391 1046.56 527.594
1953 0 82.1457 14.316 1176 59.983 1047.7 526.211
1954 0 85.0612 13.5902 1156 60.7881 1047.99 525.699
1955 0 88.1074 13.8013 1216 60.6168 1048.13 525.077
1956 0 91.0957 13.7218 1250 60.5528 1047.86 522.981
1957 1 50.0159 10.2567 513 62.8363 1048.04 544.033
1958 0 52.2307 11.162 583 61.6449 1048.76 539.909
1959 0 54.0743 10.6335 575 63.2365 1048.51 540.762
1960 0 54.1105 11.2547 609 63.0821 1048.71 539.872
1961 0 58.215 13.0894 762 60.3714 1048.43 537.588
1962 0 57.0901 12.5416 716 62.007 1047.88 537.344
1963 0 58.0809 12.7581 741 61.9406 1048.58 536.282
1964 0 61.058 12.742 778 61.8303 1048.53 534.654
1965 0 63.1078 13.4532 849 60.8504 1048.8 535.357
1966 0 65.171 12.8431 837 61.5806 1049.05 533.443
1967 0 68.113 13.2721 904 60.6449 1048.99 533.546
1968 0 70.1354 12.8323 900 61.3067 1049.72 530.576
1969 0 73.1059 14.1165 1032 59.2248 1049.83 530.508
1970 0 74.1146 13.3982 993 61.2306 1050.1 526.818
1971 0 77.1641 14.4109 1112 59.7095 1050.13 527.594
1972 0 78.1241 13.325 1041 61.9011 1050.34 525.57
1973 0 80.1862 13.8303 1109 61.6898 1050.33 523.466
1974 0 81.1179 13.2523 1075 62.0465 1050.63 523.386
1975 0 85.1499 13.6348 1161 61.3738 1050.98 522.576
1976 0 87.1236 12.9586 1129 62.5102 1050.87 520.516
1977 0 89.097 13.8501 1234 61.3266 1051.26 519.155
1978 0 92.257 13.9068 1283 61.2681 1051.62 518.504
1979 0 96.2149 13.5842 1307 61.9021 1051.3 515.415
1980 0 98.2073 12.9929 1276 62.8331 1052.08 516.433
1981 0 102.346 13.8158 1414 62.0085 1051.43 512.421
1982 0 107.272 14.0018 1502 61.5666 1051.64 511.305
1983 0 107.206 14.5701 1562 61.37 1051.76 506.896
1984 0 111.424 14.189 1581 62.0455 1051.71 504.713
1985 0 114.389 14.9315 1708 61.12 1051.55 502.191
1986 1 63.1284 10.9776 693 62.6176 1051.67 529.632
1987 0 61.1521 11.3651 695 62.4835 1051.64 529.105
1988 0 66.1113 12.1916 806 61.1787 1051.44 529.331
1989 0 69.1853 12.098 837 61.2342 1051.19 527.865
1990 0 71.1964 12.936 921 59.9685 1051.21 527.304
1991 0 74.1658 13.8743 1029 59.4091 1051.45 526.397
1992 0 77.1469 13.1438 1014 59.7436 1051.64 525.814
1993 0 77.2401 12.7654 986 60.7637 1051.33 523.626
1994 0 81.2467 13.3175 1082 59.6312 1051.25 523.365
1995 0 85.1771 13.5952 1158 59.7297 1050.87 521.633
1996 0 87.2331 13.504 1178 59.674 1050.79 520.628
1997 0 91.1631 14.3479 1308 58.448 1050.46 518.058
1998 0 91.1387 12.1134 1104 61.5317 1050.44 516.706
1999 0 97.1807 13.264 1289 59.4996 1050.46 516.254
2000 0 97.1834 13.562 1318 59.717 1050.68 514.356
2001 0 100.172 13.946 1397 59.1954 1050.32 513.162
2002 0 106.124 14.2475 1512 58.4147 1050.02 510.432
2003 0 110.119 14.0121 1543 57.897 1049.43 511.548
2004 0 113.116 14.1536 1601 58.2055 1049.43 507.639
2005 1 61.1076 10.3751 634 59.265 1049.59 535.809
2006 0 61.0967 11.0644 676 59.8417 1049.86 532.07
2007 0 64.1823 11.9971 770 58.1091 1049.94 532.094
2008 0 65.2551 11.2788 736 58.7269 1049.95 529.701
2009 0 69.1868 11.5485 799 56.9111 1050.11 530.375
2010 0 70.0859 12.6274 885 56.4927 1050.07 527.199
2011 0 72.1353 12.0052 866 56.6201 1050.24 526.503
2012 0 74.1592 12.1091 898 56.7684 1050.13 526.131
2013 0 76.1399 12.2669 934 56.6617 1049.86 524.918
2014 0 79.1061 12.7424 1008 56.4504 1049.46 523.192
2015 0 80.0874 12.3365 988 57.1549 1049.13 522.705
2016 0 82.1628 11.9275 980 57.6745 1049.2 520.333
2017 0 87.2816 12.9122 1127 56.551 1048.95 518.117
2018 0 91.2168 13.6159 1242 55.4187 1049.37 518.925
2019 0 94.1826 12.6563 1192 56.3423 1048.91 516.873
2020 0 96.3851 13.0518 1258 55.9674 1049.05 515.263
2021 1 53.1684 10.7207 570 55.6211 1048.95 537.719
2022 0 54.1437 10.3428 560 56.4571 1048.89 537.632
2023 0 55.1875 10.5821 584 56.4795 1049.22 536.127
2024 0 56.1848 11.6402 654 55.3242 1049.67 534.191
2025 0 59.1235 12.2794 726 53.8567 1049.5 533.656
2026 0 61.1259 12.5806 769 52.9844 1048.98 534.77
2027 0 63.1466 12.273 775 53.7394 1048.54 531.523
2028 0 64.0979 12.9957 833 52.7251 1048.4 530.803
2029 0 67.0578 11.9598 802 53.5112 1046.94 532.429
2030 0 69.1155 12.3127 851 53.2045 1047.72 529.633
2031 0 73.172 13.5708 993 51.5629 1048.74 528.405
2032 0 74.1571 13.6602 1013 52.1925 1048.25 528.239
2033 0 75.1769 12.2511 921 54.3008 1047.77 528.004
2034 0 77.1693 12.4272 959 53.7633 1047.34 525.741
2035 0 81.1108 13.611 1104 52.8469 1047.08 527.293
2036 0 81.2111 12.683 1030 53.9738 1047.43 525.327
2037 0 84.1976 12.4232 1046 54.4646 1047.27 521.948
2038 0 88.2673 12.6887 1120 53.7643 1047.75 521.062
2039 0 91.2852 13.288 1213 53.3479 1047.6 517.335
2040 0 93.5914 12.7683 1195 54.0895 1047.5 518.691
2041 1 49.2029 10.3246 508 54.4193 1048.32 539.26
2042 0 51.3075 10.6807 548 53.6697 1048.34 540.456
2043 0 54.3057 12.0982 657 52.4323 1047.11 538.326
2044 0 53.2189 10.8796 579 54.0276 1046.64 538.615
2045 0 56.0347 12.3317 691 52.9175 1045.82 539.075
2046 0 57.1528 13.0177 744 52.9247 1047.17 538.513
2047 0 59.1448 12.7991 757 53.568 1047.77 537.012
2048 0 61.1314 13.0538 798 53.0952 1047.57 536.759
2049 0 61.1256 12.777 781 54.3431 1047.51 535.882
2050 0 64.1448 13.033 836 53.9617 1047.9 534.26
2051 0 67.1467 13.5971 913 52.7174 1046.71 534.916
2052 0 67.083 12.1044 812 55.1059 1047.2 532.893
2053 0 70.1497 14.1982 996 52.5653 1047.04 532.763
2054 0 71.2766 12.7391 908 56.25 1046.88 531.829
2055 0 74.1504 13.4187 995 55.4693 1046.58 530.921
2056 0 75.1774 13.3285 1002 56.514 1046.35 527.815
2057 0 78.2723 13.7597 1077 56.2971 1045.99 528.136
2058 0 83.2063 13.5446 1127 56.173 1045.99 525.98
2059 0 84.2719 13.3615 1126 56.7629 1046.37 524.579
2060 0 84.3829 13.261 1119 57.605 1046.36 525.381
2061 0 89.5127 13.7969 1235 56.9636 1046.61 523.586
2062 0 90.4296 13.6239 1232 57.5966 1046.84 520.861
2063 0 96.5996 13.8924 1342 56.9627 1046.47 521.659
2064 0 98.3256 12.8349 1262 58.7805 1046.42 517.515
2065 1 52.3284 11.5234 603 58.2769 1046.56 539.308
2066 0 55.1878 10.5277 581 59.7074 1046.32 539.587
2067 0 58.1499 12.1582 707 57.5375 1046.99 538.792
2068 0 61.1656 12.131 742 57.3005 1046.35 539.567
2069 0 61.2213 12.218 748 58.4826 1046.99 538.32
2070 0 62.2338 13.0636 813 58.0861 1046.75 536.936
2071 0 63.274 12.8331 812 58.8904 1047.47 535.834
2072 0 66.1591 13.5733 898 58.216 1047.45 535.913
2073 0 69.3343 14.1921 984 57.8191 1047.34 533.03
2074 0 70.371 12.9315 910 59.5275 1047.53 533.437
2075 0 71.3743 12.6516 903 60.5449 1047.37 531.52
2076 0 74.3812 13.9686 1039 58.7834 1047.23 531.075
2077 0 73.3154 13.3123 976 60.8371 1047.1 526.869
2078 0 76.4147 13.1519 1005 60.6468 1047.08 526.802
2079 0 80.4776 13.8299 1113 59.4681 1046.84 525.937
2080 0 81.3247 13.0834 1064 60.7679 1047.44 525.245
2081 0 85.2859 13.0268 1111 60.7795 1047.94 524.311
2082 0 87.1678 13.7207 1196 60.4749 1048.15 521.844
2083 0 92.3338 13.7544 1270 59.7976 1048.42 521.682
2084 0 93.2001 12.7897 1192 61.7483 1048.67 518.623
2085 1 53.1532 11.8902 632 60.2073 1048.47 539.508
2086 0 55.0795 11.0204 607 60.8287 1049.07 539.219
2087 0 56.2116 11.4923 646 61.1285 1049 538.853
2088 0 56.1824 11.5339 648 61.1744 1049.05 537.721
2089 0 59.1009 11.9626 707 61.1075 1049.04 536.414
2090 0 60.3006 12.2718 740 60.6473 1049.32 536.108
2091 0 63.2024 13.1008 828 59.9638 1049.56 533.408
2092 0 63.1134 12.7231 803 61.2976 1049.69 532.837
2093 0 64.1361 12.9568 831 61.2936 1049.74 531.404
2094 0 66.1594 13.2105 874 61.04 1049.89 530.128
2095 0 69.2983 12.9873 900 61.5722 1050.09 528.134
2096 0 72.2606 13.6035 983 60.412 1049.88 527.932
2097 0 73.3088 13.6546 1001 61.1199 1049.9 527.593
2098 0 77.3563 13.8967 1075 60.5079 1049.99 525.055
2099 0 78.2229 14.0112 1096 61.1597 1049.93 524.663
2100 0 82.3254 14.3091 1178 60.7003 1049.85 523.595
2101 0 85.2193 14.1869 1209 60.9123 1050.2 521.917
2102 0 87.2999 13.1157 1145 62.8873 1050.4 521.159
2103 1 43.0386 9.87486 425 64.2 1049.99 541.376
2104 0 49.0373 11.2567 552 62.2228 1050.36 540.536
2105 0 48.0307 11.7008 562 62.9359 1050.57 539.516
2106 0 50.1871 12.7722 641 62.1264 1051.81 538.417
2107 0 52.1399 12.735 664 62.3163 1051.36 539.024
2108 0 53.2043 12.7433 678 63.0841 1051.29 538.383
2109 0 55.1158 12.7731 704 64.0043 1051.34 537.254
2110 0 55.059 13.8578 763 62.768 1051.44 535.893
2111 0 57.1239 13.462 769 63.5488 1051.44 536.694
2112 0 58.1122 13.0954 761 64.6741 1051.68 534.038
2113 0 61.1949 13.1874 807 64.0161 1052.18 535.575
2114 0 62.2449 13.3505 831 64.1865 1051.54 532.594
2115 0 62.1284 13.5687 843 64.2657 1051.57 532.767
2116 0 65.1005 13.6712 890 63.4124 1051.58 531.184
2117 0 68.0765 13.8374 942 62.7909 1051.43 529.769
2118 0 70.1582 13.6834 960 62.4677 1051.36 528.078
2119 0 72.0695 13.5009 973 62.7657 1051.08 528.663
2120 0 74.0869 12.8903 955 63.6073 1050.76 525.777
2121 0 78.114 13.89 1085 61.5161 1050.73 524.012
2122 0 80.0868 14.2096 1138 60.7153 1050.48 524.122
2123 1 43.0043 11.0222 474 62.5506 1049.31 541.511
2124 0 43.052 11.4048 491 61.6721 1049.15 542.102
2125 0 46.0641 10.811 498 61.5161 1049.17 542.572
2126 0 47.0732 11.8964 560 61.0232 1048.92 539.663
2127 0 46.064 12.678 584 60.5223 1048.56 539.224
2128 0 49.1064 11.8926 584 60.3442 1049.72 539.726
2129 0 51.0803 12.8621 657 58.9117 1049.75 538.571
2130 0 52.0702 13.0785 681 58.6446 1049.77 538.307
2131 0 54.1176 13.0641 707 58.4512 1049.57 538.027
2132 0 55.1224 12.8441 708 59.0819 1049.4 537.4
2133 0 58.0754 12.9142 750 58.5547 1048.89 537.312
2134 0 59.0852 12.7274 752 58.867 1049 536.293
2135 0 61.1162 13.1062 801 58.8951 1049.26 534.277
2136 0 63.1978 13.4182 848 57.6014 1048.82 534.831
2137 0 64.0783 13.0153 834 58.5024 1048.4 533.68
2138 0 64.0558 12.2393 784 59.8393 1048.59 533.814
2139 0 67.1125 12.5014 839 59.5197 1047.85 531.451
2140 0 68.086 13.1158 893 59.1545 1047.72 530.054
2141 0 73.1228 13.6209 996 57.8404 1047.46 531.892
2142 0 71.1402 13.1712 937 59.9146 1047.45 530.07
2143 0 73.165 13.4627 985 59.9543 1047.32 527.63
2144 0 78.1232 13.9011 1086 58.5967 1047.86 528.583
2145 0 79.1808 13.7407 1088 59.2059 1047.4 527.884
2146 0 81.0752 14.209 1152 58.7986 1047.38 524.396
2147 0 83.188 14.1487 1177 59.181 1047.26 523.45
2148 0 88.2263 13.2954 1173 59.8568 1048.03 523.398
2149 0 91.248 13.5017 1232 59.8547 1047.54 523.66
2150 0 91.3297 13.391 1223 60.9362 1047.44 522.321
2151 0 96.2195 13.9473 1342 60.5879 1047.34 520.38
2152 1 52.0425 10.5106 547 62.9086 1047.35 540.974
2153 0 56.0432 11.6696 654 61.1575 1047.42 540.456
2154 0 57.0866 11.3862 650 61.5431 1047.58 540.82
2155 0 58.2188 11.7144 682 61.6921 1047.08 540.672
2156 0 60.0898 12.8142 770 60.1104 1047.13 539.314
2157 0 61.1483 13.0666 799 60.3116 1047.17 537.168
2158 0 64.0231 13.3077 852 59.831 1048.09 535.209
2159 0 66.111 12.9328 855 60.0924 1047.53 534.632
2160 0 68.0828 12.9695 883 60.1393 1047.45 533.635
2161 0 72.1077 13.8127 996 58.244 1047.44 531.069
2162 0 75.1356 13.469 1012 58.5296 1047.43 531.686
2163 0 73.0937 12.7234 930 60.2957 1047.11 529.735
2164 0 79.1246 12.929 1023 59.48 1047.68 527.577
2165 0 79.2432 13.3513 1058 59.5491 1047.04 526.163
2166 0 83.2301 13.4687 1121 58.8564 1046.63 527.404
2167 0 86.3279 13.0085 1123 59.8192 1046.95 524.289
2168 0 88.2379 13.0896 1155 59.8528 1046.27 523.187
2169 0 92.2303 13.4446 1240 59.6685 1045.8 520.643
2170 0 94.2154 12.7368 1200 60.5158 1045.96 518.317
2171 1 50.0942 11.7578 589 59.0017 1046.35 541.706
2172 0 54.092 10.02 542 61.0683 1046.19 539.784
2173 0 54.1318 11.4535 620 59.9258 1045.81 540.302
2174 0 56.1034 12.174 683 59.2592 1046.5 539.01
2175 0 59.1487 11.936 706 59.4632 1045.82 537.365
2176 0 60.1445 13.0519 785 58.3885 1046.29 535.279
2177 0 60.0668 11.5039 691 61.4067 1046.13 535.682
2178 0 62.1406 12.3269 766 60.094 1045.6 535.428
2179 0 66.2279 12.5778 833 59.0732 1046.5 534.951
2180 0 66.2571 11.7723 780 60.6949 1046.38 533.629
2181 0 70.175 12.6826 890 59.2371 1046.62 530.962
2182 0 72.1418 12.1428 876 59.9612 1046.56 530.623
2183 0 74.2514 12.4442 924 59.882 1046.43 530.154
2184 0 76.1585 12.8416 978 58.8446 1046.52 529.667
2185 0 78.1638 12.5378 980 59.5867 1046.7 526.351
2186 0 83.197 13.1495 1094 58.2541 1046.9 526.622
2187 1 45.0889 10.4904 473 59.3784 1047.59 543.063
2188 0 47.1503 10.053 474 59.3354 1047.93 542.46
2189 0 48.098 10.9776 528 59.1269 1048.25 540.938
2190 0 49.1506 10.1525 499 59.6373 1048.25 539.357
2191 0 51.1652 11.0817 567 58.5467 1047.87 539.591
2192 0 53.0552 12.1383 644 57.8463 1048.36 538.62
2193 0 54.1102 12.3452 668 58.0868 1048.3 537.597
2194 0 57.086 11.9819 684 57.9035 1048.92 537.463
2195 0 58.1075 13.0104 756 57.504 1048.42 535.217
2196 0 62.2542 13.1397 818 56.2078 1048.55 534.441
2197 0 62.0761 13.0968 813 56.2128 1049.28 532.477
2198 0 63.1487 11.9876 757 58.0687 1048.9 530.758
2199 0 64.2108 12.1942 783 58.1213 1049.1 530.594
2200 0 69.1293 12.831 887 56.6573 1049.36 529.957
2201 0 69.2039 13.0918 906 56.7163 1049.21 527.966
2202 0 72.1649 12.4853 901 57.505 1049.48 526.347
2203 0 75.1087 13.3407 1002 56.4441 1050.02 524.565
2204 0 78.1208 13.3127 1040 57.0115 1049.99 525.313
2205 0 79.1534 12.1915 965 58.6249 1050.39 521.319
2206 0 82.2196 12.5518 1032 57.9806 1050.69 520.695
2207 0 83.3313 12.9243 1077 57.974 1051.04 517.598
2208 1 46.3405 9.27913 430 59.4186 1051.37 538.842
2209 0 48.1902 9.89827 477 59.6625 1051.51 536.562
2210 0 50.1811 11.04 554 58.0181 1051.75 536.451
2211 0 51.2352 11.4765 588 58.0255 1051.46 536.713
2212 0 51.1515 11.593 593 58.8921 1051.73 533.204
2213 0 56.153 11.5577 649 58.131 1051.71 535.339
2214 0 58.2293 12.7427 742 57.0741 1051.5 533.47
2215 0 59.1852 12.2497 725 58.5297 1051.85 533.582
2216 0 60.1794 12.3796 745 59.0779 1051.95 531.635
2217 0 61.1751 11.4426 700 60.2514 1052.07 532.866
2218 0 63.2803 11.1883 708 59.9873 1052.1 531.72
2219 0 67.1814 13.1137 881 57.79 1051.98 530.944
2220 0 67.2403 12.9089 868 58.2615 1052.13 527.409
2221 0 68.1457 12.7081 866 59.3152 1051.39 527.596
2222 0 71.3419 12.1387 866 60.0058 1052.03 526.484
2223 0 74.2869 12.3844 920 59.888 1051.78 525.3
2224 0 76.3822 12.084 923 60.3001 1052.04 526.153
2225 0 78.3119 12.3353 966 60.5569 1051.85 522.637
2226 0 82.4643 13.1208 1082 59.6904 1051.46 523.066
2227 0 83.4811 12.6616 1057 60.5203 1051.71 521.131
2228 0 85.377 13.3057 1136 60.6901 1051.49 520.434
2229 0 89.4847 13.5219 1210 61.6752 1051.55 517.319
2230 0 90.4466 13.0795 1183 62.8656 1051.3 514.921
2231 0 92.2043 12.7868 1179 63.6472 1051.21 516.629
2232 0 97.3506 13.6517 1329 62.3958 1051.5 514.376
2233 0 99.3977 13.3705 1329 63.0068 1051.04 512.038
2234 0 105.417 13.7548 1450 61.9483 1051.27 509.206
2235 0 108.516 13.6293 1479 62.7126 1050.89 507.272
2236 1 59.3328 9.75852 579 63.9344 1050.76 534.237
2237 0 62.2132 11.991 746 62.2373 1050.57 532.67
2238 0 62.2238 11.8443 737 62.6662 1051.16 532.412
2239 0 66.2003 13.3836 886 60.5632 1050.88 531.615
2240 0 67.2715 12.3678 832 62.2909 1050.87 530.083
2241 0 70.3529 12.7074 894 62.0895 1050.65 528.101
2242 0 71.3045 11.8506 845 63.3609 1050.42 526.115
2243 0 75.3741 12.9885 979 61.8212 1050.03 526.177
2244 0 76.3872 12.9472 989 62.2315 1051.4 523.501
2245 0 80.3766 12.9391 1040 62.1346 1051.05 522.161
2246 0 83.4635 13.3471 1114 61.4614 1050.51 521.808
2247 0 84.2585 13.0788 1102 62.2895 1050.4 519.787
2248 0 88.4238 13.1073 1159 62.4797 1050.47 519.249
2249 0 91.5319 12.7169 1164 63.1899 1050.46 517.78
2250 0 91.4615 13.0875 1197 63.2891 1050.21 514.677
2251 0 95.6772 13.5246 1294 62.6291 1049.87 515.838
2252 0 100.471 13.6358 1370 62.3927 1049.72 514.038
2253 0 101.209 12.7163 1287 64.5159 1049.78 511.753
2254 1 58.1696 10.7444 625 62.7376 1049.52 536.005
2255 0 58.1696 10.7272 624 167.378 1049.53 535.99
2256 0 62.3204 11.8741 740 63.2459 1048.99 534.624
2257 0 63.2541 12.3154 779 62.6239 1049.26 533.182
2258 0 65.2467 12.675 827 62.8537 1049.52 532.173
2259 0 68.195 11.3645 775 64.7742 1048.9 533.684
2260 0 70.2428 11.6453 818 65.3936 1048.99 532.244
2261 0 70.2769 12.3085 865 64.8497 1048.76 531.157
2262 0 74.1784 13.2788 985 63.7381 1048.89 530.47
2263 0 75.1933 13.1794 991 64.0242 1048.61 527.081
2264 0 76.1767 13.0617 995 64.7688 1049.31 528.068
2265 0 80.2378 12.8867 1034 65.0145 1049.53 524.84
2266 0 81.2699 13.2767 1079 65.4217 1049.07 524.272
2267 0 85.1982 12.6411 1077 65.9229 1049.01 524.292
2268 0 86.2569 13.0424 1125 66.1707 1049.36 521.898
2269 0 88.3682 13.3532 1180 66.0246 1048.76 521.157
2270 0 92.2632 13.5482 1250 65.5328 1048.93 521.109
2271 1 51.1157 10.1339 518 66.7375 1048.39 540.983
2272 0 53.0847 11.4911 610 64.7967 1048.18 539.521
2273 0 54.0875 11.6293 629 64.655 1048.32 539.413
2274 0 56.0804 11.6618 654 64.7125 1048.44 538.038
2275 0 58.0657 11.7625 683 64.2064 1048.49 537.84
2276 0 56.1522 12.5908 707 64.1825 1048.91 537.38
2277 0 60.1655 11.8174 711 64.3657 1048.83 537.761
2278 0 61.0903 12.1787 744 64.4812 1048.54 536.081
2279 0 64.1144 12.852 824 63.1238 1048.51 534.722
2280 0 65.2137 13.2027 861 63.2973 1047.92 532.891
2281 0 66.0982 12.8597 850 63.8671 1048.18 533.614
2282 0 67.0912 12.7886 858 63.9883 1047.63 532.744
2283 0 69.1233 12.6007 871 64.5706 1047.66 533.504
2284 0 71.0879 13.6451 970 63.1825 1047.88 530.137
2285 0 72.1344 12.8787 929 65.0732 1047.27 530.515
2286 0 75.0985 12.8764 967 64.9235 1047.54 530.794
2287 0 78.1441 13.5647 1060 64.1717 1047.46 529.379
2288 0 80.1888 13.5805 1089 65.0523 1047.09 527.872
2289 0 82.0606 13.8312 1135 64.7736 1046.92 525.004
2290 0 84.1065 13.2808 1117 65.7833 1046.81 524.235
2291 0 89.1958 14.115 1259 64.7498 1046.9 523.95
2292 1 44.0311 10.5607 465 66.4903 1046.37 545.206
2293 0 46.0869 11.5868 534 65.073 1045.93 545.272
2294 0 47.1054 11.0815 522 66.7931 1046.24 543.948
2295 0 51.0767 11.7666 601 66.1314 1046.56 542.173
2296 0 52.0253 12.6861 660 64.8894 1046.33 541.174
2297 0 52.0572 12.4286 647 65.2457 1046.52 540.114
2298 0 55.1222 12.4269 685 64.6978 1046.85 540.645
2299 0 56.1244 12.6326 709 65.5261 1047 539.732
2300 0 59.1149 12.7548 754 64.8156 1046.76 539.534
2301 0 58.1519 13.1208 763 64.962 1046.73 537.756
2302 0 59.1088 12.2655 725 66.1559 1046.44 539.128
2303 0 62.1294 13.5363 841 64.1296 1046.34 537.518
2304 0 64.1318 12.9421 830 64.9651 1046.57 536.031
2305 0 65.1295 13.0509 850 65.4882 1046.46 535.638
2306 0 67.0935 13.3247 894 64.9396 1046.98 532.77
2307 0 69.0769 12.5367 866 66.1282 1046.86 532.949
2308 0 71.1339 13.6363 970 64.4753 1046.85 532.663
2309 0 73.0617 13.1943 964 64.7811 1046.92 530.552
2310 0 76.0787 13.5255 1029 64.0068 1047.1 529.599
2311 0 77.0612 11.6531 898 67.2216 1047.31 529.324
2312 0 79.0662 13.7227 1085 64.5355 1047.56 525.793
2313 0 82.0883 11.6947 960 66.5708 1047.59 526.056
2314 0 88.0844 12.5789 1108 64.9458 1047.64 523.095
2315 0 89.08 12.5168 1115 65.461 1047.7 522.623
2316 0 92.0687 13.0881 1205 64.6913 1047.47 520.838
2317 1 50.0971 11.6574 584 66.0805 1047.54 540.848
2318 0 55.0329 12.229 673 65.1085 1047.61 540.84
2319 0 55.1117 12.4656 687 65.6827 1047.39 537.932
2320 0 58.1611 13.2047 768 64.0391 1048.07 538.669
2321 0 58.138 12.5391 729 65.8121 1048.16 536.015
2322 0 59.1067 11.5554 683 67.4158 1048.45 535.796
2323 0 60.0913 12.9137 776 66.1005 1048.6 534.961
2324 0 62.1579 13.16 818 66.1357 1048.69 532.559
2325 0 64.1272 13.6759 877 65.0855 1049.06 532.217
2326 0 68.1914 13.3448 910 64.7176 1049.28 531.06
2327 0 68.1074 12.495 851 66.4054 1048.98 530.68
2328 0 72.1282 13.5453 977 63.8291 1049.17 529.351
2329 0 73.13 12.8265 938 65.742 1049.5 526.123
2330 0 77.1424 13.339 1029 64.6579 1049.59 525.326
2331 0 79.1293 12.8903 1020 65.5882 1049.66 524.769
2332 0 80.0942 13.0346 1044 65.6398 1049.87 523.983
2333 0 85.124 13.6154 1159 64.736 1050.16 520.977
2334 1 48.0382 10.5957 509 66.8507 1049.85 538.941
2335 0 50.0958 10.3202 517 66.2708 1049.72 539.044
2336 0 52.0799 11.636 606 64.071 1049.92 538.432
2337 0 53.2108 11.4638 610 64.3984 1050.42 537.457
2338 0 56.1037 11.5322 647 64.1716 1050.31 537.042
2339 0 58.037 12.9056 749 63.6275 1049.97 534.29
2340 0 57.0687 12.4762 712 64.7753 1050.18 533.258
2341 0 59.06 12.936 764 64.4175 1050.48 532.508
2342 0 62.0724 12.5338 778 64.5347 1050.92 531.743
2343 0 63.1339 12.2121 771 64.7198 1051.17 531.567
2344 0 64.0775 12.875 825 64.5418 1051.22 528.707
2345 0 69.1781 12.2871 850 64.4882 1051.16 528.171
2346 0 69.1925 13.0506 903 63.9568 1051.36 527.946
2347 0 73.1441 12.783 935 63.8225 1051.95 527.437
2348 0 75.1688 12.6116 948 64.6213 1051.8 525.354
2349 0 77.2193 13.4422 1038 63.5385 1051.59 524.073
2350 0 79.3184 12.7209 1009 64.9078 1051.61 522.69
2351 0 82.3501 13.2119 1088 63.9017 1051.55 522.728
2352 0 84.5468 12.3364 1043 65.7277 1052.22 519.276
2353 1 44.2217 9.9951 442 64.405 1051.87 541.199
2354 0 46.21 10.3441 478 64.5669 1051.64 538.098
2355 0 46.2572 11.0469 511 65.319 1051.53 539.583
2356 0 49.0848 11.5922 569 64.0896 1051.48 538.376
2357 0 48.1809 11.353 547 64.6563 1051.93 538.322
2358 0 51.0877 11.8619 606 64.8812 1051.28 537.091
2359 0 51.108 11.6224 594 64.8923 1050.19 537.732
2360 0 52.1619 12.212 637 65.7253 1050.72 535.587
2361 0 54.0688 13.5938 735 64.2109 1050.73 535.758
2362 0 57.0385 12.4653 711 65.1153 1050.69 534.371
2363 0 58.0421 12.2842 713 64.8331 1051.01 533.714
2364 0 58.2419 12.5511 731 65.2326 1050.4 531.982
2365 0 59.1403 12.3266 729 65.4609 1050.26 532.005
2366 0 62.1338 13.2778 825 64.2994 1050.36 529.652
2367 0 63.1837 12.8672 813 64.8991 1050.39 531.428
2368 0 67.3485 13.4673 907 63.5458 1050.11 529.899
2369 0 66.2412 12.3337 817 66.3133 1050.77 527.153
2370 0 70.2325 13.5692 953 64.128 1050.32 527.165
2371 0 72.3191 13.5787 982 64.055 1050.66 523.949
2372 0 75.1768 12.6369 950 65.1589 1050.08 524.775
2373 0 76.3193 12.6705 967 65.2399 1049.85 524.082
2374 0 79.2717 12.8798 1021 64.855 1049.81 520.141
2375 0 83.4634 13.443 1122 63.9029 1049.77 520.061
2376 0 87.433 12.4896 1092 63.9038 1049.86 520.001
2377 0 87.3694 11.6517 1018 66.1719 1049.56 518.357
2378 1 53.225 9.50681 506 65.6443 1049.74 536.996
2379 0 52.1906 9.33117 487 65.8111 1049.9 536.084
2380 0 56.151 11.0416 620 63.0435 1049.72 536.218
2381 0 56.1944 10.8908 612 64.5556 1049.87 533.788
2382 0 61.2045 12.5808 770 58.6065 1049.6 533.765
2383 0 63.2943 11.8178 748 59.5521 1049.36 532.468
2384 0 63.2177 11.9903 758 59.6689 1050.08 533.38
2385 0 65.2543 12.0605 787 59.4422 1049.75 530.794
2386 0 66.2912 11.4042 756 60.7672 1049.88 529.565
2387 0 69.3351 12.6487 877 59.1574 1049.63 530.593
2388 0 71.3029 13.0289 929 59.0883 1049.82 528.374
2389 0 73.426 12.1755 894 59.8121 1049.44 528.642
2390 0 75.2514 13.1825 992 59.0192 1049.38 527.971
2391 0 77.4557 12.717 985 59.6538 1049.51 527.754
2392 0 80.3939 12.5631 1010 59.9297 1049.52 525.009
2393 0 83.4834 13.1763 1100 58.7618 1049 522.971
2394 0 86.4162 12.9721 1121 58.7404 1049.09 522.245
2395 0 87.4838 12.7681 1117 59.6813 1048.62 520.451
2396 0 91.3681 12.6302 1154 59.4341 1048.82 518.97
2397 0 95.4331 12.7419 1216 59.4531 1048.9 517.941
2398 1 53.2029 9.45437 503 59.6382 1048.93 538.714
2399 0 56.1428 11.3639 638 57.8401 1048.53 537.589
2400 0 58.2488 10.9358 637 58.2261 1048.72 537.259
2401 0 61.1913 12.2566 750 57.0893 1048.27 535.799
2402 0 62.1819 11.9971 746 57.1327 1048.33 535.221
2403 0 64.0687 11.0194 706 58.0241 1046.85 536.313
2404 0 64.0584 12.7384 816 57.1936 1046.8 533.517
2405 0 67.1087 11.3547 762 57.9278 1046.71 532.696
2406 0 69.147 12.1191 838 56.8962 1046.29 533.011
2407 0 70.1043 11.5114 807 58.3569 1046.47 529.18
2408 0 74.1606 13.0528 968 56.157 1046.46 530.19
2409 0 79.1986 13.4851 1068 54.7004 1046.99 530.081
2410 0 78.1182 13.1467 1027 56.1947 1046.75 528.37
2411 0 81.1082 11.7867 956 57.7479 1046.34 528.151
2412 0 85.1155 12.1247 1032 56.8789 1047.09 527.579
2413 0 86.1109 12.2749 1057 57.6358 1046.54 523.18
2414 0 88.1325 12.277 1082 57.3207 1046.65 522.292
2415 0 93.1759 12.3959 1155 56.742 1046.84 522.846
2416 0 94.1832 12.5925 1186 56.5987 1046.98 522.353
2417 0 96.3856 12.284 1184 57.0887 1046.5 518.698
2418 0 101.187 13.5985 1376 55.6286 1046.54 516.331
2419 0 103.191 12.5883 1299 56.0839 1046.41 515.152
2420 1 54.0889 9.98356 540 56.0981 1046.77 539.774
2421 0 59.1618 9.6684 572 56.1801 1046.78 537.26
2422 0 61.1573 11.3968 697 54.2095 1046.85 538.174
2423 0 62.0467 11.0884 688 54.7311 1046.65 536.881
2424 0 66.1442 13.7881 912 51.5768 1045.94 534.85
2425 0 67.1128 12.9334 868 52.7143 1045.97 536.046
2426 0 69.0398 12.7608 881 52.9659 1045.72 534.087
2427 0 70.0931 12.3122 863 53.8482 1045.77 532.892
2428 0 72.1241 11.9516 862 54.2088 1046.1 532.162
2429 0 76.0847 14.1421 1076 51.0483 1046.16 531.875
2430 0 78.1393 13.1048 1024 52.5586 1046.06 529.097
2431 0 80.1537 11.9895 961 53.7451 1046.55 529.548
2432 0 82.054 12.1749 999 53.972 1046.37 525.459
2433 0 86.1838 12.5662 1083 52.9243 1046.77 525.463
2434 0 87.1365 13.3354 1162 52.5542 1047.03 523.642
2435 0 93.2201 13.4091 1250 51.5896 1047.57 522.131
2436 0 96.2496 13.7871 1327 51.1394 1047.93 519.541
2437 0 96.1968 12.9942 1250 52.4256 1047.8 519.294
2438 0 99.1255 13.5182 1340 52.1209 1048.07 517.816
2439 0 104.141 14.2788 1487 51.0437 1047.98 515.296
2440 0 105.116 13.547 1424 52.2472 1047.77 516.105
2441 0 108.196 13.6974 1482 52.2335 1048.32 514.962
2442 0 113.214 13.2316 1498 52.8825 1048.03 510.806
2443 1 62.1133 10.2716 638 54.558 1048.04 536.544
2444 0 65.1238 11.9311 777 53.7568 1047.94 533.014
2445 0 69.1778 11.7957 816 53.9044 1047.51 532.694
2446 0 71.1784 12.5881 896 53.2333 1047.6 531.282
2447 0 72.2139 13.82 998 52.8697 1046.89 529.757
2448 0 74.1605 12.6482 938 53.7345 1047.34 528.657
2449 0 77.1217 12.4608 961 54.4194 1048.06 527.018
2450 0 81.1939 13.2522 1076 52.8513 1048.04 524.656
2451 0 82.2488 13.3376 1097 53.2306 1047.88 523.689
2452 0 86.2369 13.3586 1152 53.6589 1047.92 521.525
2453 0 86.1031 12.7754 1100 54.7273 1048.15 521.103
2454 0 90.269 14.0137 1265 52.9494 1048.09 517.91
2455 0 94.117 12.6332 1189 52.8823 1048.23 519.037
2456 0 95.2056 12.8354 1222 52.901 1048.39 517.371
2457 0 98.162 13.1415 1290 52.9535 1048.63 514.873
2458 0 102.184 13.0842 1337 53.0591 1048.84 513.221
2459 0 105.253 13.2253 1392 53.4691 1048.54 511.822
2460 0 108.297 13.4168 1453 53.395 1048.93 510.854
2461 0 111.192 14.2996 1590 52.334 1049.31 510.541
2462 0 114.319 13.6023 1555 53.2778 1049.61 506.677
2463 0 118.18 13.5387 1600 53.5644 1049.59 505.534
2464 1 63.0719 10.9875 693 54.0866 1049.18 533.036
2465 0 66.1373 10.7655 712 53.7823 1049.62 531.712
2466 0 69.1493 12.3935 857 52.7375 1050.79 528.6
2467 0 71.0341 12.5714 893 53.1848 1050.84 528.516
2468 0 71.2183 11.9211 849 53.576 1050.3 526.212
2469 0 75.1782 12.6899 954 52.7379 1050.3 527.491
2470 0 77.0661 12.8591 991 52.8991 1050.25 523.563
2471 0 80.041 13.3806 1071 53.141 1050.39 522.425
2472 0 80.0891 12.6734 1015 54.0433 1050.56 521.154
2473 0 82.2236 13.3052 1094 53.4305 1050.8 518.551
2474 0 87.2151 13.5871 1185 53.1595 1050.79 518.402
2475 0 89.1161 13.2075 1177 53.7816 1051.16 517.647
2476 0 94.1693 13.051 1229 53.3987 1051.29 515.736
2477 0 97.254 13.254 1289 53.4469 1051.25 513.029
2478 0 97.1288 13.4358 1305 53.705 1051.64 511.269
2479 0 100.173 12.6681 1269 54.4807 1051.62 511.6
2480 0 104.374 13.5571 1415 53.6382 1051.49 508.677
2481 0 106.152 13.6879 1453 54.148 1051.35 506.578
2482 0 108.201 14.1126 1527 53.7721 1051.6 506.25
2483 0 111.181 14.0131 1558 54.2542 1052.03 503.944
2484 0 114.226 13.8672 1584 54.8914 1051.66 500.261
2485 0 120.256 14.5523 1750 53.668 1051.84 500.938
2486 0 122.243 13.8249 1690 55.2213 1051.73 498.759
2487 1 68.2914 9.63518 658 56.7386 1051.86 527.407
2488 0 74.1203 12.871 954 53.2945 1051.43 527.777
2489 0 75.0871 12.905 969 54.5335 1051.27 523.251
2490 0 78.2009 14.3604 1123 52.951 1050.98 522.142
2491 0 79.1783 14.0821 1115 53.2879 1051.41 522.343
2492 0 80.1029 13.1206 1051 54.589 1051.4 519.769
2493 0 84.1412 13.929 1172 54.0427 1051.58 517.129
2494 0 86.1676 13.3809 1153 55.124 1051.43 517.683
2495 0 88.3005 13.7372 1213 54.6735 1050.97 516.019
2496 0 89.3768 15.1717 1356 53.6895 1050.77 516.234
2497 0 93.2603 13.6285 1271 55.7396 1050.95 513.389
2498 0 96.3809 14.0173 1351 55.3501 1050.87 512.801
2499 0 98.3655 14.8019 1456 54.7878 1051.11 511.37
2500 0 100.405 14.5511 1461 55.7084 1050.79 509.22
2501 0 102.505 13.4042 1374 57.2213 1050.57 508.469
2502 0 102.248 12.9392 1323 58.5359 1050.18 507.556
2503 0 109.361 15.2522 1668 56.217 1050.08 507.277
2504 0 112.223 14.5424 1632 56.9755 1050.02 507.794
2505 0 114.278 14.1847 1621 57.6459 1049.86 505.601
2506 0 117.234 14.8933 1746 57.1936 1049.54 501.852
2507 0 121.225 14.2958 1733 58.172 1049.29 499.538
2508 1 69.2307 10.4867 726 57.4835 1049.63 531.789
2509 0 70.0851 12.3279 864 56.7257 1049.32 529.072
2510 0 73.1933 12.952 948 56.6392 1049.17 527.71
2511 0 73.2341 12.303 901 58.1576 1048.96 525.524
2512 0 75.0733 12.6809 952 57.3992 1049.09 524.738
2513 0 78.1225 13.7476 1074 56.5307 1049.53 523.256
2514 0 79.1633 13.8574 1097 56.8897 1049.81 522.679
2515 0 82.3612 12.7366 1049 57.4385 1049.8 520.41
2516 0 86.2215 12.5143 1079 57.7961 1049.98 521.15
2517 0 88.1506 13.4769 1188 56.9049 1049.31 519.407
2518 0 91.2608 12.7875 1167 58.09 1048.33 517.673
2519 0 92.1738 13.2901 1225 57.3257 1049.11 516.029
2520 0 94.1976 13.96 1315 57.0335 1048.86 515.483
2521 0 97.2658 14.2599 1387 56.6063 1048.9 513.399
2522 0 101.309 13.819 1400 56.8464 1049.06 512.953
2523 0 104.294 13.4428 1402 57.0984 1049.02 511.058
2524 0 108.489 13.8908 1507 56.6257 1048.53 510.914
2525 0 111.269 13.1123 1459 57.6093 1048.91 507.368
2526 0 115.14 13.5661 1562 56.8323 1048.64 505.844
2527 0 120.342 13.5862 1635 56.515 1048.75 505.293
2528 0 124.399 13.8345 1721 55.9274 1048.54 503.038
2529 1 66.2856 10.2134 677 56.9897 1049.44 529.626
2530 0 69.2601 12.0271 833 55.4646 1049.45 530.959
2531 0 72.1156 13.0069 938 54.7132 1048.78 527.596
2532 0 75.2094 12.9505 974 54.6489 1048.94 527.489
2533 0 79.325 13.7409 1090 53.2037 1048.75 525.713
2534 0 81.072 13.1735 1068 54.0993 1048.44 524.283
2535 0 81.3069 12.2622 997 55.2929 1048.37 522.621
2536 0 86.2879 13.6056 1174 53.517 1048.45 522.673
2537 0 87.1777 13.3291 1162 54.0869 1048.23 520.099
2538 0 90.1519 13.0114 1173 54.763 1048.87 519.39
2539 0 93.144 14.0535 1309 54.8739 1048.28 515.479
2540 0 96.1703 13.6841 1316 55.2272 1048.49 515.071
2541 0 100.236 13.558 1359 55.0243 1048.75 514.714
2542 0 103.179 13.2682 1369 55.8232 1048.11 510.605
2543 0 105.213 13.9907 1472 55.2228 1048.14 510.492
2544 1 56.0696 8.70346 488 57.3443 1047.91 535.984
2545 0 60.1701 9.67258 582 55.878 1047.93 534.967
2546 0 64.0629 11.3326 726 54.1639 1047.9 533.146
2547 0 66.1102 12.222 808 53.8218 1047.6 531.193
2548 0 66.0507 11.9151 787 55.0445 1046.92 530.123
2549 0 73.0696 13.5761 992 52.4274 1047.07 531.256
2550 0 70.067 11.9457 837 55.2389 1046.98 531.121
2551 0 75.0901 12.7181 955 54.4262 1046.82 528.028
2552 0 77.1533 11.9114 919 55.0359 1047.08 529.442
2553 0 78.2492 12.3835 969 55.388 1047.09 526.038
2554 0 79.2082 13.1678 1043 54.7948 1047.21 524.905
2555 0 83.1657 12.2406 1018 55.4686 1046.88 524.758
2556 0 85.396 13.5486 1157 54.6482 1047.2 522.469
2557 0 89.217 13.002 1160 55.3405 1047.52 521.197
2558 0 92.1936 13.2439 1221 55.4799 1047.34 519.155
2559 0 93.4368 13.3138 1244 56.0217 1047.4 515.338
2560 0 97.4399 14.3473 1398 54.8269 1047.41 515.88
2561 0 99.4457 13.173 1310 56.4206 1047.27 516.954
2562 0 102.322 13.223 1353 56.7051 1046.82 514.982
2563 0 106.369 14.6659 1560 55.2096 1046.9 513.32
2564 0 109.445 13.1481 1439 57.0354 1046.8 510.659
2565 1 62.3381 10.9083 680 56.5324 1047.03 535.178
2566 0 62.2938 11.1247 693 57.886 1047.02 533.105
2567 0 65.2325 11.666 761 57.1248 1046.89 534.867
2568 0 67.1451 13.6123 914 55.5558 1046.92 532.173
2569 0 68.1629 12.1767 830 57.2783 1046.76 533.21
2570 0 70.2604 12.596 885 57.3831 1046.54 532.786
2571 0 70.1412 11.9758 840 58.5619 1046.79 531.367
2572 0 75.1971 13.3117 1001 56.4915 1046.82 530.902
2573 0 76.2106 13.174 1004 57.242 1046.47 528.226
2574 0 76.1008 12.5491 955 58.177 1046.8 528.618
2575 0 80.1691 13.5214 1084 57.5803 1046.82 526.404
2576 0 83.159 13.3239 1108 57.7626 1046.71 524.775
2577 0 84.1283 13.099 1102 58.0163 1046.66 523.768
2578 0 88.1764 14.3916 1269 56.3168 1046.44 523.894
2579 0 91.1869 14.1248 1288 56.6793 1046.73 521.418
2580 0 93.2487 13.5659 1265 57.0553 1046.37 519.9
2581 0 94.1952 13.3446 1257 57.7597 1046.63 516.85
2582 0 100.145 13.6302 1365 57.1377 1046.43 518.4
2583 1 54.1301 11.029 597 57.8007 1046.78 538.899
2584 0 53.2565 10.4025 554 58.6949 1047.33 537.664
2585 0 56.1737 11.2864 634 56.6625 1047.64 536.588
2586 0 57.1761 11.4908 657 57.6682 1047.75 535.51
2587 0 59.1236 11.9918 709 56.5755 1047.37 535.77
2588 0 61.0811 11.4929 702 57.7279 1047.1 534.963
2589 0 64.0856 12.296 788 56.335 1046.69 533.952
2590 0 66.109 13.5685 897 55.0022 1047.02 532.055
2591 0 67.1413 11.9301 801 56.6979 1047.26 530.599
2592 0 71.1192 13.6672 972 54.6934 1046.91 530.443
2593 0 74.1081 12.8731 954 55.4004 1047.28 528.611
2594 0 74.2757 12.8171 952 55.8403 1047.28 527.687
2595 0 77.2752 13.4454 1039 55.6814 1047.53 526.051
2596 0 78.243 12.6529 990 57.398 1047.54 524.254
2597 0 80.1178 13.0807 1048 56.8502 1047.87 524.661
2598 0 83.1338 13.9414 1159 57.0026 1048.62 523.122
2599 0 86.177 13.7276 1183 57.0668 1049.09 522.134
2600 0 90.1844 13.5057 1218 57.5911 1048.97 519.929
2601 0 92.1776 13.8862 1280 57.6297 1049.49 519.659
2602 0 94.1109 14.0048 1318 57.8665 1049.27 518.677
2603 0 95.1294 14.0335 1335 57.9213 1049.58 515.462
2604 1 51.1116 10.2521 524 58.4828 1048.81 541.094
2605 0 53.1275 11.1618 593 57.7538 1049.01 539.051
2606 0 52.0847 11.3853 593 58.6459 1049.07 538.024
2607 0 57.1385 11.9884 685 57.0394 1049.12 537.842
2608 0 59.142 12.3939 733 56.7626 1049.61 536.34
2609 0 60.101 12.7119 764 56.9463 1050.32 535.658
2610 0 62.1629 11.872 738 57.977 1050.43 535.505
2611 0 65.1276 12.3296 803 57.3562 1050.44 533.606
2612 0 65.1047 13.0559 850 57.4388 1050.42 532.386
2613 0 66.0956 13.6469 902 57.2539 1050.81 529.431
2614 0 68.1327 11.962 815 58.7362 1051.31 528.845
2615 0 72.0812 13.4293 968 57.3512 1050.87 527.818
2616 0 75.0758 13.3065 999 57.3624 1051.37 526.426
2617 0 76.0772 12.9342 984 58.1748 1051.55 525.731
2618 0 79.1014 13.2362 1047 57.6571 1051.39 524.478
2619 0 81.1429 13.3838 1086 58.1087 1051.26 521.535
2620 0 85.1102 12.9244 1100 57.9809 1051.78 520.045
2621 1 46.1231 9.56137 441 57.7619 1050.96 541.989
2622 0 49.1123 11.1581 548 56.75 1051.04 540.62
2623 0 49.1512 10.3965 511 57.9941 1050.96 540.693
2624 0 50.0272 11.114 556 57.4029 1050.76 539.813
2625 0 50.0732 11.7828 590 58.0932 1051.21 536.697
2626 0 52.1144 12.2615 639 56.8779 1051.32 537.362
2627 0 52.0682 11.5618 602 57.6478 1051.77 536.39
2628 0 56.0729 12.7334 714 55.4076 1051.84 535.244
2629 0 56.1163 11.8326 664 57.009 1051.68 534.449
2630 0 60.0415 12.8911 774 55.4664 1051.8 534.271
2631 0 60.1104 12.6268 759 56.6008 1051.86 532.108
2632 0 63.0739 13.3653 843 55.656 1051.74 530.892
2633 0 63.0935 13.0283 822 56.5937 1051.76 528.45
2634 0 66.049 12.6421 835 56.9269 1051.26 530.226
2635 0 67.1185 12.7238 854 57.3934 1051.36 527.556
2636 0 69.054 14.1339 976 55.7582 1050.84 526.486
2637 0 72.0539 13.712 988 56.0263 1051.14 525.948
2638 0 73.0835 13.4777 985 56.6782 1051.44 525.41
2639 0 76.0654 13.4227 1021 56.2008 1051.24 525.513
2640 0 79.0767 13.4047 1060 56.366 1051.04 522.285
2641 0 83.1693 13.743 1143 55.6334 1050.88 523.171
2642 0 84.038 13.6367 1146 56.5122 1050.44 519.01
2643 0 89.1422 13.9216 1241 55.697 1050.4 518.927
2644 0 93.0497 13.971 1300 55.9115 1050.59 517.752
2645 0 93.2537 13.104 1222 57.7275 1050.77 514.916
2646 1 48.1561 11.5873 558 57.2581 1051.17 536.79
2647 0 48.037 10.8666 522 58.3142 1051.01 535.854
2648 0 51.1524 11.0454 565 57.9646 1051.4 534.637
2649 0 53.084 12.1129 643 56.79 1051.66 534.74
2650 0 54.1635 13.1454 712 53.4986 1050.43 535.087
2651 0 58.0847 13.7041 796 52.1809 1050.69 535.123
2652 0 58.0969 13.4947 784 53.5548 1050.82 533.388
2653 0 61.2447 12.9807 795 53.4226 1050.22 534.171
2654 0 63.0815 12.0321 759 54.7721 1050.92 532.274
2655 0 66.1481 13.6361 902 53.1641 1050.72 530.864
2656 0 65.1137 12.9466 843 55.0759 1050.07 528.03
2657 0 67.2053 12.7371 856 54.7699 1050.14 529.725
2658 0 69.1102 12.632 873 55.3494 1049.58 526.95
2659 0 74.126 13.2612 983 54.6287 1049.75 526.821
2660 0 73.1812 13.8014 1010 54.7713 1049.77 525.347
2661 0 77.0428 14.0831 1085 54.3659 1049.67 524.906
2662 0 78.1482 12.4507 973 56.9435 1049.34 522.521
2663 0 79.0676 13.5201 1069 56.3695 1049.84 521.634
2664 0 83.1415 13.916 1157 55.7096 1050.09 519.386
2665 0 85.2223 12.9896 1107 56.7073 1049.72 520.305
2666 0 88.1791 13.5746 1197 56.1963 1050.57 517.627
2667 1 50.076 9.48558 475 57.7305 1050.28 538.834
2668 0 51.1549 11.3577 581 57.0448 1050.12 537.361
2669 0 54.043 11.1948 605 56.6298 1049.75 536.881
2670 0 55.0185 11.1053 611 56.9542 1049.84 534.223
2671 0 57.0573 12.689 724 55.5801 1049.04 535.374
2672 0 59.045 12.6852 749 55.4206 1049.59 534.943
2673 0 62.0561 12.8432 797 55.01 1048.58 533.168
2674 0 62.0585 13.4389 834 55.4053 1048.56 531.733
2675 0 64.0676 12.9238 828 55.6147 1048.41 531.045
2676 0 66.1147 13.2346 875 56.0686 1048.53 530.97
2677 0 67.0493 12.5281 840 56.3536 1048.59 531.846
2678 0 67.0576 12.8994 865 56.6116 1048.52 527.977
2679 0 71.0827 12.3659 879 56.8965 1048.56 529.427
2680 0 75.163 12.0937 909 56.7151 1049.02 528.517
2681 0 78.1128 14.223 1111 54.6562 1048.69 526.073
2682 0 79.1122 12.9184 1022 56.8757 1048.68 525.012
2683 0 80.0648 12.8771 1031 56.8351 1048.01 524.168
2684 0 86.1101 13.1576 1133 55.9356 1048 522.118
2685 1 47.0589 10.4975 494 55.6842 1047.18 541.13
2686 0 47.0568 10.413 490 56.0694 1047.54 540.888
2687 0 51.0876 11.8228 604 55.3526 1048.25 538.762
2688 0 51.1284 11.9112 609 55.9557 1048.6 535.837
2689 0 53.1181 12.1239 644 56.3012 1048 539.071
2690 0 55.1742 12.2884 678 56.205 1047.87 539.621
2691 0 56.1545 12.804 719 55.854 1047.67 536.786
2692 0 56.1331 14.234 799 54.9875 1047.48 537.403
2693 0 58.1902 12.631 735 56.8122 1047.45 534.706
2694 0 60.1034 13.0941 787 56.1245 1047.53 533.944
2695 0 61.0661 12.642 772 56.8705 1047.2 533.504
2696 0 65.1219 12.5303 816 56.4853 1047.62 533.745
2697 0 67.0965 13.339 895 55.4436 1047.67 531.97
2698 0 69.0501 13.9754 965 55.0228 1047.35 530.431
2699 0 70.1032 13.1092 919 56.1806 1047.28 531.754
2700 0 71.1738 12.9402 921 56.7405 1047.26 530.054
2701 0 76.0921 15.1133 1150 54.2809 1047.06 527.234
2702 0 78.097 13.1119 1024 56.7432 1047.53 526.098
2703 0 82.1178 15.4169 1266 54.2235 1047.91 526.075
2704 1 42.0103 9.6643 406 58.2685 1047.64 545.133
2705 0 44.0477 10.2616 452 58.2323 1047.78 542.332
2706 0 45.1588 11.4042 515 56.7379 1048.01 542.678
2707 0 47.1301 11.691 551 56.9746 1048.4 541.902
2708 0 50.154 11.7039 587 56.799 1047.79 543.283
2709 0 49.0355 12.3788 607 56.9292 1048.12 541.535
2710 0 50.0727 12.7015 636 57.3616 1047.43 541.56
2711 0 53.1141 13.311 707 56.0297 1047.56 540.727
2712 0 55.0545 13.1688 725 56.7131 1048.75 539.222
2713 0 55.1169 13.6075 750 56.68 1046.74 537.593
2714 0 57.0485 12.5858 718 57.6421 1047.07 537.233
2715 0 57.095 13.1885 753 57.7596 1047.15 537.275
2716 0 59.0778 13.4907 797 56.7528 1047.13 535.975
2717 0 60.1835 13.193 794 57.3866 1047.11 535.651
2718 0 65.0983 14.5933 950 54.5516 1047.1 535.468
2719 0 64.3004 13.2814 854 56.8876 1046.43 535.178
2720 0 66.1466 14.4225 954 56.1478 1046.78 533.605
2721 0 67.1316 12.9596 870 58.3713 1046.82 532.708
2722 0 71.1391 13.6071 968 57.3977 1047.03 531.749
2723 0 73.074 13.5205 988 57.6883 1046.43 530.265
2724 1 39.0367 10.4773 409 57.1296 1046.31 548.159
2725 0 41.0249 10.1646 417 57.4916 1046.29 547.849
2726 0 43.0943 12.6235 544 55.5037 1046.55 544.403
2727 0 44.1264 12.2602 541 55.6876 1046.5 545.935
2728 0 43.138 12.6107 544 56.7004 1047.67 543.522
2729 0 42.115 11.8248 498 58.4277 1047.61 543.229
2730 0 47.1546 12.512 590 56.3288 1048.02 544.686
2731 0 45.0209 12.5053 563 57.9059 1048.12 543.275
