time division length width area intensity CMx CMy
0 0 83.2076 13.6286 1134 85.8951 910.3 556.276
1 0 86.2162 13.5705 1170 108.585 910.009 553.954
2 0 88.1332 13.9561 1230 85.9862 910.349 550.155
3 0 90.1149 12.9945 1171 87.6883 910.217 550.754
4 0 93.1031 14.2315 1325 85.5887 910.076 548.5
5 0 97.3102 13.6574 1329 87.6719 910.637 547.591
6 0 100.274 13.6925 1373 88.7196 909.978 545.662
7 0 104.146 14.2396 1483 87.8584 910.377 543.054
8 0 108.201 13.6506 1477 88.4408 910.651 542.552
9 0 113.223 14.2551 1614 86.2261 910.046 540.002
10 1 60.164 11.8676 714 88.1317 911.081 566.391
11 0 61.1817 11.9971 734 89.4891 910.602 563.99
12 0 63.2881 12.8934 816 88.9583 910.616 562.511
13 0 64.1004 12.6052 808 89.3243 910.959 562.855
14 0 67.1596 13.386 899 87.5017 911.137 560.558
15 0 71.1034 13.5999 967 86.9483 910.986 559.533
16 0 73.1416 13.0842 957 88.1348 911.107 558.246
17 0 73.3553 13.3869 982 88.4807 910.721 555.865
18 0 74.1429 12.7322 944 90.0826 910.938 555.607
19 0 79.105 13.1344 1039 87.3272 910.756 552.644
20 0 84.1197 13.35 1123 85.5423 910.776 551.827
21 0 85.1174 13.1935 1123 85.0205 910.888 549.339
22 0 88.2976 13.4885 1191 83.8144 910.934 548.827
23 0 92.1666 13.4973 1244 83.0225 910.839 547.448
24 0 94.1044 13.4425 1265 83.313 910.553 545.912
25 0 95.1195 13.1939 1255 83.8645 910.466 543.64
26 0 101.152 13.366 1352 82.5059 910.457 541.757
27 0 104.35 14.0009 1461 80.5407 910.253 541.194
28 0 107.306 13.8016 1481 81.4483 910.245 537.6
29 1 57.1915 11.0156 630 79.9587 909.938 563.951
30 0 57.2919 11.8167 677 79.6544 910.227 562.48
31 0 59.2885 11.9079 706 79.847 910.231 560.772
32 0 61.3164 12.7209 780 77.6923 910.385 561.571
33 0 64.3832 12.379 797 78.3112 911.058 561.359
34 0 66.2893 12.8075 849 76.8445 911.457 559.044
35 0 69.3262 12.6503 877 77.2999 911.352 557.773
36 0 72.3784 13.609 985 75.1005 911.542 556.737
37 0 73.3187 12.698 931 77.3448 911.206 555.208
38 0 74.2401 12.6482 939 78.1832 911.586 554.606
39 0 78.2329 12.5395 981 77.527 911.696 553.644
40 0 82.2351 12.7561 1049 77.0458 911.44 551.401
41 0 85.216 12.9905 1107 76.8943 912.077 548.802
42 1 48.3649 10.7516 520 74.7385 912.004 569.135
43 0 49.2471 10.9854 541 74.4177 912.092 568.832
44 0 52.3668 11.5722 606 74.0083 912.147 566.257
45 0 52.2838 12.0687 631 74.8431 912.786 563.815
46 0 55.2225 12.3681 683 74.3777 912.949 563.745
47 0 58.3116 12.0388 702 74.6197 912.65 562.772
48 0 59.2344 13.0161 771 73.3476 912.957 561.667
49 0 61.2546 12.1787 746 75.2909 913.521 561.765
50 0 62.2614 12.6724 789 74.3181 913.236 561.819
51 0 65.1088 13.4851 878 72.4214 913.432 560.577
52 0 67.3355 12.9501 872 73.3372 913.05 559.101
53 0 69.4943 13.3104 925 73.8811 913.034 556.811
54 0 71.2977 13.4927 962 73.4044 911.835 556.326
55 0 73.2487 13.6248 998 65.8768 912.852 556.409
56 0 74.2595 13.1296 975 67.6513 913.04 555.008
57 0 78.3606 13.1188 1028 66.1274 912.901 553.32
58 1 41.0589 10.351 425 66.9741 913.395 570.849
59 0 43.1295 11.0597 477 66.2306 913.635 570.342
60 0 46.0745 11.3295 522 67.8908 913.795 569.105
61 0 45.0557 11.4747 517 68.7253 913.588 567.526
62 0 49.0334 12.0326 590 67.9831 913.99 566.841
63 0 48.013 11.726 563 69.659 914.194 565.623
64 0 52.1648 11.7896 615 68.9854 912.995 564.763
65 0 52.1212 11.6076 605 70.2496 913.121 563.15
66 0 56.268 12.2094 687 69.0262 913.148 562.073
67 0 56.1404 13.0744 734 68.1213 913.369 561.534
68 0 57.1916 11.9598 684 70.4196 913.792 561.788
69 0 57.1618 12.0535 689 71.2119 914.02 560.334
70 0 60.0767 11.968 719 71.0626 913.94 558.656
71 0 63.1136 12.4696 787 70.1817 914.008 558.029
72 0 62.113 11.9138 740 72.2351 914.012 557.916
73 0 67.1184 12.7834 858 70.2016 914.304 555.876
74 0 68.1365 12.2401 834 71.4365 914.719 555.573
75 0 71.1286 12.864 915 70.118 915.132 554.178
76 0 71.1876 12.9517 922 71.102 914.627 552.13
77 0 76.1618 13.1825 1004 70.5139 915.38 551.266
78 0 75.1021 12.3166 925 72.6238 915.63 549.938
79 0 79.0966 12.2508 969 73.2962 915.771 548.296
80 0 81.1231 11.8092 958 73.9676 916.229 546.999
81 1 43.0464 10.0821 434 72.9378 916.387 565.433
82 0 45.0964 10.9543 494 70.3421 917.051 566.571
83 0 45.0794 10.781 486 71.1193 917.527 563.652
84 0 47.0401 11.6496 548 69.4215 917.286 562.005
85 0 49.066 12.1469 596 68.3909 917.889 561.911
86 0 48.2712 11.829 571 69.8651 917.086 560.194
87 0 51.1387 11.5764 592 68.4831 917.123 559.78
88 0 52.084 11.8078 615 68.6472 916.925 557.467
89 0 53.1301 12.2529 651 68.0645 917.034 557.859
90 0 56.07 12.1634 682 68.5894 917.378 555.257
91 0 57.1079 12.2925 702 69.7849 918.313 555.464
92 0 59.1818 11.6928 692 71.7283 918.753 555.236
93 0 59.1073 12.8072 757 70.4386 918.483 553.169
94 0 60.1476 12.3363 742 70.0984 918.322 551.783
95 0 63.1422 12.9707 819 66.3236 918.425 551.411
96 0 64.1695 12.7319 817 66.4076 918.392 549.847
97 0 71.1182 13.1893 938 88.1162 919.053 549.013
98 0 69.264 12.6328 875 65.3051 918.061 548.024
99 0 73.3202 13.4206 984 63.628 917.628 547.699
100 0 73.265 12.7755 936 67.2286 918.014 546.744
101 0 73.265 12.6664 928 154.926 918.005 546.793
102 0 79.1481 12.6345 1000 71.391 918.873 543.248
103 0 83.1757 13.8021 1148 64.8049 918.986 541.78
104 0 84.2799 12.7551 1075 67.1312 918.846 541.248
105 0 86.2621 13.5517 1169 70.2712 918.908 538.843
106 0 88.1772 12.7584 1125 71.9022 919.172 537.894
107 0 91.2937 13.0896 1195 71.4293 919.149 535.203
108 0 97.1593 13.6168 1323 70.6508 918.883 535.571
109 1 53.0934 10.6416 565 73.5274 919.025 555.729
110 0 55.0939 11.4895 633 72.1785 918.567 555.392
111 0 56.0388 10.7425 602 72.8389 918.872 554.532
112 0 58.042 11.8535 688 70.9942 918.645 553.77
113 0 59.2238 12.0053 711 71.1181 918.563 551.65
114 0 61.0244 12.2246 746 70.433 918.874 552.28
115 0 63.1151 12.4693 787 69.7548 917.778 551.328
116 0 64.1836 12.5266 804 70.1381 918.238 549.76
117 0 66.2354 12.4858 827 70.6433 918.063 549.057
118 0 68.2381 13.6288 930 68.9194 918.105 547.319
119 0 70.2278 12.9721 911 70.2294 917.98 546.899
120 0 72.1267 13.6288 983 69.0539 918.067 546.633
121 0 74.19 12.468 925 70.7881 918.015 544.969
122 0 76.3101 13.5893 1037 69.7261 918.043 542.518
123 0 79.1073 13.8672 1097 69.5296 917.951 541.448
124 0 82.1131 13.8224 1135 70.0018 918.096 540.679
125 0 84.1698 13.5084 1137 70.8311 917.983 540.855
126 0 87.2904 12.8766 1124 71.6895 917.927 539.898
127 0 88.166 13.554 1195 71.1314 917.98 538.047
128 0 91.3006 14.633 1336 69.5988 917.421 535.911
129 0 94.3391 13.8331 1305 71.0322 917.31 534.874
130 0 97.2955 13.9061 1353 71.3969 917.239 533.152
131 0 100.231 14.3868 1442 71.0895 917.053 531.863
132 0 102.248 13.4574 1376 73.0291 916.975 529.016
133 0 106.331 13.4861 1434 72.4247 916.689 529.691
134 1 57.2214 10.8526 621 72.7456 916.882 553.351
135 0 57.2214 10.8351 620 174.106 916.873 553.35
136 0 60.134 12.1562 731 71.2544 916.828 552.023
137 0 62.2097 12.49 777 70.1081 916.696 551.069
138 0 66.1901 12.177 806 69.8921 916.628 551.035
139 0 66.1217 13.0517 863 68.7555 916.622 548.79
140 0 68.1731 12.5123 853 69.1372 916.528 548.117
141 0 71.1218 12.8653 915 68.5279 916.355 547.385
142 0 74.1275 12.3976 919 69.8749 917.005 546.63
143 0 74.1635 12.459 924 70.2359 916.312 545.045
144 0 78.0879 12.1658 950 70.3495 916.478 544.604
145 0 81.138 12.9409 1050 69.0381 916.311 542.158
146 0 82.2278 12.3681 1017 70.1878 916.55 539.72
147 0 85.1723 12.4806 1063 69.7178 916.453 539.358
148 0 89.1037 12.94 1153 68.5655 916.023 540.283
149 0 92.2249 13.402 1236 68.1513 915.843 535.883
150 0 94.1766 12.6677 1193 69.062 915.726 536.448
151 0 97.1272 12.5094 1215 69.0436 916.086 533.779
152 0 101.129 12.9537 1310 68.3496 916.669 531.015
153 1 52.0713 10.2744 535 66.6953 916.966 555.525
154 0 56.1027 11.7107 657 63.8874 916.936 555.907
155 0 57.0205 11.908 679 64.1915 917.102 553.723
156 0 59.0131 11.7093 691 64.8046 917.126 553.499
157 0 61.0469 11.5976 708 64.8037 916.99 552.935
158 0 63.2016 12.2782 776 64.2487 916.058 550.95
159 0 65.2049 12.4224 810 63.9519 915.817 551.246
160 0 67.1315 12.5127 840 64.0679 915.923 550.463
161 0 67.1922 12.055 810 65.1691 915.409 550.2
162 0 72.2118 12.2695 886 64.36 915.936 548.223
163 0 72.235 11.9056 860 65.6919 915.999 546.647
164 0 74.1468 12.2729 910 66.0308 915.924 544.252
165 0 76.1601 12.303 937 65.8186 915.521 545.104
166 0 80.1879 12.3211 988 65.8927 915.64 542.611
167 0 81.1539 11.854 962 66.7391 916.372 541.187
168 0 87.1243 12.7519 1111 64.7615 916.432 539.851
169 1 43.1043 10.6486 459 63.0784 917.913 562.362
170 0 46.1411 10.6413 491 62.6293 917.729 561.035
171 0 49.125 10.3817 510 63.1471 918.18 559.459
172 0 49.0407 11.4395 561 63.3619 917.923 557.75
173 0 53.166 12.0378 640 61.4578 917.653 557.006
174 0 53.1815 11.4325 608 64.1069 917.238 555.993
175 0 54.2084 11.9908 650 63.5862 917.275 553.874
176 0 55.2081 11.7193 647 64.8748 918.053 553.652
177 0 57.1901 12.3098 704 64.1918 917.801 552.327
178 0 57.1695 11.9119 681 63.7885 917.605 553.112
179 0 59.223 12.7822 757 63.1268 917.671 549.534
180 0 60.2856 12.9218 779 62.7125 917.789 549.955
181 0 63.176 13.0113 822 62.5779 917.724 549.847
182 0 65.1617 12.4306 810 64.1259 918.031 548.117
183 0 67.1089 12.6213 847 63.7887 918.495 547.941
184 0 70.1701 13.054 916 63.3919 918.16 545.687
185 0 72.2446 13.3297 963 63.5504 918.712 544.551
186 0 73.1884 13.6497 999 63.0621 919.034 543.227
187 0 74.0885 12.728 943 65.1113 918.909 543.168
188 0 78.2429 13.3047 1041 64.2277 918.879 542.251
189 0 81.1485 14.2825 1159 62.9784 919.068 539.867
190 0 84.2994 13.5944 1146 64.9372 918.957 538.933
191 0 85.128 13.4151 1142 67.4238 919.32 537.181
192 1 47.0672 11.7279 552 66.1957 920.295 556.507
193 0 50.0276 10.4342 522 64.7165 920.619 556.377
194 0 49.133 11.4587 563 63.8508 920.149 553.847
195 0 52.0679 11.1201 579 64.5423 920.333 553.299
196 0 53.0297 11.8236 627 63.6986 920.493 553.986
197 0 55.1183 12.1375 669 64.1943 920.254 551.999
198 0 54.2264 11.6364 631 65.29 919.241 551.683
199 0 57.2531 11.8596 679 64.6348 919.376 549.769
200 0 58.1766 12.8058 745 63.6564 919.694 549.898
201 0 61.1991 13.3335 816 62.038 919.877 548.377
202 0 61.2199 12.888 789 63.057 919.861 547.82
203 0 64.2791 13.2858 854 62.5351 919.488 548.539
204 0 65.2357 13.5662 885 62.3695 919.856 547.099
205 0 67.3489 13.7641 927 62.2967 920.095 545.087
206 0 67.3489 13.8087 930 161.88 921.097 545.177
207 0 73.2753 14.5479 1066 61.0985 920.105 542.163
208 0 74.3383 13.748 1022 63.18 920.149 540.464
209 0 77.6327 13.2547 1029 63.5112 919.728 539.884
210 0 78.3664 13.3731 1048 64.4027 919.841 539.024
211 0 84.4861 14.0733 1189 62.3793 920.02 537.416
212 0 87.4521 13.8819 1214 62.9885 919.741 535.684
213 1 44.2921 9.776 433 64.3972 920.838 557.644
214 0 47.2459 10.9428 517 63.4275 920.644 556.393
215 0 46.1922 11.1924 517 64.8839 920.7 554.905
216 0 48.0776 12.0846 581 63.8485 919.831 554.983
217 0 50.0932 12.357 619 63.2149 919.569 554.016
218 0 54.1698 13.2177 716 61.6425 919.75 553.194
219 0 53.0382 12.5193 664 64.5482 920.152 552.497
220 0 54.0633 13.1327 710 64.2099 919.682 550.658
221 0 56.1716 13.0315 732 64.0915 920.012 550.663
222 0 59.1779 12.7243 753 64.1474 919.364 549.428
223 0 60.161 13.6301 820 63.6195 919.517 548.387
224 0 61.1975 13.3502 817 64.3574 919.296 546.704
225 0 61.2748 12.9743 795 65.7522 919.286 546.225
226 0 63.2043 12.5783 795 66.4214 918.893 546.263
227 0 64.3177 13.5266 870 65.6046 919.125 545.446
228 0 68.4081 13.7703 942 64.6529 919.212 545.065
229 0 71.2531 13.8801 989 65.1628 919.189 543.869
230 0 71.3367 13.4153 957 66.3197 918.033 545.387
231 0 73.3227 13.4201 984 67.2154 918.482 542.316
232 0 77.3086 13.6854 1058 66.5038 918.358 541.937
233 0 81.2093 13.6314 1107 66.5736 918.416 540.056
234 0 82.3327 13.8098 1137 67.2427 918.077 539.021
235 0 85.1573 14.5378 1238 66.5089 918.028 537.365
236 0 87.2279 13.6654 1192 68.0193 917.769 536.419
237 0 90.2246 13.9762 1261 67.7098 917.786 533.807
238 0 94.2899 14.6781 1384 66.2659 917.86 533.164
239 0 97.2437 14.6231 1422 66.1027 917.538 532.975
240 0 101.316 14.4893 1468 66.3256 917.261 528.726
241 1 52.1504 11.3326 591 67.1895 917.824 555.528
242 0 51.1624 11.0628 566 68.0477 917.516 555.226
243 0 54.1113 11.1437 603 67.2952 917.559 555.964
244 0 58.1097 12.2699 713 65.913 917.659 553.83
245 0 58.1139 12.0969 703 66.6572 917.724 552.404
246 0 60.1058 12.5113 752 66.2606 918.029 550.448
247 0 61.1036 11.996 733 66.7913 917.761 549.768
248 0 63.118 13.6411 861 64.6934 917.549 549.161
249 0 67.2171 13.7316 923 64.026 917.478 547.737
250 0 69.2425 13.3011 921 64.5798 917.641 547.608
251 0 71.1005 12.9394 920 65.2522 917.342 546.282
252 0 73.1291 13.1138 959 64.7435 917.686 546.047
253 0 75.1946 12.4344 935 65.7091 917.299 544.681
254 0 78.1146 13.2242 1033 64.4743 917.281 543.37
255 0 81.2114 13.2863 1079 64.5088 916.922 543.592
256 0 83.1208 12.1029 1006 66.2992 917.127 540.759
257 0 85.1046 12.9135 1099 65.2238 917.337 539.313
258 0 89.3112 13.1786 1177 64.7621 917.234 539.549
259 0 90.1194 12.7165 1146 65.7033 916.652 538.479
260 0 95.2177 13.0963 1247 64.4034 916.816 536.549
261 0 97.2461 13.1008 1274 64.9717 916.499 533.548
262 0 99.1285 13.6187 1350 64.1881 916.177 531.479
263 1 55.0568 11.1339 613 63.3491 917.215 556.793
264 0 56.0683 11.0936 622 63.3617 917.35 556.193
265 0 56.0881 10.7688 604 63.9056 917.058 554.631
266 0 60.0931 13.1296 789 61.076 916.961 553.921
267 0 62.1612 12.8537 799 61.761 916.496 553.252
268 0 62.1469 11.8751 738 63.7764 916.755 551.313
269 0 65.1514 12.4633 812 62.814 916.44 550.211
270 0 68.2297 13.3373 910 62.0989 916.731 549.56
271 0 69.1814 12.2143 845 63.8509 916.55 549.589
272 0 71.1172 12.5708 894 63.4105 916.891 547.35
273 0 76.1256 12.8078 975 63.1067 917.095 545.36
274 0 75.1283 12.4188 933 64.8778 917.377 543.404
275 0 79.1045 12.7174 1006 64.1491 917.582 543.063
276 0 82.1616 13.0718 1074 64.3482 917.339 540.558
277 0 87.1286 13.4284 1170 63.035 917.441 540.266
278 0 89.2279 13.2806 1185 63.5257 917.926 539.732
279 0 89.3075 12.9776 1159 64.8093 917.877 537.205
280 0 95.2902 13.5166 1288 63.8991 917.455 536.422
281 0 96.3664 13.0751 1260 65.2413 917.637 533.778
282 0 99.3229 13.0987 1301 65.319 918.032 530.955
283 1 55.1816 10.7645 594 64.4495 918.082 552.943
284 0 58.0804 11.5185 669 63.6084 918.495 552.691
285 0 61.1826 12.0296 736 62.4375 918.143 552.106
286 0 62.2859 12.8279 799 62.1627 918.173 550.713
287 0 63.1617 12.3493 780 63.5949 918.279 550.282
288 0 64.1534 11.7375 753 64.5684 918.721 549.25
289 0 68.1035 12.9215 880 62.6716 918.598 548.726
290 0 69.1 12.6918 877 63.1494 918.259 548.083
291 0 70.153 12.43 872 64.1319 919.359 545.99
292 0 71.2097 12.3719 881 64.6413 919.619 545.792
293 0 74.1768 12.8072 950 63.3905 919.861 545.133
294 0 75.2409 12.4002 933 64.806 919.785 542.501
295 0 79.1013 12.5535 993 64.8429 919.945 540.453
296 0 79.09 12.5806 995 65.3387 919.782 539.186
297 0 83.3873 13.6711 1140 63.9219 920.269 537.685
298 1 44.1167 11.6963 516 64.5543 920.601 556.029
299 0 45.3734 10.5128 477 65.6646 920.732 557.14
300 0 48.3375 10.7577 520 65.8538 920.75 555.756
301 0 48.2962 12.237 591 65.2741 921.032 553.831
302 0 48.3286 12.8288 620 65.5226 921.473 553.144
303 0 51.0734 12.0807 617 67.1799 921.998 552.554
304 0 53.2124 11.5387 614 68.443 921.938 551.295
305 0 53.256 12.055 642 68.2804 921.844 551.815
306 0 54.3004 12.4124 674 68.1795 921.478 549.556
307 0 55.269 12.5749 695 68.8187 921.521 548.226
308 0 58.2294 12.8629 749 67.8892 921.808 547.093
309 0 62.144 13.5653 843 66.2527 921.248 547.009
310 0 62.4089 12.6905 792 68.6503 921.393 545.306
311 0 65.277 12.8989 842 67.943 921.454 544.957
312 0 66.2807 12.6432 838 68.574 920.844 544.446
313 0 67.4225 13.0965 883 68.4666 921.129 541.412
314 0 69.2343 12.6238 874 69.2197 920.87 540.772
315 0 72.446 12.6163 914 69.0689 920.568 540.255
316 0 72.38 12.6416 915 69.8481 920.455 539.764
317 0 75.3305 13.2217 996 68.8996 920.841 538.496
318 0 77.3215 13.1658 1018 69.0088 920.337 539.008
319 0 79.3729 13.4303 1066 69.1839 920.406 536.154
320 0 81.2054 13.0164 1057 69.9385 920.63 534.98
321 0 82.3756 12.795 1054 70.1044 920.544 534.031
322 0 86.3784 13.6029 1175 69.103 920.186 533.884
323 0 89.5908 13.9746 1252 68.5879 919.708 531.516
324 0 89.4976 13.3411 1194 71.0343 919.533 530.992
325 0 93.274 13.8302 1290 70.1054 919.149 530.215
326 0 97.4106 13.7562 1340 70.1604 919.069 528.545
327 0 98.4766 13.8002 1359 70.613 919.448 527.203
328 0 102.432 14.2143 1456 70.1429 918.955 525.405
329 0 106.322 13.6096 1447 71.3345 918.714 522.323
330 0 108.39 13.5806 1472 71.5333 918.735 520.51
331 1 42.221 10.9898 464 69.2306 919.175 554.058
332 0 45.2758 11.2864 511 68.1155 919.632 555.202
333 0 45.2942 11.2818 511 69.2975 919.323 553.315
334 0 45.2942 11.3259 513 160.762 918.302 553.333
335 0 50.2586 12.0775 607 67.7792 919.463 552.972
336 0 50.2155 11.9684 601 69.1564 918.682 551.321
337 0 53.2134 11.5009 612 69.2974 918.52 552.346
338 0 53.0623 11.7786 625 69.7232 919.04 551.989
339 0 55.0435 12.3902 682 68.6129 919.1 550.463
340 0 55.0514 12.7335 701 68.893 919.121 550.335
341 0 59.0939 12.7255 752 68.1024 918.778 549.172
342 0 59.1975 12.1289 718 69.7131 918.685 548.823
343 0 62.0779 12.6776 787 68.4003 918.375 546.981
344 0 64.1171 12.0872 775 69.1226 918.511 545.737
345 0 65.192 12.9617 845 68.5858 918.103 545.71
346 0 66.055 12.8378 848 69.3703 918.527 545.037
347 0 69.1256 12.5279 866 70.1628 918.76 543.423
348 0 71.1241 12.7102 904 69.8485 918.954 542.226
349 0 73.0862 13.2857 971 69.7322 918.429 540.767
350 0 76.1751 13.1539 1002 69.9661 917.991 540.558
351 0 80.1343 12.7536 1022 70.7691 917.751 539.449
352 0 82.113 13.1891 1083 70.8356 917.543 537.529
353 0 84.2314 13.1542 1108 71.407 917.461 536.522
354 1 43.1712 9.70555 419 73.4153 917.852 556.981
355 0 44.1652 10.6645 471 72.4437 917.645 557.183
356 0 46.1789 11.1523 515 70.7981 918.588 556.48
357 0 49.1655 12.2443 602 69.5947 918.274 555.412
358 0 49.1675 11.7354 577 70.8336 918.894 554.516
359 0 50.0584 12.6053 631 70.7147 918.933 554.263
360 0 51.0694 12.4145 634 71.7855 918.838 553.333
361 0 52.035 12.8375 668 70.7156 918.69 552.638
362 0 56.0489 12.6675 710 70.3549 918.328 551.23
363 0 56.0498 12.4354 697 71.3888 918.835 549.782
364 0 57.1598 12.7187 727 70.4883 918.308 549.622
365 0 60.1322 12.9215 777 69.5277 918.432 550.01
366 0 61.099 13.6336 833 69.09 918.523 548.535
367 0 61.3593 12.875 790 70.3152 918.699 547.047
368 0 65.2287 13.537 883 68.5436 918.573 546.738
369 0 67.2178 13.1959 887 69.0237 918.824 544.368
370 0 70.159 13.669 959 67.8092 919.414 544.781
371 0 71.4465 13.2407 946 68.6036 919.182 543.593
372 1 37.1011 10.8622 403 69.6129 920.308 560.035
373 0 41.0926 10.2452 421 69.3967 919.382 558.603
374 0 40.0535 11.3099 453 68.6468 919.366 558.333
375 0 42.0242 11.0889 466 68.5021 919.38 556.891
376 0 45.0164 12.8398 578 65.5035 919.26 554.99
377 0 47.0445 12.3075 579 65.0898 919.273 553.997
378 0 48.0731 11.961 575 65.5878 920.087 554.925
379 0 49.1695 13.423 660 64.2182 919.224 552.917
380 0 51.1072 12.8749 658 64.5653 920.123 553.102
381 0 52.1327 12.4682 650 65.0046 920.198 553.365
382 0 53.2096 12.4602 663 65.6576 919.995 552.278
383 0 54.092 12.5712 680 65.4735 919.978 551.16
384 0 56.1645 12.7483 716 64.0084 920.176 551.221
385 0 58.1637 13.2385 770 63.3013 919.651 549.905
386 0 59.1287 12.9379 765 63.6745 920.158 549.225
387 0 59.1256 13.5643 802 63.3155 920.519 547.055
388 0 60.1106 13.2755 798 63.0614 920.657 546.807
389 0 64.0783 13.4991 865 62.2821 920.875 545.324
390 0 65.0987 13.2261 861 62.5807 921.174 544.675
391 0 66.1101 12.8725 851 63.0811 921.322 542.612
392 0 69.096 13.3582 923 61.8483 921.112 541.943
393 0 69.1132 12.6459 874 63.5469 921.138 540.931
394 0 73.1546 12.9178 945 61.9016 921.696 540.967
395 0 73.1667 12.5604 919 62.8063 921.871 539.705
396 0 77.0923 12.751 983 62.3245 921.754 537.384
397 0 80.2398 13.6591 1096 61.2801 921.641 534.733
398 0 83.0794 12.3256 1024 62.709 921.829 534.608
399 0 83.2337 13.2639 1104 61.7844 921.847 533.661
400 0 88.0594 13.1275 1156 60.9152 921.834 532.284
401 0 91.1074 12.5895 1147 61.5798 921.916 531.75
402 0 92.1336 12.8075 1180 62.2661 921.908 528.011
403 0 94.1159 12.7927 1204 62.4668 922.184 527.811
404 0 100.265 13.8334 1387 60.9315 922.296 525.815
405 1 53.0699 11.7958 626 60.3818 922.792 550.725
406 0 56.1206 12.2058 685 60.2015 922.18 548.591
407 0 57.052 12.7077 725 59.7752 922.364 547.877
408 0 58.1428 11.5234 670 61.7045 921.693 546.51
409 0 60.1184 12.0928 727 61.0729 921.469 544.623
410 0 62.101 12.2864 763 61.3001 921.383 544.228
411 0 64.2151 12.1155 778 61.0231 921.945 543.519
412 0 68.1825 12.8919 879 60.0796 922.104 542.697
413 0 68.1234 12.0076 818 62.066 921.85 540.49
414 0 70.1153 12.3511 866 61.664 922.055 541.298
415 0 74.098 13.0368 966 61.4969 921.348 538.051
416 0 75.1375 13.0694 982 62.2026 921.258 537.595
417 0 78.1308 12.7607 997 62.4965 921.119 538.374
418 0 78.1675 12.6779 991 63.7154 921.213 534.354
419 0 84.1856 13.3039 1120 62.4955 920.796 533.896
420 0 85.1461 13.2831 1131 62.7162 920.575 533.525
421 0 88.2406 12.7946 1129 63.3295 920.057 533.114
422 0 93.1055 13.4686 1254 62.638 920.263 531.923
423 0 93.1202 12.1671 1133 64.9991 920.695 531.204
424 0 97.3011 13.1242 1277 63.6014 919.736 528.404
425 1 51.1465 9.9518 509 63.1277 919.972 552.067
426 0 54.2211 12.1908 661 61.4448 920.304 549.876
427 0 56.1194 11.8497 665 61.4586 920.149 549.25
428 0 58.1903 11.8061 687 61.5575 919.83 548.461
429 0 59.0944 11.8455 700 62.0886 919.247 546.029
430 0 63.1754 11.7767 744 61.6089 918.894 547.077
431 0 65.1577 12.1858 794 61.5264 919.15 546.46
432 0 68.1031 12.6132 859 61.0605 918.888 544.58
433 0 68.1434 12.3856 844 62.064 918.829 543.507
434 0 70.155 12.0448 845 62.6935 918.669 542.523
435 0 71.1551 12.5782 895 62.6994 918.221 541.118
436 0 75.1602 12.5598 944 62.8464 918.061 540.448
437 0 77.107 12.4502 960 62.9594 918.645 539.912
438 0 81.1332 12.5719 1020 62.9431 918.588 537.989
439 0 83.178 12.852 1069 63.3854 918.316 536.425
440 0 84.1109 12.543 1055 64.1327 918.319 536.223
441 0 88.1463 13.4663 1187 63.1264 918.069 535.302
442 0 91.2948 12.9909 1186 63.8196 918.166 532.796
443 0 94.153 12.7558 1201 64.3114 917.905 532.957
444 0 97.2651 13.1702 1281 64.1218 918.01 529.458
445 0 102.242 13.6049 1391 63.7326 918.274 527.096
446 1 53.161 10.0826 536 64.3993 918.302 551.741
447 0 56.2003 10.8896 612 63.2761 917.873 552.092
448 0 56.2057 11.1199 625 63.3472 917.621 551.776
449 0 59.0721 11.5791 684 62.4649 918.371 551.067
450 0 61.1105 11.7819 720 62.9333 918.218 550.344
451 0 61.2944 12.2687 752 62.4947 917.468 549.029
452 0 63.1657 12.2218 772 62.4961 917.367 547.675
453 0 64.3471 12.0285 774 62.9522 917.034 546.702
454 0 67.2077 12.4688 838 62.7017 916.858 545.547
455 0 70.1611 12.7991 898 61.9922 917.252 543.861
456 0 70.2163 12.6466 888 63.1858 917.421 544.475
457 0 74.1839 12.4016 920 62.5761 917.492 543.195
458 0 76.3208 12.7881 976 62.1055 917.447 541.277
459 0 80.3405 13.5424 1088 60.6452 918.449 539.54
460 0 83.3872 12.328 1028 62.0846 918.247 538.713
461 0 86.3657 13.6049 1175 60.8647 918.07 536.051
462 0 88.2315 13.9066 1227 60.6659 917.976 534.967
463 0 90.6602 13.0708 1185 61.8768 917.685 534.048
464 0 96.5537 13.3087 1285 61.0918 917.963 532.496
465 1 50.4717 9.31216 470 61.8362 918.581 556.164
466 0 53.3259 11.0828 591 60.5618 918.65 553.034
467 0 54.257 11.1506 605 61.6298 918.05 553.564
468 0 58.2914 11.9229 695 60.6187 917.653 552.653
469 0 57.2235 11.4988 658 62.114 917.424 552.653
470 0 59.2488 11.5445 684 61.4313 917.155 552.942
471 0 60.3535 12.3771 747 61.9679 917.3 550.388
472 0 63.3117 12.0673 764 62.9372 917.253 549.873
473 0 65.2224 11.9591 780 63.6385 918.006 548.369
474 0 66.5048 12.781 850 62.9541 918.251 548.248
475 0 68.4894 12.7319 872 63.2844 918.069 548.335
476 0 69.4491 11.98 832 64.5349 918.189 546.541
477 0 73.412 12.75 936 63.6955 918.295 545.027
478 0 76.4793 12.5524 960 63.8667 918.252 543.938
479 0 77.2809 13.2504 1024 63.5166 918.3 543.343
480 0 80.363 12.568 1010 64.804 918.163 541.075
481 0 80.363 12.5804 1011 168.727 918.171 541.092
482 1 47.0797 10.3866 489 64.9857 919.391 557.661
483 0 49.0519 11.8242 580 62.9483 919.11 556.793
484 0 50.0598 11.726 587 62.8313 919.216 556.768
485 0 51.157 11.4745 587 63.3782 918.453 556.448
486 0 53.2233 11.9309 635 63.5764 918.693 555.049
487 0 54.1686 12.3872 671 63.538 918.827 553.882
488 0 55.1455 12.1497 670 63.8388 918.445 552.512
489 0 57.1265 12.166 695 64.0835 918.535 552.404
490 0 61.1036 11.996 733 63.4325 918.808 551.345
491 0 62.1194 12.3633 768 63.1719 918.375 550.036
492 0 64.1104 12.0573 773 63.6727 918.908 548.776
493 0 65.177 12.6732 826 63.5787 918.639 547.751
494 0 69.1322 12.2953 850 64.26 918.665 545.058
495 0 71.1327 12.2166 869 63.6375 918.971 543.612
496 0 72.1915 11.5665 835 64.9365 918.651 543.449
497 0 76.2006 12.3752 943 63.3828 918.815 543.045
498 1 44.13 9.78925 432 62.8889 920.03 560.002
499 0 44.0904 10.2063 450 64.0244 920.331 557.376
500 0 45.0589 10.1201 456 63.8904 920.09 557.206
501 0 46.1821 10.2854 475 63.5958 920.048 556.118
502 0 47.0589 11.3687 535 63.6224 919.873 554.839
503 0 49.0306 11.3195 555 64.0036 919.733 553.16
504 0 50.0721 12.1425 608 61.5609 919.707 554.709
505 0 52.088 11.6918 609 62.8555 919.11 552.97
506 0 55.1229 12.6989 700 61.0114 918.959 551.307
507 0 56.3669 11.9219 672 62.689 918.619 550.582
508 0 57.1195 13.0603 746 62.0201 918.627 548.245
509 0 59.2036 12.0939 716 63.5559 918.339 549.458
510 0 60.1703 12.8801 775 63.0542 918.67 548.902
511 0 62.1482 11.907 740 64.8392 918.546 548.038
512 0 64.1463 12.0194 771 64.7847 918.511 547.595
513 0 66.2256 12.6084 835 64.0515 918.327 545.704
514 0 67.1587 13.0437 876 63.9715 918.645 545.741
515 0 68.2003 12.1554 829 66.0796 918.637 544.744
516 0 71.1724 12.4627 887 65.2244 918.021 544.533
517 0 73.1166 12.4732 912 63.9989 918.532 542.679
518 0 76.1674 12.6957 967 63.7518 918.497 540.12
519 0 79.1313 13.1933 1044 62.251 918.089 539.029
520 0 82.0617 13.0755 1073 62.7018 918.432 538.191
521 0 84.2041 13.0279 1097 62.4494 918.222 538.504
522 1 46.02 9.01781 415 64.2241 919.118 557.689
523 0 48.0896 10.2517 493 63.1258 919.245 556.692
524 0 48.082 10.3157 496 63.6452 919.752 555.442
525 0 50.0569 10.4281 522 62.5862 919.784 555.073
526 0 51.0379 11.7168 598 62.1421 920.092 553.572
527 0 53.1027 12.5982 669 60.6039 919.692 552.146
528 0 56.0101 12.8548 720 61.3222 920.429 551.769
529 0 56.015 13.0144 729 60.6639 920.333 549.477
530 0 58.0655 12.262 712 61.8399 920.11 550.399
531 0 60.0565 11.9388 717 61.834 919.948 549.837
532 0 61.0605 12.3484 754 61.5875 920.223 548.24
533 0 63.042 13.1182 827 60.4244 920.137 546.145
534 0 64.2066 12.6467 812 61.617 919.314 545.367
535 0 67.1742 12.222 821 61.514 918.821 546.413
536 0 69.1995 12.37 856 61.5689 919.824 543.454
537 0 69.0972 12.808 885 61.9345 919.399 541.784
538 0 72.1343 12.7401 919 61.5952 919.353 541.059
539 0 75.1524 13.2664 997 60.8134 919.226 539.721
540 0 77.1312 13.0686 1008 61.1558 918.479 537.746
541 0 81.1185 13.4125 1088 60.5423 918.783 535.554
542 0 81.1615 13.2452 1075 60.787 918.186 534.727
543 0 86.3155 13.0799 1129 60.1559 918.759 536.066
544 0 88.1286 12.6406 1114 61.0628 918.079 535.841
545 0 92.1606 13.6392 1257 59.6595 918.308 533.365
546 0 94.1402 13.1294 1236 60.4846 918.545 530.896
547 1 47.1089 10.5712 498 60.9418 918.534 553.44
548 0 51.1061 10.0379 513 61.2164 918.526 552.413
549 0 52.0653 11.0054 573 59.0698 918.419 552.614
550 0 52.0846 11.5581 602 59.5498 917.384 549.894
551 0 54.0714 11.7067 633 59.624 918.231 548.52
552 0 56.1998 12.5623 706 58.4887 917.516 549.38
553 0 56.136 12.1134 680 60.0735 917.751 550.116
554 0 57.1336 12.8296 733 59.8636 917.4 549.532
555 0 59.1014 12.9269 764 59.767 918.305 547.418
556 0 59.1215 12.9564 766 60.5574 918.076 547.038
557 0 62.1691 12.6751 788 60.4086 918.263 546.605
558 0 63.0838 13.0779 825 59.8121 917.718 545.145
559 0 66.1405 12.8968 853 60.0621 917.72 544.177
560 0 68.1602 12.6467 862 60.5278 918.177 543.18
561 0 71.1094 13.1347 934 60.0118 917.743 541.734
562 0 72.0534 12.6018 908 60.7753 917.646 541.796
563 0 74.1242 13.4504 997 59.6038 917.614 539.715
564 0 76.2343 12.8158 977 60.7052 917.778 539.373
565 0 78.1566 12.475 975 61.4431 917.574 537.862
566 0 83.1018 13.2969 1105 59.8896 917.822 536.372
567 0 84.1023 13.6738 1150 60.0287 917.861 535.866
568 0 87.1503 13.012 1134 60.9056 917.97 535.055
569 0 90.2107 13.0694 1179 61.1137 917.877 532.394
570 0 92.1331 13.1657 1213 61.4509 917.744 532.254
571 0 96.2431 13.0191 1253 62.0559 917.644 530.018
572 1 53.07 11.042 586 61.8686 917.942 551.86
573 0 53.1207 10.6173 564 63.2553 917.929 551.582
574 0 55.1028 11.1973 617 61.9417 917.378 549.89
575 0 58.1079 11.6335 676 60.9231 916.525 549.118
576 0 59.1533 12.0196 711 61.7032 916.205 547.232
577 0 61.1727 12.5056 765 61.6288 916.207 547.557
578 0 63.1439 12.5111 790 61.1646 915.935 547.649
579 0 65.1237 12.1615 792 61.8232 915.799 545.746
580 0 68.1364 13.6197 928 60.1239 916.005 544.786
581 0 71.1637 13.0825 931 60.5757 915.604 543.244
582 0 72.1746 13.121 947 61.0549 915.748 540.665
583 0 77.12 13.4985 1041 59.5639 916.096 540.567
584 0 78.1623 13.037 1019 60.7507 915.934 540.054
585 0 80.1779 12.0108 963 62.3126 916.015 539.699
586 0 82.1734 12.8387 1055 61.9877 915.792 538.555
587 0 86.2138 13.3157 1148 61.5462 915.893 536.747
588 0 89.184 12.2892 1096 62.9891 915.613 536.266
589 0 93.145 13.538 1261 61.1983 915.864 534.226
590 0 96.1062 12.5798 1209 62.7634 915.428 532.864
591 1 49.0927 9.51262 467 63.1028 916.139 557.602
592 0 50.0303 11.7129 586 62.8174 915.645 554.886
593 0 52.0502 11.3352 590 64.0186 916.251 554.773
594 0 53.164 11.9254 634 63.0126 916.356 552.503
595 0 55.1152 12.0838 666 61.7523 916.707 551.572
596 0 59.0645 12.4779 737 60.536 916.103 551.619
597 0 59.0635 12.495 738 61.5935 916.11 549.603
598 0 61.0758 13.0166 795 60.6327 916.196 549.99
599 0 64.1057 13.3061 853 59.8136 915.816 548.788
600 0 66.0403 13.1738 870 59.8126 915.425 547.477
601 0 68.0503 13.0932 891 59.7363 915.522 546.79
602 0 70.1803 12.6531 888 60.2342 914.673 546.661
603 0 72.1314 13.0456 941 60.2646 914.706 544.985
604 0 74.2034 13.1396 975 60.6338 914.607 544.368
605 0 76.2819 13.8041 1053 59.5518 914.91 544.527
606 0 77.1848 13.7592 1062 59.8126 914.889 542.97
607 0 80.1479 13.0758 1048 59.7261 915.052 541.32
608 0 84.0739 13.7141 1153 59.1457 915.565 540.396
609 0 87.0581 13.3474 1162 60.4914 915.227 540.792
610 0 87.1497 12.7941 1115 62.0224 915.436 539.073
611 0 90.2004 13.6474 1231 61.2924 915.653 536.972
612 0 94.1958 13.3976 1262 63.3693 915.845 535.077
613 0 95.0698 13.5164 1285 63.0444 916.14 534.106
614 0 97.1705 13.5123 1313 63.997 915.909 531.923
615 0 99.1093 12.6325 1252 64.1334 916.083 533.185
616 0 101.189 12.9559 1311 65.749 915.664 529.915
617 0 106.2 13.2298 1405 66.7943 915.5 528.977
618 0 110.171 13.3973 1476 66.082 915.569 526.157
619 1 59.0718 11.1559 659 65.6677 915.455 551.537
620 0 63.1013 11.537 728 63.1896 915.757 552.25
621 0 64.0992 12.3246 790 63.3759 916.032 548.828
622 0 68.2507 11.9999 819 63.4908 915.117 547.896
623 0 69.1923 12.5303 867 62.5525 915.329 547.319
624 0 72.236 13.5113 976 61.3801 914.891 545.294
625 0 74.2639 12.8326 953 62.7482 916.036 544.824
626 0 75.0462 12.9653 973 62.8633 916.142 543.002
627 0 79.2664 12.7671 1012 63.2164 916.174 540.872
628 0 81.1325 12.4857 1013 63.2794 916.19 540.23
629 0 84.2413 12.9509 1091 63.1008 916.132 539.104
630 0 87.3217 13.5018 1179 61.2545 915.535 538.121
631 0 89.2332 12.8988 1151 61.9757 915.747 536.283
632 0 91.3121 13.0103 1188 61.9074 915.591 534.966
633 0 97.4354 14.2967 1393 59.3891 915.82 533.46
634 1 54.1901 11.0906 601 60.5541 916.062 555.754
635 0 54.1608 11.8721 643 60.0824 916.588 553.064
636 0 57.2804 11.5746 663 60.267 916.268 552.958
637 0 58.1843 11.9276 694 59.5418 916.388 550.635
638 0 60.1687 12.6976 764 59.2029 917.054 549.334
639 0 62.0615 13.2127 820 58.1098 917.137 547.802
640 0 65.105 13.0405 849 57.6843 917.261 546.594
641 0 65.0829 13.1217 854 57.4895 918.418 546.438
642 0 68.1675 12.9681 884 57.9434 917.516 546.207
643 0 69.3301 12.7939 887 57.9707 917.191 545.071
644 0 71.1284 12.6251 898 58.108 917.246 543.773
645 0 74.0947 12.511 927 58.192 917.338 542.998
646 0 76.2237 13.4866 1028 57.285 917.329 541.411
647 0 80.2999 13.3998 1076 57.1032 917.565 540.23
648 0 80.1696 12.6607 1015 58.1409 917.917 538.515
649 0 84.1247 13.587 1143 57.4523 918.068 534.976
650 0 87.1363 13.0485 1137 57.54 917.575 534.972
651 0 91.1592 12.8676 1173 57.15 917.616 533.837
652 0 94.11 13.0698 1230 57.2024 917.717 531.921
653 1 51.1347 9.89543 506 58.2589 918.709 554.117
654 0 52.0488 11.1434 580 57.7724 918.826 551.638
655 0 56.3018 11.4206 643 56.8647 918.925 551.499
656 0 55.2218 11.0826 612 57.5 918.804 549.998
657 0 58.0496 11.8864 690 57.1957 918.848 547.804
658 0 59.0164 12.3186 727 56.9133 919.102 545.858
659 0 62.0752 13.1776 818 55.9303 919.053 546.381
660 0 63.0856 12.0154 758 57.5435 918.78 545.343
661 0 68.0501 13.2549 902 55.7007 918.641 544.633
662 0 68.0718 13.0157 886 56.2698 918.931 543.409
663 0 71.1797 13.2341 942 55.5669 919.226 543.41
664 0 73.1562 12.3845 906 56.6325 919.161 542.53
665 0 75.101 13.5151 1015 56.0286 919.293 539.344
666 0 76.2292 12.8166 977 57.2108 919.087 539.07
667 0 78.2003 12.9156 1010 56.8584 919.546 537.758
668 0 81.0895 13.2939 1078 57.2384 919.34 534.135
669 0 84.1687 13.77 1159 56.7144 919.661 533.201
670 0 88.1331 12.8556 1133 57.7776 919.289 532.638
671 0 90.0896 12.5542 1131 57.7286 919.719 531.978
672 0 93.1548 12.9033 1202 57.327 919.367 529.325
673 0 98.111 13.5867 1333 56.5761 919.501 528.161
674 0 100.159 13.1191 1314 57.7116 919.847 525.995
675 0 102.205 12.475 1275 58.4518 919.75 524.611
676 0 105.253 13.2822 1398 57.7518 920.118 521.167
677 0 110.216 13.4736 1485 57.1111 920.252 521.275
678 0 114.168 13.3225 1521 56.9855 919.936 520.471
679 0 117.232 13.4946 1582 56.519 920.058 518.065
680 1 59.1365 11.0422 653 56.6187 920.671 546.643
681 0 60.1681 10.8695 654 56.2034 920.567 546.286
682 0 61.1398 11.0403 675 56.7481 919.69 543.49
683 0 65.3259 12.2004 797 54.921 920.923 542.88
684 0 68.1228 12.4334 847 54.307 920.741 542.168
685 0 72.2306 12.3909 895 53.8179 921.069 539.457
686 0 72.2306 12.3355 891 152.862 922.089 539.453
687 0 75.2416 12.7722 961 53.9781 920.498 537.012
688 0 78.2869 12.6075 987 54.2705 920.232 535.776
689 0 81.1719 12.0608 979 54.8212 920.312 535.427
690 0 83.2545 12.4318 1035 54.5208 920.529 534.278
691 0 86.1346 13.6879 1179 53.5649 920.751 532.581
692 0 88.2944 13.2058 1166 54.1312 920.295 530.906
693 0 90.4654 13.4858 1220 54.5361 920.854 530.818
694 0 92.4232 13.2218 1222 54.8396 920.498 530.514
695 0 95.6322 13.2591 1268 54.7603 920.122 528.745
696 0 98.4226 14.1025 1388 54.2486 920.522 525.925
697 0 100.586 13.4412 1352 55.1797 920.271 524.212
698 0 103.626 13.3074 1379 55.4924 920.22 524.195
699 1 57.4069 11.0788 636 55.1195 920.222 546.585
700 0 60.2358 11.1562 672 53.8824 920.394 546.44
701 0 61.5118 11.7051 720 54.2264 919.551 544.565
702 0 63.4023 11.9869 760 53.6461 919.113 543.374
703 0 67.4442 12.8254 865 53.3514 918.847 542.455
704 0 67.4442 12.8254 865 152.286 917.847 542.455
705 0 69.3971 12.7527 885 54.4305 919.052 541.228
706 0 70.3116 11.9041 837 56.0645 919.043 539.884
707 0 72.6553 12.4148 902 55.643 919.086 539.986
708 0 75.4968 13.4045 1012 54.3449 918.671 538.37
709 0 78.7212 13.262 1044 54.6082 918.498 537.579
710 0 79.617 13.2635 1056 55.1373 917.964 536.349
711 0 81.58 12.9689 1058 55.8535 918.371 535.843
712 0 84.5723 12.983 1098 56.3461 918.699 533.054
713 0 87.5735 13.6571 1196 55.7993 918.578 532.003
714 0 90.3338 13.594 1228 56.3974 919.098 530.936
715 0 92.5857 13.285 1230 56.8797 918.928 530.381
716 0 94.3968 13.2526 1251 57.956 918.999 528.924
717 0 97.3553 13.8873 1352 57.2138 919.081 529.359
718 0 99.3832 12.8392 1276 59.0165 918.582 526.468
719 0 102.344 12.9075 1321 59.0091 918.796 526.945
720 0 106.485 13.786 1468 57.9857 918.725 525.4
721 0 108.223 13.4629 1457 59.2409 917.874 523.149
722 0 112.15 14.0882 1580 58.5152 918.025 521.053
723 0 117.334 13.7301 1611 58.9696 917.534 520.786
724 0 121.303 14.9956 1819 57.5888 917.835 518.429
725 0 124.33 14.2443 1771 59.4393 917.082 516.102
726 0 129.243 14.4225 1864 58.5671 916.888 514.054
727 0 133.273 14.2114 1894 58.7128 917.01 510.639
728 1 69.089 10.624 734 58.7888 917.437 545.196
729 0 72.3117 12.3908 896 56.7288 917.099 541.884
730 0 75.1624 11.8942 894 56.8702 917.021 540.6
731 0 76.1658 12.1708 927 57.2826 916.971 539.712
732 0 80.267 13.4675 1081 56.1156 916.842 538.539
733 0 82.247 13.8121 1136 55.779 916.605 537.597
734 0 86.1967 12.8659 1109 57.0325 916.581 535.63
735 0 87.2418 12.8837 1124 56.8532 916.273 535.903
736 0 91.224 13.4943 1231 55.8985 916.141 534.093
737 0 93.1464 13.3338 1242 56.2093 916.049 534.063
738 0 95.1847 12.6281 1202 57.7537 915.72 531.38
739 0 98.1765 12.9053 1267 57.5841 916.028 530.485
740 0 101.186 13.2232 1338 57.355 915.959 528.712
741 0 106.333 13.373 1422 57.4733 915.717 527.932
742 0 107.12 13.4055 1436 57.8955 916.12 524.755
743 0 109.203 13.2231 1444 58.1634 916.262 524.652
744 0 116.201 14.0532 1633 56.6222 916.214 524.505
745 0 118.119 12.9276 1527 58.4545 916.219 519.94
746 0 122.169 13.4486 1643 57.5368 916.634 518.78
747 0 126.203 12.789 1614 58.4213 916.255 517.466
748 0 129.278 13.3356 1724 58.0476 915.893 516.811
749 0 134.231 13.1937 1771 58.0209 915.836 516.58
750 1 75.124 10.5293 791 58.6018 916.063 543.367
751 0 78.2156 10.9569 857 58.0093 915.866 543.651
752 0 80.093 12.036 964 57.221 915.605 541.956
753 0 80.2125 12.1801 977 58.781 915.793 538.908
754 0 82.1354 12.4672 1024 58.3799 915.179 538.449
755 0 87.1644 12.5395 1093 58.6194 915.392 536.629
756 0 89.2258 13.1128 1170 58.194 914.722 536.474
757 0 91.3288 12.7561 1165 59.3288 915.143 535.803
758 0 96.1445 13.2925 1278 58.7261 915.034 535.653
759 0 98.279 13.5838 1335 59.0584 915.237 532.217
760 0 99.2263 13.4239 1332 59.4902 914.959 531.081
761 0 104.297 13.0397 1360 60.5449 914.957 528.281
762 0 107.124 13.1157 1405 60.558 914.917 528.473
763 0 109.251 13.3546 1459 60.8849 915.088 526.61
764 0 112.182 13.1215 1472 61.4423 914.949 524.973
765 0 116.376 13.1642 1532 61.3303 914.98 524.691
766 0 118.258 13.5804 1606 61.4296 915.471 521.167
767 1 51.0865 9.8069 501 59.1956 915.575 556.044
768 0 51.1486 10.0687 515 59.2854 915.414 556.814
769 0 52.0588 10.0271 522 60.3467 915.923 557.784
770 0 54.0635 10.8576 587 58.6917 915.802 555.608
771 0 56.2143 11.7764 662 57.2644 915.299 555.057
772 0 56.141 11.3999 640 58.5062 915.214 554.766
773 0 59.0757 11.7307 693 58.5426 914.401 553.543
774 0 58.0911 11.086 644 60.8385 914.991 552.36
775 0 61.1519 11.8884 727 60.2256 914.953 551.814
776 0 62.058 11.4087 708 60.8573 914.825 551.702
777 0 65.0708 11.6642 759 61.3083 915.13 549.993
778 0 68.1469 11.8127 805 60.7739 914.48 548.86
779 0 70.2626 12.069 848 60.829 914.67 547.783
780 1 40.1205 9.96997 400 59.665 915.345 562.902
781 0 40.0827 9.08121 364 61.4533 914.684 562.214
782 0 42.0684 10.2215 430 60.6209 915.533 561.149
783 0 42.0815 10.0519 423 60.9362 915.839 560.572
784 0 44.0247 10.4487 460 61.1565 916.12 559.767
785 0 45.089 11.1779 504 60.7044 915.962 560.097
786 0 47.0422 11.7767 554 60.4729 916.31 557.466
787 0 47.1035 11.4217 538 61.7454 916.277 556.132
788 0 50.0378 10.7719 539 62.3061 916.397 555.015
789 0 51.0526 11.5959 592 61.4459 916.14 554.242
790 0 54.0926 11.4064 617 62.1621 916.72 553.992
791 0 54.0912 12.4419 673 62.0579 916.444 551.166
792 0 57.1497 11.8461 677 62.4963 916.552 550.932
793 0 56.204 11.6184 653 63.6708 915.734 550.686
794 0 58.0963 11.7563 683 63.2328 916.259 549.451
795 0 60.2621 12.1967 735 62.6068 916.027 549.656
796 0 61.112 12.1416 742 63.624 915.81 547.662
797 0 64.2043 12.6627 813 62.3432 916.071 545.535
798 0 64.1832 12.5266 804 63.041 916.296 545.529
799 0 67.2024 12.3507 830 63.0892 916.273 544.549
800 0 68.1909 12.377 844 63.6813 916.94 542.549
801 0 70.4192 12.596 887 63.4611 917.039 541.688
802 0 71.3245 12.4922 891 63.5993 917.892 542.418
803 0 70.3205 11.8031 830 64.3386 918.137 537.651
804 0 74.5699 12.4715 930 63.2667 917.941 536.675
805 0 79.5666 12.9577 1031 62.8817 918.055 538.113
806 0 81.5014 13.19 1075 62.3721 918.327 537.877
807 0 82.4 12.9733 1069 62.4556 918.245 537.83
808 0 85.5233 13.0842 1119 62.5585 918.226 534.38
809 0 88.4944 13.8766 1228 60.952 917.858 531.886
810 0 91.4744 12.8123 1172 62.4352 918.33 530.476
811 0 95.5703 12.5562 1200 62.0233 918.407 530.117
812 0 97.4572 13.5136 1317 60.9651 918.466 528.986
813 1 53.311 10.4856 559 60.9177 919.258 550.945
814 0 56.2472 9.90272 557 60.1346 919.332 549.057
815 0 54.2641 9.96975 541 60.634 919.917 548.712
816 0 59.0945 11.4732 678 59.2699 919.265 547.81
817 0 59.0897 11.8295 699 59.7768 919.805 548.778
818 0 62.1056 12.0118 746 58.1756 919.244 548.83
819 0 63.0519 11.7839 743 59.0525 919.034 545.789
820 0 64.1022 11.9497 766 59.0078 919.042 546.059
821 0 68.0937 12.101 824 58.4951 918.343 545.432
822 0 69.1724 12.3315 853 57.9343 919.013 544.356
823 0 71.4327 12.3473 882 58.3424 917.942 541.592
824 0 74.2057 13.0448 968 57.2459 918.707 540.82
825 0 74.1877 12.711 943 58.4528 918.643 539.391
826 0 79.1063 13.3618 1057 57.2725 919.057 539.741
827 0 81.1464 13.1121 1064 57.3365 918.671 538.952
828 0 82.1678 13.0586 1073 58.3765 919.678 535.868
829 0 84.3608 12.8259 1082 58.7847 919.677 535.701
830 0 87.1116 13.3277 1161 58.3945 919.96 534.562
831 0 90.311 12.9442 1169 59.118 919.418 531.966
832 0 92.4034 12.7917 1182 59.566 919.819 530.305
833 0 95.1971 12.9626 1234 59.5908 919.512 528.793
834 1 50.1085 10.5172 527 58.0512 919.628 552.715
835 0 50.2456 9.89142 497 58.4648 919.867 553.396
836 0 55.1835 9.15128 505 58.5149 919.56 551.384
837 0 55.1157 10.7955 595 57.5731 919.425 550.509
838 0 56.272 10.7336 604 57.6109 919.51 551.838
839 0 60.0731 12.2018 733 56.6576 918.656 548.937
840 0 61.0738 12.182 744 57.668 918.785 547.605
841 0 61.1478 11.4313 699 58.4449 918.731 546.937
842 0 64.1284 11.4302 733 58.5593 918.064 546.825
843 0 65.0588 11.3743 740 59.1676 918.769 545.27
844 0 66.0743 11.8503 783 58.8327 918.909 545.664
845 0 69.2322 11.6564 807 59.3755 917.835 544.093
846 0 71.3008 12.0335 858 58.7576 917.747 541.99
847 0 72.1874 12.3844 894 58.8132 917.273 542.512
848 0 75.2491 11.6546 877 59.984 917.131 540.032
849 0 77.4077 12.1435 940 59.0596 917.072 541.014
850 0 80.1961 12.1452 974 59.309 916.702 538.025
851 0 82.3941 11.797 972 59.9331 916.787 538.36
852 0 85.2378 12.647 1078 59.0148 916.602 534.453
853 0 88.2115 12.5721 1109 59.2281 916.236 533.243
854 0 91.3436 12.0862 1104 59.808 916.534 532.548
855 1 51.2028 8.6714 444 59.0766 916.432 556.243
856 0 49.0351 9.27908 455 59.3209 916.479 554.857
857 0 50.1398 10.4109 522 59.3391 916.818 552.761
858 0 52.2649 10.7146 560 58.7946 917.054 554.93
859 0 53.061 11.3643 603 58.3466 916.653 551.602
860 0 55.0185 11.4325 629 58.2893 915.914 551.429
861 0 56.3307 12.0183 677 58.4003 916.041 551.245
862 0 58.0911 12.6525 735 57.0939 915.684 550.714
863 0 58.234 11.6427 678 59.5708 916.152 549.824
864 0 60.0845 12.1828 732 59.4139 916.139 548.245
865 0 62.299 12.6647 789 58.9176 916.163 548.343
866 0 64.1263 12.4442 798 60.084 915.992 545.926
867 0 68.1434 12.1655 829 60.0241 916.485 547.205
868 0 70.3591 13.2748 934 58.6113 915.793 544.056
869 0 72.2986 13.0155 941 60.7428 915.971 543.011
870 0 74.3013 12.4897 928 61.6347 915.569 541.89
871 0 77.3359 13.4737 1042 60.8676 915.394 539.466
872 0 78.4217 12.4965 980 62.8214 915.421 538.362
873 0 79.2215 12.4335 985 63.4995 915.645 537.807
874 0 82.4526 12.7346 1050 63.0981 916.129 537.504
875 0 85.2797 13.3912 1142 62.0797 915.933 536.226
876 0 88.5939 13.7368 1217 62.2301 915.523 536.094
877 0 91.5315 13.1321 1202 63.1805 915.497 535.505
878 0 92.4525 13.0878 1210 64.0818 915.95 532.441
879 0 96.6674 12.6413 1222 65.1268 916.138 532.636
880 0 99.6673 12.9732 1293 64.6032 915.732 531.092
881 0 101.744 13.3865 1362 64.1094 915.263 528.527
882 0 104.761 12.9723 1359 64.9073 915.205 525.731
883 0 107.583 13.4687 1449 64.9241 915.612 523.859
884 1 60.5913 10.8101 655 64.2351 915.672 549.892
885 0 59.3945 10.7754 640 65.1 915.888 549.275
886 0 62.1775 11.1777 695 65.9223 915.124 549.286
887 0 65.2941 11.9766 782 64.4297 915.469 548.616
888 0 66.0617 12.564 830 62.8325 915.61 547.836
889 0 68.3122 12.2233 835 63.1461 915.625 546.36
890 0 69.0679 12.5818 869 63.1162 915.852 546.716
891 0 69.0679 12.5818 869 165.163 916.842 546.674
892 0 74.242 12.796 950 62.7684 915.722 543.274
893 0 75.2486 13.276 999 67.3043 915.939 540.604
894 0 79.1484 13.4684 1066 68.182 915.85 539.975
895 0 80.4201 12.957 1042 62.523 916.453 538.226
896 0 82.3484 13.115 1080 62.2935 916.569 536.737
897 0 86.3766 12.7812 1104 62.1966 917.611 534.693
898 0 87.5428 13.422 1175 61.52 917.097 533.939
899 0 90.48 13.351 1208 61.6788 917.759 532.652
900 0 93.3646 13.549 1265 61.0174 918.362 531.099
901 0 96.6869 13.3731 1293 61.2544 918.245 529.63
902 0 98.63 13.0488 1287 62.094 918.594 526.158
903 0 99.431 12.6017 1253 63.1117 918.704 523.255
904 1 55.2394 10.7532 594 61.3367 919.421 549.759
905 0 56.1831 10.537 592 61.7652 919.718 548.907
906 0 57.2333 11.392 652 61.704 920.018 548.236
907 0 59.0625 11.8349 699 61.1745 919.635 547.552
908 0 62.0571 12.0856 750 61.172 919.495 545.856
909 0 64.0243 12.136 777 60.5199 919.905 544.467
910 0 63.0385 12.1672 767 62.3142 919.628 545.382
911 0 65.0407 12.8535 836 61.5933 919.432 544.085
912 0 68.0507 12.0205 818 62.8839 919.718 543.271
913 0 71.0687 13.1422 934 61.1949 920.444 541.704
914 0 72.2173 11.7839 851 63.8472 920.16 539.377
915 0 76.3508 13.4118 1024 59.9229 920.697 538.417
916 0 77.1686 13.2956 1026 61.7349 919.502 539.602
917 0 80.0585 12.6533 1013 62.384 920.088 538.25
918 0 85.2411 13.5615 1156 60.6834 920.863 535.343
919 0 87.2688 13.3152 1162 61.2849 920.07 534.38
920 0 88.1612 12.7267 1122 62.2371 920.053 532.41
921 0 91.2331 12.0022 1095 63.4356 920.301 531.381
922 0 95.2082 12.877 1226 62.1517 920.191 529.919
923 1 53.0445 11.4432 607 61.3674 920.755 550.338
924 0 54.0243 10.6063 573 61.9895 920.834 551.529
925 0 56.0311 11.5829 649 62.0693 920.992 549.23
926 0 60.0482 11.9071 715 61.6951 921.281 547.48
927 0 58.1666 12.1376 706 61.2663 919.715 548.482
928 0 62.1049 11.8992 739 60.9892 920.179 547.801
929 0 63.2651 12.4397 787 61.1372 919.53 546.717
930 0 65.2151 11.7457 766 61.7128 920.256 546.326
931 0 66.2125 12.5958 834 61.6487 919.909 545.275
932 0 71.1311 13.44 956 59.6883 919.94 544.123
933 0 70.1143 12.6936 890 61.4067 920.161 543.2
934 0 74.2861 12.2903 913 62.6057 919.829 541.054
935 0 75.1885 12.2891 924 62.5887 919.811 540.329
936 0 77.2783 12.6944 981 62.7095 919.6 537.703
937 0 80.1504 12.7136 1019 62.9392 919.448 538.572
938 0 81.1755 12.7378 1034 63.5812 919.475 537.374
939 0 84.1709 12.6885 1068 64.3343 919.122 535.263
940 1 46.1518 11.0722 511 64.4658 919.354 553.685
941 0 47.1067 10.0835 475 66.0358 918.709 554.451
942 0 49.2587 11.8761 585 62.6974 918.966 552.323
943 0 49.2381 11.3124 557 62.6481 919.865 551.4
944 0 52.2147 12.5252 654 62.656 918.777 551.073
945 0 53.1437 12.1745 647 63.456 918.411 551.113
946 0 55.263 12.1238 670 63.4373 918.318 549.518
947 0 62.1906 14.3752 894 58.1007 918.365 545.315
948 0 61.1906 14.3159 876 59.2432 918.099 546.803
949 0 61.2634 13.0584 800 61.5975 918.599 547.198
950 0 61.354 12.2078 749 63.5407 918.581 545.593
951 0 65.317 12.7532 833 62.4118 918.4 545.92
952 0 65.2982 12.3587 807 63.9529 917.741 544.855
953 0 68.5158 13.0189 892 62.4081 917.664 543.698
954 0 68.3534 13.1084 896 64.4554 917.685 541.728
955 0 70.2478 13.6232 957 64.047 917.489 542.094
956 0 72.3457 12.1085 876 66.1107 917.619 542.033
957 0 76.2989 12.9753 990 64.7444 917.677 538.743
958 0 77.382 13.4527 1041 64.5283 918.251 539.837
959 0 79.3007 13.3416 1058 66.0709 918.249 536.336
960 0 82.3691 12.8082 1055 66.6332 917.546 537.885
961 0 85.3797 13.3521 1140 66.2202 917.769 536.86
962 0 89.5668 13.3978 1200 66.8442 917.691 536.102
963 0 90.4441 13.6659 1236 66.9288 917.98 533.066
964 0 93.3046 14.2437 1329 65.6764 917.536 532.829
965 0 97.3781 14.0175 1365 65.9546 917.684 531.185
966 0 100.387 13.2985 1335 67.433 917.488 528.373
967 1 52.3486 10.6402 557 68.6104 918.499 553.147
968 0 55.1896 11.3065 624 67.6282 918.01 553.42
969 0 56.3466 12.5828 709 66.6573 917.44 551.291
970 0 59.2842 12.3136 730 67.026 917.218 549.551
971 0 62.2095 13.9528 868 64.0207 918.165 546.806
972 0 62.3065 13.0163 811 66.2047 918.827 547.113
973 0 63.3331 12.9158 818 66.8484 918.093 547.303
974 0 66.3764 13.7549 913 65.736 917.647 545.861
975 0 65.3772 13.3074 870 67.231 917.531 544.053
976 0 69.3618 13.8693 962 66.0239 916.922 544.268
977 0 73.2936 15.09 1106 63.4186 916.919 541.675
978 0 72.4564 13.9118 1008 66.2302 916.692 543.088
979 0 76.4134 13.3615 1021 66.8188 916.186 541.994
980 0 77.2659 13.2918 1027 67.776 916.42 541.822
981 0 81.5022 13.9383 1136 66.7298 916.059 537.935
982 0 82.2285 13.7544 1131 67.7551 915.894 535.894
983 0 84.4083 14.0981 1190 66.9513 916.282 534.557
984 0 88.4552 13.8149 1222 67.8486 915.757 534.26
985 0 91.5903 14.0408 1286 67.9495 916.11 533.334
986 0 93.5606 14.0123 1311 68.5217 916.307 531.202
987 0 96.7072 13.8149 1336 68.8518 916.445 530.733
988 0 99.4185 13.5588 1348 69.7307 916.138 529.745
989 0 103.385 14.2381 1472 68.6732 915.808 528.865
990 1 55.3432 10.4078 576 70.2483 916.533 553.786
991 0 59.3557 11.6248 690 69.9116 915.671 550.594
992 0 58.5194 12.4916 731 68.7442 915.486 548.581
993 0 61.5913 12.6479 779 68.0244 915.688 546.032
994 0 61.3334 13.0598 801 69.3396 916.429 548.089
995 0 62.3426 12.9606 808 70.4109 916.313 546.986
996 0 65.2621 12.672 827 71.4704 915.919 546.74
997 0 67.3909 13.3846 902 70.5521 916.024 546.405
998 0 70.3512 13.39 942 70.4586 915.771 543.617
999 0 71.5946 13.2692 950 71.5674 915.568 543.466
1000 0 73.5474 13.4879 992 71.6149 915.873 543.067
1001 0 76.5628 14.093 1079 70.3448 915.741 541.114
1002 0 78.5007 13.5922 1067 72.1003 915.6 542.108
1003 0 80.7701 13.6684 1104 71.75 915.377 539.166
1004 0 82.6208 13.3017 1099 72.4413 915.367 537.812
1005 1 44.5139 10.536 469 72.6162 915.757 558.136
1006 0 43.4781 11.5 500 70.88 916.366 557.474
1007 0 45.2827 11.6159 526 71.4772 915.61 556.639
1008 0 49.106 12.4628 612 70.7484 915.9 555.989
1009 0 51.0473 13.2818 678 69.3776 916.296 555.76
1010 0 52.2896 14.0181 733 69.5116 915.95 554.359
1011 0 54.0966 13.8271 748 68.8396 916.025 554.259
1012 0 56.0974 12.7992 718 72.1811 915.989 553.806
1013 0 57.1912 13.5685 776 71.4858 916.055 552.972
1014 0 59.1913 13.5662 803 71.0909 916.405 552.714
1015 0 59.1516 13.271 785 71.4115 915.513 550.994
1016 0 61.199 13.3009 814 71.6818 916.378 550.581
1017 0 61.199 12.9741 794 172.705 917.326 550.141
1018 0 64.2715 13.6452 877 70.618 917.014 548.642
1019 0 69.1928 13.4407 930 69.7892 917.506 547.757
1020 0 69.3877 13.6768 949 70.0169 916.71 546.966
1021 0 71.4161 13.2043 943 70.7253 916.66 545.678
1022 0 73.4596 14.0758 1034 68.6064 916.708 544.989
1023 0 75.3907 13.8479 1044 69.5852 916.676 542.214
1024 0 79.3089 13.5798 1077 69.6305 917.056 541.603
1025 0 82.3317 13.6521 1124 68.7705 917.221 539.551
1026 0 85.3508 14.2002 1212 67.5528 917.201 538.154
1027 1 48.2613 12.2873 593 69.027 917.676 555.282
1028 0 49.3098 11.3365 559 70.2558 918.03 554.83
1029 0 50.3443 12.633 636 68.967 917.921 553.704
1030 0 52.4884 13.1267 689 67.8752 918.209 552.319
1031 0 53.261 13.0302 694 68.0303 918.212 552.379
1032 0 56.3698 13.4469 758 66.847 918.503 550.488
1033 0 56.4542 13.2497 748 67.3342 918.533 549.463
1034 0 57.4682 13.2073 759 67.4414 918.59 547.863
1035 0 59.539 13.7725 820 67.2756 918.626 547.117
1036 0 63.592 13.1778 838 66.9165 918.856 546.976
1037 0 61.4529 13.9456 857 67.4842 918.527 544.943
1038 0 65.577 13.8463 908 66.6002 919.378 545.172
1039 0 68.4516 14.1998 972 66.142 919.42 544.014
1040 0 68.4256 13.8398 947 67.5132 919.829 542.501
1041 0 70.5364 13.8935 980 67.4051 920.395 540.761
1042 0 74.5603 13.9484 1040 66.9923 920.221 540.238
1043 0 75.3724 13.5991 1025 67.7766 920.533 538.886
1044 0 77.2618 14.0173 1083 67.4838 920.342 538.943
1045 0 81.3676 14.0965 1147 67.1168 920.922 537.895
1046 0 85.4663 13.3971 1145 68.2681 920.346 536.399
1047 0 88.6228 13.6195 1207 66.3579 920.772 534.945
1048 0 89.6 13.8728 1243 66.6508 920.638 534.952
1049 0 92.295 13.6519 1260 67.0905 920.59 532.767
1050 1 51.3827 11.0932 570 68.1281 921.353 552.088
1051 0 53.4316 11.5475 617 67.6629 920.977 552.407
1052 0 54.2582 12.3299 669 67.9552 921.656 550.855
1053 0 56.2334 11.968 673 68.5052 920.929 549.429
1054 0 57.3343 13.5172 775 66.5148 921.317 549.716
1055 0 60.5782 13.0575 791 66.8546 921.42 549.646
1056 0 62.616 13.3033 833 65.6915 921.712 549.091
1057 0 64.449 13.2663 855 66.5778 921.389 546.209
1058 0 64.4146 12.7611 822 67.9635 921.293 545.459
1059 0 68.4815 13.2591 908 66.7996 921.153 544.558
1060 0 68.5523 13.3621 916 66.8275 920.68 542.317
1061 0 71.6957 13.3062 954 66.261 920.8 542.956
1062 0 73.4595 13.5721 997 66.4343 920.915 539.383
1063 0 77.4736 13.695 1061 66.0697 920.434 539.222
1064 0 78.4105 13.4548 1055 67.072 921.07 538.482
1065 0 79.4378 13.0417 1036 68.1902 920.911 537.99
1066 0 83.3884 13.635 1137 66.9613 921.316 538.356
1067 0 86.409 13.2162 1142 67.5403 921.261 537.164
1068 0 90.384 14.4495 1306 65.6401 920.63 535.433
1069 0 91.4707 13.2392 1211 67.8068 920.121 532.758
1070 1 50.3429 10.1504 511 67.7358 920.603 553.804
1071 0 51.2903 11.3082 580 67.3259 920.233 551.384
1072 0 56.2608 12.7798 719 65.0779 920.331 550.949
1073 0 55.1612 12.5088 690 66.0261 920.004 549.959
1074 0 56.1966 11.7623 661 67.2738 919.867 550.132
1075 0 60.2794 12.6246 761 65.5177 919.288 548.711
1076 0 60.4145 12.017 726 67.4339 919.459 547.03
1077 0 62.3114 12.9992 810 66.1074 919.388 545.196
1078 0 65.4099 13.7441 899 65.1635 920.176 543.89
1079 0 67.384 12.9111 870 66.3276 919.475 544.702
1080 0 69.3721 13.0456 905 67.0541 919.215 542.432
1081 0 71.597 13.9252 997 65.9549 918.891 542.361
1082 0 72.3637 13.3216 964 67.1961 918.908 542.148
1083 0 74.2591 13.0624 970 68.9608 919.005 540.656
1084 0 77.5286 12.705 985 69.1188 918.641 540.264
1085 0 78.3316 12.9322 1013 69.8105 918.942 538.167
1086 0 83.4841 13.3199 1112 69.1322 918.997 536.321
1087 0 87.2985 13.7459 1200 68.3133 918.903 534.802
1088 0 90.2747 13.4035 1210 69.0826 919.521 533.588
1089 0 92.2962 13.5325 1249 69.8383 919.314 532.367
1090 1 54.0928 10.2417 554 68.9621 919.773 552.096
1091 0 54.0356 10.4191 563 69.2575 919.488 553.679
1092 0 57.052 12.0767 689 67.3338 918.964 552.388
1093 0 57.0934 12.5408 716 68.2346 918.915 550.825
1094 0 60.0771 12.6671 761 66.774 918.409 550.007
1095 0 62.0893 12.9008 801 67.0836 918.18 547.799
1096 0 63.1898 12.2488 774 68.093 917.871 546.871
1097 0 67.1964 12.3816 832 66.9627 917.435 544.623
1098 0 68.2315 12.8386 876 65.9167 917.562 544.194
1099 0 71.1895 12.2069 869 66.9137 917.822 543.284
1100 0 74.2967 12.6654 941 66.0053 918.02 540.617
1101 0 74.2096 12.6938 942 66.4374 917.865 540.994
1102 0 78.1491 12.2202 955 66.9958 917.594 540.994
1103 0 78.3138 12.5393 982 66.9898 917.529 538.282
1104 0 81.5076 12.6859 1034 66.2389 918.054 538.435
1105 0 85.3239 12.892 1100 65.4518 917.783 534.257
1106 0 88.4042 12.7709 1129 65.3605 917.61 534.771
1107 1 49.2107 9.20532 453 65.4989 918.596 556.945
1108 0 51.2628 10.2218 524 64.855 917.966 553.786
1109 0 51.1609 11.1218 569 64.4499 917.953 552.453
1110 0 52.0421 11.2409 585 63.8803 918.084 551.518
1111 0 57.1319 11.5347 659 64.6343 916.785 551.486
1112 0 57.0256 11.0827 632 64.8481 917.153 552.492
1113 0 60.0592 11.7384 705 62.5787 917.789 550.217
1114 0 60.1478 12.17 732 62.2049 917.802 549.471
1115 0 62.072 12.3888 769 61.9831 917.273 549.304
1116 0 63.3183 11.2764 714 63.6134 916.861 549.3
1117 0 65.1091 11.8417 771 62.9455 916.86 549.088
1118 0 66.0871 12.1355 802 62.5187 916.789 546.786
1119 0 67.0733 12.1509 815 62.4025 916.355 547.69
1120 0 70.1941 11.9953 842 62.6057 916.298 547.061
1121 0 74.3619 12.4392 925 61.3935 916.71 544.293
1122 0 76.1307 12.229 931 61.855 916.559 542.353
1123 0 78.211 12.4663 975 61.679 916.288 541.153
1124 0 81.0682 12.471 1011 61.178 916.225 541.253
1125 0 81.0782 11.6924 948 62.2025 916.481 541.664
1126 0 84.1021 12.8772 1083 61.1348 916.526 538.64
1127 0 85.1919 11.926 1016 63.253 916.167 539.473
1128 1 46.0596 9.76994 450 62.8667 915.982 557.36
1129 0 49.1094 10.1203 497 61.9416 916.451 558.078
1130 0 52.2413 11.9829 626 59.9537 917.379 554.958
1131 0 53.1859 12.2589 652 59.7224 917.649 555.322
1132 0 54.1483 11.3577 615 60.2179 916.956 555.714
1133 0 55.1089 11.6134 640 60.4703 917.152 552.664
1134 0 56.0517 12.4706 699 59.8197 916.991 554.718
1135 0 58.056 12.0573 700 60.26 916.919 551.627
1136 0 60.1265 12.5402 754 60.3859 917.475 550.483
1137 0 63.1767 12.9478 818 59.9707 917.644 551.235
1138 0 63.0538 13.0206 821 60.8697 917.118 549.007
1139 0 64.0968 12.4811 800 61.7325 916.455 549.994
1140 0 65.1221 12.5917 820 62.0878 916.78 547.257
1141 0 68.0805 13.2637 903 60.7951 917.337 548.017
1142 0 70.1706 13.0824 918 63.3192 917.808 545.68
1143 0 70.1103 13.0937 918 64.049 917.498 544.649
1144 0 73.288 13.1126 961 64.2601 917.437 542.666
1145 0 76.2343 12.9601 988 65.2571 917.933 542.956
1146 0 79.2746 14.6201 1159 62.5487 918.776 541.663
1147 0 79.3447 13.1578 1044 65.4492 918.989 540.109
1148 0 83.2553 13.7769 1147 64.8997 919.19 538.948
1149 0 85.2179 13.9173 1186 65.1594 919.614 537.989
1150 0 87.3147 13.5258 1181 66.1211 919.791 535.076
1151 0 90.4087 13.8261 1250 66.0648 919.929 534.402
1152 0 93.2987 14.5233 1355 65.4362 920.179 534.238
1153 0 95.1236 13.5508 1289 67.2552 920.319 530.426
1154 0 99.3425 13.3276 1324 67.7145 920.117 528.853
1155 1 55.0428 11.1368 613 67.0669 920.331 553.091
1156 0 56.0533 11.1144 623 67.5506 920.587 552.896
1157 0 58.0528 11.2828 655 68.0534 920.973 551.456
1158 0 59.1344 11.7022 692 67.3671 921.084 550.247
1159 0 61.1245 11.5011 703 67.8933 921.282 548.533
1160 0 63.0586 13.0355 822 67.3394 922.091 548.018
1161 0 64.0903 12.2171 783 69.2324 922.074 548.33
1162 0 65.1038 12.9332 842 68.9074 921.448 547.363
1163 0 66.1029 13.4033 886 68.3307 921.863 546.568
1164 0 68.0891 13.453 916 68.5895 922.454 545.218
1165 0 70.1484 13.1578 923 68.9534 922.714 544.379
1166 0 72.2272 12.696 917 69.5965 922.266 544.046
1167 0 74.0589 13.0437 966 69.8012 922.562 542.135
1168 0 77.2115 13.5472 1046 68.6673 923.239 542.705
1169 0 78.0827 12.8582 1004 70.5926 922.459 539.054
1170 0 81.0804 12.9871 1053 70.8699 922.169 538.983
1171 0 83.1414 12.9659 1078 71.1336 922.232 538.417
1172 0 87.1176 14.027 1222 68.9836 922.258 536.249
1173 0 88.0591 13.7408 1210 70.4132 922.308 535.784
1174 0 90.2059 13.7242 1238 70.4733 922.64 535.107
1175 0 94.1944 13.642 1285 70.414 923.072 532.988
1176 0 97.165 13.8939 1350 70.6296 922.793 530.973
1177 0 100.141 13.4311 1345 71.2595 922.646 530.648
1178 1 57.1569 11.5472 660 72.9076 923.192 552.224
1179 0 56.1016 11.1405 625 73.6496 923.586 551.03
1180 0 59.1194 11.536 682 72.8871 923.73 549.773
1181 0 61.1206 12.1236 741 71.1714 923.563 548.833
1182 0 61.1206 12.0908 739 173.564 923.568 548.767
1183 0 65.051 12.7438 829 70.9011 922.834 546.951
1184 0 67.1307 13.3322 895 69.9989 922.457 544.451
1185 0 70.1082 13.7216 962 69.0613 922.318 544.315
1186 0 73.1059 12.735 931 70.7691 921.969 542.608
1187 0 75.1372 13.0029 977 70.132 922.305 541.292
1188 0 77.1208 13.0315 1005 70.6876 922.581 539.237
1189 0 79.1294 13.5222 1070 70.1374 922.507 539.547
1190 0 82.1542 13.5842 1116 70.5833 921.44 538.028
1191 0 86.1837 14.0514 1211 69.2353 922.167 537.246
1192 0 87.1889 12.9604 1130 72.0602 921.884 535.057
1193 0 90.1902 13.3607 1205 71.3062 921.911 533.978
1194 0 95.1841 13.5317 1288 70.5551 921.959 532.143
1195 0 97.3362 13.0476 1270 71.6323 921.355 531.062
1196 1 52.1164 11.1098 579 71.019 921.287 553.936
1197 0 54.2111 12.0455 653 69.7933 921.426 552.669
1198 0 55.0893 12.1076 667 70.6732 920.991 551.816
1199 0 56.0784 11.8941 667 71.1409 921.682 551.415
1200 0 59.1776 12.0654 714 70.6401 921.356 549.091
1201 0 60.2171 12.8701 775 69.3948 920.698 549.689
1202 0 64.1079 13.8516 888 66.7477 920.705 547.966
1203 0 65.2007 12.6532 825 68.9164 920.675 546.432
1204 0 66.1428 12.9719 858 69.1177 920.681 546.52
1205 0 67.17 12.5354 842 70.0226 920.545 544.715
1206 0 69.1071 12.5023 864 69.4225 920.228 545.203
1207 0 73.1524 13.1916 965 68.628 920.319 543.515
1208 0 74.0926 13.6451 1011 68.3323 920.122 541.413
1209 0 76.1539 13.2626 1010 68.3644 919.937 541.567
1210 0 76.1539 13.3151 1014 163.975 919.944 541.444
1211 0 83.4035 13.7644 1148 66.2605 919.835 538.332
1212 0 84.2446 13.5202 1139 67.0896 919.975 536.39
1213 0 88.2178 13.614 1201 66.7777 919.403 535.421
1214 0 90.2543 14.0492 1268 66.2192 919.33 534.136
1215 0 94.3368 13.4624 1270 66.4118 919.104 533.498
1216 0 96.3455 13.1298 1265 66.9447 918.934 531.071
1217 1 54.1709 10.0977 547 67.2431 918.634 553.921
1218 0 56.4423 10.4886 592 66.5659 918.701 554.595
1219 0 57.1852 10.6146 607 66.1763 918.214 552.161
1220 0 59.0926 11.0843 655 65.745 917.982 551.209
1221 0 61.2684 11.572 709 64.646 918.068 551.062
1222 0 63.1749 12.4733 788 63.6891 917.69 548.867
1223 0 63.2393 12.6187 798 63.802 917.991 547.461
1224 0 67.1302 12.1704 817 63.7625 917.428 546.061
1225 0 70.1315 12.8616 902 61.7572 917.887 544.85
1226 0 74.2374 12.2445 909 62.0968 917.8 545.065
1227 0 74.2986 12.6382 939 62.2141 917.816 542.18
1228 0 78.1414 12.9381 1011 61.1009 917.095 541.526
1229 0 80.2211 12.1539 975 62.1436 916.976 538.977
1230 0 81.2964 12.4114 1009 61.8048 917.076 538.991
1231 0 86.3071 13.1623 1136 60.7843 917.043 536.839
1232 0 86.394 12.0494 1041 62.1354 916.635 536.624
1233 0 92.2728 12.864 1187 60.8719 916.627 534.952
1234 0 94.1394 12.8427 1209 61.0711 917.418 532.908
1235 0 96.4261 13.2744 1280 60.2516 917.253 533.09
1236 0 99.2915 12.559 1247 61.6712 917.156 531.89
1237 0 102.299 13.1477 1345 60.6454 917.219 530.348
1238 0 104.29 12.7241 1327 61.321 917.194 528.539
1239 0 108.396 13.22 1433 61.1277 916.545 526.495
1240 0 112.336 13.7712 1547 60.2243 916.662 525.173
1241 1 63.2702 10.4789 663 61.9804 916.742 549.597
1242 0 63.2702 10.4789 663 159.719 916.742 549.597
1243 0 67.2819 11.1769 752 61.2261 916.157 546.719
1244 0 70.2784 12.2655 862 59.6705 916.6 547.123
1245 0 72.2004 11.7451 848 61.0719 918.386 544.992
1246 0 73.1976 12.8556 941 59.5165 917.274 544.708
1247 0 75.2632 12.2371 921 60.4897 916.724 543.526
1248 0 77.1028 12.4898 963 62.4226 917.054 542.065
1249 0 80.2299 12.701 1019 62.5927 916.969 541.053
1250 0 83.1133 12.7898 1063 62.7893 917.045 542.169
1251 0 85.1158 12.6534 1077 64.1402 917.064 538.682
1252 0 89.2134 13.3388 1190 63.7361 916.988 535.957
1253 0 91.1067 13.1165 1195 64.6561 916.737 537.806
1254 0 95.1489 13.1793 1254 65.7616 917.142 534.049
1255 0 96.1927 13.3378 1283 65.7202 917.222 533.396
1256 0 98.1767 13.2109 1297 66.5975 917.666 532.899
1257 0 103.2 13.5659 1400 66.3664 917.791 530.554
1258 0 104.215 13.3282 1389 67.9266 918.166 527.642
1259 0 107.221 12.7774 1370 68.8124 918.463 527.596
1260 0 112.258 13.4957 1515 67.1723 918.754 524.672
1261 1 63.2027 11.914 753 67.5232 919.086 548.186
1262 0 65.1261 10.8866 709 68.921 919.264 548.894
1263 0 68.1961 12.5227 854 67.4145 919.493 545.197
1264 0 70.1363 12.932 907 66.5292 919.361 545.644
1265 0 72.2253 13.0287 941 66.9341 919.502 543.162
1266 0 75.2442 13.1705 991 66.3148 919.755 543.016
1267 0 78.0453 13.6331 1064 65.4361 919.672 541.359
1268 0 79.4166 13.2088 1049 66.6463 919.75 539.809
1269 0 81.3142 13.1219 1067 67.0834 920.037 536.893
1270 0 85.1784 13.7124 1168 65.506 919.737 535.324
1271 0 86.4209 13.1797 1139 66.791 919.836 535.172
1272 0 88.3352 13.4035 1184 66.6689 920.712 533.979
1273 0 91.2955 13.4508 1228 66.4805 920.831 532.41
1274 0 95.2467 13.3023 1267 66.1515 921.336 529.632
1275 0 98.2975 13.0929 1287 66.0971 921.568 529.224
1276 0 101.333 14.1711 1436 64.3057 921.994 525.234
1277 0 104.494 14.6707 1533 63.5701 922.046 523.504
1278 0 104.494 14.6229 1528 154.645 923.061 523.523
1279 0 110.362 13.646 1506 64.3612 921.997 519.63
1280 0 113.498 13.9121 1579 63.9899 921.732 516.88
1281 1 64.2976 10.6691 686 62.7362 921.491 544.156
1282 0 65.2036 10.7203 699 63.4621 922.654 539.791
1283 0 68.2138 11.42 779 62.3864 922.773 539.584
1284 0 70.1605 11.7445 824 62.0146 922.893 538.794
1285 0 74.2155 12.5715 933 60.7363 923.466 538.559
1286 0 75.2446 11.4427 861 62.446 923.131 539.282
1287 0 75.2446 11.4693 863 148.486 922.131 539.342
1288 0 79.2038 11.8555 939 61.9318 923.047 536.023
1289 0 83.3093 11.6193 968 61.8678 922.821 533.842
1290 0 85.2156 12.4742 1063 61.3942 922.772 531.837
1291 0 88.4677 12.4791 1104 60.8596 922.854 530.267
1292 0 91.2247 12.2883 1121 60.818 922.997 528.528
1293 0 94.3119 13.0948 1235 59.6316 922.768 526.538
1294 0 98.3961 12.7546 1255 59.1442 922.733 525.62
1295 0 100.225 12.2225 1225 60.3265 922.823 522.996
1296 0 102.297 13.1968 1350 59.8252 922.29 520.439
1297 0 104.363 12.4469 1299 60.6505 922.611 520.801
1298 0 108.192 12.3669 1338 59.923 923.323 519.749
1299 0 112.305 12.101 1359 59.4533 923.489 518.157
1300 0 112.305 12.0921 1358 144.347 922.504 518.239
1301 1 61.141 10.6802 653 58.1531 922.387 542.479
1302 0 65.1753 11.5074 750 57.2973 922.717 540.18
1303 0 68.1924 11.6289 793 58.0378 922.652 540.344
1304 0 69.2185 11.4998 796 58.0942 923.156 538.397
1305 0 72.1962 12.3414 891 57.1156 922.342 536.81
1306 0 73.2095 12.3891 907 57.2359 922.355 536.062
1307 0 75.2148 12.3114 926 57.3877 922.198 535.119
1308 0 80.1 13.0212 1043 55.5992 922.113 534.444
1309 0 82.1258 12.8583 1056 55.8684 921.986 533.49
1310 0 83.136 13.1471 1093 55.9561 922.042 530.823
1311 0 85.1374 12.3095 1048 57.0048 922.078 531.002
1312 0 90.2487 12.8312 1158 56.38 921.817 529.965
1313 0 92.2949 13.6952 1264 55.1179 921.534 526.438
1314 0 96.4473 12.1517 1172 56.7491 921.495 529.183
1315 0 101.281 13.5367 1371 54.7316 921.305 526.999
1316 0 103.289 13.9608 1442 54.8044 920.104 524.824
1317 0 106.18 12.8272 1362 56.3348 920.819 524.278
1318 0 109.256 13.3539 1459 56.1686 920.48 522.762
1319 1 61.2265 10.4857 642 55.6745 921.033 549.741
1320 0 61.3912 10.6856 656 56.3582 920.192 547.117
1321 0 65.4401 12.0263 787 54.8107 920.304 543.255
1322 0 66.4714 11.9751 796 54.8995 919.853 540.655
1323 0 67.0695 12.1963 818 54.7787 919.021 541.68
1324 0 69.1679 12.8239 887 54.0846 918.957 539.413
1325 0 72.0642 12.8774 928 55.2478 918.411 541.386
1326 0 75.0824 12.1733 914 54.5919 918.916 539.995
1327 0 78.563 13.7215 1078 54.2746 919.429 539.188
1328 0 80.4381 12.7303 1024 55.5312 919.036 539.729
1329 0 83.5667 14.1683 1184 54.2652 918.953 536.469
1330 0 85.4772 13.5592 1159 55.6972 919.151 536.336
1331 0 87.4122 13.3391 1166 56.5214 918.884 535.796
1332 0 91.349 13.3554 1220 56.0943 919.219 533.108
1333 0 94.4229 13.1324 1240 56.1024 918.639 533.437
1334 0 94.7431 13.6791 1296 57.8125 919.201 531.701
1335 0 98.5119 12.9121 1272 58.9206 918.845 529.114
1336 0 99.5195 12.8015 1274 58.9066 918.746 527.13
1337 0 104.714 12.94 1355 58.5771 918.901 524.276
1338 1 56.3348 11.3962 642 58.1449 918.766 546.65
1339 0 57.5266 11.5425 664 57.7274 918.87 545.895
1340 0 60.4103 12.3323 745 57.4564 918.711 549.064
1341 0 62.437 12.7649 797 57.0489 919.168 548.138
1342 0 62.1923 11.9951 746 58.5094 919.331 546.489
1343 0 66.3556 13.0961 869 56.9183 919.321 544.359
1344 0 68.4525 13.3523 914 56.5842 919.123 544.717
1345 0 68.3971 12.8953 882 57.2585 919.551 543.838
1346 0 73.8308 13.1788 973 56.4954 919.131 540.895
1347 0 74.6687 12.6023 941 57.3358 918.693 539.536
1348 0 76.8227 12.4442 956 57.7374 918.967 538.568
1349 0 80.6806 13.3861 1080 56.6213 918.824 536.786
1350 0 81.742 12.9187 1056 57.6364 918.357 535.634
1351 0 83.4881 13.4151 1120 57.425 917.858 534.653
1352 0 86.7145 12.8468 1114 58.482 917.636 533.808
1353 0 89.8741 12.5509 1128 58.7722 917.634 532.467
1354 0 92.5243 12.5589 1162 59.1893 917.053 531.276
1355 0 93.6171 12.5832 1178 59.4958 916.808 528.423
1356 0 97.5305 13.3907 1306 58.66 917.159 528.881
1357 0 99.5838 12.743 1269 59.7888 916.771 526.847
1358 0 103.549 13.2304 1370 59.6474 916.62 525.147
1359 1 56.388 9.54104 538 61.6301 916.926 549.351
1360 0 60.4232 11.3036 683 60.3514 916.871 547.034
1361 0 62.2929 12.0078 748 60.7941 916.082 548.801
1362 0 63.1056 12.3444 779 60.8947 916.162 549.859
1363 0 66.5096 12.8553 855 60.4877 916.315 546.71
1364 0 67.5182 12.056 814 62.1634 916.404 547.681
1365 0 68.407 12.6157 863 62.0104 916.593 546.79
1366 0 69.4994 12.403 862 62.7355 916.447 546.334
1367 0 71.2378 12.6337 900 63.7289 916.18 544.408
1368 0 74.3463 13.2085 982 62.8147 916.275 543.836
1369 0 77.4744 13.398 1038 62.8497 916.159 541.524
1370 0 77.5855 12.9277 1003 64.3918 916.527 540.37
1371 0 80.5227 12.9032 1039 62.666 916.31 540.315
1372 0 81.5826 12.0369 982 64.3737 916.443 540.018
1373 0 85.4478 12.7914 1093 63.9314 916.484 539.11
1374 0 87.5471 12.8616 1126 63.8917 916.628 537.388
1375 0 91.3872 12.9559 1184 63.8716 916.832 535.852
1376 0 93.4474 13.1197 1226 64.0204 916.128 533.857
1377 0 96.2986 13.5724 1307 63.0773 916.394 534.501
1378 0 101.518 13.3474 1355 63.7587 916.592 531.46
1379 1 58.133 10.6136 617 63.1961 916.355 555.365
1380 0 57.1569 10.8473 620 63.721 916.374 554.582
1381 0 59.2243 11.4311 677 64.6662 916.041 551.767
1382 0 61.056 11.4157 697 60.9412 915.495 551.403
1383 0 63.2259 12.1469 768 59.9049 916.559 547.904
1384 0 64.1746 12.0453 773 63.1307 916.129 549.51
1385 0 65.3978 12.2787 803 62.7746 916.174 548.06
1386 0 67.3049 12.8074 862 64.3028 916.03 548.394
1387 0 67.2796 12.8568 865 63.2786 916.917 548.914
1388 0 70.3335 13.0805 920 62.8293 916.79 548.5
1389 0 70.2282 12.9578 910 63.6835 916.356 545.593
1390 0 73.1973 13.3748 979 62.7232 916.697 544.676
1391 0 75.1561 13.6915 1029 62.6754 916.934 544.255
1392 0 77.3029 13.0655 1010 63.6802 916.939 544.087
1393 0 79.2218 13.4811 1068 63.5627 917.009 539.841
1394 0 81.2314 13.283 1079 63.8981 917.373 540.396
1395 0 85.4094 14.1436 1208 62.106 918.066 537.189
1396 0 85.3439 13.5452 1156 63.6713 917.986 534.46
1397 0 91.3901 14.356 1312 61.2332 918.143 535.346
1398 0 92.3716 13.3699 1235 63.1182 918.173 533.884
1399 0 95.3437 13.9286 1328 62.8863 918.318 531.077
1400 0 97.2756 13.6211 1325 63.4038 918.222 529.518
1401 0 100.293 14.2781 1432 62.1425 918.411 527.683
1402 0 104.291 13.6349 1422 62.9522 918.797 526.328
1403 0 107.482 14.021 1507 62.4141 919.338 524.922
1404 0 109.301 14.3549 1569 61.8929 919.796 523.792
1405 0 112.2 14.902 1672 61.1256 920.315 521.45
1406 0 115.203 14.2011 1636 62.099 920.531 519.45
1407 1 66.2614 9.76435 647 62.4961 921.869 549.167
1408 0 67.1674 11.0917 745 62.4201 921.353 546.207
1409 0 69.107 11.0987 767 62.0704 921.202 546.033
1410 0 72.1173 12.5767 907 61.3484 920.787 543.772
1411 0 74.1481 13.2977 986 59.711 920.423 543.686
1412 0 76.123 14.1219 1075 58.9935 920.833 540.3
1413 0 77.0796 13.1163 1011 60.6617 920.916 539.341
1414 0 80.1043 12.9581 1038 60.0202 921.222 539.511
1415 0 84.0441 13.481 1133 59.3071 920.914 538.428
1416 0 86.1783 13.5997 1172 59.2585 921.482 536.402
1417 0 89.1275 13.1385 1171 60.2289 921.791 533.798
1418 0 92.2736 13.4491 1241 59.6785 922.165 532.409
1419 0 96.215 13.1788 1268 59.4424 921.588 531.479
1420 0 98.1947 13.6362 1339 59.4137 921.857 529.53
1421 0 100.156 13.8983 1392 59.5632 922.23 527.272
1422 0 104.175 14.2261 1482 58.8124 922.24 526.191
1423 0 107.302 13.6158 1461 60.0842 921.898 525.654
1424 0 111.245 13.9692 1554 59.2181 921.63 522.261
1425 0 113.247 13.4132 1519 60.2087 921.325 521.14
1426 0 117.418 14.393 1690 58.8071 920.9 520.24
1427 0 120.293 12.96 1559 60.9865 920.759 519.974
1428 0 125.263 14.3458 1797 59.0356 920.546 515.483
1429 1 70.2997 9.84357 692 60.7355 920.37 546.555
1430 0 73.1993 11.7624 861 59.2997 920.31 543.315
1431 0 73.2621 11.6022 850 60.4318 919.856 542.605
1432 0 76.1909 12.0093 915 60.0656 921.108 540.678
1433 0 80.285 12.5553 1008 59.996 920.812 538.993
1434 0 83.1929 12.8857 1072 59.8722 920.143 537.443
1435 0 85.1331 12.0165 1023 62.3636 920.351 535.728
1436 0 88.3627 12.2224 1080 62.2139 919.971 533.665
1437 0 92.2499 13.6152 1256 60.4212 920.094 531.756
1438 0 93.2238 12.7972 1193 61.7443 919.899 531.268
1439 0 99.3575 13.0941 1301 61.0392 919.477 529.479
1440 0 102.2 12.6418 1292 60.2214 918.919 527.64
1441 0 106.376 13.0481 1388 59.7896 918.869 524.439
1442 0 107.253 12.6897 1361 60.8354 918.589 522.627
1443 0 113.323 12.9453 1467 60.1888 918.817 522.99
1444 0 116.18 13.2209 1536 60.2539 918.464 518.263
1445 0 118.592 12.817 1520 61.2855 918.638 518.311
1446 1 68.0596 9.69738 660 59.8303 918.362 547.029
1447 0 71.2602 9.87929 704 60.0227 918.989 543.455
1448 0 74.1193 12.345 915 58.0448 919.923 539.902
1449 0 76.3217 11.4646 875 58.1611 919.702 541.269
1450 0 76.3217 11.4777 876 157.066 919.717 541.216
1451 0 80.1428 12.8271 1028 58.9163 918.635 538.923
1452 0 83.2794 12.8123 1067 58.8913 919.089 537.313
1453 0 87.2013 13.2108 1152 58.2439 918.633 535.508
1454 0 89.1907 12.2098 1089 60.202 919.04 533.806
1455 0 92.4221 12.6918 1173 59.1603 918.818 534.324
1456 0 93.3801 12.915 1206 59.8209 918.722 531.307
1457 0 97.4311 13.0862 1275 59.8886 918.856 528.214
1458 0 100.319 13.1081 1315 59.6859 918.805 528.439
1459 1 56.1438 10.0991 567 60.2875 918.884 551.333
1460 0 57.2217 9.9962 572 60.7185 918.844 550.105
1461 0 60.1724 10.6195 639 59.6307 918.767 549.936
1462 0 62.0464 11.7654 730 58.4945 919.042 547.858
1463 0 63.1663 11.3193 715 58.8559 918.729 548.838
1464 0 64.069 11.9559 766 59.0235 918.572 547.414
1465 0 67.1021 12.2053 819 58.3468 918.77 547.504
1466 0 69.1593 12.1892 843 58.0451 918.688 546.724
1467 0 71.1991 12.7389 907 58.011 918.448 546.01
1468 0 72.3242 12.6375 914 58.5788 918.289 544.784
1469 0 73.3836 12.1417 891 59.3322 918.336 545.02
1470 0 77.2617 14.0302 1084 56.8653 917.234 543.506
1471 0 78.4203 12.9941 1019 58.84 917.395 540.563
1472 0 79.3307 12.5803 998 59.8758 917.584 541.043
1473 0 84.4501 12.7176 1074 59.2933 917.395 538.92
1474 0 85.4141 12.7379 1088 59.7353 917.208 538.682
1475 0 90.4011 13.2742 1200 57.6317 916.638 538.908
1476 0 90.5069 12.5184 1133 59.797 916.239 535.971
1477 0 93.5454 12.828 1200 59.2075 915.593 536.564
1478 1 52.4714 11.187 587 58.3305 916.037 556.767
1479 0 52.382 11.3016 592 59.5625 915.581 556.291
1480 0 56.2899 11.1032 625 58.4064 916.861 556.093
1481 0 56.265 12.37 696 57.9497 916.431 555.609
1482 0 57.3112 12.1791 698 58.0659 916.054 551.54
1483 0 59.1696 11.9656 708 58.7189 916.619 549.095
1484 0 60.665 13.1048 795 57.8491 916.258 547.776
1485 0 71.7381 14.9711 1074 51.9758 916.337 542.974
1486 0 72.7096 16.4077 1193 50.9916 916.982 542.996
1487 0 72.3598 14.8287 1073 54.2171 916.822 544.108
1488 0 71.537 14.8455 1062 55.1629 916.785 541.713
1489 0 70.471 14.8714 1048 56.2347 916.314 544.01
1490 0 72.6152 13.0551 948 59.2605 916.084 543.037
1491 0 73.2962 13.1794 966 60.1915 916.177 547.106
1492 0 74.4716 13.1862 982 61.0204 915.997 543.897
1493 0 78.689 13.6487 1074 60.0065 916.479 544.226
1494 0 78.689 13.6232 1072 165.756 917.492 544.243
1495 0 82.3279 14.0293 1155 59.9766 916.553 542.625
1496 0 85.3638 13.9638 1192 60.7617 916.624 540.73
1497 0 87.4959 13.9207 1218 61.2997 916.721 538.776
1498 0 92.4021 13.8958 1284 60.5522 916.722 539.143
1499 0 93.3611 13.5603 1266 63.1406 916.65 535.82
1500 0 96.3763 13.4888 1300 63.7 916.877 535.756
1501 0 99.2424 13.3411 1324 64.148 916.881 533.19
1502 0 103.481 14.3021 1480 62.6162 916.966 532.925
1503 1 57.2321 11.2874 646 64.1718 916.909 555.32
1504 0 59.453 11.7908 701 63.6633 916.735 551.94
1505 0 59.345 12.5369 744 63.1035 916.836 551.577
1506 0 60.2511 12.7633 769 63.6099 917.09 552.945
1507 0 62.197 12.4765 776 64.5464 917.483 549.277
1508 0 63.4306 12.9748 823 63.6148 917.649 550.39
1509 0 66.1792 13.3577 884 63.474 917.828 546.814
1510 0 69.2464 13.9502 966 61.4213 918.255 545.717
1511 0 70.1504 13.5281 949 62.3804 918.372 545.795
1512 0 73.2348 12.8627 942 63.1635 919.133 545.706
1513 0 76.2643 13.4794 1028 62.9222 919.194 543.312
1514 0 77.2644 13.3438 1031 63.2066 919.575 542.692
1515 0 80.232 12.9375 1038 64.2938 919.212 541.217
1516 0 83.1303 14.6637 1219 61.6735 919.684 539.131
1517 0 86.1575 13.6494 1176 63.2832 919.412 537.889
1518 0 88.284 14.1815 1252 62.4856 920.055 537.614
1519 0 90.3815 13.5315 1223 63.4857 919.733 533.674
1520 0 94.2288 14.3056 1348 62.9251 920.639 529.12
1521 0 95.3588 13.5278 1290 64.0543 920.565 531.569
1522 0 100.315 13.9859 1403 65.0827 920.604 531.178
1523 0 103.196 14.0703 1452 63.3891 920.716 528.795
1524 0 105.25 13.8812 1461 63.7817 921.043 524.936
1525 0 111.294 14.1697 1577 62.2555 921.394 525.504
1526 0 114.266 13.9411 1593 62.823 921.156 521.864
1527 1 62.1627 12.0169 747 62.8527 921.799 547.365
1528 0 66.0838 12.2874 812 62.5148 921.555 546.711
1529 0 67.0641 13.0025 872 62.7706 921.427 545.078
1530 0 68.0244 13.1423 894 62.3244 921.353 544.433
1531 0 70.2207 13.3152 935 62.4845 921.228 543.158
1532 0 72.2261 13.8454 1000 62.744 921.154 542.179
1533 0 74.0778 14.0663 1042 62.6171 920.996 540.348
1534 0 75.078 13.4394 1009 64.3142 920.831 539.05
1535 0 81.2166 13.9257 1131 62.9567 921.343 539.626
1536 0 84.1878 13.9925 1178 63.3031 921.137 536.39
1537 0 85.1538 13.963 1189 64.0017 921.288 535.267
1538 0 88.3519 13.9895 1236 63.9547 920.642 533.78
1539 0 91.1769 14.4773 1320 63.3758 920.847 533.356
1540 0 94.1824 14.3233 1349 63.4025 920.941 532.554
1541 0 97.5188 14.2844 1393 63.6231 921.03 529.538
1542 0 99.2947 14.1196 1402 64.0963 920.419 530.843
1543 0 104.321 15.3756 1604 62.0898 921.017 527.484
1544 0 105.159 14.5303 1528 63.9849 921.052 525.988
1545 0 109.215 13.7344 1500 64.8107 921.158 525.764
1546 0 113.151 14.5292 1644 63.6569 920.729 523.377
1547 0 116.383 14.1001 1641 64.1012 920.098 522.194
1548 1 64.1129 11.9477 766 65.2624 920.037 547.187
1549 0 67.2746 12.3226 829 63.883 919.637 548.177
1550 0 69.0542 13.0477 901 64.1498 919.452 544.307
1551 0 72.1764 12.7188 918 64.5283 919.66 544.661
1552 0 74.0871 14.3615 1064 62.875 919.896 543.646
1553 0 76.233 13.1439 1002 64.7275 918.85 541.921
1554 0 78.1175 13.1853 1030 64.3592 918.554 541.483
1555 0 82.2453 14.9796 1232 62.5195 918.734 539.713
1556 0 84.2955 13.5594 1143 64.7603 918.423 536.832
1557 0 87.2619 13.2933 1160 64.7509 918.141 537.468
1558 0 90.1811 14.2824 1288 63.75 918.36 536.062
1559 0 94.2688 13.9176 1312 64.4573 918.811 534.03
1560 0 97.1159 14.4364 1402 63.8859 918.33 531.378
1561 0 98.5131 13.9068 1370 65.2715 918.321 531.399
1562 0 104.242 14.7733 1540 63.7299 918.041 530.088
1563 0 105.197 13.9834 1471 65.722 918.133 527.34
1564 0 109.235 13.8601 1514 65.5357 918.41 526.69
1565 0 113.2 14.1166 1598 65.2791 917.489 524.017
1566 1 62.1731 11.9987 746 65.6542 917.346 547.91
1567 0 64.2242 12.6276 811 64.7891 916.894 548.242
1568 0 67.2448 13.3839 900 64.2333 916.571 545.999
1569 0 69.1535 12.8121 886 64.4887 916.669 545.454
1570 0 73.1401 14.2466 1042 62.404 916.278 544.699
1571 0 73.124 14.0583 1028 62.5613 916.494 543.528
1572 0 77.064 13.3396 1028 63.3609 916.382 542.207
1573 0 81.1892 14.3861 1168 61.2072 916.634 540.854
1574 0 82.1936 14.4902 1191 61.4072 917.257 540.628
1575 0 85.1799 14.3226 1220 61.8877 917.264 538.747
1576 0 88.3557 13.7399 1214 62.4967 917.34 538.474
1577 0 90.1643 13.6861 1234 62.6702 917.554 537.111
1578 0 94.276 13.4711 1270 62.3583 917.131 535.919
1579 0 98.1749 13.6287 1338 62.5314 916.297 533.039
1580 0 99.18 13.9948 1388 62.5331 916.269 532.543
1581 0 102.324 14.3173 1465 62.5345 916.313 529.459
1582 0 106.187 13.5516 1439 63.4093 916.393 528.864
1583 0 109.351 13.8819 1518 62.7095 916.478 526.864
1584 0 111.251 13.7887 1534 62.7405 916.117 526.808
1585 0 113.25 13.6336 1544 63.0784 916.18 524.699
1586 0 119.185 13.4497 1603 62.6631 916.396 522.549
1587 0 123.225 14.8834 1834 60.7579 916.262 519.349
1588 1 64.2005 11.3083 726 62.3154 915.467 549.402
1589 0 68.2839 12.4627 851 61.0717 914.91 548.109
1590 0 70.2882 12.2211 859 60.5879 915.271 546.872
1591 0 71.3514 12.2352 873 60.5315 916.036 543.711
1592 0 74.3858 12.8519 956 59.4874 916.298 541.777
1593 0 78.3118 13.2164 1035 59.8647 915.968 542.065
1594 0 79.2476 12.5934 998 60.2455 915.781 539.92
1595 0 84.2263 13.3925 1128 58.8014 916.206 539.151
1596 0 84.2263 13.3569 1125 154.166 917.2 539.051
1597 0 90.3479 12.961 1171 59.1332 916.775 536.815
1598 0 91.2491 13.1837 1203 59.1496 917.102 535.676
1599 0 95.2434 13.7962 1314 58.6005 916.967 532.221
1600 0 97.4806 13.7566 1341 58.6353 917.204 532.166
1601 0 101.271 13.9922 1417 58.055 917.188 530.003
1602 0 104.423 14.3359 1497 57.5451 917.332 527.071
1603 0 105.418 13.233 1395 59.0832 917.063 528.649
1604 0 108.236 14.0156 1517 58.8293 917.064 525.309
1605 0 113.403 13.6064 1543 58.711 917.373 524.136
1606 0 117.27 14.5305 1704 57.4759 917.246 519.711
1607 1 66.1466 12.0943 800 58.245 917.6 547.059
1608 0 67.1425 12.2724 824 58.2888 917.586 548.154
1609 0 69.1196 12.0082 830 58.1759 918.843 545.569
1610 0 71.051 13.0188 925 57.7719 918.244 543.157
1611 0 75.1313 12.6445 950 58.7684 918.893 541.796
1612 0 78.0396 12.955 1011 58.3907 918.865 542.86
1613 0 79.1591 13.2771 1051 58.5347 919.524 541.133
1614 0 82.1188 13.724 1127 57.8864 919.607 541.507
1615 0 84.139 13.133 1105 58.6968 919.662 538.868
1616 0 88.1875 12.7116 1121 59.6334 920.281 535.898
1617 0 88.119 13.3683 1178 59.8149 920.404 534.143
1618 0 93.2671 13.0164 1214 60.4745 920.709 532.138
1619 0 95.2164 12.8444 1223 60.5364 920.734 531.541
1620 0 99.1565 13.7157 1360 59.5779 920.822 529.559
1621 0 102.251 13.731 1404 59.7208 921.511 527.94
1622 0 103.373 12.8467 1328 60.8599 921.306 526.321
1623 0 107.291 13.2723 1424 60.4586 921.404 523.122
1624 0 109.28 13.2869 1452 60.5303 921.689 521.561
1625 0 113.259 13.244 1500 60.3387 921.697 518.375
1626 0 116.266 12.4026 1442 61.1886 921.623 517.723
1627 0 120.305 13.5489 1630 59.4356 921.364 514.52
1628 1 68.0594 11.8573 807 57.6667 921.28 543.302
1629 0 69.1325 11.1091 768 59.7826 922.361 541.509
1630 0 71.1297 12.906 918 57.0599 922.514 539.582
1631 0 73.1186 12.8011 936 57.1261 922.331 539.661
1632 0 75.1278 12.5919 946 58.7907 922.068 538.615
1633 0 77.2668 12.3598 955 59.1487 921.801 536.031
1634 0 80.1121 13.0567 1046 58.4426 921.973 533.884
1635 0 83.1194 12.7648 1061 58.4948 921.781 534.161
1636 0 85.2536 12.5625 1071 59.7012 922.153 533.628
1637 0 87.3064 12.3359 1077 60.0474 922.103 531.803
1638 0 91.1856 13.4451 1226 59.3238 921.966 530.214
1639 0 92.2141 13.024 1201 60.6345 921.609 528.201
1640 0 97.1599 12.8345 1247 60.5525 921.596 527.993
1641 0 98.1722 13.7921 1354 59.89 922.275 526.107
1642 0 102.263 13.6902 1400 59.4507 922.248 524.487
1643 0 104.169 13.5452 1411 60.7597 922.229 524.267
1644 0 106.304 13.2638 1410 61.0106 922.143 522.347
1645 1 61.2076 11.0934 679 60.5758 921.552 548.464
1646 0 64.1078 11.9954 769 60.4083 921.386 546.111
1647 0 65.2259 12.1118 790 61.0316 921.475 543.966
1648 0 65.077 11.909 775 61.6529 921.255 544.363
1649 0 68.363 13.4429 919 60.4353 921.35 541.775
1650 0 70.0854 13.826 969 60.3715 921.117 541.014
1651 0 72.2662 13.6163 984 61.3689 920.841 540.2
1652 0 74.24 13.4564 999 62.045 921.084 538.071
1653 0 77.1815 14.4853 1118 60.636 921.122 536.413
1654 0 78.3994 13.4185 1052 62.0057 921.27 537.494
1655 0 80.2658 14.0035 1124 61.6948 920.385 536.106
1656 0 83.2542 13.5128 1125 62.4204 920.183 534.761
1657 0 86.2725 14.2803 1232 61.03 919.988 534.119
1658 0 89.1824 14.4984 1293 61.2382 920.641 530.026
1659 0 92.3139 14.6673 1354 60.5214 920.021 529.741
1660 0 93.1952 14.3677 1339 61.6169 919.774 527.972
1661 0 97.1613 14.7693 1435 60.9115 919.812 526.882
1662 0 99.1786 14.8016 1468 60.9475 919.815 525.166
1663 0 103.408 14.8538 1536 60.9473 919.328 523.529
1664 0 103.408 14.8538 1536 167.999 918.328 523.529
1665 0 109.27 14.4596 1580 61.7373 919.269 521.451
1666 0 115.683 15.1103 1748 60.3902 918.887 518.261
1667 0 118.33 15.1441 1792 59.0686 918.974 515.496
1668 1 62.2624 12.3831 771 61.406 918.512 545.571
1669 0 64.3997 12.3914 798 61.5113 918.784 542.982
1670 0 68.3052 14.201 970 59.5103 918.744 540.329
1671 0 69.2919 13.8544 960 59.476 918.927 540.545
1672 0 73.3712 14.1063 1035 58.7749 918.952 540.139
1673 0 77.3904 14.9114 1154 57.1231 918.666 539.28
1674 0 77.3364 14.7408 1140 57.664 918.611 538.111
1675 0 81.6976 14.4068 1177 57.8301 918.093 535.401
1676 0 84.4784 14.8559 1255 56.9402 918.288 535.259
1677 0 84.2334 14.3767 1211 58.1181 917.986 534.663
1678 0 88.4204 15.0305 1329 57.5809 917.913 532.667
1679 0 93.4286 14.5673 1361 57.6201 917.528 531.765
1680 0 95.3388 15.125 1442 57.0014 917.865 529.27
1681 0 98.2495 15.5522 1528 56.5223 918.01 529.289
1682 0 100.338 15.4876 1554 56.8115 918.16 527.098
1683 0 105.576 14.3878 1519 58.0843 917.899 525.34
1684 1 54.5395 13.0364 711 58.2377 918.208 549.325
1685 0 57.5008 11.9824 689 59.1335 917.54 549.343
1686 0 58.3325 13.3888 781 58.5045 917.274 547.225
1687 0 60.2547 14.0404 846 57.7459 917.038 547.091
1688 0 64.3213 13.6969 881 57.9319 917.388 544.91
1689 0 66.5699 14.2407 948 57.2099 917.152 543.227
1690 0 67.2844 14.788 995 56.6704 916.868 544.072
1691 0 69.3658 14.4452 1002 57.1766 916.471 542.56
1692 0 73.5276 13.9811 1028 57.6605 916.334 540.37
1693 0 75.4126 14.7323 1111 57.1539 915.878 539.38
1694 0 77.4075 13.9263 1078 57.9156 916.441 539.183
1695 0 82.4384 14.3622 1184 57.1757 916.133 538.951
1696 0 82.3549 14.4861 1193 57.824 916.103 536.924
1697 0 86.2045 15.2312 1313 57.3153 916.452 534.323
1698 0 90.4168 14.588 1319 57.5186 916.309 534.252
1699 0 92.4266 14.9849 1385 57.3935 916.427 532.493
1700 0 95.3503 14.41 1374 58.0953 916.422 531.715
1701 0 98.3377 14.6536 1441 57.9931 916.072 531.635
1702 0 102.337 14.6476 1499 58.1174 915.935 528.33
1703 1 51.107 12.0923 618 60.3576 914.935 550.977
1704 0 54.1024 11.6631 631 60.8415 914.662 550.945
1705 0 54.1681 12.092 655 61.2107 914.924 550.887
1706 0 55.1299 12.3708 682 61.0572 914.393 549.672
1707 0 60.1381 13.6685 822 58.9319 914.899 548.56
1708 0 63.1188 13.4191 847 58.7308 915.214 546.726
1709 0 65.1374 13.817 900 58.5922 915.072 545.633
1710 0 64.2034 13.4417 863 59.9791 914.773 544.477
1711 0 71.1192 13.9484 992 58.3246 915.486 544.569
1712 0 73.2232 14.3261 1049 57.6997 915.225 543.947
1713 0 75.3221 13.7277 1034 59.0068 915.358 543.003
1714 0 77.2863 15.4879 1197 57.2114 915.746 539.596
1715 0 80.1462 14.1991 1138 58.7135 916.248 540.057
1716 0 84.1476 14.0111 1179 59.1094 916.277 540.378
1717 0 86.4257 14.3476 1240 58.2895 916.792 539.874
1718 0 88.1587 15.8464 1397 56.7022 917.401 535.996
1719 0 90.2964 14.7514 1332 58.6141 916.907 535.072
1720 0 93.183 14.3267 1335 59.3483 916.727 533.819
1721 0 94.1782 14.4407 1360 59.6551 917.526 530.967
1722 0 97.2228 14.2251 1383 59.7614 916.907 532.144
1723 0 102.189 15.354 1569 58.0484 917.431 531.256
1724 0 102.272 14.3833 1471 60.0578 917.572 528.209
1725 0 106.323 15.3307 1630 58.762 917.689 526.148
1726 0 110.346 15.0526 1661 59.6213 917.806 524.485
1727 0 114.315 15.3523 1755 59.2587 917.481 523.775
1728 0 117.232 15.2944 1793 59.4813 918.139 522.017
1729 0 121.296 15.2272 1847 59.0152 918.264 520.342
1730 0 125.222 14.5023 1816 59.7594 918.076 518.59
1731 0 130.233 15.2495 1986 59.1395 918.328 515.179
1732 0 134.41 15.1699 2039 58.974 918.638 512.857
1733 0 139.358 15.6216 2177 58.4368 918.799 511.36
1734 0 142.226 14.716 2093 59.6044 919.621 510.972
1735 0 147.203 15.3665 2262 59.6804 920.051 505.893
1736 0 153.391 15.3399 2353 60.5359 920.023 505.554
1737 0 156.219 14.6845 2294 62.5545 919.877 498.818
1738 0 162.221 16.2802 2641 60.593 920.557 497.508
1739 1 91.0846 13.0758 1191 62.0949 920.371 532.47
1740 0 92.1161 13.1899 1215 62.7926 920.522 530.139
1741 0 96.0937 12.9561 1245 63.5735 921.179 527.719
1742 0 98.0635 13.6238 1336 62.881 920.603 526.77
1743 0 101.155 13.9786 1414 62.4958 920.999 525.05
1744 0 107.121 13.9002 1489 61.8274 921.369 523.076
1745 0 110.264 14.5106 1600 61.5331 921.649 520.331
1746 0 114.323 14.2141 1625 62.1126 921.556 516.521
1747 0 118.198 13.6466 1613 62.3844 922.082 515.831
1748 0 121.233 13.5689 1645 62.6152 922.833 514.026
1749 1 71.0973 9.67688 688 61.1119 922.932 544.179
1750 0 73.1055 10.9431 800 59.7738 923.184 540.821
1751 0 75.1141 10.4241 783 60.7114 923.566 539.925
1752 0 78.1269 11.4685 896 60.0971 924.051 537.527
1753 0 80.0683 12.0772 967 59.8645 924.085 534.727
1754 0 83.2041 12.4273 1034 59.2785 923.876 534.799
1755 0 85.1001 11.5041 979 60.8836 923.654 530.605
1756 0 87.3499 11.6199 1015 61.2709 923.906 531.58
1757 0 92.1591 12.2506 1129 60.3995 923.754 530.141
1758 0 92.3502 12.3227 1138 60.9271 923.685 526.916
1759 0 99.3561 12.0878 1201 60.9234 923.844 525.482
1760 0 99.3797 12.1755 1210 61.5868 923.448 526.04
1761 0 104.291 12.8008 1335 60.4861 923.616 523.241
1762 0 106.32 12.4905 1328 61.3434 923.181 520.888
1763 0 108.374 11.7371 1272 62.3836 923.434 519.944
1764 0 112.207 12.3878 1390 61.9791 922.471 517.67
1765 0 116.445 12.289 1431 61.5786 922.314 517.345
1766 0 119.312 12.7648 1523 61.0007 922.478 513.681
1767 0 121.531 12.6223 1534 61.3377 922.361 512.511
1768 1 73.1935 10.8889 797 58.4003 922.856 537.737
1769 0 76.2603 10.4773 799 58.9762 922.89 537.477
1770 0 76.2052 10.2618 782 59.0844 923.173 538.143
1771 0 78.1729 11.3339 886 58.6806 922.467 535.142
1772 0 82.1505 12.5745 1033 57.8045 922.427 533.563
1773 0 83.2876 11.1181 926 59.865 922.046 533.016
1774 0 86.3141 12.3387 1065 58.4423 921.915 531.212
1775 0 90.4087 12.2776 1110 57.5676 921.997 530.32
1776 0 91.3297 12.2742 1121 58.4594 921.342 529.121
1777 0 95.4289 11.726 1119 58.9491 921.401 526.425
1778 0 98.3316 12.3256 1212 59.0883 921.288 527.019
1779 0 100.246 13.5466 1358 57.863 922.049 524.941
1780 0 102.37 12.3669 1266 59.2946 921.763 522.768
1781 0 106.579 11.597 1236 59.856 921.256 522.561
1782 1 61.3073 9.28111 569 58.4042 922.401 546.88
1783 0 62.2066 9.40414 585 58.6256 922.048 545.598
1784 0 64.2209 10.713 688 56.8634 921.727 544.509
1785 0 67.3047 11.9457 804 54.7463 920.903 545.255
1786 0 68.2785 11.0869 757 56.1519 920.852 541.857
1787 0 71.1421 10.9359 778 55.919 921.296 543.829
1788 0 72.1792 10.8203 781 55.9142 919.832 542.878
1789 0 75.1846 11.9439 898 55.5746 919.278 539.561
1790 0 77.3479 11.6099 898 55.7283 919.695 539.072
1791 0 80.1911 12.757 1023 54.478 919.326 538.485
1792 0 81.1896 11.8981 966 55.6646 919.066 538.183
1793 0 84.1734 12.201 1027 55.3914 919.347 536.792
1794 0 86.1869 11.9044 1026 56.0117 919.493 535.452
1795 0 87.1427 12.5885 1097 55.701 919.077 534.283
1796 0 91.5469 12.1249 1110 56.0081 919.314 532.918
1797 0 91.5469 12.1686 1114 148.408 920.317 532.925
1798 0 98.2761 13.1873 1296 55.9884 918.664 529.737
1799 0 99.3363 13.1674 1308 56.039 918.693 528.99
1800 0 101.367 12.3215 1249 56.9664 918.484 528.424
1801 0 107.434 13.3291 1432 55.9693 918.253 526.214
1802 0 108.285 12.7903 1385 56.9834 918.297 523.564
1803 1 63.3488 10.3238 654 55.7691 918.318 550.02
1804 0 65.1961 10.5374 687 56.5531 918.457 548.004
1805 0 67.0832 10.7628 722 56.6468 919.007 546.194
1806 0 70.1277 11.6787 819 56.0244 918.79 545.496
1807 0 72.2367 12.4452 899 54.5729 918.291 544.269
1808 0 73.1831 12.8172 938 54.3081 918.707 542.567
1809 0 73.2069 12.3759 906 55.1645 919.114 543.071
1810 0 77.2486 12.4015 958 54.8862 918.815 542.439
1811 0 79.1531 11.6609 923 55.8711 919.341 541.219
1812 0 81.2062 11.8956 966 55.9058 918.981 541.532
1813 0 85.1528 13.235 1127 53.9468 919.053 538.98
1814 0 87.137 12.6582 1103 54.913 919.223 537.213
1815 0 87.321 12.4483 1087 56.1426 919.202 537.316
1816 0 91.2325 12.9011 1177 55.825 919.134 534.998
1817 0 95.4456 14.207 1356 53.5538 918.91 534.796
1818 0 98.4057 13.5663 1335 54.5086 918.937 532.19
1819 0 100.292 13.5803 1362 55.1167 918.495 528.938
1820 0 102.317 13.7612 1408 54.7443 919.268 528.976
1821 0 104.317 12.9413 1350 55.8281 918.899 528.281
1822 0 107.281 13.749 1475 55.1322 918.871 525.273
1823 0 109.4 13.6654 1495 55.3338 918.896 523.121
1824 0 114.4 13.986 1600 54.7731 918.859 520.824
1825 0 118.46 13.2956 1575 55.7232 919.126 520.515
1826 0 119.434 13.7398 1641 55.6069 919.135 518.804
1827 0 123.578 13.8779 1715 55.5493 919.159 516.063
1828 0 125.334 13.6037 1705 56.4282 919.36 513.185
1829 0 130.332 14.6395 1908 54.7374 919.573 514.151
1830 0 132.392 14.2002 1880 54.8452 920.119 512.162
1831 0 135.157 13.3104 1799 56.398 920.429 510.487
1832 0 139.596 13.4244 1874 56.3351 920.395 506.157
1833 1 81.192 10.6661 866 55.5185 920.51 539.505
1834 0 81.2353 11.1774 908 55.6278 920.748 537.443
1835 0 84.1853 11.5578 973 56.1521 920.573 533.838
1836 0 88.2183 12.231 1079 54.7201 920.444 532.964
1837 0 92.1074 13.4625 1240 53.6774 920.678 531.016
1838 0 95.1099 13.6053 1294 53.7813 921.019 527.57
1839 0 97.3073 13.5858 1322 53.9584 921.235 527.325
1840 0 101.199 13.9428 1411 53.3622 921.471 525.157
1841 0 103.316 12.273 1268 55.2776 921.443 524.83
1842 0 109.372 13.413 1467 54.1282 921.871 520.907
1843 0 111.459 12.4172 1384 54.8671 922.529 519.832
1844 0 116.305 13.8859 1615 53.195 922.936 518.618
1845 0 118.368 12.7399 1508 55.063 922.405 516.341
1846 0 124.299 13.2342 1645 54.2237 922.598 515.162
1847 0 126.345 13.7956 1743 53.5273 922.966 512.139
1848 0 130.263 13.5803 1769 53.9271 922.779 508.713
1849 0 134.548 13.4748 1813 53.8505 922.755 508.784
1850 0 138.269 13.0542 1805 54.5717 922.936 506.611
1851 0 144.565 13.717 1983 53.4639 923.111 504.434
1852 0 150.396 13.6705 2056 52.9553 923.598 504.013
1853 1 82.2745 11.802 971 52.8496 923.702 535.765
1854 0 86.2791 10.6862 922 52.7484 923.915 534.361
1855 0 89.1332 12.6777 1130 51.4929 923.638 531.243
1856 0 90.3866 13.044 1179 51.2392 923.613 528.024
1857 0 95.2096 12.4672 1187 51.8147 924.014 528.488
1858 0 100.235 13.0593 1309 50.7364 923.741 525.94
1859 0 103.269 13.3148 1375 50.4793 924.168 523.002
1860 0 104.275 13.5507 1413 50.9816 923.962 522.362
1861 0 108.362 13.2057 1431 51.1796 923.931 522.832
1862 0 109.293 13.1482 1437 51.5894 923.322 521.536
1863 0 113.4 12.6631 1436 52.2563 923.127 520.131
1864 0 118.286 13.4082 1586 51.5044 922.885 518.044
1865 0 122.456 13.6376 1670 51.3431 922.308 516.443
1866 0 126.4 14.4145 1822 50.7398 921.89 513.813
1867 0 126.366 12.5113 1581 53.1322 921.956 512.203
1868 0 132.498 14.6191 1937 51.142 922.191 511.093
1869 0 137.335 14.0896 1935 51.5726 921.782 507.395
1870 0 139.248 13.8243 1925 52.1584 922.362 508.703
1871 0 144.368 14.2413 2056 51.0355 922.049 503.722
1872 0 147.375 13.9237 2052 51.5663 922.019 502.018
1873 0 152.4 14.311 2181 51.3778 922.177 499.02
1874 0 155.439 13.5295 2103 52.5435 921.761 497.393
1875 0 163.27 13.9462 2277 52.0268 921.838 495.772
1876 0 168.318 14.3954 2423 51.7854 921.769 493.48
1877 0 174.524 14.0783 2457 52.0102 921.796 487.912
1878 0 180.434 14.7312 2658 51.667 921.875 489.476
1879 0 184.296 14.7209 2713 51.9429 921.341 483.964
1880 0 191.243 14.5261 2778 52.0569 920.64 486.254
1881 0 195.258 14.9649 2922 52.1899 921.36 476.973
1882 0 195.258 15.0058 2930 163.813 921.353 476.958
1883 0 208.477 15.4022 3211 52.2457 920.506 474.649
1884 0 215.544 15.6905 3382 52.0308 920.3 469.719
1885 0 219.44 15.175 3330 53.7778 920.061 467.788
1886 0 226.53 15.0312 3405 53.9216 919.769 465.379
1887 0 233.342 15.1966 3546 54.2673 919.499 463.562
1888 1 58.0634 10.9363 635 50.9827 917.879 548.006
1889 0 59.1203 10.4871 620 51.4516 917.982 547.976
1890 0 62.0968 12.4644 774 49.9922 918.093 547.061
1891 0 64.0815 11.9067 763 49.9318 918.818 548.975
1892 0 66.1163 11.9033 787 50.6125 919.107 546.301
1893 0 66.106 12.2531 810 50.1852 919.348 545.978
1894 0 69.1269 12.166 841 50.799 919.197 545.954
1895 0 71.117 12.4583 886 50.6806 919.156 542.175
1896 0 75.105 12.649 950 50.6442 918.787 543.179
1897 0 76.18 12.1817 928 51.4741 919.122 542.544
1898 0 79.243 12.8213 1016 51.3947 918.775 540.565
1899 0 82.1248 12.5297 1029 51.6492 918.675 541.017
1900 0 84.142 12.0629 1015 52.3261 918.415 539.086
1901 0 88.1806 12.7012 1120 51.3429 918.076 537.416
1902 0 90.1662 12.6655 1142 52.2145 918.243 535.106
1903 0 92.1035 11.9648 1102 53.4301 917.473 534.383
1904 0 96.1779 12.9968 1250 52.08 917.63 532.877
1905 0 97.2137 12.2719 1193 53.083 917.163 531.992
1906 0 101.248 12.6817 1284 52.4408 916.508 530.741
1907 1 57.0967 9.75539 557 50.9982 916.131 554.864
1908 0 59.0703 10.3944 614 51.873 916.95 551.471
1909 0 60.1108 11.2625 677 51.9926 916.539 551.412
1910 0 63.1336 11.9429 754 50.9297 916.275 552.211
1911 0 62.2012 12.2345 761 51.958 916.535 550.607
1912 0 66.2658 12.2386 811 51.746 916.37 549.28
1913 0 65.3568 11.1083 726 53.3747 916.223 550.375
1914 0 67.0985 11.729 787 52.77 916.455 547.442
1915 0 70.3173 12.6427 889 52.5062 916.153 546.062
1916 0 72.12 13.6162 982 51.558 916.586 547.267
1917 0 72.2583 12.6076 911 53.865 916.173 546.239
1918 0 74.3278 13.3059 989 53.7078 915.669 546.509
1919 0 77.2663 14.1459 1093 54.1693 915.927 544.027
1920 0 79.3876 12.9491 1028 55.6926 917.659 543.235
1921 0 80.0969 13.8457 1109 55.6546 917.322 540.318
1922 0 82.2673 13.4075 1103 57.0689 917.498 540.129
1923 0 83.2682 14.099 1174 56.7743 916.888 539.095
1924 0 87.2551 13.2943 1160 57.7784 916.824 537.89
1925 0 88.5129 14.1787 1255 57.4159 916.106 536.042
1926 0 93.347 14.7728 1379 55.9362 916.041 535.925
1927 0 92.312 13.8335 1277 58.4221 916.077 536.359
1928 0 95.2404 13.7862 1313 58.9459 915.814 533.808
1929 0 97.302 14.1826 1380 58.7196 915.576 531.2
1930 0 101.465 14.4878 1470 58.0211 915.974 531.224
1931 0 103.424 13.5462 1401 59.8865 916.212 530.381
1932 0 106.52 14.2415 1517 59.2314 916.461 529.009
1933 0 110.379 14.8125 1635 58.7034 916.183 528.074
1934 0 112.45 14.0952 1585 60.2517 916.394 525.573
1935 1 68.3375 11.1505 762 60.7953 916.276 549.052
1936 0 67.3079 12.064 812 60.298 916.488 548.948
1937 0 70.1946 12.6933 891 59.5825 916.12 546.346
1938 0 73.215 12.0604 883 59.957 916.297 547.746
1939 0 77.0984 12.9186 996 59.3725 916.26 545.166
1940 0 78.2426 12.6402 989 59.2599 916.918 542.894
1941 0 81.1382 14.0624 1141 57.9141 916.762 542.457
1942 0 82.1184 14.0407 1153 57.9454 917.245 540.572
1943 0 84.2736 12.851 1083 59.1265 917.384 539.472
1944 0 86.1632 13.1263 1131 57.7171 917.395 537.737
1945 0 90.3365 13.4719 1217 56.7905 917.504 535.689
1946 0 92.3588 13.4151 1239 56.9677 918.113 534.041
1947 0 95.2069 14.0956 1342 56.1461 917.726 532.852
1948 0 97.2885 13.8146 1344 56.4033 917.631 531.065
1949 0 101.397 14.2312 1443 55.6916 917.688 529.506
1950 0 104.398 14.4926 1513 55.1771 917.831 526.098
1951 0 108.283 13.9264 1508 55.744 918.22 525.479
1952 0 111.239 13.853 1541 55.5464 918.467 524.573
1953 0 116.362 14.137 1645 55.1167 918.87 523.271
1954 0 118.646 13.3169 1580 56.2139 918.666 521.641
1955 0 121.472 12.9413 1572 56.3601 918.849 519.703
1956 1 62.2941 12.2483 763 53.6776 919.455 548.039
1957 0 64.2929 12.0076 772 53.4961 919.324 546.729
1958 0 68.2386 12.9985 887 52.018 918.908 547.404
1959 0 69.2582 12.5328 868 53.0023 919.733 545.07
1960 0 71.1579 12.8166 912 52.3684 919.58 541.993
1961 0 71.2507 11.7051 834 53.3141 919.646 543.26
1962 0 77.2382 12.4938 965 52.0591 919.286 542.205
1963 0 79.2177 13.6207 1079 51.0056 919.749 540.22
1964 0 80.2586 12.7961 1027 51.9367 919.638 536.161
1965 0 83.1559 12.4826 1038 52.2919 919.622 534.983
1966 0 85.5481 11.8296 1012 52.3221 919.847 536.163
1967 0 90.3189 13.7956 1246 50.3732 920.174 534.599
1968 0 90.3971 13.0314 1178 50.9092 920.825 532.924
1969 0 94.398 13.1465 1241 50.7268 920.956 532.794
1970 0 96.4038 13.6613 1317 50.899 921.462 528.763
1971 0 101.358 13.1908 1337 51.0494 921.366 528.129
1972 0 105.224 12.6492 1331 51.3336 921.441 526.951
1973 0 106.52 12.7675 1360 51.7088 921.859 523.168
1974 0 111.406 13.1771 1468 51.0565 922.215 520.349
1975 0 115.217 13.8695 1598 50.7703 922.826 518.787
1976 1 67.2581 10.6902 719 51.1391 922.558 545.483
1977 0 66.2265 11.0832 734 52.1403 922.027 544.632
1978 0 70.2652 12.2393 860 50.8965 922.448 544.41
1979 0 71.2778 13.7771 982 50.6538 922.218 541.035
1980 0 74.2209 12.7996 950 50.7684 922.328 541.533
1981 0 76.2366 12.6317 963 51.1578 922.834 539.779
1982 0 78.3906 13.5348 1061 50.9981 923.195 538.638
1983 0 79.2413 13.3264 1056 51.4583 923.219 538.157
1984 0 83.4975 14.0483 1173 50.7997 923.373 535.552
1985 0 84.2854 13.8696 1169 51.6056 923.012 532.148
1986 0 88.1386 13.8305 1219 51.452 923.447 531.957
1987 0 90.3618 13.7669 1244 51.8633 922.894 531.802
1988 0 94.2592 15.1921 1432 50.5622 922.743 528.952
1989 0 98.4001 13.4553 1324 52.2447 922.274 529.195
1990 0 102.147 13.3337 1362 52.1226 922.502 527.827
1991 0 103.31 14.2 1467 52.3013 922.881 525.093
1992 0 108.212 14.2036 1537 51.8887 923.047 524.532
1993 0 110.457 13.4079 1481 53.0682 922.357 522.494
1994 0 115.342 14.3747 1658 52.2081 921.821 518.987
1995 0 119.394 14.7412 1760 51.7193 921.645 519.859
1996 0 121.327 14.2672 1731 52.3426 921.611 519.109
1997 0 126.424 14.2378 1800 52.2172 921.128 515.759
1998 1 69.3999 13.4438 933 52.9668 921.391 542.412
1999 0 72.3403 12.8144 927 53.5275 921.371 542.419
2000 0 74.1633 14.2658 1058 52.6758 922.261 541.974
2001 0 75.1631 14.7147 1106 53.0615 921.8 536.975
2002 0 77.4399 13.8043 1069 53.9869 921.134 537.973
2003 0 80.4047 14.2156 1143 53.3333 920.975 537.551
2004 0 82.2135 13.7082 1127 54.2032 921.13 536.257
2005 0 86.5559 14.6379 1267 53.7474 920.464 532.707
2006 0 88.5346 14.051 1244 54.7629 920.476 532.637
2007 0 93.136 13.3998 1248 55.3654 920.577 531.902
2008 0 95.2293 15.0689 1435 54.0007 920.281 528.307
2009 0 97.5052 14.0915 1374 55.2846 920.307 526.991
2010 0 98.2734 14.3986 1415 55.4346 921.073 526.006
2011 0 103.707 14.0395 1456 55.7212 920.979 525.964
2012 0 105.494 13.9533 1472 56.0319 920.522 524.876
2013 0 109.471 14.8624 1627 55.2471 920.692 521.08
2014 0 114.342 14.9464 1709 54.897 920.25 520.383
2015 0 117.31 15.2417 1788 54.8602 919.675 518.137
2016 1 66.4238 11.6976 777 55.8752 919.035 545.949
2017 0 67.2306 12.3456 830 56.6795 919.21 544.063
2018 0 69.3833 12.6111 875 56.6537 919.427 542.251
2019 0 72.4425 13.5556 982 56.1405 920.075 539.289
2020 0 75.3687 13.9978 1055 55.0701 919.797 540.111
2021 0 78.2725 14.194 1111 55.3924 920.097 538.764
2022 0 80.295 13.55 1088 56.068 920.024 539.493
2023 0 83.4472 14.0568 1173 56.0972 919.838 536.688
2024 0 85.5153 14.0794 1204 55.9884 919.749 535.189
2025 0 89.4899 14.5826 1305 55.7211 919.238 532.565
2026 0 90.6387 14.0889 1277 56.1887 918.88 530.738
2027 0 95.6828 14.339 1372 55.4825 918.28 531.248
2028 0 96.6751 14.347 1387 55.7549 918.865 530.107
2029 0 101.825 14.4661 1473 55.5506 918.462 527.8
2030 0 104.599 14.5604 1523 55.3736 918.505 525.106
2031 0 108.75 14.3081 1556 55.9389 918.566 524.411
2032 0 112.05 14.7612 1654 55.5732 919.72 522.122
2033 0 113.713 14.1321 1607 56.514 918.977 521.577
2034 0 117.683 14.6835 1728 56.412 918.95 519.908
2035 0 120.551 13.9941 1687 57.1938 918.835 518.714
2036 0 125.575 14.4694 1817 56.5212 918.615 514.38
2037 0 131.749 14.3227 1887 56.5352 918.807 514.446
2038 0 133.568 13.6634 1825 57.5989 918.795 512.631
2039 0 138.786 14.4539 2006 56.7248 918.479 508.709
2040 1 80.5324 12.0821 973 57.8407 918.052 538.331
2041 0 83.5208 12.1527 1015 57.2887 918.004 539.452
2042 0 85.5901 12.2327 1047 57.3983 917.916 539.265
2043 0 89.3886 13.1001 1171 57.5576 918.469 533.465
2044 0 92.8659 13.6433 1267 57.06 917.858 533.395
2045 0 95.582 13.4753 1288 57.4573 917.483 532.699
2046 0 99.5306 13.3426 1328 57.6883 918.175 529.499
2047 0 103.884 13.8905 1443 56.9501 917.791 528.871
2048 0 106.702 13.1769 1406 57.8065 918.068 526.972
2049 0 109.75 13.476 1479 58.0818 916.599 524.689
2050 0 111.538 13.6904 1527 58.3707 916.74 521.261
2051 0 117.863 13.7618 1622 57.9408 916.525 519.757
2052 0 119.699 13.7428 1645 58.7368 917.563 518.825
2053 0 123.61 13.7934 1705 58.8545 917.046 515.23
2054 0 125.637 13.9688 1755 60.9624 917.149 513.621
2055 0 131.874 14.2333 1877 60.2797 917.024 512.998
2056 0 135.922 14.7511 2005 59.79 916.834 511.574
2057 0 137.973 13.3722 1845 62.5696 917.021 509.262
2058 0 145.8 13.8066 2013 61.537 916.453 508.451
2059 0 148.825 14.2986 2128 61.4615 916.821 505.302
2060 0 152.889 14.5268 2221 61.6047 916.685 502.149
2061 0 158.77 14.5115 2304 62.0069 916.603 499.049
2062 0 163.697 14.1053 2309 62.4067 916.343 497.659
2063 0 168.993 14.8704 2513 61.7143 915.756 495.24
2064 0 174.903 15.1798 2655 61.4049 915.557 492.553
2065 0 178.636 14.4372 2579 62.9589 916.175 489.891
2066 0 185.729 14.7796 2745 62.7315 916.501 486.304
2067 0 190.775 14.9233 2847 62.6776 917.024 483.81
2068 0 194.607 14.5832 2838 63.8189 916.944 480.463
2069 0 200.767 15.4756 3107 63.0467 917.227 477.901
2070 0 205.827 15.173 3123 63.6516 916.558 476.577
2071 0 214.118 15.4027 3298 63.325 916.66 473.208
2072 0 217.989 15.2577 3326 64.7715 917.27 471.023
2073 0 223.729 15.0584 3369 65.2354 917.755 465.397
2074 0 228.926 15.5334 3556 64.3037 917.665 461.299
2075 0 239.104 15.2444 3645 64.3484 917.513 457.136
2076 1 183.717 13.0962 2406 66.9871 917.561 490.81
2077 0 191.836 13.5376 2597 66.6839 917.198 486.894
2078 0 198.762 14.5954 2901 65.8152 917.887 480.219
2079 0 204.613 15.4633 3164 64.7064 917.991 476.098
2080 0 210.465 14.1734 2983 66.7268 917.977 472.052
2081 0 219.778 15.2199 3345 65.2442 917.998 468.651
2082 0 225.821 14.3698 3245 66.5565 918.199 465.435
2083 0 232.561 15.0154 3492 65.8657 918.881 459.008
2084 0 243.517 15.7936 3846 64.6373 919.69 452.007
2085 1 196.598 10.6257 2089 68.7836 918.778 492.169
2086 0 196.557 9.90551 1947 182.423 919.727 495.868
2087 0 195.531 14.0131 2740 66.3077 919.444 481.176
2088 0 202.463 14.6694 2970 65.2869 919.402 475.528
2089 0 207.56 14.4633 3002 65.7445 919.56 471.762
2090 0 214.553 14.388 3087 65.8076 919.649 469.548
2091 0 221.6 14.6886 3255 65.1899 920.124 465.592
2092 0 227.717 14.5444 3312 65.6126 920.623 464.056
2093 0 234.615 14.3213 3360 65.7946 921.337 459.177
2094 0 240.439 15.8959 3822 63.2627 921.46 453.561
2095 0 249.549 16.2373 4052 62.6029 921.537 447.008
2096 0 257.523 15.5947 4016 63.5174 921.066 445.545
2097 0 265.527 15.9419 4233 63.0104 921.23 439.643
2098 0 273.432 15.7077 4295 63.4854 921.45 438.241
2099 0 283.646 16.6087 4711 62.0367 921.077 430.983
2100 0 292.618 16.5301 4837 62.1187 920.979 426.387
2101 0 300.72 17.1023 5143 61.4698 920.876 421.936
2102 0 298.369 17.2103 5135 61.5864 920.951 420.382
2103 0 300.661 17.1522 5157 61.7966 921.873 420.58
2104 0 298.523 16.25 4851 63.1377 922.303 420.426
2105 0 300.646 17.0466 5125 61.7604 922.891 421.741
2106 0 299.561 15.5361 4654 64.0086 922.884 421.197
2107 0 293.612 15.4285 4530 64.1808 922.92 426.159
2108 0 299.456 16.2862 4877 63.4515 923.082 419.752
2109 0 299.639 16.8936 5062 63.1626 923.028 419.622
2110 0 301.534 17.8753 5390 61.666 923.282 419.956
2111 0 299.504 17.135 5132 62.8381 923.431 418.452
2112 0 300.446 16.8383 5059 63.2516 922.962 418.563
2113 0 300.702 16.5579 4979 63.6164 923.432 417.331
2114 0 299.509 15.9227 4769 64.2785 923.353 416.281
2115 0 299.556 16.8082 5035 62.9071 922.946 416.066
2116 0 301.564 17.9862 5424 60.4216 923.052 417.231
2117 0 301.315 17.271 5204 61.3061 922.559 416.532
2118 0 300.412 16.7137 5021 62.3573 922.259 416.11
2119 0 299.906 16.3585 4906 62.4778 921.988 414.714
2120 0 299.432 16.4077 4913 62.4616 921.994 414.237
2121 0 300.533 16.8301 5058 61.2398 922.046 415.003
2122 0 299.365 18.0148 5393 59.4905 921.985 415.494
2123 0 299.656 16.856 5051 61.3318 922.104 415.136
2124 0 298.552 16.2015 4837 62.2425 921.709 414.226
2125 0 299.548 17.5398 5254 59.7373 921.544 415.057
2126 0 300.728 17.3479 5217 59.8973 921.305 415.626
2127 0 297.786 16.1223 4801 61.644 921.002 413.633
2128 0 295.722 16.2889 4817 61.1038 920.798 412.466
2129 0 295.744 16.5819 4904 60.624 920.509 412.02
2130 0 295.721 16.5561 4896 60.6628 920.459 411.21
2131 0 295.764 15.8674 4693 61.2883 920.102 409.999
2132 0 295.645 16.5063 4880 60.3289 920.106 411.185
2133 0 291.436 15.9109 4637 61.0945 919.792 409.258
2134 0 293.557 16.2728 4777 60.5964 919.419 410.389
2135 0 292.56 16.2497 4754 60.5778 919.549 409.386
2136 0 295.845 16.2179 4798 59.5465 919.246 410.291
2137 0 296.702 16.5149 4900 58.8516 919.72 411.61
2138 0 300.779 16.8895 5080 58.3496 919.59 414.396
2139 0 217.308 11.9093 2588 44.0641 919.046 363.795
2140 0 72.1995 13.2688 958 47.1848 919.949 534.351
2141 0 73.202 14.3302 1049 46.5691 919.864 541.11
2142 0 73.202 14.4532 1058 155.832 919.845 541.116
2143 0 72.1469 13.7774 994 49.6157 919.709 538.482
2144 0 74.2076 13.8935 1031 49.6935 919.635 540.359
2145 0 75.2416 14.6461 1102 49.3167 919.508 540.218
2146 0 73.1329 12.99 950 52.6705 919.127 539.389
2147 0 74.1344 13.2327 981 53.1131 919.413 539.548
2148 0 76.1581 13.6952 1043 52.698 919.365 540.895
2149 0 76.1869 14.005 1067 52.8763 919.453 539.813
2150 0 77.1943 14.0554 1085 53.3724 919.124 539.323
2151 0 75.1151 13.5925 1021 55.7267 919.169 537.328
2152 0 77.2205 13.1442 1015 56.1724 919.567 539.649
2153 0 76.2259 13.8273 1054 56.1917 920.069 538.031
2154 0 77.218 13.6756 1056 56.5625 919.795 536.704
2155 0 77.4158 14.0669 1089 56.2957 919.055 536.74
2156 0 77.296 14.3604 1110 56.1757 918.846 538.861
2157 0 77.344 13.6016 1052 57.2348 918.641 537.372
2158 0 79.3007 15.1197 1199 55.3053 918.492 536.938
2159 0 79.2932 13.9987 1110 57.255 918.483 537.026
2160 0 79.3255 14.2325 1129 57.0841 917.807 536.562
2161 0 79.3822 14.0334 1114 57.7513 917.795 535.581
2162 0 80.2489 15.0781 1210 56.4124 917.697 535.726