time division length width area intensity CMx CMy
0 0 56.0742 12.1981 684 65.9386 1215.75 569.746
1 0 55.1102 11.232 619 89.3393 1215.43 568.278
2 0 59.1514 13.5753 803 63.8991 1215.45 567.007
3 0 62.1069 12.9293 803 64.7709 1215.32 565.238
4 0 64.1477 12.9077 828 65.1268 1215.26 563.609
5 0 64.0488 13.5834 870 66.2736 1215.78 564.19
6 0 67.1531 12.6725 851 67.7709 1215.08 563.871
7 0 68.1954 12.9334 882 68.0227 1215.52 560.269
8 0 70.1562 13.0138 913 68.4195 1215.87 560.102
9 0 73.1034 12.3113 900 69.3211 1215.15 559.307
10 0 77.1887 12.8905 995 68.8633 1215.76 558.781
11 0 79.1418 13.7096 1085 68.7244 1215.23 557.276
12 0 80.1833 13.0326 1045 70.3895 1215.53 555.25
13 0 86.1387 13.188 1136 69.1294 1215.78 554.477
14 0 88.2086 13.3547 1178 69.6672 1215.9 550.717
15 0 92.1379 13.4364 1238 69.9628 1215.86 549.523
16 0 94.2097 13.1409 1238 70.7577 1215.93 547.044
17 1 50.0782 10.7232 537 71.9032 1214.83 569.244
18 0 52.0405 11.0875 577 71.2981 1214.94 569.147
19 0 54.0501 11.8964 643 69.2068 1214.97 567.899
20 0 56.0126 11.6581 653 69.5773 1214.75 567.44
21 0 56.124 12.2764 689 68.2874 1215.46 567.538
22 0 57.1348 12.6893 725 67.9572 1215.38 565.808
23 0 59.1849 12.5032 740 68.3054 1215.35 564.741
24 0 62.0803 12.4033 770 67.9273 1215.24 563.704
25 0 64.0662 13.5017 865 66.652 1215.34 561.665
26 0 64.1026 12.4644 799 68.9011 1215.34 561.887
27 0 66.1072 12.8428 849 68.1743 1215.16 561.505
28 0 68.1193 12.0083 818 68.7824 1215.42 561.702
29 0 70.0612 13.0743 916 67.381 1215.07 559.731
30 0 74.0947 12.3761 917 68.5987 1215.28 558.587
31 0 78.1283 12.8635 1005 66.8806 1215.4 557.432
32 0 77.1591 13.0898 1010 66.7832 1215.48 557.599
33 0 82.0969 12.2538 1006 67.4225 1216.1 556.774
34 0 85.139 13.2959 1132 65.6051 1216.36 552.5
35 0 88.1491 12.6263 1113 66.4277 1216.24 551.175
36 1 45.0376 10.4579 471 64.9936 1216.21 573.883
37 0 49.0824 11.2871 554 64.0235 1215.94 571.09
38 0 49.0645 11.4339 561 65.0071 1216.67 571.857
39 0 52.1413 10.7209 559 64.9213 1216.96 570.691
40 0 52.1786 11.7864 615 64.3333 1217.03 568.997
41 0 54.133 12.0259 651 64.8786 1217.43 567.106
42 0 55.1384 11.4802 633 65.248 1216.84 568.237
43 0 58.099 13.2877 772 62.5142 1217.05 566.645
44 0 59.149 13.3223 788 62.8477 1217.1 565.138
45 0 60.1411 12.1049 728 64.4863 1217.79 564.746
46 0 62.2171 12.4725 776 64.1237 1218.06 563.193
47 0 66.2945 13.9981 928 61.4267 1217.84 562.421
48 0 67.1751 13.502 907 62.7332 1218.12 560.945
49 0 69.1104 14.267 986 61.8864 1218.69 560.544
50 0 70.1587 13.2699 931 63.9323 1218.32 560.182
51 0 72.1161 12.3828 893 65.1769 1218.21 559.817
52 0 75.1242 13.6175 1023 63.5513 1218.05 556.161
53 0 79.1165 14.2827 1130 62.3425 1217.88 555.804
54 0 80.1235 12.7428 1021 64.7375 1216.61 554.577
55 0 84.1976 14.5135 1222 55.545 1217.65 554.021
56 0 87.1553 13.2522 1155 57.7835 1217.71 551.455
57 0 90.2314 13.4543 1214 56.2554 1217.59 551.236
58 1 48.0246 11.8689 570 56.2526 1217.01 572.228
59 0 49.0426 11.4187 560 57.5196 1217.17 571.671
60 0 48.0942 11.4359 550 60.2 1217.62 570.124
61 0 50.0542 12.1069 606 59.698 1218.1 567.861
62 0 53.121 12.048 640 59.6313 1217.78 567.142
63 0 55.0854 12.526 690 59.5406 1218.23 566.643
64 0 57.0772 12.1064 691 60.5109 1217.83 565.161
65 0 57.2345 12.4401 712 60.2921 1217.85 564.758
66 0 60.2038 13.2051 795 59.4981 1217.98 562.332
67 0 61.1429 12.986 794 60.0529 1218.08 562.429
68 0 64.2205 12.9087 829 59.9554 1218.33 561.648
69 0 64.1306 12.7864 820 60.2561 1218.56 560.985
70 0 65.2564 12.5658 820 60.9512 1218.64 559.551
71 0 67.2058 12.7668 858 60.9709 1218.43 559.219
72 0 71.1582 14.0813 1002 58.8214 1218.48 556.959
73 0 73.2465 13.3522 978 59.9796 1218.83 556.493
74 0 75.3525 13.3506 1006 59.7177 1219.1 555.628
75 0 78.2893 13.3479 1045 59.9751 1219.46 552.744
76 0 79.1348 14.3553 1136 58.7967 1218.99 551.793
77 0 84.1481 13.8803 1168 58.8673 1219.84 550.809
78 0 87.1848 14.0506 1225 58.782 1219.98 548.108
79 0 88.2645 13.7768 1216 59.7862 1220.24 546.22
80 1 46.057 11.0298 508 60.2028 1219.94 568.628
81 0 48.0507 10.1768 489 60.6421 1219.49 568.129
82 0 51.1211 11.1304 569 59.7821 1220.19 566.708
83 0 52.093 10.9996 573 60.3735 1221.07 564.473
84 0 53.1811 11.6019 617 60.1021 1221.82 562.376
85 0 55.1745 12.3245 680 58.8941 1222.29 562.034
86 0 55.0388 11.9007 655 59.5847 1221.44 560.739
87 0 58.1447 12.9504 753 56.8048 1221.53 560.495
88 0 59.0627 12.7153 751 57.1212 1221.58 557.366
89 0 61.0925 12.211 746 57.4008 1221.47 558.492
90 0 63.0681 13.4458 848 56.6297 1221.81 555.947
91 0 66.0585 12.822 847 58.451 1222.82 555.398
92 0 67.0582 14.1221 947 57.7751 1223.21 553.963
93 0 67.079 13.581 911 59.2843 1222.93 551.733
94 0 70.1581 13.7832 967 58.1396 1222.89 550.404
95 0 73.1756 14.0757 1030 55.4961 1223.17 551.271
96 0 74.2056 13.5704 1007 56.4151 1223.21 547.495
97 0 74.2056 13.5704 1007 157.475 1223.21 547.495
98 0 80.3388 13.6547 1097 55.3099 1223.05 545.499
99 0 85.2803 13.7781 1175 55.5013 1222.41 546.902
100 0 86.1959 13.2837 1145 58.3197 1222.66 544.086
101 0 86.1959 13.2605 1143 170.927 1223.67 544.136
102 1 47.0847 11.2563 530 62.3547 1223.77 561.743
103 0 50.0734 11.4632 574 58.1341 1224.03 561.061
104 0 51.1577 12.5103 640 57.5469 1223.77 560.181
105 0 51.1623 12.1769 623 61.7785 1223.88 559.761
106 0 53.2657 12.2781 654 61.5963 1224.1 559.191
107 0 55.1728 12.5968 695 60.9108 1223.96 558.747
108 0 58.1022 12.7362 740 61.2554 1223.58 557.239
109 0 58.1158 12.6816 737 61.5482 1223.13 556.33
110 0 60.1452 13.2014 794 61.0932 1222.66 554.943
111 0 63.0569 13.9715 881 59.5562 1222.82 553.556
112 0 61.0283 12.781 780 60.95 1222.17 552.697
113 0 66.0465 13.7025 905 58.8133 1222.24 551.154
114 0 68.082 12.5143 852 59.7969 1222.38 552.343
115 0 69.0497 12.8169 885 59.8667 1222.28 550.427
116 0 71.0983 12.9258 919 59.7258 1222.73 547.948
117 0 72.0875 12.3184 888 61.4347 1222.59 546.583
118 0 76.244 13.4568 1026 59.5653 1222.85 546.705
119 0 77.0701 12.6897 978 60.7975 1222.64 543.595
120 0 81.0958 13.5519 1099 59.2884 1222.66 543.675
121 0 84.0754 12.3223 1036 60.0724 1222.56 543.187
122 0 88.0947 13.9282 1227 58.4393 1222.63 539.845
123 0 91.1044 13.2595 1208 59.8377 1222.53 539.885
124 1 49.0736 11.5744 568 59.7535 1222.05 560.877
125 0 49.1016 12.2196 600 59.455 1222.27 561.068
126 0 52.1019 11.3624 592 60.4747 1222.57 560.932
127 0 51.1061 11.7599 601 60.5923 1222.7 559.359
128 0 56.0838 12.731 714 58.9384 1222.23 557.608
129 0 54.134 11.9888 649 61.3652 1221.95 556.975
130 0 57.0567 12.4438 710 60.3831 1221.88 557.02
131 0 58.0961 13.2883 772 59.8912 1221.81 555.167
132 0 59.0778 12.7459 753 61.8592 1221.71 554.534
133 0 61.0897 12.8499 785 61.4726 1221.43 554.931
134 0 62.0614 12.9066 801 61.7091 1221.13 554.879
135 0 62.0614 12.971 805 173.653 1220.13 554.754
136 0 67.1273 13.8394 929 61.1668 1221.27 553.266
137 0 69.1211 14.0044 968 61.3161 1221.19 551.81
138 0 72.0807 13.3184 960 62.4979 1221.18 551.123
139 0 75.1292 13.9493 1048 62.4113 1221.21 548.215
140 0 75.1314 13.7226 1031 63.5761 1221.3 546.133
141 0 77.0418 13.9535 1075 63.9098 1221.07 545.555
142 0 80.088 14.4341 1156 63.2266 1221.61 546.984
143 0 84.2749 14.6663 1236 63.3519 1221.17 543.591
144 0 85.141 14.2939 1217 64.765 1221.3 541.624
145 0 88.1201 14.7185 1297 64.1465 1221.13 542.575
146 0 90.0885 14.3636 1294 65.4946 1221.41 538.915
147 0 93.2714 14.1951 1324 66.2915 1221.25 539.079
148 0 94.2996 13.754 1297 67.6638 1220.82 538.912
149 1 52.1285 11.9896 625 66.6208 1220.2 560.12
150 0 51.13 11.1285 569 68.4868 1220.24 562.014
151 0 54.0962 11.5535 625 67.6144 1220.69 558.973
152 0 55.1872 11.5606 638 68.2712 1221.2 558.889
153 0 57.0749 12.177 695 66.1496 1220.77 558.001
154 0 58.1578 12.6724 737 65.5292 1220.81 557.528
155 0 60.1306 12.4728 750 65.328 1221.45 557.167
156 0 64.1394 12.8314 823 63.4192 1221.35 555.939
157 0 64.0938 11.842 759 65.9736 1221.27 554.37
158 0 65.2405 12.5229 817 64.2681 1221.31 554.607
159 0 67.1631 13.3258 895 62.9933 1220.87 554.847
160 0 69.1345 11.8899 822 64.9343 1220.95 553.236
161 0 71.0635 12.3411 877 64.5781 1219.86 550.773
162 0 75.0779 13.2129 992 62.8962 1220.31 550.284
163 0 76.0851 12.9329 984 63.5 1220.42 547.941
164 0 80.1898 13.2311 1061 62.8322 1220.43 547.605
165 0 82.0767 12.732 1045 63.6861 1220.08 546.03
166 0 84.1155 13.0297 1096 63.5502 1220.23 545.306
167 0 84.1446 12.431 1046 65.3518 1221.04 542.315
168 0 86.1446 12.4326 1071 65.1046 1221.19 543.072
169 0 91.2256 13.505 1232 63.6964 1221.61 540.724
170 0 93.2893 13.024 1215 63.7325 1221.63 539.609
171 0 99.1863 13.1066 1300 62.6785 1221.99 538.181
172 0 101.145 12.5562 1270 64.1874 1221.45 535.11
173 1 54.1293 10.7705 583 63.2556 1221.22 559.149
174 0 55.0989 11.4158 629 63.2401 1221.68 557.079
175 0 58.1503 11.8658 690 62.2435 1221.77 555.303
176 0 60.1452 12.4532 749 60.9907 1222.67 553.356
177 0 62.1409 13.1315 816 61.3064 1222.52 551.69
178 0 65.2152 12.7118 829 61.3679 1222.27 551.03
179 0 67.1218 12.6039 846 61.3983 1222.44 549.937
180 0 69.1469 12.6398 874 61.4931 1222.7 548.938
181 0 70.1597 12.9562 909 61.154 1222.53 549.911
182 0 72.1458 12.4609 899 62.7419 1222.76 545.512
183 0 75.2101 12.6978 955 62.1309 1223.12 545.801
184 0 79.1284 12.7009 1005 61.395 1222.75 544.262
185 0 81.1202 12.7219 1032 61.9671 1223.4 541.577
186 1 45.0547 11.3861 513 60.2827 1222.96 560.308
187 0 45.1291 11.035 498 60.1386 1222.75 560.586
188 0 48.1532 11.7334 565 59.4779 1222.96 559.227
189 0 50.1156 12.3115 617 58.8347 1223.72 557.491
190 0 51.173 12.1939 624 60.0016 1223.54 557.652
191 0 50.2451 12.24 615 62.187 1223.7 557.093
192 0 54.1559 12.1501 658 60.7964 1223.97 555.666
193 0 55.1481 12.5662 693 58.0606 1223.95 555.453
194 0 58.2268 13.2757 773 56.3648 1223.84 552.899
195 0 58.2386 12.3973 722 57.9155 1223.96 552.148
196 0 59.0888 12.1512 718 59.3245 1224.15 551.493
197 0 61.1573 12.7377 779 59.0668 1224.04 551.674
198 0 62.1442 12.1974 758 60.1557 1224.16 549.414
199 0 64.1781 13.0574 838 58.6862 1224.46 548.212
200 0 67.1732 12.9814 872 58.1892 1224.8 549.531
201 0 68.2903 13.0619 892 58.2085 1224.72 547.395
202 0 70.1662 13.126 921 58.4799 1224.71 545.144
203 0 74.3893 12.6766 943 58.8218 1224.23 546.26
204 0 76.1576 13.2882 1012 57.9763 1224.27 545.285
205 0 79.2564 13.4753 1068 57.2603 1224.67 543.577
206 0 79.2564 13.45 1066 163.719 1224.66 543.632
207 1 44.1335 11.148 492 58.126 1224.32 560.445
208 0 44.105 10.8831 480 59.4729 1224.92 559.721
209 0 46.1439 12.1576 561 58.098 1224.76 558.159
210 0 48.3079 12.1926 589 58.3803 1225.46 558.234
211 0 50.3279 12.1602 612 57.7941 1225.62 556.673
212 0 52.3197 12.8441 672 57.4092 1225.52 555.894
213 0 52.2038 11.8574 619 58.9887 1225.82 556.294
214 0 54.2536 12.7181 690 57.8565 1225.82 555.699
215 0 56.1866 13.4196 754 57.0424 1226.03 553.312
216 0 58.2886 13.8106 805 56.8683 1225.02 553.501
217 0 60.307 13.166 794 57.2884 1224.53 551.996
218 0 60.2166 13.7337 827 56.9528 1224.17 551.693
219 0 61.1923 12.6487 774 59.1137 1224.49 551.752
220 0 63.2582 12.7098 804 58.4826 1224.18 551.501
221 0 63.1536 13.4117 847 58.4014 1224.68 549.103
222 0 65.2201 13.0788 853 58.8312 1223.99 548.998
223 0 68.1753 13.964 952 57.6964 1224.3 548.251
224 0 68.0901 13.2912 905 58.8851 1224.24 546.415
225 0 70.1488 13.0294 914 59.8589 1224.33 543.593
226 0 75.1352 13.7219 1031 58.2338 1224.15 543.515
227 0 77.1297 12.8744 993 59.3243 1224.3 544.069
228 0 79.2194 12.9388 1025 59.2205 1224.54 542.116
229 0 81.2357 12.8761 1046 59.718 1224.53 539.115
230 1 43.1864 10.6746 461 58.4403 1223.92 561.77
231 0 43.1473 11.3333 489 58.3047 1224.39 560.321
232 0 47.0762 12.0231 566 57.3304 1224.17 558.973
233 0 49.1856 12.341 607 56.9786 1224.21 558.048
234 0 48.0363 12.7612 613 58.2724 1222.55 557.452
235 0 52.0638 12.331 642 57.6682 1222.35 557.928
236 0 52.22 13.2133 690 57.087 1222.37 557.994
237 0 54.3233 12.5361 681 57.7298 1222.35 555.755
238 0 54.2929 12.451 676 57.8388 1222.51 555.352
239 0 56.2326 13.1063 737 57.1859 1222.23 555.391
240 0 58.1628 11.8117 687 58.3857 1222.18 552.836
241 0 60.3587 13.4695 813 56.2214 1222.33 553.114
242 0 61.1387 12.856 786 57.2913 1222.26 553.476
243 0 65.3182 12.4774 815 57.2785 1222.4 552.256
244 0 63.328 12.1747 771 58.2477 1222.49 552.405
245 0 66.2945 12.3389 818 58.0208 1222.48 550.211
246 0 71.3462 13.3574 953 56.4575 1222.59 548.352
247 0 73.5501 12.4949 919 57.3014 1223.12 547.417
248 1 39.1642 10.5198 412 58.2864 1222.84 563.167
249 0 39.2204 11.1422 437 57.778 1222.88 562.95
250 0 44.0951 11.702 516 56.2946 1222.95 562.444
251 0 43.0733 12.0028 517 56.9072 1222.84 562.043
252 0 44.2556 12.1792 539 57.6048 1223.07 561.57
253 0 46.2032 12.4883 577 56.9272 1222.77 560.704
254 0 48.1749 12.6207 608 56.6168 1222.59 562.354
255 0 49.2448 11.9606 589 58.4669 1222.52 560.905
256 0 50.2618 13.5292 680 56.5574 1222.46 560.993
257 0 53.1981 12.4628 663 58.3922 1222.75 559.204
258 0 54.1229 12.2314 662 58.9622 1222.62 559.284
259 0 55.1332 12.4245 685 59.4409 1220.74 558.698
260 0 57.0756 12.6499 722 58.831 1220.84 559.395
261 0 57.0705 13.2994 759 59.3623 1220.69 556.088
262 0 59.1289 13.1746 779 59.4249 1220.49 557.03
263 0 60.0725 13.2839 798 59.5902 1220.75 557.42
264 0 62.0456 12.1846 756 61.5132 1221.01 554.952
265 0 66.0873 13.8907 918 58.8431 1221.04 553.419
266 0 67.2375 12.7459 857 61.287 1221.12 553.146
267 0 68.1079 11.8195 805 63.3329 1221.07 552.45
268 0 69.0705 13.3921 925 61.7535 1221.26 549.658
269 0 73.101 13.4335 982 61.6212 1221.21 549.384
270 0 75.1184 13.2191 993 62.6274 1221.4 548.923
271 0 76.1561 13.9582 1063 62.6754 1221.29 548.323
272 0 80.196 13.3922 1074 62.8547 1221.63 546.479
273 0 85.2374 12.9169 1101 63.6767 1221.87 544.921
274 0 88.1224 13.2997 1172 63.6143 1222.28 542.493
275 0 90.1736 12.8752 1161 64.3333 1222.38 541.744
276 0 93.1364 13.5071 1258 64.5326 1222.14 540.534
277 1 50.0905 11.4393 573 65.5864 1222.01 560.36
278 0 51.0852 10.8251 553 66.0922 1221.99 561.649
279 0 53.0516 13.0062 690 64.4986 1222.03 558.533
280 0 55.0805 12.6542 697 65.505 1221.76 557.957
281 0 55.0862 12.7437 702 65.9672 1222.01 557.567
282 0 57.0995 12.3994 708 67.1709 1222.77 555.969
283 0 59.0904 13.4032 792 65.5619 1222.65 554.587
284 0 62.1441 13.0664 812 66.4409 1223.19 554.1
285 0 64.1195 12.9446 830 66.6711 1222.7 552.901
286 0 65.2969 13.2012 862 66.3968 1222.92 552.056
287 0 68.1108 13.5221 921 66.4397 1223.01 550.223
288 0 70.1466 12.6307 886 67.5813 1223.41 548.98
289 0 74.0787 13.9176 1031 65.0786 1223.32 547.95
290 0 75.0756 13.866 1041 65.2959 1222.92 547.676
291 0 79.1359 13.1925 1044 66.2414 1224.29 543.582
292 1 41.0448 10.2084 419 68.2196 1223.66 562.482
293 0 43.1017 11.4381 493 66.3347 1223.8 561.824
294 0 45.0746 12.0911 545 64.2495 1224.14 560.594
295 0 48.102 12.4527 599 62.6711 1224.09 559.99
296 0 48.054 12.923 621 62.6892 1224.1 557.842
297 0 49.1821 12.7079 625 63.1872 1225.78 556.688
298 0 51.1327 12.6729 648 63.2299 1225.73 557.242
299 0 52.1352 12.2566 639 63.8435 1225.8 556.421
300 0 52.142 13.8085 720 62.3931 1225.88 554.283
301 0 55.1837 12.8842 711 62.3727 1226.06 554.219
302 0 56.1811 12.7089 714 62.7381 1226.45 553.612
303 0 59.2255 13.3051 788 61.8591 1226.46 551.925
304 0 59.1619 13.2349 783 61.9719 1226.29 551.423
305 0 62.1875 12.3658 769 62.3186 1226.04 551.901
306 0 63.1974 12.5796 795 61.9044 1225.79 548.675
307 0 65.1771 13.4556 877 60.5599 1226.01 548.403
308 0 66.3005 12.1266 804 62.5734 1226.27 546.765
309 0 68.1443 12.9578 883 61.128 1225.87 545.955
310 0 70.1508 13.5137 948 60.5601 1225.97 545.747
311 0 73.2891 13.167 965 60.6487 1226.15 544.647
312 0 76.1462 13.2902 1012 59.3587 1225.13 543.256
313 0 78.2259 13.1926 1032 59.6221 1225.49 540.615
314 0 81.0639 12.3853 1004 60.1932 1225.31 541.199
315 0 84.1689 12.7719 1075 59.8009 1225.13 538.029
316 0 85.2588 13.1482 1121 60.1338 1224.98 535.417
317 1 45.1599 10.961 495 60.0061 1225.18 557.158
318 0 47.2575 10.7919 510 60.3039 1224.89 556.506
319 0 49.0963 10.8969 535 60.2617 1225.06 555.432
320 0 48.2365 11.7961 569 60.3357 1225.31 554.742
321 0 50.092 12.0578 604 59.3361 1225.31 553.924
322 0 53.2566 12.5431 668 59.1153 1225.11 552.382
323 0 53.3777 11.3718 607 59.9423 1224.62 552.937
324 0 53.1261 11.8586 630 60.1016 1224.53 551.914
325 0 58.2069 13.3146 775 57.6774 1224.28 549.974
326 0 60.2049 13.1052 789 57.7921 1224.46 548.15
327 0 63.1216 12.7373 804 57.8445 1224.83 547.215
328 0 65.0967 13.5798 884 56.6086 1224.49 545.92
329 0 66.2091 12.9438 857 57.9498 1224.16 544.476
330 0 68.1473 13.7496 937 56.8687 1224.38 543.72
331 0 72.1863 13.5206 976 56.7469 1224.38 542.35
332 0 73.0979 13.0099 951 58.5237 1224.82 540.87
333 0 76.1813 12.7853 974 58.2207 1224.72 540.567
334 0 76.1813 12.7853 974 164.9 1223.72 540.567
335 0 83.24 13.5872 1131 57.6012 1224.84 536.645
336 0 86.177 13.6231 1174 57.2547 1224.11 536.671
337 1 40.1064 10.5968 425 59.1318 1223.44 557.101
338 0 45.1642 9.85295 445 58.4022 1223.11 558.903
339 0 44.0565 11.4172 503 57.7773 1223.3 556.091
340 0 47.041 12.8186 603 55.6716 1223.43 558.28
341 0 47.2239 11.7102 553 57.8553 1222.91 555.794
342 0 47.0978 12.1874 574 58.2822 1223.11 555.26
343 0 48.1279 12.1967 587 57.8739 1222.98 554.189
344 0 51.0509 12.8891 658 56.7964 1222.9 552.784
345 0 52.2224 12.2553 640 57.4516 1222.6 554.759
346 0 53.0501 13.2516 703 57.1693 1223.01 552.084
347 0 55.0744 13.1095 722 57.0235 1223.24 552.931
348 0 57.3661 14.085 808 55.7884 1223.51 550.725
349 0 57.1777 12.5748 719 57.8734 1222.89 550.053
350 0 61.1917 13.5966 832 56.3558 1222.79 549.428
351 0 63.1565 13.237 836 57.3122 1222.61 549.311
352 0 68.3624 12.7702 873 56.8648 1222.66 549.092
353 0 65.3146 13.5957 888 57.8851 1222.5 546.846
354 0 68.1564 13.513 921 57.8458 1222.35 545.524
355 0 70.2301 13.5412 951 57.9117 1222.44 546.463
356 0 72.2268 14.2191 1027 57.2892 1223.44 545.378
357 0 76.411 13.676 1045 58.0804 1222.99 544.147
358 0 81.2394 13.4171 1090 58.2642 1223.57 542.051
359 0 80.291 13.8496 1112 58.7131 1223.1 540.935
360 0 85.2028 13.9549 1189 58.3953 1223.08 540.458
361 0 88.1864 13.6642 1205 58.7544 1222.94 538.495
362 1 46.1027 12.6674 584 58.738 1222.52 557.104
363 0 49.0624 11.4956 564 58.5567 1223.02 558.195
364 0 49.0621 12.5759 617 58.6272 1222.25 554.961
365 0 51.0502 12.2233 624 60.1474 1222.28 555.391
366 0 53.0221 12.127 643 59.3655 1222.64 556.751
367 0 54.0745 12.3718 669 59.7683 1222.91 554.753
368 0 56.0648 13.1277 736 58.9035 1223.14 555.098
369 0 59.1089 14.1434 836 57.1017 1223.49 554.394
370 0 58.0553 12.2986 714 60.6443 1223.91 552.325
371 0 61.153 13.1637 805 59.077 1223.69 552.771
372 0 64.1124 13.5855 871 58.5431 1224 551.505
373 0 64.1195 12.851 824 60.25 1223.12 549.677
374 0 67.127 13.6309 915 59.3377 1223.08 548.479
375 0 70.0953 12.697 890 59.8079 1223.16 547.769
376 0 71.1428 13.3113 947 58.8923 1223.17 547.04
377 0 72.1397 13.5293 976 58.3514 1223.26 545.338
378 0 75.1104 13.6998 1029 57.8299 1224.23 544.101
379 0 78.1401 13.4502 1051 57.8925 1223.75 543.418
380 0 80.0622 12.8025 1025 58.562 1224.58 540.793
381 0 83.1619 13.9487 1160 57.7078 1224.84 539.822
382 0 87.2721 14.598 1274 56.5965 1224.78 537.88
383 0 92.1683 14.8533 1369 55.6056 1224.75 540.448
384 1 45.0763 12.0019 541 58.0092 1224.38 559.68
385 0 47.0299 11.8861 559 58.2236 1223.99 558.834
386 0 49.0743 12.1449 596 57.8322 1224.44 557.485
387 0 51.0649 12.7681 652 56.7101 1225.17 557.212
388 0 52.2066 12.7953 668 57.1198 1225.43 556.416
389 0 53.1936 13.2723 706 57.0567 1225.64 554.585
390 0 59.2694 13.5314 802 55.6284 1225.91 553.924
391 0 57.2371 13.051 747 57.4552 1226.17 552.588
392 0 61.2014 12.9082 790 57.3051 1225.9 551.646
393 0 63.1875 14.0376 887 56.2368 1225.93 551.312
394 0 65.2795 13.312 869 56.8147 1226.36 550.864
395 0 68.1684 13.452 917 57.2541 1226.6 548.286
396 0 71.1322 13.5522 964 57.1017 1226.54 548.259
397 0 72.1473 14.3179 1033 56.4027 1226.57 546.738
398 0 75.1159 13.8453 1040 57.399 1226.68 545.581
399 0 75.1775 14.2064 1068 57.7594 1226.35 543.955
400 0 77.3004 14.3337 1108 57.5415 1226.56 541.551
401 0 79.4475 13.8456 1100 58.6145 1226.75 541.045
402 0 85.5377 14.1458 1210 57.9438 1226.96 539.39
403 0 86.4704 13.9932 1210 58.3893 1227.2 538.547
404 0 88.5686 14.3843 1274 58.4199 1227.61 537.818
405 1 45.2154 12.6727 573 60.2373 1227.2 557.67
406 0 45.3299 11.6038 526 61.1844 1226.79 558.683
407 0 50.7081 13.5284 686 58.8601 1227.05 556.722
408 0 50.5059 13.5826 686 59.2609 1226.64 556.528
409 0 52.4424 12.9857 681 60.4743 1226.3 552.907
410 0 53.4692 13.6901 732 59.7391 1226.29 552.357
411 0 54.5277 13.7728 751 59.8029 1226.82 552.136
412 0 59.8803 13.9278 834 58.3765 1226.9 551.927
413 0 59.7278 13.2267 790 59.6241 1226.73 550.933
414 0 61.6364 14.618 901 58.2564 1226.89 549.477
415 0 63.671 14.1823 903 59.3643 1226.45 547.934
416 0 66.6128 14.4567 963 59.2098 1226.2 547.155
417 0 66.7478 14.0679 939 60.3663 1226.02 546.364
418 0 70.6718 14.5886 1031 59.8991 1226.27 543.823
419 0 73.8014 14.0241 1035 60.343 1225.68 543.269
420 1 37.2572 11.6219 433 61.7229 1225.23 561.326
421 0 39.3233 12.0285 473 62.389 1224.91 559.142
422 0 42.3031 12.0086 508 62.3622 1225.09 558.764
423 0 42.3238 11.5774 490 62.7898 1225.46 559.351
424 0 42.3457 12.1854 516 62.9399 1225.01 557.731
425 0 44.1606 12.5904 556 61.9874 1224.53 557.64
426 0 45.1108 12.8351 579 62.0069 1225.1 557.225
427 0 46.4508 13.9718 649 60.6888 1225.07 556.527
428 0 48.3055 12.3588 597 62.1608 1224.91 555.973
429 0 51.5016 14.1549 729 59.7284 1224.4 552.802
430 0 51.2369 14.5598 746 59.9558 1224.01 553.114
431 0 53.3378 13.6114 726 60.7755 1224.17 555.006
432 0 54.8001 13.2117 724 61.5014 1223.79 553.47
433 0 57.6116 13.7472 792 59.8965 1223.7 552.225
434 0 59.7226 13.9143 831 60.0782 1223.39 549.452
435 0 61.5277 14.1075 868 59.78 1223.11 548.98
436 0 62.8646 13.5052 849 60.7091 1222.95 549.795
437 0 66.8453 13.9875 935 59.8706 1223.7 547.984
438 0 67.8071 13.2729 900 61.66 1223.86 547.721
439 0 71.6223 13.7667 986 60.8712 1223.56 545.612
440 0 73.6667 14.2398 1049 59.8389 1223.44 545.207
441 1 38.4258 12.1012 465 60.9161 1222.68 562.701
442 0 35.2569 11.9693 422 63.0545 1223.18 562.301
443 0 41.2092 12.5943 519 60.5434 1223.1 562.603
444 0 40.3088 12.2802 495 62.6424 1223.59 560.756
445 0 42.1546 13.1658 555 61.6414 1223.26 558.939
446 0 44.1389 13.3216 588 61.483 1223.39 559.083
447 0 44.1389 13.3442 589 172.854 1222.39 559.049
448 0 44.143 13.4336 593 63.032 1223.02 557.703
449 0 49.2735 13.7193 676 61.0281 1223.07 559.435
450 0 49.2122 13.6755 673 62.0728 1222.97 557.655
451 0 51.2943 13.0619 670 61.9075 1222.96 557.833
452 0 50.4986 13.6835 691 62.5615 1223 554.939
453 0 55.4636 13.27 736 62.4918 1222.55 555.553
454 0 54.2634 14.3375 778 62.2339 1222.35 554.024
455 0 57.3316 14.233 816 61.9498 1222.63 552.833
456 0 57.3304 14.1286 810 63.4877 1222.49 551.421
457 0 60.3459 13.7209 828 63.087 1222.69 551.599
458 0 63.4714 14.0063 889 62.5051 1222.5 550.61
459 0 66.5848 13.9521 929 63.268 1223.59 549.425
460 0 66.5105 14.5691 969 63.5284 1223.42 547.763
461 0 69.5314 14.0656 978 64.3364 1223.17 546.635
462 0 70.5855 13.9547 985 65.5797 1223.04 546.329
463 0 74.3226 14.5312 1080 64.3722 1222.77 546.566
464 0 76.3271 13.9269 1063 65.8457 1223.12 543.537
465 1 35.3331 12.1699 430 68.7419 1222.65 562.535
466 0 40.3848 12.2571 495 66.6061 1222.79 562.164
467 0 41.4142 12.4112 514 67.6401 1222.4 561.72
468 0 42.2004 13.1989 557 66.8115 1222.16 561.677
469 0 42.1933 13.8174 583 66.8902 1221.95 560.648
470 0 43.5313 13.1859 574 68.1533 1221.79 560.497
471 0 45.3111 13.1977 598 68.6505 1222.13 559.452
472 0 47.4167 14.5097 688 66.093 1222.12 558.288
473 0 48.3606 13.7509 665 67.7865 1223 557.176
474 0 49.4752 13.623 674 67.6231 1223.12 557.852
475 0 52.3839 14.4701 758 66.7084 1222.69 556.062
476 0 55.8047 14.049 784 66.0676 1222.64 555.927
477 0 55.2965 14.5036 802 66.0424 1222.87 555.036
478 0 57.5706 14.365 827 66.2624 1222.81 552.947
479 0 58.6988 13.7993 810 66.9778 1222.9 552.096
480 0 61.7358 14.0599 868 66.5876 1222.76 551.094
481 0 61.7358 14.0599 868 174.028 1222.75 551.069
482 0 64.7936 13.1957 855 67.5485 1223.26 548.24
483 0 67.5294 13.2979 898 66.8886 1223.03 547.851
484 0 70.5766 13.163 929 67.1292 1223.29 544.51
485 0 75.7907 14.4873 1098 64.2022 1223.12 544.677
486 0 78.6502 14.2275 1119 64.6863 1223.62 542.728
487 0 80.6431 14.1488 1141 65.0158 1223.66 541.202
488 0 84.9745 13.557 1152 64.8151 1223.07 540.386
489 1 43.6662 11.7711 514 66.4611 1223 560.058
490 0 45.6644 12.0006 548 65.5766 1223.12 558.518
491 0 47.4432 14.1432 671 63.3964 1222.7 557.393
492 0 50.4762 13.1745 665 64.2526 1223.17 556.538
493 0 50.6375 13.0733 662 65.1224 1223.07 556.041
494 0 53.8623 12.9404 697 64.7418 1223.16 554.976
495 0 56.7222 12.8169 727 64.077 1223.31 554.023
496 0 55.645 12.5258 697 65.7073 1223.14 552.795
497 0 62.9129 13.6379 858 63.3403 1222.96 552.318
498 0 63.6524 13.8565 882 64.2744 1223.37 550.652
499 0 64.6901 14.1907 918 64.0109 1223.41 549.824
500 0 67.6451 13.7334 929 64.1044 1223.1 549.748
501 0 67.4957 13.6305 920 65.0217 1223.37 547.515
502 0 71.7318 13.1741 945 65.218 1223.15 547.665
503 0 74.4799 14.2589 1062 63.9783 1223.02 544.54
504 0 76.5207 13.2252 1012 66.0702 1223.16 542.805
505 0 78.4739 12.6157 990 66.6646 1222.66 543.817
506 0 81.5487 13.3295 1087 66.3155 1222.68 540.39
507 0 84.5966 14.5514 1231 64.6255 1222.47 537.959
508 0 89.4583 14.1966 1270 64.589 1222.48 538.512
509 0 91.3068 14.0953 1287 65.5128 1222.45 536.842
510 0 93.2342 14.6298 1364 65.099 1222.63 535.339
511 0 98.1458 14.3358 1407 65.2331 1222.66 533.987
512 0 99.2009 13.9817 1387 66.181 1222.58 531.679
513 0 103.349 13.6625 1412 65.7571 1222.51 529.861
514 0 106.348 14.2175 1512 65.1548 1222.92 527.654
515 0 111.279 14.6839 1634 64.3813 1222.91 525.626
516 0 114.447 13.4997 1545 65.8693 1222.4 523.782
517 0 118.458 14.4439 1711 62.699 1223.01 520.901
518 0 120.466 13.7964 1662 63.9097 1222.97 517.805
519 0 125.258 14.538 1821 62.2389 1222.49 517.461
520 0 129.363 15.3831 1990 61.0794 1222.74 515.172
521 0 131.332 13.7133 1801 64.0944 1222.5 512.571
522 0 137.29 13.7446 1887 64.0885 1222.51 508.486
523 0 144.286 14.3119 2065 62.7608 1222.93 508.045
524 1 79.1136 10.5924 838 62.1611 1223.28 544.976
525 0 80.056 11.0298 883 62.7044 1224.37 541.907
526 0 86.0925 11.8709 1022 62.3023 1224.5 539.155
527 0 87.2037 11.972 1044 62.3314 1224.87 537.459
528 0 93.1752 13.1044 1221 62.5152 1224.55 535.795
529 0 95.1942 12.4167 1182 63.3046 1224.62 534.083
530 0 98.2116 13.1756 1294 62.7233 1224.24 532.044
531 0 101.225 13.0107 1317 62.3728 1224.12 533.849
532 0 104.239 12.7304 1327 63.2163 1224.32 530.307
533 1 54.1117 9.92392 537 63.5084 1223.82 554.324
534 0 58.1047 10.4639 608 62.7697 1224.22 552.939
535 0 60.0776 11.3353 681 62.207 1223.84 551.057
536 0 61.0846 10.5264 643 62.2177 1224.78 552.18
537 0 62.0798 10.8409 673 62.2437 1224.35 550.951
538 0 64.1863 11.0616 710 61.9535 1224.68 547.404
539 0 69.1165 12.4717 862 59.8283 1224.49 546.218
540 0 68.0711 12.1931 830 60.6952 1223.89 545.936
541 0 73.2559 12.5178 917 59.1952 1224.2 544.783
542 0 74.1321 12.7205 943 59.1835 1223.64 543.282
543 0 76.0839 12.3548 940 59.7064 1224.17 542.53
544 0 79.1307 12.612 998 59.524 1223.51 541.905
545 0 82.1162 12.8842 1058 59.311 1223.37 539.06
546 0 84.1778 12.9013 1086 58.9144 1223.51 540.446
547 0 89.1992 13.4867 1203 57.33 1223.1 537.926
548 0 91.135 13.1673 1200 57.8442 1223 535.758
549 0 92.2117 12.5147 1154 58.5277 1223.07 536.08
550 0 95.156 13.5462 1289 57.332 1222.76 533.652
551 0 99.1946 12.7124 1261 58.2926 1222.61 533.649
552 0 100.238 13.1886 1322 58.3245 1222.58 530.483
553 0 104.232 12.8751 1342 57.8636 1222.64 530.924
554 0 105.133 12.8789 1354 57.8811 1222.37 530.301
555 0 108.186 12.5525 1358 58.8299 1223.18 526.243
556 0 112.344 12.5062 1405 58.7836 1222.99 526.315
557 0 115.315 13.0252 1502 57.9587 1223.07 524.554
558 0 119.3 13.3193 1589 57.5727 1222.52 520.797
559 0 123.466 13.526 1670 57.9413 1222.48 517.77
560 0 126.45 12.7402 1611 58.9236 1222.9 515.726
561 0 131.309 13.2131 1735 58.5556 1222.64 515.629
562 0 136.472 13.1969 1801 57.8068 1222.38 513.898
563 1 80.1845 10.2638 823 57.7132 1221.72 542.459
564 0 82.2333 10.2878 846 58.2541 1222.36 541.584
565 0 84.2143 10.5445 888 58.2646 1221.85 541.096
566 0 89.0927 12.0998 1078 57.0955 1222.28 539.344
567 0 91.2196 12.4535 1136 57.1461 1222.19 536.747
568 0 91.1709 12.142 1107 58.6061 1222.31 534.25
569 0 94.3176 12.0656 1138 58.5387 1222.63 532.77
570 0 99.3749 12.3774 1230 57.513 1222.3 532.575
571 0 104.178 12.2867 1280 57.1742 1222.04 529.977
572 1 50.1108 9.85816 494 58.1559 1222.26 555.717
573 0 55.2037 10.6152 586 56.9642 1222.24 554.56
574 0 57.3759 10.5445 605 56.9719 1220.81 554.817
575 0 56.4099 11.2037 632 56.9193 1220.65 553.494
576 0 57.1708 11.4394 654 58.6835 1221.34 552.479
577 0 59.0947 12.2177 722 57.6136 1221.35 552.216
578 0 63.1952 13.1656 832 56.1334 1221.09 551.141
579 0 64.1384 12.7537 818 56.4193 1221.14 550.581
580 0 64.2298 11.8948 764 57.6728 1221.37 550.158
581 0 67.1722 12.7285 855 56.0865 1221.09 549.806
582 0 69.2633 12.9217 895 56.1296 1221.15 546.611
583 0 69.0929 12.3023 850 57.2424 1221.36 546.953
584 0 71.0911 12.6036 896 57.0792 1221.14 546.568
585 0 72.0987 12.1639 877 57.6784 1221.17 545.634
586 0 75.3042 12.9342 974 56.5431 1220.79 543.646
587 0 80.1743 13.1339 1053 55.6382 1220.81 544.558
588 0 81.2799 13.3858 1088 55.8125 1220.66 541.682
589 0 83.2001 12.524 1042 56.7985 1221.01 538.192
590 0 86.2352 13.2545 1143 55.5643 1220.54 539.569
591 0 88.2401 13.146 1160 55.9629 1220.68 538.931
592 0 91.3621 13.0579 1193 56.4158 1220.2 535.355
593 0 95.5361 13.9005 1328 55.0971 1220.99 536.337
594 0 95.5361 13.8691 1325 156.395 1221.98 536.248
595 0 102.266 12.8683 1316 55.2173 1221.56 531.046
596 1 52.0354 8.97466 467 55.9015 1221.93 556.141
597 0 56.1113 11.5663 649 54.1032 1221.53 553.744
598 0 54.0644 9.85861 533 54.1651 1221.74 556.212
599 0 57.1787 10.5984 606 54.7508 1220.81 554.421
600 0 61.5468 11.9421 735 51.8993 1218.95 549.922
601 0 61.3204 11.8558 727 52.2696 1219.3 548.909
602 0 61.5785 12.3095 758 53.2045 1218.82 551.331
603 0 64.3049 13.4204 863 51.5944 1219.07 549.651
604 0 64.1793 11.9197 765 53.3582 1219.24 550.561
605 0 68.1909 12.597 859 51.7672 1220.84 551.679
606 0 73.209 12.3619 905 51.1425 1219.61 549.343
607 0 73.2137 13.0577 956 50.1454 1219.87 547.899
608 0 75.185 12.7951 962 50.8056 1220.03 547.143
609 0 79.2178 12.0427 954 52 1219.66 546.407
610 0 80.0944 12.4853 1000 51.881 1220.12 544.096
611 0 84.1578 13.3559 1124 50.5988 1220.13 544.313
612 0 86.106 13.193 1136 52.4621 1220.08 541.326
613 0 89.1258 12.3084 1097 52.5561 1220.15 541.364
614 0 92.1051 12.6703 1167 52.7549 1220.06 538.199
615 0 94.1913 12.5702 1184 51.9079 1220.15 538.365
616 1 50.1105 10.4369 523 52.6405 1218.95 559.998
617 0 51.1072 9.56813 489 55.6155 1219.02 558.335
618 0 54.0746 10.652 576 53.7865 1219.23 557.97
619 0 54.1697 9.95022 539 53.1187 1219.12 559.071
620 0 59.165 11.8651 702 50.4402 1219.27 555.981
621 0 59.2766 11.3704 674 52.6573 1220.35 552.634
622 0 61.2298 11.7753 721 52.4313 1220.21 553.257
623 0 63.1865 12.4394 786 51.4478 1220.56 551.874
624 0 64.1558 11.4565 735 52.7184 1220.1 552.218
625 0 67.2545 12.9211 869 51.313 1220.64 551.115
626 0 69.2321 12.3064 852 51.6432 1220.63 550.377
627 0 72.2381 13.1925 953 51.1763 1221.13 546.984
628 0 74.2202 12.7324 945 51.6032 1221.12 548.169
629 0 76.2332 12.7635 973 52.4769 1221.15 545.327
630 0 79.3328 12.6429 1003 51.7507 1220.65 545.894
631 0 82.2332 13.8022 1135 50.2493 1220.99 544.895
632 0 86.2403 13.4044 1156 50.5441 1221.03 542.014
633 0 89.1471 13.1356 1171 50.5525 1221.16 543.042
634 0 93.1558 12.8387 1196 50.8746 1221.38 539.778
635 1 50.1314 10.9313 548 50.8522 1220.82 561.042
636 0 51.0396 10.9719 560 51.2214 1220.32 560.405
637 0 52.1411 10.8552 566 50.924 1220.52 559.73
638 0 54.1949 11.7908 639 50.4883 1220.52 556.873
639 0 55.0435 11.609 639 51.0876 1220.37 557.163
640 0 55.0394 11.7371 646 51.661 1220.53 554.768
641 0 59.0617 11.3441 670 51.4493 1221.66 554.349
642 0 60.1326 12.4558 749 50.7463 1221.78 554.065
643 0 63.0276 12.0265 758 50.405 1221.34 554.664
644 0 65.1183 12.3007 801 50.8015 1221.41 552.23
645 0 65.131 12.59 820 51.7256 1221.64 550.462
646 0 67.0284 12.5768 843 51.1364 1221.71 551.038
647 0 68.183 11.9971 818 51.9633 1222.11 548.408
648 0 71.1143 11.9667 851 51.8837 1222.61 548.495
649 0 73.2919 12.5253 918 51.6993 1223.01 546.741
650 0 73.314 12.1532 891 52.1605 1222.94 545.686
651 0 75.2614 12.8087 964 51.5436 1223.08 541.314
652 0 79.3841 13.1512 1044 50.7471 1223.17 543.011
653 0 80.38 12.1796 979 52.1032 1223.78 540.237
654 0 87.3284 13.3404 1165 50.5605 1223.34 539.127
655 0 88.3621 12.7204 1124 51.6432 1223.57 536.577
656 0 93.4462 12.0925 1130 52.0106 1222.91 535.67
657 1 48.1735 10.732 517 51.9497 1222.22 558.197
658 0 50.1282 11.0317 553 52.5497 1222.31 554.857
659 0 53.0264 11.202 594 52.3872 1222.31 553.596
660 0 53.1324 12.2712 652 51.5261 1222.08 552.887
661 0 55.0775 11.8197 651 52.275 1222.16 553.088
662 0 57.2384 12.0024 687 52.083 1223.77 550.659
663 0 57.1821 11.8569 678 52.2345 1224.05 550.168
664 0 61.1868 12.8786 788 50.9607 1224.15 549.549
665 0 62.1613 12.548 780 51.7615 1224.57 546.209
666 0 64.1641 11.829 759 52.5415 1224.41 549.018
667 0 67.3033 12.5997 848 51.8514 1224.89 546.565
668 0 69.1307 13.0333 901 51.4517 1224.49 546.185
669 0 71.1898 12.5158 891 52.0449 1225.18 543.453
670 0 75.0881 13.9703 1049 49.9533 1224.87 544.922
671 0 78.214 12.9389 1012 50.9575 1225.29 542.217
672 0 77.1498 12.4174 958 52.0532 1224.94 540.288
673 0 80.3047 12.4401 999 52.1582 1224.85 538.738
674 1 44.0602 10.3949 458 52.5262 1223.89 558.159
675 0 44.0417 10.6036 467 51.7302 1223.99 556.627
676 0 46.0896 10.8267 499 50.8537 1224.16 557.968
677 0 47.0291 11.7799 554 50.9116 1224.5 556.818
678 0 49.0299 11.0749 543 51.1823 1224.17 556.123
679 0 53.0466 11.7444 623 50.6982 1224.71 554.331
680 0 52.2144 11.6635 609 51.1609 1225.94 554.517
681 0 54.0949 11.221 607 51.654 1225.67 553.713
682 0 54.0835 11.2049 606 52.3828 1225.02 551.68
683 0 57.1531 11.9504 683 51.7423 1225.78 550.671
684 0 60.0743 12.0684 725 51.7945 1225.31 551.137
685 0 61.1237 12.4502 761 51.5099 1226.16 548.903
686 0 61.1237 12.4174 759 156.793 1227.16 548.946
687 0 64.1144 12.3529 792 52.2601 1225.83 546.611
688 0 65.2263 13.1235 856 51.7839 1225.32 547.396
689 0 68.3533 13.3132 910 52.2011 1225.32 544.975
690 0 71.1832 13.5004 961 51.7888 1225.47 544.515
691 0 71.1884 12.8392 914 52.9267 1225.89 543.018
692 0 74.2029 12.6814 941 52.7024 1225.43 541.946
693 0 76.0907 13.0765 995 52.796 1225.76 541.786
694 0 81.1977 12.8206 1041 52.7445 1225.28 540.183
695 0 84.1839 13.5774 1143 51.9274 1225.03 538.019
696 1 43.1416 11.1957 483 53.1449 1225.2 558.369
697 0 45.0632 9.89721 446 54.5179 1225.4 557.397
698 0 47.1526 10.0949 476 54.7395 1225.84 557.529
699 0 46.6902 10.6661 498 52.8896 1224.91 553.558
700 0 48.4649 11.5754 561 52.3743 1225.01 551.743
701 0 49.4416 11.5894 573 52.6771 1224.23 551.225
702 0 51.3123 12.0634 619 52.2843 1223.83 551.053
703 0 52.3119 12.2343 640 52.9016 1223.77 550.38
704 0 52.3119 12.2534 641 162.906 1223.76 550.396
705 0 55.0915 12.089 666 54.955 1223.9 551.485
706 0 57.222 11.3068 647 55.507 1223.76 551.702
707 0 59.056 12.6829 749 54.4032 1223.87 552.044
708 0 60.25 12.9129 778 54.027 1223.4 549.861
709 0 64.2627 12.6045 810 54.0901 1223.29 548.953
710 0 63.28 12.2946 778 55.1799 1222.82 548.436
711 0 66.1926 12.9471 857 54.7083 1223.29 546.853
712 0 68.1078 13.1263 894 54.5447 1223.65 546.47
713 0 70.1084 12.7659 895 55.1542 1223.51 544.209
714 0 75.1491 15.0235 1129 52.0106 1223.95 544.324
715 0 75.1861 12.6353 950 55.0737 1223.64 544.732
716 0 79.2015 13.6992 1085 54.1816 1223.85 543.776
717 0 78.0676 13.2193 1032 55.47 1224.03 540.067
718 0 83.0648 14.0493 1167 53.9974 1222.87 538.601
719 0 87.0527 13.1185 1142 54.282 1222.91 540.415
720 1 45.0608 10.741 484 54.7996 1222.91 558.831
721 0 45.0126 11.1302 501 54.8962 1222.23 558.034
722 0 48.0357 12.7613 613 52.8597 1222.32 556.204
723 0 51.1283 12.5566 642 52.1402 1221.87 557.908
724 0 51.0554 11.3602 580 55.4776 1221.94 555.507
725 0 52.053 12.0454 627 55.6029 1221.07 554.837
726 0 54.0588 12.6899 686 54.4942 1220.96 553.879
727 0 55.0386 12.7729 703 53.9801 1221.01 554.688
728 0 58.0195 13.3576 775 53.4039 1221.05 553.803
729 0 60.0188 12.3128 739 53.1313 1220.95 552.598
730 0 63.0686 13.7152 865 50.4994 1220.87 552.416
731 0 63.0919 12.3946 782 52.587 1220.76 552.275
732 0 64.0823 12.484 800 53.8975 1220.82 550.635
733 0 66.1188 12.2507 810 54.8457 1220.72 549.754
734 0 68.0796 12.5148 852 53.9155 1220.6 549.619
735 0 67.104 12.9352 868 54.6014 1221.54 548.382
736 0 70.159 13.2841 932 54.1985 1221.5 546.719
737 0 73.2614 12.7625 935 55.1209 1221.41 544.961
738 0 75.1017 13.5416 1017 54.2173 1221.13 546.74
739 0 77.094 13.9181 1073 54.1034 1221.51 543.25
740 0 79.0885 12.1257 959 55.9739 1221.25 544.314
741 1 41.0723 9.20328 378 58.2407 1220.35 561.847
742 0 46.0169 9.86594 454 56.652 1220.12 560.143
743 0 46.0502 12.1606 560 54.7304 1220.33 560.296
744 0 48.1213 10.5567 508 56.2579 1220.19 559.774
745 0 46.2058 10.6047 490 55.649 1220.69 556.445
746 0 50.0391 11.7108 586 55.1416 1220.5 559.061
747 0 51.1821 12.1918 624 55.1362 1221.5 556.199
748 0 52.0432 11.8748 618 55.3042 1220.93 557.194
749 0 56.065 12.7352 714 54.0518 1220.87 555.706
750 0 57.051 12.445 710 54.9127 1220.81 554.961
751 0 57.0592 12.5484 716 54.7318 1220.59 554.8
752 0 59.0915 12.286 726 55.2961 1220.37 554.572
753 0 61.1029 12.6344 772 55.4352 1220.79 552.206
754 0 61.1831 12.3891 758 55.9485 1220.3 552.553
755 0 60.0823 11.5508 694 57.6758 1220.65 551.301
756 0 64.0933 13.3243 854 55.2506 1220.17 550.811
757 0 67.0964 12.8919 865 55.4798 1220.68 549.795
758 0 67.1316 12.4383 835 56.4898 1220.49 550.017
759 0 72.1131 13.0489 941 55.1275 1220.71 547.378
760 0 73.0481 13.4295 981 54.9898 1219.62 546.345
761 0 74.104 11.8212 876 56.6404 1219.6 546.242
762 0 79.1058 14.2847 1130 53.1159 1219.6 547.798
763 0 79.0291 12.5523 992 55.9879 1219.74 544.195
764 0 82.0862 13.6442 1120 54.5205 1219.62 543.295
765 0 83.102 12.5388 1042 56.381 1219.66 541.634
766 0 86.0409 13.2147 1137 55.5717 1220.07 540.345
767 0 89.0902 12.2685 1093 56.1354 1219.82 540.04
768 0 93.0806 12.5268 1166 55.1346 1219.79 540.73
769 1 48.015 9.74696 468 57.0171 1220.31 559.979
770 0 51.0529 10.5381 538 55.8494 1220.17 559.377
771 0 52.105 12.0334 627 54.8293 1220.17 557.179
772 0 53.084 10.8319 575 56.1896 1219.92 557.974
773 0 56.0994 12.2461 687 54.5764 1218.92 556.009
774 0 59.0313 12.3833 731 54.212 1219.51 553.992
775 0 61.1812 13.1086 802 53.5998 1219.5 554.94
776 0 62.0768 12.0657 749 54.5714 1219.29 553.754
777 0 63.032 12.3271 777 54.5006 1219.57 553.232
778 0 67.0833 12.6261 847 53.7934 1218.97 552.532
779 0 69.0713 12.9721 896 53.6529 1219.3 550.419
780 0 70.0666 12.4453 872 54.7683 1219.34 549.593
781 0 74.0673 12.8937 955 54.5665 1219.85 547.831
782 0 76.1371 13.896 1058 53.6853 1220.48 547.049
783 0 77.1055 13.1378 1013 54.7285 1220.96 545.327
784 0 79.2048 13.4714 1067 54.701 1220.78 544.245
785 1 42.0415 9.49061 399 57.3509 1219.91 564.085
786 0 45.0388 11.0571 498 56.751 1220.02 560.982
787 0 47.0137 10.8904 512 56.5547 1220.55 560.475
788 0 46.0548 11.7903 543 56.8821 1220.76 558.869
789 0 49.0407 12.5814 617 55.2804 1220.48 559.006
790 0 51.1724 13.6011 696 54.556 1222.26 558.178
791 0 52.1519 13.3648 697 55.7461 1222.03 556.227
792 0 53.149 12.2486 651 57.9939 1221.96 554.246
793 0 55.1719 12.5426 692 57.5491 1221.09 554.986
794 0 58.069 12.8468 746 56.6944 1221.64 554.188
795 0 58.1076 13.0448 758 57.3681 1221.38 551.905
796 0 61.0747 13.0168 795 57.1862 1221.51 550.698
797 0 63.1339 12.624 797 57.2773 1221.84 549.979
798 0 64.2988 13.0018 836 57.2524 1222.06 549.934
799 0 69.0988 13.7918 953 56.1752 1222.22 549.013
800 0 68.1151 12.5523 855 58.7135 1222.73 546.937
801 0 73.3203 13.0932 960 57.8406 1222.79 545.17
802 0 75.2009 12.8855 969 57.5655 1223.54 545.165
803 0 78.0621 13.0409 1018 57.6984 1223.19 544.122
804 0 80.2422 13.3471 1071 57.5901 1223.03 541.536
805 0 85.1826 14.9679 1275 55.0149 1223.21 543.096
806 0 86.0831 12.9294 1113 57.8131 1222.74 540.102
807 0 89.1283 12.6559 1128 57.1188 1222.53 540.121
808 1 50.084 10.7619 539 57.3655 1222.79 559.952
809 0 49.1276 11.236 552 57.3406 1222.83 558.524
810 0 53.1416 11.8739 631 55.9509 1223.44 557.854
811 0 54.071 11.8178 639 56.7027 1223.45 555.304
812 0 56.2587 13.1357 739 55.2409 1223.7 554.848
813 0 57.1061 12.1703 695 56.4187 1223.95 554.771
814 0 59.1501 13.7278 812 54.8473 1224.44 552.5
815 0 57.2112 11.7809 674 57.5727 1225.65 552.635
816 0 61.1328 12.3665 756 55.9471 1225.16 552.442
817 0 62.1263 12.3297 766 56.6997 1225.27 551.137
818 0 66.1533 12.7734 845 56.6213 1225.26 549.123
819 0 67.1731 12.5645 844 56.8519 1224.83 549.368
820 0 69.101 12.5469 867 56.5836 1225.17 547.12
821 0 73.1261 11.8426 866 56.6132 1224.44 546.567
822 0 75.1496 13.2137 993 55.6123 1224.11 545.584
823 0 76.1183 12.8353 977 56.5916 1223.19 543.799
824 0 80.1245 13.3168 1067 55.7301 1224.03 542.446
825 0 81.2361 12.4944 1015 56.9438 1224.09 541.994
826 1 42.0992 10.3565 436 57.9106 1224.15 561.314
827 0 44.1034 10.8155 477 57.2432 1223.63 559.769
828 0 46.1259 11.1 512 56.5684 1224.94 559.709
829 0 46.2786 12.1655 563 56.8224 1224.41 558.176
830 0 47.0634 11.7926 555 56.3784 1225.07 558.164
831 0 48.1227 12.2395 589 56.1477 1224.9 556.611
832 0 50.1623 11.9612 600 56.335 1225.3 556.85
833 0 51.1267 12.6353 646 56.257 1224.73 556.285
834 0 52.1613 11.9821 625 57.36 1224.36 555.04
835 0 54.1947 12.8979 699 56.5351 1224.3 554.783
836 0 57.1394 12.8633 735 55.9088 1223.83 553.601
837 0 58.245 13.22 770 56.0545 1223.59 552.314
838 0 60.044 12.774 767 57.0417 1223.65 553.806
839 0 62.1403 13.2925 826 57.5654 1222.97 553.031
840 0 63.1481 13.888 877 56.9863 1223.08 550.661
841 0 66.1405 13.9249 921 56.392 1223.15 550.465
842 0 67.1968 13.5423 910 57.5868 1222.61 548.623
843 0 69.2013 12.7021 879 59.0603 1223.25 548.031
844 0 70.1916 13.0073 913 59.3669 1223.66 547.117
845 0 74.1853 13.7898 1023 58.0948 1223.14 545.792
846 0 77.2467 13.541 1046 58.4407 1223.19 544.603
847 1 40.0427 9.81453 393 61.8626 1221.75 562.573
848 0 41.0396 10.8675 446 61.3475 1221.57 562.54
849 0 43.0702 11.0982 478 60.8703 1221.47 560.383
850 0 45.1565 11.4269 516 61.0407 1222.39 560.969
851 0 45.2908 11.2385 509 60.888 1221.83 561.43
852 0 43.4325 11.42 496 62.373 1221.53 558.185
853 0 46.5918 12.4915 582 60.3299 1221.08 558.809
854 0 48.8084 11.4939 561 61.8627 1221.66 557.349
855 0 50.5008 12.5147 632 60.538 1221.73 558.157
856 0 51.4164 12.8947 663 60.5158 1221.8 556.103
857 0 53.5443 12.2702 657 60.968 1222.06 556.531
858 0 53.3396 13.3859 714 60.4342 1222.32 556.902
859 0 55.4035 12.8331 711 60.5654 1221.77 555.7
860 0 54.3658 12.9493 704 61.3665 1221.06 555.359
861 0 59.4259 14.5728 866 58.8095 1221.16 554.383
862 0 61.5581 14.2142 875 58.9166 1220.77 553.518
863 0 62.5285 13.3379 834 60.8753 1221.2 551.606
864 0 63.4533 13.5533 860 60.95 1221.36 550.537
865 0 65.4751 13.1653 862 61.1044 1221.37 550.311
866 0 63.419 12.7564 809 63.2435 1221.33 548.922
867 0 69.4179 13.181 915 61.271 1221.57 550.158
868 0 70.5913 13.7977 974 61.0503 1220.71 549.919
869 0 74.3819 13.1887 981 62.4179 1220.75 548.406
870 0 75.3206 13.5554 1021 62.1655 1220.35 545.14
871 0 79.2838 14.1139 1119 60.7408 1220.02 545.172
872 0 80.2286 13.0253 1045 62.8708 1220.61 544.059
873 0 83.3687 13.2544 1105 62.657 1220.55 542.546
874 0 85.2681 14.0381 1197 61.7661 1221.1 540.972
875 0 88.2726 13.0391 1151 63.0626 1220.73 540.165
876 0 90.2578 12.3757 1117 64.4745 1220.32 540.714
877 0 95.2906 13.1073 1249 62.6797 1220.05 539.902
878 1 48.054 12.2571 589 62.927 1220.19 559.562
879 0 50.0446 11.1301 557 62.4847 1221.02 559.167
880 0 49.0408 11.9288 585 63.6718 1219.57 558.492
881 0 51.0678 12.4344 635 63.3591 1219.04 559.696
882 0 53.0894 12.7709 678 62.9277 1218.94 558.729
883 0 55.018 12.6504 696 63.306 1219.33 558.214
884 0 57.0409 14.025 800 61.2925 1219.27 557.809
885 0 57.0787 13.0171 743 63.1117 1219.51 558.273
886 0 58.0713 13.1562 764 63.5942 1219.69 555.755
887 0 60.1804 13.6091 819 62.7863 1220.44 554.858
888 0 62.0547 13.0852 812 63.0209 1220.47 554.358
889 0 63.092 12.5214 790 64.2013 1220.65 552.033
890 0 68.219 13.3101 908 62.1498 1220.99 552.143
891 0 68.1777 12.9515 883 63.2254 1220.69 551.309
892 0 71.1411 13.0586 929 62.6179 1220.98 548.202
893 0 74.2022 13.6654 1014 63.784 1221.41 548.617
894 0 76.1742 13.561 1033 70.3582 1221.59 546.113
895 0 77.3213 13.7737 1065 61.3239 1222.32 544.586
896 0 80.3641 12.0203 966 62.588 1221.95 542.588
897 0 83.5328 13.384 1118 61.1252 1222.5 540.221
898 0 87.5659 14.0466 1230 59.926 1222.37 537.526
899 0 90.516 12.5503 1136 61.3847 1222.75 540.57
900 1 49.1437 12.3108 605 60.1769 1222.71 557.995
901 0 51.2427 11.0455 566 63.1908 1222.62 557.33
902 0 54.0251 12.3461 667 60.4648 1223.03 554.631
903 0 54.0877 12.6276 683 60.4905 1223.23 553.572
904 0 54.1029 12.3099 666 61.3514 1223.39 552.902
905 0 57.1056 13.5363 773 60.7633 1223.3 551.542
906 0 59.0944 13.1315 776 60.509 1223.79 552.18
907 0 61.1671 12.2288 748 61.266 1224.14 552.369
908 0 63.334 13.4683 853 59.6589 1224.27 552.038
909 0 66.3172 14.8227 983 57.6389 1224.08 550.362
910 0 69.3177 13.3155 923 60.0195 1224.4 548.663
911 0 70.22 13.6856 961 60.3725 1224.25 547.613
912 0 73.3561 14.6 1071 59.381 1224.65 544.825
913 0 76.2386 13.6938 1044 60.2174 1225.19 546.468
914 0 76.4999 14.0523 1075 60.9023 1225.05 543.669
915 0 80.2521 14.9778 1202 59 1225.58 542.334
916 0 82.1833 13.9566 1147 61.0035 1224.58 542.929
917 0 85.3854 13.5855 1160 61.3336 1225.15 539.139
918 1 44.2259 12.3683 547 63.9177 1225.06 559.442
919 0 44.1531 12.1622 537 64.6574 1224.85 558.41
920 0 46.091 12.9743 598 62.4599 1224.71 559.015
921 0 47.2496 13.5874 642 63.2508 1225.21 557.226
922 0 52.1029 13.5693 707 60.9321 1224.83 557.894
923 0 50.5051 13.7214 693 61.6234 1225.81 556.658
924 0 52.3825 14.6614 768 60.4688 1225.91 556.089
925 0 53.2607 13.8939 740 61.3851 1225.61 555.369
926 0 55.2368 13.7952 762 61.3596 1226.03 553.008
927 0 57.2309 14.0484 804 60.8022 1225.82 552.893
928 0 60.1526 13.8647 834 60.2866 1225.44 552.272
929 0 59.1792 15.5967 923 59.195 1225.68 551.758
930 0 63.2955 14.5824 923 59.584 1226.36 551.706
931 0 63.2031 14.3822 909 60.3124 1225.92 550.923
932 0 65.4162 14.0179 917 60.5998 1225.85 549.696
933 0 67.3218 14.7203 991 59.7679 1225.9 547.357
934 0 68.3002 14.4948 990 60.3788 1225.48 547.471
935 0 71.3156 14.1624 1010 60.1653 1225.59 546.249
936 0 74.2219 14.9821 1112 58.9811 1225.15 544.746
937 0 77.263 14.0559 1086 59.768 1224.83 545.797
938 0 79.3202 14.8512 1178 59.1409 1225.03 542.164
939 0 82.2321 14.5685 1198 59.3297 1224.81 541.78
940 0 83.4208 13.8095 1152 60.566 1224.82 540.376
941 1 44.2425 12.0472 533 63.0131 1223.93 560.158
942 0 46.2866 12.0769 559 62.6512 1224.26 559.1
943 0 48.2271 13.8719 669 60.9776 1224.51 556.686
944 0 50.4363 13.6013 686 60.4694 1224.25 557.716
945 0 50.2125 14.1399 710 60.6704 1223.95 556.51
946 0 50.1253 14.3241 718 61.6657 1223.9 555.73
947 0 54.1336 15.0184 813 59.7331 1223.82 554.599
948 0 56.2152 14.1243 794 60.8111 1223.63 554.809
949 0 57.1442 14.7871 845 60.355 1223.28 552.746
950 0 59.1686 14.6868 869 60.328 1223.23 553.025
951 0 63.2113 14.8391 938 59.3028 1223.03 551.679
952 0 64.0783 14.8256 950 60.3179 1222.59 549.148
953 0 67.1094 14.6626 984 60.1341 1222.6 548.117
954 0 69.0433 15.034 1038 59.8892 1222.65 548.083
955 0 71.1374 13.9167 990 61.3949 1222.54 546.814
956 1 35.0449 12.8121 449 63.7149 1222.91 563.604
957 0 37.0624 12.4385 461 63.4252 1222.81 562.451
958 0 39.0253 13.0172 508 62.5236 1223.35 562.555
959 0 39.0374 13.5511 529 63.4272 1223.57 560.009
960 0 44.1032 14.8969 657 59.6286 1222.82 560.403
961 0 44.0724 14.1585 624 61.5465 1223.07 561.42
962 0 48.1183 13.0304 627 62.8995 1223 560.75
963 0 46.0944 14.7089 678 60.5251 1223.38 558.534
964 0 50.0995 15.589 781 57.9001 1223.04 560.192
965 0 49.105 14.2552 700 61.27 1223.11 557.39
966 0 50.1323 15.3793 771 60.0013 1223.21 555.35
967 0 53.0362 14.4807 768 60.306 1223.42 556.534
968 0 54.1303 15.3518 831 59.6679 1222.98 556.035
969 0 56.2828 14.6048 822 59.9684 1222.58 555.663
970 0 58.0696 15.4814 899 59.4783 1222.39 552.623
971 0 60.1004 15.707 944 58.5794 1222.7 553.447
972 0 61.1779 14.6622 897 60.5764 1223.42 549.931
973 0 64.0243 15.5254 994 59.0895 1223.43 550.712
974 0 66.231 14.5551 964 60.3402 1223.06 548.746
975 0 68.0762 14.5719 992 60.3206 1223.04 546.551
976 1 34.1126 13.514 461 62.013 1222.09 562.612
977 0 37.1982 12.0974 450 63.18 1222.14 561.196
978 0 40.0341 13.4386 538 60.6524 1221.92 561.223
979 0 43.0328 13.6872 589 59.8455 1221.43 560.683
980 0 44.0913 14.0617 620 60.179 1221.83 560.252
981 0 44.0794 14.7007 648 60.392 1221.37 558.367
982 0 48.1133 14.7776 711 59.7117 1221.51 557.308
983 0 48.2373 14.0763 679 60.8719 1221.78 556.848
984 0 50.1032 14.3105 717 60.8787 1221.26 556.386
985 0 52.2095 15.342 801 59.7541 1221.57 556.593
986 0 52.1982 14.8664 776 61.5232 1221.95 554.374
987 0 55.1718 13.9202 768 61.9271 1222.13 555.174
988 0 57.1726 15.3395 877 60.1608 1222.02 553.202
989 0 58.1184 15.4168 896 60.2958 1221.77 552.53
990 0 61.0465 15.1524 925 60.4703 1222.16 551.501
991 0 64.1078 14.9748 960 60.3271 1221.51 550.315
992 0 64.1165 14.7856 948 61.4008 1221.4 548.788
993 0 67.0974 14.7398 989 61.4408 1221.52 546.778
994 0 69.0899 14.6765 1014 61.3521 1221.99 547.553
995 0 72.1292 15.292 1103 60.9946 1221.92 545.664
996 0 73.2696 14.822 1086 61.616 1221.55 545.237
997 0 76.1933 15.1851 1157 61.1919 1221.4 542.857
998 0 79.1188 15.3566 1215 60.5498 1221.01 542.6
999 1 39.0927 12.2785 480 65.1729 1221.22 559.708
1000 0 43.0313 12.1772 524 64.5401 1221.66 559.389
1001 0 45.1972 13.784 623 62.3997 1221.55 559.222
1002 0 48.3111 14.7171 711 61.4726 1221.33 559.16
1003 0 49.0842 13.813 678 62.1667 1221.06 557.037
1004 0 50.2426 15.1465 761 60.7004 1221.18 556.568
1005 0 52.1064 14.6047 761 61.4849 1220.76 554.577
1006 0 56.0312 14.9738 839 60.2765 1221.45 553.429
1007 0 57.1362 14.1766 810 60.8667 1220.86 552.728
1008 0 57.1384 14.5436 831 61.1733 1221.38 552.185
1009 0 62.2071 14.8697 925 60.0562 1221.79 550.827
1010 0 64.2128 15.0593 967 59.7735 1221.44 550.029
1011 0 64.1623 13.8555 889 61.7087 1221.27 549.231
1012 0 69.2054 14.4497 1000 61.83 1221.21 548.028
1013 0 72.2209 14.3449 1036 61.8958 1221.27 546.11
1014 0 74.1596 14.6711 1088 61.4605 1221.57 546.946
1015 0 78.4196 14.1419 1109 61.6312 1220.83 544.913
1016 0 77.2913 13.5332 1046 63.2878 1221.47 543.795
1017 0 77.2913 13.5591 1048 180.053 1222.46 543.76
1018 1 43.0769 12.8607 554 62.2365 1222.63 560.726
1019 0 44.105 12.4022 547 62.3053 1222.97 560.313
1020 0 44.125 11.898 525 64.4324 1222.45 560.236
1021 0 48.0412 13.5925 653 61.5452 1222.36 559.424
1022 0 50.1735 14.0712 706 59.687 1222.3 558.782
1023 0 50.1814 14.069 706 60.8343 1222.34 557.176
1024 0 53.1435 14.2633 758 59.9103 1222.82 559.376
1025 0 54.1469 14.4053 780 60.3 1222.71 556.715
1026 0 56.1063 13.0823 734 61.8474 1222.66 554.075
1027 0 55.0299 13.5018 743 62.2503 1223.14 554.538
1028 0 58.3488 12.9394 755 62.6437 1223.27 553.196
1029 0 59.1465 13.661 808 62.271 1223.36 552.026
1030 0 62.1342 13.3421 829 62.6671 1223.48 550.724
1031 0 65.2297 13.3221 869 61.9102 1223.47 549.772
1032 0 68.1198 13.6965 933 61.448 1223.75 549.428
1033 0 69.3536 13.9286 966 61.0104 1223.73 548.628
1034 0 73.2727 14.2754 1046 60.4054 1223.95 545.375
1035 0 74.253 13.5348 1005 62.1303 1223.87 544.349
1036 0 78.2986 13.0015 1018 62.3242 1224.1 542.912
1037 1 38.2394 9.64972 369 65.7588 1223.39 559.339
1038 0 44.1734 12.2698 542 61.3192 1224.14 559.153
1039 0 44.081 11.8191 521 62.762 1224.1 559.902
1040 0 47.1453 12.2812 579 61.2677 1224.62 559.162
1041 0 48.1332 12.4654 600 63.135 1224.88 559.877
1042 0 51.1351 13.4154 686 61.7143 1225 558.067
1043 0 51.1586 13.292 680 61.7529 1225.21 557.976
1044 0 54.1451 12.3372 668 62.8772 1224.98 557.222
1045 0 56.0564 12.9869 728 62.5728 1225.57 555.446
1046 0 56.0905 13.6565 766 62.765 1225.14 554.89
1047 0 57.097 12.1547 694 63.3228 1225.39 555.013
1048 0 60.2808 13.1717 794 62.2859 1225.43 554.569
1049 0 60.2702 13.1906 795 62.7245 1225.41 551.114
1050 0 64.1739 14.1023 905 60.5602 1225.96 551.478
1051 0 65.1889 12.9623 845 62.6592 1225.83 549.896
1052 0 67.3044 12.7629 859 63.6298 1226.56 549.225
1053 0 71.2767 13.7352 979 61.7007 1225.88 548.65
1054 0 71.1121 13.1623 936 63.6303 1226.3 546.536
1055 0 75.2954 13.1748 992 63.3579 1226.39 545.613
1056 0 78.5007 12.9171 1014 63.5375 1226.6 544.737
1057 0 79.3166 12.4312 986 64.8631 1226.51 543.039
1058 0 82.3904 13.6788 1127 63.3434 1226.55 540.732
1059 1 44.3329 11.143 494 62.7166 1226.86 561.947
1060 0 46.2482 10.6166 491 63.0081 1226.6 561.57
1061 0 46.1741 11.6516 538 63.0074 1226.48 560
1062 0 48.3967 12.7281 616 61.4789 1226.49 558.877
1063 0 48.6323 12.3169 599 62.6427 1225.36 558.337
1064 0 50.3405 12.0976 609 63.8654 1226.48 557.929
1065 0 52.2822 12.3178 644 64.0078 1225.97 557.972
1066 0 55.2203 12.7489 704 63.3239 1226.19 557.224
1067 0 57.2244 12.7044 727 63.0825 1226.29 557.737
1068 0 57.1671 12.3148 704 64.3011 1225.64 556.386
1069 0 61.1633 13.3413 816 62.0123 1225.34 553.779
1070 0 63.2351 12.8093 810 62.7988 1225.58 553.391
1071 0 64.1801 13.8516 889 62.0832 1225.37 551.369
1072 0 65.4392 13.2337 866 62.7471 1225.48 549.976
1073 0 69.203 13.0052 900 62.8622 1225.17 549.337
1074 0 71.2466 12.562 895 63.9899 1225.22 548.597
1075 1 35.089 10.6016 372 65.6855 1225.26 564.656
1076 0 39.2309 9.96665 391 65.6701 1225.44 563.987
1077 0 39.136 10.9362 428 65.2757 1225.03 563.147
1078 0 38.1617 11.0582 422 66.0118 1225.61 562.237
1079 0 40.3022 10.4461 421 66.1425 1224.7 562.862
1080 0 43.5348 11.9904 522 62.9981 1223.97 561.795
1081 0 42.5351 11.802 502 64.0896 1223.57 561.408
1082 0 43.2998 12.1941 528 64.1383 1223.97 560.013
1083 0 44.1599 12.5 552 63.8533 1224.23 559.743
1084 0 47.2998 12.2199 578 63.9066 1223.67 558.834
1085 0 48.6296 13.0168 633 63.1485 1223.48 557.316
1086 0 49.6766 12.219 607 64.3674 1223.53 557.323
1087 0 48.6045 12.9206 628 65.0111 1223.31 555.74
1088 0 53.639 13.7027 735 62.1905 1223.97 556.181
1089 0 54.6557 13.5393 740 63.3554 1223.77 555.623
1090 0 54.5411 12.486 681 65.2614 1223.85 553.956
1091 0 56.4342 13.2898 750 63.836 1223.67 555.592
1092 0 60.3555 13.0891 790 63.3987 1224.39 554.118
1093 0 61.5739 13.5772 836 63.0718 1224.59 554.364
1094 0 62.3409 13.0733 815 63.7031 1224.33 552.449
1095 0 62.3409 13.0893 816 164.808 1224.34 552.431
1096 0 65.3487 12.9306 845 63.7254 1223.99 549.795
1097 0 71.3557 13.4818 962 61.4148 1223.31 547.869
1098 0 73.2919 13.6986 1004 61.0677 1223.37 546.757
1099 0 75.2996 13.174 992 61.6351 1223.63 545.343
1100 0 77.4327 12.4753 966 62.3199 1223.46 543.72
1101 1 42.3968 10.6612 452 63.615 1222.73 562.024
1102 0 44.2462 11.9106 527 62.2353 1222.5 561.918
1103 0 45.3673 12.6523 574 61.5331 1222.42 560.354
1104 0 45.2487 11.7793 533 63.3846 1223.04 560.126
1105 0 46.2702 12.6647 586 62.0205 1222.84 559.538
1106 0 49.1261 13.0888 643 60.9409 1222.77 558.353
1107 0 51.1736 12.4478 637 61.2732 1223.53 557.713
1108 0 53.1381 12.9662 689 60.6865 1223.25 555.467
1109 0 55.2833 12.4269 687 61.3057 1223.19 555.114
1110 0 57.0953 13.4687 769 59.485 1222.95 554.783
1111 0 59.1967 13.2609 785 59.2561 1222.28 554.562
1112 0 60.0956 13.6283 819 59.0586 1222.35 553.736
1113 0 61.299 12.4472 763 60.9161 1223.21 552.157
1114 0 61.0511 13.3659 816 59.5809 1223.09 550.972
1115 0 66.1464 13.2736 878 58.3588 1222.72 550.377
1116 0 67.2326 13.4012 901 58.3407 1222.59 548.483
1117 0 68.0983 12.6875 864 59.6771 1222.49 549.502
1118 0 71.071 13.2966 945 58.727 1222.35 546.831
1119 0 75.1559 13.5585 1019 58.1963 1222.03 546.868
1120 1 39.011 9.99719 390 61.1667 1221.37 564.231
1121 0 40.073 10.5807 424 60.4222 1221.73 561.5
1122 0 44.0741 10.6639 470 60.0809 1221.64 561.115
1123 0 46.0434 11.2285 517 59.118 1221.39 559.756
1124 0 45.0256 11.7933 531 58.7571 1221.68 560.04
1125 0 48.0278 12.5552 603 56.7595 1222.01 560.26
1126 0 50.172 12.198 612 57.268 1222.74 559.853
1127 0 52.134 12.0075 626 57.9681 1222.46 561.152
1128 0 54.0601 12.3936 670 56.9239 1222.26 559.06
1129 0 54.0863 12.3876 670 57.5716 1222.33 558.766
1130 0 56.0459 12.2043 684 57.8304 1222.09 556.893
1131 0 58.0912 13.0829 760 57.1921 1222.61 555.295
1132 0 60.1095 13.1926 793 56.6772 1222.33 555.627
1133 0 61.1491 13.0664 799 57.2904 1222.35 554.234
1134 0 64.0853 13.3884 858 57.1573 1222.67 553.894
1135 0 66.1569 13.6947 906 56.7174 1222.7 552.145
1136 0 70.1394 13.3734 938 56.419 1223.07 551.113
1137 0 71.1144 13.6681 972 56.4794 1223.16 549.459
1138 0 72.1187 13.8799 1001 56.3407 1222.86 549.838
1139 0 76.1422 13.0677 995 57.1779 1222.34 547.979
1140 0 77.1325 14.7927 1141 54.9413 1222.72 548.56
1141 0 78.084 13.4471 1050 57.5324 1223.16 546.757
1142 0 82.1549 13.1581 1081 58.9704 1223.45 545.689
1143 0 83.206 13.3043 1107 59.7425 1223.38 543.459
1144 0 87.1683 14.5007 1264 57.8845 1223.3 543.612
1145 1 48.0319 10.9302 525 60.5867 1223.34 562.076
1146 0 48.0532 11.0919 533 61.2702 1223.64 561.653
1147 0 49.0422 11.1129 545 62.1523 1224.03 559.928
1148 0 52.1076 11.4763 598 61.6204 1224.51 559.156
1149 0 54.1601 11.6876 633 60.9305 1224.47 559.303
1150 0 53.1623 11.9257 634 62.276 1224.76 557.369
1151 0 55.0965 12.1605 670 62.0567 1225.39 556.5
1152 0 58.1301 12.8677 748 60.0949 1225.81 557.067
1153 0 58.087 12.9977 755 60.4993 1225.95 553.363
1154 0 62.1673 13.0937 814 59.3845 1225.76 552.419
1155 0 63.1251 13.4336 848 59.5 1225.38 552.068
1156 0 65.1218 12.4075 808 60.7735 1225.58 551.769
1157 0 66.2301 13.2719 879 59.6576 1225.88 549.66
1158 0 70.2517 13.5086 949 58.6934 1226.36 547.667
1159 0 72.116 13.6447 984 58.5783 1226.6 547.653
1160 0 76.0829 12.6178 960 59.7677 1227.22 544.211
1161 0 77.1721 13.0747 1009 58.9098 1227.19 546.027
1162 0 81.2496 12.7878 1039 59.2108 1227.26 542.65
1163 0 84.2572 12.9959 1095 58.5406 1227.51 541.483
1164 0 86.1324 12.2137 1052 58.9163 1228.33 540.656
1165 0 89.3409 13.6891 1223 56.7138 1228.52 539.071
1166 0 90.4555 13.3767 1210 57.1372 1228.03 537.105
1167 1 47.4225 11.8509 562 57.8861 1226.85 557.384
1168 0 49.2762 11.0601 545 58.967 1227.79 554.631
1169 0 49.4314 10.4185 515 58.7049 1226.73 556.588
1170 0 52.622 11.5541 608 57.9441 1227.15 554.411
1171 0 53.3517 11.6023 619 58.0242 1227.47 553.397
1172 0 55.4374 11.8332 656 57.4771 1227.39 553.329
1173 0 58.1238 12.3702 719 56.8693 1227.69 552.725
1174 0 59.2467 12.5577 744 56.3575 1228.5 553.267
1175 0 61.4617 12.2515 753 56.7556 1228.99 551.355
1176 0 63.2269 12.21 772 57.0453 1228.81 551.026
1177 0 65.2054 13.6185 888 55.5383 1228.39 548.046
1178 0 66.2897 12.7169 843 56.7663 1228.75 548.028
1179 0 69.2519 12.5339 868 56.5173 1228.99 547.041
1180 0 71.3154 12.5919 898 56.6882 1229.14 545.963
1181 0 76.4818 13.1927 1009 55.1982 1229.09 545.423
1182 0 76.4818 13.1665 1007 157.696 1229.09 545.41
1183 0 76.3793 13.0664 998 56.8307 1228.16 541.073
1184 0 78.3002 12.6309 989 56.9242 1228.04 540.132
1185 1 42.271 9.81761 415 57.2072 1227.24 560.942
1186 0 42.1394 11.6281 490 56.1735 1226.25 558.492
1187 0 42.1694 10.4341 440 57.8068 1226.73 557.5
1188 0 44.2147 11.6025 513 56.8012 1227.22 556.446
1189 0 45.2715 12.0385 545 56.345 1227.2 554.692
1190 0 46.2122 12.118 560 55.7125 1226.01 554.448
1191 0 52.2182 12.0264 628 55.7006 1226.91 556.761
1192 0 52.0358 12.2992 640 56.2875 1226.59 556.506
1193 0 52.0299 12.1853 634 56.6798 1226.65 554.995
1194 0 54.1266 11.7872 638 57.5549 1226.82 555.205
1195 0 57.1014 13.1345 750 55.412 1226.28 554.732
1196 0 58.1657 12.1205 705 56.9858 1225.96 553.213
1197 0 61.079 14.031 857 54.6348 1226.39 551.411
1198 0 62.0887 12.8526 798 56.6003 1225.93 551.888
1199 0 64.3017 12.6124 811 56.9642 1226.87 551.099
1200 0 66.129 12.0371 796 57.6947 1226.73 550.246
1201 0 67.3764 13.3578 900 56.32 1226.18 549.747
1202 0 70.1802 13.8786 974 55.8809 1226.34 547.713
1203 0 74.2717 13.3968 995 56.002 1226.36 546.015
1204 0 77.1322 13.7167 1058 55.8573 1226.49 547.014
1205 0 78.2668 12.8024 1002 57.8603 1226.57 545.187
1206 0 80.247 13.3214 1069 57.5154 1226.53 542.913
1207 0 82.3391 13.0679 1076 58.0112 1226.4 541.388
1208 0 86.2964 13.0596 1127 58.1074 1226.14 539.845
1209 0 89.2063 13.1829 1176 57.5408 1225.94 539.196
1210 0 89.2063 13.1829 1176 167.553 1225.94 539.128
1211 1 47.1212 11.5659 545 56.7339 1225.87 559.011
1212 0 50.1844 11.2983 567 57.0071 1226.07 558.473
1213 0 48.204 11.2231 541 58.5083 1225.4 557.957
1214 0 53.1516 11.6271 618 57.1278 1225.9 557.885
1215 0 55.1617 12.9438 714 55.5168 1225.53 556.731
1216 0 56.2376 12.5539 706 55.7125 1225.17 556.412
1217 0 59.161 12.9139 764 55.5798 1224.73 554.234
1218 0 60.1255 12.7899 769 55.9155 1224.76 555.365
1219 0 62.214 12.1355 755 56.706 1224.25 551.992
1220 0 65.1227 12.8219 835 56.3677 1223.84 550.842
1221 0 65.1248 12.6987 827 56.578 1223.58 551.201
1222 0 67.2087 13.8375 930 55.0925 1223.24 549.628
1223 0 66.2734 13.6405 904 56.5996 1223.55 548.436
1224 0 71.126 13.2019 939 56.3142 1222.91 547.15
1225 0 72.1342 13.156 949 56.4858 1223.59 545.244
1226 0 76.1225 14.5555 1108 54.3087 1223.28 546.179
1227 0 78.1643 13.1006 1024 56.4141 1223.15 543.637
1228 0 79.0931 13.0479 1032 56.7384 1222.55 544.218
1229 0 84.1211 14.7763 1243 53.9445 1222.39 541.109
1230 0 84.2498 12.9021 1087 56.8491 1222.44 539.482
1231 0 88.0921 13.7356 1210 55.2934 1222.32 540.536
1232 0 90.1486 13.7994 1244 55.6093 1221.98 538.049
1233 0 93.1687 14.1464 1318 54.9029 1221.97 538.785
1234 0 94.2735 13.0047 1226 56.3915 1222.63 536.143
1235 0 98.197 13.4424 1320 56.0076 1222.69 534.545
1236 0 101.291 13.8809 1406 55.5256 1222.31 534.262
1237 0 104.239 13.0758 1363 56.642 1222.59 532.787
1238 0 106.177 13.2326 1405 55.8427 1222.59 531.635
1239 1 55.2404 11.2961 624 55.7292 1221.7 557.736
1240 0 59.0643 11.9361 705 54.973 1222 554.723
1241 0 60.1725 10.6527 641 56.6802 1222.22 554.764
1242 0 60.1725 10.6859 643 163.691 1221.21 554.747
1243 0 66.1582 12.062 798 54.609 1221.76 551.699
1244 0 68.2147 12.49 852 54.3685 1222.49 550.803
1245 0 69.1957 12.0672 835 54.8647 1222.43 549.769
1246 0 72.221 12.9464 935 53.8492 1222.77 548.79
1247 0 73.1607 12.247 896 54.5904 1222.03 547.325
1248 0 76.1452 12.0953 921 55.62 1222.29 545.562
1249 0 79.2348 11.6742 925 55.6227 1222.15 544.926
1250 0 84.1662 12.4872 1051 54.4681 1222.19 544.384
1251 0 86.2252 12.9776 1119 54.0089 1222.29 541.501
1252 0 88.2378 12.489 1102 54.814 1222.34 540.181
1253 0 89.1347 12.9467 1154 54.6612 1222.23 539.889
1254 0 92.3446 12.7132 1174 55.6278 1222.55 536.379
1255 1 49.0548 10.0092 491 56.6721 1221.81 558.978
1256 0 51.0536 11.106 567 55.8148 1221.94 558.268
1257 0 50.0389 10.252 513 57.4815 1222.01 556.739
1258 0 53.0481 10.7261 569 57.5466 1222.39 556.376
1259 0 55.1023 11.8325 652 55.3144 1224.19 555.537
1260 0 56.1127 11.3343 636 57.1179 1224.41 556.363
1261 0 59.1027 12.639 747 55.2383 1224.21 553.818
1262 0 58.1953 12.1144 705 56.1901 1224.13 553.996
1263 0 60.2031 12.2419 737 56.2171 1224.46 552.913
1264 0 63.2223 12.4481 787 55.4905 1224.19 552.61
1265 0 64.2368 13.0922 841 55.0975 1224.44 552.315
1266 0 66.224 11.8839 787 55.9695 1224.71 549.154
1267 0 70.1095 12.4234 871 55.1217 1224.58 548.208
1268 0 70.2334 13.1561 924 54.8236 1224.77 547.051
1269 0 73.1536 12.5079 915 55.8175 1224.94 545.652
1270 0 77.1644 12.7909 987 54.8683 1224.73 544.971
1271 0 77.2002 12.2279 944 56.4566 1224.74 542.225
1272 0 80.196 12.9558 1039 55.8749 1225.65 540.991
1273 0 83.2026 12.8962 1073 56.0363 1225.81 540.25
1274 0 86.2422 12.8128 1105 56.1511 1226.31 539.249
1275 0 88.258 12.9393 1142 56.5709 1226.83 535.203
1276 0 93.2401 12.4732 1163 57.0163 1227.03 535.975
1277 1 50.0953 10.5798 530 57.6962 1226.22 556.483
1278 0 51.0713 9.92729 507 55.8284 1226.55 551.917
1279 0 54.2322 10.1969 553 55.2948 1226.56 552.671
1280 0 55.1261 10.3943 573 56.0279 1226.19 552.398
1281 0 54.1167 10.9208 591 56.4162 1227.09 551.597
1282 0 57.0838 11.6671 666 55.2898 1227.87 549.821
1283 0 58.0509 12.9886 754 55.1313 1227.05 551.286
1284 0 60.0503 11.4904 690 57.1304 1227.17 551.564
1285 0 64.0813 12.9055 827 55.1451 1227.67 548.368
1286 0 63.0365 12.1993 769 57.0663 1227.46 549.254
1287 0 63.0365 12.1993 769 157.659 1227.46 549.254
1288 0 68.0311 12.5384 853 56.3529 1228.17 549.64
1289 0 69.1403 12.3517 854 56.9052 1228.02 546.919
1290 0 71.0717 13.1135 932 56.0193 1228.08 546.962
1291 0 71.1419 12.0745 859 57.4575 1228.08 545.085
1292 0 77.1138 12.8252 989 56.2437 1228.45 543.278
1293 0 78.1034 12.6499 988 56.6984 1228.19 542.25
1294 0 82.1739 13.7878 1133 54.8791 1228.38 540.418
1295 1 42.0411 10.2994 433 58.1132 1228.61 558.781
1296 0 44.1673 9.781 432 58.2199 1227.61 559.435
1297 0 43.0378 9.94475 428 59.3061 1228.71 557.703
1298 0 48.1367 11.2388 541 56.3142 1229.43 558.198
1299 0 47.0981 11.2956 532 54.438 1230.39 555.323
1300 0 49.0796 11.8583 582 53.878 1230.33 555.002
1301 0 50.7955 11.8514 602 55.5233 1227.27 556.179
1302 0 53.7335 12.6923 682 54.022 1227.26 553.217
1303 0 53.514 12.8004 685 54.1139 1227.47 553.731
1304 0 55.5833 12.036 669 55.3812 1227.66 551.477
1305 0 54.6359 12.1166 662 56.0317 1226.9 551.162
1306 0 58.5614 13.0803 766 53.9856 1226.95 550.393
1307 0 61.1116 12.0108 734 55.733 1228.2 550.211
1308 0 62.1395 12.8421 798 54.5288 1227.63 549.701
1309 0 63.1383 12.4489 786 55.374 1227.53 548.434
1310 0 65.1618 12.1851 794 55.7305 1227.57 548.768
1311 0 64.1091 12.8375 823 55.1422 1227.52 547.919
1312 0 70.2157 13.4443 944 54.0731 1227.47 546.97
1313 0 71.1636 13.2371 942 54.2813 1227.08 544.885
1314 0 72.0812 12.8605 927 54.9741 1227.11 544.795
1315 0 73.1249 12.171 890 55.5067 1226.73 544.033
1316 0 77.0963 13.1394 1013 54.31 1225.7 540.486
1317 0 78.1424 12.3365 964 55.8423 1226.38 543.179
1318 0 83.0777 13.4693 1119 54.3387 1226.23 541.626
1319 0 85.1797 12.5734 1071 55.38 1226.12 540.558
1320 0 87.2353 12.7471 1112 55.2626 1225.48 538.261
1321 1 45.0174 10.7514 484 56.8822 1224.32 559.876
1322 0 46.0981 10.9332 504 55.9048 1224.64 560.04
1323 0 47.0356 11.3106 532 56.0113 1224.6 559.004
1324 0 50.0889 11.2799 565 55.3009 1224.43 558.52
1325 0 51.0421 12.2252 624 54.4295 1224.29 557.63
1326 0 53.0649 12.1549 645 54.7178 1224.6 557.797
1327 0 52.064 12.523 652 55.6534 1224.62 556.153
1328 0 56.0335 11.7965 661 54.6248 1224.16 556.044
1329 0 58.0746 12.7939 743 53.572 1224.1 555.506
1330 0 58.0529 13.1949 766 53.9922 1224.24 552.999
1331 0 58.111 11.9599 695 55.5079 1223.85 553.689
1332 0 61.0574 12.7093 776 54.4549 1224.38 551.513
1333 0 62.0652 12.358 767 54.7523 1224.08 551.252
1334 0 66.078 13.0603 863 54.3302 1224.74 552.642
1335 0 65.1651 12.9671 845 55.4249 1224.42 550.082
1336 0 69.111 12.5595 868 54.6025 1223.97 548.609
1337 0 68.0789 12.4708 849 55.1896 1223.74 548.088
1338 0 72.0868 13.0953 944 53.8411 1223.65 547.182
1339 0 72.0683 13.2513 955 53.823 1223.69 546.424
1340 0 75.0783 13.6125 1022 53.2838 1223.76 545.399
1341 0 77.0703 13.7277 1058 53.0936 1224.48 545.446
1342 0 78.1401 13.1047 1024 53.8281 1224.29 542.561
1343 0 84.1644 12.6895 1068 53.2172 1224.23 542.801
1344 0 86.0549 13.4333 1156 52.583 1224.31 541.341
1345 0 89.1967 13.8682 1237 52.0477 1224.76 538.784
1346 0 89.1725 12.9076 1151 53.5691 1224.29 537.983
1347 0 94.1616 12.7334 1199 53.0367 1224.26 533.783
1348 0 95.3775 13.1582 1255 52.8375 1224.52 528.663
1349 0 98.2613 12.8738 1265 53.7115 1223.98 531.664
1350 1 47.1859 11.4017 538 54.1506 1222.96 557.935
1351 0 49.1268 11.8673 583 53.5283 1222.77 557.441
1352 0 52.1657 12.882 672 53.1607 1222.63 558.402
1353 0 54.088 13.0343 705 53.2397 1222.76 556.567
1354 0 55.0433 13.5711 747 52.5207 1221.92 557.64
1355 0 57.1041 13.7643 786 52.5153 1221.69 554.576
1356 0 58.2751 12.544 731 53.6047 1221.68 556.338
1357 0 61.1524 13.9161 851 51.5499 1221.51 552.374
1358 0 62.1092 12.2687 762 53.5052 1221.37 553.597
1359 0 62.1281 12.4581 774 54.2158 1221.61 552.048
1360 0 64.256 13.0571 839 53.3576 1221.83 550.082
1361 0 67.1772 13.5611 911 52.7267 1221.59 550.432
1362 0 69.3676 12.441 863 54.4519 1221.66 548.765
1363 0 71.225 13.2959 947 53.6272 1221.52 546.29
1364 0 73.2032 13.0595 956 54.2699 1221.61 546.387
1365 0 76.1529 13.3416 1016 53.6673 1221.62 546.844
1366 1 41.0519 9.52453 391 56.2634 1221.48 563.445
1367 0 41.1137 9.85073 405 55.3802 1221.71 561.378
1368 0 43.1011 10.6958 461 55.5249 1221.33 562.679
1369 0 46.0516 11.1831 515 54.5961 1221.34 562.72
1370 0 46.1107 11.3423 523 55.0421 1222.69 557.335
1371 0 48.0623 12.0052 577 56.3917 1221.04 559.321
1372 0 49.0778 12.0014 589 56.5195 1221 561.521
1373 0 51.0864 12.3908 633 56.9147 1221.17 560.18
1374 0 51.1137 12.6189 645 56.6884 1221.33 559.397
1375 0 53.151 13.0948 696 56.5489 1221.56 559.287
1376 0 54.0515 12.4511 673 57.9837 1220.95 558.296
1377 0 54.0219 12.2173 660 59.0061 1221.1 558.567
1378 0 58.0745 13.3105 773 56.9922 1221.29 558.285
1379 0 58.0737 13.5345 786 57.3804 1220.98 556.316
1380 0 62.0722 12.9527 804 57.8284 1220.87 557.565
1381 0 62.061 12.7777 793 59.4388 1220.76 555.214
1382 0 63.0311 14.469 912 54.9331 1220.93 553.965
1383 0 63.0679 13.4775 850 57.1776 1221.49 552.252
1384 0 65.0471 13.1597 856 58.9439 1221.15 551.541
1385 0 67.0924 12.5797 844 58.7346 1221.22 551.155
1386 0 71.1758 13.1927 939 59.6592 1221.21 549.278
1387 0 73.1811 13.8014 1010 58.1366 1222.17 549.942
1388 0 77.0615 13.327 1027 58.221 1221.94 549.042
1389 0 79.2045 13.4967 1069 57.7353 1221.76 546.835
1390 0 79.318 13.8178 1096 57.8303 1222.12 542.796
1391 1 42.1241 10.659 449 59.3719 1222.08 564.661
1392 0 41.0505 11.0595 454 60.3612 1222.03 563.244
1393 0 45.0714 11.1157 501 57.503 1222.14 560.689
1394 0 45.2176 11.2567 509 57.9705 1222.37 560.444
1395 0 47.2723 12.079 571 56.8004 1222.89 560.264
1396 0 49.1392 12.1085 595 58.9193 1223.15 559.8
1397 0 52.1625 11.9626 624 58.2099 1223.05 560.037
1398 0 54.1111 12.9733 702 56.7108 1223.17 558.62
1399 0 53.2482 12.038 641 59.0562 1223.1 557.972
1400 0 57.1775 12.295 703 58.2248 1222.93 557.347
1401 0 58.0976 12.8921 749 57.5327 1223.07 555.814
1402 0 59.201 13.0741 774 57.2907 1223.48 556.009
1403 0 60.092 13.2796 798 57.7043 1224.03 553.34
1404 0 62.1763 12.9792 807 57.2813 1224.38 553.861
1405 0 64.1709 13.6199 874 56.6556 1224.94 551.358
1406 0 65.1746 12.1059 789 58.6603 1225.09 550.994
1407 0 68.3754 12.6069 862 57.4745 1225.72 548.69
1408 0 71.1216 12.9637 922 56.4761 1225.45 549.024
1409 0 71.2771 12.9354 922 56.2733 1225.72 547.973
1410 0 73.2652 12.9666 950 57.1832 1226.1 545.107
1411 0 78.3903 12.8587 1008 56.4623 1225.96 542.76
1412 0 80.2074 12.5549 1007 56.3893 1226 541.759
1413 0 84.2064 13.1582 1108 55.8448 1226.05 541.013
1414 0 87.3487 12.2154 1067 56.7104 1226.39 541.654
1415 1 46.1519 10.4871 484 57.9318 1225.96 559.814
1416 0 49.1655 10.4342 513 57.0799 1226.03 558.503
1417 0 51.1222 11.3062 578 57.1107 1226.13 556.619
1418 0 52.3536 12.0144 629 53.3641 1228.05 556.851
1419 0 51.3277 12.0013 616 55.1834 1226.32 555.753
1420 0 54.2036 11.9549 648 55.284 1226.67 553.29
1421 0 55.3547 11.887 658 55.5091 1226.83 553.685
1422 0 58.223 12.8815 750 54.324 1227.05 552.548
1423 0 60.1758 13.1282 790 54.462 1226.75 552.414
1424 0 62.1465 12.6314 785 55.4127 1226.84 550.268
1425 0 64.2722 13.1939 848 54.8408 1226.68 550.401
1426 0 65.2561 12.336 805 56.0696 1226.53 549.984
1427 0 71.2512 14.7366 1050 52.1971 1226.43 546.203
1428 0 68.229 12.6193 861 56.1243 1226.02 548.016
1429 0 72.3041 13.4847 975 54.2113 1226.39 547.696
1430 0 74.1473 13.4462 997 54.7673 1226.38 544.682
1431 0 77.246 12.8809 995 55.6342 1226.03 545.196
1432 0 80.1143 13.4308 1076 54.4907 1226.4 544.584
1433 0 81.3548 13.1523 1070 55.6439 1226.14 541.52
1434 0 86.1567 14.3924 1240 53.8452 1225.98 538.218
1435 1 44.0483 9.89822 436 58.0872 1225.16 559.906
1436 0 47.2528 10.7507 508 57.1929 1225.1 558.47
1437 0 49.2606 12.0989 596 56.3725 1225.41 556.862
1438 0 51.4156 12.078 621 56.2738 1225.34 557.163
1439 0 54.1125 12.7697 691 56.3936 1225.01 556.415
1440 0 54.1742 11.6845 633 57.4202 1224.38 554.867
1441 0 57.1797 11.3502 649 57.3313 1224.43 553.284
1442 0 60.1934 12.3934 746 55.3029 1224.14 553.755
1443 0 60.2069 11.7262 706 56.6941 1224.35 552.023
1444 0 61.3004 12.3001 754 55.683 1224.13 545.496
1445 0 64.3445 12.7439 820 55.1951 1224.18 544.44
1446 0 63.2143 12.7028 803 55.4483 1224.27 544.687
1447 0 67.4091 13.0843 882 54.7687 1224.19 541.719
1448 0 68.4054 12.8499 879 55.1399 1225.02 540.681
1449 0 68.354 13.0058 889 54.2137 1224.78 543.112
1450 0 68.354 13.0351 891 160.177 1224.8 543.134
1451 0 73.6269 13.2968 979 53.905 1224.45 540.397
1452 0 77.6227 13.2307 1027 53.8062 1224.42 539.281
1453 0 79.6976 13.9527 1112 52.9883 1224.02 537.053
1454 0 80.8133 12.7083 1027 54.7605 1224.21 535.401
1455 1 41.3033 10.1445 419 55.3675 1224.24 556.601
1456 0 42.5291 10.1577 432 55.9468 1224.03 554.72
1457 0 46.6847 11.3742 531 54.8154 1224.29 553.25
1458 0 48.5005 12.0411 584 54.0976 1224.3 552.899
1459 0 47.2154 12.1571 574 55.4094 1224.24 552.035
1460 0 51.4874 12.5468 646 53.8266 1224.51 553.717
1461 0 52.4265 12.1313 636 56.3632 1223.92 555.506
1462 0 55.4555 13.0735 725 54.84 1223.35 553.123
1463 0 55.7384 12.3613 689 55.7881 1223.13 554.795
1464 0 58.4241 12.6318 738 55.7832 1222.86 553.947
1465 0 60.6378 13.325 808 54.7611 1222.91 554.365
1466 0 64.8078 14.5816 945 52.1302 1223.32 550.357
1467 0 62.6432 13.8563 868 54.2834 1223.15 550.711
1468 0 64.4445 13.2362 853 55.5662 1223.3 551.587
1469 0 70.3928 15.0442 1059 51.3144 1223.78 549.719
1470 0 67.4872 12.7876 863 56.0591 1223.71 549.286
1471 0 69.5501 12.6096 877 55.9373 1223.54 549.586
1472 0 72.304 12.7656 923 55.5688 1223.28 547.623
1473 0 74.5897 13.9564 1041 54.0173 1222.31 546.751
1474 0 76.7619 13.0403 1001 55.4256 1222.09 545.417
1475 1 40.5728 11.0419 448 55.5938 1220.89 564.382
1476 0 41.2958 11.3571 469 55.9104 1220.74 563.719
1477 0 42.3982 11.109 471 55.4777 1220.02 564.291
1478 0 42.2688 12.0656 510 54.9549 1220.98 561.18
1479 0 44.3409 11.795 523 53.6597 1220.07 559.914
1480 0 45.2952 12.9594 587 53.7325 1221.55 562.52
1481 0 47.2737 12.8613 608 54.1826 1221.2 562.044
1482 0 48.1941 12.2214 589 55.3956 1221.16 563.132
1483 0 51.1973 13.2819 680 53.9338 1221.48 561.063
1484 0 48.254 12.1441 586 56.6212 1221.5 560.799
1485 0 54.1422 12.6334 684 54.9737 1221.4 559.371
1486 0 54.1551 12.4642 675 56.2519 1222.15 557.484
1487 0 55.3106 12.6739 701 55.8702 1221.95 558.706
1488 0 56.1315 12.738 715 55.586 1222.1 551.937
1489 0 56.0156 12.8893 722 55.0693 1221.96 553.406
1490 0 58.3184 12.8261 748 54.4666 1221.75 553.718
1491 0 59.3751 13.6589 811 53.5623 1222.01 554.282
1492 0 62.3055 11.9893 747 54.676 1221.9 555.083
1493 0 63.147 13.5398 855 53.8082 1222.42 551.775
1494 0 63.147 13.6032 859 158.29 1223.42 551.752
1495 0 63.147 13.619 860 157.669 1224.41 551.745
1496 0 68.2085 12.5058 853 54.8136 1222.36 548.533
1497 0 70.5427 13.3536 942 54.0021 1222.44 546.015
1498 0 72.2698 13.159 951 54.2545 1222.47 546.383
1499 0 76.2887 13.6193 1039 54.3465 1222.06 545.093
1500 0 77.2688 12.8383 992 55.8105 1222.34 545.443
1501 0 80.3271 13.0716 1050 55.5286 1222.47 542.533
1502 0 81.2901 12.9536 1053 56.3932 1222.66 540.274
1503 0 85.4359 13.3199 1138 55.7153 1222.66 540.516
1504 1 45.2183 10.2834 465 56.7269 1222.86 559.637
1505 0 46.1982 10.4549 483 57.1408 1222.42 559.296
1506 0 50.1918 12.4522 625 54.4752 1222.65 559.291
1507 0 50.1751 11.1808 561 56.3155 1222.6 557.046
1508 0 53.0599 12.2503 650 56.22 1222.86 558.082
1509 0 55.1613 12.6175 696 55.8362 1222.95 556.603
1510 0 58.149 13.517 786 53.6972 1223.32 555.87
1511 0 59.2689 12.5867 746 55.7279 1223.38 554.257
1512 0 60.1259 12.5237 753 55.915 1224 553.78
1513 0 62.0601 11.8917 738 56.7805 1223.99 554.649
1514 0 64.2765 12.8196 824 56.0473 1224.62 551.843
1515 0 64.1886 12.7125 816 56.5564 1224.41 550.259
1516 0 65.1815 13.5775 885 55.4023 1225.03 549.741
1517 0 70.1154 13.2924 932 54.5901 1224.82 549.04
1518 0 70.4064 13.4505 947 55.0644 1225.51 548.386
1519 0 74.2489 13.2527 984 55.0152 1225.22 544.974
1520 0 76.1614 12.6705 965 55.2425 1225.9 544.503
1521 0 79.1498 13.5945 1076 53.9563 1225.84 542.678
1522 0 83.0612 13.2914 1104 55.9076 1225.91 541.808
1523 0 84.0864 12.5823 1058 55.0397 1225.98 540.134
1524 0 88.1439 12.8086 1129 54.1718 1226.32 538.3
1525 1 47.1091 9.70088 457 54.2057 1226.25 560.978
1526 0 48.0512 10.7385 516 53.3721 1226.21 559.359
1527 0 49.093 11.3866 559 52.3166 1226.82 557.628
1528 0 51.1051 12.2884 628 51.3296 1226.57 555.815
1529 0 51.0272 11.7192 598 51.1087 1226.21 555.983
1530 0 55.1663 12.4351 686 49.9082 1226.65 554.86
1531 0 55.2797 12.6448 699 50.1316 1226.7 554.246
1532 0 56.1208 13.2927 746 50.0938 1226.75 552.13
1533 0 58.1545 12.5012 727 50.597 1226.51 552
1534 0 61.1515 12.33 754 50.6326 1226.22 551.771
1535 0 62.2232 11.6516 725 52.4248 1226.49 550.448
1536 0 66.1377 12.7764 845 50.5953 1226.56 550.007
1537 0 66.0984 12.6024 833 51.3697 1226.58 549.454
1538 0 69.336 11.8842 824 51.807 1226.1 546.725
1539 0 71.2232 12.6644 902 51.4146 1226.18 547.067
1540 0 73.1087 13.0901 957 51.1735 1226.25 543.261
1541 0 75.1752 12.6238 949 51.9568 1226.34 543.173
1542 0 77.286 12.4861 965 52.2062 1225.53 541.974
1543 0 82.3069 13.7777 1134 50.5899 1226.24 540.177
1544 0 85.2421 13.0452 1112 51.1259 1226.25 540.289
1545 1 45.0354 10.1032 455 51.3516 1225.47 560.914
1546 0 46.0707 10.8746 501 51.5329 1225.09 560.333
1547 0 47.1365 10.7772 508 51.8583 1224.83 559.197
1548 0 48.159 10.673 514 51.7179 1224.87 558.681
1549 0 50.2061 12.1101 608 50.3026 1224.54 558.308
1550 0 49.1432 12.1075 595 51.9933 1224.87 555.583
1551 0 52.2829 11.8394 619 52.7577 1224.95 555.725
1552 0 54.1796 11.9048 645 52.3473 1225.21 555.575
1553 0 57.1863 12.7128 727 51.1719 1224.34 555.631
1554 0 57.1895 12.9394 740 51.7838 1224.04 552.982
1555 0 59.1464 11.9872 709 53.0056 1224.1 553.417
1556 0 62.0948 13.2217 821 51.4775 1223.81 553.839
1557 0 61.243 12.8341 786 52.7595 1223.67 551.611
1558 0 68.2059 14.0017 955 50.6545 1224.25 551.481
1559 0 68.1288 13.1809 898 52.2906 1224.36 547.507
1560 0 69.2417 13.3446 924 52.5292 1223.78 547.649
1561 0 69.2197 12.5398 868 54.1728 1223.75 547.908
1562 0 73.189 13.6086 996 52.4267 1223.36 547.539
1563 0 75.2387 13.0252 980 53.4449 1223.47 545.82
1564 0 78.2494 13.5848 1063 52.8551 1223.67 544.15
1565 0 81.2157 13.0024 1056 53.5947 1222.77 542.957
1566 0 82.3273 13.3249 1097 53.4713 1222.66 540.809
1567 0 85.3543 13.6959 1169 52.8743 1222.15 540.228
1568 1 44.112 11.0174 486 54.3128 1221.43 561.344
1569 0 45.109 10.7961 487 55.386 1221.67 560.01
1570 0 46.0886 10.6968 493 54.8276 1221.15 558.943
1571 0 50.0463 11.6892 585 53.5846 1221.37 558.674
1572 0 51.0309 11.7184 598 53.6037 1221.36 559.102
1573 0 53.0472 11.5557 613 53.7341 1221.08 556.724
1574 0 55.1724 11.9625 660 53.4758 1222.53 556.821
1575 0 57.2535 12.4883 715 52.5888 1222.47 556.81
1576 0 57.0877 13.1377 750 53.3333 1222.59 555.504
1577 0 60.1515 13.3995 806 53.2953 1222.97 553.739
1578 0 61.1005 12.9459 791 53.5841 1222.47 552.558
1579 0 64.3253 12.4834 803 53.9801 1221.49 551.078
1580 0 66.2206 13.5758 899 53.0812 1221.42 551.869
1581 0 68.1689 13.1878 899 53.3192 1221.43 550.21
1582 0 71.1106 14.3439 1020 51.7088 1221.81 549.799
1583 0 73.0635 13.3309 974 53.1232 1222.09 547.941
1584 0 71.1661 12.9697 923 54.2871 1221.64 546.43
1585 0 77.0839 13.9329 1074 52.7151 1221.77 546.206
1586 0 80.2315 14.1466 1135 51.9956 1221.7 545.337
1587 0 82.1844 12.7883 1051 53.9629 1221.51 545.234
1588 0 85.1708 14.0189 1194 52.6524 1220.79 543.193
1589 0 87.1176 13.4875 1175 53.7209 1220.5 541.709
1590 0 89.1807 14.0277 1251 53.0544 1220.93 539.558
1591 0 91.1474 13.2642 1209 54.225 1221.49 540.141
1592 1 46.0575 10.5086 484 55.4773 1221.12 562.874
1593 0 48.0791 10.5243 506 54.9763 1220.88 560.729
1594 0 49.0523 11.2533 552 53.6087 1220.6 558.866
1595 0 50.1961 13.0289 654 52.5657 1222.88 556.83
1596 0 50.1961 13.0289 654 158.613 1223.88 556.768
1597 0 53.0752 14.4135 765 51.7673 1222.37 558.199
1598 0 54.1043 13.3261 721 53.5298 1222.65 555.945
1599 0 56.2603 12.9043 726 54.0992 1222.84 555.99
1600 0 58.2664 13.2838 774 53.9974 1223.3 553.136
1601 0 62.1635 14.5423 904 51.5 1223.06 553.09
1602 0 63.1692 13.0602 825 53.0897 1223.02 552.939
1603 0 65.1575 14.534 947 51.4868 1222.9 550.721
1604 0 68.222 13.5147 922 52.7874 1222.75 550.091
1605 0 67.1053 13.2776 891 53.9888 1223.07 549.692
1606 0 69.2094 13.1774 912 53.8991 1222.97 547.049
1607 0 75.1812 14.4717 1088 51.7785 1223.37 546.986
1608 0 77.2122 13.4435 1038 53.1869 1223.24 546.204
1609 0 81.138 15.258 1238 50.5792 1223.41 544.438
1610 0 80.2794 12.8427 1031 53.9893 1223.55 542.436
1611 0 84.201 13.9309 1173 52.8986 1224.5 538.438
1612 0 87.2745 13.4862 1177 53.215 1224.38 540.992
1613 0 91.2486 15.0578 1374 51.1725 1224.9 539.541
1614 0 93.2349 14.3294 1336 52.6265 1224.84 538.454
1615 0 95.2337 13.4511 1281 53.7174 1224.24 535.145
1616 1 55.1683 11.8728 655 52.6824 1224.31 556.524
1617 0 57.1874 10.5443 603 54.6633 1224.81 554.824
1618 0 56.1036 12.4947 701 54.3695 1225.65 553.571
1619 0 58.0382 12.9397 751 53.8003 1226 552.543
1620 0 60.222 12.5702 757 54.4148 1227.2 550.963
1621 0 63.29 12.0872 765 54.7935 1227.83 549.837
1622 0 63.233 12.7781 808 54.4257 1227.56 549.078
1623 0 68.1928 13.2419 903 53.4585 1227.65 546.825
1624 0 68.2115 12.6811 865 54.963 1227.81 546.03
1625 0 72.2299 13.1109 947 53.7635 1227.67 545.121
1626 0 73.1262 13.0323 953 54.0724 1227.66 544.822
1627 0 74.3102 12.9861 965 54.9585 1227.27 541.317
1628 0 77.339 13.7188 1061 53.9369 1227.64 543.457
1629 0 78.3175 13.4963 1057 55.6083 1228.72 540.793
1630 0 82.4675 13.7387 1133 54.5666 1228.21 539.868
1631 0 83.3978 13.5135 1127 55.3434 1228.08 537.357
1632 0 87.3961 13.6963 1197 54.6099 1228.17 537.523
1633 0 91.5167 13.8882 1271 54.1196 1227.84 534.047
1634 0 93.454 13.5361 1265 55.0917 1227.93 532.112
1635 1 52.3262 10.5492 552 56.1359 1227.42 554.678
1636 0 54.4447 11.4979 626 56.0799 1227.39 553.176
1637 0 55.3091 11.4629 634 55.7776 1227.84 552.358
1638 0 60.417 12.4799 754 54.3687 1227.39 551.912
1639 0 58.0375 12.0784 701 56.4365 1227.08 551.295
1640 0 60.133 12.3726 744 56.4677 1227.3 549.399
1641 0 60.133 12.4225 747 168.533 1226.28 549.232
1642 0 63.2512 12.3476 781 55.1677 1228.13 546.456
1643 0 66.0841 12.4538 823 55.2515 1227.91 547.524
1644 0 67.0953 13.1008 879 54.4232 1227.98 545.944
1645 0 70.0991 12.7819 896 54.5022 1228.2 546.088
1646 0 70.1258 13.8893 974 53.5329 1228.23 543.34
1647 0 74.11 13.2371 981 54.2538 1228.19 543.889
1648 0 74.2213 13.3115 988 54.7692 1227.84 541.787
1649 0 76.2153 13.3307 1016 54.9862 1227.69 540.3
1650 0 79.1509 13.1016 1037 54.3279 1227.36 541.217
1651 1 43.018 11.5533 497 53.9276 1227.21 558.046
1652 0 44.0402 10.2861 453 55.1523 1227.79 556.51
1653 0 48.0626 11.7555 565 53.2867 1226.83 557.048
1654 0 49.1146 10.8725 534 53.7622 1226.59 557.371
1655 0 49.0362 11.2366 551 53.9673 1226.14 556.058
1656 0 51.0569 12.0846 617 52.9141 1225.63 555.626
1657 0 52.1231 12.7774 666 52.5255 1225.3 552.916
1658 0 52.0928 12.5161 652 53.0061 1226.19 552.399
1659 0 53.0776 12.1143 643 52.804 1225.55 552.695
1660 0 56.0959 13.4947 757 51.5443 1225.2 551.38
1661 0 57.0701 12.581 718 52.5571 1225.18 550.926
1662 0 60.0484 12.44 747 52.4217 1225.2 550.386
1663 0 62.0617 13.0999 813 52.0295 1224.77 549.519
1664 0 62.0617 13.1482 816 161.708 1223.75 549.499
1665 0 64.0505 12.615 808 53.3787 1224.85 550.05
1666 0 68.0931 13.0703 890 52.8045 1224.41 548.489
1667 0 69.0971 13.2567 916 52.238 1224.35 545.388
1668 0 72.0709 13.4035 966 52.0072 1224.21 545.306
1669 0 74.0947 13.3073 986 51.93 1224.41 543.97
1670 0 76.0586 13.8314 1052 51.8308 1224.36 541.958
1671 0 79.1015 13.5269 1070 52.0308 1225.35 542.864
1672 0 83.3172 13.5506 1129 51.5775 1225.5 541.418
1673 0 84.119 13.0292 1096 52.8878 1224.96 540.502
1674 0 88.1831 12.6441 1115 52.8951 1225.02 538.345
1675 1 45.1838 11.0438 499 53.4529 1224.07 558.874
1676 0 45.2398 10.787 488 53.2459 1224.27 558.711
1677 0 44.0947 10.999 485 54.1546 1223.97 558.986
1678 0 49.0515 11.6612 572 52.799 1222.98 556.822
1679 0 51.0708 12.3554 631 52.0063 1223.35 557.361
1680 0 52.0786 12.6539 659 51.1062 1223.99 558.795
1681 0 50.1323 11.7689 590 53.0712 1224.53 555.483
1682 0 54.0362 12.5656 679 51.5847 1224.7 554.432
1683 0 56.1578 12.5361 704 51.8793 1224.47 554.543
1684 0 59.1569 13.3374 789 49.9544 1225.11 553.33
1685 0 60.0676 13.3849 804 50.1119 1224.55 553.129
1686 0 59.3406 11.9143 707 51.7412 1224.2 552.929
1687 0 64.1139 12.7117 815 50.4 1223.92 551.574
1688 0 65.2125 13.249 864 50.0336 1224.17 552.359
1689 0 69.1399 13.1906 912 49.7895 1223.34 550.91
1690 0 69.0853 12.8102 885 50.4441 1223 549.168
1691 0 71.2292 12.6914 904 51.0387 1222.77 548.312
1692 0 72.2488 12.623 912 52.0186 1223.15 545.654
1693 0 77.2461 12.7256 983 51.4385 1222.6 546.803
1694 0 81.3038 13.1482 1069 50.8101 1223.03 544.772
1695 1 44.1903 9.79854 433 51.1801 1223.05 565.15
1696 0 45.1278 10.1046 456 52.6579 1222.99 562.441
1697 0 47.1472 11.602 547 51.3949 1223.34 561.015
1698 0 48.2774 10.3775 501 52.1477 1223.24 560.379
1699 0 50.1673 12.3985 622 50.1463 1223.06 560.323
1700 0 50.1784 11.8776 596 51.1258 1222.58 559.064
1701 0 52.2632 12.0352 629 51.1685 1221.95 560.086
1702 0 54.1366 12.5424 679 50.8174 1221.56 558.913
1703 0 54.1639 12.0375 652 51.9755 1220.98 556.56
1704 0 57.325 13.0484 748 51.8489 1220.98 554.214
1705 0 59.1764 12.3022 728 52.658 1221.23 555.805
1706 0 60.1274 12.5733 756 52.6772 1220.53 553.943
1707 0 62.1555 12.3561 768 52.8568 1221.04 554.37
1708 0 65.1317 12.2521 798 52.5301 1221.24 552.845
1709 0 65.1161 12.3779 806 53.3958 1221.27 550.489
1710 0 71.1413 14.0425 999 50.6877 1220.97 550.674
1711 0 69.1948 12.79 885 52.9412 1221.53 549.219
1712 0 73.1627 13.0941 958 52.0407 1221.5 548.892
1713 0 72.2153 12.5043 903 53.4895 1221.81 548.566
1714 0 76.2145 12.3467 941 53.0861 1222.33 547.971
1715 0 77.3871 12.8187 992 53.5615 1222.56 545.366
1716 0 83.3284 13.2848 1107 52.4896 1222.22 545.486
1717 0 84.3703 14.223 1200 51.99 1222.52 542.153
1718 0 85.5293 13.3989 1146 52.7086 1222.81 539.955
1719 0 88.723 14.1339 1254 51.303 1222.42 539.093
1720 0 90.5802 12.8174 1161 53.5995 1222.55 537.462
1721 1 47.3234 11.4108 540 53.8556 1223.53 559.03
1722 0 48.3479 11.0449 534 53.6086 1222.09 557.61
1723 0 51.3996 11.5176 592 54.2872 1222.26 557.1
1724 0 52.1568 12.4432 649 52.8398 1223.51 556.233
1725 0 54.151 11.7819 638 53.2571 1223.32 558.041
1726 0 57.0829 12.876 735 52.6381 1223.34 555.507
1727 0 58.0961 12.3933 720 53.7708 1222.97 557.164
1728 0 57.0636 12.4072 708 54.7585 1223.64 555.484
1729 0 60.1556 12.6339 760 53.9592 1223.95 553.77
1730 0 60.0729 11.8023 709 55.1791 1223.69 551.341
1731 0 63.0926 12.5213 790 53.8975 1223.93 551.159
1732 0 63.0995 13.0746 825 53.1976 1224.2 551.413
1733 0 67.1572 13.6694 918 52.3442 1224.42 549.595
1734 0 70.0838 13.4553 943 52.8494 1225.37 549.411
1735 0 73.0985 14.0495 1027 52.6076 1225.76 549.244
1736 0 74.0911 13.6454 1011 54.2591 1225.57 547.714
1737 0 73.0888 13.2578 969 56.3622 1225.63 544.024
1738 0 77.197 14.042 1084 55.1448 1226.21 543.381
1739 0 80.2142 13.065 1048 55.9294 1226.22 542.301
1740 0 83.0928 13.1179 1090 56.0321 1226.3 539.305
1741 1 43.1461 11.125 480 56.1729 1226.64 558.571
1742 0 48.0731 11.4825 552 55.0471 1225.95 558.444
1743 0 49.0668 11.4945 564 55.1472 1226.28 557.404
1744 0 51.0448 12.0678 616 54.026 1226.65 557.253
1745 0 51.0699 12.8451 656 54.4939 1226.85 554.745
1746 0 55.1065 13.6826 754 52.6857 1227.22 554.692
1747 0 55.1508 12.6018 695 54.2158 1227.71 553.78
1748 0 56.2084 13.023 732 54.0342 1228.53 551.859
1749 0 56.0368 12.9915 728 54.6909 1228.71 552.234
1750 0 60.1815 13.3097 801 53.0524 1228.85 551.233
1751 0 62.2674 12.7675 795 53.9912 1229.3 549.161
1752 0 63.2253 12.7481 806 54.1303 1229.73 547.526
1753 0 66.118 12.9617 857 53.4901 1229.52 546.778
1754 0 67.2046 13.1836 886 53.3126 1229.29 546.474
1755 0 69.196 12.5152 866 54.0254 1229.16 545.222
1756 0 72.2023 12.922 933 54.0193 1229.25 543.307
1757 0 73.2918 12.6344 926 54.4665 1228.95 543.07
1758 0 75.188 13.6857 1029 53.4198 1229.01 541.21
1759 0 78.1386 13.3993 1047 53.7612 1229.27 542.044
1760 0 79.2237 12.673 1004 54.8825 1228.93 540.52
1761 0 83.0862 13.829 1149 53.5518 1229 536.44
1762 0 86.1845 13.1926 1137 53.715 1228.48 536.475
1763 0 90.1565 14.0312 1265 52.6182 1228.72 535.036
1764 0 90.1671 13.6524 1231 53.9911 1227.55 532.752
1765 1 43.0632 10.7749 464 54.8448 1227.06 556.17
1766 0 46.035 11.2306 517 54.5648 1227.63 554.472
1767 0 49.0653 11.8821 583 53.5369 1227.79 554.017
1768 0 49.0648 11.1689 548 54.2172 1227.94 552.974
1769 0 52.0254 11.6674 607 54.7117 1228.05 553.211
1770 0 55.0439 13.1531 724 52.384 1227.91 552.153
1771 0 56.0881 13.4966 757 51.9775 1227.52 550.612
1772 0 57.2236 13.6832 783 52.9898 1227.12 552.599
1773 0 58.0499 13.0233 756 53.9775 1226.75 552.212
1774 0 61.0611 13.0853 799 53.3079 1226.73 551.242
1775 0 63.101 13.2169 834 52.6882 1226.7 549.803
1776 0 67.0531 13.4819 904 52.3905 1226.12 548.619
1777 0 67.1033 12.98 871 53.3536 1226.17 547.809
1778 0 67.1141 13.4249 901 54.4728 1226.08 547.188
1779 0 71.0633 13.0025 924 54.4881 1226.83 546.812
1780 0 72.0694 13.8061 995 54.201 1226.62 545.392
1781 0 74.0457 13.6672 1012 54.1393 1226.19 544.192
1782 0 77.1165 13.2916 1025 54.678 1226.52 542.299
1783 0 82.2358 14.7867 1216 52.8914 1226.49 541.784
1784 0 83.0966 14.1402 1175 53.9617 1226.34 539.614
1785 0 85.24 13.5382 1154 54.7227 1225.87 541.069
1786 0 87.1589 13.5844 1184 55.0701 1225.8 536.533
1787 0 91.4234 13.1914 1206 55.199 1225.84 539.391
1788 0 93.2512 12.9328 1206 55.9494 1225.33 533.894
1789 0 97.2409 14.0784 1369 54.9131 1224.99 532.565
1790 1 52.1491 10.7576 561 56.1515 1225.27 556.599
1791 0 52.171 11.2515 587 56.5588 1224.81 556.729
1792 0 56.1413 11.1682 627 56.0558 1224.56 555.954
1793 0 57.3018 11.4831 658 55.883 1225.15 555.287
1794 0 59.1051 12.9092 763 54.5387 1225.31 552.316
1795 0 59.0941 12.6409 747 55.1714 1224.87 552.213
1796 0 64.0825 12.9989 833 53.7095 1225.15 552.21
1797 0 64.0825 13.0145 834 159.103 1226.16 552.235
1798 0 65.1468 12.8786 839 54.8927 1224.56 549.905
1799 0 69.1147 13.8031 954 53.7138 1224.6 549.529
1800 0 73.2492 13.5019 989 53.6896 1224.23 548.15
1801 0 73.167 13.3804 979 54.3779 1224.12 544.92
1802 0 77.3114 13.7884 1066 53.5066 1224.3 544.848
1803 0 78.3137 13.4204 1051 53.9505 1224.34 544.665
1804 0 81.2904 13.4333 1092 54.522 1224.47 543.929
1805 0 86.3363 12.4513 1075 55.4493 1224.3 540.94
1806 0 85.4238 12.6663 1082 55.7911 1224.16 538.898
1807 0 91.2622 13.5324 1235 54.4842 1223.69 535.545
1808 0 95.2242 14.1141 1344 53.2262 1224.09 535.648
1809 1 49.1356 10.3387 508 55.9862 1224.64 558.715
1810 0 51.1993 10.6056 543 55.7882 1223.94 557.133
1811 0 52.2661 10.6187 555 55.6468 1224.61 558.694
1812 0 56.0408 11.5273 646 54.709 1224.87 557.344
1813 0 58.0932 12.9619 753 52.7145 1224.45 556.169
1814 0 59.0444 12.1265 716 53.2779 1223.79 555.256
1815 0 60.2053 11.0289 664 54.8087 1224.07 554.373
1816 0 61.0761 11.7722 719 53.8999 1224.09 554.086
1817 0 63.039 12.1829 768 53.8307 1224.08 551.348
1818 0 64.0743 11.9393 765 54.1333 1224.18 549.124
1819 0 69.0931 12.6641 875 52.7291 1223.63 549.792
1820 0 71.0942 13.0812 930 52.4323 1224.37 547.141
1821 0 74.1319 13.0983 971 52.5098 1223.92 547.16
1822 0 74.0713 12.434 921 53.4864 1223.78 544.799
1823 0 78.1228 12.2755 959 53.4244 1223.93 545.043
1824 0 81.133 12.3624 1003 53.4307 1223.8 543.716
1825 0 82.157 12.3301 1013 54.0997 1223.87 542.953
1826 0 85.1392 12.1801 1037 54.3153 1223.87 540.388
1827 1 45.0604 10.497 473 54.5624 1223.82 560.275
1828 0 47.067 10.9206 514 54.0914 1224.17 559.603
1829 0 49.0473 12.1719 597 53.6265 1225.21 557.903
1830 0 50.1596 11.4036 572 54.2133 1224.96 556.519
1831 0 50.1772 12.0373 604 53.0613 1225.05 557.694
1832 0 52.0528 11.1041 578 54.8062 1224.97 556.953
1833 0 54.1116 12.1046 655 53.4763 1225.16 554.447
1834 0 55.0588 12.3323 679 53.3211 1225.38 553.18
1835 0 58.0549 11.6958 679 53.9985 1224.94 553.05
1836 0 58.1064 11.8403 688 54.2515 1224.9 552.42
1837 0 61.1183 11.7477 718 54.2019 1225.22 552.542
1838 0 62.0402 12.9432 803 53.0174 1226.18 550.552
1839 0 64.0521 12.9582 830 52.7892 1226.32 550.2
1840 0 67.1344 12.7208 854 52.6124 1226.53 548.689
1841 0 69.107 12.7628 882 52.4263 1226.63 547.516
1842 0 70.2311 12.5585 882 53.1916 1226.85 544.679
1843 0 72.0701 12.9457 933 52.7203 1227.61 544.242
1844 0 76.1282 13.451 1024 51.9082 1228.18 541.18
1845 1 41.0976 8.97862 369 54.5068 1227.75 562.407
1846 0 41.014 11.0938 455 52.789 1227.93 560.897
1847 0 42.1035 9.88041 416 52.8966 1227.75 560.651
1848 0 42.0915 10.5247 443 53.6343 1227.8 558.483
1849 0 45.2919 10.5758 479 50.5616 1229.02 557.025
1850 0 47.1537 11.261 531 50.1205 1229.07 557.136
1851 0 47.0897 11.425 538 51.7732 1227.83 555.599
1852 0 50.0854 12.2391 613 50.2316 1228.31 555.316
1853 0 49.1188 10.9938 540 51.5074 1228.08 556.206
1854 0 51.1409 12.1234 620 49.8903 1228.18 553.5
1855 0 54.068 10.8382 586 50.6382 1228.08 553.807
1856 0 54.0543 11.359 614 50.5065 1228.04 552.989
1857 0 57.0469 12.2005 696 49.5345 1228.11 550.947
1858 0 57.1077 11.7847 673 50.0342 1227.66 550.805
1859 0 59.0983 12.9107 763 48.5033 1228.24 549.714
1860 0 61.1568 13.3755 818 48.2482 1228.02 550.218
1861 0 63.238 12.9511 819 48.5067 1228.58 548.107
1862 0 64.2 13.0841 840 48.6655 1228.09 547.33
1863 0 66.1108 13.2656 877 48.4094 1227.98 548.048
1864 0 67.1224 13.4083 900 48.84 1227.87 545.313
1865 0 70.2789 13.8306 972 48.5123 1227.38 544.721
1866 0 71.0981 13.404 953 49.382 1226.93 544.579
1867 0 73.1222 13.5526 991 49.8587 1227.21 543.447
1868 0 75.1176 14.1512 1063 49.889 1227.33 541.723
1869 0 78.1941 13.2107 1033 50.6931 1226.79 540.089
1870 1 39.1374 10.8081 423 52.3995 1227 560.485
1871 0 41.1142 9.65604 397 52.4887 1226.79 558.788
1872 0 42.1139 11.0415 465 51.1312 1226.57 551.587
1873 0 46.0833 10.7414 495 50.7535 1227.07 554.917
1874 0 45.1307 11.2784 509 50.7898 1226.38 558.54
1875 0 47.1217 11.5658 545 51.0734 1226.63 557.072
1876 0 47.7299 11.5022 549 50.5392 1226.68 554.499
1877 0 49.5537 11.3614 563 50.8153 1226.4 553.423
1878 0 50.6365 12.3824 627 50.0415 1226.37 554.266
1879 0 50.4672 12.6815 640 50.5812 1225.96 552.297
1880 0 52.331 12.8222 671 50.1803 1225.18 552.082
1881 0 55.5844 12.0358 669 51.0194 1225.83 553.117
1882 0 55.5844 11.9818 666 173.458 1226.84 553.015
1883 0 58.3986 13.8702 810 49.8 1225.32 551.19
1884 0 58.4969 12.5135 732 51.8634 1225.34 549.171
1885 0 61.1768 13.5999 832 52.0805 1225.6 551.103
1886 0 63.1072 13.5484 855 51.8526 1225.49 551.627
1887 0 63.1976 13.4024 847 52.745 1225.23 550.693
1888 0 66.1405 14.0005 926 51.4806 1224.42 549.054
1889 0 67.1267 13.5415 909 52.363 1224.63 548.537
1890 0 72.1329 14.1683 1022 50.4677 1223.84 548.303
1891 0 72.1083 14.0067 1010 51.3584 1224.4 547.256
1892 0 74.0964 13.9953 1037 51.8052 1224.73 544.892
1893 0 74.21 13.3675 992 52.5786 1225.04 542.718
1894 0 78.1196 13.953 1090 51.5945 1224.62 544.154
1895 1 43.0666 10.7972 465 53.286 1223.55 561.559
1896 0 43.0059 11.2078 482 53.1183 1223.43 561.73
1897 0 44.1162 11.8324 522 52.1437 1223.76 562.259
1898 0 45.0678 11.6491 525 52.8152 1223.54 561.006
1899 0 46.0909 11.9546 551 52.5535 1223.62 559.964
1900 0 50.065 12.6036 631 50.6513 1223.48 559.376
1901 0 50.1031 13.2327 663 50.5641 1223.39 559.169
1902 0 51.171 12.8002 655 50.9221 1223.49 558.501
1903 0 54.1403 12.9479 701 50.6334 1222.8 558.057
1904 0 55.1582 13.0715 721 50.846 1222.84 557
1905 0 57.1487 12.8787 736 51.0367 1222.45 557.205
1906 0 58.0598 13.4344 780 50.6795 1221.94 556.214
1907 0 58.0456 12.473 724 52.6091 1221.92 554.541
1908 0 61.1645 13.292 813 51.3173 1222.89 554.902
1909 0 62.2081 12.9887 808 51.2946 1222.43 555.116
1910 0 64.1504 12.7045 815 51.5607 1222.05 553.437
1911 0 64.0712 12.5329 803 52.6538 1222.54 552.518
1912 0 67.1007 13.7703 924 50.9589 1222.65 552.868
1913 0 66.2247 13.0163 862 51.7425 1222.61 550.232
1914 0 71.1664 13.9532 993 50.3343 1222.57 551.342
1915 0 73.1741 13.3517 977 51.2538 1222.18 547.735
1916 0 77.1672 13.7364 1060 50.4302 1222.8 548.834
1917 0 79.1426 12.9134 1022 51.6732 1222.44 546.829
1918 0 81.2356 13.7747 1119 50.9982 1221.78 545.386
1919 0 83.2207 13.4702 1121 52.4612 1221.96 542.091
1920 0 86.2905 13.3155 1149 52.6214 1223.54 541.082
1921 0 88.1893 13.5504 1195 52.7707 1222.92 541.181
1922 1 47.0311 11.6731 549 54.3953 1222.5 561.191
1923 0 48.0824 10.5236 506 55.5415 1221.41 560.417
1924 0 49.0935 12.8734 632 53.8734 1221.12 559.916
1925 0 52.0297 12.7427 663 53.4465 1220.65 558.988
1926 0 51.0865 11.8035 603 54.4594 1221.44 559.068
1927 0 55.1079 13.2105 728 52.9945 1221.43 557.973
1928 0 56.2403 13.1578 740 52.8419 1221.05 556.509
1929 0 59.1002 13.181 779 52.5032 1220.77 556.683
1930 0 59.1135 12.4675 737 53.9783 1221.09 554.741
1931 0 61.1467 12.9034 789 53.6299 1221.42 553.328
1932 0 65.0871 12.3834 806 53.8623 1221.63 552.844
1933 0 67.0742 14.3572 963 52.1288 1221.36 553.751
1934 0 69.334 13.6297 945 53.1026 1221.69 551.128
1935 0 71.0602 13.7208 975 53.7826 1221.57 548.574
1936 0 72.1518 12.7786 922 55 1221.82 549.611
1937 0 75.1098 13.5136 1015 54.5438 1222.36 545.871
1938 0 76.0595 13.3317 1014 54.8866 1222.43 546.468
1939 0 81.0581 13.1757 1068 54.6348 1222.09 545.887
1940 0 82.2036 14.4276 1186 53.559 1222.69 544.122
1941 0 85.2198 13.8935 1184 54.674 1222.62 542.552
1942 0 88.203 13.3669 1179 54.6217 1223.13 541.3
1943 1 45.0939 11.1767 504 55.4881 1224.15 559.651
1944 0 49.1126 12.1965 599 53.5826 1224.13 558.326
1945 0 49.0944 11.8751 583 52.7238 1224.27 559.125
1946 0 51.0399 12.3825 632 52.2168 1224.88 556.082
1947 0 53.1505 13.998 744 50.2769 1223.34 555.859
1948 0 55.0861 14.5772 803 49.8767 1223.13 554.854
1949 0 56.0483 13.3992 751 51.2557 1223.32 555.461
1950 0 58.0542 13.9008 807 50.6221 1223.6 552.55
1951 0 59.11 13.9739 826 51.023 1224.05 551.994
1952 0 59.1369 12.953 766 51.9713 1224.12 552.709
1953 0 62.1515 13.2097 821 51.7065 1224.35 549.946
1954 0 65.125 14.4338 940 50.05 1223.64 549.333
1955 0 66.0956 12.5424 829 52.1568 1223.92 548.856
1956 0 69.1215 13.686 946 50.9789 1224.66 546.937
1957 0 72.1747 13.3288 962 51.0125 1224.6 546.135
1958 0 74.081 14.4032 1067 49.9709 1224.58 544.991
1959 0 77.2441 14.2665 1102 49.9882 1224.88 542.337
1960 0 80.183 14.0928 1130 50.0522 1224.67 541.889
1961 0 83.2682 13.5226 1126 50.5746 1224.85 541.128
1962 0 85.1868 14.028 1195 50.4619 1224.46 539.259
1963 0 87.2349 14.1572 1235 50.6899 1224.77 537.973
1964 0 91.2313 14.3701 1311 50.6072 1224.81 534.33
1965 0 91.1216 14.0472 1280 51.707 1224.62 533.286
1966 0 95.1832 13.7734 1311 51.6972 1224.69 531.133
1967 0 99.1958 14.0228 1391 51.4903 1225 532.403
1968 0 100.162 14.5165 1454 50.9945 1225.67 530.417
1969 1 50.0585 11.946 598 52.1739 1225.6 554.86
1970 0 52.0737 12.3095 641 52.546 1225.96 552.399
1971 0 53.0312 11.5592 613 52.9902 1226.02 553.556
1972 0 53.021 11.7878 625 52.8208 1226.07 551.646
1973 0 56.1667 12.9614 728 52.1566 1227.21 550.49
1974 0 58.1429 13.398 779 51.878 1227.55 550.289
1975 0 63.1094 14.1183 891 50.9012 1228.31 547.502
1976 0 62.1794 12.8338 798 53.0338 1228.32 546.617
1977 0 67.1169 13.8564 930 51.6581 1228 546.747
1978 0 67.1768 13.591 913 52.3877 1228.43 545.168
1979 0 71.1343 13.2847 945 52.3185 1228.3 543.44
1980 0 73.1943 13.6076 996 52.5894 1228.25 541.419
1981 0 75.1749 14.167 1065 52.0282 1228.62 540.024
1982 0 76.1078 13.586 1034 53.0416 1228.78 539.114
1983 0 78.2862 13.489 1056 53.0644 1228.85 538.836
1984 0 79.1896 13.6887 1084 53.4899 1228.93 536.84
1985 0 83.2653 13.6431 1136 53.4481 1228.52 534.357
1986 0 88.3055 13.6798 1208 53.1349 1228.43 532.8
1987 1 45.17 10.7151 484 55.1901 1227.66 554.872
1988 0 46.3015 10.6476 493 55.4868 1227.43 555.903
1989 0 50.1226 11.9507 599 54.6043 1227.09 552.352
1990 0 52.2385 11.9835 626 53.6901 1226.98 552.185
1991 0 53.2638 12.6728 675 53.8844 1227.08 550.724
1992 0 54.1239 12.6931 687 53.6841 1227.09 551.614
1993 0 56.1871 12.6897 713 54.108 1227.48 550.156
1994 0 58.1884 13.3532 777 53.1557 1227.11 548.825
1995 0 58.4439 13.5343 791 53.402 1227.09 548.504
1996 0 62.2654 13.5067 841 52.8549 1226.98 547.51
1997 0 65.1756 13.3179 868 52.6187 1226.54 547.01
1998 0 67.3641 12.9594 873 53.1661 1227.14 545.424
1999 0 67.2171 13.8506 931 52.6026 1227.07 545.221
2000 0 71.1336 13.6222 969 52.8421 1228.37 544.067
2001 0 75.1715 13.569 1020 52.3412 1228.1 543.77
2002 0 76.3569 13.581 1037 52.6885 1227.38 543.194
2003 0 78.2537 13.0218 1019 53.0383 1227.37 542.524
2004 0 80.2972 13.4376 1079 52.5737 1227.51 540.413
2005 0 83.3542 13.0887 1091 53.3703 1226.75 539.129
2006 0 85.2977 13.1891 1125 53.6996 1226.76 536.211
2007 0 90.1708 14.1177 1273 52.5892 1226.82 535.255
2008 0 93.9293 13.574 1275 53.0667 1226.57 533.943
2009 0 95.573 13.2046 1262 53.439 1226.5 534.005
2010 1 53.3391 10.7988 576 54.467 1227.42 554.116
2011 0 54.1551 11.1901 606 53.8168 1227.57 553.538
2012 0 57.1332 12.6196 721 52.1664 1227.13 552.229
2013 0 58.4661 13.4437 786 51.6539 1227.2 550.064
2014 0 61.2041 12.3685 757 52.2048 1226.73 551.177
2015 0 62.1735 11.9826 745 52.9611 1226.24 549.007
2016 0 65.1914 12.3329 804 52.107 1225.77 548.954
2017 0 66.1658 13.2848 879 51.0341 1225.74 548.99
2018 0 71.1685 12.4072 883 51.6274 1226 546.602
2019 0 71.2926 13.3815 954 50.8197 1226.63 544.949
2020 0 73.3901 13.4487 987 50.8997 1226.37 543.813
2021 0 77.2741 13.6009 1051 50.4472 1226.53 544.559
2022 0 80.171 12.8351 1029 51.2935 1226.55 544.227
2023 0 80.2847 12.655 1016 52.3041 1226.22 541.509
2024 0 84.4461 12.1734 1028 52.6761 1225.95 540.308
2025 0 87.3417 12.8003 1118 52.1386 1225.7 539.534
2026 1 43.1101 10.4152 449 52.0156 1224.83 561.312
2027 0 43.056 10.6141 457 52.5339 1223.95 560.503
2028 0 44.1655 11.1852 494 51.9049 1224.59 561.172
2029 0 48.093 11.9768 576 51.4913 1224.61 558.875
2030 0 47.0944 11.3389 534 53.0019 1225.44 558.682
2031 0 49.4607 11.7669 582 53.5687 1224.74 557.031
2032 0 52.4542 11.9533 627 53.0973 1225.58 557.498
2033 0 52.3503 12.0152 629 53.2623 1224.82 556.01
2034 0 55.2519 12.6692 700 52.3129 1224.98 555.067
2035 0 59.249 12.726 754 52.0531 1224.82 555.731
2036 0 57.2943 11.3449 650 54.6631 1224.57 554.249
2037 0 59.225 12.8831 763 52.9567 1224.99 555.038
2038 0 62.2679 12.7835 796 52.6809 1224.91 554.338
2039 0 63.1954 12.5484 793 53.4855 1224.72 552.938
2040 0 65.2101 13.0501 851 52.9342 1224.64 552.109
2041 0 67.0692 11.8982 798 53.9223 1224.49 551.939
2042 0 69.3155 12.1474 842 53.6948 1224.44 552.555
2043 0 72.2228 13.3476 964 52.8102 1225.05 548.972
2044 0 72.2071 12.4088 896 54.0234 1224.43 548.304
2045 0 74.3644 12.2908 914 54.3753 1224.06 548.688
2046 0 78.4599 13.3189 1045 53.3129 1224.73 546.567
2047 1 45.1797 11.0448 499 53.7515 1224.7 564.176
2048 0 45.1912 10.4666 473 55.1903 1224.8 562.224
2049 0 45.269 11.3323 513 54.271 1223.2 561.62
2050 0 49.2728 12.4815 615 52.5122 1223.2 561.676
2051 0 48.2271 11.5288 556 54.3831 1223.4 559.232
2052 0 52.3627 11.5922 607 53.6293 1224.32 560.446
2053 0 52.2391 12.8256 670 51.8806 1223.57 559.663
2054 0 52.4554 11.9339 626 54.984 1223.65 558.61
2055 0 53.1581 11.2683 599 56.207 1223.61 558
2056 0 54.2699 12.4194 674 55.2478 1223.39 556.926
2057 0 56.2964 13.5533 763 53.9056 1223.56 558.037
2058 0 57.1944 11.9068 681 56.3025 1223.09 556.762
2059 0 60.1286 12.8558 773 54.7956 1223.46 555.952
2060 0 63.2892 13.067 827 54.6929 1223.18 553.273
2061 0 63.1626 12.0166 759 56.7246 1223.26 552.242
2062 0 65.2368 12.6309 824 55.6638 1223.04 550.881
2063 0 67.3842 12.733 858 55.6585 1222.59 550.127
2064 0 69.3039 12.3225 854 56.2916 1222.39 549.335
2065 0 72.4419 12.1615 881 56.3553 1222.95 549.129
2066 0 75.4782 13.3283 1006 55.1083 1223.01 548.047
2067 0 76.4649 13.0256 996 55.8263 1223.45 546.346
2068 1 40.226 9.89411 398 56.9221 1223.14 566.95
2069 0 42.3435 11.1705 473 56.3023 1223.75 564.237
2070 0 44.4171 11.4596 509 56.4047 1223 563.004
2071 0 43.163 11.2133 484 57.2934 1223.08 564.07
2072 0 46.2415 11.1372 515 58.2563 1223.5 561.439
2073 0 48.1178 12.4902 601 56.193 1224 561.339
2074 0 49.1265 12.1523 597 57.0084 1223.69 560.955
2075 0 48.1947 12.4495 600 58.4217 1223.36 559.672
2076 0 52.1269 11.5679 603 59.0299 1223.68 558.784
2077 0 53.1685 11.8491 630 58.7714 1223.33 557.967
2078 0 53.1096 11.8246 628 58.4952 1224.13 558.729
2079 0 54.1761 11.8687 643 58.9984 1224.17 556.683
2080 0 55.2877 11.1417 616 60.2906 1224.37 555.769
2081 0 57.1392 12.2683 701 59.0414 1224.26 554.91
2082 0 59.1082 11.8596 701 59.7689 1224.33 553.308
2083 0 61.2177 12.9538 793 58.2106 1225.32 553.151
2084 0 62.1699 12.1441 755 59.3801 1226.27 552.762
2085 0 64.1622 12.7645 819 59.1477 1225.48 550.305
2086 0 64.1622 12.7022 815 157.858 1224.49 550.34
2087 0 68.2012 13.0643 891 58.9416 1225.7 549.46
2088 0 70.2523 13.8643 974 58.3737 1225.48 546.792
2089 0 72.2477 12.8585 929 60.4586 1225.53 544.764
2090 0 74.5383 13.7111 1022 59.5411 1225.5 545.519
2091 0 76.2169 13.3173 1015 60.4966 1225.56 543.122
2092 0 79.3707 13.5692 1077 60.3231 1226.17 541.577
2093 0 82.2958 13.3664 1100 60.6164 1227.58 540.755
2094 1 47.1184 11.1209 524 62.4485 1227.8 558.036
2095 0 47.1624 10.8137 510 63.7314 1228.14 557.045
2096 0 49.1633 11.2076 551 62.9147 1228.01 557.352
2097 0 50.1478 12.6227 633 61.7457 1227.94 554.619
2098 0 52.0263 11.7825 613 62.9184 1228.54 554.227
2099 0 53.2355 12.3977 660 61.5576 1227.71 554.156
2100 0 53.1253 11.8964 632 63.7057 1227.57 553.937
2101 0 57.0989 13.1001 748 61.7634 1227.55 552.027
2102 0 57.137 13.1789 753 62.2762 1227.48 551.108
2103 0 59.0832 13.4387 794 62.0264 1228.25 551.81
2104 0 61.2153 13.5424 829 62.304 1228.65 550.157
2105 0 62.2302 12.968 807 63.6568 1229.11 549.232
2106 0 66.1963 13.6866 906 61.9172 1228.98 548.042
2107 0 66.2627 14.1709 939 61.6251 1228.82 548.373
2108 0 69.1572 13.5199 935 62.6289 1228.84 546.18
2109 0 70.1455 13.4863 946 63.7357 1228.92 544.007
2110 0 73.1941 13.9629 1022 62.8395 1229.09 543.714
2111 1 38.0567 10.7734 410 64.4683 1228.84 561.42
2112 0 41.1968 11.1659 460 64.4913 1228.55 559.743
2113 0 43.1006 11.1832 482 63.8444 1229.03 559.932
2114 0 44.0754 11.9114 525 62.8895 1228.57 559.145
2115 0 44.0454 12.3736 545 63.4972 1228.17 556.991
2116 0 45.046 12.5427 565 61.8336 1228.22 557.989
2117 0 47.088 12.6784 597 61.6968 1227.91 557.613
2118 0 50.1038 12.3543 619 61.7334 1227.49 556.725
2119 0 49.0525 11.8444 581 63.2358 1227.3 555.071
2120 0 51.1709 12.8002 655 61.4931 1227.3 555.189
2121 0 52.2241 13.0208 680 61.2132 1227.33 554.212
2122 0 54.2066 13.2456 718 60.4903 1227.19 552.529
2123 0 55.1428 12.9663 715 61.4238 1227.49 551.485
2124 0 56.2755 12.9719 730 61.637 1227.14 551.981
2125 0 61.3696 14.0298 861 58.9036 1226.97 551.178
2126 0 61.2885 13.5099 828 60.0713 1226.8 550.537
2127 0 65.4296 13.6788 895 58.8503 1226.7 550.215
2128 0 66.2123 13.9551 924 58.5433 1226.36 548.234
2129 0 67.2343 12.9844 873 60.2337 1226.2 547.633
2130 0 68.2707 13.2414 904 60.1958 1226.01 546.833
2131 0 71.2272 13.5482 965 59.7679 1225.66 545.912
2132 0 73.2517 14.4706 1060 58.5472 1225.65 544.351
2133 0 75.3455 13.0466 983 60.1485 1225.44 542.615
2134 0 79.3157 13.9569 1107 58.7001 1225.51 542.633
2135 0 79.3515 12.7786 1014 60.4546 1225.66 540.795
2136 0 83.2147 13.8317 1151 58.2702 1225.5 539.582
2137 0 85.4185 12.948 1106 59.4494 1226.06 538.88
2138 0 91.264 13.8938 1268 57.9787 1225.92 536.966
2139 0 93.314 13.9529 1302 58.0492 1225.44 536.499
2140 1 47.091 11.1911 527 59.5484 1225.01 559.057
2141 0 50.0836 12.2395 613 57.9494 1224.97 559.114
2142 0 50.0836 12.1796 610 151.8 1224.96 559.148
2143 0 50.2659 13.0108 654 58.0199 1224.69 556.187
2144 0 52.3222 12.2319 640 58.4594 1224.92 555.986
2145 0 53.3276 13.2014 704 56.9957 1224.56 555.185
2146 0 55.1642 12.1093 668 58.4207 1224.24 554.781
2147 0 58.275 12.544 731 57.1286 1224.2 554.77
2148 0 58.2241 12.2114 711 58.1744 1224.25 553.368
2149 0 60.3781 12.7695 771 57.2114 1224.34 552.501
2150 0 62.1234 12.0888 751 58.0639 1224.05 551.996
2151 0 65.4434 12.6827 830 57.6398 1224.03 549.375
2152 0 68.4312 12.4651 853 56.7773 1224.36 550.87
2153 0 68.188 13.1548 897 56.8997 1225.02 547.669
2154 0 72.2891 12.7544 922 56.7505 1225.22 545.838
2155 0 73.1075 13.104 958 56.548 1224.83 545.368
2156 0 74.1678 12.4582 924 57.4978 1224.74 545.81
2157 0 78.3091 12.3613 968 56.6312 1224.65 545.434
2158 0 80.5264 12.8157 1032 56.7791 1224.37 542.842
2159 0 83.6104 12.4865 1044 56.6178 1224.42 542.584
2160 1 45.2466 10.498 475 57.2947 1224.39 561.924
2161 0 45.2028 10.9506 495 57.7354 1224.39 558.994
2162 0 48.2135 11.6772 563 56.579 1223.96 559.27
2163 0 47.1998 12.8179 605 55.9157 1223.48 559.392
2164 0 51.2537 12.3698 634 55.4369 1223.32 559.708
2165 0 50.0564 11.507 576 57.7205 1222.92 557.781
2166 0 53.0664 12.4749 662 56.0906 1222.83 559.369
2167 0 54.1219 12.0284 651 57.321 1222.83 558.897
2168 0 55.1771 12.1971 673 57.4993 1222.73 557.642
2169 0 55.2201 12.0427 665 57.8602 1222.5 557.305
2170 0 59.4523 13.2375 787 56.5311 1222.36 555.568
2171 0 61.2422 12.8343 786 56.43 1222.42 555.751
2172 0 60.2336 13.4643 811 56.7694 1222.43 554.287
2173 0 62.3023 13.1295 818 57.4169 1222.02 552.846
2174 0 66.2277 12.7741 846 57.6277 1222.35 551.236
2175 0 67.284 13.4653 906 57.2483 1222.12 551.504
2176 0 67.4323 12.5756 848 58.895 1221.79 548.988
2177 0 72.2611 13.8941 1004 57.3078 1221.97 549.36
2178 0 73.4518 13.9139 1022 57.9198 1222.78 548.601
2179 0 77.3241 13.5663 1049 58.49 1222.98 548.764
2180 0 77.4519 14.5768 1129 57.899 1222.83 547.12
2181 0 79.6098 13.227 1053 60.3628 1222.62 545.185
2182 0 82.6438 13.1649 1088 60.5965 1222.37 544.438
2183 0 84.519 13.2515 1120 61.117 1222.64 541.019
2184 0 89.5555 14.2258 1274 59.1397 1222.54 542.714
2185 0 91.4832 13.1718 1205 61.3942 1222.8 538.267
2186 1 49.4305 11.4504 566 61.5972 1221.84 560.542
2187 0 50.2242 12.3446 620 60.9145 1222.56 559.555
2188 0 52.1635 12.3841 646 61.2152 1222.38 560.824
2189 0 54.2386 13.6619 741 59.7719 1223.65 558.725
2190 0 55.2313 13.7784 761 59.4008 1223.63 559.593
2191 0 56.3701 13.5888 766 60.2141 1223.87 558.446
2192 0 57.186 12.9402 740 62.1459 1223.8 557.364
2193 0 59.1505 13.4572 796 61.5101 1224.22 554.296
2194 0 62.1749 13.6872 851 60.9953 1224.43 553.409
2195 0 64.1373 13.4711 864 60.7535 1224.54 553.438
2196 0 67.2751 13.5414 911 60.3161 1225 551.671
2197 0 67.2531 14.0068 942 60.0032 1225.51 548.821
2198 0 69.4167 12.9364 898 61.7873 1225.4 548.908
2199 0 72.2885 13.9718 1010 60.098 1225.58 546.446
2200 0 75.2392 14.1681 1066 59.53 1225.89 545.703
2201 0 77.3434 14.3257 1108 59.093 1226.34 545.616
2202 0 80.2744 14.3134 1149 59.6353 1226.42 542.977
2203 0 83.2644 14.1957 1182 59.6345 1225.86 542.595
2204 0 84.2578 13.7317 1157 61 1226.63 541.435
2205 0 87.2694 13.2922 1160 61.8216 1225.98 538.337
2206 0 87.2694 13.2807 1159 171.486 1224.97 538.342
2207 1 46.0758 11.6764 538 63.4071 1225.56 559.632
2208 0 46.0289 12.5573 578 62.2958 1225.51 558.631
2209 0 47.0315 12.4597 586 62.7679 1225.13 559.208
2210 0 49.1098 13.1949 648 61.1358 1225.79 558.275
2211 0 50.064 13.6026 681 61.4361 1226.45 558.192
2212 0 51.1761 13.1507 673 61.7325 1226.48 555.724
2213 0 53.0996 13.4088 712 61.2289 1227.3 556.65
2214 0 54.1187 13.5628 734 61.3951 1227.27 554.21
2215 0 56.0691 13.9471 782 61.2136 1227.16 554.003
2216 0 57.0792 13.1922 753 62.2218 1227.03 553.895
2217 0 59.1206 14.1406 836 60.3816 1228.23 551.737
2218 0 62.1616 13.6419 848 61.0814 1227.43 549.546
2219 0 63.0828 14.045 886 60.588 1228.21 550.044
2220 0 66.3118 13.5723 900 61.4244 1228.24 548.879
2221 0 68.2753 14.2511 973 60.4985 1227.86 549.364
2222 0 71.1698 13.6856 974 61.2136 1227.27 546.663
2223 0 72.1843 13.2854 959 62.0855 1227.42 545.945
2224 0 76.1304 13.5294 1030 61.4262 1227.92 543.622
2225 0 79.1686 13.806 1093 60.7191 1227.24 543.151
2226 1 41.093 11.8268 486 63.856 1227.13 559.938
2227 0 45.1677 12.044 544 62.625 1226.82 559.86
2228 0 47.0793 12.7445 600 61.2617 1227.58 558.957
2229 0 48.0881 13.0594 628 63.1927 1227.61 557.5
2230 0 50.0651 13.5224 677 62.2895 1227.26 557.514
2231 0 51.2704 13.1655 675 62.6904 1227.45 556.326
2232 0 51.2439 14.148 725 62.1048 1227.42 556.455
2233 0 52.2193 13.5582 708 62.6596 1227.77 554.547
2234 0 54.2677 13.1386 713 63.2931 1228.1 553.109
2235 0 56.1695 13.8153 776 62.5077 1227.24 552.889
2236 0 58.2631 13.9711 814 62.64 1226.9 552.204
2237 0 61.4413 13.9157 855 61.0339 1226.49 550.71
2238 0 61.1524 13.4909 825 62.7842 1226.85 548.71
2239 0 63.1131 14.4502 912 61.6107 1226.21 548.859
2240 0 66.2923 13.7723 913 62.4085 1226.14 547.424
2241 0 68.4051 14.1802 970 61.6505 1226.44 545.824
2242 0 70.18 14.1493 993 61.576 1227.4 545.623
2243 0 74.2711 14.5952 1084 60.3109 1226.95 544.696
2244 0 74.2711 14.5952 1084 160.537 1225.95 544.696
2245 0 78.0915 14.2653 1114 61.395 1226.65 541.522
2246 0 81.2063 13.5458 1100 61.7691 1227.08 541.03
2247 0 86.2382 14.0309 1210 60.376 1227.57 539.475
2248 1 45.1077 11.9713 540 63.5463 1226.62 556.674
2249 0 47.1372 11.3923 537 63.4283 1226.88 557.797
2250 0 50.1887 12.3733 621 62.6441 1226.09 556.346
2251 0 51.0607 13.4154 685 61.7036 1226.12 554.877
2252 0 52.1425 13.0987 683 62.06 1226.18 555.31
2253 0 52.2403 12.2894 642 63.5343 1226.33 554.234
2254 0 56.211 13.2359 744 61.3401 1226.54 554.403
2255 0 56.091 13.2463 743 62.3459 1226.17 551.873
2256 0 59.3685 14.1321 839 60.5244 1225.8 552.132
2257 0 59.3022 13.1698 781 61.9014 1225.87 551.453
2258 0 63.2344 13.5686 858 60.7821 1225.66 550.192
2259 0 63.3335 13.9736 885 60.3492 1225.68 549.964
2260 0 66.333 13.3267 884 61.552 1225.51 547.921
2261 0 69.1752 13.8344 957 60.5152 1225.36 547.507
2262 0 70.1734 13.8514 972 60.8786 1225.61 546.924
2263 0 73.1884 13.2125 967 61.8438 1225.53 544.831
2264 0 76.3722 13.2771 1014 61.2298 1226.06 543.372
2265 0 78.2258 13.2948 1040 61.3048 1225.71 542.373
2266 0 82.5062 14.2898 1179 59.8999 1225.7 540.662
2267 0 86.577 13.8489 1199 60.3661 1225.99 539.89
2268 1 47.2314 12.3223 582 61.7148 1226.45 558.905
2269 0 47.1908 12.4601 588 62.3129 1226.02 555.997
2270 0 51.0437 13.8313 706 60.2507 1226.4 557.758
2271 0 51.1779 12.5836 644 62.7205 1226.2 555.626
2272 0 53.0831 12.8289 681 62.3524 1226.64 554.874
2273 0 54.1865 12.9922 704 62.0284 1226.72 552.339
2274 0 55.0914 14.0675 775 60.7329 1226.67 552.741
2275 0 56.1908 13.5253 760 61.2618 1226.38 552.349
2276 0 59.173 13.638 807 60.3147 1226.14 550.985
2277 0 61.2076 13.9362 853 59.789 1226.08 550.59
2278 0 62.2723 13.5694 845 59.6675 1225.62 549.222
2279 0 65.3458 13.6504 892 59.2646 1225.27 546.426
2280 0 66.1776 13.6602 904 59.2135 1225.16 545.529
2281 0 68.3678 13.6906 936 58.8953 1225.67 544.399
2282 0 71.1616 13.5888 967 58.7353 1225.55 544.093
2283 0 72.495 14.1113 1023 57.7341 1225.54 543.541
2284 0 77.5362 14.3804 1115 56.4484 1225.57 543.348
2285 0 76.5143 13.4877 1032 58.3198 1224.8 540.506
2286 1 39.336 10.3722 408 58.5147 1225.51 559.12
2287 0 41.3785 10.3919 430 58.9279 1225.4 557.547
2288 0 42.3404 10.392 440 57.8068 1224.86 559.009
2289 0 45.1836 12.2832 555 55.9982 1224.63 558.468
2290 0 46.4269 11.9543 555 56.5568 1224.81 557.369
2291 0 47.1565 11.3664 536 57.7351 1224.64 557.11
2292 0 45.0366 12.5009 563 57.7318 1224.36 555.957
2293 0 47.1 12.1444 572 58.0892 1223.81 555.309
2294 0 50.201 12.191 612 56.9101 1223.94 555.979
2295 0 51.0971 12.9166 660 56.6515 1223.75 554.179
2296 0 55.1701 13.1593 726 55.146 1224.85 554.196
2297 0 58.1428 12.3317 717 55.4114 1225.05 553.218
2298 0 59.1377 12.8006 757 55.4822 1224.9 551.376
2299 0 57.1259 12.5687 718 56.8705 1224.81 551.256
2300 0 61.0586 13.0039 794 55.6511 1224.38 551.202
2301 0 62.078 12.9353 803 55.543 1224.6 549.158
2302 0 64.1504 13.3904 859 55.1607 1224.08 548.342
2303 0 64.3396 13.0868 842 55.6793 1224.16 547.26
2304 0 69.1185 14.0483 971 54.0556 1224.03 545.657
2305 0 72.0551 14.3918 1037 53.5458 1223.78 546.063
2306 0 73.0755 14.0676 1028 54.5078 1224.04 544.971
2307 0 75.1638 13.5571 1019 55.0677 1223.62 544.212
2308 0 78.0676 13.911 1086 54.4779 1223.86 543.197
2309 0 79.089 13.2509 1048 55.4313 1223.87 542.335
2310 0 83.1818 14.2098 1182 54.3164 1224.58 540.052
2311 0 85.2243 13.5877 1158 55.1434 1224.89 539.523
2312 0 88.1879 13.9588 1231 54.7409 1224.49 537.799
2313 0 90.1571 13.3877 1207 55.314 1224.5 535.043
2314 0 94.2861 13.8939 1310 54.684 1224.07 534.099
2315 1 55.1296 12.4434 686 55.0991 1224.6 553.757
2316 0 56.0851 9.27162 520 55.7385 1224.8 555.5
2317 0 57.2011 12.0277 688 54.9448 1224.76 551.035
2318 0 58.1455 12.5375 729 54.5267 1224.47 549.295
2319 0 59.1011 11.9456 706 55.8952 1224.62 548.725
2320 0 62.1812 11.8042 734 55.9891 1224.61 548.47
2321 0 65.187 13.0394 850 54.8118 1224.85 548.18
2322 0 68.2391 13.438 917 54.1799 1225.18 546.314
2323 0 71.2322 12.2978 876 55.4543 1225.15 545.07
2324 0 72.2716 12.7298 920 55.3739 1225.51 544.055
2325 0 72.1479 12.3912 894 56.4653 1225.69 542.639
2326 0 76.2759 12.8743 982 55.2597 1225.72 543.256
2327 0 78.209 12.2364 957 56.1776 1225.91 539.871
2328 0 80.2882 11.7203 941 57.0011 1225.93 538.002
2329 0 85.4659 13.4089 1146 54.8717 1226.2 537.947
2330 0 88.6926 12.0641 1070 56.9393 1226.41 533.602
2331 0 91.4724 12.5721 1150 56.5678 1225.96 534.066
2332 1 51.353 10.3986 534 55.2247 1226.4 554.702
2333 0 52.2354 10.1655 531 55.9642 1226.56 553.371
2334 0 56.2122 10.9585 616 54.9058 1226.76 551.766
2335 0 56.1836 10.6081 596 55.693 1227.14 551.421
2336 0 57.157 10.5674 604 56.6142 1227.27 550.368
2337 0 57.0516 11.0076 628 56.4777 1227.34 548.922
2338 0 58.1152 11.2535 654 56.0933 1227.49 550.116
2339 0 62.0884 11.8702 737 55.1655 1227.36 548.953
2340 0 62.1595 11.4544 712 56.5351 1227.81 547.565
2341 0 63.1353 11.0715 699 57.6137 1227.49 546.109
2342 0 66.2467 11.7591 779 56.3582 1228.04 544.629
2343 0 68.2922 11.8315 808 56.2599 1229.41 543.72
2344 0 70.2446 11.887 835 56.4623 1229.02 541.432
2345 0 72.2214 11.174 807 57.3482 1228.92 541.542
2346 0 74.2189 11.6547 865 56.7572 1228.71 541.775
2347 0 77.2453 11.5088 889 57.0551 1229.65 541.002
2348 0 80.4099 12.1005 973 56.3371 1228.78 539.11
2349 0 82.2402 11.5029 946 57.2326 1228.89 539.311
2350 0 84.4835 12.0023 1014 57.929 1228.84 535.065
2351 0 87.3646 12.1903 1065 57.708 1228.73 534.7
2352 0 88.5339 12.1197 1073 58.5471 1229.16 533.473
2353 0 91.4385 12.1284 1109 59.1659 1228.82 531.396
2354 1 51.1898 8.75174 448 58.7299 1228.85 553.011
2355 0 55.3868 10.8148 599 56.2721 1228.82 551.634
2356 0 56.2888 10.1796 573 57.5637 1228.94 551.092
2357 0 58.2639 10.83 631 56.6799 1229.29 550.068
2358 0 60.1942 10.815 651 57.0522 1229.09 549.515
2359 0 61.2151 11.6965 716 56.2961 1228.17 548.088
2360 0 61.3353 11.0051 675 58.0385 1228.11 547.059
2361 0 64.2111 11.322 727 57.5805 1227.87 547.105
2362 0 65.1172 11.5945 755 57.4662 1227.91 545.509
2363 0 64.1497 11.9096 764 57.4647 1228.21 544.624
2364 0 66.2349 11.0214 730 58.5849 1227.65 545.671
2365 0 70.2955 11.7788 828 57.3575 1227.33 544.64
2366 0 72.2547 12.4559 900 56.3567 1227.56 544.049
2367 0 74.2 12.5606 932 56.6534 1226.68 544.351
2368 0 73.1152 11.7896 862 58.5058 1226.66 542.377
2369 0 77.1523 12.1837 940 57.8904 1226.7 540.845
2370 0 79.5218 13.0279 1036 56.8166 1226.48 540.104
2371 0 81.2647 12.2809 998 57.6693 1226.86 539.372
2372 0 83.4466 12.0676 1007 58.4191 1225.76 538.232
2373 0 85.4254 12.1627 1039 58.6882 1225.42 536.679
2374 0 88.5448 12.4796 1105 58.1566 1225.5 534.594
2375 0 91.3651 12.3132 1125 59.1093 1225.41 533.084
2376 1 53.1274 9.7878 520 59.5385 1224.5 552.733
2377 0 52.2434 9.55145 499 60.509 1224.01 553.467
2378 0 56.0518 10.6152 595 58.7429 1224.44 553.21
2379 0 58.076 10.7962 627 57.8644 1224.78 552.032
2380 0 58.0701 10.539 612 59.5016 1223.8 552.863
2381 0 62.157 12.3558 768 56.4505 1224.54 551.957
2382 0 61.1314 11.1399 681 56.1439 1224.42 551.278
2383 0 63.1401 11.5616 730 55.7767 1224.74 549.264
2384 0 65.1232 11.793 768 55.6302 1225.43 549.896
2385 0 67.1094 12.4424 835 54.4192 1225.11 550.996
2386 0 68.1427 11.9015 811 55.9581 1224.96 546.888
2387 0 69.0745 11.9002 822 55.691 1225.04 548.294
2388 0 73.1162 12.6511 925 54.9686 1225.32 546.366
2389 0 74.1032 11.8888 881 56.0204 1224.85 543.731
2390 0 78.1419 12.4261 971 55.1411 1224.89 544.279
2391 0 79.1538 12.1156 959 55.5172 1225.1 543.222
2392 0 83.2744 12.6329 1052 54.6492 1225.2 542.779
2393 1 44.2684 10.3686 459 55.244 1225.87 560.893
2394 0 44.2021 9.81853 434 55.6982 1225.38 561.267
2395 0 47.0913 10.6177 500 54.954 1225.03 561.274
2396 0 49.0125 11.5073 564 54.7447 1225.04 558.764
2397 0 51.1353 12.242 626 54.238 1224.97 558.537
2398 0 50.0532 11.7475 588 55.2143 1225.79 558.148
2399 0 51.0496 11.5574 590 56.1339 1224.77 557.598
2400 0 53.1554 11.6451 619 56.1664 1225.04 557.218
2401 0 56.149 12.2175 686 55.4475 1224.4 555.808
2402 0 56.2051 11.885 668 55.5269 1224.7 556.275
2403 0 58.0867 12.4986 726 55.8719 1224.29 554.404
2404 0 61.1006 12.5367 766 54.8734 1224.04 556.3
2405 0 60.1423 11.8885 715 56.979 1223.72 552.81
2406 0 62.0645 11.9875 744 56.7755 1223.63 553.66
2407 0 64.1194 13.007 834 55.7638 1223.82 550.571
2408 0 66.1294 12.1126 801 56.9351 1223.65 550.856
2409 0 67.1571 12.1953 819 56.9035 1223.53 549.706
2410 0 70.1081 12.6662 888 56.6903 1222.94 550.208
2411 0 73.1269 12.3757 905 56.9989 1223.07 547.986
2412 1 39.0226 10.3274 403 59.1886 1223.16 563.69
2413 0 42.0133 10.092 424 59.7524 1222.48 562.092
2414 0 44.0256 11.198 493 58.3347 1222.93 561.702
2415 0 46.0881 12.3459 569 56.6485 1223.31 561.933
2416 0 46.0795 12.1312 559 57.3506 1223.01 561.744
2417 0 49.0906 11.9778 588 56.8503 1224.41 560.401
2418 0 49.0767 11.9405 586 57.1451 1224.07 559.268
2419 0 52.113 12.377 645 55.8295 1223.9 559.594
2420 0 52.1564 12.5967 657 56.2892 1224.26 559.67
2421 0 54.0412 12.694 686 56.3047 1224.08 556.606
2422 0 55.08 12.0007 661 57.1316 1223.76 557.401
2423 0 57.0693 13.1069 748 56.1337 1223.92 556.595
2424 0 59.0381 12.331 728 57.4025 1223.19 555.904
2425 0 60.0536 12.5388 753 57.4914 1222.59 556.696
2426 0 61.1072 11.668 713 58.3394 1222.24 555.871
2427 0 63.1484 13.397 846 57.0473 1222.74 553.836
2428 0 65.1193 12.3466 804 58.7065 1222.61 552.57
2429 0 66.0329 12.9178 853 57.4291 1222.4 552.543
2430 0 67.0987 13.2491 889 57.775 1222.46 551.922
2431 0 71.1774 13.3329 949 56.5522 1222.43 550.966
2432 0 72.1303 13.434 969 57.2384 1222.82 548.448
2433 0 75.0509 13.0312 978 57.2311 1222.49 548.856
2434 0 78.1196 13.1465 1027 57.26 1223.47 546.634
2435 0 79.1692 13.3638 1058 56.8932 1223.33 544.194
2436 0 83.144 13.2782 1104 56.8225 1223.04 544.835
2437 0 83.083 13.0953 1088 57.5625 1223.65 541.75
2438 0 90.1475 13.6221 1228 56.3958 1223.6 539.879
2439 1 51.0421 11.2456 574 56.6446 1224.24 561.124
2440 0 52.097 11.7089 610 55.2098 1224.52 561.98
2441 0 52.1228 11.2043 584 58 1224.49 557.8
2442 0 55.1012 12.5406 691 56.3575 1223.87 558.847
2443 0 56.0663 11.7896 661 58.5083 1224.18 557.247
2444 0 57.0601 12.4255 709 58.6446 1224.45 555.474
2445 0 60.0527 11.773 707 59.2518 1224.43 554.965
2446 0 62.1081 11.8503 736 59.1508 1224.26 555.31
2447 0 61.1359 12.4477 761 59.1945 1224 553.409
2448 0 63.0417 12.2776 774 59.7481 1224.28 551.208
2449 0 66.0367 13.4016 885 57.7593 1224.57 551.424
2450 0 66.0995 12.9199 854 58.9496 1224.69 549.952
2451 0 67.0959 13.2199 887 58.7328 1223.94 546.887
2452 0 71.1066 12.7555 907 58.6395 1223.73 547.279
2453 0 72.0844 12.0276 867 59.895 1223.98 544.916
2454 0 76.1365 13.3182 1014 57.3116 1223.6 545.007
2455 0 76.0906 12.4983 951 57.7445 1224.25 543.98
2456 0 77.1494 13.1174 1012 57.1917 1224.53 543.463
2457 0 82.1427 12.8435 1055 57.3867 1225.03 541.458
2458 0 84.1521 13.2142 1112 57.3192 1225.07 540.851
2459 0 85.0593 13.1673 1120 57.5545 1225.42 539.752
2460 0 87.1897 12.6621 1104 59.1123 1225.76 536.939
2461 0 91.1775 12.5031 1140 58.8553 1225.86 536.995
2462 0 95.1544 12.9894 1236 58.3819 1226.06 535.729
2463 0 97.1354 13.3422 1296 58.3465 1226.32 535.032
2464 1 56.0682 11.486 644 58.9286 1226.83 553.28
2465 0 57.0546 9.67495 552 59.7971 1226.73 554.295
2466 0 59.0912 11.1353 658 59.1003 1227.04 552.03
2467 0 60.0978 11.7142 704 58.6932 1227.39 551.467
2468 0 63.0324 11.8669 748 58.1778 1227.68 550.297
2469 0 66.0595 11.853 783 58.5096 1227.91 548.765
2470 0 67.0986 12.3848 831 57.7341 1228.03 547.291
2471 0 66.1639 12.2423 810 58.6704 1227.88 546.944
2472 0 70.1127 12.0378 844 58.1007 1228.98 546.133
2473 0 70.1325 12.2482 859 58.6286 1228.99 545.348
2474 0 74.0613 12.5302 928 58.2295 1229.12 544.55
2475 0 76.1016 13.6002 1035 57.2802 1229.23 542.538
2476 0 78.0963 13.5346 1057 57.3983 1229.26 541.036
2477 0 81.0845 13.3318 1081 57.6568 1228.67 538.531
2478 0 82.1466 12.7942 1051 58.4082 1228.93 538.257
2479 0 87.1861 13.8095 1204 57.1412 1228.76 536.304
2480 0 89.1878 13.2193 1179 57.6667 1228.28 535.873
2481 0 91.1804 13.1388 1198 58.3623 1228.17 534.482
2482 1 50.1008 10.5986 531 58.5593 1227.27 555.906
2483 0 51.0482 10.0102 511 59.953 1227.38 555.986
2484 0 52.0963 11.8243 616 58.2094 1227.81 553.344
2485 0 51.0613 10.6147 542 60.1015 1227.41 554.616
2486 0 55.1296 11.4458 631 59.0317 1227.2 552.64
2487 0 57.0833 12.0876 690 58.6913 1227.28 553.004
2488 0 59.1489 12.3248 729 57.716 1227.42 552.053
2489 0 59.0459 12.956 765 57.6928 1227.53 550.041
2490 0 63.1414 12.86 812 56.9421 1227.36 548.639
2491 0 62.0396 12.5565 779 57.2953 1227.11 549.398
2492 0 66.0736 12.4255 821 57.2119 1227.35 547.571
2493 0 67.0854 13.3412 895 56.3598 1228.14 546.453
2494 0 67.0528 12.8555 862 57.551 1227.62 545.901
2495 0 72.0916 13.5106 974 55.9949 1227.64 544.343
2496 0 73.0967 13.2427 968 56.3079 1227.53 543.438
2497 0 74.0729 13.4867 999 56.3173 1227.83 542.255
2498 0 77.1756 13.0352 1006 56.0507 1227.46 542.667
2499 0 78.2114 13.2717 1038 56.2312 1227.74 539.638
2500 0 80.1163 12.9187 1035 56.8145 1227.02 538.35
2501 0 84.1665 13.4852 1135 55.6661 1226.55 537.524
2502 1 49.0643 10.741 527 56.7476 1225.61 557.087
2503 0 48.0671 11.7752 566 56.3127 1225.2 556.095
2504 0 50.0675 12.1836 610 56.023 1225.23 554.189
2505 0 52.0872 12.7862 666 54.8183 1225.65 554.14
2506 0 52.0945 11.6903 609 56.9163 1225.6 553.225
2507 0 55.076 12.51 689 54.479 1225.34 554.65
2508 0 57.1837 11.262 644 55.2081 1225.7 554.685
2509 0 58.1384 12.2294 711 55.0788 1226.44 552.847
2510 0 58.0635 13.1408 763 55.0813 1226.64 551.219
2511 0 59.1141 12.2306 723 56.5118 1226.84 550.048
2512 0 61.0712 12.4772 762 56.248 1226.96 549.189
2513 0 63.1084 11.8368 747 56.8273 1226.43 549.589
2514 0 64.1456 12.0507 773 56.7555 1226.64 548.737
2515 0 69.3029 12.8133 888 55 1226.83 548.609
2516 0 71.2308 12.8596 916 55.1092 1227.03 547.019
2517 0 71.2633 13.0923 933 55.3162 1226.27 547.239
2518 0 74.2435 12.7419 946 55.611 1225.43 544.966
2519 0 76.3585 12.8735 983 54.8037 1225.66 544.583
2520 0 79.2604 12.7302 1009 55.2785 1225.74 544.029
2521 1 43.0215 11.3199 487 56.7372 1226.06 559.852
2522 0 46.0231 11.8636 546 55.9451 1226.65 559.846
2523 0 47.0832 12.5947 593 55.1332 1226.11 559.12
2524 0 49.0778 12.6534 621 55.0676 1225.99 558.488
2525 0 49.138 11.8035 580 56.7086 1225.16 556.976
2526 0 50.084 13.2977 666 55.464 1225.21 557.053
2527 0 51.1746 13.4442 688 55.1846 1224.97 557.083
2528 0 51.1055 13.3058 680 56.05 1225.31 555.116
2529 0 55.0968 13.4854 743 55.3445 1224.92 554.284
2530 0 55.1456 13.7817 760 55.2039 1224.99 553.924
2531 0 58.1515 12.6566 736 56.1671 1224.61 554.812
2532 0 59.1862 13.2632 785 56.1146 1224.64 553.482
2533 0 61.2467 13.3395 817 56.1922 1225.02 551.829
2534 0 64.1217 13.4744 864 55.6991 1224.92 551.333
2535 0 64.1196 13.4124 860 56.4151 1224.42 548.736
2536 0 65.1515 13.6758 891 56.0067 1224.78 549.908
2537 0 69.1301 13.6409 943 55.6967 1224.89 547.516
2538 0 71.1374 13.748 978 55.5879 1225.34 547.863
2539 0 72.1803 13.1753 951 58.0841 1225.25 545.556
2540 0 74.2543 13.373 993 57.6868 1225.19 546.276
2541 0 76.2846 13.6987 1045 57.2708 1225.09 545.262
2542 0 78.3215 13.5467 1061 58.2413 1224.13 542.665
2543 0 81.3509 12.9808 1056 58.6117 1223.93 541.856
2544 0 84.3181 13.8642 1169 57.8366 1224.04 541.564
2545 0 87.3458 13.4523 1175 58.2664 1224.58 541.398
2546 0 89.3124 14.0518 1255 57.3618 1224.71 539.226
2547 0 90.2938 13.0242 1176 59.4243 1224.44 536.345
2548 0 94.31 13.3284 1257 58.4877 1224.32 537.002
2549 0 94.31 13.3178 1256 159.828 1223.33 537.025
2550 1 53.1423 12.363 657 58.7443 1224.39 557.883
2551 0 56.049 12.0074 673 58.8603 1223.8 558.273
2552 0 56.0277 11.53 646 59.9489 1224 557.285
2553 0 58.0992 13.7179 797 57.3726 1224.35 555.705
2554 0 60.0689 13.6676 821 57.151 1224.05 555.661
2555 0 60.09 12.3315 741 58.776 1224.15 556.265
2556 0 61.0775 12.0012 733 60.0941 1223.56 554.299
2557 0 65.0598 13.7873 897 57.2742 1223.29 551.6
2558 0 66.0397 13.1133 866 58.276 1223.51 553.02
2559 0 67.1012 13.189 885 58.5254 1223.2 550.021
2560 0 68.0932 13.2759 904 59.0819 1223.18 549.404
2561 0 72.0417 13.2978 958 58.595 1223.31 549.079
2562 0 74.176 13.4949 1001 58.4735 1223.67 548.261
2563 0 77.0696 14.8827 1147 56.7916 1223.49 547.326
2564 0 81.1455 14.246 1156 57.1773 1223.46 547.161
2565 0 83.0968 14.0559 1168 57.3579 1223.51 546.199
2566 0 84.1151 13.434 1130 59.8575 1223.54 544.8
2567 1 46.0461 11.5536 532 61.9887 1223.07 561.641
2568 0 46.0204 10.2998 474 64.0464 1223.23 560.686
2569 0 49.0568 11.3746 558 63.1398 1223.3 560.007
2570 0 51.0568 12.1042 618 61.7298 1222.66 559.176
2571 0 54.1466 11.5427 625 61.5856 1222.51 558.651
2572 0 52.071 12.867 670 61.6403 1222.48 557.057
2573 0 57.116 12.7635 729 60.439 1221.98 556.894
2574 0 57.1931 13.1484 752 60.4548 1222.08 556.961
2575 0 60.2123 12.8047 771 60.179 1222.23 556.411
2576 0 60.2151 13.103 789 60.6984 1222.54 554.042
2577 0 61.0757 12.902 788 60.4581 1221.82 554.99
2578 0 65.0558 14.3415 933 58.2079 1221.26 554.818
2579 0 65.1313 13.4651 877 59.7309 1221.43 552.772
2580 0 68.1096 13.7426 936 58.1891 1220.82 551.88
2581 0 70.158 13.4553 944 58.8019 1221.87 550.403
2582 0 72.1067 13.2581 956 59.3389 1221.63 549.185
2583 0 77.0754 14.7777 1139 56.5751 1221.58 548.017
2584 0 80.0853 14.7343 1180 56.0449 1222.15 548.085
2585 0 82.1841 14.139 1162 57.0499 1222.03 545.424
2586 0 84.0986 14.2452 1198 57.1102 1222.38 542.196
2587 0 86.0881 13.9624 1202 58.2454 1221.84 541.807
2588 1 47.0442 11.3723 535 60.4879 1222.21 560.389
2589 0 49.0285 11.5035 564 59.2145 1222.14 561.122
2590 0 51.1091 11.407 583 58.7856 1222.96 560.82
2591 0 51.0497 11.577 591 59.4382 1222.98 558.308
2592 0 53.1478 12.7004 675 58.5704 1222.77 556.544
2593 0 56.1581 13.6401 766 57.107 1223.38 556.543
2594 0 56.2185 12.2024 686 59.7318 1223.04 555.156
2595 0 59.3214 13.7219 814 57.5197 1223.78 554.769
2596 0 61.1301 13.2831 812 58.0924 1223.98 553.798
2597 0 62.0956 13.3665 830 58.4193 1224.08 552.146
2598 0 63.2618 13.373 846 59.1111 1224.34 551.593
2599 0 67.3004 14.0267 944 57.5456 1224.88 550.982
2600 0 67.3125 13.2962 895 59.6168 1224.96 549.302
2601 0 70.2734 13.4617 946 58.9672 1225.48 549.16
2602 0 73.435 14.2984 1050 57.5505 1225.58 548.702
2603 0 72.3366 13.9763 1011 58.5826 1225.61 547.334
2604 0 76.3277 13.953 1065 58.4225 1225.39 545.731
2605 0 80.3394 13.9284 1119 58.1483 1225.54 543.892
2606 0 82.2168 12.5887 1035 59.8812 1225.92 542.639
2607 1 46.1976 11.1694 516 60.8953 1225.51 558.595
2608 0 48.2154 11.7182 565 59.0796 1225.73 559.6
2609 0 47.1335 11.7963 556 60.5072 1226.13 559.144
2610 0 50.1227 12.7288 638 59.6834 1226.3 556.813
2611 0 54.2489 13.1247 712 58.0913 1226.71 556.992
2612 0 54.1821 12.9748 703 59.4637 1226.47 554.808
2613 0 56.3412 12.797 721 60.0222 1226.83 553.893
2614 0 57.3852 12.6513 726 60.2837 1227.07 553.42
2615 0 57.2184 13.1252 751 61.0506 1227.14 553.172
2616 0 62.2677 14.5019 903 57.9169 1227.73 552.639
2617 0 63.364 14.0458 890 58.9292 1227.96 551.37
2618 0 64.3821 14.1188 909 59.3762 1227.81 550.098
2619 0 67.6147 13.6509 923 60.1138 1227.64 549.615
2620 0 67.3596 14.1182 951 59.6225 1228.13 548.403
2621 0 69.3437 13.3105 923 61.0488 1227.77 546.453
2622 0 71.4402 13.4798 963 61.2129 1227.87 545.113
2623 0 73.219 14.7093 1077 59.7354 1228.12 545.375
2624 0 75.2437 13.5825 1022 62.1517 1228.23 542.883
2625 0 80.2251 14.8083 1188 59.4975 1228.17 542.726
2626 0 81.5275 13.8358 1128 61.3413 1228.25 540.976
2627 0 84.3556 13.7632 1161 60.7614 1227.87 541.414
2628 0 88.4019 14.4906 1281 59.8649 1227.77 538.956
2629 1 48.2325 11.3409 547 63.1499 1227.72 556.563
2630 0 50.0976 12.6553 634 61.3644 1227.62 557.388
2631 0 52.1473 12.5414 654 61.8899 1227.24 556.616
2632 0 53.1299 13.0247 692 62.1113 1227.18 555.39
2633 0 55.2172 13.4378 742 61.7345 1227.79 553.22
2634 0 54.1915 12.7695 692 62.7876 1227.21 552.905
2635 0 57.2434 13.5911 778 61.7211 1228.09 552.058
2636 0 59.2085 13.6974 811 62.1665 1227.84 548.806
2637 0 61.2155 14.1304 865 61.5006 1228.06 550.139
2638 0 64.1895 14.7376 946 60.5761 1228.22 550.325
2639 0 65.2823 13.6484 891 61.8552 1228.32 548.401
2640 0 67.2731 14.404 969 60.9752 1228.26 546.925
2641 0 68.3592 14.8188 1013 60.6989 1228.18 545.713
2642 0 72.2372 13.8433 1000 61.407 1227.52 545.72
2643 0 73.3033 14.0239 1028 62.0554 1227.53 541.981
2644 0 77.1721 15.135 1168 60.5154 1227.61 542.628
2645 0 79.2596 13.7144 1087 62.6348 1227.34 540.443
2646 0 83.2828 14.6129 1217 60.6623 1227.27 539.156
2647 0 83.6679 13.3145 1114 63.3995 1226.91 538.646
2648 1 45.1038 11.6842 527 64.7173 1226.28 556.51
2649 0 48.1751 12.33 594 62.665 1226.13 557.475
2650 0 47.3635 13.3225 631 59.9746 1225.66 557.387
2651 0 49.2829 13.1892 650 60.4277 1225.86 554.922
2652 0 50.193 13.8266 694 60.4395 1225.84 553.258
2653 0 53.2877 14.9566 797 58.3601 1225.9 553.438
2654 0 54.1638 13.9577 756 60.287 1226.77 551.292
2655 0 55.2918 12.7324 704 61.8977 1226.32 553.227
2656 0 58.2006 13.7284 799 60.5707 1226.42 551.713
2657 0 61.3125 14.0102 859 59.0955 1226.6 550.104
2658 0 63.3332 13.7685 872 59.6273 1226.73 548.167
2659 0 66.336 14.2004 942 58.7654 1226.67 546.52
2660 0 69.1795 14.3973 996 58.3363 1226.88 547.777
2661 0 71.4147 14.0727 1005 58.8627 1226.7 546.179
2662 0 72.5242 13.8437 1004 59.5996 1226.4 545.657
2663 0 74.494 14.4844 1079 58.5802 1226.58 543.393
2664 0 77.444 14.8236 1148 58.3563 1226.64 541.454
2665 0 78.2192 13.7818 1078 59.6855 1226.21 540.721
2666 0 84.1687 14.4709 1218 58.0862 1226.75 540.507
2667 0 86.4661 14.1905 1227 58.6822 1226.23 537.617
2668 1 46.2182 11.489 531 61.6309 1226.14 556.859
2669 0 48.2647 11.3126 546 61.5037 1226.74 554.273
2670 0 48.1348 11.6755 562 62.0125 1226.71 553.609
2671 0 52.2474 12.8045 669 59.6517 1226.55 553.09
2672 0 52.177 13.0901 683 59.7701 1227.05 553.091
2673 0 55.2329 13.4702 744 58.7876 1226.38 552.75
2674 0 56.0754 14.213 797 58.5609 1226.6 551.207
2675 0 59.2907 14.6229 867 57.0115 1226.54 551.369
2676 0 61.1417 13.9348 852 58.3404 1226.66 550.042
2677 0 62.3143 14.812 923 57.1365 1226.42 548.145
2678 0 62.1541 13.4022 833 59.0096 1226.22 548.376
2679 0 65.1956 13.8353 902 58 1226.14 547.156
2680 0 66.2853 14.4376 957 57.1578 1225.93 545.841
2681 0 69.1361 13.9001 961 57.7149 1225.6 543.75
2682 0 73.2246 13.998 1025 56.8839 1225.75 544.553
2683 0 73.2235 13.6841 1002 57.7415 1225.42 542.404
2684 0 75.142 14.08 1058 57.1248 1225.8 543.011
2685 0 78.1041 13.9685 1091 56.7874 1225.58 541.174
2686 0 81.2399 14.2048 1154 56.8128 1225.68 540.114
2687 0 86.1561 14.8103 1276 55.71 1225.42 539.606
2688 1 48.102 11.7251 564 57.922 1226.1 555.48
2689 0 49.0816 11.3484 557 58.0395 1226.04 556.767
2690 0 50.1131 12.1126 607 58 1225.36 554.789
2691 0 51.1481 12.5127 640 57.4 1225 554.017
2692 0 52.069 13.0404 679 57.0353 1225.24 554.163
2693 0 57.1941 13.6727 782 55.2954 1225.46 554.678
2694 0 56.1395 12.7718 717 57.3264 1225.29 553.509
2695 0 58.3081 12.7084 741 57.0756 1225.24 552.011
2696 0 61.2584 14.349 879 54.5381 1225.66 551.999
2697 0 64.1486 13.5311 868 55.2696 1225.46 551.306
2698 0 64.1996 13.0063 835 56.4491 1225.12 549.095
2699 0 66.2322 13.9358 923 55.4171 1224.9 548.839
2700 0 67.1759 13.4274 902 56.1674 1224.33 548.353
2701 0 70.2582 13.3792 940 56.0447 1224.46 548.155
2702 0 72.2019 13.1298 948 56.7785 1224.66 545.4
2703 0 75.2893 13.468 1014 56.5404 1224.69 543.679
2704 0 77.1247 13.4198 1035 56.8068 1224.63 544.249
2705 0 78.2811 13.9242 1090 56.5716 1224.42 542.592
2706 0 80.1905 13.9917 1122 57.2522 1224.1 540.267
2707 0 80.1905 13.9792 1121 166.391 1223.09 540.25
2708 0 86.2197 13.0133 1122 58.4902 1224.57 540.884
2709 0 88.3976 13.4393 1188 58.2517 1224.4 538.449
2710 0 92.2442 13.7787 1271 58.0645 1224.04 537.14
2711 0 96.2354 13.467 1296 58.5455 1223.94 534.254
2712 0 98.3414 13.9311 1370 58.1453 1224.09 533.142
2713 1 57.2553 9.41397 539 58.9573 1224.32 554.653
2714 0 60.1959 10.8313 652 57.7623 1224.14 552.945
2715 0 61.1805 11.3762 696 57.2213 1224.36 552.49
2716 0 63.2015 11.4238 722 55.7576 1223.94 552.965
2717 0 65.1689 11.6313 758 55.8575 1224.43 550.265
2718 0 68.3272 12.1328 829 54.5054 1224.15 550.382
2719 0 70.2309 11.9748 841 54.6207 1223.57 549.929
2720 0 71.273 10.7614 767 55.824 1223.78 547.572
2721 0 75.3324 11.801 889 54.3195 1224.39 547.209
2722 0 78.3267 11.3116 886 55.1783 1224.05 543.034
2723 0 81.3739 12.1906 992 53.9133 1223.87 542.718
2724 0 82.3072 11.5786 953 55.3232 1223.93 540.78
2725 1 47.4248 9.86826 468 53.4103 1225.08 559.374
2726 0 51.2199 10.0352 514 52.7549 1225.22 559.545
2727 0 50.2267 9.49695 477 54.2013 1225.51 558.029
2728 0 49.1416 10.6631 524 53.9294 1225.07 557.193
2729 0 54.1504 11.0433 598 52.2943 1225.21 556.926
2730 0 51.184 10.1399 519 54.5761 1225.51 555.225
2731 0 56.2907 11.032 621 52.9614 1225.58 554.918
