time division length width area intensity CMx CMy
0 0 72.227 12.9868 938 68.4467 1369.15 564.639
1 0 74.2036 12.8296 952 90.5179 1368.95 562.439
2 0 75.3298 13.6201 1026 67.8694 1369.2 560.723
3 0 77.1825 13.2414 1022 68.729 1368.94 559.383
4 0 81.4389 13.7035 1116 68.1254 1368.88 556.933
5 0 83.2988 13.4216 1118 69.8023 1369.33 557.113
6 0 87.2441 13.6399 1190 69.8504 1368.76 554.408
7 0 89.1711 13.7489 1226 69.5057 1369.19 552.475
8 1 46.2232 11.2714 521 68.8081 1369.78 574.72
9 0 45.1947 11.5279 521 69.1497 1369.25 574.294
10 0 49.2877 12.8024 631 67.2552 1369.85 572.813
11 0 51.2927 11.951 613 68.6884 1369.2 572.054
12 0 53.2881 11.5598 616 68.6088 1369.18 572.281
13 0 53.1498 12.5871 669 68.1046 1369.59 570.892
14 0 54.1456 12.5403 679 69.2607 1369.72 569.224
15 0 56.2425 13.2284 744 68.3642 1369.54 568.23
16 0 58.1593 12.8096 745 68.5517 1369.59 566.815
17 0 62.1683 12.8844 801 67.8614 1369.4 565.391
18 0 64.0966 12.3876 794 68.165 1368.82 564.631
19 0 66.1669 12.5894 833 67.6795 1368.6 563.843
20 0 68.4185 12.9351 885 67.2847 1368.68 563.084
21 0 71.1674 12.5057 890 66.6112 1368.71 561.734
22 0 74.1244 12.9917 963 65.9637 1368.65 558.902
23 0 76.3444 12.7187 971 66.4212 1368.6 560.419
24 0 81.2928 13.2238 1075 65.4484 1368.43 557.607
25 0 81.0737 13.4692 1092 65.6438 1368.24 556.946
26 1 43.2965 9.95462 431 66.7912 1368.95 575.903
27 0 45.2831 10.2466 464 67.7177 1368.58 574.317
28 0 47.2867 11.9907 567 65.8624 1368.59 572.938
29 0 50.1619 12.5394 629 64.7043 1368.27 571.903
30 0 49.1744 11.5711 569 67.6063 1368.3 572.821
31 0 51.1406 11.6541 596 67.6376 1368.33 571.394
32 0 53.4618 12.1395 649 66.6133 1368.16 571.114
33 0 54.4712 11.4005 621 68.0145 1368.82 572.024
34 0 56.3287 12.4803 703 66.6159 1369.12 568.792
35 0 57.45 12.6545 727 66.4608 1368.98 568.564
36 0 58.2597 12.6846 739 66.4357 1369.24 568.46
37 0 60.145 13.1183 789 65.8276 1368.88 567.024
38 0 61.2524 12.375 758 66.7111 1369.39 567.739
39 0 64.3912 13.1074 844 65.5616 1369.52 565.101
40 0 66.6217 13.8393 922 64.513 1369.21 563.831
41 0 68.5494 12.4728 855 66.4526 1369.72 562.664
42 0 71.3134 14.275 1018 63.6483 1369.5 561.249
43 0 73.4003 12.3433 906 66.7561 1369.77 559.653
44 1 38.1733 10.8715 415 66.0843 1369.78 576.66
45 0 39.2795 10.5653 415 67.1422 1370.46 575.21
46 0 42.2465 11.9537 505 64.9624 1370.53 574.307
47 0 43.1094 12.5031 539 65.0204 1370.35 573.757
48 0 43.1555 12.0958 522 66.9732 1370.51 573.397
49 0 45.2224 13.0245 589 66.4414 1370.91 572.014
50 0 47.2301 12.1744 575 67.0487 1370.65 572.757
51 0 48.1998 12.9046 622 66.0965 1370.68 571.96
52 0 48.3208 12.6447 611 67.1293 1370.4 570.095
53 0 50.1571 12.7998 642 67.0685 1370.43 567.804
54 0 50.1421 13.023 653 67.1225 1369.22 567.576
55 0 51.4558 13.0015 669 59.4096 1370.27 567.493
56 0 53.4732 13.0907 700 59.8157 1370.34 567.614
57 0 54.4553 13.1117 714 59.6919 1370.17 565.122
58 0 57.4911 13.3934 770 59.6416 1370.24 563.831
59 0 58.5395 13.7002 802 59.6708 1370.5 562.42
60 0 60.9332 12.8994 786 61.9847 1370.67 561.762
61 0 63.7591 13.3001 848 62.1144 1370.31 560.321
62 0 64.4594 13.8071 890 62.3247 1370.52 559.619
63 0 68.5636 13.2723 910 62.9407 1370.53 558.651
64 0 69.6216 13.3866 932 63.6867 1370.41 556.194
65 0 70.4834 13.3223 939 63.9681 1370.54 557.338
66 0 74.5465 13.5352 1009 64.4252 1370.72 554.194
67 0 76.675 13.5246 1037 65.3192 1370.83 552.915
68 0 80.6095 13.6833 1103 64.9447 1371.08 553.006
69 0 82.6602 14.0334 1160 64.906 1371.5 550.608
70 1 46.6731 10.6914 499 65.7415 1370.89 569.495
71 0 46.5045 11.7408 546 65.6044 1370.88 568.553
72 0 47.3809 11.2281 532 66.7274 1371.02 567.585
73 0 49.3535 12.2383 604 66.4818 1371.56 564.742
74 0 52.1866 12.0529 629 65.8633 1371.46 566.353
75 0 53.2871 11.9541 637 67.3265 1371.98 563.317
76 0 56.1861 12.4942 702 66.4915 1371.55 561.887
77 0 57.3251 13.0135 746 66.1072 1372.45 560.8
78 0 57.3234 12.037 690 67.5812 1372.62 560.119
79 0 61.1857 12.5846 770 66.8636 1372.8 559.573
80 0 61.2396 12.7532 781 67.1524 1373.24 557.493
81 0 64.1993 13.2089 848 66.7406 1372.86 555.969
82 0 67.48 13.9152 939 65.7923 1373.45 554.465
83 0 69.3714 13.1178 910 66.7868 1373.99 553.322
84 0 72.4274 13.0614 946 66.3827 1374.07 552.518
85 0 75.2666 12.6351 951 67.1872 1374.53 550.81
86 0 77.3119 12.3784 957 67.0711 1374.4 548.323
87 0 80.4382 12.3076 990 65.7879 1374.37 547.184
88 1 46.1512 10.0106 462 63.9048 1373.3 565.21
89 0 47.0063 9.76464 459 63.8083 1374.32 566.669
90 0 49.0943 10.9789 539 63.6827 1374.52 562.878
91 0 50.1089 10.7765 540 65.3222 1375.62 562.359
92 0 51.0789 11.3354 579 64.8273 1377.48 562.154
93 0 50.0572 10.9275 547 66.1152 1376.98 561.42
94 0 54.0513 11.2116 606 63.9472 1376.68 558.571
95 0 55.0077 11.6893 643 60.5443 1376.76 559.997
96 0 56.1035 11.4253 641 60.4181 1376.72 558.002
97 0 56.1035 11.4788 644 155.503 1376.73 557.898
98 0 60.1628 11.2196 675 60.1037 1376.26 556.083
99 0 63.0878 11.4919 725 60.0221 1375.52 555.679
100 0 64.09 11.6087 744 62.5188 1375.94 554.66
101 0 64.09 11.6243 745 160.236 1375.95 554.666
102 0 67.0882 12.7146 853 64.9508 1376.54 550.51
103 0 69.1456 11.9024 823 61.4253 1376.55 549.79
104 0 72.0604 12.0871 871 61.6108 1376.3 549.603
105 0 75.2139 12.6971 955 64.3361 1376.65 547.517
106 1 42.0275 10.1124 425 63.9153 1376.49 566.254
107 0 42.0487 9.72683 409 65.4156 1376.75 564.286
108 0 44.0261 10.1758 448 64.9978 1376.35 564.074
109 0 45.0433 10.4566 471 65.431 1376.05 561.881
110 0 45.0233 10.3946 468 65.4979 1375.94 562.239
111 0 46.0299 11.3405 522 64.0192 1376.4 560.228
112 0 49.0419 11.48 563 62.5631 1376.26 560.437
113 0 50.0712 11.6035 581 61.2754 1376.91 559.714
114 0 49.1023 11.4659 563 62.2735 1377.35 559.574
115 0 52.1947 11.5721 604 61.755 1377.26 558.646
116 0 53.0762 11.3799 604 60.8129 1377.58 558.273
117 0 54.1314 10.7701 583 61.9554 1377.35 558.899
118 0 55.1655 11.3477 626 61.1006 1377.48 558.639
119 0 56.0875 10.5193 590 61.6898 1377.26 556.969
120 0 59.2034 11.452 678 60.2581 1377.26 556.855
121 0 59.0389 10.654 629 60.0016 1375.39 556.553
122 0 61.1653 11.1174 680 59.9985 1375.39 552.325
123 0 63.0225 11.6625 735 59.7143 1375.44 552.259
124 0 68.1203 14.0487 957 56.1317 1375.42 551.462
125 0 69.0229 12.1989 842 58.6698 1375.34 551.109
126 0 70.11 12.9796 910 58.3769 1375.34 549.582
127 0 74.0925 11.4991 852 59.5469 1375.51 548.696
128 0 74.0825 11.7437 870 59.7529 1375.11 548.297
129 0 75.1575 12.1611 914 60.1225 1375.19 546.191
130 0 78.1147 12.1488 949 59.8915 1375.52 546.514
131 0 82.2327 13.1699 1083 58.9825 1375.35 545.384
132 0 83.1474 11.7983 981 61.1743 1375.36 543.803
133 1 45.0306 10.4818 472 59.4407 1375.3 563.828
134 0 44.05 10.5789 466 59.8841 1375.19 562.27
135 0 44.05 10.5335 464 146.571 1375.19 562.233
136 0 46.1195 10.9498 505 60.3307 1375.02 563.178
137 0 49.0882 11.5506 567 59.5908 1374.8 560.981
138 0 50.0342 11.2923 565 59.8566 1374.6 561.235
139 0 50.0549 11.5873 580 59.8448 1373.72 558.819
140 0 53.2289 12.3805 659 58.2276 1373.86 558.724
141 0 55.0424 11.5911 638 59.174 1373.86 559.016
142 0 55.0717 11.1491 614 59.4805 1374.57 558.66
143 0 57.1211 11.887 679 59.0309 1374.04 556.538
144 0 61.0717 12.0187 734 58.455 1374.14 556.076
145 0 62.1107 12.3006 764 58.7225 1374.03 553.675
146 0 63.1162 12.6909 801 58.0599 1374.28 553.769
147 0 64.2175 11.8036 758 59.8918 1374.27 552.421
148 0 65.259 12.3508 806 59.9727 1373.77 552.288
149 0 70.2743 13.0346 916 59.048 1373.55 551.004
150 0 70.1378 12.1475 852 60.5681 1373.48 553.475
151 0 73.1793 12.5719 920 60.275 1373.9 550.051
152 0 74.1477 12.0435 893 61.3001 1374.49 548.55
153 0 78.2226 13.0781 1023 59.9267 1374.14 547.191
154 0 81.2164 13.2978 1080 60.0046 1374.18 546.393
155 0 83.2632 12.2503 1020 61.2461 1374.52 546.151
156 0 85.3089 13.4921 1151 60.3979 1374.44 543.56
157 0 91.2807 10.3746 947 63.1922 1374.41 544.506
158 0 90.5027 12.5632 1137 61.4169 1374.2 541.271
159 0 93.3731 12.6803 1184 61.4721 1373.83 539.25
160 1 48.3525 12.0366 582 60.8935 1373.52 561.168
161 0 50.2344 11.2274 564 62.1489 1373.32 560.044
162 0 53.1395 11.4039 606 61.6898 1374.75 559.477
163 0 55.06 12.786 704 59.9631 1374.9 557.824
164 0 57.0373 12.7986 730 60.263 1373.65 556.993
165 0 57.0556 12.7945 730 60.4301 1373.35 556.403
166 0 59.0239 12.4187 733 60.8977 1373.48 555.602
167 0 61.0399 11.6645 712 61.5885 1374.27 555.532
168 0 65.0705 12.6017 820 60.3085 1374.43 553.624
169 0 66.0876 13.3157 880 59.2511 1374.85 554.169
170 0 68.1173 12.9189 880 59.4205 1374.84 552.043
171 0 69.0376 12.7612 881 60.1135 1375.43 550.252
172 0 71.1079 13.0646 929 60.408 1374.93 549.139
173 0 73.0891 12.6831 927 60.7724 1375.22 548.227
174 0 75.063 12.7759 959 61.3848 1375.22 544.106
175 0 77.0536 13.2505 1021 60.4887 1375.29 544.222
176 0 83.1143 12.922 1074 59.9013 1375.68 543.778
177 0 84.1224 13.6587 1149 59.9565 1375.71 541.465
178 0 85.1926 12.8298 1093 60.935 1375.45 541.696
179 0 90.1041 13.9616 1258 59.9976 1375.64 537.196
180 0 91.0691 13.3086 1212 60.9398 1375.89 537.801
181 0 95.1584 12.4634 1186 61.7782 1375.72 537.165
182 0 97.1534 13.7 1331 61.1112 1375.99 534.973
183 0 100.186 12.9759 1300 61.97 1376.44 533.475
184 0 104.178 13.6785 1425 61.0021 1376.07 531.408
185 0 109.29 13.8073 1509 60.6137 1376.72 528.785
186 0 113.362 13.2937 1507 60.5926 1376.68 525.079
187 0 116.354 12.9605 1508 61.2911 1376.22 524.629
188 1 59.1314 10.9079 645 60.969 1375.76 551.324
189 0 59.1309 9.70728 574 61.8659 1375.79 550.768
190 0 63.0813 11.3187 714 60.2339 1375.9 551.134
191 0 66.1372 12.3682 818 61.2653 1376.76 547.449
192 0 68.0626 12.3563 841 60.6373 1377.77 546.532
193 0 70.0673 12.9304 906 58.0011 1377.98 545.812
194 0 73.0708 12.1389 887 57.7215 1377.59 543.955
195 0 76.1645 13.4971 1028 56.1206 1377.58 542.092
196 0 80.1402 12.528 1004 57.5159 1377.82 541.57
197 0 81.1138 12.5133 1015 58.7281 1377.83 538.901
198 0 85.1479 12.7425 1085 58.5816 1377.74 538.803
199 0 88.1017 13.666 1204 57.6935 1377.74 536.809
200 0 88.1792 12.9169 1139 59.0255 1377.86 534.932
201 0 92.2303 13.2928 1226 57.6378 1377.47 533.325
202 0 93.194 12.533 1168 59.1695 1377.63 530.146
203 0 97.2481 12.3807 1204 59.2749 1377.3 530.376
204 1 55.0904 10.0199 552 58.212 1376.73 552.094
205 0 55.0434 9.7196 535 58.7701 1377.29 549.738
206 0 55.0434 9.68327 533 158.137 1377.31 549.811
207 0 55.0385 10.5563 581 56.9518 1377.61 548.494
208 0 56.1682 11.0561 621 56.5556 1378.1 547.053
209 0 61.0729 12.6898 775 55.7742 1377.37 548.217
210 0 63.0376 12.7701 805 55.7056 1377.55 547.585
211 0 64.1053 12.4015 795 55.6528 1378.71 548.946
212 0 67.1485 11.7799 791 56.7016 1378.19 548.344
213 0 68.1714 11.6911 797 57.1355 1378.59 546.082
214 0 71.1437 12.7067 904 55.4712 1378.6 545.426
215 0 71.0807 11.5221 819 57.0891 1378.74 544.543
216 0 75.1183 12.5668 944 55.9428 1377.77 543.977
217 0 75.1371 12.404 932 56.5805 1377.26 540.532
218 0 79.2104 12.0186 952 56.5725 1377.38 543.178
219 0 81.3423 12.0847 983 57.0732 1377.47 539.901
220 0 83.1711 12.4683 1037 57.189 1377.11 538.537
221 0 85.2517 12.5276 1068 57.8258 1377.4 535.963
222 0 89.2996 12.71 1135 57.2767 1376.55 537.574
223 0 90.1556 12.5782 1134 58.4577 1376.86 535.526
224 0 94.2899 12.2176 1152 58.7457 1376.84 534.194
225 0 97.235 13.1948 1283 58.1231 1376.9 530.765
226 0 98.3352 11.6438 1145 60.1686 1376.63 532.141
227 1 51.0586 9.34221 477 58.4151 1375.96 557.725
228 0 54.0747 9.74578 527 57.8843 1376.11 557.013
229 0 54.1707 10.19 552 58.4293 1375.97 554.904
230 0 58.0919 12.3769 719 55.6273 1375.3 556.362
231 0 59.0299 11.5704 683 57.4246 1375.65 554.656
232 0 60.0601 11.2054 673 58.4205 1375.41 551.908
233 0 63.0717 11.1778 705 57.8496 1375.51 552.288
234 0 63.0611 10.7039 675 58.6178 1375.43 552.166
235 0 67.1837 12.8156 861 56.8339 1376.33 550.127
236 0 69.3563 11.4193 792 58.3939 1376.28 549.46
237 0 70.3238 12.8833 906 56.8885 1376.23 548.077
238 0 71.4436 12.0934 864 58.1968 1376.29 547.021
239 0 74.3955 11.9362 888 58.5158 1376.01 545.806
240 0 77.294 12.9506 1001 56.7722 1375.66 544.234
241 0 78.5178 12.3284 968 57.8802 1375.77 543.561
242 0 80.4409 12.0461 969 58.2116 1375.55 542.223
243 0 84.2457 13.0452 1099 56.8107 1375.52 541.728
244 1 47.1443 9.09973 429 57.7832 1375.66 561.497
245 0 49.179 9.98394 491 57.2688 1375.67 560.615
246 0 48.1912 10.2716 495 57.4788 1375.85 559.354
247 0 50.1214 10.4147 522 56.7682 1376.48 558.008
248 0 52.052 10.624 553 56.5533 1376.26 556.394
249 0 55.1117 11.3769 627 55.1388 1376.09 557.431
250 0 54.1278 10.7523 582 55.6993 1376.33 556.997
251 0 55.141 11.389 628 55.6688 1375.97 556.019
252 0 57.0638 11.8289 675 55.1037 1376.4 555.664
253 0 59.0537 12.4463 735 54.5551 1375.97 554.059
254 0 60.2093 12.6891 764 54.839 1375.58 555.356
255 0 62.1501 12.148 755 55.7258 1375.22 554.764
256 0 63.079 12.7301 803 55.4981 1375.41 552.125
257 0 66.1287 12.1581 804 56.0771 1375.6 551.873
258 0 67.2531 12.7875 860 55.7721 1375.42 551.822
259 0 68.3312 12.5711 859 56.6729 1374.91 550.537
260 0 72.435 12.494 905 56.3967 1375.2 551.261
261 0 74.2892 12.6263 938 56.9638 1374.87 547.324
262 0 76.4129 12.5764 961 57.8918 1374.7 547.034
263 0 78.2468 12.9334 1012 57.751 1375.01 548.082
264 0 81.2336 12.741 1035 58.4396 1375.06 545.908
265 0 83.2053 13.1001 1090 58.2853 1374.87 543.142
266 0 87.1485 12.8057 1116 59.1093 1374.98 542.069
267 0 91.2029 14.1882 1294 57.9436 1374.91 541.599
268 0 91.1296 13.3107 1213 59.6538 1375.04 538.528
269 0 95.2699 13.7189 1307 59.3091 1374.89 535.534
270 0 97.2578 12.4926 1215 60.8486 1375.14 538.253
271 0 100.183 13.9745 1400 59.2707 1374.94 535.458
272 0 105.302 14.5296 1530 58.1752 1375.22 532.034
273 1 55.1446 11.1525 615 59.0228 1375.29 558.738
274 0 56.2424 10.597 596 59.7953 1374.94 555.849
275 0 57.196 10.5252 602 58.5963 1375.16 555.836
276 0 59.1666 11.3916 674 58.0638 1375.85 555.911
277 0 60.1095 12.2942 739 57.6834 1375.83 554.599
278 0 61.1175 11.846 724 58.2279 1376.24 555.294
279 0 65.0833 12.4456 810 57.4951 1376.35 552.791
280 0 68.1392 13.3697 911 56.2492 1376 552.82
281 0 69.0553 13.2213 913 56.9419 1376.12 550.173
282 0 72.0474 13.4495 969 56.1868 1376.49 549.196
283 0 73.078 12.9588 947 56.5597 1376.33 547.259
284 0 76.0522 13.1226 998 56.8136 1376.85 546.769
285 0 78.0774 13.6147 1063 56.5165 1376.44 544.09
286 0 79.0765 12.646 1000 57.359 1376.43 542.321
287 0 84.1574 12.9044 1086 57.0092 1376.39 542.186
288 0 85.1254 13.6152 1159 56.5194 1377.09 541.348
289 0 89.0544 12.5766 1120 57.4884 1377.2 540.211
290 0 93.1172 13.4239 1250 56.5296 1376.99 537.673
291 0 95.1951 13.2045 1257 56.8735 1378.13 537.751
292 0 98.2144 14.1629 1391 56.0144 1378.25 534.161
293 0 100.108 12.926 1294 57.7403 1378.42 532.968
294 0 105.168 13.0458 1372 57.3025 1378.08 530.178
295 1 54.0273 10.7353 580 57.2086 1378.39 556.076
296 0 55.0579 9.95316 548 58.4544 1378.29 553.029
297 0 59.0244 12.4525 735 56.3007 1378.76 552.186
298 0 61.1363 12.1368 742 56.0795 1379.03 551.947
299 0 61.0535 12.055 736 57.2935 1379.19 551.543
300 0 64.0695 11.7685 754 57.4509 1379.32 550.2
301 0 67.1348 12.0504 809 56.2361 1379.42 547.623
302 0 68.1054 11.4675 781 56.9462 1379.77 546.599
303 0 71.1275 11.7254 834 56.56 1379.61 545.255
304 0 74.1493 11.841 878 56.3337 1378.86 545.178
305 1 37.0202 8.69795 322 56.1149 1377.71 562.935
306 0 40.0231 8.52009 341 55.4135 1377.62 562.519
307 0 42.0683 9.43703 397 55.3678 1377.83 559.924
308 0 43.0569 9.12745 393 55.8855 1377.98 558.226
309 0 46.0265 10.2332 471 54.5096 1377.66 558.004
310 0 46.034 9.14541 421 56.228 1378.61 557.829
311 0 50.0459 10.9699 549 54.1002 1378.87 558.06
312 0 52.0553 12.0449 627 53.2424 1378.51 555.592
313 0 51.1619 10.3788 531 55.4972 1378.81 555.058
314 0 53.1286 11.9521 635 55.0598 1378.47 552.019
315 0 56.0491 11.7397 658 54.4498 1378.35 552.397
316 0 57.1242 10.3284 590 56.522 1378.34 550.773
317 0 57.1492 10.3938 594 56.3232 1378.91 551.717
318 0 58.2499 11.4507 667 55.5847 1378.54 551.645
319 0 60.223 11.2416 677 56.2171 1378.75 550.554
320 0 61.2087 10.4724 641 56.9579 1378.92 550.908
321 0 62.34 11.7421 732 55.765 1378.97 548.116
322 0 65.142 11.9431 778 55.0964 1378.85 549.738
323 0 67.3002 12.526 843 55.325 1378.35 546.028
324 0 67.2243 11.7517 790 56.7949 1378.29 546.341
325 0 69.1664 12.7952 885 55.3356 1377.9 544.232
326 0 70.1506 12.2451 859 56.3597 1377.78 541.501
327 0 72.2819 12.5896 910 55.6549 1378.26 540.887
328 0 72.2004 11.3434 819 57.4786 1377.44 540.132
329 0 77.3736 12.7434 986 55.7789 1377.03 538.723
330 0 77.341 11.7402 908 56.9648 1377.22 536.218
331 0 82.3386 12.2178 1006 55.9344 1377.08 535.101
332 0 85.2339 13.3046 1134 55.1085 1377.26 534.13
333 0 85.4502 11.7612 1005 57.0338 1376.95 532.504
334 0 85.4502 11.7612 1005 157.489 1376.95 532.504
335 1 47.141 10.4156 491 55.831 1376.17 551.509
336 0 50.0701 11.1643 559 54.4562 1375.4 551.902
337 0 50.0485 10.4898 525 55.6076 1375.19 553.392
338 0 53.0511 11.6491 618 54.7751 1375.17 552.767
339 0 56.0733 12.662 710 53.693 1375.16 553.714
340 0 56.0786 11.9297 669 56 1376.03 555.182
341 0 59.1139 12.4167 734 55.6022 1375.7 553.407
342 0 58.0713 11.2276 652 57.2515 1375.63 553.586
343 0 62.1612 12.8859 801 55.3521 1375.34 551.461
344 0 62.2192 12.247 762 55.9541 1375.52 552.682
345 0 66.0849 13.3767 884 54.7692 1375.45 550.59
346 0 65.1259 11.3012 736 57.981 1375.79 549.777
347 0 68.0875 12.7924 871 56.0907 1376.05 547.699
348 0 69.0772 11.9142 823 56.3755 1376.38 548.561
349 0 70.2033 12.1077 850 56.9659 1375.77 546.233
350 0 75.1874 12.1696 915 56.0383 1375.15 546.456
351 1 38.0434 10.1463 386 55.9922 1374.37 564.096
352 0 39.0801 10.0819 394 55.9569 1374.16 563.855
353 0 39.0463 9.93691 388 55.7835 1374.37 562.585
354 0 43.0742 11.5382 497 53.8209 1374.41 561.644
355 0 42.0798 11.2406 473 55.8118 1374.97 561.725
356 0 44.0531 11.6904 515 54.9476 1375.93 560.633
357 0 43.1053 11.3675 490 56.6265 1375.6 560.569
358 0 46.2561 11.7606 544 55.75 1376.2 559.869
359 0 47.2042 11.6939 552 56.4982 1375.92 559.913
360 0 49.2971 11.8263 583 56 1375.93 559.48
361 0 50.0887 12.3381 618 56.4531 1376.07 557.62
362 0 50.095 11.0191 552 58.4946 1375.86 557.371
363 0 52.2306 11.3152 591 58.4552 1376.36 555.594
364 0 56.2874 12.2585 690 56.358 1375.99 554.935
365 0 57.2433 13.2941 761 56.0815 1375.99 553.558
366 0 57.3657 12.1675 698 57.6533 1376.2 554.266
367 0 60.2115 12.5557 756 57.2354 1376.55 553.184
368 0 60.1758 12.1145 729 58.2085 1376.43 552.99
369 0 63.0586 12.8452 810 56.8444 1376.64 548.923
370 0 65.123 12.653 824 57.0765 1377.2 551.512
371 0 68.2592 12.599 860 57.1419 1377.08 549.052
372 0 69.1291 12.9179 893 57.215 1377.26 547.342
373 0 73.2262 13.2876 973 56.3628 1376.34 547.064
374 0 72.1426 13.1406 948 57.1076 1376.42 545.903
375 0 77.3213 13.0494 1009 56.775 1376.52 545.093
376 0 79.1914 11.4533 907 58.8236 1376.63 542.27
377 1 41.0597 10.984 451 57.6319 1377.2 559.636
378 0 44.1611 10.9146 482 57.2697 1378.08 558.523
379 0 46.2616 11.0891 513 56.6004 1377.76 558.893
380 0 48.0782 12.3965 596 54.8591 1378.5 558.191
381 0 47.0737 11.0253 519 57.0308 1378.73 557.38
382 0 48.2035 12.1983 588 55.5323 1378.63 558.041
383 0 52.1248 12.6427 659 53.9499 1378.67 558.369
384 0 52.19 12.1862 636 55.4057 1378.71 556.225
385 0 53.1695 11.8677 631 56.0998 1378.06 554.098
386 0 55.0682 12.5481 691 55.6237 1378.38 553.114
387 0 59.1093 12.3331 729 55.4595 1378.8 552.583
388 0 58.1498 11.8487 689 55.7083 1378.63 552.83
389 0 60.1463 12.8354 772 55.1788 1378.8 549.171
390 0 61.1498 13.1644 805 55.4919 1379.15 548.72
391 0 64.2694 12.7588 820 55.7683 1379.17 548.845
392 0 66.2719 15.1497 1004 53.0478 1378.86 549.758
393 0 68.1967 14.1649 966 54.9017 1378.87 547.583
394 0 69.2249 13.7956 955 55.6471 1379.33 547.039
395 0 76.2005 12.992 990 56.0828 1379.53 546.339
396 0 76.2697 13.5834 1036 56.6033 1379.44 543.38
397 0 77.2814 13.315 1029 57.3916 1379.78 542.217
398 0 81.3971 13.4771 1097 57.783 1379.95 540.208
399 1 46.1234 10.6237 490 59.7184 1379.71 555.959
400 0 47.1533 11.452 540 57.5852 1380 557.576
401 0 48.0476 11.0099 529 59.8563 1379.28 556.739
402 0 49.0449 11.4793 563 60.5613 1379.48 554.563
403 0 53.0346 13.3686 709 57.9803 1380.45 554.578
404 0 53.0396 12.3304 654 60.4801 1381.06 554.336
405 0 54.0465 12.2857 664 60.8705 1381.02 554.479
406 0 55.0398 13.0633 719 60.5716 1380.56 552.312
407 0 58.1165 14.144 822 59.129 1380.89 551.253
408 0 60.1059 13.1601 791 60.2111 1380.5 550.632
409 0 61.0429 12.483 762 61.3937 1380.24 549.584
410 0 63.0264 14.1211 890 59.5371 1380.08 547.769
411 0 65.0468 12.7139 827 61.058 1380.83 548.776
412 0 69.097 14.2843 987 58.926 1380.75 546.508
413 0 69.0772 12.7828 883 61.2458 1380.36 544.698
414 0 72.1264 13.4902 973 60.3731 1380.13 544.054
415 0 72.0929 12.6226 910 62.0055 1379.42 544.329
416 0 75.1946 12.8201 964 62.1089 1379.39 541.027
417 0 78.1166 12.955 1012 61.7777 1379.36 540.961
418 0 81.2032 13.1645 1069 61.2554 1379.53 540.22
419 0 85.1639 12.6462 1077 61.9526 1379.05 537.219
420 0 88.3272 13.5406 1196 60.7099 1378.84 536.622
421 0 89.1848 13.6907 1221 60.9361 1378.36 536.545
422 1 49.169 11.3893 560 61.4 1378.37 556.189
423 0 50.1004 12.1955 611 61 1378.87 554.935
424 0 51.0462 11.7737 601 61.2995 1378.27 555.235
425 0 53.0516 12.5727 667 60.2864 1378.11 553.64
426 0 55.1184 12.5729 693 59.9625 1378.4 553.266
427 0 57.0797 13.5074 771 58.4981 1378.2 553.35
428 0 58.2008 12.9036 751 59.2064 1377.99 551.449
429 0 61.1332 12.8735 787 59.1347 1377.42 549.591
430 0 63.0455 13.2444 835 59.0144 1376.96 550.172
431 0 62.0838 12.612 783 60.539 1377.2 549.875
432 0 66.0983 13.3135 880 59.1125 1376.87 548.318
433 0 67.3193 12.3144 829 60.7382 1376.75 546.996
434 0 69.1937 12.5156 866 60.4827 1376.45 543.763
435 0 73.2666 12.7889 937 59.6499 1376.26 544.178
436 0 74.3733 12.612 938 60.2484 1376.17 542.974
437 0 77.1584 13.1548 1015 59.4217 1376.8 543.034
438 0 80.1756 13.1711 1056 59.7472 1376.9 541.703
439 0 81.2484 12.431 1010 60.8941 1376.52 540.988
440 0 85.2588 13.5939 1159 59.289 1376.56 538.922
441 1 45.1501 10.8527 490 60.649 1376.34 558.157
442 0 49.0621 10.4561 513 59.2476 1376.87 557.649
443 0 49.0879 11.2655 553 58.6546 1376.54 556.168
444 0 52.2377 11.0074 575 58.5061 1376.78 557.05
445 0 53.0778 10.5882 562 59.5 1377.2 555.786
446 0 55.0595 12.096 666 57.7553 1377.25 554.974
447 0 55.0573 11.8422 652 58.4294 1376.77 554.419
448 0 57.0169 12.6629 722 57.392 1376.67 552.814
449 0 60.0351 11.7098 703 57.9886 1376.61 553.565
450 0 63.1016 13.1851 832 56.5901 1376.48 552.722
451 0 61.144 13.0185 796 57.3405 1376.05 549.496
452 0 65.1809 12.8412 837 56.73 1375.87 549.876
453 0 67.0995 12.4889 838 57.0835 1375.44 550.4
454 0 68.066 12.8699 876 56.6153 1375.34 549.513
455 0 69.1796 13.1975 913 56.1238 1375.41 549.211
456 0 71.1278 13.0469 928 57.0485 1375.51 544.587
457 0 76.1402 13.2256 1007 55.4459 1375.68 544.961
458 0 76.1458 11.8326 901 57.2852 1375.51 543.878
459 0 81.0672 12.6685 1027 55.9503 1376.62 541.845
460 0 84.2358 12.8568 1083 55.4681 1376.46 542.116
461 0 85.1365 12.7207 1083 56.2013 1376.25 540.006
462 1 45.1581 9.41137 425 56.08 1376.39 559.586
463 0 50.0928 11.339 568 53.7183 1376.35 560.401
464 0 51.1626 11.1214 569 53.8858 1376.76 559.214
465 0 53.3451 12.2411 653 53.2374 1376.86 557.444
466 0 52.0817 10.4643 545 55.4055 1376.36 555.431
467 0 55.113 11.7758 649 53.8505 1375.75 557.02
468 0 58.1111 11.4264 664 54.25 1375.48 556.12
469 0 59.2226 11.6341 689 54.016 1375.35 555.959
470 0 61.15 11.8397 724 54.3356 1375.41 555.722
471 0 62.0771 12.0818 750 54.604 1375.68 554.276
472 0 63.1979 12.184 770 54.526 1375.78 554.044
473 0 63.0736 12.8738 812 54.798 1376.49 551.489
474 0 67.1176 12.3366 828 54.5688 1375.83 551.837
475 0 69.0726 12.2769 848 55.1462 1375.46 550.223
476 0 69.1388 12.2363 846 55.5626 1375.47 548.319
477 0 72.0516 11.9914 864 55.184 1375.62 550.966
478 0 74.0866 11.5675 857 55.3594 1375.56 550.394
479 0 74.0835 12.2025 904 56.0398 1375.75 545.938
480 0 79.0844 11.924 943 56.2884 1375.76 545.988
481 0 79.0844 11.9113 942 155.487 1375.74 545.945
482 0 83.0568 12.064 1002 56.9012 1376.27 543.8
483 0 88.1333 11.8003 1040 57.2365 1376.2 540.754
484 0 92.1514 13.6623 1259 55.4162 1376.71 539.376
485 1 48.0748 9.56842 460 57.3457 1377.65 558.815
486 0 52.0532 9.7016 505 57.4119 1377.99 560.139
487 0 55.0804 11.4741 632 55.8244 1378.08 559.399
488 0 55.0973 9.76453 538 58.645 1377.51 558.734
489 0 57.1077 10.594 605 58.0198 1377.58 558.388
490 0 59.1527 12.51 740 56.5851 1377.67 555.262
491 0 61.0353 12.845 784 55.0689 1376.99 556.42
492 0 62.1678 12.1767 757 57.1321 1377.01 554.273
493 0 62.2512 12.305 766 56.0888 1376.21 554.157
494 0 63.2256 11.4511 724 57.4793 1376.33 554.068
495 0 65.3744 12.6961 830 56.1024 1376.6 551.511
496 0 69.324 11.4679 795 56.8541 1376.24 551.028
497 0 71.2539 13.0659 931 55.7164 1376.7 548.547
498 0 74.3643 12.6808 943 55.9258 1376.94 549.152
499 0 74.2151 12.2078 906 57.7483 1377.09 545.608
500 0 77.3127 12.042 931 57.6702 1376.79 545.115
501 0 79.4589 12.1824 968 57.689 1377.04 542.884
502 0 82.2657 11.548 950 58.2947 1376.72 543.879
503 0 84.1784 11.2856 950 58.9421 1376.55 540.416
504 1 48.1178 10.0794 485 56.5835 1375.58 560.033
505 0 48.0512 9.55231 459 57.1024 1375.08 560.383
506 0 49.1421 10.5002 516 57.1725 1375.02 559.163
507 0 51.2232 11.1863 573 57.3438 1375.17 558.194
508 0 51.167 11.4136 584 58.0993 1376.16 556.276
509 0 54.2626 11.7945 640 57.8109 1376.05 555.302
510 0 54.2242 11.5447 626 58.8147 1375.73 555.621
511 0 56.2703 11.6758 657 58.5479 1375.91 553.77
512 0 58.4219 11.2458 657 58.1796 1375.67 554.19
513 0 60.198 12.1433 731 56.7346 1375.79 553.194
514 0 60.2977 11.012 664 58.4428 1375.91 552.224
515 0 60.2233 10.7268 646 59.5759 1375.97 550.672
516 0 65.2386 13.0444 851 56.3807 1375.42 551.662
517 0 67.1902 12.8292 862 55.7738 1376.1 549.927
518 0 67.3238 12.1205 816 57.0956 1376.08 547.262
519 0 70.4072 12.3425 869 56.6479 1375.8 546.769
520 0 73.3762 12.2383 898 56.5612 1376.32 545.472
521 1 33.2311 8.75685 291 56.9244 1376.19 566.735
522 0 34.1288 9.58136 327 56.9083 1376.61 565.067
523 0 37.307 10.5342 393 55.7913 1376.76 565.064
524 0 37.1762 10.0333 373 57.4933 1377.16 563.062
525 0 38.0992 9.34403 356 57.618 1376.47 564.492
526 0 39.0725 11.2355 439 56.2688 1376.46 563.781
527 0 41.1839 11.8007 486 57.2716 1378.06 562.726
528 0 42.0861 11.025 464 57.1185 1377 562.95
529 0 45.1487 11.8719 536 56.3451 1376.97 561.729
530 0 42.2134 11.5129 486 58.5679 1376.78 561.743
531 0 45.374 11.2619 511 58.4129 1377.06 560.73
532 0 47.0995 11.9322 562 57.9413 1377.36 558.835
533 0 47.1902 12.6297 596 58.099 1377.31 558.215
534 0 49.1123 12.7463 626 58.1933 1377.73 557.677
535 0 49.1123 12.8277 630 152.897 1378.73 557.656
536 0 51.3276 12.5663 645 58.7132 1378.16 556.49
537 0 55.1627 13.0886 722 57.2452 1377.82 554.816
538 0 56.1685 12.7652 717 58.0209 1377.62 555.05
539 0 56.1453 12.717 714 59.388 1377.37 552.888
540 0 57.1042 12.6786 724 59.7818 1376.77 552.562
541 0 59.1641 12.5921 745 59.7517 1377.02 550.632
542 0 60.2088 13.3203 802 58.8703 1376.68 552.059
543 0 64.3387 13.7553 885 57.7605 1377.2 551.75
544 0 64.4003 13.1676 848 59.158 1376.45 551.598
545 0 65.3145 12.6618 827 60.7461 1376.42 548.871
546 0 67.3726 12.75 859 60.3108 1376.69 547.673
547 0 73.5331 13.1505 967 58.9431 1376.41 546.714
548 0 74.4068 13.0768 973 59.4707 1376.17 545.752
549 0 76.4127 13.7935 1054 58.6765 1376.33 545.847
550 1 41.3462 10.2307 423 59.773 1376.25 562.903
551 0 43.2898 11.1805 484 58.5207 1375.97 562.384
552 0 44.3637 11.7438 521 58.6276 1375.91 560.031
553 0 47.3528 11.9528 566 58.4152 1375.96 560.159
554 0 47.2176 12.1353 573 58.7243 1375.72 560.428
555 0 51.1437 12.1423 621 58.5797 1375.67 558.728
556 0 51.0909 12.4092 634 59.8375 1375.56 558.781
557 0 52.0748 12.7509 664 59.5151 1375.71 557.598
558 0 53.1216 12.349 656 60.4238 1375.21 555.64
559 0 55.124 13.2066 728 58.6786 1375.29 556.633
560 0 56.1147 12.5636 705 60.8965 1375.68 554.191
561 0 56.1447 12.0047 674 62.0682 1375.44 554.561
562 0 59.0744 14.0332 829 59.2847 1375.23 552.986
563 0 59.0724 12.9333 764 61.3233 1375.2 552.776
564 0 61.0389 13.0409 796 61.3254 1375.43 551.848
565 0 62.0573 11.9245 740 62.7608 1375.16 552.576
566 0 65.1494 13.2772 865 60.9202 1375.51 551.35
567 0 67.1447 13.7017 920 60.8239 1375.52 549.496
568 0 69.0674 13.5954 939 61.6038 1375.7 549.034
569 0 73.204 13.6058 996 61.4167 1375.68 547.399
570 0 74.1885 13.3579 991 62.0283 1375.38 547.354
571 0 77.0769 13.519 1042 61.8512 1375.43 545.443
572 0 79.2418 13.5282 1072 61.9151 1375.3 544.082
573 1 38.0453 10.8818 414 63.1449 1375.1 563.191
574 0 40.0507 10.7614 431 63.5012 1374.73 562.211
575 0 42.086 10.2172 430 63.6093 1374.53 562.479
576 0 44.1174 11.7414 518 62.4421 1374.65 561.388
577 0 45.3437 10.5858 480 64.075 1374.31 560.19
578 0 48.1223 12.8215 617 61.4408 1373.64 559.34
579 0 50.0659 12.9629 649 61.3359 1373.29 557.599
580 0 51.1456 12.3764 633 62.4897 1373.44 557.81
581 0 54.066 13.65 738 60.0962 1373.07 556.816
582 0 54.0572 12.8937 697 61.2023 1373.15 556.91
583 0 56.0659 13.502 757 59.9736 1373.45 556.071
584 0 59.0539 13.5639 801 59.2971 1373.35 554.376
585 0 61.1061 13.3211 814 59.5135 1373.4 553.886
586 0 63.0601 12.5595 792 59.9811 1373.17 553.891
587 0 63.0988 12.3457 779 60.3569 1373.31 553.935
588 0 66.1455 13.3645 884 59.0781 1373.01 552.048
589 0 69.0857 13.6931 946 58.3266 1373.33 551.588
590 0 71.0571 14.1858 1008 57.7341 1372.94 548.346
591 0 74.0731 12.8522 952 59.1376 1373.21 549.076
592 0 76.1129 13.296 1012 58.8251 1372.69 547.651
593 0 80.1552 14.3347 1149 57.4804 1373.36 546.399
594 0 80.1552 14.3846 1153 157.16 1373.37 546.37
595 0 84.1707 13.2113 1112 57.5962 1373.98 542.494
596 0 87.0771 12.7933 1114 57.7253 1373.43 541.646
597 1 48.0642 12.3169 592 57.1537 1373.86 559.981
598 0 51.0198 11.8581 605 56.8645 1373.92 558.304
599 0 51.0567 12.6134 644 56.2391 1373.72 556.817
600 0 54.1548 12.9998 704 55.3636 1373.22 556.072
601 0 55.1017 12.7401 702 55.3946 1373.17 554.148
602 0 57.0875 12.5772 718 55.1476 1372.94 555.008
603 0 59.0868 12.8455 759 54.8116 1373.06 554.708
604 0 61.2483 12.8004 784 54.8023 1373.03 553.273
605 0 62.0921 12.2721 762 54.8373 1373.36 554.348
606 0 65.1099 12.3637 805 54.2062 1373.33 551.711
607 0 69.0882 13.6637 944 52.0011 1373.35 549.305
608 0 72.0817 12.9853 936 52.4818 1373.08 548.84
609 0 72.0993 12.6215 910 53.8978 1372.68 550.355
610 1 40.0771 10.3051 413 54.0799 1372.75 564.847
611 0 41.0094 10.3147 423 53.7352 1372.98 564.704
612 0 43.0488 11.0572 476 55.105 1373.07 562.492
613 0 42.0468 10.5359 443 55.4199 1373.27 562.806
614 0 45.0279 10.9488 493 55.1805 1373.19 561.968
615 0 46.0371 11.9903 552 53.4692 1373.46 562.065
616 0 47.074 12.6397 595 54.684 1373.77 560.736
617 0 50.1947 11.555 580 57.2948 1373.6 559.797
618 0 50.2747 12.1333 610 56.4639 1373.9 559.377
619 0 52.2426 12.5185 654 55.0015 1373.85 558.824
620 0 54.0812 12.7216 688 54.4302 1373.72 557.741
621 0 55.2603 12.3416 682 55.6188 1374.22 556.006
622 0 55.1452 12.6575 698 55.7507 1374.08 556.784
623 0 59.0652 12.6809 749 55.3031 1374.07 555.347
624 0 59.0548 12.7509 753 56.3811 1372.99 554.834
625 0 60.0502 12.7393 765 56.9647 1373.38 553.625
626 0 60.0792 12.65 760 57.7 1373.46 552.976
627 0 65.0804 13.2759 864 56.6238 1373.88 552.429
628 0 64.0614 12.847 823 57.9235 1373.85 552.177
629 0 68.0807 13.3371 908 58.1432 1373.89 550.104
630 0 69.1142 12.4576 861 58.4077 1373.37 550.412
631 0 72.1166 13.6723 986 56.5264 1373.77 550.481
632 0 74.1243 13.3829 992 57.0151 1373.85 549.042
633 0 75.1299 13.7894 1036 56.9431 1373.96 547.478
634 0 79.1335 13.9258 1102 56.49 1374.18 545.905
635 0 80.1181 13.3553 1070 57.2131 1374.77 544.366
636 0 84.2456 13.0096 1096 57.4881 1374.47 543.232
637 0 87.1826 13.3972 1168 57.2817 1374.47 539.749
638 0 89.1408 13.6974 1221 56.6503 1374.18 539.314
639 0 92.0928 13.0846 1205 56.9237 1374.31 537.986
640 1 51.0387 10.3059 526 54.3384 1374.15 561.867
641 0 53.068 12.0412 639 54.4742 1375.31 557.64
642 0 51.0327 10.8362 553 56.0108 1375.31 558.718
643 0 55.0712 12.9287 712 54.1348 1375.03 555.902
644 0 57.0366 12.4832 712 54.6208 1375.13 554.51
645 0 58.1079 12.5456 729 54.8066 1375.25 556.695
646 0 59.0808 12.8976 762 54.626 1375.3 553.949
647 0 61.0769 13.3275 814 53.6204 1375.59 552.935
648 0 64.0795 12.3909 794 54.6688 1375.83 551.582
649 0 66.0641 11.8521 783 55.5045 1375.96 548.499
650 0 68.0407 12.6689 862 54.5963 1375.56 548.139
651 0 69.1618 13.013 900 54.0056 1375.74 545.69
652 0 72.1374 12.4485 898 54.8307 1375.84 545.298
653 0 75.1652 13.038 980 54.3296 1376.24 544.598
654 0 77.1757 12.7112 981 54.8573 1376.32 543.787
655 0 80.1177 12.2195 979 54.665 1376.63 543.693
656 0 83.231 13.3484 1111 54.1854 1376.45 540.123
657 0 86.1203 12.2039 1051 55.0704 1376.6 540.314
658 0 85.1759 12.5622 1070 54.6505 1376.71 539.653
659 1 48.2451 10.1979 492 54.5407 1377.21 556.567
660 0 51.1305 10.835 554 53.87 1376.96 556.173
661 0 51.0696 11.9641 611 53.1997 1376.98 555.08
662 0 52.3482 10.7358 562 54.3167 1377.08 554.783
663 0 55.0914 12.2161 673 52.7415 1377.78 553.716
664 0 58.1245 12.4732 725 52.1103 1377.98 554.221
665 0 59.1708 13.9765 827 51.0496 1378.13 550.867
666 0 61.1138 12.8776 787 51.554 1377.78 551.687
667 0 63.1085 12.122 765 52.2523 1378.4 549.383
668 0 65.2071 11.3945 743 52.9771 1378.07 549.428
669 0 66.1009 12.6776 838 52.1122 1378.17 547.891
670 0 68.1855 12.2607 836 53.3074 1377.92 544.744
671 0 71.0649 11.975 851 53.1704 1378.29 544.965
672 0 72.1211 12.7702 921 52.4321 1377.67 544.975
673 0 75.2635 12.4895 940 53.3596 1377.25 541.733
674 0 76.1473 12.0556 918 54.0458 1377.32 541.675
675 0 79.2694 12.9432 1026 53.4698 1377.42 537.84
676 0 82.2241 13.4875 1109 52.9657 1377.81 537.46
677 0 85.2895 12.3579 1054 53.8529 1378.02 538.804
678 0 89.4018 13.2995 1189 52.9041 1377.98 536.274
679 1 45.1051 8.91252 402 54.0672 1378.31 557.744
680 0 48.0473 11.3846 547 52.9397 1379.15 555.104
681 0 50.0914 11.5189 577 52.9307 1379.17 554.624
682 0 51.1457 11.3988 583 53.0257 1378.72 553.734
683 0 52.0551 11.5262 600 53.0117 1379.62 554.147
684 0 55.3148 11.769 651 53.0338 1379.09 552.273
685 0 55.3163 12.3652 684 53.0453 1379.52 550.073
686 0 55.3163 12.3652 684 148.405 1379.52 550.041
687 0 60.3379 13.441 811 51.979 1379.34 547.104
688 0 62.3961 13.5105 843 51.9585 1378.86 548.363
689 0 62.2737 12.6056 785 53.6293 1378.96 546.075
690 0 65.5274 12.1018 793 54.0555 1379.15 544.178
691 0 68.3448 12.0126 821 53.7734 1379.13 545.78
692 0 69.1817 12.9225 894 53.0459 1378.85 544.031
693 0 70.2254 13.2431 930 53.4215 1379.29 543.875
694 0 73.2201 13.0292 954 53.3836 1378.91 542.991
695 0 74.3156 13.8464 1029 53.413 1378.57 539.422
696 0 77.3512 13.2254 1023 54.0684 1378.82 539.194
697 0 79.3359 12.4282 986 54.8519 1378.65 538.253
698 0 82.4581 13.0005 1072 54.4888 1378.42 538.883
699 0 84.4172 12.4856 1054 55.4431 1378.29 536.374
700 0 86.3404 12.4855 1078 55.4434 1378.26 535.011
701 0 88.3496 12.3487 1091 55.5866 1377.15 535.256
702 0 92.4179 13.3632 1235 55.1182 1376.93 530.372
703 0 95.2829 12.741 1214 55.9802 1376.61 528.602
704 0 95.2829 12.741 1214 151.584 1376.61 528.602
705 0 99.3395 12.5126 1243 56.9429 1376.89 525.377
706 0 104.441 12.0259 1256 56.7691 1376.9 522.738
707 0 108.471 13.1187 1423 56.0211 1376.89 523.374
708 1 60.2415 12.4831 752 54.2434 1376.15 547.717
709 0 60.2024 11.3949 686 55.9038 1375.91 546.057
710 0 62.1029 11.6903 726 56.2893 1376.5 549.572
711 0 66.0704 12.517 827 55.711 1376.94 546.357
712 0 70.1429 12.8024 898 55.2149 1377.28 546.13
713 0 71.0227 12.3059 874 56.0458 1377.21 544.267
714 0 73.0675 13.2891 971 54.9289 1377.61 544.033
715 0 77.0448 13.3169 1026 54.8489 1377.44 543.376
716 0 78.0485 13.2994 1038 55.3709 1377.53 543.453
717 0 79.1365 12.6743 1003 56.5464 1377.51 540.073
718 0 82.157 12.8169 1053 56.1719 1377.25 539.427
719 0 85.1314 12.5923 1072 56.5299 1377.39 539.799
720 0 89.1406 13.9555 1244 54.8971 1376.96 536.87
721 0 92.2761 13.2645 1224 55.7516 1376.39 535.774
722 0 96.2635 13.5046 1300 55.3346 1376.66 534.627
723 0 98.2865 13.3182 1309 55.5309 1376.17 535.21
724 0 102.457 14.6207 1498 54.4493 1376.09 531.219
725 0 104.552 12.2523 1281 57.7299 1375.03 530.31
726 0 105.428 12.3971 1307 57.5195 1374.91 527.252
727 0 112.475 13.5053 1519 55.7228 1374.88 526.053
728 1 61.2173 11.402 698 54.9699 1374.66 553.638
729 0 63.1385 11.5144 727 54.6809 1374.55 552.055
730 0 65.0352 11.5168 749 54.9893 1375.21 549.967
731 0 68.062 12.327 839 53.6043 1374.35 551.585
732 0 68.0982 12.5701 856 54.1811 1374.43 547.965
733 0 70.1018 12.7101 891 54.2031 1374.47 547.901
734 0 72.0653 12.114 873 54.8729 1374.55 546.646
735 0 76.0834 12.5914 958 54.5908 1374.67 545.093
736 0 78.1205 12.7367 995 54.6553 1374.88 543.342
737 0 77.1464 11.6272 897 56.5351 1374.75 542.595
738 0 81.2096 12.5108 1016 55.4557 1374.44 542.686
739 0 82.1362 12.1871 1001 56.2927 1374.6 540.741
740 0 86.3011 12.3058 1062 55.9256 1374.06 540.438
741 0 89.4497 11.9509 1069 57.0327 1373.42 539.659
742 0 92.3463 11.955 1104 57.25 1373.8 536.605
743 1 49.1043 10.0195 492 58.3232 1372.89 557.075
744 0 50.0857 9.94295 498 58.3193 1372.71 558.492
745 0 55.1728 11.0924 612 57.5931 1372.8 555.206
746 0 55.0277 10.3402 569 57.3796 1373.52 555.763
747 0 58.1675 11.6044 675 56.6815 1373.73 554.292
748 0 58.1727 12.1363 706 55.136 1373.68 552.933
749 0 59.1869 11.81 699 55.4821 1373.19 555.136
750 0 60.0882 12.7646 767 54.678 1373.19 554.669
751 0 61.0855 11.7868 720 56.0528 1372.79 552.462
752 0 65.0771 12.0473 784 55.2092 1372.5 552.608
753 0 68.1866 12.2165 833 55.7611 1372.85 551.246
754 0 68.0842 12.6167 859 56.1502 1372.6 549.469
755 0 72.1945 13.1866 952 55.3803 1374.04 548.818
756 0 72.0815 12.4304 896 57.0301 1373.5 547.669
757 0 76.1127 12.9282 984 55.7754 1373.92 548.597
758 0 78.1364 13.1821 1030 55.9447 1373.78 546.711
759 0 78.1331 12.7987 1000 56.623 1373.9 543.861
760 0 83.1705 12.8651 1070 55.8636 1373.62 543.685
761 1 44.0438 10.9664 483 56.4472 1373.05 564.472
762 0 44.0329 10.7647 474 57.5886 1371.86 562.639
763 0 48.0705 11.5663 556 56.509 1372.19 561.948
764 0 49.0737 12.3488 606 55.8449 1372.15 561.921
765 0 49.0933 11.5698 568 57.5458 1373.04 560.1
766 0 54.0564 11.34 613 56.9886 1373.38 559.318
767 0 53.0575 11.9493 634 57.3707 1372.7 560.677
768 0 54.1587 12.7588 691 56.4602 1372.33 559.466
769 0 56.0533 12.7379 714 56.8585 1372.89 558.756
770 0 58.11 12.1322 705 57.5163 1372.75 557.748
771 0 61.1073 12.9281 790 56.7734 1372.75 556.062
772 0 61.1004 12.5531 767 57.7432 1372.68 555.179
773 0 64.0647 12.581 806 57.4814 1371.7 554.932
774 0 66.0789 12.6818 838 57.4893 1372.55 553.605
775 0 67.0823 12.7903 858 57.7727 1372.74 554.834
776 0 68.1733 12.9376 882 57.7029 1372.47 553.796
777 0 70.0733 13.4003 939 58.0053 1373.4 550.579
778 0 70.0752 12.5437 879 59.5575 1372.61 550.799
779 0 73.27 13.0067 953 58.7681 1372.8 549.861
780 0 76.0993 13.7978 1050 57.8286 1373 548.745
781 0 80.1626 13.0984 1050 58.5648 1372.12 546.602
782 0 82.1079 13.6406 1120 57.442 1372.6 544.555
783 0 83.1956 12.9214 1075 58.7321 1373.14 543.121
784 0 85.205 12.4875 1064 60.0714 1373.28 541.35
785 1 46.0306 10.7755 496 60.0544 1373.17 562.702
786 0 47.0542 10.8386 510 59.098 1373.53 561.839
787 0 50.1146 11.6134 582 57.5069 1375.41 559.686
788 0 51.0862 12.0581 616 57.6753 1375.21 557.369
789 0 51.1218 12.1083 619 56.7625 1374.84 555.488
790 0 52.1386 12.5243 653 57.1118 1375.98 557.674
791 0 53.0359 11.8599 629 58.3482 1375.8 556.213
792 0 55.0503 11.7347 646 58.4489 1375.86 556.488
793 0 58.0759 12.4492 723 57.361 1375.11 554.873
794 0 61.0707 12.2317 747 56.909 1375.85 553.932
795 0 62.201 12.7329 792 57.3005 1375.54 552.896
796 0 63.1017 13.4386 848 56.77 1375.45 550.731
797 0 65.1388 12.5731 819 57.5934 1374.03 550.623
798 0 66.2376 12.6363 837 58.0024 1374.85 546.964
799 0 69.2717 12.2994 852 57.1667 1374.95 546.999
800 0 72.3131 12.4459 900 58.35 1375.36 546.787
801 0 71.213 12.6943 904 58.9723 1375 545.791
802 0 76.2413 13.4573 1026 57.0692 1375.94 544.958
803 0 79.1071 13.5639 1073 57.1445 1375.79 543.245
804 0 81.2334 12.6795 1030 57.7 1375.61 542.425
805 0 83.2596 12.3709 1030 57.6981 1375.65 541.974
806 0 87.1611 12.54 1093 57.6404 1375.97 539.296
807 0 89.3718 13.3375 1192 56.1174 1375.97 538.282
808 0 95.3055 11.4474 1091 57.7828 1376.01 536.885
809 0 95.3701 13.0439 1244 56.4992 1375.98 533.68
810 0 98.3973 12.7442 1254 56.8485 1376.65 532.961
811 0 102.328 13.7792 1410 55.5071 1376.72 532.865
812 0 102.411 12.1471 1244 57.5691 1376.66 531.613
813 1 54.2486 11.4657 622 56.3778 1377.47 555.232
814 0 54.1769 10.4657 567 57.7496 1377.67 554.878
815 0 57.3132 11.917 683 56.0615 1378.8 552.258
816 0 59.1698 11.4248 676 56.9038 1377.68 545.987
817 0 62.1812 12.2545 762 56.1444 1377.71 545.864
818 0 64.174 12.7622 819 55.475 1377.73 545.757
819 0 64.186 12.6196 810 56.821 1377.51 544.153
820 0 68.171 13.0994 893 55.7469 1377.86 544.253
821 0 72.0926 13.3994 966 55.0352 1377.93 543.807
822 0 72.176 13.4117 968 55.6116 1377.9 543.207
823 0 75.0899 13.0111 977 55.7001 1376.65 542.951
824 0 77.1189 12.6558 976 55.0348 1376.97 544.612
825 0 79.2085 13.0415 1033 55.2469 1376.78 540.827
826 0 84.1597 12.5832 1059 55.1549 1377.08 540.283
827 0 84.144 11.9082 1002 55.9691 1376.65 539.412
828 0 89.2085 13.4516 1200 54.7275 1377.73 537.043
829 0 89.2187 13.069 1166 55.6218 1377.89 535.779
830 0 91.322 12.7352 1163 56.546 1378.25 535.601
831 0 97.2187 13.1353 1277 56.1065 1377.64 531.846
832 0 99.2762 13.3063 1321 55.7684 1378.07 532.559
833 0 100.328 13.1968 1324 56.6926 1377.68 530.355
834 1 52.0613 11.9859 624 56.8365 1377.48 555.466
835 0 55.2011 12.8802 711 56.4332 1377.66 554.958
836 0 56.1897 13.1341 738 55.7791 1377.23 553.894
837 0 57.2634 11.6305 666 57.6607 1376.16 554.087
838 0 60.3347 13.8726 837 55.5173 1376.78 553.644
839 0 63.3921 14.0238 889 55.685 1375.97 552.034
840 0 62.3182 12.9978 810 57.7543 1376.05 550.263
841 0 66.3069 13.8749 920 56.2696 1376.11 550.191
842 0 67.0251 13.2786 890 58.4764 1375.48 550.996
843 0 70.1037 13.694 960 58.1656 1376.33 549.196
844 0 71.1236 12.9212 919 59.0936 1376.76 549.205
845 0 73.1804 13.8288 1012 59.0909 1376.35 546.04
846 0 77.1922 14.2501 1100 57.9855 1376.39 546.395
847 0 78.3622 12.7357 998 60.0371 1376.02 544.347
848 0 81.3356 13.7578 1119 59.4701 1375.67 545.305
849 0 84.2563 14.444 1217 58.802 1375.82 542.494
850 0 87.4128 14.666 1282 58.5998 1375.26 541.27
851 0 88.2164 12.8774 1136 61.4894 1375.1 540.174
852 1 47.1055 10.6357 501 60.0539 1374.33 561.164
853 0 49.0917 12.1202 595 59.0353 1373.89 559.45
854 0 50.119 12.2309 613 59.77 1374.41 556.883
855 0 50.0377 12.3707 619 59.0582 1374.53 559.651
856 0 53.0872 12.4135 659 58.0182 1374.75 558.624
857 0 52.1113 13.2793 692 59.078 1376.25 557.092
858 0 55.2103 12.7875 706 58.3017 1376.35 559.472
859 0 57.1235 12.5343 716 58.5475 1375.81 556.201
860 0 57.192 12.729 728 59.1264 1375.04 554.452
861 0 59.1227 13.7511 813 58.1119 1375.05 554.94
862 0 62.0758 13.4835 837 57.9952 1374.72 553.832
863 0 62.0656 13.2118 820 59.4122 1374.2 550.479
864 0 65.0788 13.7679 896 58.3839 1374.32 551.078
865 0 67.114 13.3951 899 58.8899 1374.22 551.236
866 0 67.072 12.9264 867 60.4879 1374.08 550.381
867 0 72.1451 13.7085 989 59.0859 1374.62 549.565
868 0 73.121 14.0179 1025 59.6244 1373.84 548.775
869 0 74.1107 13.1695 976 61.9068 1373.97 548.686
870 0 78.1834 14.1718 1108 60.7292 1373.8 545.64
871 0 81.0619 14.3101 1160 60.4724 1373.56 545.276
872 0 84.401 14.2297 1201 60.5021 1373.51 544.167
873 0 86.2514 14.1911 1224 61.3154 1373.45 541.689
874 1 44.0799 12.0009 529 62.276 1373.76 563.637
875 0 43.2564 12.4375 538 63.1487 1373.47 561.584
876 0 45.1321 12.2529 553 63.6022 1373.14 562.403
877 0 47.0724 13.5536 638 61.6238 1373.29 562.199
878 0 49.1405 13.146 646 62.7399 1373.91 559.455
879 0 51.157 13.6247 697 61.8838 1374.45 560.019
880 0 50.2989 13.7379 691 62.9768 1374.07 559.239
881 0 53.2093 14.1517 753 61.4967 1373.71 560.162
882 0 55.3398 14.2212 787 61.0623 1373.58 558.424
883 0 57.3687 13.6834 785 62.693 1373.9 556.939
884 0 57.6943 14.2302 821 62.0914 1373.87 556.47
885 0 59.4802 14.3913 856 61.9708 1374.14 554.113
886 0 61.2349 13.734 841 62.8169 1374.31 555.573
887 0 65.4144 14.6757 960 60.5021 1374.97 554.058
888 0 66.2379 13.4364 890 62.1191 1374.98 553.208
889 0 69.3662 13.2485 919 61.9282 1375.04 550.886
890 0 72.4214 13.96 1011 60.9377 1375.45 551.188
891 0 73.3383 14.5763 1069 60.5706 1375.13 548.761
892 0 76.3057 14.0225 1070 61.1748 1375.39 546.927
893 0 80.2187 14.5103 1164 61.7766 1375.65 545.679
894 0 84.2727 14.4531 1218 69.1527 1375.87 545.394
895 0 85.431 14.5263 1241 59.2353 1376.12 543.144
896 0 85.2062 14.0717 1199 60.2452 1376.12 542.256
897 0 88.339 13.2105 1167 61.533 1376.59 538.877
898 0 92.3265 13.6472 1260 60.7929 1376.17 538.756
899 0 95.4442 14.6264 1396 59.5129 1376.81 537.4
900 0 98.1831 13.3424 1310 61.0107 1377.36 534.018
901 0 104.324 14.7329 1537 58.7606 1377.17 531.26
902 0 107.411 15.2405 1637 58.73 1377.5 527.032
903 1 56.6915 12.0653 684 61.6594 1378.28 552.887
904 0 57.5728 13.0791 753 61.8234 1378.34 550.838
905 0 58.5701 13.0101 762 61.8346 1378.18 550.982
906 0 61.205 13.512 827 61.8634 1378.46 548.711
907 0 64.5115 13.548 874 61.3192 1378.21 548.652
908 0 66.3585 13.638 905 61.7967 1378.43 547.752
909 0 69.3147 14.023 972 61.4126 1378.22 546.533
910 0 71.2827 13.3693 953 62.9171 1378.37 546.028
911 0 74.4561 14.5186 1081 61.198 1378.1 544.868
912 0 77.4385 13.9336 1079 62.8971 1378.46 542.764
913 0 79.3522 14.3285 1137 62.9842 1379.1 541.304
914 0 81.2059 14.5433 1181 63.0584 1379.04 541.15
915 0 84.4107 15.3298 1294 61.6399 1379.35 539.392
916 0 86.1495 14.8463 1279 63.502 1378.97 537.022
917 0 88.3455 14.0924 1245 64.8016 1379.56 537.172
918 0 92.3526 13.8816 1282 65.0468 1379.31 535.682
919 0 95.3669 14.9318 1424 63.927 1378.98 534.298
920 1 48.1896 12.3886 597 66.9966 1379.75 555.275
921 0 50.1821 12.1757 611 67.3061 1380.12 555.714
922 0 52.1982 12.5483 655 67.5435 1379.93 554.424
923 0 54.145 13.2238 716 66.7584 1380.24 553.788
924 0 57.1508 12.5807 719 67.9513 1380.24 551.228
925 0 57.1069 13.8162 789 66.6198 1379.91 551.125
926 0 61.3276 13.7459 843 65.6762 1380.2 549.887
927 0 63.2251 13.966 883 65.5912 1380.07 549.319
928 0 65.087 14.5497 947 65.0021 1380.49 548.016
929 0 67.1606 13.8176 928 65.542 1379.77 547.682
930 0 69.1889 13.7739 953 65.6296 1380.61 546.788
931 0 71.1635 12.661 901 68.2353 1379.95 545.541
932 0 73.156 14.1478 1035 66.37 1379.87 544.173
933 0 75.1238 13.5643 1019 66.7812 1380.17 542.821
934 0 79.1728 14.02 1110 65.9027 1379.8 541.151
935 0 82.2023 13.6736 1124 66.331 1379.75 537.851
936 0 88.0954 14.2119 1252 64.5248 1379.44 538.396
937 0 90.1011 13.8844 1251 65.3997 1379.3 537.297
938 0 91.1667 12.9982 1185 67.2582 1379.34 535.216
939 0 95.365 13.5794 1295 66.2942 1379.2 533.458
940 0 98.3163 13.4871 1326 66.2881 1379.19 532.205
941 1 53.1223 10.7488 571 65.8144 1378.72 555.14
942 0 56.0682 11.8071 662 64.4909 1378.79 552.279
943 0 59.0647 11.6313 687 63.5371 1378.7 552.224
944 0 60.0691 11.7864 708 63.2825 1377.55 552.102
945 0 62.0814 12.1453 754 63.2546 1377.07 550.801
946 0 64.0503 11.4754 735 63.6653 1377.2 550.91
947 0 67.1901 12.2637 824 62.6529 1377.31 548.919
948 0 69.1547 12.3925 857 62.2637 1376.97 548.809
949 0 71.1158 11.4461 814 62.9558 1376.73 548.158
950 0 75.2587 11.507 866 62.2794 1376.69 546.688
951 0 77.2437 11.9104 920 61.6359 1376.55 543.337
952 0 78.1968 11.6885 914 62.5908 1376.13 542.946
953 0 81.2294 12.04 978 62.6963 1376.18 540.085
954 1 43.1421 10.7783 465 60.8129 1376.77 561.77
955 0 45.2425 10.0127 453 62.2539 1376.72 559.267
956 0 45.1338 10.2584 463 61.4471 1376.78 560.834
957 0 48.1097 11.0165 530 60.683 1377.02 557.764
958 0 48.0708 11.2958 543 60.5451 1377.53 557.855
959 0 51.0697 10.9067 557 60.0808 1377.62 556.697
960 0 50.1117 11.7537 589 57.2699 1376.33 557.912
961 0 51.1173 11.3269 579 57.8566 1376.57 557.522
962 0 54.1103 11.1254 602 58.7525 1376.38 556.826
963 0 57.1704 12.4365 711 55.737 1376.7 554.29
964 0 57.2014 12.2025 698 56.2894 1376.3 553.59
965 0 60.0993 12.3629 743 56.2073 1376.28 552.845
966 0 61.1044 11.6358 711 57.6217 1376.17 551.752
967 0 63.0753 12.715 802 56.3404 1376.41 551.398
968 0 65.1718 12.4747 813 56.6064 1376.08 550.92
969 0 67.0851 13.1326 881 55.7117 1375.57 550.764
970 0 69.1036 12.6187 872 56.8406 1375.36 547.45
971 0 70.1902 12.0815 848 57.8101 1375.6 547.143
972 0 73.1163 12.6511 925 56.4995 1376.12 547.325
973 0 76.2099 13.1741 1004 55.8765 1376.1 546.049
974 0 75.2052 11.9938 902 57.8492 1375.61 544.426
975 0 78.1314 12.3638 966 57.5642 1375.51 542.944
976 0 82.1462 11.9908 985 57.6193 1374.81 542.77
977 0 84.127 13.1587 1107 56.2322 1374.67 540.329
978 1 46.0327 11.0139 507 55.9803 1373.42 561.142
979 0 48.0201 11.2453 540 55.4167 1373.13 560.131
980 0 48.0615 11.6101 558 55.9642 1373.38 559.412
981 0 54.0709 11.6329 629 54.841 1373 558.622
982 0 51.0684 10.4761 535 57.5402 1372.88 556.714
983 0 53.1987 11.4852 611 55.8101 1373.42 555.905
984 0 57.1672 11.3701 650 55.3 1372.97 555.838
985 0 57.0718 12.3178 703 55.2774 1373.29 554.283
986 0 58.0909 13.169 765 54.1124 1373.71 555.169
987 0 59.0595 12.3943 732 55.0109 1373.78 553.892
988 0 61.1483 12.4124 759 54.7378 1373.5 554.615
989 0 62.0826 13.4337 834 53.9796 1373.31 552.92
990 0 66.0971 13.6315 901 54.3818 1373.71 551.424
991 0 68.0435 13.0064 885 55.2734 1373 550.777
992 0 70.0757 12.8861 903 55.0963 1372.83 550.233
993 0 72.0679 12.7241 917 55.771 1372.99 548.632
994 0 73.1113 12.7203 930 56.0624 1373.42 546.788
995 0 77.0488 12.3558 952 56.0305 1373.51 547.687
996 0 78.0933 12.882 1006 55.9026 1373.3 546.572
997 1 41.1013 10.4376 429 57.2168 1374.66 564.529
998 0 44.2282 10.6719 472 55.7246 1374.25 564.758
999 0 44.1008 11.4284 504 56.3194 1374.37 562.978
1000 0 44.1927 10.8615 480 57.4896 1374.68 562.723
1001 0 48.1186 11.9704 576 55.342 1374.63 562.42
1002 0 47.1609 12.786 603 56.1028 1374.8 561.308
1003 0 50.215 13.0041 653 53.7519 1374.46 560.456
1004 0 50.1268 12.0295 603 55.3566 1374.53 560.41
1005 0 54.099 13.6971 741 53.3779 1374.54 559.223
1006 0 54.0585 12.6345 683 55.2182 1374.96 558.635
1007 0 54.16 12.223 662 55.9804 1374.61 556.384
1008 0 56.1103 11.816 663 56.1554 1375.14 558.113
1009 0 56.1014 12.8339 720 55.4736 1374.98 555.507
1010 0 60.1324 12.4891 751 55.2876 1374.69 556.184
1011 0 60.1211 12.7243 765 55.766 1374.66 554.401
1012 0 62.0973 13.1729 818 56.2396 1374.53 555.142
1013 0 63.1883 12.3757 782 57.4706 1374.6 556.043
1014 0 65.1979 12.255 799 57.6058 1374.84 554.005
1015 0 69.1719 13.8929 961 55.2653 1374.12 551.9
1016 0 70.156 14.5533 1021 54.9559 1374.74 551.615
1017 0 70.156 14.5248 1019 162.126 1375.74 551.673
1018 0 73.2907 13.3987 982 57.2047 1375.57 548.422
1019 0 75.2305 12.6544 952 58.0095 1375.84 547.681
1020 0 77.2116 12.3945 957 58.2863 1375.3 546.893
1021 0 82.4581 13.8495 1142 56.5954 1374.93 544.843
1022 0 85.2258 13.5405 1154 56.5 1374.62 543.611
1023 1 47.0581 10.8802 512 59.2656 1375.17 562.246
1024 0 51.2073 12.1467 622 57.6672 1375.36 561.09
1025 0 52.0625 12.0624 628 57.6242 1375.31 560.156
1026 0 52.3781 11.9707 627 58.1643 1373.83 556.839
1027 0 53.1454 13.7547 731 57.2804 1375.06 557.669
1028 0 56.0961 13.3877 751 55.8309 1376.75 557.549
1029 0 57.2272 12.896 738 56.6314 1376.68 557.678
1030 0 59.2081 12.7179 753 56.6454 1376.77 556.841
1031 0 62.2141 12.6177 785 56.7197 1376.49 555.149
1032 0 62.1197 13.8764 862 56.5104 1376.92 552.626
1033 0 65.1385 12.6653 825 57.0412 1376.87 553.208
1034 0 67.1328 13.868 931 55.3609 1376.97 550.869
1035 0 69.2916 12.5556 870 57.0184 1377.12 551.333
1036 0 71.1328 14.255 1014 55.1874 1377.3 548.108
1037 0 74.219 13.541 1005 55.6736 1376.13 548.324
1038 0 75.1916 13.3127 1001 56.2587 1376.92 546.416
1039 0 78.2729 12.878 1008 56.4425 1377.04 545.852
1040 0 79.2243 12.7739 1012 56.8083 1378.05 544.63
1041 0 83.2191 13.0138 1083 56.8532 1378.69 541.361
1042 0 86.1963 13.9449 1202 55.2729 1378.32 540.651
1043 1 45.071 10.6942 482 57.7739 1378.57 557.618
1044 0 48.1862 11.248 542 56.8469 1378.28 559.587
1045 0 49.2474 11.4727 565 56.954 1378.73 557.074
1046 0 52.1973 13.5065 705 54.7007 1378.34 556.888
1047 0 54.1154 12.4918 676 55.1376 1379.16 552.43
1048 0 55.2804 13.8385 765 53.9307 1379.12 549.475
1049 0 56.1963 11.8513 666 56.2883 1378.9 549.351
1050 0 57.0506 13.4617 768 55.1719 1379.49 546.793
1051 0 60.1883 12.7766 769 55.5319 1379 536.753
1052 0 62.3405 13.1375 819 56.3748 1379.68 534.308
1053 0 66.2022 13.0358 863 55.8158 1378.92 536.723
1054 0 64.3285 13.1357 845 57.1953 1379.3 535.938
1055 0 67.1701 13.0862 879 57.0853 1379.28 538.067
1056 0 67.3089 12.3906 834 57.9281 1379.43 539.243
1057 0 70.2364 13.4688 946 56.7146 1379.24 540.243
1058 0 71.3588 12.6684 904 58.0575 1379.14 540.554
1059 0 75.4939 14.4912 1094 55.9589 1378.8 539.964
1060 0 77.3128 13.6329 1054 57.1679 1378.52 540.06
1061 0 77.4638 13.3611 1035 58.3459 1378.57 538.229
1062 1 38.3304 10.0964 387 60.5814 1378.62 557.571
1063 0 42.401 12.0752 512 58.1855 1378.13 557.262
1064 0 44.2517 11.3668 503 58.662 1378.82 557.111
1065 0 44.2912 11.5599 512 59.7676 1378.77 557.061
1066 0 46.1615 12.8895 595 58.6336 1379.01 556.595
1067 0 48.2616 12.743 615 58.613 1379.14 557.122
1068 0 49.4093 12.7709 631 59.1791 1378.68 556.707
1069 0 50.1574 12.8794 646 59.3793 1377.89 554.937
1070 0 52.2657 12.3982 648 59.8688 1377.97 553.992
1071 0 54.2979 13.1497 714 58.6092 1377.64 553.155
1072 0 53.1524 13.2826 706 59.9589 1377.83 551.769
1073 0 58.0938 13.4782 783 58.2542 1377.72 552.587
1074 0 58.3991 13.2194 772 59.0104 1377.71 551.962
1075 0 60.4488 13.3667 808 58.6782 1377.03 550.665
1076 0 62.2483 14.7956 921 57.2041 1377.16 547.709
1077 0 63.2147 13.2722 839 59.2455 1377.11 546.747
1078 0 67.3539 14.2382 959 57.3942 1377.88 545.913
1079 0 68.344 13.6808 935 58.3294 1377.25 546.213
1080 0 70.2773 14.0586 988 57.9069 1376.96 544.553
1081 0 73.2792 13.7829 1010 57.9891 1376.59 544.206
1082 0 73.1832 12.9265 946 59.4144 1376.55 541.692
1083 0 75.3011 13.2269 996 58.9659 1376.76 541.196
1084 0 81.2819 14.0007 1138 57.1538 1376.2 540.857
1085 0 81.2166 13.975 1135 57.9225 1376.75 538.691
1086 0 87.3668 14.2846 1248 57.3958 1376.63 535.756
1087 0 87.2282 14.1583 1235 57.9223 1376.47 534.856
1088 0 92.2401 13.9093 1283 57.6687 1377.07 535.595
1089 0 93.3375 14.1422 1320 57.8379 1376.87 531.727
1090 1 51.0702 11.024 563 58.9556 1376.63 553.135
1091 0 51.1873 11.624 595 59.1765 1376.72 553.649
1092 0 55.2851 11.7391 649 58.5439 1377.38 552.485
1093 0 57.324 12.3683 709 58.945 1377.34 553.774
1094 0 59.3669 12.0774 717 58.5732 1377.18 552.794
1095 0 59.3669 12.0774 717 154.76 1378.18 552.794
1096 0 64.3134 13.7918 887 56.5941 1376.72 548.369
1097 0 66.2719 13.4597 892 56.7937 1376.05 546.335
1098 0 67.2955 13.2995 895 56.9631 1376.18 545.883
1099 0 71.3004 13.38 954 56.3396 1376.48 546.371
1100 0 72.257 13.3551 965 56.8114 1376.53 544.726
1101 0 74.2075 13.3949 994 56.999 1376.55 543.127
1102 0 76.2463 12.9449 987 57.7609 1376.2 540.138
1103 0 79.4237 13.1573 1045 57.4258 1375.75 541.486
1104 0 82.1922 14.7703 1214 55.4852 1376.02 539.792
1105 0 86.2976 14.1603 1222 55.7152 1375.72 538.691
1106 0 88.2381 12.9989 1147 57.4289 1375.4 539.388
1107 0 91.1965 15.3844 1403 54.531 1376.08 539.687
1108 0 94.249 13.7084 1292 56.8731 1375.55 535.925
1109 0 98.1921 13.7282 1348 56.7678 1375.77 535.74
1110 0 100.21 14.1403 1417 56.554 1375.75 533.133
1111 0 102.259 13.6125 1392 57.2464 1375.23 532.443
1112 1 55.1745 11.0377 609 57.6519 1375.29 558.158
1113 0 59.2135 11.5514 684 56.7982 1376.18 555.749
1114 0 60.0714 13.3508 802 54.884 1376.2 553.943
1115 0 62.1132 12.123 753 56.2603 1375.65 554.159
1116 0 64.0981 11.7944 756 57.2791 1375.79 551.496
1117 0 66.1075 12.4494 823 56.8481 1375.94 551.587
1118 0 69.4394 13.0329 905 56.0287 1375.82 549.893
1119 0 72.1123 13.271 957 56 1375.76 549.338
1120 0 74.2937 13.2178 982 56.2851 1375.61 549.176
1121 0 76.2388 12.8675 981 57.0754 1375.98 546.54
1122 0 77.321 12.6874 981 57.9307 1375.83 546.322
1123 0 80.2001 13.9401 1118 56.6968 1375.57 545.123
1124 0 82.6071 13.7397 1135 56.7894 1375.81 545.512
1125 0 82.219 12.8194 1054 58.944 1375.91 543.207
1126 0 86.3506 13.4684 1163 57.4015 1375.96 543.657
1127 0 90.2654 14.2247 1284 57.5273 1375.77 542.269
1128 0 91.3436 14.1663 1294 58.017 1375.66 538.046
1129 0 94.5229 13.8168 1306 58.7971 1375.83 538.92
1130 0 97.5821 13.9677 1363 58.7337 1375.66 536.122
1131 0 100.332 14.0633 1411 59.0241 1376.15 534.785
1132 0 101.415 13.1637 1335 60.3783 1376 534.721
1133 0 105.396 13.0081 1371 61.0423 1375.9 533.955
1134 1 60.1956 11.6786 703 61.1991 1376.12 556.592
1135 0 62.3768 11.9596 746 60.8056 1375.94 554.814
1136 0 60.1823 11.8307 712 62.0815 1376.41 552.469
1137 0 65.3331 12.4439 813 60.6347 1376.65 553.507
1138 0 67.205 13.2133 888 60.3705 1376.55 551.527
1139 0 69.1828 13.7896 954 60.5608 1375.97 549.447
1140 0 72.2614 12.69 917 61.6129 1376.36 549.667
1141 0 75.3686 13.6662 1030 60.4592 1376.9 548.212
1142 0 77.2164 13.7277 1060 62.2575 1377.19 546.928
1143 0 80.073 13.7999 1105 62.6624 1376.83 545.217
1144 0 82.2903 13.6225 1121 63.2284 1376.49 544.414
1145 0 84.0799 13.6775 1150 63.9965 1376.66 542.588
1146 0 88.2087 14.1029 1244 63.3682 1376.94 540.398
1147 0 89.2728 13.8676 1238 64.0097 1377.02 540.284
1148 0 91.1863 13.3792 1220 65.1082 1377.25 538.717
1149 0 95.3279 14.0358 1338 64.0202 1377.58 537.425
1150 0 101.155 14.3739 1454 62.8425 1377.77 534.5
1151 0 100.272 13.623 1366 65.1098 1377.98 533.529
1152 0 107.243 14.3226 1536 63.8066 1378.16 531.648
1153 0 110.444 13.2012 1458 64.513 1378.37 531.239
1154 1 58.1791 11.499 669 64.9985 1378.2 554.919
1155 0 61.1886 12.0284 736 63.9511 1377.88 553.553
1156 0 64.2901 12.9258 831 63.2792 1378.15 551.164
1157 0 65.3161 13.1514 859 62.8685 1378.53 550.433
1158 0 68.3567 13.8245 945 61.3831 1378.84 549.299
1159 0 69.3013 13.7804 955 62.2565 1379.1 545.866
1160 0 71.2799 11.9108 849 64.5866 1379.6 544.896
1161 0 74.2646 13.6404 1013 61.9832 1379.66 544.58
1162 0 77.2532 13.2033 1020 62.5088 1379.69 544.328
1163 0 81.3217 13.2314 1076 62.329 1379.98 542.201
1164 0 82.1789 13.7262 1128 61.8901 1380.58 542.163
1165 0 84.4726 12.9983 1098 62.9818 1380.88 540.266
1166 0 87.2792 13.474 1176 62.7194 1380.4 538.975
1167 0 89.2772 13.5645 1211 63.0974 1380.74 536.421
1168 0 93.2316 13.3753 1247 63.405 1381.37 534.385
1169 0 95.2513 13.0812 1246 63.5289 1380.63 534.968
1170 0 99.3413 14.0425 1395 62.552 1380.27 533.475
1171 0 99.2835 13.4564 1336 64.2463 1380.44 530.404
1172 0 103.321 12.9694 1340 64.3284 1380.51 529.32
1173 1 55.2767 11.2887 624 63.0753 1380.19 554.316
1174 0 57.3862 10.9608 629 64.132 1380.53 552.647
1175 0 58.1473 10.8346 630 64.7016 1381.09 551.589
1176 0 62.1562 11.8733 738 63.1775 1381.69 551.454
1177 0 63.0947 12.4099 783 63.3602 1381.34 549.872
1178 0 64.1663 12.4364 798 64.1855 1381.54 549.703
1179 0 67.1759 12.9362 869 63.0759 1381.71 547.493
1180 0 69.0822 12.5503 867 64.421 1381.75 546.765
1181 0 72.143 12.6554 913 63.9113 1381.46 545.105
1182 0 72.143 12.6416 912 167.996 1381.46 545.086
1183 0 74.1119 12.5351 929 65.0958 1380.59 543.14
1184 0 78.2172 12.7977 1001 64.3976 1380.66 542.482
1185 0 79.1102 12.6406 1000 65.626 1380.51 540.528
1186 0 83.0917 13.6235 1132 64.0724 1380.08 540.246
1187 0 86.1747 13.1941 1137 64.9428 1380.46 538.275
1188 0 89.1088 13.5116 1204 64.0997 1380.71 536.551
1189 0 89.0602 12.5982 1122 66.5018 1380.67 534.816
1190 1 45.0195 9.50699 428 64.2921 1379.9 559.355
1191 0 47.0272 9.42008 443 64.7494 1380.6 556.941
1192 0 50.0671 10.0665 504 63.5357 1380.09 556.871
1193 0 51.0294 10.445 533 63.227 1380.15 555.925
1194 0 53.0432 11.7074 621 60.5491 1380.68 556.781
1195 0 52.0708 11.638 606 59.8779 1380.55 556.706
1196 0 54.0329 11.493 621 59.9807 1380.26 555.874
1197 0 53.0594 11.0631 587 62.0221 1380.6 553.704
1198 0 57.0301 12.0463 687 60.131 1379.97 554.131
1199 0 57.0423 10.2906 587 62.368 1380.55 554.085
1200 0 59.0954 11.7776 696 60.717 1380.51 552.082
1201 0 60.1147 11.3782 684 61.6667 1379.82 551.832
1202 0 64.0397 12.2424 784 60.3622 1380.04 550.122
1203 0 64.0221 12.1052 775 61.0465 1379.95 550.265
1204 0 66.0503 11.9454 789 61.6857 1379.91 549.764
1205 0 68.0374 12.5519 854 61.1569 1379.58 549.753
1206 0 69.1114 12.3569 854 62.0527 1379.02 546.637
1207 0 72.1247 12.3813 893 61.7066 1379.15 546.179
1208 0 76.0762 11.8828 904 62.531 1379.19 544.737
1209 0 79.1207 12.8032 1013 60.537 1378.82 545.169
1210 0 79.1207 12.7779 1011 157.328 1378.83 545.179
1211 1 41.0247 9.11646 374 61.7433 1378.49 561.324
1212 0 43.0394 10.0373 432 61.2708 1378.79 560.407
1213 0 45.0482 10.0337 452 59.7854 1378.05 561.71
1214 0 46.1531 10.8552 501 57.9661 1377.21 562.176
1215 0 47.1674 11.1518 526 58.4753 1377.04 560.306
1216 0 47.1485 11.8137 557 57.5368 1378.83 559.855
1217 0 47.2797 11.3156 535 58.957 1378.39 559.85
1218 0 48.1046 11.3711 547 59.362 1378.61 559.762
1219 0 52.1215 11.7418 612 57.7173 1378.05 558.969
1220 0 52.1309 11.874 619 56.8045 1377.57 559.26
1221 0 54.2118 11.4735 622 57.3794 1377.56 557.365
1222 0 54.0543 10.3415 559 58.7102 1377.11 558.32
1223 0 56.1161 11.5475 648 57.5 1377.31 555.838
1224 0 57.1379 9.99337 571 59.5342 1376.61 555.855
1225 0 60.075 11.6022 697 57.1521 1376.94 552.763
1226 0 62.1243 11.3643 706 57.9575 1377 552.149
1227 0 63.0593 10.9421 690 58.5841 1376.99 552.078
1228 0 65.0855 11.0316 718 57.9833 1376.27 551.698
1229 0 69.1139 12.4143 858 56.3263 1376.14 548.542
1230 1 35.0427 9.67393 339 57.8171 1375.55 566.882
1231 0 35.073 8.72465 306 58.451 1374.64 566.585
1232 0 38.0131 9.0495 344 58.0727 1373.78 566.369
1233 0 38.0604 9.37983 357 58.8627 1373.61 565.882
1234 0 43.0666 9.61302 414 57.4734 1374.6 565.428
1235 0 41.0288 9.9686 409 57.978 1374.44 564.621
1236 0 45.0455 10.9889 495 57 1374.31 564.228
1237 0 45.0161 10.6184 478 58.9854 1374.93 564.033
1238 0 46.0858 11.9343 550 57.1291 1375.11 563.267
1239 0 46.0845 12.195 562 57.9128 1374.52 561.571
1240 0 47.1699 11.4268 539 59.2134 1374.89 561.583
1241 0 48.0757 11.3571 546 60.022 1375.16 562.055
1242 0 48.0757 11.3779 547 170.857 1376.16 562.088
1243 0 52.1564 11.3888 594 59.4764 1374.8 560.65
1244 0 54.1641 12.4437 674 57.8264 1375.31 559.605
1245 0 54.1641 12.3144 667 165.261 1376.32 559.754
1246 0 54.2091 12.3227 668 59.3892 1376.47 558.507
1247 0 56.1083 12.6541 710 59.3239 1375.28 557.337
1248 0 58.0812 12.999 755 59.857 1375.54 555.617
1249 0 59.1914 12.7552 755 60.6609 1375.38 554.87
1250 0 61.0517 12.9726 792 60.6174 1375.48 554.885
1251 0 61.2116 12.7263 779 60.7997 1375.72 555.605
1252 0 64.1361 12.6138 809 61.712 1376.07 552.194
1253 0 67.1311 12.632 848 61.0024 1375.85 552.862
1254 0 68.1614 12.9692 884 61.6618 1376.19 549.485
1255 0 71.1183 13.4705 958 60.3079 1376.07 547.614
1256 0 72.1677 13.4548 971 60.1524 1376.19 548.61
1257 0 75.1211 12.6995 954 61.0723 1376.27 546.61
1258 1 41.025 10.7252 440 61.4341 1377.13 563.077
1259 0 41.1328 11.6209 478 60.6632 1377.33 563.262
1260 0 40.0367 11.6893 468 60.9786 1377.94 563.314
1261 0 45.0846 11.8222 533 59.8799 1376.65 561.659
1262 0 44.3264 12.0921 536 61.1455 1377.21 559.681
1263 0 44.1872 12.6734 560 59.9214 1377.3 560.864
1264 0 46.0844 12.629 582 59.9296 1377.07 560.754
1265 0 49.1421 12.4333 611 59.7856 1377.39 560.378
1266 0 48.0495 13.2988 639 59.1862 1377.65 559.787
1267 0 50.2655 12.5533 631 59.8605 1377.6 558.231
1268 0 50.452 13.2403 668 59.024 1377.69 557.534
1269 0 53.5697 13.1418 704 58.4602 1378.17 556.719
1270 0 52.308 12.8279 671 59.8241 1378.05 555.608
1271 0 54.2685 12.3829 672 59.9851 1378.32 555.445
1272 0 56.2482 13.7604 774 58.0439 1379.02 554.486
1273 0 58.306 13.6178 794 57.8992 1379.17 553.461
1274 0 60.1884 13.6571 822 57.5389 1379.57 551.291
1275 0 62.2221 13.8054 859 57.3271 1380.11 550.012
1276 0 64.1756 14.1487 908 56.663 1380.13 550.023
1277 0 65.2861 13.5557 885 57.4418 1380.27 549.629
1278 0 69.4239 13.1223 911 57.0241 1380.57 547.193
1279 0 70.5716 13.5465 956 57.1203 1380.4 545.741
1280 0 73.2855 13.195 967 57.4829 1380.08 545.647
1281 0 75.3451 13.7899 1039 57.5833 1380.15 543.555
1282 0 78.2985 13.3336 1044 57.6561 1380.85 542.557
1283 0 80.2801 13.1789 1058 57.9216 1381.13 541.425
1284 1 40.1552 11.4306 459 59.1351 1380.35 561.257
1285 0 43.3636 11.0461 479 59.6827 1381.04 559.002
1286 0 46.1395 12.2455 565 57.8885 1380.83 558.588
1287 0 46.1395 12.1805 562 157.053 1379.82 558.685
1288 0 48.19 13.675 659 56.7906 1381.27 557.197
1289 0 49.0617 13.1875 647 58.1283 1381.53 554.722
1290 0 50.2943 12.8046 644 58.2081 1381.65 556.767
1291 0 51.1296 13.1822 674 58.4332 1381.69 553.97
1292 0 54.0775 13.5176 731 58.0328 1381.89 551.964
1293 0 55.245 13.775 761 57.6255 1381.59 550.346
1294 0 55.1218 13.0438 719 58.7093 1381.72 552.196
1295 0 57.0953 13.3986 765 58.6562 1381.62 548.931
1296 0 60.125 14.1538 851 57.7309 1381.07 549.853
1297 0 62.2414 13.3191 829 58.6128 1381.42 549.505
1298 0 64.4202 13.8 889 57.7379 1382.16 547.764
1299 0 64.3087 13.4041 862 59.0452 1382.1 546.571
1300 0 67.3283 14.0357 945 58.2942 1381.85 544.438
1301 0 70.6469 13.5604 958 58.4102 1380.75 544.974
1302 0 74.2289 14.0781 1045 57.5828 1380.92 543.322
1303 0 76.2184 14.5634 1110 57.5784 1380.8 542.528
1304 0 78.2335 15.3515 1201 56.3897 1381.39 539.206
1305 0 80.2228 14.0982 1131 57.9779 1380.5 539.237
1306 0 82.4929 13.6739 1128 58.9282 1380.45 538.216
1307 0 85.3805 14.125 1206 58.7413 1380.48 535.559
1308 0 88.1929 14.593 1287 57.7483 1380.25 535.838
1309 0 91.2694 14.1888 1295 58.4085 1380.05 534.42
1310 0 96.4053 14.3353 1382 57.6295 1379.99 534.585
1311 1 47.0762 11.7469 553 59.3779 1379.58 557.072
1312 0 50.0763 11.7021 586 59.8294 1380.14 557.005
1313 0 51.0547 12.281 627 59.3828 1379.97 555.498
1314 0 53.1447 12.7388 677 59.712 1379.74 554.486
1315 0 54.2048 12.4528 675 59.0756 1379.58 554.406
1316 0 58.081 12.758 741 58.8731 1378.66 552.401
1317 0 59.0422 13.7021 809 58.5464 1379.44 554.132
1318 0 60.189 12.4441 749 60.275 1379.83 553.463
1319 0 63.0942 14.2168 897 58.2832 1379.44 552.818
1320 0 63.1297 13.5752 857 59.6243 1378.98 552.495
1321 0 65.0454 12.6988 826 61.7627 1378.48 550.518
1322 0 68.0634 14.0457 956 60.0335 1378.76 550.53
1323 0 68.0927 13.8488 943 61.562 1378.83 547.807
1324 0 70.0697 12.8444 900 62.1678 1378.54 548.08
1325 0 74.2208 13.7832 1023 60.911 1378.12 547.553
1326 0 75.0863 13.7974 1036 61.3069 1378.27 546.949
1327 0 79.0784 14.277 1129 61.1656 1378.3 543.611
1328 0 82.1979 13.8446 1138 61.4974 1377.8 543.351
1329 0 83.1464 13.6025 1131 62.313 1377.83 542.483
1330 0 88.1745 13.6434 1203 62.5744 1377.87 540.913
1331 1 47.094 11.7 551 63.2632 1377.97 559.546
1332 0 48.0778 11.419 549 63.643 1378.19 559.186
1333 0 53.045 11.8202 627 61.8373 1377.47 559.102
1334 0 52.0199 12.9181 672 63.7589 1378.07 556.875
1335 0 54.1231 13.4323 727 62.9216 1377.75 556.915
1336 0 56.0389 12.7768 716 63.5559 1377.29 554.592
1337 0 57.0358 12.8866 735 63.5388 1377.27 553.776
1338 0 59.0821 13.4389 794 63.1851 1377 551.594
1339 0 62.1326 13.0366 810 62.3346 1377.17 551.838
1340 0 64.0429 13.5066 865 61.5769 1377.2 550.511
1341 0 65.0831 13.0295 848 61.7052 1377.56 550.435
1342 0 69.0597 12.5978 870 61.4816 1377.51 549.039
1343 0 71.0862 12.4637 886 61.9481 1377.51 547.304
1344 0 74.0928 12.9432 959 61.4035 1377.18 545.917
1345 0 76.1352 12.8718 980 61.5337 1377.65 544.924
1346 1 39.0469 9.14286 357 63.3333 1377.59 563.176
1347 0 39.0317 10.2481 400 61.9975 1377.29 563.918
1348 0 40.0222 10.9439 438 62.1005 1377.71 563.167
1349 0 43.0879 10.8383 467 62.409 1377.37 562.655
1350 0 44.0895 11.8169 521 60.929 1377.32 562.593
1351 0 45.0949 11.6865 527 61.9165 1376.37 561.882
1352 0 47.164 12.0431 568 62.4331 1376.21 561.019
1353 0 49.229 12.4317 612 61.6552 1376.3 560.034
1354 0 47.1487 12.3439 582 63.0275 1375.61 560.674
1355 0 51.3536 12.7547 655 62.0351 1375.64 558.814
1356 0 51.2955 12.6522 649 62.7997 1375.74 557.153
1357 0 52.2046 12.5851 657 62.8828 1375.41 557.549
1358 0 55.1774 12.6501 698 62.8109 1375.33 556.794
1359 0 57.1898 11.6105 664 64.006 1375.86 557.111
1360 0 59.4268 13.0581 776 62.6559 1375.9 554.778
1361 0 58.1656 12.7051 739 63.0595 1375.65 555.514
1362 0 61.1422 13.0679 799 62.3317 1375.63 555.685
1363 0 61.1677 12.7518 780 62.7218 1375.47 554.829
1364 0 62.1714 13.2376 823 62.819 1375.54 552.565
1365 0 66.1552 13.0602 864 62.5069 1375.63 552.786
1366 0 66.2013 12.6433 837 63.307 1375.53 551.057
1367 0 68.1679 13.276 905 62.8265 1374.92 549.304
1368 0 71.4246 12.6707 905 63.6409 1375.17 548.011
1369 1 41.1545 10.6914 440 63.0455 1374.74 565.277
1370 0 43.3461 10.5661 458 63.4825 1374.92 565.076
1371 0 41.2636 9.79072 404 64.4381 1374.78 564.238
1372 0 42.1007 10.8549 457 64.0197 1375 562.698
1373 0 45.2459 10.6529 482 63.0788 1374.76 562.614
1374 0 45.1529 11.2507 508 61.2343 1374.44 560.689
1375 0 45.1232 10.3273 466 63.0408 1374.23 561.077
1376 0 48.0634 11.5265 554 60.5542 1373.11 559.827
1377 0 50.2345 12.4217 624 59.9135 1374.79 561.713
1378 0 48.2552 12.0194 580 62.0224 1375.18 560.431
1379 0 51.237 12.8618 659 60.7314 1375.03 559.285
1380 0 54.1095 12.216 661 60.1029 1375.41 560.227
1381 0 54.1027 12.4948 676 60.824 1375.28 558.006
1382 0 57.1557 12.8246 733 57.5334 1375.44 557.516
1383 0 58.0688 13.1396 763 57.8899 1375.91 557.142
1384 0 61.1006 12.7822 781 59.2138 1375.39 555.65
1385 0 62.1492 13.6446 848 57.6521 1375.35 555.001
1386 0 62.1301 13.6005 845 59.5479 1375.08 555.08
1387 0 64.0508 13.2863 851 58.5405 1375.84 554.488
1388 0 66.1053 13.3272 881 58.168 1375.54 554.064
1389 0 68.0428 13.8589 943 57.6713 1375.07 553.318
1390 0 70.0618 13.4024 939 57.9127 1375.38 551.252
1391 0 71.0515 12.9624 921 58.9349 1375.54 550.277
1392 0 74.1051 13.3459 989 58.3519 1375.62 550.225
1393 0 77.2772 12.9534 1001 58.8631 1375.62 545.305
1394 0 80.0962 14.3078 1146 57.2251 1375.68 546.357
1395 1 40.0269 10.9426 438 59.4932 1375.55 564.76
1396 0 39.0402 11.2192 438 59.3447 1375.17 564.425
1397 0 42.0396 10.276 432 59.0694 1375.13 565.336
1398 0 42.0311 11.2774 474 58.538 1375.2 565.118
1399 0 42.0218 12.1366 510 57.6588 1375.55 564.19
1400 0 46.0333 12.5996 580 56.9138 1375.7 562.903
1401 0 46.0356 12.4903 575 57.6939 1375.7 561.026
1402 0 47.0458 12.3497 581 57.8193 1376.05 561.785
1403 0 49.0939 11.3456 557 58.8348 1376.52 559.348
1404 0 51.0778 12.0013 613 57.2659 1377.01 559.584
1405 0 51.0893 11.9594 611 57.9574 1377.45 557.527
1406 0 54.0622 12.8741 696 56.2356 1377.86 558.152
1407 0 55.0122 11.3248 623 57.3194 1378.45 557.416
1408 0 56.154 11.6822 656 57.1296 1378.09 555.776
1409 0 60.1358 12.2223 735 56.0639 1378.37 555.098
1410 0 61.1129 13.2378 809 54.7923 1378.61 555.281
1411 0 61.0441 13.2527 809 55.7614 1378.64 552.167
1412 0 64.0219 13.2142 846 55.2624 1378.73 550.654
1413 0 68.1434 12.958 883 54.8279 1378.74 549.908
1414 0 68.2287 12.5607 857 56.2077 1379.48 549.729
1415 0 71.3032 13.1551 938 55.4371 1379.01 549.072
1416 0 72.1575 12.8469 927 55.6753 1379.5 547.256
1417 1 38.0429 10.8562 413 56.063 1379.09 562.862
1418 0 39.1245 10.0448 393 56.1501 1379.8 562.71
1419 0 41.1437 11.3019 465 55.4151 1379.6 561.2
1420 0 42.1838 11.6869 493 55.7079 1380.51 559.878
1421 0 43.3833 12.2628 532 55.5508 1380.82 558.528
1422 0 47.2598 13.0555 617 53.3582 1380.84 558.966
1423 0 47.1907 11.9303 563 54.7851 1380.25 558.314
1424 0 47.1681 13.2929 627 53.0447 1380.25 559.199
1425 0 51.3057 12.0065 616 54.2662 1379.9 555.675
1426 0 50.2658 12.9114 649 53.735 1379.64 555.888
1427 0 52.2841 13.637 713 52.763 1379.38 555.762
1428 0 55.1313 12.1709 671 53.7377 1379.24 554.696
1429 0 57.3079 12.9302 741 52.3752 1379.65 555.054
1430 0 59.3025 13.7094 813 51.7872 1379.69 553.785
1431 0 58.2224 11.4732 668 54.6871 1379.25 553.078
1432 0 60.0903 12.5977 757 54.074 1379.44 552.054
1433 0 62.0815 13.1923 819 53.3394 1379.15 552.469
1434 0 64.1315 12.3808 794 54.8186 1378.83 550.86
1435 0 66.1034 13.5999 899 54.7086 1379.12 547.665
1436 0 66.2392 12.8172 849 56.0389 1378.74 547.866
1437 0 70.0998 13.1955 925 55.6897 1378.36 546.686
1438 0 75.1074 13.4341 1009 54.8474 1378.24 546.889
1439 0 76.0761 13.2368 1007 56.2066 1377.82 545.988
1440 1 41.0461 11.2556 462 55.9264 1376.91 561.645
1441 0 40.1737 10.6039 426 56.7042 1376.92 561.3
1442 0 40.0787 11.8018 473 55.5729 1376.54 563.192
1443 0 42.0792 11.2645 474 55.9831 1376.75 562.646
1444 0 43.0566 12.4023 534 55.2135 1376.62 561.301
1445 0 43.037 11.0835 477 57.065 1377.69 559.509
1446 0 48.0941 12.725 612 54.3023 1377.81 561.096
1447 0 50.0796 12.6798 635 54.4457 1376.86 559.23
1448 0 48.1863 11.7253 565 56.0142 1377.61 557.582
1449 0 51.1356 12.0268 615 55.9675 1377.43 558.073
1450 0 51.1356 11.9877 613 164.985 1376.44 558.132
1451 0 54.1594 12.9987 704 55.6378 1377.19 556.476
1452 0 55.1059 13.9731 770 55.0766 1377.37 555.284
1453 0 55.1654 12.6891 700 56.7471 1376.94 554.794
1454 0 59.0795 12.8979 762 56.1772 1377.07 554.463
1455 0 57.1781 12.1375 694 57.5346 1376.55 553.988
1456 0 60.2583 13.6247 821 55.9829 1376.4 551.848
1457 0 64.1608 13.9338 894 55.6018 1376.57 550.364
1458 0 66.1979 13.4899 893 56.0616 1376.45 549.016
1459 0 67.3705 12.409 836 57.3864 1376.28 549.865
1460 1 33.3453 10.6162 354 57.9887 1376.6 565.514
1461 0 35.4916 10.425 370 58.9243 1376.51 563.384
1462 0 36.2461 9.98727 362 58.4724 1376 563.448
1463 0 39.3326 11.6951 460 56.5283 1375.93 563.443
1464 0 40.2857 11.4681 462 56.9026 1375.68 563.563
1465 0 42.2733 12.0644 510 55.5941 1376.13 561.827
1466 0 42.377 13.2147 560 54.2714 1376.3 561.668
1467 0 44.3044 12.5495 556 55.5558 1376.17 560.978
1468 0 45.1484 11.9163 538 57.7045 1375.76 561.994
1469 0 46.1097 12.7739 589 56.365 1376.01 561.803
1470 0 47.1008 12.2291 576 57.8837 1375.77 560.583
1471 0 49.3679 12.2752 606 57.0759 1375.42 560.883
1472 0 50.1921 12.7311 639 56.795 1375.26 558.729
1473 0 51.2957 13.0225 668 56.7545 1375.23 558.858
1474 0 52.2305 12.3683 646 57.4412 1374.99 558.497
1475 0 54.5947 13.5544 740 55.8662 1374.46 556.777
1476 0 56.3493 12.9904 732 56.8033 1374.22 555.484
1477 0 55.3302 13.5911 752 56.0918 1373.66 555.254
1478 0 59.5861 13.4427 801 55.4032 1373.99 553.231
1479 0 60.7801 13.2609 806 55.5459 1373.76 552.716
1480 0 62.2208 13.8057 859 55.0256 1374.95 552.302
1481 0 64.3935 13.6194 877 55.3694 1374.65 550.47
1482 0 64.6136 13.0003 840 56.4738 1374.34 550.236
1483 0 66.5804 13.4874 898 55.7561 1374.86 547.239
1484 0 68.553 13.4203 920 56.15 1374.62 547.42
1485 0 70.4972 13.1636 928 56.3071 1374.6 545.034
1486 0 74.4965 13.6651 1018 55.8222 1375.31 542.993
1487 0 77.4149 13.602 1053 55.5404 1375.2 543.67
1488 0 78.5293 13.6764 1074 55.5754 1375.23 540.953
1489 0 83.6466 13.7603 1151 55.1955 1374.9 539.652
1490 0 83.4121 12.4682 1040 57.0125 1374.84 538.198
1491 0 87.5004 13.3599 1169 55.9025 1375.07 536.831
1492 1 46.2994 11.9224 552 55.9511 1374.62 557.77
1493 0 46.1519 12.5022 577 56.3865 1375.1 557.66
1494 0 46.1519 12.5022 577 158.329 1375.1 557.66
1495 0 46.1519 12.4805 576 158.026 1375.1 557.634
1496 0 52.1712 12.689 662 55.9547 1374.92 556.489
1497 0 54.2896 13.4464 730 55.226 1374.93 554.121
1498 0 56.2272 12.8408 722 55.59 1375.1 554.287
1499 0 59.4103 13.1964 784 56.213 1374.82 552.015
1500 0 61.3765 13.0506 801 56.3758 1375.02 550.762
1501 0 63.5296 13.4425 854 55.8794 1375.09 550.891
1502 0 64.491 14.002 903 56.1683 1375.5 548.63
1503 0 66.8317 14.4542 966 55.5807 1375.33 547.904
1504 0 67.7916 13.7628 933 57.045 1375.41 547.061
1505 0 67.3971 14.0214 945 57.4878 1375.41 544.078
1506 0 71.3502 13.9593 996 57.7641 1375.66 546.072
1507 0 73.4078 13.677 1004 58.0149 1375.94 541.942
1508 0 75.4579 13.5572 1023 58.5083 1375.98 541.931
1509 0 78.4155 14.946 1172 56.5162 1375.92 540.66
1510 0 83.482 14.2186 1187 56.6647 1376.37 538.028
1511 1 43.2 12.037 520 58.7635 1376.59 556.915
1512 0 45.428 12.4152 564 58.1826 1377.24 556.649
1513 0 46.3823 11.7717 546 58.9945 1377.29 556.738
1514 0 48.5572 12.3154 598 59.0686 1377.6 556.926
1515 0 50.5594 13.2517 670 58.2716 1377.39 557.125
1516 0 50.3142 12.9586 652 59.3144 1377.57 556.733
1517 0 52.1694 13.0345 680 59.4221 1377.69 554.987
1518 0 54.2667 13.0098 706 58.8669 1378.26 557.21
1519 0 55.2226 13.1287 725 58.931 1378.07 553.273
1520 0 57.2939 14.2249 815 58.0515 1379.04 550.378
1521 0 59.1839 13.8044 817 58.6169 1378.94 549.07
1522 0 59.3103 13.8425 821 60.2558 1378.93 549.385
1523 0 62.4548 13.9461 871 58.0907 1379.15 548.406
1524 0 64.3896 13.8066 889 58.1845 1379.4 545.801
1525 0 67.4428 13.5671 915 57.9071 1379.85 544.929
1526 0 68.1922 13.0367 889 58.5028 1379.7 543.847
1527 0 72.1869 12.9386 934 58.1563 1380.35 541.864
1528 0 75.2331 14.1161 1062 56.7156 1380.03 541.248
1529 0 76.2072 13.0303 993 58.4844 1380.02 539.574
1530 0 80.2424 14.6805 1178 56.0306 1380.04 538.584
1531 0 80.3435 12.6333 1015 59.3261 1380.1 535.307
1532 1 43.2023 12.1058 523 58.2562 1379.87 554.145
1533 0 44.3116 12.4347 551 57.2595 1379.63 554.005
1534 0 46.3369 12.6897 588 56.9269 1379.53 553.109
1535 0 44.2057 12.4418 550 58.7818 1379.55 553.684
1536 0 48.2946 12.5687 607 57.8484 1379.22 553.499
1537 0 49.3674 12.0322 594 58.8266 1379.33 552.62
1538 0 50.087 12.8576 644 58.2748 1378.69 551.056
1539 0 54.2434 13.4579 730 57.111 1378.81 549.285
1540 0 55.3088 13.3071 736 57.0639 1378.83 549.035
1541 0 57.2684 13.1661 754 57.5955 1378.97 548.041
1542 0 58.4255 13.7269 802 56.7157 1378.4 548.756
1543 0 60.3021 13.9299 840 56.8976 1378.9 547.156
1544 0 60.3021 13.9464 841 163.212 1378.91 547.162
1545 0 63.1709 13.5031 853 56.9812 1379.29 543.808
1546 0 66.4738 12.9976 864 56.7801 1378.89 543.985
1547 0 69.4836 14.1184 981 55.4618 1378.41 542.958
1548 0 69.5748 13.7262 955 56.5634 1378.55 541.107
1549 0 73.594 13.7919 1015 55.9429 1378.12 539.784
1550 0 76.4556 13.9427 1066 55.7514 1377.84 538.451
1551 0 78.3118 13.2802 1040 56.1346 1377.92 537.064
1552 0 81.4936 13.3998 1092 56.3077 1378.38 534.882
1553 1 39.448 11.7116 462 55.119 1377.08 557.68
1554 0 42.3935 9.74207 413 57.1743 1377.19 555.215
1555 0 44.3167 11.8014 523 54.4627 1377.3 556.411
1556 0 42.0774 10.6233 447 56.2595 1377.39 554.837
1557 0 45.336 12.9478 587 54.0818 1376.86 554.641
1558 0 49.1986 11.6263 572 55.7045 1376.59 557.079
1559 0 50.2104 11.89 597 55.5343 1376.84 556.36
1560 0 53.1217 13.1208 697 54.2296 1376.23 555.146
1561 0 53.3406 11.8109 630 56.1889 1376.42 553.743
1562 0 56.2242 12.8237 721 54.6366 1375.99 553.08
1563 0 55.2874 12.5526 694 55.5893 1376.08 552.801
1564 0 59.392 13.5372 804 54.0684 1376.39 552.011
1565 0 59.4531 11.7908 701 56.4265 1375.54 551.451
1566 0 61.4713 12.2496 753 56.0332 1375.45 550.414
1567 0 63.3709 12.6872 804 55.7376 1374.93 549.394
1568 0 66.8576 13.5362 905 55.1989 1374.78 547.686
1569 0 67.5909 13.5373 915 55.3388 1375.08 546.854
1570 0 70.6905 13.8633 980 55.548 1374.63 545.748
1571 0 70.5036 12.0136 847 57.2975 1374.89 545.28
1572 0 76.624 13.0116 997 55.9117 1374.74 544.938
1573 0 77.4838 12.4026 961 56.7836 1374.77 543.093
1574 0 79.7086 13.7877 1099 55.6988 1375.46 540.614
1575 0 81.7053 13.5242 1105 56.2163 1375.34 541.184
1576 0 82.5366 12.2491 1011 57.7774 1375.43 541.216
1577 0 86.2805 14.1167 1218 56.0805 1375.64 538.359
1578 0 87.3111 12.6902 1108 57.8032 1375.21 537.282
1579 0 89.6667 13.0595 1171 57.6644 1374.38 534.854
1580 0 93.4942 12.9848 1214 57.818 1374.42 535.479
1581 1 52.3302 11.7523 615 56.9463 1374.5 555.202
1582 0 52.5295 11.3079 594 57.2508 1374.43 555.737
1583 0 53.668 12.2978 660 56.6545 1374.64 554.335
1584 0 55.5051 11.3863 632 56.519 1374.32 554.767
1585 0 57.4722 12.6496 727 55.4732 1374.46 553.136
1586 0 60.7752 12.7684 776 54.9536 1374.83 551.228
1587 0 63.778 13.3588 852 54.1702 1374.64 549.664
1588 0 62.8011 12.6272 793 55.4603 1373.94 547.904
1589 0 65.4015 12.4003 811 55.6067 1373.66 547.619
1590 0 67.6617 13.2719 898 54.7216 1374.02 544.856
1591 0 70.9593 12.6833 900 55.1722 1374.68 545.376
1592 0 70.653 12.7383 900 56.0644 1375.06 544.388
1593 0 74.6407 12.3793 924 55.8994 1374.86 541.252
1594 0 77.9082 13.2592 1033 54.3911 1374.58 539.863
1595 0 78.6248 12.6932 998 55.5711 1375.07 539.437
1596 0 78.6248 12.7568 1003 161.508 1375.06 539.532
1597 0 85.6305 13.5933 1164 54.9536 1375.59 536.214
1598 1 44.3193 11.0561 490 55.5898 1375.87 557.3
1599 0 45.2657 10.0076 453 56.6998 1375.67 556.929
1600 0 47.1134 10.5066 495 57.4687 1376.34 552.325
1601 0 50.2107 10.2966 517 57.0522 1376.04 553.534
1602 0 52.1607 12.0781 630 55.154 1375.99 553.549
1603 0 52.24 11.83 618 56.0049 1375.84 553.6
1604 0 54.5592 11.6937 638 56.9028 1375.83 551.536
1605 0 53.3925 11.7245 626 57.8658 1376.11 549.542
1606 0 56.5365 13.142 743 55.852 1375.89 548.588
1607 0 57.4246 12.1377 697 57.1607 1376.34 548.112
1608 0 59.3994 12.4917 742 57.1577 1376.37 547.154
1609 0 60.6807 12.8047 777 56.8057 1376.56 544.18
1610 0 64.7571 13.651 884 55.6425 1376.39 544.13
1611 0 68.1461 12.6933 865 57.163 1377.36 541.904
1612 0 67.6693 13.2556 897 57.3055 1377.23 541.768
1613 0 70.9357 12.5748 892 57.7814 1377.71 542.443
1614 0 70.9934 13.4238 953 58.086 1377.73 541.787
1615 0 77.5937 13.2356 1027 56.9241 1377.47 539.232
1616 0 79.8752 13.759 1099 56.7561 1378.12 538.658
1617 0 79.6572 13.3321 1062 58.9379 1378.82 532.136
1618 0 85.6663 12.7938 1096 59.1022 1379.46 533.066
1619 0 87.6956 12.8513 1127 59.1642 1379.42 531.311
1620 0 90.5858 13.1478 1191 58.9446 1379.48 530.589
1621 0 94.4789 13.0188 1230 58.8098 1380.21 527.616
1622 0 98.5909 13.2467 1306 58.7205 1379.92 526.497
1623 1 52.2843 10.3281 540 58.3426 1379.9 549.189
1624 0 54.5049 11.0999 605 59.3041 1380.31 551.658
1625 0 57.4003 11.2543 646 58.7771 1380.35 550.189
1626 0 58.3434 13.6091 794 56.2494 1380.59 548.723
1627 0 61.2364 13.2764 813 56.3961 1380.48 548.956
1628 0 63.3373 12.5834 797 57.4379 1380.77 548.671
1629 0 64.1312 12.6927 814 58.2973 1381.93 546.99
1630 0 66.4255 12.721 845 57.4757 1381.54 545.844
1631 0 66.2986 11.78 781 58.6978 1381.43 547.005
1632 0 71.4404 13.3958 957 56.4922 1381.15 545.866
1633 0 73.4557 12.9738 953 57.3137 1380.82 543.983
1634 0 73.5048 12.3393 907 58.1841 1380.63 543.1
1635 0 75.3949 13.5288 1020 56.9853 1380.44 540.264
1636 0 78.4051 13.2389 1038 57.4672 1380.62 540.145
1637 0 80.6443 12.5985 1016 58.1998 1380.61 538.03
1638 0 80.5536 13.0969 1055 58.7422 1380.43 535.823
1639 0 86.5044 13.1092 1134 57.9586 1379.96 537.646
1640 0 89.2602 12.3235 1100 59.2927 1379.92 534.622
1641 0 89.2602 12.2675 1095 166.882 1378.94 534.666
1642 1 54.2132 9.70244 526 57.1844 1379.68 553.702
1643 0 54.346 9.95473 541 57.0259 1379.64 551.78
1644 0 53.0559 10.3664 550 56.08 1379.09 547.96
1645 0 56.1029 11.1224 624 56.4343 1380.2 547.899
1646 0 55.0948 12.0156 662 56.9849 1380.22 547.965
1647 0 59.0671 11.343 670 57.7776 1380.5 550.555
1648 0 61.2472 11.8699 727 57.066 1380.28 549.083
1649 0 62.118 11.8484 736 57.6033 1380.11 547.428
1650 0 65.1537 12.1098 789 56.9037 1380.09 548.825
1651 0 66.2103 11.5994 768 57.6849 1379.35 544.663
1652 0 68.2359 11.4749 783 57.6756 1379.69 544.079
1653 0 72.2837 12.0359 870 56.7414 1379.9 544.437
1654 0 73.1944 12.7469 933 55.9753 1380.11 544.019
1655 0 75.094 12.9038 969 55.773 1379.41 544.838
1656 0 77.1939 12.3844 956 56.6925 1379.12 542.132
1657 0 81.1412 12.09 981 56.6239 1378.9 541.087
1658 0 82.3039 12.3323 1015 56.803 1379.71 538.747
1659 0 85.2788 13.6024 1160 55.7009 1378.98 535.145
1660 0 88.1164 12.2111 1076 57.0864 1378.84 534.81
1661 0 90.235 12.2458 1105 57.7131 1379.46 532.929
1662 1 49.2147 10.9723 540 56.0148 1379.22 556.659
1663 0 52.2881 11.8574 620 55.2823 1378.89 555.505
1664 0 52.2881 11.953 625 148.301 1378.86 555.482
1665 0 54.1142 11.9377 646 56.0294 1378.47 555.731
1666 0 55.1003 11.2341 619 57.1761 1378.19 553.023
1667 0 59.1369 13.0883 774 54.9018 1378.97 551.547
1668 0 60.2314 11.5056 693 56.2569 1378.68 553.211
1669 0 61.0937 12.0471 736 55.5421 1378.97 550.296
1670 0 64.2115 12.8014 822 54.1436 1378.67 550.052
1671 0 66.1242 12.0833 799 54.9524 1378.96 547.344
1672 0 68.2125 11.8746 810 54.6543 1378.95 546.506
1673 0 70.2078 11.2808 792 54.8624 1378.29 546.414
1674 0 74.1173 12.3048 912 53.5581 1378.17 544.944
1675 0 75.2099 13.2296 995 52.8573 1377.49 544.404
1676 0 79.1806 12.1621 963 53.7259 1377.28 543.218
1677 0 80.2948 12.5537 1008 53.3621 1377.12 543.164
1678 1 41.2343 9.89468 408 55.1961 1376.73 561.331
1679 0 45.3639 10.9118 495 53.5293 1376.04 560.343
1680 0 45.5419 10.4519 476 55.1849 1375.75 558.223
1681 0 45.4162 10.657 484 54.938 1375.86 558.992
1682 0 48.5722 11.5498 561 54.0642 1376.18 557.282
1683 0 51.3682 12.3617 635 52.6976 1376.46 557.369
1684 0 50.4241 11.5223 581 53.21 1377.17 555.664
1685 0 52.7103 12.8628 678 52.087 1376.44 555.888
1686 0 52.5013 12.9521 680 52.0471 1376.26 554.051
1687 0 53.3412 12.1669 649 53 1375.73 554.498
1688 0 57.465 12.2857 706 52.4023 1375.99 554.164
1689 0 56.4139 11.8765 670 53.6552 1375.96 552.67
1690 0 60.3022 12.6861 765 52.5804 1375.5 553.481
1691 0 61.2687 12.6002 772 52.5363 1375.11 553.319
1692 0 63.2144 12.7661 807 52.3395 1374.95 552.545
1693 0 64.2006 11.7444 754 54.3077 1374.46 551.981
1694 0 66.1412 12.5036 827 53.5405 1374.97 551.949
1695 0 68.1769 12.6582 863 53.4635 1375.52 550.415
1696 0 71.1313 13.7352 977 52.0235 1375.37 551.278
1697 0 72.1287 12.7966 923 53.6956 1375.46 549.046
1698 0 73.2335 13.1224 961 53.9209 1375.55 546.685
1699 0 77.1637 13.8666 1070 52.5009 1375.51 546.575
1700 0 78.3002 12.7458 998 53.9569 1375.32 546.096
1701 0 82.2069 13.7945 1134 53.082 1375.14 545.446
1702 0 86.2841 14.5797 1258 52.3275 1374.94 541.153
1703 0 88.2462 13.0997 1156 54.051 1374.76 539.516
1704 0 91.3657 13.0684 1194 54.2111 1374.44 539.65
1705 1 51.2625 10.2609 526 55.3992 1374.77 559.549
1706 0 55.5079 11.692 649 54.433 1374.15 557.496
1707 0 55.2489 11.7649 650 54.6569 1374.68 558.726
1708 0 56.2922 12.3996 698 53.7149 1374.5 554.65
1709 0 59.1261 12.4311 735 53.381 1374.47 556.361
1710 0 60.1603 13.5139 813 52.8733 1373.74 555.076
1711 0 64.2003 14.1277 907 51.0662 1374.62 552.33
1712 0 64.136 12.7541 818 53.0355 1374.47 553.48
1713 0 66.2132 13.1545 871 52.7026 1374.21 554.06
1714 0 67.1786 14.3945 967 51.5522 1374.43 551.314
1715 0 68.1101 13.023 887 52.8918 1374.77 551.493
1716 0 72.0965 12.8023 923 52.9025 1375 551.27
1717 0 71.1738 13.2211 941 53.1881 1375.5 548.728
1718 0 74.0862 13.3493 989 52.3741 1375.77 546.635
1719 0 76.1336 13.8704 1056 51.8201 1375.29 546.323
1720 0 78.0481 13.3379 1041 52.1402 1374.8 545.477
1721 0 82.1134 14.0172 1151 50.8879 1375.61 544.515
1722 0 84.3244 12.6891 1070 51.8944 1375.05 543.598
1723 0 86.2154 13.5591 1169 51.3345 1375.63 539.708
1724 0 91.1803 14.1588 1291 50.2486 1375.68 537.772
1725 0 93.1202 12.5322 1167 51.2082 1375.57 540.154
1726 1 49.1725 10.331 508 52.1791 1375.45 558.795
1727 0 55.1242 11.3199 624 51.1667 1375.2 557.981
1728 0 55.1857 11.6878 645 50.5194 1375.7 557.226
1729 0 59.0498 11.7697 695 49.2849 1375.99 557.294
1730 0 59.0663 13.9674 825 48.4291 1376.56 554.332
1731 0 62.1353 13.2936 826 47.9564 1377.68 552.278
1732 0 62.1528 11.9544 743 48.9421 1378.08 552.82
1733 0 64.082 12.6869 813 47.9004 1378.23 552.17
1734 0 68.2153 13.1202 895 47.3721 1379 550.297
1735 0 69.1471 13.9558 965 46.9523 1379.26 549.38
1736 0 69.2063 12.5278 867 48.9862 1378.97 549.584
1737 0 72.2977 12.9188 934 49.1606 1378.8 546.59
1738 0 76.2659 13.0202 993 48.718 1379.71 543.627
1739 0 78.5653 13.2629 1042 48.2917 1379.63 544.591
1740 0 79.5248 12.6879 1009 48.7106 1379.69 542.753
1741 0 81.4065 12.4192 1011 48.908 1380.41 541.197
1742 0 84.2862 13.3593 1126 48.2771 1379.83 538.258
1743 0 88.2875 13.3994 1183 47.7219 1379.67 536.616
1744 0 89.2754 13.2175 1180 48.0525 1380.51 534.86
1745 0 93.3023 14.1797 1323 47.3961 1380.69 534.571
1746 0 96.7956 13.9882 1354 47.4092 1380.64 531.736
1747 0 99.7085 13.2687 1323 47.4686 1380.85 526.217
1748 0 102.716 13.0943 1345 47.8424 1381.76 527.059
1749 1 55.7219 11.2523 627 47.4242 1381.73 552.802
1750 0 55.8127 11.0369 616 47.3977 1381.98 550.367
1751 0 58.7359 11.1516 655 48.0198 1382.41 548.192
1752 0 61.3355 12.8474 788 46.2563 1382.64 549.898
1753 0 64.8941 12.9133 838 46.0692 1382.69 547.569
1754 0 67.4303 13.095 883 46.2084 1382.27 546.834
1755 0 70.3119 12.2454 861 46.662 1382.22 547.721
1756 0 69.3969 12.0899 839 47.9416 1382.45 545.284
1757 0 72.5484 13.4807 978 46.7188 1382.07 545.086
1758 0 74.8792 12.5402 939 47.4558 1381.9 544.687
1759 0 77.828 13.3243 1037 46.7377 1381.8 542.732
1760 0 77.5707 12.8657 998 47.8717 1381.42 540.921
1761 0 81.8002 12.2249 1000 48.545 1381.34 539.465
1762 0 86.797 13.4106 1164 47.1778 1380.97 537.797
1763 0 84.6172 12.1016 1024 49.3828 1381.44 534.733
1764 0 90.8692 12.6445 1149 48.993 1380.47 533.282
1765 0 95.7013 12.7898 1224 48.7402 1380.32 533.877
1766 0 98.6708 13.5805 1340 47.9575 1380.63 532.181
1767 1 53.3281 11.1199 593 48.2513 1379.79 553.902
1768 0 54.3502 11.5731 629 48.6948 1380.44 550.108
1769 0 55.268 11.7247 648 49.7454 1380.92 553.079
1770 0 58.1859 12.3741 720 48.9056 1381.92 550.864
1771 0 59.2455 12.963 768 48.2747 1380.75 550.648
1772 0 62.1993 12.3474 768 49.5339 1380.1 550.064
1773 0 64.0879 11.8431 759 49.6364 1379.84 551.485
1774 0 65.2623 12.7179 830 49.1916 1379.95 549.727
1775 0 67.294 12.7649 859 49.2084 1379.98 547.341
1776 0 69.2188 13.0312 902 48.949 1379.75 546.553
1777 0 72.315 12.1966 882 49.5442 1379.71 545.951
1778 0 75.4615 13.7686 1039 48.4639 1379.54 545.334
1779 0 76.6555 13.7759 1056 48.6581 1380.38 544.637
1780 0 78.5916 13.8055 1085 48.9889 1379.84 541.837
1781 0 81.3306 13.7832 1121 48.7047 1379.22 542.241
1782 0 82.5441 13.7381 1134 48.9153 1379.49 540.42
1783 0 85.4763 13.3955 1145 49.1624 1379.29 539.997
1784 0 88.3707 14.5636 1287 47.9441 1379.15 538.685
1785 0 89.8633 12.9975 1168 49.5471 1378.73 536.945
1786 0 94.8807 13.5222 1283 48.9696 1378.69 534.701
1787 0 95.7732 13.8765 1329 48.8751 1378.67 533.535
1788 0 101.107 14.8259 1499 47.6117 1378.29 533.337
1789 0 102.64 14.3121 1469 48.3479 1377.77 529.436
1790 0 108.347 14.0567 1523 48.1589 1377.72 527.093
1791 1 52.5507 10.4661 550 49.8145 1377.35 556.216
1792 0 55.6198 11.4887 639 48.5587 1377.12 556.228
1793 0 57.5051 13.251 762 47.8661 1377.58 554.916
1794 0 58.4527 12.54 733 47.9277 1377.95 554.164
1795 0 59.5334 13.5386 806 47.5993 1377.58 553.226
1796 0 60.4457 13.4005 810 48.0383 1377.91 551.51
1797 0 60.4457 13.4005 810 159.011 1377.91 551.536
1798 0 66.7899 13.6398 911 47.3052 1376.99 551.515
1799 0 66.599 13.2735 884 48.4864 1377.09 549.8
1800 0 70.2332 14.0247 985 47.1675 1376.69 549.176
1801 0 69.5586 13.8445 963 47.7799 1376.52 548.432
1802 0 72.4766 13.494 978 48.4039 1376.9 545.15
1803 0 74.3593 13.9189 1035 48.0647 1376.66 546.654
1804 0 77.5102 13.2886 1030 48.999 1376.83 543.707
1805 0 80.604 13.5725 1094 48.7559 1376.82 543.352
1806 0 85.5428 14.0164 1199 48.0183 1376.53 542.852
1807 0 86.6259 14.3144 1240 48.2815 1375.84 539.056
1808 0 89.2402 13.4917 1204 48.9892 1376.17 538.261
1809 0 92.6146 13.4104 1242 48.9002 1376.57 538.168
1810 0 94.3914 13.4758 1272 49.0833 1376.34 537.654
1811 0 98.5002 14.8832 1466 47.5975 1376.99 537.942
1812 1 55.4957 11.136 618 48.9369 1376.02 558.879
1813 0 56.2162 11.8115 664 48.506 1376.27 556.678
1814 0 55.3392 12.4505 689 48.582 1376.29 556.254
1815 0 59.3512 12.8051 760 48.3684 1376.9 554.914
1816 0 61.1554 12.7053 777 48.3655 1377.19 554.691
1817 0 62.159 12.8059 796 48.7198 1378.04 552.618
1818 0 66.0914 13.8293 914 47.8709 1378.09 549.676
1819 0 67.0599 14.0471 942 47.8312 1377.72 549.994
1820 0 70.0815 13.7697 965 48.058 1378.44 551.073
1821 0 70.0898 12.7408 893 49.5588 1378.16 547.601
1822 0 73.1284 13.4695 985 48.5797 1378.04 547.16
1823 0 77.1805 14.3819 1110 47.5378 1378.07 546.168
1824 0 78.1142 14.2356 1112 48.259 1378.17 542.927
1825 0 80.1513 13.4246 1076 48.9136 1378.35 545.294
1826 0 83.0773 14.3842 1195 48.2042 1378.2 542.275
1827 0 85.0563 13.9202 1184 49.0946 1378.04 540.885
1828 0 88.2087 14.5224 1281 48.9446 1378.35 537.884
1829 1 47.0536 11.4338 538 50.3978 1377.39 559.671
1830 0 49.0325 11.3802 558 50.276 1378.27 559.495
1831 0 51.0778 11.2182 573 50.897 1378.75 557.34
1832 0 50.3112 11.6078 584 51.351 1379.38 555.993
1833 0 53.1804 13.0499 694 49.6715 1379.57 555.909
1834 0 55.0408 14.1531 779 49.0334 1378.52 554.365
1835 0 56.0415 13.5435 759 49.9249 1378.41 555.785
1836 0 56.0698 13.073 733 50.9195 1378.3 553.719
1837 0 60.0338 13.2259 794 49.7695 1378.7 554.83
1838 0 61.1985 13.2356 810 50.584 1379.39 551.983
1839 0 62.0985 13.8168 858 50.6608 1379.59 551.825
1840 0 65.1472 14.1372 921 50.1564 1379.92 549.392
1841 0 66.0577 13.1854 871 51.2193 1380.05 549.631
1842 0 69.1384 14.0154 969 50.7214 1380.65 547.116
1843 0 70.151 14.1694 994 50.8803 1381.33 546.7
1844 0 74.1407 14.9041 1105 49.8742 1381.65 546.118
1845 0 76.1209 13.8595 1055 51.4682 1381.15 545.17
1846 0 78.0589 14.2969 1116 51.3826 1381.31 544.522
1847 0 81.1566 14.4166 1170 50.988 1382.02 539.559
1848 0 83.2058 13.3284 1109 52.0613 1381.7 539.444
1849 0 84.1235 13.0404 1097 53.1012 1381.72 537.228
1850 0 88.1284 12.5839 1109 53.395 1381.78 539.06
1851 1 50.1233 11.6513 584 53.101 1381.75 556.866
1852 0 50.3205 12.1819 613 53.0065 1382.12 555.976
1853 0 53.0896 13.1664 699 51.3863 1382.12 556.278
1854 0 53.0862 12.7528 677 52.1182 1382.51 553.678
1855 0 55.1028 14.3369 790 49.8975 1382.43 554.535
1856 0 56.0383 12.3665 693 51.8773 1382.52 553.3
1857 0 58.2372 12.4319 724 51.9268 1382.46 551.653
1858 0 60.1566 13.5979 818 50.6614 1381.34 550.891
1859 0 62.0457 14.7633 916 49.3624 1381.81 548.457
1860 0 65.1737 12.5664 819 51.5128 1381.63 550.138
1861 0 65.3928 13.396 876 51.0811 1381.72 547.607
1862 0 66.1826 13.7498 910 51.3341 1381.11 546.168
1863 0 69.1278 14.2924 988 49.9251 1381.16 548.645
1864 0 70.2206 14.9814 1052 50.1464 1380.96 546.112
1865 0 71.082 13.5477 963 51.9761 1380.55 545.667
1866 0 75.2575 13.3143 1002 51.3922 1380.23 546.838
1867 0 78.1377 13.5018 1055 51.9886 1380.28 543.519
1868 0 80.1994 13.9403 1118 51.9982 1380.39 542.318
1869 0 80.1992 12.9303 1037 53.244 1379.81 541.443
1870 0 82.2677 13.6992 1127 53.1633 1380.47 540.818
1871 0 86.2418 12.2678 1058 52.9026 1380.2 541.696
1872 0 90.2491 13.6289 1230 51.7854 1380.09 537.911
1873 0 93.0993 13.5554 1262 52.3082 1380.23 536.376
1874 0 94.2857 13.5333 1276 52.8683 1379.85 534.397
1875 0 99.4536 14.1372 1406 51.7148 1379.58 532.232
1876 0 100.117 13.7039 1372 52.5918 1379.37 532.11
1877 1 51.0413 11.4417 584 53.3442 1379.8 556.476
1878 0 55.2135 12.0623 666 52.503 1379.68 556.327
1879 0 56.2237 13.1795 741 51.6019 1379.25 555.024
1880 0 57.2102 12.9347 740 52.3176 1378.32 553.935
1881 0 61.1802 13.1415 804 51.6418 1379.21 552.92
1882 0 61.1802 13.1415 804 165.978 1379.21 552.92
1883 0 64.1785 13.4001 860 51.1628 1378.43 550.817
1884 0 67.3148 12.9838 874 51.6602 1378.12 548.064
1885 0 68.3514 13.6939 936 51.6816 1377.94 549.217
1886 0 70.1118 13.2931 932 52.0064 1377.92 549.406
1887 0 72.335 13.949 1009 51.8692 1377.75 548.261
1888 0 75.1601 13.265 997 51.9168 1377.28 548.156
1889 0 79.1047 13.4126 1061 51.8643 1377.54 544.548
1890 0 79.2571 12.9326 1025 52.0449 1376.78 542.948
1891 0 83.3785 12.8091 1068 52.0412 1377.28 540.774
1892 1 45.0351 11.4133 514 53.1926 1377.75 556.307
1893 0 45.0566 11.8074 532 52.438 1378.07 556.703
1894 0 48.2089 11.8443 571 51.7758 1378.15 555.835
1895 0 49.108 11.2813 554 52.0181 1377.86 555.836
1896 0 49.0119 12.446 610 51.6836 1377.37 554.702
1897 0 50.07 12.3427 618 52.2864 1377.95 553.735
1898 0 52.0964 12.2849 640 52.3656 1377.6 552.766
1899 0 55.1096 13.2463 730 51.4603 1377.41 552.801
1900 0 56.0348 12.2781 688 52.2137 1377.22 550.874
1901 0 60.3327 13.1272 792 51.2386 1376.81 554.92
1902 0 62.3744 13.7717 859 51.1257 1376.78 552.765
1903 0 63.1863 13.2149 835 52.321 1376.18 551.315
1904 0 65.2088 12.7897 834 52.7242 1376.19 550.424
1905 0 66.4942 13.2342 880 52.5261 1375.95 550.758
1906 0 70.2437 14.6917 1032 51.0891 1375.41 548.887
1907 0 72.1862 13.2297 955 52.4754 1375.56 548.551
1908 0 74.3234 13.226 983 52.7396 1376.37 549.101
1909 0 76.433 14.3524 1097 52.175 1375.7 545.386
1910 0 79.1546 13.341 1056 53.3769 1375.36 544.11
1911 0 82.2725 13.8199 1137 53.1996 1375.48 543.604
1912 0 85.3741 14.8054 1264 52.3821 1375.42 542.116
1913 0 88.661 14.4483 1281 52.6932 1375.18 540.596
1914 0 91.3325 15.252 1393 52.3166 1375.03 537.981
1915 1 51.235 12.1401 622 53 1374.16 559.947
1916 0 53.3778 11.9525 638 54.185 1374.93 559.024
1917 0 53.1671 12.0751 642 55.1402 1374.51 558.748
1918 0 56.4156 13.4183 757 53.9841 1373.98 556.394
1919 0 59.5697 13.3625 796 55.3681 1374.11 554.624
1920 0 58.5367 13.0516 764 56.4673 1375.66 552.856
1921 0 59.2923 13.5599 804 56.4689 1375 552.898
1922 0 64.2676 13.5216 869 56.2716 1375 551.992
1923 0 66.5167 13.1396 874 56.7597 1374.46 551.243
1924 0 68.6268 14.4696 993 55.5106 1374.39 550.004
1925 0 70.4862 13.4778 950 56.5737 1373.81 550.125
1926 0 71.4904 14.2257 1017 56.1917 1373.83 548.265
1927 0 74.6953 13.535 1011 57.3215 1373.98 547.501
1928 0 78.4321 13.3109 1044 57.2443 1373.71 547.299
1929 0 80.3685 14.3713 1155 56.4519 1373.38 544.855
1930 1 43.1869 11.4155 493 57.9554 1373.75 562.59
1931 0 44.2449 11.9562 529 58.6616 1374.09 561.682
1932 0 46.2291 12.3732 572 57.9126 1374.23 562.105
1933 0 45.2932 13.1366 595 58.5378 1374.1 561.284
1934 0 50.2933 13.3417 671 56.7854 1374.34 560.112
1935 0 50.2484 12.9357 650 58.0954 1374.01 559.385
1936 0 51.3319 12.9744 666 58.8544 1374.24 558.147
1937 0 51.2128 12.9265 662 59.6601 1374.51 556.755
1938 0 54.386 13.1284 714 58.612 1374.47 557.704
1939 0 56.3323 13.1718 742 59.1577 1374.44 556.481
1940 0 58.7892 13.1827 775 58.569 1375.07 554.908
1941 0 59.6265 12.9808 774 59.0245 1374.86 555.102
1942 0 61.5553 13.5001 831 58.7653 1375.38 553.32
1943 0 62.3505 12.8307 800 59.53 1375.57 551.571
1944 0 64.5084 13.6881 883 57.3296 1375.86 550.162
1945 0 67.2696 13.8844 934 56.3972 1375.85 550.687
1946 0 68.6917 14.7179 1011 55.5618 1376.43 548.37
1947 0 70.3215 14.1209 993 56.7644 1376 547.425
1948 0 72.358 13.5299 979 57.0347 1376.03 547.121
1949 0 76.5583 14.6686 1123 55.4043 1375.91 545.74
1950 0 77.5425 14.0955 1093 56.0091 1376.04 544.764
1951 0 78.6204 14.0167 1102 56.5209 1376.24 543.032
1952 0 80.6528 13.9983 1129 56.5695 1376.67 542.027
1953 0 85.29 14.5855 1244 55.6519 1377.02 540.387
1954 0 87.5287 15.2179 1332 55.3378 1376.73 539.647
1955 0 91.3297 14.5407 1328 55.3735 1376.98 539.642
1956 0 91.4787 14.2656 1305 56.3257 1377.53 537.346
1957 0 95.51 14.5744 1392 55.4864 1377.6 535.177
1958 0 98.432 14.5888 1436 55.7772 1377.58 531.692
1959 0 102.378 14.9837 1534 54.7112 1377.89 531.598
1960 0 105.528 14.1289 1491 55.3588 1377.93 530.229
1961 0 107.499 14.5583 1565 55.0709 1378.03 526.227
1962 0 113.458 14.8337 1683 54.5365 1377.58 524.431
1963 1 61.4308 11.0205 677 56.4077 1378.02 552.467
1964 0 64.6303 11.8056 763 55.4168 1377.96 550.4
1965 0 67.4572 12.4672 841 55.2235 1377.93 547.636
1966 0 69.3366 13.5426 939 53.7721 1377.96 547.321
1967 0 72.3865 13.5661 982 54.1772 1378.21 546.414
1968 0 74.2887 13.7841 1024 53.3965 1378.64 545.481
1969 0 76.579 14.0247 1074 53.6043 1378.78 544.251
1970 0 79.3147 13.4149 1064 54.2744 1379.25 542.285
1971 0 80.4854 13.518 1088 54.7233 1379.15 540.777
1972 0 84.3657 14.8164 1250 53.3008 1379.14 536.713
1973 0 88.75 14.5915 1295 53.2958 1379.56 536.046
1974 0 91.4996 14.2733 1306 53.6585 1379.95 535.069
1975 0 93.5082 13.6673 1278 54.8991 1380.58 531.052
1976 0 97.8413 14.0431 1374 53.9258 1380.47 531.619
1977 0 100.619 13.7349 1382 54.6404 1380.07 531.242
1978 0 103.862 14.3074 1486 54.1709 1380.49 529.851
1979 0 106.508 13.5201 1440 55.2014 1380.25 527.237
1980 0 110.788 14.424 1598 54.3567 1380.34 524.059
1981 0 112.827 13.924 1571 54.9217 1380.72 523.204
1982 0 117.774 13.908 1638 54.9432 1380.97 521.311
1983 0 122.499 14.7349 1805 54.2726 1381.16 517.57
1984 0 126.544 14.248 1803 54.7992 1381.31 516.785
1985 0 129.521 14.4841 1876 54.9339 1380.91 511.909
1986 1 72.5211 12.1896 884 55.5566 1380.81 541.314
1987 0 78.4849 14.0282 1101 53.4696 1380.4 541.112
1988 0 76.4551 13.7205 1049 55.0315 1380.25 537.738
1989 0 78.4087 14.2969 1121 54.6289 1379.97 535.756
1990 0 83.7636 14.1231 1183 54.2443 1380.11 533.879
1991 0 86.5668 13.9083 1204 54.6744 1380.36 532.699
1992 0 89.6652 14.5318 1303 53.4927 1380.74 530.364
1993 0 92.3972 13.7775 1273 54.3433 1380.01 530.505
1994 0 94.6041 12.7267 1204 55.5365 1379.56 527.977
1995 0 99.52 13.4747 1341 54.7323 1379.43 527.874
1996 0 102.666 13.5586 1392 54.8728 1379.23 524.546
1997 0 101.534 13.3059 1351 56.097 1378.99 521.113
1998 0 109.535 13.7947 1511 55.1132 1379.21 521.431
1999 0 111.51 13.8283 1542 55.3495 1379.18 518.137
2000 0 116.494 14.0951 1642 54.9208 1380.04 518.446
2001 0 120.301 13.9068 1673 55.1405 1379.64 514.056
2002 0 123.433 14.2345 1757 55.2083 1378.89 512.461
2003 0 130.348 14.7298 1920 53.9885 1378.84 513.169
2004 0 134.497 13.5393 1821 55.4388 1379.11 507.979
2005 1 74.2857 10.9308 812 56.7106 1378.2 538.819
2006 0 76.2075 12.2298 932 55.8401 1378.11 537.85
2007 0 80.2407 12.6121 1012 55.7184 1378.25 536.067
2008 0 82.2377 13.3151 1095 55.0557 1377.93 536.437
2009 0 84.3391 13.1849 1112 55.6376 1377.94 531.971
2010 0 86.1895 13.4935 1163 55.6182 1378.61 530.729
2011 0 87.42 12.8003 1119 56.3307 1378.73 531.249
2012 0 92.2289 13.1087 1209 55.4607 1378.24 530.157
2013 0 94.2974 13.5953 1282 55.0484 1378.34 527.99
2014 0 96.334 12.8304 1236 56.2856 1377.86 525.777
2015 0 99.1867 13.6107 1350 55.1556 1377.43 524.527
2016 0 102.174 13.9272 1423 55.1244 1377.07 523.647
2017 0 106.24 13.2248 1405 55.5758 1377.16 522.927
2018 0 106.3 12.8881 1370 56.1409 1377.31 520.747
2019 0 113.385 13.4322 1523 54.9554 1378.08 518.924
2020 0 116.669 14.3483 1674 53.7348 1377.95 517.552
2021 0 119.244 13.3005 1586 55.261 1378.04 515.293
2022 0 125.281 14.2719 1788 53.6202 1378.08 517.686
2023 0 130.297 13.569 1768 54.4225 1377.85 513.136
2024 0 134.365 13.9917 1880 53.8973 1377.8 511.894
2025 0 138.734 13.4142 1861 54.7485 1377.39 510.622
2026 0 143.711 14.6753 2109 53.137 1377.22 507.133
2027 1 79.7131 9.32093 743 54.6016 1376.66 541.507
2028 0 83.3267 10.5848 882 53.4739 1377.27 540.845
2029 0 88.3663 11.8145 1044 53.363 1376.77 535.006
2030 0 90.4648 12.0378 1089 53.0028 1376.83 532.679
2031 0 92.7262 11.3668 1054 54.1357 1376.85 532.377
2032 0 98.399 13.1099 1290 52.3426 1377.96 532.187
2033 0 100.536 12.5726 1264 53.163 1377.33 529.324
2034 0 102.97 11.9355 1229 53.8007 1377.12 527.176
2035 0 108.639 12.8499 1396 52.9277 1377.06 524.747
2036 0 112.525 13.4814 1517 51.4318 1376.78 526.046
2037 0 116.417 11.9226 1388 53.3963 1376.92 521.349
2038 0 117.52 13.0531 1534 52.0482 1376.98 522.398
2039 0 120.566 12.151 1465 53.1051 1376.75 518.051
2040 1 72.453 9.84087 713 49.54 1376.73 550.85
2041 0 74.3496 9.65708 718 49.3677 1376.61 549.574
2042 0 74.2866 9.63835 716 49.8045 1376.62 547
2043 0 77.2232 11.4085 881 48.5857 1377.03 542.639
2044 0 82.3376 11.5014 947 47.7149 1376.7 545.054
2045 0 84.1525 13.1903 1110 47.0694 1376.25 544.431
2046 0 86.2246 11.3541 979 48.8999 1376.82 540.092
2047 0 88.2232 11.7883 1040 48.625 1376.43 540.479
2048 0 90.1641 11.9116 1074 48.7356 1376.58 534.033
2049 0 94.1381 10.8989 1026 49.5585 1375.15 535.472
2050 0 97.2856 12.232 1190 48.4361 1375.15 534.303
2051 0 102.288 11.8587 1213 48.4847 1374.86 534.043
2052 0 104.247 12.173 1269 48.7132 1375.8 530.395
2053 0 107.277 11.6614 1251 49.7546 1375.32 528.638
2054 1 62.0931 9.38913 583 50.0086 1374.99 553.472
2055 0 64.1051 10.124 649 49.1248 1375.01 554.687
2056 0 61.0917 9.47755 579 51.0553 1375.45 553.703
2057 0 66.0908 10.5461 697 50.6829 1375.62 551.803
2058 0 67.2811 11.9201 802 50.1272 1375.31 551.297
2059 0 66.1818 11.408 755 51.3563 1375.58 550.061
2060 0 69.2243 10.3576 717 51.8075 1375.2 550.099
2061 0 71.2198 10.8537 773 50.8732 1374.86 546.972
2062 0 75.317 11.2192 845 49.8876 1374.64 547.085
2063 0 77.3607 11.1038 859 50.2759 1374.01 545.969
2064 0 81.2573 12.0235 977 49.1996 1374.04 543.162
2065 0 84.2127 11.9934 1010 49.2584 1374.75 544.157
2066 0 86.1472 12.2001 1051 49.4148 1374.86 543.297
2067 0 87.228 10.7649 939 51.0341 1375.18 539.95
2068 0 92.139 11.8734 1094 50.5137 1375.31 539.838
2069 0 93.3855 11.1473 1041 51.196 1375.55 538.207
2070 0 97.2388 11.2198 1091 51.1192 1375.02 535.345
2071 0 102.524 12.4458 1276 49.2524 1375.69 534.072
2072 1 55.579 10.3097 573 49.7888 1376.68 555.977
2073 0 56.4159 9.73131 549 50.6667 1376.95 554.281
2074 0 58.3982 10.0174 585 50.4274 1376.63 555.318
2075 0 61.4784 12.1506 747 48.5221 1375.49 552.238
2076 0 60.4461 11.1339 673 49.3952 1375.87 554.308
2077 0 63.3382 10.9728 695 49.9698 1375.4 551.632
2078 0 65.3006 10.8269 707 49.9406 1376.03 551.932
2079 0 67.3479 12.0123 809 48.8282 1376.18 549.25
2080 0 66.2715 10.1552 673 50.7519 1376.14 546.961
2081 0 68.4879 11.2721 772 49.9443 1376.04 547.88
2082 0 68.3819 11.7575 804 49.8769 1376.88 544.649
2083 0 73.2466 12.5603 920 48.8033 1377.54 542.176
2084 0 75.7236 12.0966 916 49.488 1378.41 543.73
2085 0 76.5934 12.9123 989 49.3084 1377.65 541.819
2086 0 76.5934 12.9254 990 138.697 1376.64 541.819
2087 0 80.3225 11.9643 961 50.3757 1378.05 538.955
2088 0 82.3669 12.4322 1024 50.1689 1377.86 539.787
2089 0 84.3212 12.6777 1069 50.8054 1377.82 536.234
2090 1 45.3214 9.84082 446 52.0471 1377.83 556.966
2091 0 49.169 10.3317 508 51.4016 1377.87 557.281
2092 0 47.3731 10.7445 509 51.6208 1379.37 556.371
2093 0 50.3647 11.2579 567 51.0423 1381.2 553.439
2094 0 51.4338 9.95454 512 52.3184 1381.21 554.049
2095 0 53.3355 10.6121 566 52.0283 1381.06 552.23
2096 0 55.5816 12.9539 720 50.2139 1380.63 550.528
2097 0 58.3364 12.7708 745 50.2201 1380.62 550.744
2098 0 60.3547 12.4265 750 50.5773 1380.87 549.244
2099 0 61.538 11.8301 728 51.3159 1380.37 547.853
2100 0 59.524 10.752 640 53.1656 1380.08 546.102
2101 0 62.4789 12.8203 801 51.2522 1380.27 547.31
2102 0 66.3917 12.6672 841 51.0785 1380.22 545.561
2103 0 66.2928 12.7616 846 51.6738 1381.05 543.726
2104 0 70.2289 12.2741 862 51.7981 1381.42 544.593
2105 0 71.3384 13.499 963 51.1049 1381.55 545.33
2106 0 74.3288 13.8439 1029 50.5258 1381.68 544.93
2107 0 74.5224 12.1977 909 52.2365 1381.43 541.937
2108 0 77.3423 13.0847 1012 51.5405 1381.52 538.608
2109 0 80.5371 13.3976 1079 51.3457 1381.84 535.737
2110 0 81.296 12.9158 1050 52.0429 1381.6 536.879
2111 0 86.3937 12.1074 1046 52.2361 1381.91 536.03
2112 0 86.6042 12.3435 1069 52.391 1381.4 533.961
2113 0 93.3986 13.3835 1250 50.6384 1382.09 534.547
2114 1 49.234 9.87123 486 51.4177 1382.07 553.473
2115 0 51.4934 10.914 562 50.7438 1381.98 551.53
2116 0 53.3172 9.86549 526 50.4525 1382.08 552.103
2117 0 53.4991 10.0376 537 51.7151 1381.56 550.333
2118 0 57.3968 10.1051 580 50.9293 1381.06 549.995
2119 0 58.5948 12.4072 727 49.1637 1380.68 546.704
2120 0 62.4847 13.7314 858 47.6608 1380.68 548.751
2121 0 61.2917 10.8824 667 50.4933 1380.61 548.885
2122 0 64.2971 11.0736 712 50.6643 1380.46 546.169
2123 0 67.3701 11.8599 799 49.7409 1380.51 543.662
2124 0 67.2899 12.6319 850 49.1294 1380.38 546.544
2125 0 70.312 12.601 886 48.9097 1380.06 544.991
2126 0 69.3213 12.204 846 49.7931 1379.82 543.904
2127 0 72.2639 12.3713 894 50.0682 1379.19 542.591
2128 0 74.2539 13.198 980 49.1367 1379.03 542.311
2129 0 77.1197 12.0073 926 49.9957 1378.34 542.792
2130 0 79.1209 13.4225 1062 49.387 1378.5 542.025
2131 0 81.2986 13.924 1132 49.0415 1377.96 539.094
2132 0 84.137 12.0637 1015 50.5931 1377.98 539.432
2133 0 87.2467 13.1122 1144 49.8811 1377.65 537.13
2134 0 89.1657 12.5721 1121 50.6548 1377.11 534.764
2135 0 92.3692 12.9697 1198 50.404 1377.45 533.834
2136 1 55.1172 11.3576 626 49.155 1377.1 555.853
2137 0 54.1481 9.99112 541 50.7209 1378.44 554.207
2138 0 55.3503 11.4362 633 50.1785 1378.69 551.957
2139 0 56.2285 11.6667 656 50.25 1378.1 551.476
2140 0 58.0842 10.7947 627 49.1962 1377.42 553.51
2141 0 61.1422 13.1006 801 48.6355 1376.24 550.924
2142 0 61.1422 13.0352 797 146.437 1376.24 550.925
2143 0 66.1182 13.6271 901 48.374 1376.92 550.007
2144 0 67.1217 13.2744 891 48.7767 1377.14 551.567
2145 0 69.3618 13.5089 937 48.2583 1376.69 550.309
2146 0 69.2819 12.4564 863 49.8969 1376.29 546.436
2147 0 73.2346 13.3543 978 48.6503 1376.82 547.201
2148 0 75.3712 13.9311 1050 48.22 1376.93 546.784
2149 0 75.1974 13.4978 1015 48.8384 1377.03 545.841
2150 0 79.2289 13.4168 1063 48.413 1376.93 544.745
2151 0 79.3026 13.417 1064 49.5273 1377.06 541.582
2152 0 81.2556 12.9099 1049 49.9924 1377.37 541.251
2153 0 85.25 13.4428 1146 49.3298 1378 538.852
2154 0 89.4179 12.8945 1153 49.6071 1378.13 538.078
2155 0 88.3066 12.434 1098 50.4945 1377.63 535.041
2156 0 94.406 12.7534 1204 49.7267 1377.69 534.783
2157 0 99.2647 14.3958 1429 47.6991 1377.6 533.318
2158 0 99.2632 13.8017 1370 48.5547 1377.32 530.736
2159 0 106.318 14.278 1518 47.666 1377.47 529.09
2160 0 107.364 11.9593 1284 49.7819 1376.77 526.565
2161 0 112.357 12.3267 1385 49.2773 1376.75 525.299
2162 1 59.1409 10.9231 646 48.7755 1376.93 551.647
2163 0 61.1426 10.2874 629 49.4102 1376.9 550.529
2164 0 64.0941 11.2803 723 48.5491 1376.81 550.567
2165 0 67.1548 11.5405 775 48.6658 1377.24 548.426
2166 0 70.228 12.9863 912 47.7401 1376.26 545.815
2167 0 70.2297 12.4734 876 48.4874 1376.08 545.983
2168 0 75.1308 13.3767 1005 47.8537 1376.64 547.497
2169 0 77.3523 12.5142 968 48.5372 1376.38 545.72
2170 0 78.1541 12.8848 1007 48.287 1376.11 543.653
2171 0 84.1597 13.1298 1105 47.2597 1375.7 544.921
2172 0 86.1174 12.6223 1087 48.4416 1375.91 542.26
2173 0 87.1832 12.1927 1063 48.9774 1375 540.367
2174 0 89.1919 12.0527 1075 49.5293 1375.26 541.418
2175 0 94.1462 12.2469 1153 49.4779 1374.97 537.429
2176 0 98.2386 12.8259 1260 48.8778 1374.81 535.863
2177 0 100.196 13.0843 1311 49.2525 1375.17 535.172
2178 0 102.398 12.6858 1299 49.5389 1376.08 534.499
2179 0 106.338 12.6672 1347 50.101 1376.42 532.401
2180 0 109.432 13.4695 1474 49.7123 1376.46 528.957
2181 0 112.557 14.3217 1612 49.1576 1376.17 528.822
2182 0 115.66 13.3494 1544 49.9521 1375.93 528.107
2183 0 119.607 13.7534 1645 49.6614 1376.23 524.306
2184 1 66.2591 10.6702 707 51.0297 1376.81 547.584
2185 0 66.2337 9.17962 608 51.8141 1376.71 549.896
2186 0 68.2099 11.0101 751 50.8402 1376.33 547.28
2187 0 71.1938 10.7032 762 50.8701 1376.6 547.504
2188 0 72.4022 13.0797 947 49.8099 1376.43 546.309
2189 0 76.3087 13.2488 1011 49.4619 1377.1 543.521
2190 0 78.1819 13.0593 1021 50.1792 1376.28 541.596
2191 0 83.3633 13.0153 1085 50.1539 1376.78 543.113
2192 0 85.4821 13.7222 1173 49.9105 1376.63 542.253
2193 0 88.3572 13.8415 1223 49.6958 1377.01 541.403
2194 0 89.2627 13.8356 1235 50.4372 1377.33 538.111
2195 0 93.6007 13.9422 1305 49.7188 1377.52 537.226
2196 0 97.4615 14.0671 1371 49.3939 1378.06 533.929
2197 0 98.5663 13.0369 1285 50.4086 1378.54 531.974
2198 0 101.401 13.1163 1330 50.9887 1378.46 528.224
2199 0 103.422 13.5175 1398 50.0443 1378.7 525.895
2200 0 107.684 13.2796 1430 50.3797 1378.91 524.351
2201 0 111.455 12.606 1405 50.847 1379.31 524.588
2202 0 112.461 13.9249 1566 49.9195 1379.5 523.889
2203 0 116.625 13.4962 1574 50.3691 1379.04 519.45
2204 0 122.428 13.9837 1712 49.8218 1379.79 518.641
2205 0 125.588 14.2211 1786 49.6657 1379.09 519.239
2206 0 125.588 14.1813 1781 147.247 1378.07 519.213
2207 1 75.2872 11.144 839 50.5471 1379.02 542.777
2208 0 74.3028 11.2647 837 50.8459 1378.98 543.373
2209 0 77.4776 12.2487 949 50.4795 1378.67 539.483
2210 0 79.4732 12.8093 1018 50.4882 1379.38 537.53
2211 0 82.3929 13.7148 1130 49.5035 1379.54 539.255
2212 0 84.5002 12.8047 1082 50.451 1379.49 534.75
2213 0 85.3376 12.9954 1109 50.743 1380.33 537.477
2214 0 89.657 14.1986 1273 49.4925 1380.33 534.058
2215 0 91.5646 12.9089 1182 51.5626 1380.03 532.481
2216 0 95.524 13.5673 1296 50.8256 1380.1 530.863
2217 0 97.4087 13.1713 1283 51.523 1381.04 529.234
2218 0 99.3543 13.6079 1352 51.2707 1380.35 528.295
2219 0 103.399 14.1104 1459 50.828 1381.19 528.154
2220 0 109.491 13.9372 1526 51.5269 1381.06 524.426
2221 0 111.501 13.5515 1511 52.5956 1380.77 523.166
2222 0 114.369 13.4389 1537 52.8556 1380.11 521.154
2223 0 119.313 13.3598 1594 53.4279 1380.36 520.13
2224 0 123.59 13.7309 1697 52.9523 1380.9 518.912
2225 1 66.2946 11.1472 739 53.3599 1380.26 545.421
2226 0 68.1395 11.77 802 52.7693 1380.57 544.809
2227 0 69.3889 11.486 797 53.0941 1380 544.921
2228 0 73.2092 12.4028 908 52.3491 1380.65 541.262
2229 0 74.5684 12.6327 942 53.4299 1380.56 542.372
2230 0 78.4972 12.9559 1017 53.0265 1380.2 540.586
2231 0 81.5872 12.2691 1001 53.9091 1380.39 539.894
2232 0 82.3682 12.092 996 54.1586 1380.41 538.739
2233 0 86.3999 15.2199 1315 50.8213 1381.17 534.254
2234 0 88.5812 12.7679 1131 53.336 1381.15 531.495
2235 0 92.5516 12.7172 1177 53.2991 1380.45 531.771
2236 0 95.8437 11.7692 1128 54.1374 1379.86 531.493
2237 0 98.4573 13.3865 1318 52.2686 1379.52 526.982
2238 0 100.509 13.3023 1337 51.9065 1379.75 528.286
2239 0 103.364 13.4766 1393 52.1364 1378.87 525.8
2240 0 103.364 13.4959 1395 139.799 1377.87 525.824
2241 0 109.541 12.4976 1369 52.683 1379.01 523.406
2242 0 111.555 11.7431 1310 53.4046 1379.74 520.957
2243 1 62.3905 9.85728 615 52.5024 1379.46 546.307
2244 0 62.3905 9.95345 621 148.937 1378.49 546.441
2245 0 66.241 10.0995 669 51.6996 1379.31 546.45
2246 0 69.1149 12.3562 854 49.6721 1379.74 545.718
2247 0 70.0712 10.9603 768 51.4206 1380.41 544.491
2248 0 74.0947 11.9577 886 50.5553 1380 542.822
2249 0 77.1449 13.2867 1025 49.4312 1379.79 540.542
2250 0 77.1978 12.7335 983 50.2258 1379.01 541.666
2251 0 80.4736 12.6128 1015 50.2384 1379.31 538.405
2252 0 82.3317 11.648 959 50.9833 1379.33 539.089
2253 0 86.4079 12.5104 1081 50.3608 1379.12 534.111
2254 0 86.3192 12.2105 1054 51.4108 1379.3 534.902
2255 0 91.2693 12.4467 1136 51.1004 1379.08 531.637
2256 0 93.2864 12.9279 1206 50.9909 1378.68 529.337
2257 0 94.4249 12.4649 1177 51.6143 1378.8 529.023
2258 0 101.244 13.5415 1371 50.4719 1378.34 526.794
2259 0 102.236 12.9407 1323 51.6206 1378.36 525.586
2260 0 104.378 13.9015 1451 50.8263 1378.02 524.711
2261 0 105.328 12.988 1368 52.4006 1377.86 523.491
2262 0 111.579 13.4344 1499 51.7612 1378.02 521.282
2263 0 115.487 13.3695 1544 51.91 1378.05 519.204
2264 0 118.355 12.9863 1537 52.3286 1378.56 517.26
2265 0 122.383 14.0379 1718 51.5279 1378.13 516.602
2266 0 123.419 13.1989 1629 52.8029 1378.02 513.235
2267 1 70.1735 11.2721 791 51.8255 1378.3 541.072
2268 0 70.2431 9.90845 696 53.2069 1378.62 540.82
2269 0 77.4173 11.7416 909 50.3696 1378.41 542.358
2270 0 79.2174 12.472 988 50.3917 1378.79 541.177
2271 0 82.2295 12.8421 1056 50.6686 1378.82 541.508
2272 0 84.1968 11.7938 993 51.8882 1378.51 539.578
2273 0 86.3374 13.0419 1126 50.5533 1378.91 536.937
2274 0 86.1349 11.9696 1031 51.7284 1378.6 534.246
2275 0 91.2835 13.2006 1205 50.322 1378.66 535.666
2276 0 95.2277 14.1345 1346 49.2058 1378.38 534.686
2277 0 98.6356 13.4029 1322 49.7663 1378.36 533.856
2278 0 101.609 13.2173 1343 49.9233 1377.84 530.666
2279 0 103.536 13.1065 1357 50.4901 1377.81 529.542
2280 0 106.385 13.3665 1422 50.5436 1377.5 527.258
2281 0 109.649 12.1661 1334 51.2976 1378.17 528.999
2282 0 113.572 13.1546 1494 50.2818 1378.06 524.326
2283 0 118.631 13.5799 1611 49.8864 1377.8 522.896
2284 0 118.417 12.7346 1508 50.8442 1377.82 521.543
2285 0 123.554 13.8724 1714 49.5175 1377.28 522.691
2286 1 71.317 11.2175 800 49.5625 1377.74 549.064
2287 0 70.2203 11.3215 795 50.2478 1377.61 547.687
2288 0 73.27 10.5773 775 50.8284 1376.92 544.683
2289 0 76.2916 12.0328 918 49.5948 1376.86 543.131
2290 0 80.1178 13.7298 1100 47.8227 1377.15 542.712
2291 0 81.1724 12.455 1011 49.1573 1376.85 542.081
2292 0 81.1209 12.5615 1019 49.8135 1376.8 538.592
2293 0 86.3559 12.1937 1053 49.4387 1376.35 540.058
2294 0 88.2789 12.5171 1105 49.7647 1376.28 537.719
2295 0 91.1949 12.8955 1176 49.4082 1376.3 536.758
2296 0 94.2327 13.6046 1282 48.4891 1377.14 537.491
2297 0 95.2177 12.7497 1214 49.6722 1377.44 534.217
2298 0 100.287 13.2221 1326 49.1614 1377.26 532.581
2299 0 102.322 14.5227 1486 48.5673 1377.36 532.185
2300 0 107.386 14.0428 1508 48.8064 1376.81 530.943
2301 0 107.381 14.2949 1535 49.0443 1376.99 527.515
2302 0 111.407 13.6437 1520 49.7882 1376.39 525.911
2303 0 115.514 13.4962 1559 49.7858 1376.49 523.336
2304 0 118.394 12.7287 1507 50.9555 1376.28 521.804
2305 1 67.4182 10.9614 739 49.3532 1376.52 551.855
2306 0 68.4108 10.9193 747 49.9531 1376.54 548.929
2307 0 69.2261 11.0074 762 50.1312 1376.15 549.465
2308 0 74.1014 13.3466 989 48.0546 1376.63 549.133
2309 0 76.1934 13.7413 1047 48.1929 1376.01 550.266
2310 0 76.2411 12.6048 961 50.1374 1376.63 545.604
2311 0 78.0959 12.5103 977 50.5455 1376.85 545.71
2312 0 82.1405 13.9395 1145 49.145 1376.5 544.04
2313 0 83.2453 13.0338 1085 49.682 1376.5 542.205
2314 0 88.2423 13.8709 1224 49.3652 1376.13 540.089
2315 0 92.2147 13.7939 1272 50.4127 1376.47 542.165
2316 0 93.319 13.7807 1286 49.8453 1376.68 539.007
2317 0 93.2513 12.1929 1137 52.1354 1376.46 536.05
2318 0 99.1575 12.9794 1287 51.251 1376.42 534.632
2319 0 101.133 13.9223 1408 51.0589 1376.62 531.141
2320 0 104.149 13.2214 1377 51.6986 1376.77 532.589
2321 0 106.219 11.5704 1229 53.1253 1376.88 530.149
2322 0 112.191 13.6553 1532 51.1181 1377.15 527.544
2323 1 67.0701 11.3911 764 51.4935 1377.38 551.207
2324 0 66.1215 11.2066 741 52.1417 1378.87 549.345
2325 0 68.038 12.4783 849 51.1696 1378.96 550.22
2326 0 71.0951 12.6169 897 50.99 1379.17 547.777
2327 0 72.194 12.4248 897 51.7759 1379.03 544.662
2328 0 73.1979 12.514 916 52.1528 1379.19 543.853
2329 0 76.0808 12.3816 942 52.0265 1379.64 543.135
2330 0 79.2073 12.7766 1012 51.8202 1379.08 541.74
2331 0 81.2098 13.7791 1119 51.4665 1378.87 540.107
2332 0 84.104 13.9946 1177 51.2413 1379.58 539.151
2333 0 84.1778 12.925 1088 52.6939 1379.9 537.714
2334 0 88.097 13.156 1159 52.528 1380.18 535.047
2335 0 93.2953 13.7092 1279 51.62 1380.01 536.218
2336 0 94.2075 13.6613 1287 51.8539 1379.97 534.636
2337 1 53.2464 10.2354 545 53.8532 1379.97 553.604
2338 0 56.1055 10.3377 580 53.1897 1379.83 554.195
2339 0 57.1905 12.3447 706 52.466 1379.46 552.782
2340 0 59.1398 12.8847 762 51.7835 1379.83 552.604
2341 0 60.511 13.4191 812 51.4421 1379.48 549.741
2342 0 62.2824 13.2782 827 51.4813 1379.99 549.716
2343 0 65.2842 13.2498 865 51.2046 1381.11 547.798
2344 0 67.3142 12.7759 860 51.743 1380.57 546.155
2345 0 68.3628 13.1504 899 51.584 1380.53 546.007
2346 0 71.106 13.0931 931 51.1676 1380.42 543.981
2347 0 75.2521 13.9797 1052 49.7424 1381.36 542.625
2348 0 77.578 14.566 1130 49.192 1380.69 541.838
2349 0 79.4469 14.3618 1141 49.4733 1380.75 541.08
2350 0 80.6848 13.9431 1125 50.2951 1380.81 539.381
2351 0 85.9067 14.1782 1218 49.9442 1380.73 537.652
2352 0 86.5033 13.6295 1179 50.6327 1381.14 535.991
2353 0 89.6863 14.7291 1321 49.9508 1380.93 534.236
2354 0 91.6443 13.9125 1275 51.0753 1380.73 531.762
2355 0 95.5439 14.6425 1399 49.9671 1380.98 533.072
2356 0 99.8863 14.4364 1442 50.2913 1380.78 532.59
2357 0 101.616 13.925 1415 51.3265 1381.09 529.203
2358 0 105.798 14.7262 1558 50.7754 1381.13 527.191
2359 0 108.628 14.8857 1617 50.6945 1380.28 524.181
2360 1 59.517 9.92994 591 53.286 1380.01 551.168
2361 0 61.957 12.4764 773 52.7762 1379.96 547.169
2362 0 63.855 11.8393 756 53.6839 1379.94 546.328
2363 0 66.6481 12.5435 836 52.7703 1380.31 546.362
2364 0 69.427 13.5394 940 51.9926 1379.7 545.557
2365 0 71.5165 14.3184 1024 51.4873 1379.36 545.466
2366 0 72.5539 14.5961 1059 51.7309 1379.56 542.998
2367 0 74.0243 13.2929 984 53.3567 1378.92 542.245
2368 0 77.3933 14.4069 1115 52.591 1378.98 540.261
2369 0 78.5746 14.3431 1127 52.9361 1378.91 540.154
2370 0 81.6966 14.6028 1193 52.6102 1378.7 540.452
2371 0 84.9313 14.2115 1207 52.9528 1379.05 536.86
2372 0 85.8815 14.6364 1257 52.8154 1378.3 538.293
2373 0 89.6756 15.4334 1384 51.9191 1378.21 536.527
2374 0 93.6792 15.1688 1421 52.5229 1378.23 533.71
2375 0 92.7175 13.5897 1260 54.9881 1378.29 532.928
2376 0 95.4501 14.6569 1399 53.7641 1378.18 531.255
2377 0 99.8145 14.8075 1478 53.8417 1377.59 531.743
2378 0 103.557 14.9773 1551 53.5306 1377.59 529.88
2379 0 104.528 14.5702 1523 54.3421 1377.72 525.953
2380 0 109.734 14.8723 1632 53.9118 1376.96 528.056
2381 0 110.684 14.5911 1615 54.8087 1377.8 524.373
2382 0 113.672 14.4011 1637 52.62 1377.67 523.246
2383 0 115.621 13.3799 1547 53.8054 1378.24 522.243
2384 0 121.67 14.7037 1789 52.0883 1378.68 521.432
2385 0 125.322 14.371 1801 52.1399 1378.36 520.354
2386 1 68.5017 11.7807 807 53.3346 1377.89 547.819
2387 0 72.628 12.5847 914 52.0667 1378.18 546.557
2388 0 75.4795 12.7319 961 52.488 1378.44 544.253
2389 0 75.6394 12.5067 946 52.8922 1378.15 541.78
2390 0 77.5611 12.6997 985 52.9543 1378.04 543.094
2391 0 79.3426 12.2885 975 53.5497 1378.23 541.553
2392 0 82.3613 14.23 1172 51.6271 1378.24 537.632
2393 0 87.5232 13.2308 1158 52.2798 1378.16 537.694
2394 0 91.4809 14.1997 1299 50.9761 1377.92 536.437
2395 0 91.2499 12.5589 1146 52.8089 1377.72 535.188
2396 0 96.3361 14.055 1354 51.0679 1377.45 533.906
2397 0 99.3266 13.5412 1345 52.0364 1377.75 531.046
2398 0 101.483 13.9433 1415 51.677 1378.67 528.514
2399 0 105.431 13.1081 1382 52.2923 1377.81 527.967
2400 0 107.566 14.1867 1526 51.5668 1377.85 523.894
2401 0 112.444 14.3538 1614 51.518 1377.26 524.696
2402 0 117.376 14.8583 1744 50.7076 1377.48 522.221
2403 0 119.566 13.825 1653 51.7132 1377.16 523.423
2404 1 69.3958 11.5713 803 50.9539 1376.61 549.22
2405 0 71.3809 11.3476 810 51.4802 1376.59 546.585
2406 0 74.2319 13.5117 1003 49.3829 1376.59 545.792
2407 0 77.2922 13.4684 1041 49.367 1376.84 545.476
2408 0 77.1973 13.1611 1016 50.065 1376.56 544.863
2409 0 80.3567 13.241 1064 50.1889 1376.39 541.727
2410 0 82.3793 13.0251 1073 50.2647 1376.04 544.087
2411 0 84.445 12.8723 1087 51.1371 1376.37 538.44
2412 0 86.369 12.7592 1102 51.2786 1376.07 538.783
2413 0 89.2995 12.7324 1137 51.6042 1375.62 534.735
2414 0 91.1826 12.8424 1171 51.462 1375.99 534.788
2415 0 94.3212 13.6131 1284 51.0062 1376.49 533.199
2416 0 98.2976 13.0522 1283 51.2829 1375.83 533.483
2417 0 102.336 13.182 1349 51.1045 1376.24 530.758
2418 0 102.315 12.6667 1296 52.1273 1376.15 528.136
2419 0 106.303 13.0288 1385 51.5993 1376.11 526.214
2420 0 112.314 13.5602 1523 50.7374 1376.56 524.181
2421 0 116.358 13.7077 1595 50.5172 1376.64 521.766
2422 0 122.424 13.9679 1710 50.0029 1376.72 521.88
2423 0 126.531 13.2932 1682 50.6451 1376.68 519.593
2424 0 127.471 12.5911 1605 52.2941 1376.16 515.78
2425 0 132.559 14.4389 1914 50.4791 1375.99 516.052
2426 0 137.381 14.2378 1956 50.7311 1375.64 512.948
2427 1 75.4563 11.225 847 50.9976 1376.44 543.189
2428 0 78.272 10.719 839 51.5578 1376.44 542.993
2429 0 81.5976 12.0592 984 50.2978 1376.1 542.206
2430 0 85.4087 12.2938 1050 50.5571 1376.27 540.291
2431 0 87.7835 12.4966 1097 50.2917 1375.66 541.11
2432 0 90.7865 13.0085 1181 50.2202 1375.9 537.762
2433 0 94.0208 12.0612 1134 51.5617 1375.43 539.208
2434 0 95.9841 13.2105 1268 51.0489 1376.3 538.161
2435 0 99.9198 13.0805 1307 51.3933 1375.99 535.188
2436 0 101.781 12.6939 1292 52.4845 1375.86 534.108
2437 0 102.884 12.1593 1251 53.2158 1376.37 531.553
2438 0 109.854 13.7637 1512 51.8366 1376.08 531.548
2439 0 109.877 12.8325 1410 53.339 1376.16 529.428
2440 0 114.804 14.2069 1631 52.0601 1375.85 526.998
2441 1 63.555 11.313 719 52.9388 1376.11 554.851
2442 0 65.5628 12.3393 809 53.1038 1375.89 553.609
2443 0 65.5347 12.604 826 54.7252 1376.27 550.042
2444 0 65.6245 13.0896 859 54.8498 1376.41 548.255
2445 0 68.6822 12.3322 847 56.0791 1376.06 546.885
2446 0 70.5364 12.6318 891 56.1021 1375.93 546.703
2447 0 74.6827 13.149 982 55.276 1375.45 547.455
2448 0 74.6182 12.9325 965 57.0031 1375.92 543.902
2449 0 77.5511 13.5781 1053 56.1766 1376.28 544.483
2450 0 80.8785 13.0195 1053 57.0617 1376.27 543.16
2451 0 81.4604 12.325 1004 58.5946 1376.59 539.804
2452 0 85.6076 13.9707 1196 57.2258 1376.16 539.106
2453 0 88.3836 14.1316 1249 57.1273 1376.43 538.641
2454 0 90.5526 13.4728 1220 57.9828 1375.94 535.907
2455 0 93.6214 13.8964 1301 56.7517 1376.34 535.573
2456 0 97.3056 13.8944 1352 56.912 1376.65 534.532
2457 0 98.2821 13.97 1373 57.4734 1376.9 533.759
2458 0 100.44 13.5703 1363 58.8078 1376.95 532.604
2459 0 102.488 13.4064 1374 59.754 1377.28 528.14
2460 0 105.386 13.5217 1425 60.0232 1377.61 526.667
2461 0 109.394 13.9222 1523 59.4215 1377.71 524.048
2462 0 113.417 13.684 1552 59.5168 1378 525.09
2463 0 115.337 13.933 1607 60.0292 1378.11 524.217
2464 0 121.263 14.8026 1795 58.8195 1378.1 521.325
2465 0 126.161 14.1089 1780 59.4551 1378.03 518.599
2466 1 71.2555 10.722 764 59.9503 1378.68 547.094
2467 0 73.285 11.4757 841 59.365 1380.29 544.611
2468 0 73.343 12.3256 904 59.2246 1380.6 542.389
2469 0 77.0861 13.0763 1008 57.6855 1379.55 544.658
2470 0 79.0435 12.1832 963 59.3821 1379.79 542.155
2471 0 81.1237 12.2529 994 59.7364 1379.81 539.959
2472 0 83.1252 12.6316 1050 59.2667 1380.87 537.667
2473 0 87.2804 13.279 1159 58.428 1380.93 537.465
2474 0 88.1548 12.841 1132 60.0963 1381 535.282
2475 0 92.0818 13.7052 1262 59.2052 1381 533.734
2476 0 94.27 12.5491 1183 59.8292 1381.16 533.395
2477 0 97.1117 13.6544 1326 59.316 1380.73 529.939
2478 0 101.352 13.7344 1392 58.7802 1380.96 529.637
2479 0 102.195 13.67 1397 59.6235 1380.81 525.926
2480 0 105.287 13.8479 1458 59.0261 1379.92 524.889
2481 0 106.194 12.4771 1325 61.0755 1379.81 523.058
2482 0 110.202 12.6223 1391 60.6183 1379.48 522.846
2483 0 113.335 11.9998 1360 61.9066 1379.93 519.298
2484 0 119.42 13.9172 1662 59.7665 1380.57 517.376
2485 0 124.178 13.8108 1715 59.3312 1380.6 518.241
2486 1 72.2088 11.0513 798 56.5902 1380.82 543.895
2487 0 74.2683 10.5025 780 57.6538 1380.77 542.318
2488 0 75.3038 11.0619 833 57.0072 1380.64 541.342
2489 0 79.1756 11.2282 889 57.1631 1380.92 542.29
2490 0 82.0977 12.8018 1051 55.1817 1380.78 539.441
2491 0 84.1334 11.3154 952 56.9748 1381.63 536.599
2492 0 87.0748 12.1505 1058 55.7089 1381.82 537.75
2493 0 88.1556 12.5347 1105 55.8733 1381.67 535.34
2494 0 90.0852 12.2884 1107 56.5863 1381.25 534.429
2495 0 94.1246 13.4184 1263 54.8757 1381.28 530.66
2496 0 97.1064 13.6551 1326 54.141 1381.38 532.153
2497 0 97.1168 11.7693 1143 56.5354 1381.73 528.654
2498 0 101.101 12.9079 1305 55.0284 1381.52 530.287
2499 0 107.162 13.251 1420 54.0493 1381.83 528.999
2500 0 107.194 11.5212 1235 56.1684 1380.99 526.909
2501 0 111.206 13.2817 1477 54.5592 1380.66 524.865
2502 0 114.14 13.133 1499 54.8592 1380.06 523.019
2503 0 118.153 12.6446 1494 55.1914 1379.71 520.799
2504 0 122.128 11.8646 1449 55.7647 1379.57 518.765
2505 0 127.409 13.0603 1664 54.8335 1379.14 514.924
2506 1 77.1544 11.0039 849 53.3274 1378.27 545.224
2507 0 77.1709 11.5847 894 52.9799 1377.92 543.669
2508 0 79.2061 12.1203 960 52.2354 1378.32 543.339
2509 0 80.2252 11.1312 893 54.2094 1379.2 540.047
2510 0 84.1706 13.1043 1103 52.2738 1379.38 538.597
2511 0 87.212 12.3263 1075 53.0028 1379.62 537.127
2512 0 91.2537 12.0653 1101 52.9927 1379.51 536.39
2513 0 94.2802 13.0886 1234 52.1775 1379.16 533.66
2514 0 96.2868 12.1097 1166 53.4099 1379.16 534.051
2515 0 98.3393 12.2738 1207 52.9884 1379.33 532.465
2516 0 102.575 13.1708 1351 52.2983 1379.53 529.385
2517 0 104.442 13.2897 1388 53.0274 1378.45 529.093
2518 0 107.528 12.0806 1299 54.0962 1377.65 527.079
2519 0 112.651 13.1912 1486 52.3493 1377.97 524.122
2520 1 61.3305 11.1364 683 53.0146 1377.66 549.833
2521 0 61.1692 10.8715 665 53.0767 1378.05 550.189
2522 0 65.2483 11.3413 740 52.4946 1378.56 549.707
2523 0 66.1661 12.0455 797 51.7641 1377.4 549.02
2524 0 70.2317 13.6263 957 50.3668 1377.57 548.084
2525 0 69.3777 11.9923 832 52.7368 1378.14 546.635
2526 0 74.2394 12.6752 941 51.0138 1378.17 545.107
2527 0 75.117 13.3126 1000 50.659 1377.91 544.715
2528 0 75.2951 12.5506 945 51.9905 1377.76 542.692
2529 0 77.3002 13.0013 1005 51.4756 1377.45 541.905
2530 0 80.3244 14.2298 1143 50.0665 1377.62 541.96
2531 0 81.1459 13.1245 1065 51.6873 1377.06 539.226
2532 0 85.3282 13.7704 1175 50.7481 1377.32 541.024
2533 0 88.2214 13.2848 1172 51.0794 1377.74 541.137
2534 0 92.4386 14.6476 1354 49.8988 1377.74 538.787
2535 0 94.4845 15.0607 1423 49.7091 1377.32 536.129
2536 0 94.4208 13.1645 1243 51.9195 1377.35 534.767
2537 0 99.4554 14.4889 1441 50.7828 1377.42 533.176
2538 0 100.608 13.975 1406 51.6536 1377.78 531.62
2539 0 106.51 13.7453 1464 52.5724 1377.69 530.926
2540 1 58.2877 11.7006 682 53.132 1377.81 553.641
2541 0 61.241 10.3525 634 53.7808 1377.71 554.153
2542 0 63.2428 10.8471 686 52.914 1376.75 555.134
2543 0 64.4658 12.177 785 52.9987 1376.56 551.725
2544 0 65.3623 12.1783 796 53.3455 1376.58 550.977
2545 0 67.1065 12.6068 846 53.1513 1377.06 549.502
2546 0 71.3863 13.2238 944 51.5678 1377.2 549.638
2547 0 73.1436 13.494 987 52.2533 1376.79 544.492
2548 0 75.3 13.1873 993 52.2598 1376.79 544.514
2549 0 79.1802 13.2988 1053 51.8015 1376.79 544.221
2550 0 79.3169 12.9102 1024 52.7637 1376.68 543.513
2551 0 83.2715 13.7862 1148 51.9582 1376.28 543.72
2552 0 82.1405 13.136 1079 53.4198 1376.46 541.147
2553 0 87.1825 12.8122 1117 53.1218 1376.81 540.823
2554 0 91.2573 13.3688 1220 52.2795 1376.56 540.411
2555 0 92.1445 13.0556 1203 52.7589 1376.62 537.563
2556 0 96.1486 13.6871 1316 52.3837 1376.04 537.748
2557 0 100.275 13.6924 1373 52.3001 1376.54 536.124
2558 0 102.531 13.9763 1433 52.4278 1376.65 533.963
2559 0 106.497 13.3994 1427 52.7666 1376.38 532.015
2560 0 108.473 13.6901 1485 52.8956 1376.19 528.753
2561 0 111.601 13.1451 1467 53.6053 1376.32 528.546
2562 1 66.4532 11.241 747 53.2048 1376.63 551.186
2563 0 65.4597 10.938 716 55.1788 1376.47 549.968
2564 0 67.2527 11.5386 776 54.558 1376.39 548.043
2565 0 72.6231 12.7783 928 52.7608 1376.44 547.92
2566 0 73.6404 12.4388 916 54.7631 1376.59 546.459
2567 0 76.423 12.3916 947 55.2291 1376.4 543.367
2568 0 80.4783 13.5565 1091 53.5674 1376.64 543.199
2569 0 81.5411 13.9807 1140 53.5219 1376.81 541.686
2570 0 83.7552 12.9783 1087 54.7525 1375.97 540.636
2571 0 87.7639 12.8299 1126 54.5098 1375.83 539.973
2572 0 89.5558 13.8573 1241 53.7913 1375.98 535.16
2573 0 90.4374 12.5612 1136 55.8688 1375.54 532.949
2574 0 96.7535 13.9323 1348 53.5883 1375.58 533.249
2575 0 100.963 13.9358 1407 53.5444 1375.68 530.394
2576 0 101.653 13.3985 1362 54.7812 1376.19 529.499
2577 0 106.002 13.7544 1458 54.3546 1375.57 521.187
2578 0 108.534 14.1522 1536 54.0794 1374.82 520.734
2579 0 111.527 14.3284 1598 54.0989 1375.07 520.493
2580 0 116.804 13.4071 1566 54.5115 1374.37 523.319
2581 0 119.607 13.2099 1580 54.8614 1375.68 520.761
2582 1 67.4882 10.6389 718 55.2354 1375.92 545.972
2583 0 68.1705 10.2684 700 55.56 1376.1 544.721
2584 0 70.2815 11.2121 788 55.4924 1376.4 542.247
2585 0 74.7907 12.6486 946 53.7896 1376.17 539.303
2586 0 77.5925 12.4239 964 53.5571 1376.26 538.351
2587 0 80.0365 12.6692 1014 54.1144 1375.57 540.456
2588 0 82.8125 11.9064 986 55.3306 1375.9 539.787
2589 0 85.6589 11.9427 1023 54.48 1375.64 540.692
2590 0 89.765 13.112 1177 53.3577 1376.46 537.873
2591 0 90.5834 12.4526 1128 54.6897 1376.42 536.355
2592 0 93.6735 12.202 1143 54.8058 1376.32 535.419
2593 0 96.5563 13.2151 1276 54.1732 1376.46 531.099
2594 0 99.5201 12.9823 1292 54.4613 1376.23 531.595
2595 0 104.81 13.0141 1364 54.415 1376.91 529.243
2596 0 107.575 13.5905 1462 53.5109 1377.03 528.228
2597 1 60.8539 11.0264 671 52.6379 1377.24 553.402
2598 0 63.6185 11.7104 745 53.3772 1377.56 549.242
2599 0 64.6267 11.373 735 53.8463 1377.64 547.227
2600 0 64.3225 11.831 761 54.2444 1376.57 543.819
2601 0 64.5429 11.6667 753 55.1142 1377.06 542.365
2602 0 67.3332 11.8218 796 54.6131 1378.25 546.073
2603 0 69.443 11.6786 811 54.2207 1378.35 546.734
2604 0 72.4321 12.7016 920 53.0076 1378.02 545.329
2605 0 73.3005 12.8376 941 53.2083 1377.98 543.035
2606 0 75.5607 12.8638 972 53.6132 1378.52 538.692
2607 0 77.6109 13.2198 1026 53.0439 1378.68 538.876
2608 0 79.7258 12.7938 1020 53.6225 1378.88 538.646
2609 0 83.5035 12.8857 1076 53.5604 1379.35 538.619
2610 0 84.7528 13.3565 1132 53.3445 1379.24 536.17
2611 0 85.7716 11.414 979 55.6609 1379.78 533.333
2612 0 88.8895 13.5449 1204 53.7849 1379.5 533.194
2613 0 91.7115 12.9755 1190 54.4563 1379.59 531.135
2614 0 95.1486 13.1373 1250 54.5352 1379.86 531.285
2615 0 94.9403 13.2188 1255 55.3657 1380.08 528.98
2616 0 103.012 13.6003 1401 54.1406 1380.35 529.306
2617 0 104.93 13.9998 1469 53.8428 1380.67 526.545
2618 0 106.944 14.4936 1550 53.9619 1380.56 522.724
2619 0 108.202 12.4304 1345 56.5762 1380.54 523.393
2620 0 112.26 14.3328 1609 54.3766 1380.97 519.51
2621 0 113.319 14.3842 1630 54.7233 1380.72 519.168
2622 0 117.871 14.2868 1684 55.0873 1380.93 517.739
2623 0 117.761 14.5719 1716 55.7238 1381.09 515.336
2624 0 120.951 13.7989 1669 56.8724 1381.25 514.144
2625 0 125.895 14.6233 1841 56.0315 1381.22 511.222
2626 0 127.985 14.7829 1892 56.0994 1381.31 510.647
2627 0 133.535 14.7527 1970 55.8244 1381.06 507.203
2628 0 135.837 14.7677 2006 55.9761 1380.97 505.514
2629 0 141.625 13.917 1971 56.7336 1381.2 505.032
2630 0 144.424 15.0598 2175 55.8547 1381.03 499.19
2631 1 85.4177 12.1403 1037 56.7175 1380.68 531.285
2632 0 89.3525 12.1653 1087 56.1352 1380.51 530.787
2633 0 90.4237 11.8 1067 57.4208 1380.9 528.37
2634 0 94.2675 13.398 1263 55.2755 1380.2 525.118
2635 0 96.3206 12.23 1178 57.1273 1380.78 523.907
2636 0 99.6333 12.3854 1234 56.607 1380.35 522.592
2637 0 102.332 12.7819 1308 56.789 1380.6 520.794
2638 0 105.275 12.4531 1311 56.8421 1380.67 521.35
2639 0 109.375 13.1017 1433 55.6895 1380.72 518.102
2640 0 115.509 13.4795 1557 54.6487 1380.49 517.387
2641 0 116.386 12.4844 1453 56.1666 1380.42 514.281
2642 0 119.307 13.1761 1572 55.5891 1379.79 514.231
2643 0 123.264 13.175 1624 55.6878 1379.74 511.107
2644 0 128.4 13.5981 1746 55.4548 1379.79 507.412
2645 0 132.27 13.8277 1829 55.0869 1379.56 506.417
2646 0 134.239 13.4164 1801 55.7651 1379.57 502.464
2647 0 140.3 13.5923 1907 55.3823 1379.46 500.578
2648 0 145.51 13.676 1990 55.2342 1379.15 499.909
2649 0 152.467 14.0489 2142 54.4505 1378.85 499.3
2650 0 157.329 13.7991 2171 53.0009 1378.37 497.11
2651 0 161.515 13.4725 2176 53.6742 1378.76 491.79
2652 0 167.423 15.189 2543 51.7475 1378.97 487.155
2653 1 98.3605 12.4745 1227 52.3725 1378.64 523.182
2654 0 102.299 12.1604 1244 52.9228 1378.98 519.471
2655 0 107.297 13.2902 1426 51.6248 1378.44 521.274
2656 0 111.274 13.1747 1466 51.895 1378.39 518.668
2657 0 114.335 13.7228 1569 51.2492 1378.5 517.071
2658 0 116.435 13.2607 1544 52.2804 1378.67 513.144
2659 0 120.397 13.497 1625 51.3828 1378.54 515.105
2660 0 123.316 13.6317 1681 51.906 1378.88 509.791
2661 0 126.433 12.4888 1579 53.216 1378.46 510.03
2662 0 130.303 13.3842 1744 52.6663 1378.26 507.731
2663 0 136.186 13.6724 1862 52.2154 1378.38 503.959
2664 0 140.268 14.5579 2042 51.4804 1378.4 500.932
2665 0 146.243 14.6606 2144 51.1716 1378 500.528
2666 0 148.261 13.4156 1989 52.8899 1378.46 498.936
2667 0 154.325 14.4436 2229 51.9116 1378.17 494.027
2668 1 92.0955 10.7606 991 52.9344 1377.68 526.673
2669 0 97.1369 10.861 1055 52.8332 1378.68 522.439
2670 0 101.219 11.9048 1205 51.9245 1378.64 523.37
2671 0 102.311 12.0808 1236 52.0817 1378.25 518.192
2672 0 108.212 13.0299 1410 51.1433 1379 518.176
2673 0 111.335 12.9699 1444 50.8809 1378.43 520.097
2674 0 116.268 12.9098 1501 51.515 1378.61 516.976
2675 0 118.65 13.0974 1554 51.5399 1378.38 516.5
2676 0 120.445 13.0267 1569 52.5373 1378.44 513.648
2677 0 125.455 14.0369 1761 51.4128 1378.32 512.648
2678 0 129.443 13.7822 1784 51.6642 1378.14 511.289
2679 0 133.7 13.2162 1767 52.5699 1377.97 506.976
2680 0 134.59 12.9801 1747 53.3406 1377.61 506.788
2681 0 139.795 12.6257 1765 54.1178 1377.37 505.324
2682 0 144.682 14.0308 2030 52.8394 1377.49 503.331
2683 0 150.651 13.9794 2106 52.9065 1377.36 502.49
2684 0 154.385 13.8744 2142 52.9907 1377.59 502.368
2685 0 157.411 13.6522 2149 53.8357 1377.26 495.038
2686 0 161.68 13.2422 2141 55.0234 1377.41 497.025
2687 0 166.702 14.5949 2433 53.679 1377.2 495.446
2688 0 171.617 14.0021 2403 54.3862 1377.42 491.939
2689 0 178.64 14.8119 2646 53.3137 1377.28 489.672
2690 0 183.603 14.4932 2661 54.0203 1376.57 485.522
2691 0 188.737 13.7917 2603 54.7803 1376.26 481.731
2692 0 193.491 13.6027 2632 55.1793 1376.52 481.177
2693 0 200.527 14.2325 2854 54.4744 1376.5 480.168
2694 0 205.431 14.4671 2972 54.5128 1376.37 472.799
2695 0 212.433 13.9338 2960 54.9351 1376.38 473.466
2696 0 220.337 15.2585 3362 53.0036 1376.88 472.195
2697 0 225.622 16.275 3672 52.1422 1376.67 462.902
2698 0 229.474 13.7706 3160 54.9734 1376.33 463.507
2699 1 170.243 12.7406 2169 53.0567 1376.05 500.313
2700 0 172.508 10.0865 1740 55.1615 1375.75 498.243
2701 0 179.578 12.7967 2298 53.5078 1376.23 491.462
2702 0 184.433 13.002 2398 53.3624 1376.31 487.102
2703 0 191.346 13.2117 2528 52.8821 1376.39 486.898
2704 0 197.464 13.01 2569 53.2604 1376.34 482.22
2705 0 203.432 13.7441 2796 52.5479 1376.31 477.592
2706 0 208.529 12.9335 2697 53.4301 1376.06 477.39
2707 0 216.436 13.0477 2824 53.4834 1376.53 471.676
2708 0 225.264 14.3165 3225 51.9767 1376.55 469.603
2709 0 231.397 12.0745 2794 54.0931 1376.39 462.047
2710 0 241.466 14.2256 3435 52.1723 1376.23 460.822
2711 0 249.426 14.1124 3520 52.1284 1376.33 458.28
2712 0 254.654 14.6081 3720 51.5874 1376.64 450.466
2713 0 262.599 14.4974 3807 51.6811 1376.7 448.481
2714 0 270.567 15.3566 4155 50.8125 1376.42 442.203
2715 0 279.736 15.2644 4270 51.2293 1376.64 434.723
2716 0 288.347 16.6882 4812 48.8676 1376.29 437.291
2717 0 294.832 15.2358 4492 50.5312 1376.38 425.418
2718 1 90.2568 8.77496 792 48.6641 1375.83 537.279
2719 0 92.2278 10.4849 967 47.4995 1375.38 532.04
2720 0 95.1647 11.4013 1085 46.7982 1375.58 530.703
2721 0 98.2586 12.3653 1215 46.0477 1376.15 533.587
2722 0 101.235 10.9745 1111 47.3843 1376.84 530.938
2723 0 103.105 10.6105 1094 48.1664 1376.67 524.649
2724 0 105.155 10.7651 1132 48.0998 1376.8 524.163
2725 0 108.288 10.3243 1118 48.6172 1377.7 521.055
2726 0 110.33 11.3659 1254 47.2632 1378.02 520.048
2727 0 114.433 13.5276 1548 45.7016 1378.2 520.415
2728 0 119.64 12.7215 1522 46.5059 1376.99 520.002
2729 0 121.06 12.531 1517 47.1898 1377.15 516.771
2730 0 124.977 11.4981 1437 47.9151 1377.25 516.34
2731 0 124.803 12.2513 1529 47.9647 1377.27 509.082
