time division length width area intensity CMx CMy
0 0 58.1302 13.0053 756 69.6706 192.237 556.976
1 0 59.1774 13.6877 810 90.3988 191.332 557.668
2 0 61.0933 13.7167 838 67.5191 191.527 554.649
3 0 62.0883 12.9332 803 68.9502 191.614 553.758
4 0 65.2086 12.5904 821 69.3922 191.352 553.381
5 0 65.0628 12.634 822 71.0669 191.634 551.283
6 0 70.1269 13.4328 942 68.8588 191.62 551.02
7 0 71.1971 12.7393 907 69.1257 191.564 551.029
8 0 73.0766 12.3432 902 70.0055 192.07 549.786
9 0 78.0699 12.809 1000 68.555 191.867 547.593
10 0 80.2044 12.9045 1035 69.0193 191.823 545.636
11 0 82.2079 12.8455 1056 69.7869 191.465 545.526
12 0 85.1054 12.8546 1094 70.1929 191.465 542.855
13 0 88.1884 12.8929 1137 69.737 191.263 541.728
14 0 93.2687 12.1906 1137 70.8285 191.963 540.303
15 1 48.2015 10.6013 511 68.773 192.358 561.417
16 0 48.1117 10.538 507 69.6765 192.475 560.562
17 0 51.1448 10.265 525 69.8019 191.808 558.438
18 0 53.1262 12.0656 641 66.8736 191.309 557.339
19 0 54.2401 11.4491 621 68.1127 191.303 556.219
20 0 55.2966 11.7548 650 67.2985 191.271 556.132
21 0 59.2513 11.6959 693 66.0996 191.192 554.791
22 0 60.262 11.8483 714 66.0868 191.37 554.629
23 0 62.1726 11.8863 739 65.9865 191.221 554.806
24 0 64.1513 12.3614 793 66.0454 191.567 551.54
25 0 66.1364 12.6708 838 65.7661 191.715 550.111
26 0 66.1247 12.0076 794 67.2519 191.758 550.503
27 0 68.1726 12.1016 825 67.8836 191.961 550.154
28 0 71.1261 13.3425 949 66.6291 191.827 549.017
29 0 73.3326 12.9683 951 67.6362 191.909 547.992
30 0 76.22 13.0937 998 67.7305 192.314 547.281
31 0 80.1065 12.7455 1021 68.1028 192.754 546.299
32 0 79.2864 12.8521 1019 69.3503 192.578 543.714
33 0 83.2077 12.7512 1061 69.3487 193.097 544.012
34 0 86.1356 12.9795 1118 69.4338 192.962 541.911
35 1 49.1181 10.2813 505 68.2 193.768 562.798
36 0 48.0623 10.2575 493 69.7099 193.779 561.402
37 0 51.13 10.8743 556 68.2464 193.471 559.583
38 0 52.1446 11.1229 580 68.5586 193.55 558.966
39 0 55.0841 11.6549 642 66.9221 193.421 557.877
40 0 55.1972 12.1927 673 67.5423 193.309 554.514
41 0 59.2202 11.9216 706 66.5552 192.874 555.028
42 0 59.1917 11.6064 687 67.3275 192.953 554.41
43 0 61.1263 11.6153 710 67.0324 193.18 552.324
44 0 63.1887 12.1857 770 66.0961 193.453 552.405
45 0 67.2125 12.096 813 65.7368 193.684 550.872
46 0 69.1068 12.8641 889 64.9168 194.03 549.722
47 0 71.2011 13.1599 937 64.1964 193.635 549.263
48 0 72.2017 12.6451 913 65.5805 193.927 546.288
49 0 75.2003 12.8723 968 64.8822 193.569 546.977
50 0 76.1993 12.8741 981 64.8583 193.722 545.599
51 0 81.1473 12.6067 1023 64.567 193.683 543.792
52 1 42.0318 9.7783 411 64.3577 194.579 563.591
53 0 44.0538 10.5326 464 63.1746 194.556 563.838
54 0 46.0524 11.1829 515 61.5825 193.608 562.052
55 0 47.2742 11.5285 545 55.7321 194.141 560.519
56 0 49.1466 12.3101 605 54.8215 194.526 560.339
57 0 48.1082 11.9522 575 56.433 194.064 558.473
58 0 51.1096 12.6591 647 55.34 194.048 557.873
59 0 53.0868 11.4341 607 56.3871 194.547 556.746
60 0 55.1483 11.6957 645 57.0961 194.946 558.935
61 0 57.1839 12.2937 703 57.0541 194.422 555.835
62 0 58.2881 12.4897 728 57.2005 194.559 555.875
63 0 59.1833 12.6725 750 57.6493 194.537 554.933
64 0 60.1465 12.2534 737 58.9457 194.602 552.791
65 0 63.3018 13.0012 823 58.3329 194.441 551.906
66 0 66.1973 12.07 799 59.6608 194.816 552.268
67 0 66.2556 13.1913 874 59.1339 195.208 549.2
68 0 68.1852 13.0527 890 60.1258 194.91 549.473
69 0 71.1409 13.4803 959 59.4807 194.745 547.03
70 0 73.1316 12.7852 935 60.3209 195.019 547.541
71 0 76.2257 13.2895 1013 60.2083 194.675 545.088
72 1 40.092 9.57796 384 62.3724 195.81 564.479
73 0 42.143 9.72878 410 63.0683 196.085 562.293
74 0 42.1585 10.508 443 62.7788 196.244 562.284
75 0 44.1191 11.1743 493 62.217 196.178 561.763
76 0 45.1377 11.764 531 61.7891 196.073 560.942
77 0 46.067 11.7655 542 62.6605 196.542 559.031
78 0 47.1218 12.4995 589 62.0951 196.003 557.739
79 0 49.1195 12.4391 611 62.0524 195.993 556.039
80 0 50.0963 11.9969 601 62.8453 196.478 556.324
81 0 52.1062 13.4149 699 61.0172 195.994 555.897
82 0 55.0713 13.1103 722 61.3269 196.691 553.952
83 0 53.1382 12.7215 676 63.7559 196.837 552.827
84 0 58.0911 11.1377 647 65.1097 197.414 553.377
85 0 56.0945 13.1029 735 63.0544 197.446 551.079
86 0 59.119 13.3629 790 62.3367 197.07 549.747
87 0 61.1336 13.2824 812 61.8953 197.422 548.164
88 0 62.1184 13.4099 833 61.3013 197.309 547.708
89 0 64.1659 14.0106 899 59.7976 197.425 545.713
90 0 65.12 12.8071 834 62.5911 198.295 544.516
91 0 68.0803 13.5281 921 65.43 198.811 542.266
92 0 68.1656 13.4672 918 67.5131 198.973 542.552
93 0 72.1629 13.5111 975 66.7395 199.585 541.12
94 0 74.1026 13.1574 975 67.0779 199.163 539.014
95 0 76.1452 12.9883 989 64.6886 199.411 539.363
96 0 79.1284 13.813 1093 63.7466 199.683 536.851
97 0 82.0899 14.1187 1159 86.7308 199.93 534.984
98 0 87.0967 13.2611 1155 63.51 199.694 534.784
99 1 45.0873 10.3799 468 65.2073 199.171 554.974
100 0 47.1416 12.2609 578 65.1211 199.495 554.014
101 0 48.1771 12.2257 589 67.1817 200.017 550.99
102 0 50.1073 12.134 608 69.977 200.13 550.637
103 0 51.163 12.939 662 65.3097 199.595 550.364
104 0 52.0631 12.7153 662 65.2749 199.633 550.165
105 0 55.2011 13.7316 758 64.9881 199.438 548.446
106 0 54.1473 13.0754 708 68.6497 199.573 547.516
107 0 56.1489 12.823 720 69.8208 199.339 546.828
108 0 59.1692 13.3177 788 69.0178 199.335 547.071
109 0 62.1592 13.0954 814 69.1143 199.232 543.738
110 0 63.2359 13.4259 849 69.0118 199.12 543.552
111 0 66.1908 13.7632 911 67.9912 199.454 543.739
112 0 66.115 13.4463 889 69.8909 199.285 540.435
113 0 68.1175 14.2841 973 68.5313 199.518 540.666
114 0 70.1358 14.1725 994 68.7998 199.458 540.349
115 0 72.0697 14.0975 1016 70.5079 199.441 538.067
116 0 74.0549 13.9761 1035 70.8174 199.414 537.518
117 0 77.2938 13.9209 1076 71.197 199.444 536.479
118 0 79.2758 14.191 1125 71.9227 198.932 535.271
119 0 81.1609 13.8121 1121 72.7672 199.011 534.427
120 0 84.2473 14.0539 1184 72.9282 199.041 532.751
121 1 45.1208 11.7684 531 71.8305 199.239 552.612
122 0 48.2726 10.9172 527 72.8008 199.328 551.108
123 0 48.1392 12.6716 610 70.1623 198.936 551.466
124 0 49.0856 11.7754 578 72.2803 198.803 551.915
125 0 49.0698 12.309 604 73.0199 198.323 550.339
126 0 51.1804 11.9968 614 73.0261 197.889 549.853
127 0 53.1209 12.3492 656 72.872 197.448 548.072
128 0 54.1264 12.5262 678 72.9218 197.712 547.332
129 0 56.0306 12.1898 683 73.5593 197.455 547.261
130 0 58.152 13.7227 798 71.5426 197.708 545.732
131 0 58.1593 12.2938 715 74.4378 196.89 545.387
132 0 61.1988 13.8401 847 72.1594 197.195 544.303
133 0 64.1717 12.825 823 73.5869 196.913 544.357
134 0 65.1948 13.6514 890 72.7539 196.994 543.294
135 0 67.1147 13.0523 876 74.3185 196.967 542
136 0 68.209 14.0891 961 73.129 197.011 541.796
137 0 72.1453 13.9164 1004 73.0727 197.258 540.31
138 0 72.1502 13.3056 960 74.9146 197.215 539.129
139 0 76.2912 13.7893 1052 73.7015 197.34 537.875
140 0 79.248 13.931 1104 73.2373 197.018 536.46
141 1 44.0875 11.3865 502 74.5359 197.124 554.163
142 0 44.0795 11.5927 511 74.5342 197.795 554.07
143 0 45.1952 11.749 531 75.6064 197.217 552.802
144 0 48.0329 11.8669 570 74.7175 197.719 551.295
145 0 49.0645 12.7995 628 74.6783 197.384 550.51
146 0 50.099 12.2158 612 75.6993 196.835 549.954
147 0 52.1217 13.1039 683 74.7745 196.944 547.798
148 0 55.1217 13.443 741 73.166 197.035 548.173
149 0 56.1252 12.5612 705 75.0908 196.983 548.248
150 0 57.2501 12.9432 741 74.6532 196.895 546.799
151 0 59.2071 12.887 763 74.5596 196.862 545.59
152 0 61.0993 13.5026 825 74.1297 196.559 544.691
153 0 62.0991 13.3174 827 74.0339 196.3 545.745
154 0 64.1017 12.761 818 74.7531 195.991 544.301
155 0 68.1393 13.6485 930 73.1376 195.787 543.847
156 0 69.1135 13.7745 952 73.6324 195.917 540.793
157 0 70.1036 13.1948 925 74.9546 196.452 540.591
158 0 75.2333 14.2756 1074 72.838 196.048 539.316
159 0 76.1749 13.6528 1040 74.5981 196.076 538.748
160 0 78.1481 13.4104 1048 74.2844 196.146 538.351
161 0 81.1719 13.958 1133 73.248 196.318 536.631
162 0 83.2725 14.3985 1199 72.9358 196.194 535.413
163 0 86.2253 14.1722 1222 72.8568 196.091 534.373
164 0 90.2911 13.5562 1224 73.607 196.889 531.603
165 0 92.1335 13.8929 1280 73.375 196.482 531.455
166 0 95.1775 13.5746 1292 73.8909 196.794 529.594
167 1 52.2446 11.3313 592 72.9223 197.088 551.791
168 0 54.106 11.7362 635 73.5795 197.175 550.29
169 0 57.1397 11.7432 671 72.7973 197.39 549
170 0 57.3258 12.5075 717 71.3947 197.558 547.12
171 0 59.2185 13.408 794 70.5642 197.548 545.111
172 0 62.0772 12.7422 791 70.8761 197.702 545.531
173 0 64.1431 12.8151 822 70.899 197.584 543.431
174 0 66.1463 12.8805 852 70.1092 197.765 543.282
175 0 67.142 12.6746 851 70.8367 197.82 541.41
176 0 71.1385 12.8903 917 70.0851 197.904 539.289
177 0 73.1827 12.8309 939 69.7274 198.34 537.498
178 0 74.2128 12.8684 955 69.8942 198.287 535.302
179 0 78.1479 12.8474 1004 69.6225 199.077 534.928
180 0 82.2779 13.0169 1071 69.1634 199.21 533.118
181 0 85.1739 14.3002 1218 67.6609 199.375 531.013
182 1 46.1765 10.135 468 69.2885 199.797 550.468
183 0 48.2785 11.123 537 68.1993 199.793 550.171
184 0 50.1287 11.3907 571 67.7093 200.163 549.294
185 0 51.0887 11.5485 590 68.3881 200.049 547.215
186 0 51.1862 11.5461 591 68.8663 199.866 547.21
187 0 53.0866 10.7183 569 70.0562 200.17 546.167
188 0 56.1507 12.0212 675 68.0652 200.259 544.04
189 0 57.1394 12.8108 732 67.5833 200.369 540.981
190 0 59.084 12.5245 740 68.5676 200.484 541.735
191 0 62.1256 12.3299 766 68.5979 200.142 540.653
192 0 62.1536 12.5335 779 69.5366 200.918 538.417
193 0 63.4846 12.3337 783 68.7229 200.42 537.576
194 0 68.2713 12.9923 887 64.841 200.272 538.393
195 0 70.1553 12.5721 882 66.8583 200.517 536.562
196 0 69.1868 11.9098 824 69.574 200.627 534.788
197 0 72.3252 12.2502 886 69.9819 201.242 533.435
198 0 77.3991 13.1784 1020 67.9569 201.549 533.022
199 0 80.2801 12.8301 1030 68.2709 201.558 531.46
200 0 79.2221 12.2062 967 69.969 201.681 529.862
201 0 84.3895 13.3784 1129 67.6997 201.609 528.497
202 0 87.3386 12.7664 1115 69.2547 202.055 526.377
203 0 90.2413 12.9209 1166 69.5172 202.425 525.003
204 0 93.3437 12.6093 1177 70.3551 202.11 523.958
205 0 94.3155 13.476 1271 69.3265 202.559 521.258
206 1 52.2319 11.2575 588 67.3197 202.478 545.762
207 0 52.1469 10.2787 536 69.4664 202.666 544.746
208 0 55.1127 10.3424 570 70.3667 202.923 542.777
209 0 56.1999 11.9573 672 68.0193 202.201 541.754
210 0 59.1108 12.4004 733 67.7763 201.937 541.053
211 0 61.2425 11.8708 727 68.0825 202.282 539.684
212 0 62.1716 12.7711 794 66.9761 201.584 539.621
213 0 63.2061 11.6919 739 69.0379 201.805 537.946
214 0 66.2186 12.4436 824 67.5194 201.261 536.595
215 0 69.1416 12.5829 870 67.1713 201.218 536.606
216 0 69.1554 13.1009 906 67.372 201.634 534.837
217 0 73.1278 13.114 959 67.0334 201.174 533.727
218 0 74.1446 12.7858 948 68.3766 201.549 533.642
219 0 75.1141 12.5675 944 69.285 202.426 533.781
220 0 79.1827 13.2352 1048 69.0792 201.248 530.635
221 0 82.3102 13.5463 1115 68.8861 201.197 531.101
222 0 84.3117 12.5605 1059 70.848 201.075 529.78
223 0 87.1984 13.1539 1147 70.7794 200.463 528.178
224 0 90.2164 13.5009 1218 69.5698 200.878 526.896
225 0 91.3697 12.3455 1128 72.3998 200.398 523.413
226 0 94.2309 13.8277 1303 69.8734 200.722 522.617
227 1 53.0302 10.1074 536 73.6194 200.961 543.332
228 0 54.1365 11.6372 630 71.2048 201.34 545.541
229 0 58.1135 11.4431 665 71.5654 200.571 544.23
230 0 56.0906 11.7667 660 72.5288 200.136 541.658
231 0 61.1651 12.3273 754 70.2533 200.073 542.214
232 0 62.1451 12.4547 774 71.0879 199.585 541.006
233 0 65.0911 12.4902 813 70.9692 199.159 539.871
234 0 66.0527 13.2016 872 70.3842 199.181 539.909
235 0 68.0855 12.4402 847 72.1263 198.783 537.744
236 0 70.0981 13.0531 915 70.9344 198.344 536.699
237 0 71.1632 12.1692 866 72.6617 198.525 535.467
238 0 74.0721 12.8388 951 71.5237 198.154 534.909
239 0 76.1447 12.253 933 71.6474 198.061 535.269
240 0 79.1529 13.4929 1068 70.0262 198.178 532.978
241 0 80.0958 12.972 1039 70.9095 198.584 532.426
242 0 82.175 12.7898 1051 71.7374 198.223 531.937
243 0 85.2006 13.2393 1128 70.3839 197.949 531.913
244 0 86.1731 13.1363 1132 71.5133 198.064 530.338
245 0 90.1707 13.7628 1241 70.6728 198.261 528.256
246 0 93.1253 13.6483 1271 70.8159 198.581 526.528
247 0 96.2403 13.8404 1332 70.7012 198.154 524.927
248 0 98.1624 13.7018 1345 70.7799 197.979 525.938
249 0 102.104 13.3981 1368 71.4861 197.906 522.789
250 0 106.233 13.4516 1429 71.4465 198.594 519.126
251 1 54.1588 10.9677 594 70.197 198.2 547.308
252 0 56.2247 10.4936 590 70.7017 198.193 545.615
253 0 58.078 11.7084 680 69.7015 198.204 544.785
254 0 60.1036 12.1124 728 68.7527 198.385 545.141
255 0 60.2014 11.8934 716 69.7863 197.994 543.44
256 0 64.1717 12.5601 806 67.6799 198.145 543.535
257 0 67.1652 13.1914 886 66.6907 197.756 540.876
258 0 67.0889 12.6548 849 68.0118 198.164 538.861
259 0 71.1224 13.0479 928 67.208 197.954 539.296
260 0 72.1517 13.2776 958 66.8831 197.473 539.024
261 0 75.1175 13.2859 998 66.5491 198.53 538.992
262 0 76.2337 13.3537 1018 66.9352 198.319 537.101
263 0 78.161 13.1523 1028 67.6177 197.54 536.645
264 0 80.1425 12.7149 1019 68.5309 197.603 534.978
265 0 83.1564 13.7933 1147 67.184 197.582 533.36
266 0 86.1188 13.7252 1182 68.0677 197.475 531.112
267 0 88.1884 13.6753 1206 68.7114 197.745 529.702
268 0 93.1366 13.5822 1265 67.8103 197.814 529.803
269 0 94.0885 13.6042 1280 68.2469 198.215 527.899
270 0 97.1545 13.5763 1319 68.2199 198.556 526.8
271 0 100.125 13.8327 1385 68.0267 198.043 525.465
272 1 53.0539 10.0652 534 69.9775 198.596 548.758
273 0 55.0702 11.0405 608 68.4046 198.791 547.505
274 0 56.0973 12.2822 689 66.9971 198.749 545.322
275 0 59.0739 11.8496 700 67.4243 198.586 545.084
276 0 61.0852 12.4089 758 67.3061 198.509 544.354
277 0 62.1798 12.303 765 67.4078 198.23 543.749
278 0 65.1543 12.8771 839 65.6818 198.75 543.041
279 0 67.2007 12.5445 843 68.0451 198.439 539.874
280 0 70.1737 13.3241 935 66.4545 198.584 539.75
281 0 72.1622 13.4558 971 66.4737 198.992 539.124
282 0 74.1306 13.4492 997 67.1856 198.881 536.772
283 0 76.2014 13.2544 1010 67.9079 199.062 534.468
284 0 82.4055 13.7005 1129 67.1213 199.003 534.536
285 0 81.072 13.6915 1110 68.4577 199.388 531.868
286 0 87.1948 13.2118 1152 68.5547 200.104 530.458
287 0 91.1767 13.6548 1245 67.9165 200.166 529.363
288 0 92.1128 13.9937 1289 68.0652 200.837 526.853
289 1 52.1016 9.75018 508 69.0768 201.465 548.031
290 0 51.0776 9.49536 485 70.4082 201.596 547.062
291 0 57.086 11.1761 638 68.163 202.05 545.607
292 0 59.0402 11.1111 656 68.4238 202.116 544.483
293 0 57.1527 11.3381 648 69.7731 202.256 542.671
294 0 60.059 11.7384 705 68.9106 202.172 541.918
295 0 60.1337 12.4389 748 69.2179 202.19 540.785
296 0 64.1554 12.7659 819 68.2564 201.371 540.602
297 0 66.2319 13.1357 870 68.2943 201.514 536.631
298 0 68.065 12.9876 884 68.5351 201.994 536.457
299 0 67.1215 12.2762 824 70.3993 202.04 535.387
300 0 71.1449 12.4394 885 70.1774 202.08 533.525
301 0 73.181 13.2275 968 68.8833 202.481 533.972
302 0 75.2117 13.3224 1002 69.7365 202.93 531.349
303 0 78.0836 13.4856 1053 69.1956 203.111 530.821
304 0 81.1797 13.0821 1062 70.1252 203.055 528.459
305 0 82.1135 13.4448 1104 70.0063 202.851 528.435
306 0 86.174 12.9622 1117 69.9543 203.432 527.456
307 0 89.1976 13.2851 1185 70.1814 203.371 525.012
308 0 92.1537 13.3581 1231 70.065 203.268 522.797
309 0 95.1876 13.5942 1294 69.357 203 523.139
310 0 98.1339 13.4306 1318 69.8528 202.772 522.265
311 0 101.083 14.0577 1421 69.6017 203.514 519.17
312 1 53.1414 9.87931 525 71.3276 203.651 543.503
313 0 56.078 10.6281 596 70.5654 203.777 541.861
314 0 58.1398 12.6591 736 68.6196 203.697 540.265
315 0 57.1157 11.4679 655 70.7924 203.136 540.16
316 0 60.1023 12.2957 739 69.5805 202.616 537.959
317 0 64.1099 13.5705 870 67.1333 203.025 537.477
318 0 65.1432 13.0635 851 67.973 202.492 536.799
319 0 67.0964 12.5044 839 69.4493 202.48 535.024
320 0 69.1331 13.0473 902 68.4157 202.37 534.66
321 0 72.0898 12.9422 933 68.4459 202.16 533.73
322 0 74.0917 12.6465 937 69.175 201.617 531.793
323 0 77.0815 13.3625 1030 67.9417 201.675 531.64
324 0 77.1465 13.1179 1012 68.6038 201.348 531.105
325 0 81.2376 13.1589 1069 68.319 202.422 530.152
326 0 83.1122 13.56 1127 68.6238 202.13 527.015
327 0 87.169 13.0666 1139 68.396 202.065 526.893
328 0 88.1506 13.8173 1218 68.2496 201.843 524.649
329 0 91.1539 13.5156 1232 68.5187 201.417 522.88
330 0 95.1542 13.4519 1280 67.9648 201.266 522.784
331 0 98.2308 13.2443 1301 67.7794 201.349 520.281
332 1 51.1623 10.8283 554 66.7744 201.527 545.02
333 0 53.0433 10.5008 557 67.386 201.469 543.659
334 0 54.0646 11.9117 644 66.3416 201.109 541.997
335 0 56.0971 12.4071 696 65.2241 200.871 541.601
336 0 57.1311 12.235 699 65.9413 200.818 539.423
337 0 58.1898 12.0468 701 66.2611 200.348 540.762
338 0 61.1241 14.1352 864 62.9618 199.948 539.749
339 0 60.13 12.3067 740 66.573 199.678 538.797
340 0 63.1238 12.7527 805 65.6571 199.728 539.185
341 0 66.0777 12.7426 842 65.6021 199.556 538.057
342 0 68.1167 13.5943 926 64.5497 199.438 536.783
343 0 69.066 13.364 923 65.935 199.04 535.222
344 0 71.1305 13.3839 952 66.1765 199.516 535.013
345 0 72.0677 12.4327 896 68.067 198.806 535
346 0 75.0769 13.5727 1019 66.6055 199.892 532.398
347 0 77.0708 13.1178 1011 67.5232 199.707 532.387
348 0 79.1051 13.855 1096 66.6077 199.207 531.582
349 0 83.2771 13.341 1111 67.4725 199.622 531.698
350 0 87.0942 13.7782 1200 67.0475 199.408 527.742
351 0 90.1973 13.9361 1257 67.0199 199.42 528.119
352 0 90.1063 13.1289 1183 69.5359 199.131 525.068
353 0 93.1068 12.8347 1195 69.9364 199.057 526.219
354 1 49.074 12.0023 589 68.1562 199.401 547.907
355 0 52.0272 11.1672 581 68.9484 199.296 547.391
356 0 54.1062 12.4385 673 68.0892 199.875 545.74
357 0 56.1216 11.8493 665 69.6857 199.48 545.036
358 0 58.1038 12.1679 707 69.7185 199.559 543.093
359 0 59.0644 12.6641 748 69.0468 199.422 543.052
360 0 62.0586 12.9716 805 68.4696 199.368 541.61
361 0 65.0924 12.8279 835 68.6994 199.771 540.99
362 0 67.1576 12.5675 844 69.4064 199.005 539.617
363 0 70.3084 12.7581 897 68.3868 199.38 539.623
364 0 71.3046 13.239 944 68.2691 199.574 536.897
365 0 75.3149 13.8883 1046 67.3614 199.322 535.314
366 0 77.1883 12.3076 950 70.0621 199.246 534.684
367 1 42.1104 10.8524 457 68.6543 199.882 551.702
368 0 43.1207 11.0156 475 68.5368 200.362 551.629
369 0 46.1262 11.2301 518 68.4459 200.739 549.851
370 0 46.0806 12.0441 555 67.2414 200.514 549.519
371 0 48.0702 12.7106 611 66.4714 199.957 548.223
372 0 51.1649 11.5704 592 67.5051 200.444 547.169
373 0 51.1205 12.3238 630 67.4968 200.448 545.659
374 0 52.1259 11.6641 608 161.798 200.47 546.081
375 0 55.15 12.1124 668 68.0539 200.091 544.198
376 0 57.1536 12.1077 692 67.2977 200.301 543.439
377 0 59.113 12.2816 726 65.4559 200.442 541.887
378 0 59.2361 11.8171 700 66.8814 200.894 541.744
379 0 61.2386 12.4921 765 66.0941 200.433 539.082
380 0 64.1202 13.1784 845 64.8521 200.864 539.335
381 0 66.2268 12.1552 805 66.605 200.735 537.431
382 0 66.1455 12.2911 813 66.7306 201.005 537.022
383 0 70.2392 13.1266 922 65.3579 201.671 536.004
384 0 73.2359 13.3951 981 64.7533 201.848 534.798
385 0 73.2664 12.9391 948 66.0992 201.664 533.481
386 0 75.1655 12.0933 909 67.5457 202.164 532.103
387 0 78.2954 12.6061 987 66.3212 201.818 530.32
388 0 80.2182 13.1516 1055 65.7175 202.354 527.961
389 0 83.2245 12.8928 1073 65.9469 202.661 528.185
390 0 85.1384 12.3681 1053 67.1804 203.036 526.78
391 0 87.2297 13.1721 1149 66.3925 202.551 525.179
392 0 92.236 13.2595 1223 66.1186 203.308 523.738
393 0 93.1628 12.9773 1209 67.6137 203.184 522.446
394 0 97.1379 13.1257 1275 67.2376 203.06 520.757
395 0 100.12 13.0444 1306 67.8951 203.555 518.312
396 1 57.1694 10.1628 581 67.8967 203.394 540.002
397 0 58.1037 11.4451 665 66.3474 203.355 538.777
398 0 60.2494 10.4565 630 66.9651 203.483 538.978
399 0 62.1653 11.6785 726 66.1433 203.191 538.023
400 0 64.1416 12.1918 782 65.3223 203.441 537.042
401 0 66.1378 11.9145 788 65.8299 203.362 535.129
402 0 70.144 12.5599 881 64.6095 203.568 533.552
403 0 70.1378 12.8176 899 64.6496 203.514 531.486
404 0 73.0994 12.2436 895 64.9944 203.33 530.178
405 0 75.0987 12.5968 946 64.8066 203.539 529.289
406 0 77.2391 12.1053 935 65.3091 203.302 528.827
407 0 83.3509 13.2812 1107 63.2936 202.778 526.463
408 0 85.1464 12.6488 1077 64.0019 202.703 526.034
409 0 87.367 12.4189 1085 64.7124 203.192 522.609
410 1 41.2464 9.67356 399 64.6065 202.845 545.238
411 0 45.1538 10.8297 489 62.8282 203.323 545.374
412 0 45.2885 10.4662 474 63.6139 203.384 544.943
413 0 47.3034 10.9929 520 61.45 203.183 542.84
414 0 48.1257 10.2856 495 62.8646 202.956 542.471
415 0 49.2231 9.7312 479 64.7871 203.503 542.071
416 0 51.1239 11.658 596 63.3574 203.497 540.419
417 0 52.246 11.5033 601 63.8602 203.123 540.186
418 0 54.2044 11.1983 607 64.3048 202.692 539.623
419 0 55.1911 11.5236 636 64.0204 202.263 539.951
420 0 57.2248 12.0053 687 63.3988 201.83 537.402
421 0 58.1989 12.2167 711 62.6399 201.873 539.27
422 0 60.1814 12.0303 724 63.1782 201.858 537.812
423 0 61.2632 12.0464 738 63.4499 201.793 536.186
424 0 63.1865 12.3919 783 63.2401 201.759 536.064
425 0 65.2212 12.082 788 62.7906 201.442 534.1
426 0 66.0918 12.2859 812 62.4667 201.031 532.389
427 0 69.1661 12.1736 842 61.6746 200.653 533.52
428 0 70.1621 11.3024 793 63.5725 200.381 528.926
429 0 72.1418 11.8932 858 63.1212 199.949 529.841
430 0 74.2523 12.4979 928 63.4655 199.383 526.746
431 0 79.2708 12.2996 975 63.4687 199.419 527.364
432 0 81.247 12.0251 977 64.3439 198.868 525.208
433 1 43.1213 8.55726 369 63.206 198.447 544.93
434 0 45.1415 9.74712 440 62.4909 198.693 544.402
435 0 48.0852 9.91989 477 62.086 198.394 544.811
436 0 49.0778 10.6158 521 63.2476 198.453 545.142
437 0 51.1318 11.7148 599 64.227 198.851 544.292
438 0 54.2339 11.8007 640 63.7703 198.878 542.755
439 0 55.2019 12.0829 667 63.6672 199.466 544.226
440 0 57.1192 12.5702 718 63.0599 199.4 542.024
441 0 58.1274 12.6446 735 63.215 199.223 542.966
442 0 58.1334 13.0046 756 63.6164 199.295 541.94
443 0 59.2217 12.3603 732 64.5615 198.746 540.101
444 0 62.2851 12.0093 748 64.6965 199.35 539.549
445 0 64.1173 12.8982 827 64.2793 199.786 538.703
446 0 67.1119 12.5462 842 64.3812 199.825 537.514
447 0 69.0715 12.031 831 65.2551 200.01 537.8
448 0 71.1195 13.3578 950 64.2937 199.783 536.969
449 0 71.1065 12.1227 862 66.8387 199.922 534.464
450 0 76.1068 13.3102 1013 65.3218 200.076 534.312
451 0 77.0933 13.4253 1035 65.7971 200.041 532.814
452 1 41.246 10.3768 428 65.3972 199.57 553.161
453 0 42.1257 11.4894 484 64.781 200.138 551.798
454 0 43.2292 10.6872 462 65.7186 200.29 550.61
455 0 44.1783 10.933 483 66.2878 200.153 550.565
456 0 45.2278 11.8732 537 65.2402 200.05 548.957
457 0 45.0852 12.0217 542 65.8967 200.135 549.03
458 0 49.1769 12.7702 628 64.2229 200.556 547.914
459 0 49.2068 12.5389 617 65.4408 200.412 547.917
460 0 53.1291 12.1967 648 64.8673 200.498 546.571
461 0 54.1962 11.4584 621 66.8551 200.33 545.395
462 0 54.2177 11.4723 622 66.9244 200.042 546.711
463 0 56.2618 12.1574 684 66.1287 199.709 545.573
464 0 56.2377 11.9671 673 67.1887 199.678 543.771
465 0 58.1662 12.9285 752 66.5931 199.83 542.366
466 0 62.249 12.7392 793 65.662 199.836 543.047
467 0 61.1261 12.6951 776 67.6327 199.928 539.858
468 0 63.2223 12.3216 779 67.3607 200.394 541.331
469 0 67.1285 13.5561 910 65.2396 200.255 538.903
470 0 68.1146 12.1266 826 67.4903 200.481 538.759
471 0 69.0812 12.6518 874 67.5709 200.229 537.744
472 0 72.0635 12.9192 931 67.1643 200.215 536.997
473 0 74.1082 13.1564 975 66.8677 200.068 535.96
474 0 76.163 13.3267 1015 67.1626 199.704 534.079
475 0 79.3931 13.6788 1086 67.3333 199.924 533.626
476 0 78.3988 13.9671 1095 67.8539 199.999 531.657
477 0 82.4243 13.2 1088 68.7445 200.026 529.019
478 1 45.2479 11.2049 507 68.1341 200.525 548.164
479 0 44.2809 10.998 487 66.8871 200.795 548.953
480 0 48.1273 10.5138 506 67.6423 200.648 547.269
481 0 49.2179 11.1748 550 66.9055 200.875 545.618
482 0 50.1497 11.8445 594 66.1633 200.412 545.924
483 0 53.1989 11.316 602 67.4103 200.111 544.382
484 0 55.1032 12.6853 699 67.2804 199.957 544.907
485 0 56.0457 12.1508 681 67.743 200.871 545.047
486 0 58.0433 12.5941 731 67.1765 201.008 543.907
487 0 60.0893 12.2484 736 67.1141 200.939 543.474
488 0 60.1261 12.2409 736 68.2432 200.493 542.458
489 0 62.1037 12.3503 767 68.1917 201.138 539.876
490 0 65.1544 12.0023 782 68.101 201.088 539.821
491 0 66.1379 12.3227 815 67.7227 201.621 539.356
492 0 69.1785 13.1544 910 66.1835 201.684 540.008
493 0 70.0994 13.2241 927 66.6677 201.635 537.266
494 0 75.1533 13.7053 1030 65.3835 201.954 536.168
495 0 75.1141 12.6741 952 67.9538 202.009 533.657
496 0 76.1345 13.5024 1028 66.6284 201.545 531.23
497 0 81.1509 13.0867 1062 66.7166 201.312 530.31
498 1 43.053 11.0561 476 67.9202 201.824 547.739
499 0 43.0454 10.245 441 68.8027 201.535 547.678
500 0 46.0722 10.9828 506 68.1364 201.097 546.978
501 0 46.0168 11.1481 513 68.1774 200.807 545.803
502 0 50.0864 11.1408 558 66.2186 200.83 545.509
503 0 48.2334 11.8175 570 67.0281 200.095 543.358
504 0 52.122 12.4324 648 66.6975 200.637 544.426
505 0 53.0923 12.8644 683 66.3997 200.669 543.98
506 0 55.1434 13.1113 723 66.4869 200.874 541.835
507 0 53.1519 12.135 645 69.2233 200.978 542.288
508 0 56.2924 11.9554 673 69.2169 200.79 541.504
509 0 57.1676 12.7345 728 68.3132 200.916 541.61
510 0 61.1139 12.4849 763 68.1075 200.435 540.489
511 0 62.0657 12.4868 775 68.5187 200.853 540.08
512 0 64.1531 12.8287 823 68.3013 200.457 537.735
513 0 64.201 12.4764 801 69.3458 200.612 536.824
514 0 68.0468 13.476 917 67.6674 200.653 536.177
515 0 71.0973 13.6995 974 67.5719 200.739 533.636
516 0 73.1506 12.8365 939 69.7146 200.574 533.563
517 0 75.0711 13.9867 1050 66.3819 200.75 532.38
518 0 79.1411 13.5328 1071 67.0607 200.835 531.233
519 0 80.0526 13.4536 1077 67.6351 201.334 529.801
520 0 81.1132 12.6983 1030 69.2019 201.678 529.254
521 0 84.0869 13.3433 1122 68.5624 201.249 526.921
522 0 89.17 14.4443 1288 66.7337 201.394 525.571
523 0 91.0679 14.0774 1282 68.2083 201.439 522.336
524 1 48.0707 10.6926 514 69.1751 200.994 546.144
525 0 50.0437 11.49 575 69.3617 201.384 543.901
526 0 54.032 11.6227 628 69.1449 201.459 543.312
527 0 52.0631 11.294 588 70.3078 201.347 542.048
528 0 54.0641 12.7256 688 69.0727 201.356 541.193
529 0 57.0326 12.7471 727 68.9697 201.392 539.997
530 0 58.0697 12.95 752 68.9561 201.274 539.097
531 0 60.0386 13.0083 781 69.3303 201.23 537.848
532 0 62.0633 13.2607 823 69.1324 201.45 537.802
533 0 65.0853 12.7832 832 70.4195 201.364 536.019
534 0 68.0809 13.719 934 68.8651 201.762 535.878
535 0 69.1322 13.6261 942 70.1709 202.034 536.15
536 0 73.1661 13.9819 1023 69.8807 202.298 534.224
537 0 74.1435 13.1771 977 71.9222 202.082 533.002
538 0 77.0896 13.9837 1078 70.397 201.833 532.005
539 0 80.1402 14.0254 1124 70.3301 201.855 530.217
540 0 82.0987 13.8614 1138 70.5949 201.329 528.951
541 0 86.1111 13.9935 1205 69.932 201.361 527.42
542 0 88.1472 13.8972 1225 70.1796 201.031 525.476
543 0 92.119 13.8191 1273 69.707 201.494 525.533
544 0 93.0971 13.6631 1272 71.0456 200.963 522.384
545 1 50.0523 11.0085 551 69.6407 200.855 547.009
546 0 50.0572 11.6067 581 70.074 200.995 544.542
547 0 52.0457 11.2978 588 68.7449 200.74 544.869
548 0 55.0439 12.2811 676 67.6953 200.645 541.92
549 0 55.0972 12.2329 674 67.2685 199.869 543.353
550 0 58.0952 12.2902 714 67.0462 200.335 542.279
551 0 58.1723 13.2194 769 65.9935 200.459 541.984
552 0 63.1761 13.2012 834 64.2746 200.024 541.793
553 0 62.102 12.8659 799 65.6558 200.443 540.85
554 0 63.176 12.8371 811 66.1628 200.959 539.465
555 0 66.0907 12.2105 807 66.824 201.1 538.953
556 0 70.0856 13.2695 930 65.3892 201.017 538.654
557 0 70.1032 13.1663 923 65.9837 200.962 537.757
558 0 75.1221 13.0854 983 65.4547 200.609 537.649
559 0 75.1199 12.6464 950 67.1368 200.212 535.605
560 0 78.2157 13.1304 1027 67.1363 200.322 532.899
561 1 45.0931 10.4007 469 67.2942 200.695 550.33
562 0 45.051 9.81111 442 69.0113 200.701 549.326
563 0 47.1063 11.3148 533 67.7674 200.39 547.968
564 0 48.2153 11.6146 560 67.0839 200.066 548.643
565 0 50.1791 11.7977 592 67.0439 200.035 547.954
566 0 49.14 12.2914 604 67.9172 200.483 546.606
567 0 53.0568 12.3829 657 67.6164 200.469 546.253
568 0 54.0452 12.8966 697 67.5868 200.264 543.684
569 0 56.1467 12.877 723 67.5477 199.841 543.397
570 0 58.1099 12.6657 736 68.3261 200.118 542.995
571 0 59.1273 12.7014 751 68.7563 199.667 542.185
572 0 60.1052 13.3599 803 67.9465 199.577 542.146
573 0 63.1316 12.862 812 68.5936 199.42 541
574 0 65.0668 13.7551 895 67.2637 199.133 540.949
575 0 67.1637 13.2512 890 68.636 198.946 539.047
576 0 71.2422 13.5032 962 68.2339 198.849 538.851
577 0 72.2087 13.6549 986 68.7941 198.733 538.099
578 0 73.226 13.274 972 69.8879 198.56 537.216
579 0 76.1537 13.0788 996 69.9809 198.487 535.58
580 1 37.1474 10.0949 375 70.3333 198.648 555.971
581 0 41.0888 10.8545 446 69.935 198.314 553.121
582 0 43.253 11.6061 502 69.8785 197.679 552.251
583 0 44.149 11.8009 521 68.9098 197.85 551.309
584 0 47.183 11.2964 533 68.7861 197.741 550.959
585 0 47.183 11.2752 532 157.504 198.737 551
586 0 49.1943 12.2372 602 67.7193 197.533 548.714
587 0 52.0401 12.6057 656 67.2058 197.96 548.448
588 0 52.097 11.9969 625 68.5664 197.645 548.221
589 0 53.2939 12.8908 687 67.7103 197.284 547.058
590 0 56.1216 12.7224 714 67.0462 197.471 547.335
591 0 56.1346 12.5769 706 68.1756 198.254 546.462
592 0 58.1799 12.4957 727 68.5062 197.889 545.259
593 0 62.1385 13.3251 828 66.7669 198.033 544.981
594 0 63.1923 12.6756 801 67.8265 198.186 543.443
595 0 62.1237 13.2156 821 67.2716 198.174 541.586
596 0 65.2833 13.2806 867 66.5398 197.646 541.401
597 0 69.2473 13.1269 909 66.5413 198.075 540.331
598 0 71.2026 13.3703 952 65.5693 197.808 539.503
599 0 73.2108 13.7002 1003 65.664 197.512 537.834
600 0 76.1765 13.5081 1029 66.2507 196.983 535.78
601 0 78.0942 13.4325 1049 65.245 197.09 535.876
602 0 81.3229 13.428 1092 66.2198 197.164 532.53
603 0 82.2669 13.1402 1081 66.9047 197.33 531.858
604 0 88.23 13.6008 1200 65.2683 197.431 530.366
605 1 45.1232 9.79541 442 66.8529 198.344 552.412
606 0 44.1029 10.8156 477 65.5849 198.145 553.294
607 0 47.0428 11.9466 562 64.347 197.856 552.123
608 0 48.1001 11.6008 558 66.9301 198.186 549.667
609 0 50.2136 11.5706 581 68.031 198.68 550.561
610 0 51.155 11.514 589 67.9915 198.17 549.655
611 0 53.1283 13.1757 700 67.0386 197.967 545.957
612 0 56.2359 12.8566 723 68.0277 197.824 547.982
613 0 57.1721 12.9609 741 68.274 198.167 545.61
614 0 58.1414 12.6244 734 69.7807 198.128 544.895
615 0 61.0763 13.1966 806 67.4715 198.215 544.793
616 0 64.1341 13.4874 865 68.0405 197.943 542.01
617 0 65.1706 12.8739 839 69.9511 197.92 542.809
618 0 67.078 13.1787 884 69.0781 197.41 541.811
619 0 68.1305 13.1366 895 68.9676 197.646 539.978
620 0 69.113 13.0656 903 68.6024 197.661 539.176
621 0 72.147 13.5695 979 67.9949 197.699 537.916
622 0 74.1281 13.5576 1005 68.4816 197.602 537.055
623 0 77.1317 13.7168 1058 68.1011 198.343 535.707
624 0 79.2204 14.2135 1126 68.2504 198.354 534.952
625 0 81.248 14.2157 1155 68.5974 198.114 534.725
626 0 84.3335 13.5533 1143 70.1697 198.14 532.979
627 0 86.2879 12.945 1117 71.2865 198.318 531.715
628 0 88.3159 13.2819 1173 70.9804 198.168 530.22
629 0 92.4986 13.3948 1239 71.1146 198.031 527.598
630 0 95.1792 14.2153 1353 68.7931 198.206 526.135
631 0 98.3367 14.1249 1389 68.1987 198.155 524.673
632 1 54.1984 11.3103 613 68.8271 198.958 548.227
633 0 57.135 12.0066 686 68.1064 199.044 545.536
634 0 58.1097 12.6313 734 66.8229 199.222 544.488
635 0 62.1929 13.2813 826 64.9249 199.617 544.667
636 0 61.0759 13.475 823 65.3402 199.842 541.736
637 0 64.1345 12.8012 821 65.324 200.061 542.401
638 0 65.128 12.7441 830 65.1012 199.735 540.412
639 0 68.1441 13.4421 916 63.75 199.81 538.789
640 0 73.0709 13.658 998 63.0741 199.982 537.453
641 0 71.1358 13.2142 940 64.8936 200.069 536.411
642 0 74.1427 13.9326 1033 64.2352 199.683 536.595
643 0 78.1442 14.0253 1096 63.7427 200.161 535.811
644 0 79.1918 14.0419 1112 64.2437 200.199 533.791
645 0 82.0733 14.3165 1175 64.6894 200.147 532.657
646 0 85.3157 14.6046 1246 63.5947 200.148 530.374
647 0 88.111 14.2434 1255 64.1976 200.184 527.899
648 0 93.0721 14.0429 1307 64.5142 200.371 527.2
649 0 94.0816 14.126 1329 65.5433 200.222 524.687
650 0 95.232 14.0709 1340 65.9313 200.509 523.633
651 1 53.0449 10.5571 560 66.1071 201.136 547.164
652 0 54.0835 11.3898 616 65.4708 201.351 546.248
653 0 55.1413 11.8967 656 65.3521 201.163 545.983
654 0 56.1094 12.9034 724 65.1202 200.717 543.04
655 0 56.0716 12.5732 705 66.1404 200.403 543.298
656 0 59.0899 13.0987 774 65.6576 200.623 540.916
657 0 60.1855 13.2922 800 65.2762 200.859 541.255
658 0 63.1601 13.4104 847 64.6812 201.125 539.405
659 0 67.1703 13.3541 897 63.2085 200.779 539.249
660 0 69.1316 13.5683 938 63.1684 200.859 536.839
661 0 71.1163 13.6396 970 63.0433 200.76 535.208
662 0 73.1601 13.7097 1003 63.2164 201.224 533.268
663 0 76.2277 13.1448 1002 63.9012 201.592 531.807
664 0 78.1298 14.1559 1106 62.3291 201.65 532.286
665 0 82.0672 13.8301 1135 62.8626 201.726 528.232
666 0 86.1412 13.2573 1142 63.359 202.162 526.889
667 0 88.0495 14.0035 1233 62.7891 202.368 526.406
668 0 93.0624 14.4419 1344 61.9442 201.882 523.926
669 0 95.0892 13.6398 1297 63.2614 202.227 522.433
670 1 53.0495 10.6127 563 63.7851 202.59 543.245
671 0 55.0643 12.2402 674 61.5772 202.88 542.642
672 0 55.0723 12.2566 675 62.117 202.33 540.274
673 0 58.0471 11.5768 672 62.8631 202.36 539.68
674 0 60.1985 12.0767 727 62.1967 202.169 539.199
675 0 60.1985 12.0435 725 154.743 201.177 539.222
676 0 65.3033 12.7865 835 60.1581 202.662 537.919
677 0 65.1618 12.937 843 61.0273 202.843 536.448
678 0 68.1035 13.0096 886 60.3273 203.126 535.463
679 0 68.1118 12.3767 843 61.6465 203.132 533.896
680 0 72.0891 12.2071 880 61.408 203.711 533.684
681 0 74.0844 12.3778 917 60.9771 203.716 533.865
682 0 75.1412 13.2018 992 60.5413 203.494 532.304
683 0 80.1604 13.4231 1076 60.2305 203.589 527.993
684 0 80.2572 11.9366 958 62.7349 203.737 529.455
685 0 84.1263 13.0756 1100 61.6164 203.922 528.795
686 0 87.2046 12.3961 1081 62.4764 202.869 528.018
687 1 46.0444 9.83834 453 63.4062 202.81 547.124
688 0 49.1038 10.6713 524 63.1889 202.601 545.973
689 0 50.0929 10.8997 546 63.5934 202.65 544.833
690 0 51.0414 11.2066 572 64.5227 203.014 542.942
691 0 52.1182 12.1647 634 63.6451 202.479 541.724
692 0 54.2063 12.6185 684 62.4898 203.013 543.047
693 0 55.1764 12.6141 696 63.4282 202.997 541.908
694 0 56.1372 11.8103 663 65.0588 203.026 540.523
695 0 59.1113 12.5188 740 64.2446 202.332 539.224
696 0 62.2197 12.5844 783 63.8289 202.649 538.9
697 0 63.1459 12.6374 798 64.5288 202.445 536.739
698 0 66.0934 13.1329 868 63.4724 202.512 536.536
699 0 68.2746 13.2846 907 63.3429 202.189 536.127
700 0 70.2073 13.2465 930 63.8129 201.986 536.01
701 0 72.0978 13.4123 967 63.5522 201.83 536.137
702 0 75.0371 13.3667 1003 64.2263 201.85 533.454
703 0 77.1244 13.2773 1024 64.6377 201.54 532.171
704 0 78.1269 13.1837 1030 66.2621 201.506 532.618
705 0 81.1988 13.1775 1070 67.1813 201.416 529.104
706 0 84.21 13.8938 1170 65.5479 201.108 527.122
707 1 44.1722 11.1156 491 67.3503 200.495 546.008
708 0 49.1149 10.8317 532 66.7538 200.722 545.842
709 0 47.1184 11.036 520 67.1135 200.935 545.402
710 0 49.1155 11.5035 565 66.6779 200.542 544.471
711 0 51.0382 12.4025 633 66.079 200.913 543.017
712 0 52.0987 12.8026 667 66.7721 201.603 542.409
713 0 56.1572 13.9964 786 64.6705 200.812 543.323
714 0 56.1052 14.0629 789 65.7326 200.545 540.976
715 0 58.1768 13.8887 808 66.2339 200.467 540.868
716 0 61.1716 13.8626 848 65.9104 200.123 541.275
717 0 62.1697 13.5757 844 66.7974 199.794 541.033
718 0 63.3294 13.7377 870 66.6678 199.309 539.989
719 0 65.3192 13.901 908 66.6366 199.518 539.195
720 0 66.2503 13.9018 921 66.4093 199.417 539.1
721 0 68.2557 13.6106 929 67.4855 199.095 538.766
722 0 70.2165 14.3271 1006 66.7913 199.365 537.006
723 0 72.1964 14.0173 1012 67.2767 199.423 537.039
724 0 75.2012 13.3907 1007 68.2413 199.536 534.848
725 0 76.4373 14.1161 1079 68.1733 199.126 533.094
726 0 77.298 13.4544 1040 68.5952 199.119 532.069
727 0 83.2264 14.0941 1173 66.8602 199.169 532.032
728 0 84.3642 13.904 1173 67.7272 198.903 529.957
729 0 89.204 14.7863 1319 64.8969 199.03 528.964
730 0 90.1988 14.0135 1264 65.6994 198.964 528.676
731 0 92.2355 13.8775 1280 65.9125 198.433 526.345
732 0 95.3502 13.7493 1311 66.4989 198.862 522.077
733 0 100.532 14.9206 1500 64.1833 198.211 521.765
734 1 54.114 11.0323 597 65.5779 198.374 545.782
735 0 57.3345 12.3835 710 64.2915 198.817 545.621
736 0 58.3005 12.8987 752 63.0851 198.363 544.43
737 0 60.1554 13.2989 800 64.12 198.371 542.094
738 0 61.452 12.5138 769 65.0117 198.127 542.256
739 0 64.1599 13.3105 854 62.9953 198.604 541.151
740 0 66.2231 12.5485 831 63.9471 198.851 539.961
741 0 68.1987 12.7862 872 63.4369 198.489 538.671
742 0 70.3083 12.7012 893 63.6943 198.3 537.506
743 0 74.2004 12.9514 961 63.23 198.587 537.967
744 0 76.2039 12.8602 980 63.9765 198.172 535.171
745 0 80.2878 12.8662 1033 64.0794 198.252 533.648
746 1 44.1258 9.99416 441 62.5034 198.172 554.481
747 0 44.1927 11.2688 498 61.6064 198.016 552.781
748 0 45.3388 11.5354 523 62.13 197.902 550.893
749 0 46.1865 12.1031 559 61.6977 197.485 551.014
750 0 47.1487 11.9197 562 62.7189 197.626 549.612
751 0 50.1702 12.2583 615 61.7512 197.234 548.489
752 0 52.1717 11.8647 619 62.5315 197.053 549.381
753 0 53.2692 12.0895 644 63.6227 197.177 548.616
754 0 55.2821 12.3729 684 62.8874 197.061 547.873
755 0 53.1079 11.7873 626 65.6869 197.455 546.241
756 0 56.1773 11.6417 654 65.5872 197.586 545.462
757 0 59.2395 11.9346 707 65.5332 197.214 545.887
758 0 59.1565 12.3063 728 66.0769 196.992 545.549
759 0 61.1624 12.524 766 65.842 196.963 544.523
760 0 62.2231 13.098 815 65.7276 196.988 543.26
761 0 65.132 12.9429 843 65.0605 196.921 543.313
762 0 67.1701 12.9671 871 65.0057 196.976 541.517
763 0 71.1744 13.193 939 64.1054 197.25 541.57
764 0 71.3728 12.764 911 65.5499 197.361 539.37
765 0 75.237 13.5572 1020 64.7627 197.791 537.49
766 0 75.3067 13.0002 979 66.1491 197.523 536.622
767 0 79.3761 13.1148 1041 65.6244 197.392 535.031
768 0 82.3295 14.1747 1167 64.4679 196.928 531.548
769 0 84.4406 13.7848 1164 64.6976 197.403 530.921
770 1 47.2686 10.2817 486 66.7778 197.21 550.249
771 0 47.2495 10.6245 502 65.7849 197.237 550.404
772 0 47.3212 11.4536 542 65.8229 196.928 550.338
773 0 50.2514 11.343 570 65.3053 196.751 549.909
774 0 51.1297 11.8718 607 65.3394 195.914 548.216
775 0 54.2786 12.3069 668 64.6362 196.016 547.798
776 0 58.2428 13.1347 765 62.4627 196.024 548.396
777 0 57.4656 13.2253 760 63.5368 196.388 547.083
778 0 60.4464 13.5492 819 62.0366 196.264 544.999
779 0 60.2564 12.8119 772 63.6282 196.657 542.804
780 0 63.3226 13.1391 832 62.7632 196.95 541.562
781 0 65.4642 13.5341 886 62.0643 197.003 541.903
782 0 67.425 13.541 913 62.3888 197.114 540.416
783 0 69.387 12.5672 872 63.2454 197.135 539.659
784 0 70.4289 13.1338 925 63.5816 197.364 538.415
785 0 72.3331 13.6452 987 62.7123 197.866 537.543
786 0 75.5401 14.2176 1074 62.1825 197.582 534.773
787 0 78.3525 13.9498 1093 62.6597 197.629 533.454
788 0 80.1685 13.9082 1115 63.1444 198.187 531.971
789 1 42.2709 10.5037 444 63.7207 198.712 551.642
790 0 45.076 10.5821 477 63.8973 198.929 550.79
791 0 48.1852 11.4143 550 62.8745 198.7 550.313
792 0 49.2954 12.2527 604 62.8974 199.068 548.139
793 0 49.1254 12.2951 604 63.8775 199.078 548.127
794 0 50.0337 11.812 591 64.9746 199.47 547.21
795 0 50.0983 12.196 611 65.2766 199.439 545.773
796 0 54.173 13.0692 708 63.4407 199.815 545.602
797 0 56.3074 13.9236 784 62.0867 199.792 545.106
798 0 57.1533 14.1199 807 62.3185 199.43 544.226
799 0 56.0713 13.4293 753 64.1912 199.857 543.714
800 0 58.1608 13.3251 775 64.049 200.151 542.6
801 0 59.1435 12.9346 765 65.3464 200.371 541.477
802 0 61.1804 13.3049 814 64.3182 200.318 540.58
803 0 65.1859 13.009 848 64.2901 199.946 539.838
804 0 67.2234 13.1948 887 64.0395 199.87 538.193
805 0 67.1215 13.3936 899 64.3048 199.605 537.548
806 0 71.2047 13.6508 972 63.5679 199.778 536.328
807 0 74.1662 14.3731 1066 61.5056 200.19 535.671
808 0 75.1823 13.4207 1009 63.4321 199.955 533.754
809 0 76.2474 14.2693 1088 62.7436 200.354 533.63
810 0 80.1143 13.2436 1061 63.8926 200.61 532.858
811 0 82.1771 13.8968 1142 62.9116 200.714 532.048
812 0 87.1387 14.3794 1253 62.2578 201.346 528.658
813 0 89.1774 14.1404 1261 62.6249 201.297 527.849
814 1 50.1097 10.477 525 64.8229 201.981 546.234
815 0 51.0515 10.6363 543 63.8858 202.088 546.074
816 0 52.1562 11.0438 576 63.2274 202.102 546.26
817 0 54.1491 11.3391 614 63.8094 201.844 543.521
818 0 57.0157 12.7158 725 61.6566 201.95 543.228
819 0 59.0588 12.5638 742 61.7062 201.865 542.629
820 0 61.0521 13.4475 821 60.6663 201.988 541.297
821 0 60.0864 12.1824 732 62.7541 201.417 541.079
822 0 64.0538 12.8798 825 61.4267 201.298 541.392
823 0 66.0717 14.0151 926 59.9957 201.448 538.024
824 0 67.1597 11.629 781 62.662 201.703 538.369
825 0 69.1279 13.3521 923 60.8191 201.83 536.622
826 0 71.1685 12.5758 895 61.8659 201.895 535.091
827 0 73.1727 13.147 962 61.5593 201.903 534.444
828 0 78.1199 13.2617 1036 60.3967 201.663 533.164
829 0 80.0819 13.0616 1046 61.2141 201.954 530.228
830 0 82.0715 13.7928 1132 60.3251 201.427 528.973
831 0 85.0585 13.3202 1133 61.1342 201.444 527.21
832 0 89.161 14.3673 1281 59.7369 201.215 528.251
833 0 92.1325 13.8279 1274 60.8108 201.089 525.027
834 0 92.127 12.9061 1189 62.9714 200.719 523.162
835 0 96.2471 12.9043 1242 62.7874 200.794 523.36
836 1 53.1432 11.4408 608 60.4934 200.847 543.952
837 0 55.2323 10.4649 578 62.4066 200.548 542.675
838 0 56.1323 11.081 622 62.0386 200.395 543.862
839 0 58.0859 11.965 695 61.518 201.066 541.522
840 0 59.2386 11.8166 700 61.2886 200.596 542.519
841 0 60.1924 12.5265 754 60.6048 200.273 541.757
842 0 62.1539 12.2599 762 61.231 200.388 541.381
843 0 65.1154 12.1937 794 61.4534 200.487 539.431
844 0 66.0735 12.3045 813 62.4453 200.769 537.25
845 0 69.0906 12.5198 865 62.4462 199.954 536.95
846 0 70.0815 11.5722 811 64.1282 199.615 537.121
847 0 74.1817 13.5613 1006 61.4433 199.597 535.042
848 0 75.1203 13.099 984 62.8902 199.405 534.567
849 0 77.2179 12.6655 978 64.1247 199.214 534.085
850 0 80.0939 13.3344 1068 63.7706 199.648 530.385
851 0 83.1835 12.6467 1052 64.6597 199.349 532.471
852 0 86.1393 12.9906 1119 64.8517 200.108 530.57
853 0 88.231 13.1926 1164 65.1452 200.115 528.663
854 0 91.211 12.959 1182 66.0305 200.039 527.444
855 0 94.2765 13.0255 1228 66.1189 199.977 527.854
856 0 95.2752 12.6371 1204 67.6229 199.909 524.845
857 1 52.0702 9.62162 501 68.1956 199.906 547.281
858 0 56.0447 10.5987 594 66.9882 200.394 548.269
859 0 58.0651 10.6088 616 67.4091 199.901 545.393
860 0 60.0624 11.0552 664 66.4639 200.03 545.066
861 0 60.0909 10.8669 653 67.1914 200.185 543.741
862 0 62.1576 11.8731 738 65.6789 199.176 541.13
863 0 62.1663 11.4371 711 67.4037 199.361 538.75
864 0 64.1667 12.7013 815 66.6209 198.993 537.339
865 0 67.0444 13.1555 882 65.924 199.685 536.649
866 0 70.1176 12.7643 895 65.9642 198.945 535.065
867 0 73.1881 13.3355 976 64.7172 197.282 534.716
868 0 73.0776 12.603 921 66.5776 197.38 534.517
869 0 76.1203 12.8744 980 67.5694 197.989 532.959
870 0 80.1855 12.2217 980 68.3745 198.026 531.457
871 0 81.2413 12.7521 1036 68.9015 197.461 530.212
872 0 81.2413 12.7521 1036 169.158 196.462 530.232
873 0 86.1978 14.1303 1218 67.4729 197.747 527.77
874 0 85.3122 13.0345 1112 69.6781 198.1 525.935
875 0 89.2772 13.2509 1183 69.2806 197.993 526.491
876 0 92.1661 13.3997 1235 69.5838 197.445 523.315
877 0 94.3918 13.1897 1245 69.8675 197.089 524.62
878 0 98.4566 13.2241 1302 70.0046 197.268 521.127
879 1 53.4311 11.716 626 70.2332 197.179 543.639
880 0 52.4321 10.9475 574 71.6777 197.178 543.199
881 0 56.1115 11.9227 669 70.1211 197.638 543.58
882 0 58.1121 11.7359 682 70.324 197.938 544.01
883 0 60.1577 12.1348 730 70.4425 198.39 542.734
884 0 62.094 12.8032 795 69.7434 198.868 541.326
885 0 63.0841 13.6167 859 68.1944 198.553 541.432
886 0 65.0742 12.6471 823 70.2868 198.446 537.733
887 0 68.2547 12.9368 883 69.2254 198.299 536.649
888 0 69.3205 13.113 909 69.4213 198.162 534.528
889 0 70.207 12.7338 894 70.2729 198.026 532.663
890 0 74.4356 13.4747 1003 69.2303 198.123 530.536
891 0 75.2872 13.1496 990 70.2131 197.859 530.163
892 0 80.3411 13.0817 1051 70.3758 198.104 528.814
893 0 80.216 13.8127 1108 106.517 198.645 523.383
894 0 83.458 13.5038 1127 68.6264 198.552 525.287
895 0 85.2777 13.6261 1162 69.1368 198.944 523.665
896 0 89.3718 14.2774 1276 67.4451 199.627 523.971
897 0 93.3452 14.7624 1378 66.9064 199.612 518.833
898 0 96.2829 13.8758 1336 68.6609 199.954 518.992
899 0 98.2766 14.3574 1411 67.5847 200.381 516.924
900 0 100.309 14.3556 1440 68.0521 200.344 515.412
901 0 106.396 14.4554 1538 67.554 200.036 514.249
902 0 108.378 14.3203 1552 67.5077 200.411 513.303
903 0 112.28 15.0962 1695 66.5516 200.207 508.802
904 1 61.1476 10.8753 665 69.3669 199.841 534.403
905 0 62.1164 11.6716 725 68.6317 199.84 534.251
906 0 64.1377 11.3818 730 69.0753 200.442 533.945
907 0 65.0965 12.7042 827 67.8525 200.881 534.378
908 0 69.0887 13.3162 920 66.6707 201.336 535.048
909 0 69.2054 13.1493 910 67.8802 201.301 534.136
910 0 72.0367 13.0211 938 68.0512 201.376 534.594
911 0 77.1521 13.6225 1051 67.0409 201.553 531.694
912 0 79.116 13.6129 1077 67.5292 201.705 530.869
913 0 82.134 13.9528 1146 67.1309 201.965 529.88
914 0 84.0479 12.6238 1061 69.5919 201.779 529.212
915 0 85.1224 13.6392 1161 69.236 201.902 527.414
916 0 89.0935 13.3006 1185 69.6582 201.779 525.877
917 0 91.113 13.6095 1240 69.5024 202.302 523.448
918 0 95.1969 14.3387 1365 68.2352 202.308 521.16
919 0 98.1607 14.1605 1390 69.1468 202.232 520.167
920 0 99.1103 14.045 1392 70.0093 202.284 518.093
921 1 55.082 10.8928 600 70.4517 203.012 541.84
922 0 55.134 10.8826 600 70.8617 203.02 540.845
923 0 58.2006 11.8212 688 69.3881 203.769 539.906
924 0 62.099 12.8504 798 68.7306 203.417 538.266
925 0 64.175 12.3413 792 69.4886 203.114 538.189
926 0 63.1198 12.9278 816 69.8321 203.32 536.387
927 0 67.1717 13.9196 935 67.8909 203.221 535.778
928 0 68.1254 12.6972 865 70.0555 203.246 535.569
929 0 71.2654 13.0358 929 69.2078 203.473 533.122
930 0 73.1813 12.7218 931 70.1955 203.235 532.671
931 0 75.1125 12.1152 910 71.7527 203.112 531.725
932 0 78.1221 12.6981 992 70.749 203.134 530.492
933 0 81.1551 12.6301 1025 71.2049 202.917 527.544
934 0 83.0798 12.6986 1055 70.819 202.789 527.225
935 0 86.0855 13.2775 1143 69.5074 202.443 525.477
936 0 90.0683 12.7681 1150 69.9435 202.725 525.75
937 0 94.0556 13.7791 1296 68.1327 202.667 522.959
938 0 95.0926 13.0399 1240 69.529 202.57 519.927
939 0 99.3219 13.1693 1308 69.3341 202.427 518.002
940 1 55.0603 10.0072 551 68.8457 203.109 541.2
941 0 57.0595 10.3751 592 69.1267 202.921 539.397
942 0 57.0251 11.2582 642 68.5872 202.827 537.748
943 0 59.0601 12.1233 716 67.2514 202.018 535.697
944 0 63.1098 12.2485 773 66.2885 201.772 536.299
945 0 63.0432 11.3097 713 68.0715 201.539 535.245
946 0 65.1027 12.319 802 66.01 201.258 536.19
947 0 68.0702 11.8848 809 66.8554 201.026 533.925
948 0 70.0702 12.6302 885 65.2373 200.803 533.939
949 0 71.0696 12.4385 884 65.6833 200.903 532.103
950 0 74.1047 12.3879 918 65.5403 200.426 531.315
951 0 75.1772 12.424 934 65.2827 200.684 531.069
952 0 79.0674 12.1795 963 65.7892 200.556 529.417
953 0 79.101 11.8203 935 66.6642 201.427 527.953
954 0 84.1191 13.1005 1102 65.0136 201.107 526.459
955 0 86.072 11.9086 1025 66.3034 200.894 526.093
956 0 90.1526 12.3346 1112 65.2518 201.036 526.232
957 0 93.153 12.5814 1172 65.1587 200.995 523.51
958 1 49.0889 9.96151 489 64.1534 201.693 546.849
959 0 47.0232 10.0589 473 65.3235 201.249 547.516
960 0 51.1146 9.95801 509 64.6483 201.251 545.735
961 0 52.1152 10.8414 565 64.5221 200.765 544.752
962 0 53.0435 11.1984 594 63.362 200.205 544.33
963 0 54.1972 11.4766 622 64.6463 200.428 542.587
964 0 58.2306 11.8838 692 63.0202 200.244 542.499
965 0 59.097 11.5573 683 63.6369 200.007 541.078
966 0 62.215 12.4889 777 62.444 199.819 540.4
967 0 63.2385 12.0654 763 62.9934 200.239 541.241
968 0 65.1625 12.7834 833 62.018 200.197 539.358
969 0 67.0643 11.9288 800 63.1162 200.119 538.101
970 0 69.1099 12.0388 832 63.4976 200.172 536.175
971 0 72.1234 12.2984 887 63.0023 200.266 535.556
972 0 75.1819 12.7557 959 62.292 199.953 534.61
973 0 74.2027 13.1666 977 62.6203 199.523 533.084
974 0 77.2074 13.0169 1005 63.003 200.134 531.703
975 0 80.1298 12.5671 1007 63.432 199.26 531.733
976 0 84.1858 12.6981 1069 63.0299 199.377 530.468
977 0 87.0738 12.3344 1074 63.0875 199.642 527.465
978 0 89.337 13.3763 1195 61.8728 199.129 525.609
979 0 94.2897 13.3525 1259 61.6521 199.211 526.728
980 0 95.1162 12.532 1192 62.7987 199.012 524.794
981 1 54.13 9.66193 523 62.8375 199.818 545.964
982 0 56.0844 10.7517 603 61.0862 199.927 543.502
983 0 58.1105 10.6521 619 60.8998 199.893 542.624
984 0 59.1112 10.3364 611 62.4403 199.108 541.242
985 0 62.1932 12.1074 753 60.6056 199.076 541.809
986 0 62.1467 12.3418 767 60.9557 198.518 540.638
987 0 66.2123 13.0187 862 59.6821 198.602 540.363
988 0 65.1081 12.0876 787 61.2668 198.921 539.628
989 0 69.3634 12.7301 883 60.2888 198.284 537.982
990 0 69.2529 11.9706 829 61.7407 198.358 538.394
991 0 72.1389 12.0185 867 61.7082 198.701 537.336
992 0 76.1779 12.9828 989 60.094 198.234 537.145
993 0 76.1243 13.0445 993 61.1944 198.739 536.712
994 0 80.1413 13.3514 1070 60.3505 198.469 535.307
995 0 83.1474 13.6986 1139 60.101 198.325 534.045
996 0 84.1972 12.5064 1053 61.9668 198.215 532.516
997 0 85.1105 12.1372 1033 63.544 198.172 530.88
998 0 89.1749 12.9297 1153 62.6826 197.881 528.845
999 0 90.1749 12.631 1139 63.6128 197.881 528.576
1000 0 94.2553 13.177 1242 63.3728 198.22 525.992
1001 0 97.1391 13.6196 1323 62.6939 198.65 524.567
1002 0 99.1797 13.5209 1341 63.8799 198.307 524.91
1003 0 101.264 13.2723 1344 63.9993 198.004 522.367
1004 0 107.189 12.7999 1372 64.5999 198.004 520.223
1005 1 60.0956 11.1655 671 63.9672 198.93 544.902
1006 0 61.1601 11.5925 709 63.6107 199.276 543.313
1007 0 64.1087 11.6833 749 63.1348 199.131 542.403
1008 0 67.1639 12.7896 859 62.3679 199.491 540.553
1009 0 68.1458 12.9575 883 63.2356 198.824 538.709
1010 0 70.1645 13.0265 914 63.6586 198.659 537.699
1011 0 72.0952 13.0383 940 65.2043 198.804 536.74
1012 0 75.2738 12.687 955 65.5382 198.147 535.764
1013 0 78.3182 13.1515 1030 66.099 198.63 536.098
1014 0 78.2229 12.9118 1010 67.8832 198.625 535.675
1015 0 81.1987 12.7588 1036 67.8137 198.594 533.625
1016 0 86.2652 14.0729 1214 65.1417 198.945 532.039
1017 0 87.3685 13.712 1198 66.1277 198.494 529.194
1018 0 89.4314 13.9325 1246 66.443 198.946 528.613
1019 0 92.3091 13.3248 1230 68.0772 198.341 526.133
1020 0 97.358 13.8253 1346 66.8366 198.406 525.252
1021 0 98.4846 13.4539 1325 68.1774 198.412 524.591
1022 0 102.387 13.9959 1433 67.0558 198.508 523.418
1023 0 103.319 13.5212 1397 68.9506 198.698 522.468
1024 0 106.245 13.4501 1429 70.1197 199.33 520.08
1025 0 110.337 14.4195 1591 67.807 199.166 519.36
1026 0 111.353 13.5695 1511 69.9669 199.766 517.508
1027 0 116.517 14.4614 1685 68.2682 199.436 513.415
1028 1 67.1862 12.3984 833 70.5906 199.347 538.782
1029 0 69.2676 11.535 799 71.179 199.633 539.942
1030 0 68.2184 12.0349 821 71.9428 199.931 538.814
1031 0 72.1681 13.3161 961 70.2102 200.02 538.801
1032 0 75.2484 13.6215 1025 69.3512 199.999 537.56
1033 0 77.1202 13.7577 1061 68.6598 199.959 536.418
1034 0 79.1568 13.4038 1061 69.6183 200.161 533.076
1035 0 83.19 14.7013 1223 67.3197 200.28 531.347
1036 0 85.1068 14.3702 1223 67.7302 201.132 530.65
1037 0 86.2338 13.8925 1198 69.6795 201.361 529.79
1038 0 90.1519 14.3203 1291 68.9101 201.738 526.688
1039 0 93.1924 14.0569 1310 69.0878 201.663 525.38
1040 0 97.4504 14.6741 1430 68.058 201.713 520.95
1041 0 100.309 14.1463 1419 68.7428 202.099 520.493
1042 0 103.169 14.3842 1484 69.2689 202.208 518.162
1043 0 105.208 14.4666 1522 69.088 202.338 518.645
1044 0 109.194 14.0668 1536 69.8919 202.387 517.828
1045 0 114.204 14.4216 1647 68.606 201.906 516.888
1046 0 118.346 14.4407 1709 68.6577 202.407 514.446
1047 1 63.1089 12.011 758 69.9314 202.231 540.332
1048 0 65.1099 12.118 789 69.7123 202.324 539.678
1049 0 70.2277 13.1572 924 68.1981 202.477 536.688
1050 0 72.2098 14.3194 1034 66.913 202.638 533.704
1051 0 75.1479 14.4515 1086 66.0801 202.863 534.177
1052 0 77.1297 14.5599 1123 67.0187 203.405 531.441
1053 0 78.0382 13.6087 1062 69.4831 202.79 529.807
1054 0 80.059 14.889 1192 66.9396 203.06 531.614
1055 0 84.1742 15.5867 1312 65.9718 203.421 529.22
1056 0 87.1844 15.5877 1359 65.8514 203.143 526.659
1057 0 89.235 14.0976 1258 68.4936 203.067 525.198
1058 0 90.1588 14.663 1322 68.5061 202.517 523.364
1059 0 95.1309 15.4839 1473 66.9538 202.485 523.012
1060 0 97.1444 15.4306 1499 67.0747 202.829 522.829
1061 0 99.1743 14.5905 1447 68.5342 203.15 519.949
1062 0 104.167 14.7743 1539 68.3099 203.434 518.712
1063 0 105.28 14.6277 1540 69.6201 203.452 517.708
1064 0 109.182 14.9384 1631 69.3354 203.262 516.518
1065 0 114.14 15.3496 1752 69.1798 203.092 515.666
1066 0 115.208 15.4851 1784 69.5045 202.89 514.715
1067 0 117.301 14.8251 1739 71.142 203.056 512.019
1068 0 124.367 15.4945 1927 69.3077 202.498 509.403
1069 0 127.173 15.302 1946 69.9589 202.113 508.069
1070 1 66.13 13.7456 909 70.8119 202.064 538.794
1071 0 67.2123 13.435 903 72.1163 202.204 536.743
1072 0 70.1005 13.9371 977 71.1771 202.029 537.197
1073 0 73.2376 14.6373 1072 70.0681 201.971 534.736
1074 0 74.2761 14.7961 1099 69.848 201.669 533.51
1075 0 77.2451 14.6288 1130 70.0673 201.742 532.56
1076 0 82.2078 15.5703 1280 67.8078 201.927 531.738
1077 0 83.1681 14.4647 1203 70.3658 201.451 529.829
1078 0 86.4394 14.9932 1296 69.2076 201.751 528.587
1079 0 89.1832 15.3953 1373 68.9257 201.237 525.772
1080 0 91.2642 15.0114 1370 69.6022 200.882 525.985
1081 0 94.2732 14.5959 1376 70.3154 201.015 522.582
1082 0 97.3169 14.91 1451 70.0565 200.898 522.235
1083 0 101.35 15.5501 1576 69.0025 200.962 521.046
1084 0 104.294 15.6097 1628 69.0461 201.042 519.955
1085 0 106.409 14.9047 1586 69.9905 200.875 519.597
1086 0 110.231 14.642 1614 71.0787 200.95 516.432
1087 0 114.398 15.5509 1779 69.3367 201.474 515.112
1088 0 117.28 14.9215 1750 70.2571 201.169 513.61
1089 1 65.2997 13.3232 870 72.3471 200.992 539.661
1090 0 64.1861 14.0685 903 72.3079 201.033 539.159
1091 0 67.1771 14.9754 1006 71.1779 200.986 538.515
1092 0 70.5858 14.6772 1036 72.3475 200.842 534.903
1093 0 72.3583 14.9534 1082 72.0665 201.115 534.993
1094 0 74.3933 15.6197 1162 71.1119 200.775 533.606
1095 0 77.1901 15.5072 1197 71.457 200.93 531.924
1096 0 81.2798 15.4282 1254 71.248 201.129 530.92
1097 0 83.1432 15.6718 1303 71.449 200.89 529.018
1098 0 86.5695 15.4673 1339 71.8708 200.662 528.004
1099 0 89.3679 14.748 1318 73.3558 200.536 525.331
1100 0 92.191 15.6089 1439 72.1369 200.586 526.365
1101 0 95.3315 15.3989 1468 73.0831 200.83 524.523
1102 0 99.2769 15.1596 1505 73.5355 200.521 522.957
1103 1 48.2888 13.7506 664 76.9804 199.616 547.73
1104 0 51.2272 14.7187 754 74.7851 199.477 546.336
1105 0 56.3532 14.693 828 74.3865 199.463 544.691
1106 0 55.2795 14.5623 805 76.7068 199.516 542.591
1107 0 59.3547 16.0055 950 73.9084 199.704 543.175
1108 0 61.1807 14.6778 898 76.343 199.716 540.611
1109 0 64.4756 15.0755 972 74.7634 199.758 540.328
1110 0 66.3195 15.2444 1011 75.3571 199.754 538.988
1111 0 67.2533 15.8356 1065 74.8845 199.867 537.884
1112 0 68.1264 15.5887 1062 75.79 199.675 537.182
1113 0 71.3278 14.917 1064 77.2105 199.656 535.521
1114 0 73.2958 15.5671 1141 76.2436 199.365 535.139
1115 0 75.3558 15.2344 1148 76.8354 199.042 534.836
1116 0 79.2489 15.9371 1263 75.5329 198.795 531.847
1117 0 81.6961 15.6556 1279 76.0493 198.586 533.547
1118 0 83.175 15.8942 1322 76.6672 198.2 531.589
1119 0 87.4876 14.7335 1289 78.4329 198.58 531.462
1120 1 42.178 12.3524 521 84.4146 198.464 551.351
1121 0 42.2093 13.5989 574 84.0087 198.854 550.993
1122 0 45.4023 14.5147 659 82.8316 198.879 549.734
1123 0 44.2382 15.2809 676 83.3462 198.552 549.001
1124 0 48.4591 15.1468 734 81.5054 198.313 549.545
1125 0 48.7899 14.4702 706 82.3428 198.237 549.211
1126 0 50.695 14.459 733 82.5252 198.701 547.588
1127 0 50.5076 15.364 776 81.893 198.329 547.553
1128 0 55.5122 16.4288 912 77.9331 198.195 544.938
1129 0 54.5409 16.0063 873 80.6438 198.69 545.585
1130 0 57.4081 14.4056 827 83.5828 198.631 545.764
1131 0 59.3154 14.954 887 82.7756 198.653 545.018
1132 0 59.3257 15.6593 929 82.4435 198.871 545.026
1133 0 60.5486 14.798 896 84.9866 199.176 544.614
1134 0 63.5826 14.6896 934 85.5064 198.956 543.686
1135 0 65.7999 15.304 1007 84.6902 199.485 542.716
1136 0 67.8454 15.2111 1032 85.687 198.676 541.031
1137 0 71.8447 15.1855 1091 85.3474 198.764 541.556
1138 0 73.8742 15.1203 1117 85.6437 198.692 539.888
1139 1 36.545 12.8882 471 89.3694 199.516 554.609
1140 0 38.4357 14.4918 557 87.3052 199.487 554.907
1141 0 39.6758 13.8119 548 87.9252 199.894 555.757
1142 0 40.7312 14.1661 577 89.7244 199.619 554.14
1143 0 40.352 15.0426 607 89.5651 199.954 553.685
1144 0 43.3878 15.0042 651 89.0323 200.012 553.568
1145 0 44.5192 14.4207 642 90.1075 200.252 553.107
1146 0 46.213 15.645 723 88.13 199.773 552.112
1147 0 48.4348 15.3402 743 88.2221 200.306 552.017
1148 0 50.4404 14.1553 714 89.8109 200.458 551.913
1149 0 50.3074 15.0873 759 89.4466 200.999 549.65
1150 0 50.2467 15.0657 757 89.8613 200.873 549.332
1151 0 53.2874 15.2569 813 88.9914 201.299 549.311
1152 0 54.3528 15.381 836 89.1447 201.102 548.852
1153 0 55.752 15.7124 876 88.1849 200.995 547.791
1154 0 56.2084 15.8517 891 88.9327 201.177 545.963
1155 0 57.5667 15.1998 875 90.5429 201.613 545.491
1156 0 61.416 15.1915 933 89.6249 201.94 545.385
1157 0 61.5708 15.1533 933 90.8499 202.585 543.585
1158 0 63.4022 15.6304 991 89.6034 202.534 542.627
1159 0 65.415 15.8526 1037 88.9942 202.936 542.413
1160 0 68.2739 16.0676 1097 88.5816 203.296 540.803
1161 0 68.4339 15.3287 1049 91.4214 204.279 539.129
1162 0 72.326 15.7896 1142 89.6392 204.048 539.171
1163 0 74.3849 15.9575 1187 89.6967 204.142 536.803
1164 0 78.4458 16.9416 1329 87.0444 204.242 534.843
1165 0 79.4338 16.2525 1291 88.8753 204.256 532.644
1166 1 40.2951 13.2771 535 91.3813 204.279 552.312
1167 0 42.427 13.5527 575 90.5948 204.28 552.875
1168 0 42.1824 14.3425 605 89.8099 204.608 551.817
1169 0 44.2639 14.6169 647 87.9969 204.164 550.41
1170 0 46.326 14.6354 678 88.056 204.571 549.87
1171 0 47.5065 14.5033 689 88.4107 204.916 549.922
1172 0 48.3854 15.3145 741 86.6626 204.903 548.225
1173 0 49.2823 15.746 776 86.1701 205.634 548.58
1174 0 50.2893 15.4108 775 87.1974 205.8 548.663
1175 0 53.3931 15.3578 820 87.039 205.449 546.779
1176 0 54.4351 15.5047 844 87.7085 205.494 546.077
1177 0 54.3811 15.4282 839 89.5971 205.25 544.38
1178 0 57.4211 14.9422 858 90.6014 205.321 543.512
1179 0 59.2884 15.3318 909 89.4983 205.446 543.212
1180 0 60.3867 14.8212 895 91.333 205.095 542.116
1181 0 61.4747 14.8516 913 91.7076 205.444 540.563
1182 0 64.2347 15.708 1009 89.6997 204.442 539.332
1183 0 66.5835 15.5444 1035 89.4966 204.438 538.161
1184 0 66.2586 15.349 1017 90.5438 204.577 537.901
1185 0 69.38 15.3503 1065 90.1981 205.179 536.107
1186 0 70.267 15.6119 1097 90.2461 204.505 534.844
1187 0 74.2831 15.2928 1136 89.2984 204.496 534.342
1188 0 76.3385 14.7894 1129 90.0487 204.389 532.834
1189 0 80.3235 15.4376 1240 88.0935 204.523 531.165
1190 0 81.1535 14.6389 1188 89.8729 203.854 529.675
1191 1 40.1516 11.6558 468 80.8846 204.25 550.489
1192 0 41.1684 11.2222 462 81.2706 204.271 548.054
1193 0 42.5019 10.7525 457 79.2101 204.024 549.123
1194 0 40.2692 9.75933 393 78.7659 204.285 551.013
1195 0 41.1134 10.5805 435 76.869 204.531 549.786
1196 0 44.2789 9.44016 418 76.5981 204.077 550.411
1197 0 46.6508 8.16706 381 78.9869 204.323 548.577
1198 0 47.344 10.6666 505 74.8792 203.582 549.257
1199 0 46.2376 8.60771 398 76.2538 203.897 550.98
1200 0 53.8267 8.08149 435 75.9103 202.993 547.936
1201 0 55.6468 9.23682 514 74.5525 202.949 546.875
1202 0 52.1802 9.08391 474 73.8797 202.665 548.297
1203 0 52.1464 8.93637 466 74.794 202.373 546.26
1204 0 56.2314 9.44313 531 73.6497 201.896 546.576
1205 0 58.7361 9.32987 548 74.7135 201.889 544.004
1206 0 58.1945 8.86682 516 75.6744 202.107 544.434
1207 0 60.1777 8.87372 534 75.0169 201.818 544.831
1208 0 60.1666 9.15791 551 75.6407 201.88 543.574
1209 0 62.0892 9.51856 591 74.4315 202.012 542.584
1210 0 65.1884 9.9711 650 72.7477 202.031 542.058
1211 0 66.1919 10.3789 687 72.4454 202.052 541.841
1212 0 68.2689 8.87667 606 74.2244 202.008 541.358
1213 0 68.2864 9.92877 678 73.6032 201.586 539.563
1214 0 69.1849 9.49629 657 74.5647 201.155 540.519
1215 0 72.1318 9.87082 712 75.0885 201.049 537
1216 0 75.3965 10.8758 820 73.6329 200.773 536.402
1217 0 75.2037 10.2256 769 75.1053 200.324 536.085
1218 1 91.525 7.65911 701 76.8374 199.74 535.358
1219 0 93.4422 8.80759 823 74.6646 199.388 536.027
1220 0 93.4424 7.96212 744 77.3159 199.397 533.794
1221 0 87.2881 9.46292 826 74.6538 199.713 534.018
1222 0 90.3632 10.1369 916 74.1288 200.002 529.195
1223 0 89.3647 10.5858 946 73.4841 200.003 528.799
1224 0 88.2752 9.2778 819 74.4542 199.761 530.271
1225 0 89.3618 8.3257 744 73.0202 199.956 534.378
1226 1 56.2797 10.5011 591 69.4264 200.2 544.983
1227 0 59.2642 10.5966 628 69.3153 200.029 544.054
1228 0 60.2687 10.2707 619 68.9758 199.751 544.493
1229 0 61.2229 10.6659 653 68.4104 199.181 543.507
1230 0 65.2205 10.7022 698 67.9054 200 541.43
1231 0 64.1639 11.268 723 67.5118 200.219 542.26
1232 0 68.1598 10.8862 742 67.4663 199.559 538.17
1233 0 68.2033 10.7326 732 67.8689 200.06 539.171
1234 0 71.1894 9.83292 700 68.9014 200.057 536.186
1235 0 73.2107 10.8864 797 67.8971 200.227 536.567
1236 0 75.2691 10.2034 768 68.3008 200.271 538.216
1237 0 78.1806 10.3095 806 68.3499 200.313 534.404
1238 0 77.2635 10.3024 796 67.6357 200.03 534.765
1239 0 81.3496 9.67429 787 69.2656 199.889 535.241
1240 0 80.2654 10.5899 850 68.7376 199.491 533.924
1241 0 81.516 9.96124 812 70.0148 199.959 534.41
1242 1 45.1554 9.94345 449 66.078 200.59 552.984
1243 0 47.285 9.62251 455 65.8154 199.776 553.633
1244 0 47.2883 10.2351 484 65.6612 199.343 553.285
1245 0 47.3883 10.2135 484 66.5413 198.988 552.496
1246 0 50.2845 10.3213 519 65.6397 198.815 551.012
1247 0 50.4427 10.2492 517 66.9652 198.876 550.263
1248 0 51.7879 9.80924 508 69.185 198.262 550.341
1249 0 53.6405 11.0551 593 67.6307 198.634 549.653
1250 0 53.7619 10.1187 544 70.3419 198.29 547.893
1251 0 58.4938 10.8217 633 67.0806 198.907 545.575
1252 0 60.3774 11.66 704 66.9844 198.844 544.935
1253 0 59.5115 11.3592 676 68.0429 198.376 545.806
1254 0 69.6574 15.2748 1064 59.5846 199.011 538.567
1255 0 76.7259 16.2527 1247 56.3593 199.349 534.448
1256 0 75.5291 16.6426 1257 56.9745 200.034 534.048
1257 0 78.7602 15.9852 1259 58.0024 200.199 531.706
1258 0 80.8261 14.525 1174 60.402 200.741 532.745
1259 1 42.5519 10.1523 432 66.8102 200.454 550.826
1260 0 42.5831 10.591 451 65.8004 200.945 550.869
1261 0 43.4236 10.6854 464 66.7823 200.886 549.828
1262 0 46.4504 11.5607 537 65.5028 201.108 549.037
1263 0 46.4296 11.9751 556 67.036 201.063 548.18
1264 0 47.545 12.3041 585 67.3265 201.203 547.853
1265 0 48.5104 12.7189 617 67.6985 201.159 545.997
1266 0 50.6092 12.7447 645 66.955 201.482 545.402
1267 0 53.7059 12.1402 652 66.9985 201.729 545.334
1268 0 53.6784 12.6867 681 67.0749 202.188 543.38
1269 0 55.5247 12.4269 690 67.7536 202.741 542.61
1270 0 58.7865 13.0982 770 65.4091 203.217 545.182
1271 0 58.4256 12.9224 755 67.9735 203.381 542.795
1272 0 57.5398 13.4863 776 68.0322 203.581 541.664
1273 0 60.5849 12.8415 778 69.7532 203.902 539.603
1274 0 62.6541 12.9281 810 69.6654 204.194 537.367
1275 0 63.6109 12.8437 817 70.3035 204.501 538.377
1276 0 64.555 13.0896 845 70.2142 204.36 536.871
1277 0 67.675 13.1511 890 70.4933 204.555 536.597
1278 0 68.5287 13.0018 891 70.2447 205.224 536.309
1279 0 70.587 13.2744 937 70.0619 205.501 535.003
1280 0 72.692 12.9175 939 71.5953 205.551 533.081
1281 0 73.6468 13.171 970 71.5041 205.798 531.13
1282 0 77.6123 13.5288 1050 70.3381 205.933 530.228
1283 0 77.7185 14.2437 1107 69.2656 206.051 529.123
1284 0 81.4947 14.6022 1190 68.6202 206.492 529.918
1285 0 81.6771 14.2145 1161 69.4565 206.161 528.807
1286 0 84.5023 13.4908 1140 70.7921 206.291 525.454
1287 0 88.5539 13.935 1234 69.6734 206.352 524.765
1288 1 51.4037 11.147 573 72.1012 206.005 543.653
1289 0 52.3697 12.0871 633 70.4044 205.942 543.613
1290 0 53.5582 12.1176 649 71.245 206.031 541.398
1291 0 54.2737 11.2393 610 72.3721 205.785 540.198
1292 0 57.4044 12.8387 737 70.1438 205.828 540.969
1293 0 58.4042 11.9512 698 72.4427 205.592 539.195
1294 0 59.4188 13.1608 782 69.9297 206.277 539.381
1295 0 61.4575 12.6592 778 71.3907 205.861 537.276
1296 0 63.5637 13.0263 828 70.7126 206.221 536.987
1297 0 65.6369 12.8891 846 70.591 206.202 536.453
1298 0 66.5018 13.3681 889 69.6445 206.108 535.416
1299 0 67.6325 13.2776 898 70.1192 206.094 535.179
1300 0 69.2147 13.7976 955 69.7288 205.993 533.96
1301 0 73.3523 13.701 1005 68.8328 205.496 531.196
1302 0 74.5974 14.2632 1064 68.5113 205.417 530.393
1303 0 77.521 13.635 1057 69.4333 205.075 532.535
1304 0 80.4639 14.1803 1141 67.156 204.83 530.245
1305 0 82.6019 14.8544 1227 66.2518 205.517 527.937
1306 0 84.5042 14.165 1197 67.8429 205.351 527.373
1307 0 85.3336 13.0078 1110 70.1703 204.746 527.296
1308 0 90.6275 13.5058 1224 68.4085 205.481 524.467
1309 0 91.3576 13.168 1203 69.3541 204.607 523.913
1310 1 52.2249 10.9718 573 68.925 204.878 544.098
1311 0 54.1343 12.3397 668 66.4716 204.904 543.428
1312 0 54.1897 11.9026 645 67.3209 204.533 543.124
1313 0 57.1826 12.6087 721 65.8183 204.409 542.083
1314 0 57.1273 12.2708 701 66.7917 203.904 542.058
1315 0 59.1246 12.2792 726 65.6983 203.705 541.11
1316 0 61.3914 13.7641 845 63.6994 203.754 540.64
1317 0 63.1934 14.3211 905 62.9536 203.656 541.653
1318 0 65.2179 14.1832 925 63.1632 203.499 540.056
1319 0 65.1622 12.9523 844 65.1777 203.218 540.161
1320 0 68.1826 12.9505 883 64.8584 202.136 536.967
1321 0 70.1592 13.5977 954 64.4486 202.158 536.347
1322 0 73.1946 14.2497 1043 63.0767 202.068 536.207
1323 0 74.3196 13.8052 1026 64.0604 202.305 533.545
1324 0 76.1225 13.741 1046 63.7447 202.13 532.136
1325 0 80.1275 13.3537 1070 63.8654 202.275 532.807
1326 0 83.1531 14.1787 1179 62.2332 202.201 532.068
1327 0 86.2439 13.9604 1204 63.1213 201.776 529.29
1328 0 88.2489 14.8444 1310 61.6038 201.74 529.419
1329 0 89.181 14.0052 1249 63.6701 201.653 526.825
1330 0 95.1897 14.0877 1341 62.9508 201.72 525.215
1331 0 96.1152 14.3057 1375 62.7775 201.42 523.239
1332 0 102.246 14.201 1452 62.1426 201.53 523.506
1333 1 54.1254 11.2701 610 63.6541 201.408 545.821
1334 0 57.1627 12.0883 691 64.8495 201.725 545.268
1335 0 58.1884 11.6862 680 65.7206 201.513 542.778
1336 0 58.0677 11.986 696 64.5661 201.303 542.224
1337 0 61.0555 11.8417 723 64.9295 201.668 542.418
1338 0 65.2553 12.7959 835 62.3246 201.469 540.836
1339 0 65.2353 12.6772 827 62.4039 201.242 539.144
1340 0 69.136 13.5819 939 60.2865 201.636 539.719
1341 0 71.1276 13.8202 983 59.9217 201.981 537.762
1342 0 74.1232 14.0577 1042 59.0269 201.299 536.447
1343 0 75.3212 13.927 1049 59.7112 201.209 534.071
1344 0 78.0763 13.0385 1018 59.9882 200.799 534.052
1345 0 82.1814 13.7501 1130 58.869 200.892 533.303
1346 0 83.1933 13.9074 1157 58.9767 200.78 531.43
1347 0 84.3685 13.1803 1112 60.2968 200.108 530.757
1348 0 90.2141 13.9779 1261 58.4013 200.243 529.665
1349 0 90.1822 13.4616 1214 59.9522 200.005 527.96
1350 0 92.2176 12.8934 1189 60.8066 199.753 525.622
1351 0 95.2127 13.2965 1266 60.5111 199.107 524.693
1352 1 55.1091 10.5246 580 59.4052 199.872 547.541
1353 0 55.1342 10.0664 555 59.4703 199.764 548.014
1354 0 57.1341 10.7466 614 59.329 198.884 546.967
1355 0 58.0629 12.3659 718 58.5766 199.039 544.188
1356 0 60.094 13.3125 800 57.1 199.141 544.3
1357 0 62.0588 12.5365 778 58.0026 198.656 542.692
1358 0 63.0723 11.7801 743 59.1413 198.642 543.176
1359 0 67.0978 12.683 851 57.5887 199.059 540.819
1360 0 66.1825 12.4958 827 59.3337 198.463 537.874
1361 0 70.1282 13.3755 938 58.0725 198.574 539.494
1362 0 69.1845 12.6329 874 59.7094 198.295 538.001
1363 0 72.0639 13.3493 962 59.2765 198.327 536.638
1364 0 76.0788 12.7499 970 60.1155 198.167 536.218
1365 0 79.2349 13.1886 1045 59.9933 198.344 536.218
1366 0 79.1869 13.1335 1040 61.1702 197.901 533.732
1367 0 83.1201 13.7993 1147 60.2293 197.768 533.974
1368 0 86.0641 14.0709 1211 60.569 197.969 530.639
1369 0 86.167 13.0676 1126 63.4627 198.048 529.901
1370 0 90.1126 14.1601 1276 62.1944 197.893 530.028
1371 0 91.0845 14.0968 1284 62.521 198.037 530.302
1372 0 94.2136 13.3633 1259 64.5075 198.028 527.644
1373 0 97.1708 14.4076 1400 63.8357 198.42 526.238
1374 0 99.091 14.3101 1418 64.665 198.746 523.822
1375 0 104.13 13.9345 1451 65.0737 198.507 522.054
1376 1 61.1368 10.4683 640 65.6234 198.991 544.141
1377 0 63.1044 10.6649 673 64.5453 198.655 545.244
1378 0 65.0698 10.9114 710 64.9958 198.88 543.252
1379 0 66.1072 11.8595 784 64.2806 198.708 543.21
1380 0 68.1245 12.2717 836 63.6962 198.232 541.374
1381 0 71.069 12.4668 886 63.7619 197.79 540.603
1382 0 73.0566 13.3869 978 60.7209 197.958 539.337
1383 0 75.0895 12.9046 969 59.8813 198.479 538.372
1384 0 80.0765 13.3997 1073 61.2693 198.318 537.504
1385 0 82.1499 12.4529 1023 62.697 198.7 535.811
1386 0 83.1753 12.2392 1018 64.1316 198.622 533.813
1387 0 86.3146 12.2922 1061 63.4599 198.566 531.991
1388 0 89.2378 12.6292 1127 63.2777 198.622 530.117
1389 0 90.1625 12.3555 1114 64.2083 198.979 528.846
1390 0 95.228 13.2734 1264 63.0111 198.938 527.313
1391 0 97.1617 13.3283 1295 63.3081 199.087 526.289
1392 0 101.145 13.2285 1338 63.2683 199.267 525.271
1393 0 104.278 13.2339 1380 63.7507 199.209 522.924
1394 0 107.184 13.4441 1441 63.6308 199.01 521.683
1395 0 109.228 12.7623 1394 65.1184 199.426 520.233
1396 1 58.1859 9.74463 567 66.5026 199.986 543.489
1397 0 63.1493 12.415 784 63.1467 199.898 542.682
1398 0 65.1493 12.2334 797 63.67 200.225 541.317
1399 0 69.3111 12.7541 884 62.3428 200.704 539.9
1400 0 68.1214 13.0355 888 63.3851 201.072 539.177
1401 0 71.2052 12.7519 908 63.9086 201.162 538.23
1402 0 73.2607 12.2985 901 64.3829 201.213 536.418
1403 0 74.2978 12.921 960 63.9656 201.514 535.309
1404 0 78.1602 13.0885 1023 63.7107 201.705 533.905
1405 0 82.1966 12.5918 1035 64.0657 202.196 532.653
1406 0 84.1893 13.3509 1124 63.1601 202.338 532.428
1407 0 86.3117 12.814 1106 64.2613 202.464 528.608
1408 0 89.3129 12.4058 1108 64.3529 202.394 528.125
1409 0 92.2498 13.1816 1216 63.9252 202.279 525.178
1410 0 97.1755 13.172 1280 63.6594 202.758 524.377
1411 0 99.2846 14.0707 1397 62.4753 202.991 522.471
1412 0 102.361 13.6184 1394 63.1356 203.004 519.781
1413 0 106.35 13.1641 1400 63.1843 203.314 519.971
1414 1 59.1201 10.707 633 63.8784 203.111 540.964
1415 0 61.2696 10.9516 671 63.2444 203.674 540.925
1416 0 61.4686 11.5669 711 63.9494 203.376 538.134
1417 0 63.285 12.5938 797 62.1481 203.7 537.795
1418 0 67.1383 12.3774 831 62.6342 204.261 534.842
1419 0 69.178 12.2872 850 62.2282 204.071 533.725
1420 0 71.2878 12.6109 899 62.109 203.892 534.355
1421 0 74.0659 13.758 1019 61.264 204.15 532.907
1422 0 76.1841 14.0843 1073 60.7679 204.078 529.512
1423 0 77.1375 13.0287 1005 63.1473 204.191 528.638
1424 0 81.2467 12.7267 1034 63.1876 203.586 529.282
1425 0 82.1634 12.5847 1034 63.8356 203.762 526.816
1426 0 86.2289 13.7657 1187 62.3741 203.895 526.297
1427 0 87.199 13.5093 1178 63.938 203.814 525.295
1428 0 89.1362 13.8215 1232 63.6656 204.363 522.231
1429 0 93.1153 13.8001 1285 63.6949 203.746 523.412
1430 0 96.1583 13.3426 1283 64.2299 203.74 520.517
1431 0 98.196 13.7175 1347 64.5635 203.609 520.524
1432 0 101.108 13.6982 1385 64.6007 203.924 519.154
1433 1 58.2557 10.5569 615 65.4846 203.793 541.935
1434 0 59.1474 11.1417 659 66.091 203.621 541.32
1435 0 60.0891 12.0155 722 65.259 204.514 541.01
1436 0 62.1609 11.5828 720 66.0944 203.664 538.912
1437 0 65.089 12.5674 818 64.9535 203.163 536.752
1438 0 67.0649 12.8234 860 65.7814 202.95 536.783
1439 0 70.1247 12.3209 864 66.088 202.537 536.334
1440 0 71.0846 12.3515 878 65.4021 202.879 534.156
1441 0 75.1557 13.3589 1004 62.8596 202.762 533.901
1442 0 77.1189 12.7595 984 63.5691 202.831 533.229
1443 0 79.1011 12.7305 1007 63.5929 202.833 532.306
1444 0 79.1532 13.0127 1030 63.5913 202.629 530.019
1445 0 82.1917 13.4442 1105 63.0896 202.265 527.954
1446 0 86.2277 12.8729 1110 63.1667 202.45 527.437
1447 0 88.0773 13.2384 1166 63.235 201.866 525.193
1448 0 91.1556 13.636 1243 62.6307 201.651 524.324
1449 0 94.2223 13.9457 1314 62.0015 201.568 523.18
1450 0 97.1671 13.8833 1349 62.2039 201.511 523.398
1451 0 99.1659 13.4018 1329 63.3536 201.054 522.417
1452 0 102.125 13.7576 1405 62.8285 201.335 519.821
1453 0 104.056 13.3582 1390 63.459 201.123 518.914
1454 0 108.175 13.4134 1451 63.4597 201.165 516.729
1455 0 111.147 14.2334 1582 62.0973 201.395 513.719
1456 0 113.212 13.4349 1521 63.8363 200.909 514.119
1457 0 119.133 13.1786 1570 64.1777 201.097 513.424
1458 0 122.413 14.0099 1715 62.8758 201.657 510.17
1459 0 125.318 13.3659 1675 63.6442 200.943 508.145
1460 0 128.376 13.476 1730 63.6087 201.177 507.064
1461 1 77.2121 11.449 884 62.0373 200.474 535.967
1462 0 79.2077 10.504 832 63.7236 200.059 535.675
1463 0 81.1695 10.743 872 62.6892 200.294 534.466
1464 0 86.1547 12.1874 1050 60.52 199.917 531.61
1465 0 86.0868 12.0344 1036 61.0463 200.244 529.93
1466 0 89.1553 11.7884 1051 60.5033 200.257 528.284
1467 0 91.2189 12.1576 1109 60 200.744 527.157
1468 0 95.1857 13.1742 1254 59.3421 200.873 523.697
1469 0 96.0986 11.894 1143 60.9081 200.801 521.22
1470 0 103.178 12.9873 1340 58.891 200.799 520.348
1471 0 106.124 12.2781 1303 58.8741 200.581 521.128
1472 0 110.184 13.0327 1436 57.8642 199.522 517.152
1473 0 111.124 12.7425 1416 58.2232 198.946 516.302
1474 0 115.169 12.3123 1418 58.4471 199.426 516.1
1475 0 119.189 12.8787 1535 57.544 198.713 512.02
1476 0 123.183 12.8995 1589 57.6702 198.733 512.797
1477 0 124.255 12.0317 1495 58.604 198.492 509.474
1478 0 129.228 12.2033 1577 58.111 198.181 507.79
1479 0 134.207 14.1871 1904 55.6182 197.857 503.686
1480 0 134.349 13.1076 1761 57.3174 198.596 504.075
1481 0 138.353 12.844 1777 57.7693 197.683 502.421
1482 1 81.1945 10.8135 878 56.5524 197.257 531.687
1483 0 82.1249 10.4719 860 56.7512 197.531 531.807
1484 0 84.3115 10.2359 863 56.9629 197.363 532.452
1485 0 87.148 12.1403 1058 55.8526 196.793 530.27
1486 0 90.1001 12.6193 1137 56.9525 197.598 521.785
1487 0 92.1326 12.7534 1175 57.6843 197.97 518.954
1488 0 93.155 12.1947 1136 58.4454 197.878 515.582
1489 0 95.1778 12.5765 1197 58.4211 197.754 519.096
1490 0 100.102 13.1465 1316 57.3153 197.649 515.655
1491 0 103.105 13.0838 1349 57.7287 198.001 518.716
1492 0 105.1 13.1589 1383 58.1468 198.196 513.372
1493 0 108.282 12.7723 1383 58.2502 198.707 518.83
1494 0 112.276 12.8166 1439 58.155 198.623 510.582
1495 0 115.408 12.9194 1491 58.3192 198.734 512.875
1496 0 118.499 13.2575 1571 59.2304 198.826 508.54
1497 0 123.505 14.0804 1739 57.8482 198.59 510.201
1498 1 68.2448 11.2976 771 59.2879 197.879 534.667
1499 0 70.3253 11.2335 790 60.6848 197.62 536.475
1500 0 71.1676 10.8757 774 61.5698 197.948 537.196
1501 0 74.0401 12.1826 902 59.541 198.65 536.305
1502 0 76.1713 12.59 959 59.0501 198.788 532.417
1503 0 79.1171 11.7547 930 61.0903 199.409 530.569
1504 0 83.2011 13.221 1100 59.0436 199.67 529.723
1505 0 85.2408 12.3767 1055 60.3213 199.469 524.511
1506 0 89.169 13.166 1174 59.1422 199.959 523.788
1507 0 91.1275 13.8707 1264 58.6432 200.366 524.067
1508 0 93.1915 12.8231 1195 60.3657 200.613 522.417
1509 0 96.2559 13.0693 1258 59.8696 200.919 521.845
1510 0 99.5827 13.5767 1352 58.9482 200.892 521.625
1511 0 100.482 12.9875 1305 60.3709 201.443 519.924
1512 0 103.47 13.1728 1363 60.7491 201.411 517.993
1513 0 107.426 12.6692 1361 61.7693 201.319 516.713
1514 0 112.505 13.9549 1570 59.8287 201.245 515.166
1515 0 114.416 12.7517 1459 62.1707 201.573 514.086
1516 0 117.528 13.6733 1607 60.8693 201.332 512.167
1517 0 122.554 13.3573 1637 61.168 201.905 511.783
1518 1 69.2407 10.7596 745 60.3866 201.387 537.611
1519 0 73.3219 10.5562 774 61.0388 201.518 535.025
1520 0 74.484 11.5327 859 60.1199 202.253 534.47
1521 0 77.2295 12.9096 997 58.4183 202.481 532.28
1522 0 81.5195 12.9172 1053 59.0446 203.244 531.95
1523 0 83.487 13.1997 1102 58.9682 203.218 530.813
1524 0 84.5405 12.4437 1052 60.5694 203.574 526.539
1525 0 88.5992 14.1423 1253 57.5826 203.54 525.67
1526 0 90.568 13.5368 1226 58.4837 203.369 525.389
1527 0 92.6574 13.782 1277 58.6139 203.653 525.447
1528 0 97.4445 13.8643 1351 58.5263 204.044 521.303
1529 0 99.4367 13.4256 1335 59.5184 204.088 519.857
1530 0 101.442 14.0771 1428 58.4321 203.745 516.038
1531 0 104.676 13.5561 1419 59.3869 203.77 513.043
1532 0 105.374 12.6122 1329 62.0429 203.556 514.518
1533 0 110.726 13.4386 1488 60.705 203.06 513.914
1534 0 114.517 13.3867 1533 61.4299 203.596 510.138
1535 0 119.598 13.2778 1588 61.5063 203.552 510.841
1536 1 67.4995 10.4445 705 62.2624 203.57 537.393
1537 0 69.346 10.5702 733 62.3915 203.7 537.765
1538 0 71.33 12.295 877 60.7777 203.211 535.706
1539 0 74.3641 12.0219 894 60.3624 203.206 534.504
1540 0 75.3198 11.0462 832 61.3582 203.436 534.788
1541 0 77.4211 12.7743 989 61.7007 203.715 531.752
1542 0 79.2062 13.5343 1072 60.6996 203.607 532.376
1543 0 84.382 12.9886 1096 60.2646 203.353 530.767
1544 0 86.5813 12.6933 1099 61.3403 203.337 527.658
1545 0 89.4012 13.1654 1177 60.6924 203.952 527.84
1546 0 90.3489 12.3853 1119 61.874 203.186 526.32
1547 0 95.3787 13.4621 1284 60.2516 203.54 524.442
1548 0 99.3044 14.1887 1409 59.1923 203.114 523.21
1549 0 100.368 13.0818 1313 61.6161 203.358 520.979
1550 0 103.306 12.7485 1317 61.7244 203.102 521.198
1551 0 106.336 13.3068 1415 61.4332 203.059 518.162
1552 0 111.286 14.0449 1563 59.9322 203.088 517.955
1553 0 113.391 12.8053 1452 61.9132 202.322 515.817
1554 0 116.176 13.3591 1552 61.1076 201.913 513.336
1555 0 122.242 14.005 1712 59.7389 202.12 510.899
1556 0 124.244 13.8679 1723 60.2745 201.632 508.899
1557 0 128.466 14.0037 1799 59.8427 201.451 508.411
1558 1 73.2701 11.0004 806 61.2829 201.151 533.975
1559 0 77.3559 12.3197 953 60.0252 201.432 531.214
1560 0 79.2584 12.8441 1018 59.8389 200.803 530.228
1561 0 79.2584 12.8441 1018 166.356 199.803 530.228
1562 0 84.255 15.2276 1283 56.7521 200.737 525.044
1563 0 85.3603 13.2029 1127 59.6034 200.658 526.689
1564 0 88.269 13.1643 1162 60.3236 200.995 524.876
1565 0 89.2662 13.2749 1185 60.7789 200.141 524.319
1566 0 93.1769 13.6729 1274 59.8493 200.314 524.538
1567 0 94.2896 13.0767 1233 61.0373 200.579 526.363
1568 0 97.2325 12.8969 1254 61.7879 200.874 522.012
1569 0 102.353 13.4143 1373 60.8572 201.001 519.896
1570 0 102.298 13.2359 1354 61.5709 200.654 518.582
1571 0 108.341 14.0575 1523 59.562 200.446 517.383
1572 0 109.475 14.0488 1538 59.8719 200.347 516.497
1573 0 113.389 13.4758 1528 60.4287 200.409 515.821
1574 0 118.482 16.0024 1896 56.9604 200.402 510.811
1575 0 118.255 13.564 1604 60.9146 200.263 514.143
1576 0 121.696 14.1665 1724 60.3625 200.63 510.189
1577 0 125.42 13.6182 1708 61.0603 200.125 509.512
1578 0 128.322 14.4481 1854 60.4358 200.054 506.716
1579 0 134.345 13.7482 1847 61.0623 199.574 504.437
1580 0 138.343 15.1797 2100 59.639 199.194 503.919
1581 0 142.312 14.8687 2116 60.2198 199.21 502.172
1582 0 147.327 14.7291 2170 60.735 198.961 499.27
1583 0 152.368 14.5897 2223 60.9294 199.473 496.538
1584 0 158.308 14.0738 2228 61.2581 199.281 494.825
1585 0 162.423 13.9636 2268 61.5269 199.19 493.293
1586 0 168.487 14.1792 2389 61.2943 198.684 491.435
1587 0 172.333 14.0368 2419 62.153 198.455 487.732
1588 0 178.267 14.7868 2636 61.0649 197.923 485.37
1589 0 185.403 15.3288 2842 60.5084 198.419 480.989
1590 0 190.379 14.9018 2837 61.3419 198.263 478.8
1591 0 194.414 14.9681 2910 61.5436 197.836 478.148
1592 0 199.54 14.3229 2858 62.8901 198.077 474.589
1593 0 204.406 14.5446 2973 62.9492 198.582 468.769
1594 0 211.451 14.7552 3120 61.7321 198.537 467.66
1595 0 219.383 14.7094 3227 62.0834 198.869 460.377
1596 1 167.34 11.6529 1950 65.0436 198.85 494.749
1597 0 171.373 12.8492 2202 63.9814 198.955 490.834
1598 0 178.316 13.4592 2400 63.7362 198.625 484.653
1599 0 184.495 13.9516 2574 63.1531 198.657 479.505
1600 0 190.361 14.3254 2727 62.7338 198.833 477.407
1601 0 198.357 14.4487 2866 62.2833 199.062 473.05
1602 0 205.391 15.0153 3084 61.7675 198.915 467.636
1603 0 212.383 14.8976 3164 61.3647 199.167 466.799
1604 1 68.0908 8.47398 577 61.7799 199.156 540.908
1605 0 70.1422 9.60906 674 61.4184 199.988 539.447
1606 0 69.1999 10.9682 759 59.6601 200.458 539.199
1607 0 68.1343 11.1838 762 60.5315 200.486 536.856
1608 0 71.1597 12.7881 910 59.5505 200.562 534.144
1609 0 73.0788 12.9312 945 58.8646 200.875 535.103
1610 0 76.085 13.2878 1011 58.4451 201.069 532.461
1611 0 80.0493 13.4292 1075 58.6298 201.401 528.377
1612 0 83.1877 12.6701 1054 59.2381 201.243 526.531
1613 0 86.093 13.4506 1158 58.1434 201.378 525.041
1614 0 92.1693 16.0466 1479 54.6592 202.097 519.761
1615 0 98.2262 17.9789 1766 51.0974 201.546 516.523
1616 0 99.1853 18.1983 1805 51.2842 202.085 516.72
1617 0 102.231 19.182 1961 50.4676 202.087 513.069
1618 0 104.284 17.203 1794 53.8785 203.215 516.997
1619 0 105.242 17.2364 1814 54.3341 202.92 514.039
1620 0 109.638 16.4632 1805 55.6449 203.211 513.962
1621 0 112.566 16.9678 1910 55.145 203.629 510.539
1622 0 117.406 17.2393 2024 54.5138 204.101 506.659
1623 0 119.174 16.9248 2017 55.592 203.748 507.199
1624 0 124.258 18.2202 2264 53.7204 204.029 504.672
1625 0 123.475 17.1452 2117 56.1639 204.92 503.854
1626 0 133.296 16.7897 2238 55.4696 204.647 499.858
1627 1 73.1704 12.4231 909 59.7327 204.568 531.626
1628 0 75.0863 12.6122 947 59.8363 205.551 530.059
1629 0 76.1517 13.657 1040 59.4096 206 528.756
1630 0 77.1296 12.9263 997 60.7081 206.095 527.678
1631 0 80.0923 13.6592 1094 60.0256 205.877 526.655
1632 0 81.1234 13.0172 1056 61.0597 206.161 527.235
1633 0 82.1627 12.743 1047 62.2512 206.023 526.9
1634 0 85.169 13.7844 1174 61.7913 205.999 523.417
1635 0 89.1592 14.4349 1287 60.676 205.828 523.5
1636 0 90.0985 13.907 1253 62.1077 205.695 522.168
1637 0 92.1185 13.2981 1225 63.382 205.599 521.029
1638 0 94.3936 13.931 1315 62.8958 205.917 518.84
1639 0 99.1628 14.4409 1432 62.1334 205.916 516.563
1640 0 102.375 14.4371 1478 62.1394 205.968 515.568
1641 0 103.347 14.0884 1456 63.1085 206.12 514.167
1642 0 108.394 14.5212 1574 61.5095 205.747 512.524
1643 0 111.136 14.8286 1648 61.4836 205.762 511.093
1644 0 116.265 14.7164 1711 61.4693 205.874 509.269
1645 0 116.174 14.4611 1680 62.547 205.699 508.017
1646 0 119.318 13.3928 1598 63.9036 205.26 507.265
1647 0 125.289 14.6462 1835 62.7074 205.626 505.386
1648 0 129.245 14.8013 1913 62.6879 205.87 502.736
1649 1 71.1417 10.964 780 63.3551 205.26 532.674
1650 0 75.2221 12.2969 925 61.9546 204.806 531.71
1651 0 76.3014 13.3025 1015 60.9103 205.269 530.167
1652 0 80.2648 12.7578 1024 61.8223 205.074 526.866
1653 0 82.2777 13.0655 1075 61.9033 204.85 525.3
1654 0 85.289 13.1201 1119 60.6309 204.766 524.525
1655 0 89.5152 14.0535 1258 59.1971 204.278 524.266
1656 0 88.6627 12.79 1134 61.5573 204.205 520.512
1657 0 93.6053 13.6958 1282 60.0647 204.136 519.275
1658 0 95.6535 12.4512 1191 61.6423 203.976 518.092
1659 0 99.3874 13.6838 1360 59.9537 203.726 517.464
1660 0 102.408 13.0653 1338 60.6674 203.407 517.146
1661 0 105.378 13.9023 1465 59.9201 203.098 514.072
1662 0 107.723 13.0056 1401 60.9893 202.917 513.35
1663 0 111.441 12.8857 1436 61.2214 202.708 512.207
1664 0 114.385 12.3792 1416 61.4682 202.816 513.006
1665 0 119.499 12.7114 1519 61.2403 202.964 509.07
1666 0 121.64 13.5811 1652 60.227 202.572 507.133
1667 0 127.5 13.0745 1667 59.7139 202.645 502.819
1668 0 130.569 13.2957 1736 59.2368 202.409 502.424
1669 0 134.736 13.634 1837 58.7817 202.283 500.662
1670 0 140.874 13.7357 1935 58.7669 202.255 498.335
1671 0 144.756 13.5745 1965 58.8901 201.996 495.507
1672 0 147.579 13.6469 2014 58.9384 201.738 492.127
1673 0 152.524 13.9913 2134 58.9695 201.436 489.156
1674 0 156.597 14.2787 2236 58.6664 201.397 487.027
1675 0 163.623 14.6006 2389 58.3252 200.763 486.01
1676 1 84.5002 10.7574 909 58.9054 200.681 527.975
1677 0 86.5803 11.7463 1017 57.999 201.388 526.556
1678 0 89.4406 12.2651 1097 58.8851 201.249 524.111
1679 0 92.5728 12.185 1128 59.2633 200.3 521.902
1680 0 91.4539 11.9514 1093 60.6953 200.435 521.504
1681 0 95.6377 12.1396 1161 60.6133 200.217 520.513
1682 0 99.5541 12.0939 1204 61.2002 200.971 517.814
1683 0 103.455 12.7979 1324 60.6284 200.215 516.625
1684 0 107.566 13.2663 1427 58.85 200.983 514.132
1685 0 109.505 12.1821 1334 60.4408 199.921 514.251
1686 0 114.494 12.2015 1397 60.2241 199.613 513.18
1687 1 62.4819 10.8351 677 58.3072 199.439 540.999
1688 0 62.5991 12.0289 753 57.8274 199.997 538.182
1689 0 64.6283 11.8369 765 58.1778 199.367 539.302
1690 0 65.4007 11.4219 747 58.7925 199.531 538.194
1691 0 66.5296 11.9045 792 58.1692 199.504 537.227
1692 0 67.2775 12.4261 836 58.2428 199.691 537.386
1693 0 68.444 12.3897 848 58.7417 199.068 536.098
1694 0 71.4951 12.7002 908 58.6652 199.239 534.97
1695 0 73.4186 12.6126 926 58.9212 199.146 534.78
1696 0 76.2813 12.5194 955 59.2827 198.797 534.17
1697 0 76.5827 12.3657 947 60.132 198.909 531.798
1698 0 80.4212 12.7703 1027 59.7975 199.102 529.828
1699 0 83.507 13.412 1120 59.1866 198.719 529.093
1700 0 85.3012 12.9541 1105 60.3448 198.65 528.028
1701 0 86.4185 12.7403 1101 61.1462 198.336 528.684
1702 0 91.3713 12.9581 1184 61.076 197.914 526.29
1703 0 93.3609 12.8212 1197 61.8363 197.639 525.586
1704 0 94.3135 12.9568 1222 62.4182 197.46 522.674
1705 0 98.2946 12.8491 1263 62.6366 198.232 524.728
1706 0 97.398 12.2179 1190 64.858 198.182 523.008
1707 0 104.535 13.5361 1415 62.4021 198.084 519.72
1708 0 107.252 13.6034 1459 62.9075 198.207 517.478
1709 0 111.272 12.7525 1419 64.2354 198.403 517.553
1710 0 113.342 13.8431 1569 63.5386 198.05 515.412
1711 0 117.271 13.2428 1553 63.9408 198.44 514.422
1712 0 121.207 13.5059 1637 63.9951 198.44 512.646
1713 0 125.396 13.8521 1737 63.2124 198.332 511.272
1714 0 124.674 13.5714 1692 64.9758 198.513 507.907
1715 0 130.561 14.8896 1944 62.7665 198.684 508.089
1716 0 134.373 13.8867 1866 64.5573 198.628 504.48
1717 0 139.422 14.2446 1986 64.0136 198.727 501.345
1718 0 142.287 14.3653 2044 63.8327 198.89 498.995
1719 0 145.386 13.9147 2023 64.652 198.945 496.647
1720 0 150.759 14.6857 2214 63.5023 199.027 496.71
1721 0 154.404 14.5268 2243 63.938 199.254 494.321
1722 0 158.25 14.0916 2230 64.887 198.741 490.303
1723 0 162.257 13.8915 2254 65.2511 198.78 487.839
1724 0 167.265 14.2947 2391 64.6278 198.959 484.604
1725 0 173.307 14.3387 2485 64.3815 199.518 485.667
1726 0 178.39 14.8158 2643 64.0363 199.992 481.486
1727 0 182.314 14.3873 2623 64.8303 199.997 477.606
1728 0 188.465 14.2467 2685 65.4399 200.648 474.599
1729 0 194.477 14.8038 2879 63.4957 201.051 472.47
1730 1 150.312 12.9464 1946 65.7503 201.061 497.867
1731 0 153.376 14.3765 2205 64.1741 200.898 493.137
1732 0 160.411 14.3818 2307 63.6567 201.059 487.831
1733 0 165.393 13.7309 2271 64.2466 201.374 486.21
1734 0 170.44 14.0343 2392 63.8625 201.809 482.633
1735 0 176.703 14.2442 2517 64.0151 202.288 477.292
1736 0 184.633 15.2302 2812 63.4879 202.483 478.299
1737 0 189.626 13.9855 2652 66.8232 202.277 472.348
1738 0 196.404 12.9732 2548 68.2363 202.518 474.252
1739 1 44.1006 10.2493 452 64.8496 202.642 546.801
1740 0 47.224 11.329 535 63.228 202.486 545.729
1741 0 48.1244 12.0521 580 61.6397 202.8 545.197
1742 0 53.1132 11.259 598 62.9766 203.162 544.107
1743 0 50.0635 11.825 592 62.6723 203.329 542.324
1744 0 51.0936 12.0954 618 61.3301 203.743 541.678
1745 0 54.1331 12.8202 694 59.2882 203.829 540.846
1746 0 55.107 12.9385 713 60.5273 203.914 539.3
1747 0 57.1828 11.5944 663 61.3952 204.683 538.57
1748 0 59.4338 11.7442 698 60.5673 205.096 536.138
1749 0 59.2178 12.1923 722 60.3241 205.428 533.801
1750 0 61.543 12.0729 743 60.2423 205.1 535.51
1751 0 64.316 11.9099 766 60.5679 205.71 533.517
1752 0 66.4573 12.414 825 60.9721 206.418 533.528
1753 0 66.423 12.1042 804 61.5585 205.659 534.142
1754 0 69.3535 12.1551 843 62.2467 205.281 533.63
1755 0 73.5031 12.9518 952 60.3571 205.464 533.729
1756 0 73.3754 12.3338 905 62.0431 205.48 532.706
1757 0 76.7059 12.9847 996 61.0181 205.141 532.265
1758 0 79.2778 12.4247 985 61.2244 205.32 530.765
1759 1 44.1139 10.9943 485 60.4557 205.872 547.969
1760 0 46.2105 10.2574 474 61.116 206.086 545.319
1761 0 47.1345 10.8201 510 58.7 206.547 546.633
1762 0 50.124 11.7908 591 57.8376 206.12 546.127
1763 0 50.2134 11.4113 573 58.3717 205.729 545.785
1764 0 53.1591 12.1146 644 58.3168 205.287 544.444
1765 0 55.2474 13.6296 753 56.6879 205.356 541.552
1766 0 56.2438 13.0681 735 57.3796 205.196 541.147
1767 0 57.1391 13.3009 760 57.3829 205.037 540.847
1768 0 60.4389 12.4589 753 57.7145 205.024 539.373
1769 0 62.4654 13.5915 849 56.2155 204.974 537.577
1770 0 63.3389 12.8041 811 57.6264 204.888 537.187
1771 0 65.4989 12.6262 827 57.6808 204.717 537.057
1772 0 68.2952 12.4167 848 58.309 204.462 536.512
1773 0 70.3915 12.8709 906 57.5408 204.833 534.774
1774 0 71.3698 13.325 951 57.1041 204.917 534.532
1775 0 74.2967 12.8404 954 57.2432 204.549 533.336
1776 0 75.2103 12.1792 916 59.3886 204.529 530.683
1777 1 39.3599 10.6707 420 59.9167 204.281 548.143
1778 0 39.4235 10.8565 428 60.2336 204.252 546.881
1779 0 41.3911 11.2826 467 58.8094 204.514 548.069
1780 0 44.3358 11.8865 527 57.6622 203.979 547.996
1781 0 45.6635 11.9132 544 57.3971 203.636 546.68
1782 0 45.2444 12.2667 555 57.9171 203.393 545.838
1783 0 49.0453 12.5394 615 56.9772 203.169 546.472
1784 0 55.3077 16.9235 936 49.0171 203.209 541.854
1785 0 62.4753 15.286 955 48.2649 202.758 539.026
1786 0 65.3969 17.2638 1129 45.7272 202.784 538.036
1787 0 66.5278 14.896 991 48.5742 202.365 537.128
1788 0 66.6247 17.411 1160 46.2216 202.246 534.528
1789 0 69.59 16.6547 1159 47.0871 202.106 535.644
1790 0 68.6169 14.5008 995 50.8593 202.322 536.016
1791 0 69.4583 16.5135 1147 48.7271 202.534 533.889
1792 0 67.4184 15.7672 1063 50.7949 202.193 535.571
1793 0 68.4574 17.237 1180 49.7449 202.054 534.247
1794 0 70.6365 17.4414 1232 49.5503 202.086 535.554
1795 0 70.5093 16.0546 1132 52.2827 202.146 535.351
1796 0 71.226 15.7667 1123 52.9581 201.93 535.158
1797 0 71.3328 15.701 1120 54.042 201.508 534.703
1798 0 72.2863 13.9307 1007 56.2522 201.228 534.352
1799 0 75.2903 14.6898 1106 55.9901 201.561 532.693
1800 0 75.2206 14.2381 1071 56.789 201.406 531.993
1801 0 78.3797 14.8635 1165 56.4206 201.065 531.397
1802 0 82.473 14.4047 1188 56.5227 201.286 531.019
1803 0 82.3229 15.6214 1286 55.8328 201.483 530.631
1804 0 85.26 14.5555 1241 57.859 201.662 528.013
1805 0 89.3067 15.262 1363 56.628 201.72 527.608
1806 0 91.3656 13.8783 1268 58.5016 201.387 526.047
1807 1 46.1949 11.4515 529 59.7845 201.688 547.338
1808 0 50.1374 12.7649 640 57.3703 201.409 547.956
1809 0 49.2193 11.9872 590 59.5898 201.59 546.834
1810 0 53.1968 13.4595 716 57.1425 201.397 546.239
1811 0 53.2151 12.7032 676 59.1805 201.572 545.146
1812 0 56.1909 13.1694 740 57.8797 201.408 544.926
1813 0 57.3058 12.3373 707 59.0693 200.929 544.597
1814 0 59.1056 12.6384 747 59.0696 201.177 543.312
1815 0 61.2095 13.7234 840 57.8643 200.939 541.819
1816 0 65.1528 13.3839 872 58.18 200.8 540.336
1817 0 68.1659 13.3351 909 57.8306 200.772 539.715
1818 0 67.273 12.977 873 59.0974 201.296 536.936
1819 0 71.2723 13.9606 995 57.5578 201.114 537.434
1820 0 74.198 13.1405 975 58.6585 201.291 534.841
1821 0 77.1013 13.6703 1054 58.0968 201.319 532.113
1822 0 77.3863 13.1806 1020 59.2902 201.056 531.713
1823 0 81.1313 13.7308 1114 58.3519 200.693 530.508
1824 0 82.1197 13.6752 1123 58.7017 201.186 528.139
1825 0 85.2847 13.2028 1126 59.1377 201.177 526.529
1826 0 88.3153 13.1121 1158 59.1028 200.912 525.946
1827 0 90.3125 14.1619 1279 58.0649 200.986 526.072
1828 0 91.3349 14.2443 1301 57.9108 201.823 525.71
1829 0 94.1921 14.2687 1344 58.1124 201.996 523.267
1830 0 95.1496 14.1146 1343 58.1281 202.576 523.177
1831 0 96.1981 14.3558 1381 58.1289 203.098 522.545
1832 0 96.1522 13.5202 1300 59.5569 202.829 521.262
1833 0 100.23 13.6186 1365 59.0418 203.036 520.612
1834 0 99.2642 13.8922 1379 59.3082 203.5 520.042
1835 0 100.224 14.3977 1443 58.6188 203.289 520.67
1836 0 101.195 14.4375 1461 58.6256 203.216 519.723
1837 0 101.137 13.7832 1394 59.6062 203.527 519.357
1838 0 103.169 15.179 1566 57.7248 203.796 517.343
1839 0 103.319 14.0923 1456 59.1621 204.004 518.227
1840 0 104.276 14.1356 1474 58.8908 204.27 518.358
1841 0 104.199 14.885 1551 58.2882 204.695 518.291
1842 0 104.113 14.3786 1497 59.0548 205.224 518.997
1843 0 106.113 14.6919 1559 58.4233 204.883 517.171
1844 0 104.153 14.8532 1547 58.6076 205.189 517.33
1845 0 104.317 14.0821 1469 59.7141 205.251 518.347
1846 0 104.134 14.5389 1514 59.4399 205.454 516.497
1847 0 105.199 13.3937 1409 60.6657 205.187 515.217
1848 0 107.26 14.3483 1539 59.1852 204.912 515.372
1849 0 107.201 14.0671 1508 59.4025 205.162 516.052
1850 0 107.125 14.6184 1566 58.7254 205.581 514.789
1851 0 105.224 13.9607 1469 59.4874 205.809 514.838
1852 0 108.216 15.4875 1676 57.7232 206.095 514.221
1853 0 110.187 13.8854 1530 58.0412 205.583 514.915
1854 0 107.211 13.8978 1490 58.3933 205.804 514.736
1855 0 109.139 15.045 1642 56.5834 206.086 514.05
1856 0 109.273 14.871 1625 56.7637 205.995 513.234
1857 0 108.158 14.8302 1604 56.7743 205.545 512.711
1858 0 110.168 14.6776 1617 56.4255 205.548 513.361
1859 0 110.097 13.4154 1477 58.0027 205.224 511.309
1860 0 108.109 13.6898 1480 57.9709 205.215 511.055
1861 0 111.152 15.1144 1680 55.6107 205.032 511.896
1862 0 106.186 13.7494 1460 59.6438 205.079 512.076
1863 0 108.253 15.4454 1672 57.2279 204.977 512.882
1864 0 107.124 14.6932 1574 58.2033 204.708 511.379
1865 0 107.192 15.0384 1612 57.4169 204.715 513.051
1866 0 108.087 14.4329 1560 57.9135 204.876 513.317
1867 0 108.133 14.5098 1569 57.9987 204.061 513.448
1868 0 109.101 14.6286 1596 57.5558 204.623 513.903
1869 0 108.192 14.7608 1597 57.1835 204.312 514.537
1870 0 108.115 14.6511 1584 57.3011 203.972 513.723
1871 0 109.195 14.964 1634 55.694 204.37 514.246
1872 0 109.157 14.5112 1584 56.0057 204.247 514.261
1873 0 109.181 15.5888 1702 54.9324 203.414 513.393
1874 0 107.127 14.7022 1575 56.1746 203.555 513.966
1875 0 108.129 15.1301 1636 55.4004 203.081 512.782
1876 0 108.254 14.7154 1593 55.5417 203.092 514.979
1877 0 109.118 15.1854 1657 54.8805 203.642 513.78
1878 0 108.146 14.4804 1566 55.6092 202.995 514.246
1879 0 110.116 15.6017 1718 54.1176 202.235 515.021
1880 0 108.093 14.2284 1538 55.9915 202.743 514.798
1881 0 109.115 14.4709 1579 55.4003 202.862 514.678
1882 0 108.167 15.0877 1632 55.7089 202.822 515.326
1883 0 108.154 14.3499 1552 57.1012 202.565 514.278
1884 0 110.185 14.8931 1641 55.7946 202.226 515.854
1885 0 108.172 14.5786 1577 56.8408 202.362 514.524
1886 0 107.122 14.6842 1573 56.6459 202.081 516.17
1887 0 110.129 14.9007 1641 56.0689 202.389 516.441
1888 0 109.115 14.306 1561 56.795 202.09 515.644
1889 0 111.42 15.096 1682 55.541 201.949 516.032
1890 0 108.198 14.0668 1522 57.477 201.654 515.89
1891 0 110.273 15.6068 1721 55.9535 202.24 515.13
1892 0 109.134 15.4123 1682 56.3347 201.733 515.272
1893 0 109.125 15.7068 1714 55.9312 201.613 514.613
1894 0 107.112 14.6295 1567 57.3618 201.502 515.622
1895 0 110.124 14.52 1599 56.758 201.467 516.52
1896 0 107.165 14.5943 1564 57.2123 201.478 515.243
1897 0 108.157 14.7378 1594 56.9373 201.282 516.65
1898 0 110.15 14.5165 1599 56.9243 201.139 515.682
1899 0 110.239 15.1762 1673 55.8559 200.922 516.255
1900 0 111.137 15.2154 1691 55.822 200.451 516.904
1901 0 108.194 14.3631 1554 56.7638 200.16 514.661
1902 0 110.186 14.8839 1640 56.1872 200.48 515.487
1903 0 109.211 14.8978 1627 56.3153 200.481 515.735
1904 0 110.181 15.0299 1656 55.5936 200.092 515.728
1905 0 111.224 15.0058 1669 55.7645 199.877 514.872
1906 0 110.222 14.9698 1650 55.5679 199.789 517.068
1907 0 110.338 14.8815 1642 55.324 199.689 517.874
1908 0 110.171 14.5864 1607 55.954 199.825 515.933
1909 0 111.149 15.5377 1727 54.5084 199.746 516.13
1910 0 112.175 14.5932 1637 55.4294 199.016 517.019
1911 0 113.195 15.1331 1713 54.8681 199.14 517.013
1912 0 111.12 14.5698 1619 55.428 198.938 519.143
1913 0 112.181 16.1347 1810 54.2856 199.034 519.603
1914 0 111.19 15.2622 1697 54.7042 198.631 518.435
1915 0 109.14 15.3748 1678 54.4911 198.428 516.308
1916 0 110.104 15.2492 1679 55.9839 198.414 516.845
1917 0 111.25 14.463 1609 56.9161 198.3 518.252
1918 0 111.328 15.2701 1700 56.1059 198.379 518.367
1919 0 110.147 15.6155 1720 57.1785 198.585 515.802
1920 0 109.153 14.4842 1581 57.9481 199.635 517.018
1921 0 111.218 14.9796 1666 57.8992 199.271 516.625
1922 0 111.198 15.3061 1702 57.5793 198.784 517.202
1923 0 110.24 14.9583 1649 58.0431 198.618 515.897
1924 0 110.151 15.0248 1655 58.3601 198.54 517.731
1925 0 111.185 15.2718 1698 57.6066 198.357 516.716
1926 0 109.165 14.5468 1588 58.6064 198.121 516.379
1927 0 109.24 13.9601 1525 59.5108 198.054 518.526
1928 0 111.308 15.6862 1746 56.9542 198.781 518.045
1929 0 112.211 14.9629 1679 57.5753 198.578 517.69
1930 0 110.269 15.3987 1698 57.3934 198.335 518.528
1931 0 110.196 14.7555 1626 58.2804 198.68 518.523
1932 0 113.156 15.5272 1757 56.6483 198.886 517.458
1933 0 111.118 14.7231 1636 58.2549 198.697 518.142
1934 0 112.12 15.4834 1736 55.6964 198.968 515.599
1935 0 108.148 14.924 1614 57.9765 199.218 517.774
1936 0 108.257 14.6596 1587 55.472 198.854 515.397
1937 0 107.213 14.1494 1517 58.5517 198.82 515.788
1938 0 108.161 13.9885 1513 59.0833 199.067 517.723
1939 0 108.127 14.8621 1607 58.3018 199.25 517.599
1940 0 111.232 15.2654 1698 58.1531 199.653 516.651
1941 0 107.092 14.9497 1601 58.0887 199.6 517.137
1942 0 109.254 14.718 1608 58.8364 199.821 518.438
1943 0 110.173 14.6769 1617 59.2369 200.129 518.826
1944 0 110.124 14.5926 1607 56.7897 200.114 517.874
1945 0 108.243 14.7168 1593 57.3139 200.252 518.923
1946 0 110.089 14.4338 1589 57.5079 200.775 519.02
1947 0 111.166 15.8321 1760 55.9188 200.44 516.684
1948 0 111.185 14.6152 1625 56.8043 200.493 518.023
1949 0 112.156 15.5943 1749 55.4637 200.427 516.344
1950 0 112.137 14.9461 1676 56.1963 200.113 513.255
1951 0 113.243 14.5439 1647 55.6855 200.777 518.848
1952 0 113.163 14.7486 1669 55.556 200.926 516.757
1953 0 111.232 14.8339 1650 55.5055 201.19 516.384
1954 0 112.12 15.2336 1708 54.9409 201.322 515.335
1955 0 111.216 14.6382 1628 56.1591 201.21 516.294
1956 0 113.22 14.4762 1639 56.0177 201.144 516.709
1957 0 113.133 15.327 1734 55.2191 200.878 515.052
1958 0 110.176 14.7945 1630 52.5963 201.295 515.01
1959 0 114.106 16.1955 1848 53.6098 201.306 515.649
1960 0 109.15 14.3473 1566 56.1111 201.672 516.307
