time division length width area intensity CMx CMy
0 0 55.1584 12.5457 692 69.2977 1334.66 566.043
1 0 54.0773 12.2233 661 93.4735 1333.98 564.407
2 0 54.0773 12.1863 659 150.014 1332.99 564.416
3 0 59.0586 13.2072 780 69.5795 1334.3 560.004
4 0 59.0586 13.275 784 153.389 1336.3 559.941
5 0 65.1816 12.6876 827 70.5538 1334.27 559.387
6 0 64.0431 12.5228 802 72.1459 1334.23 558.338
7 0 66.0574 12.7768 844 70.7547 1334.13 557.524
8 0 71.0931 14.2349 1012 67.999 1334.42 558.144
9 0 72.1233 13.0194 939 70.0021 1334.27 556.223
10 0 74.091 13.1865 977 70.085 1334.29 554.784
11 0 77.1633 13.0632 1008 70.0863 1334.03 554.188
12 0 81.1653 13.0967 1063 70.286 1334.2 552.238
13 1 40.0431 10.1391 406 71.2586 1333.72 570.374
14 0 44.0528 11.4408 504 70.5933 1334.43 569.252
15 0 45.0294 11.7701 530 70.9849 1334.53 567.664
16 0 48.0511 12.2578 589 69.0153 1334.74 567.014
17 0 49.0484 12.192 598 68.689 1334.03 565.527
18 0 50.0682 12.2034 611 68.9296 1333.48 564.286
19 0 51.0617 13.3956 684 66.2032 1333.73 562.208
20 0 53.062 13.324 707 65.7822 1333.66 562.836
21 0 55.0706 13.2739 731 64.855 1333.69 561.164
22 0 56.109 13.0817 734 64.1648 1333.81 560.817
23 0 59.0518 12.1927 720 65.5069 1333.76 560.293
24 0 58.087 12.7395 740 64.9014 1334.16 559.165
25 0 60.1538 11.587 697 65.4362 1334.06 560.067
26 0 62.0737 13.2584 823 63.5249 1334.29 556.587
27 0 66.1607 14.0113 927 61.8554 1334.35 555.179
28 0 68.0446 13.5499 922 61.8525 1334.41 554.695
29 0 70.1575 13.1134 920 62.6424 1334.53 553.837
30 0 73.1001 13.1327 960 62.6438 1334.88 552.936
31 0 74.118 13.1277 973 63.0956 1335.21 551.83
32 0 76.1748 12.8389 978 63.0644 1335.27 549.68
33 0 81.1202 13.4738 1093 61.6496 1335.72 549.893
34 1 39.0352 10.0166 391 62.7647 1335.54 570.345
35 0 40.1218 11.4651 460 62.3239 1335.95 568.359
36 0 42.0837 12.0236 506 61.3636 1336.02 567.806
37 0 43.0414 11.8258 509 62.1768 1335.91 566.177
38 0 43.095 12.0664 520 61.9519 1335.79 566.038
39 0 46.0533 12.5507 578 61.0744 1335.57 564.069
40 0 49.0514 11.7224 575 61.8209 1335.58 563.421
41 0 51.051 12.419 634 61.0126 1335.15 562.826
42 0 52.0306 13.0116 677 60.1403 1335.29 563.004
43 0 53.1418 12.8524 683 60.451 1335.47 560.826
44 0 56.0821 13.6764 767 58.5372 1335.76 561.648
45 0 57.1954 13.1829 754 59.0995 1336.05 559.385
46 0 58.1108 12.6999 738 59.9946 1336.44 557.785
47 0 61.0598 12.2667 749 60.0481 1336.05 557.13
48 0 66.1128 13.9459 922 57.3416 1336.54 557.234
49 0 68.1069 12.0986 824 59.4332 1336.14 557.107
50 0 68.0428 12.6832 863 59.591 1336.33 555.824
51 0 72.2346 14.093 1018 57.9715 1336.31 553.724
52 0 74.0866 13.4572 997 58.8997 1336.43 553.317
53 0 77.1358 13.6901 1056 58.6269 1336.57 552.636
54 0 79.1142 13.4742 1066 58.9775 1335.67 550.386
55 0 83.2166 13.3868 1114 52.947 1336.65 550.775
56 0 85.0869 13.6566 1162 53.6084 1336.89 546.648
57 0 90.2624 13.4829 1217 53.3788 1336.71 546.456
58 1 46.0842 11.1752 515 52.7592 1336.77 567.641
59 0 46.0456 11.5538 532 53.5996 1337.26 565.446
60 0 50.0876 10.3019 516 54.6415 1337.7 567.091
61 0 50.049 11.7285 587 55.1448 1337.54 564.284
62 0 51.0434 11.4021 582 55.4759 1337.36 564.854
63 0 54.0241 12.5315 677 53.8508 1337.27 565.502
64 0 54.0465 12.2672 663 55.4585 1337.38 563.404
65 0 56.1018 12.2278 686 55.6735 1337.38 562.87
66 0 58.0675 12.296 714 56.7227 1337.94 560.966
67 0 60.1496 12.685 763 57.1048 1338.44 559.564
68 0 63.2171 11.9746 757 57.79 1338.35 560.596
69 0 66.095 12.7544 843 57.0451 1337.85 557.304
70 0 67.1148 11.8752 797 58.0013 1338 557.991
71 0 71.1004 13.0942 931 57.1976 1337.62 555.032
72 0 73.1753 13.0508 955 57.3675 1338.31 554.762
73 0 75.1645 13.3574 1004 57.1653 1338.61 553.393
74 0 78.2737 12.8651 1007 58.2125 1338.66 549.784
75 0 80.1606 13.1486 1054 58.1632 1338.73 549.17
76 0 83.0889 13.5277 1124 58.0098 1338.56 547.595
77 0 86.2628 12.8445 1108 58.6886 1339.06 546.391
78 0 87.2206 12.8754 1123 59.0837 1338.72 545.996
79 0 91.1513 13.3405 1216 58.2574 1338.93 544.72
80 1 47.1101 9.87049 465 58.9742 1339.73 565.613
81 0 48.1495 10.4051 501 58.8543 1339.17 563.986
82 0 50.1599 10.8054 542 59.5701 1339.83 561.976
83 0 52.0961 11.8819 619 57.7803 1340.13 562.3
84 0 52.116 11.8582 618 59.4693 1340.6 560.718
85 0 57.124 12.3941 708 58.1638 1340.61 559.114
86 0 55.0959 11.1079 612 60.4052 1340.32 557.774
87 0 60.0862 12.2491 736 58.2704 1340.52 554.774
88 0 62.1217 12.5882 782 56.9066 1340.39 553.913
89 0 63.0849 12.9191 815 56.1006 1340.42 551.886
90 0 64.0684 12.471 799 57.03 1341.25 552.746
91 0 67.0742 12.6725 850 59.8953 1342.04 551.005
92 0 69.1575 12.6523 875 62.2011 1342.04 549.902
93 0 71.1498 13.2537 943 60.7137 1342.86 547.699
94 0 73.1091 12.8028 936 60.8632 1342.43 546.07
95 0 77.1953 13.2651 1024 57.4824 1342.74 544.98
96 0 78.2595 14.043 1099 56.3394 1342.97 544.587
97 0 81.1785 14.0924 1144 80.0297 1343.42 542.71
98 0 84.1119 13.7079 1153 55.7892 1343.02 543.149
99 0 87.1562 13.3094 1160 56.4638 1341.99 542.716
100 0 87.1283 12.2578 1068 59.9541 1342.06 540.414
101 0 92.1577 13.2599 1222 59.9607 1342.71 537.309
102 0 94.138 13.6289 1283 62.4692 1342.76 534.888
103 0 98.1106 14.7792 1450 56.9221 1342.21 534.144
104 0 98.1106 14.8404 1456 151.921 1341.23 534.157
105 1 52.0959 12.1891 635 58.7024 1342.08 553.556
106 0 52.0959 12.1891 635 150.633 1344.08 553.556
107 0 56.0837 11.8216 663 61.1508 1342.26 553.092
108 0 59.0977 12.7416 753 60.1886 1342.16 551.987
109 0 59.079 11.8655 701 60.5877 1342.39 551.034
110 0 63.1412 12.3057 777 59.1789 1342.17 549.995
111 0 64.0747 11.5802 742 60.2385 1342.39 548
112 0 64.0747 11.6115 744 153.2 1342.37 548.04
113 0 67.0649 12.0778 810 58.3198 1342.96 545.311
114 0 72.0512 12.7965 922 57.4284 1342.94 545.268
115 0 73.1384 11.4577 838 59.8126 1342.85 544.093
116 0 74.1641 12.2296 907 59.0838 1342.41 542.885
117 0 77.2539 12.103 935 58.8267 1342.04 542.109
118 0 80.1815 12.6713 1016 58.5344 1341.55 541.326
119 0 82.1292 12.1394 997 59.2788 1341.57 539.226
120 0 84.2104 12.2075 1028 59.3706 1341.71 538.403
121 1 47.1038 11.549 544 57.9191 1342.1 557.68
122 0 49.0912 11.3259 556 57.3543 1342.53 557.396
123 0 50.0183 11.1759 559 58.4526 1342.75 556.261
124 0 52.1611 12.193 636 57.6871 1342.56 555.541
125 0 51.1158 11.3272 579 58.4577 1342.09 556.525
126 0 55.0218 12.4314 684 56.8026 1341.59 555.219
127 0 57.0506 12.7255 726 56.7479 1341.1 553.117
128 0 55.0721 10.9856 605 58.9719 1341.43 552.856
129 0 59.0904 11.9986 709 57.7292 1341.11 551.9
130 0 62.0746 12.8233 796 56.8279 1341.36 549.078
131 0 64.1272 13.0366 836 56.6627 1340.66 549.153
132 0 66.151 11.8517 784 57.7742 1340.83 548.278
133 0 68.1749 13.304 907 55.9768 1340.68 548.283
134 0 72.1197 12.1603 877 57.0867 1340.78 547.127
135 0 73.1918 12.3238 902 57.2694 1340.2 547.467
136 0 76.1811 12.9691 988 56.751 1340.3 546.384
137 0 77.1095 12.6055 972 58.034 1340.57 543.853
138 1 41.2597 9.96129 411 58.9294 1341.2 560.754
139 0 42.1316 11.203 472 57.517 1341.2 559.939
140 0 47.1565 10.9847 518 56.832 1340.55 559.542
141 0 46.2088 12.0756 558 55.0896 1340.43 559.97
142 0 47.2194 12.1137 572 56.0157 1340.53 558.346
143 0 48.2479 11.4824 554 57.7906 1339.94 557.061
144 0 50.4403 11.8358 597 57.742 1340.21 556.735
145 0 53.2283 12.8127 682 56.522 1339.84 555.201
146 0 54.2003 11.8449 642 56.7134 1340.05 556.377
147 0 55.1906 12.5384 692 56.9769 1339.97 553.13
148 0 56.078 12.1081 679 57.1856 1340.07 553.031
149 0 56.0787 11.1629 626 58.3866 1340.1 553.222
150 0 59.0782 12.018 710 55.8254 1340.09 553.261
151 0 60.1344 12.5552 755 55.7245 1339.99 550.711
152 0 61.1335 12.1374 742 56.7089 1339.74 549.972
153 0 64.1961 12.6332 811 56.1961 1339.57 548.47
154 0 64.1141 12.431 797 56.6838 1339.09 549.329
155 0 67.2006 12.1874 819 56.6813 1339.01 548.386
156 0 72.1231 12.2014 880 55.9659 1339.03 546.35
157 0 72.1231 12.2291 882 147.7 1339.05 546.346
158 0 75.0941 12.6508 950 56.1253 1339.49 543.59
159 0 77.1932 12.5529 969 56.7451 1338.94 544.006
160 0 80.2132 13.4392 1078 55.603 1339.31 541.13
161 0 81.1556 12.1372 985 57.2 1339.25 541.555
162 0 86.2604 12.9144 1114 56.4991 1339.11 540.052
163 1 43.138 10.3389 446 57.5157 1338.77 559.305
164 0 47.285 11.0183 521 56.8906 1339.77 558.441
165 0 48.2174 10.5978 511 56.9824 1339.16 558.628
166 0 51.216 10.5631 541 57.0166 1339.34 557.597
167 0 52.055 12.41 646 55.5619 1339.85 556.328
168 0 52.0582 12.6205 657 56.2131 1340.29 556.393
169 0 54.1846 12.4205 673 57.2972 1339.75 554.198
170 0 57.1563 12.527 716 56.9176 1340.09 553.489
171 0 56.1281 12.1686 683 58.0059 1339.84 552.48
172 0 57.1621 12.5958 720 58.4347 1339.99 552.212
173 0 60.1262 11.9083 716 59.2612 1340.01 550.718
174 0 60.0751 12.6508 760 59.4237 1340.67 549.451
175 0 63.0847 13.0459 823 58.1045 1340.78 550.256
176 0 63.082 11.6356 734 60.8597 1340.64 547.906
177 0 67.0785 13.6407 915 58.2514 1340.95 546.481
178 0 69.2032 13.4531 931 59.0559 1340.98 544.976
179 0 69.2105 13.1194 908 60.3018 1341.68 543.057
180 0 70.2234 13.3716 939 60.197 1341.71 542.751
181 0 74.1821 13.6691 1014 60.0572 1341.98 542.733
182 0 74.2449 13.5094 1003 61.3001 1342.18 540.351
183 0 77.2242 13.3637 1032 61.3014 1342.36 540.044
184 0 81.2902 13.8147 1123 60.5503 1342.65 537.458
185 0 83.3013 12.7849 1065 62.3268 1342.59 535.684
186 0 85.3572 13.7188 1171 60.5406 1342.44 535.004
187 0 88.2973 14.4399 1275 59.7373 1342.6 533.745
188 0 90.3408 14.401 1301 60.2859 1342.51 531.955
189 0 92.2388 13.5626 1251 61.7154 1342.81 530.031
190 0 96.355 14.0003 1349 60.5908 1343.12 526.365
191 1 52.0689 10.3133 537 62.9404 1342.72 548.564
192 0 53.135 10.6521 566 62.9753 1343.7 546.899
193 0 55.0893 11.2726 621 61.3188 1343.24 545.523
194 0 58.1246 12.9377 752 57.9668 1343.21 543.938
195 0 61.0531 12.6284 771 58.4721 1343.17 543.63
196 0 63.1444 12.5268 791 58.9734 1342.86 542.852
197 0 64.2749 11.622 747 61.083 1343.38 542.991
198 0 66.0954 12.9964 859 60.3807 1343.75 540.132
199 0 70.1208 13.22 927 59.6246 1343.88 538.892
200 0 71.1509 12.4805 888 60.9246 1344.38 540.437
201 0 73.1665 12.7107 930 60.1968 1344.3 539.396
202 0 77.2266 13.4151 1036 59.5666 1344.92 536.982
203 0 79.2084 13.3193 1055 60.0284 1345.55 535.493
204 0 83.2185 12.5092 1041 60.3929 1345.18 537.064
205 0 85.1277 12.5928 1072 60.6007 1345.75 533.792
206 0 85.1277 12.6163 1074 165.302 1346.75 533.778
207 0 90.1938 13.3601 1205 59.6523 1345.58 530.648
208 0 95.1966 13.6664 1301 59.4812 1345.98 529.243
209 0 97.2178 13.7218 1334 59.0802 1345.36 528.756
210 0 100.289 13.7802 1382 59.0868 1345.14 527.734
211 0 101.294 13.0412 1321 59.9493 1345.49 525.272
212 0 107.235 13.5589 1454 59.1314 1344.97 524.819
213 0 109.174 13.0068 1420 59.6535 1345.17 523.524
214 1 58.0962 9.75968 567 59.4868 1344.66 548.917
215 0 59.1652 9.97209 590 58.8627 1344.66 550.52
216 0 59.1164 11.4858 679 58.4035 1344.87 547.378
217 0 62.095 11.2408 698 57.9943 1344.42 546.351
218 0 62.0581 11.4409 710 58.4803 1344.83 544.472
219 0 65.0971 11.9053 775 57.4503 1345.79 545.599
220 0 66.086 11.8785 785 57.4038 1344.81 545.341
221 0 69.1164 11.4589 792 57.8636 1344.7 543.294
222 0 69.1164 11.43 790 146.88 1344.71 543.324
223 0 74.0509 12.0188 890 56.8865 1344.1 543.072
224 0 76.1142 12.7966 974 56.4435 1344.64 539.78
225 0 78.133 12.4403 972 57.1389 1344.19 538.639
226 0 81.086 12.3079 998 56.8307 1344.42 537.496
227 0 81.0996 11.1715 906 58.3355 1344.44 537.401
228 0 87.1198 12.1557 1059 56.7762 1344.72 536.851
229 0 88.0681 11.8658 1045 58.0364 1344.18 534.9
230 0 92.1166 12.4625 1148 57.4634 1343.93 530.862
231 0 95.1291 12.7931 1217 56.6064 1343.65 532.227
232 0 97.1278 12.8285 1246 56.8427 1343.26 529.966
233 1 51.0144 10.4676 534 56.6479 1343.13 552.109
234 0 53.0692 10.1565 539 56.872 1342.66 550.267
235 0 55.0348 10.6841 588 56.1531 1342.13 551.514
236 0 56.0992 12.1927 684 54.9357 1341.73 550.446
237 0 57.2256 11.1663 639 55.3646 1341.27 549.945
238 0 60.1697 11.9828 721 55.0083 1341.01 548.35
239 0 63.2466 11.6686 738 54.813 1340.92 549.03
240 0 64.1848 12.6198 810 53.6321 1341.08 549.012
241 0 65.2252 12.3112 803 54.4832 1341.31 546.705
242 0 70.1621 12.2858 862 53.9397 1341.35 546.223
243 0 70.0618 11.9894 840 54.9524 1341.09 544.336
244 0 73.1248 12.9778 949 54.1654 1341.01 542.596
245 0 75.0913 12.4915 938 54.5522 1341.39 543.188
246 0 79.1145 13.5121 1069 53.7212 1341.79 540.599
247 0 82.2084 13.0644 1074 54.5819 1341.47 539.598
248 0 85.1829 12.9016 1099 54.6051 1341.2 540.169
249 1 44.0228 10.9261 481 54.2744 1341.56 559.53
250 0 45.1948 9.86838 446 55.7534 1342.53 559.195
251 0 47.0318 10.461 492 55.3902 1341.45 558.008
252 0 47.0318 10.4185 490 160.984 1341.47 558.171
253 0 49.0227 11.8924 583 54.7204 1341.71 555.911
254 0 50.0961 11.8572 594 54.7845 1342.11 555.436
255 0 52.0431 12.1053 630 54.4603 1341.8 555.689
256 0 53.061 12.0993 642 54.3816 1341.95 555.312
257 0 54.1386 12.468 675 54.323 1341.52 553.57
258 0 55.1258 12.0633 665 54.4932 1341.31 552.91
259 0 56.1313 10.4933 589 56.7538 1341.29 552.851
260 0 60.1256 12.6568 761 53.7083 1340.77 553.244
261 0 61.1466 12.4946 764 54.1898 1341.67 552.895
262 0 61.1497 13.0499 798 54.2281 1341.49 553.203
263 0 63.0949 11.3321 715 56.0727 1340.83 551.877
264 0 64.2072 12.0547 774 56.0271 1340.88 549.495
265 0 64.1322 12.4898 801 55.8789 1340.82 549.715
266 0 67.1491 12.1372 815 56.6994 1340.69 548.918
267 0 68.1038 11.7468 800 57.7012 1340.98 547.598
268 0 71.121 11.3328 806 57.9268 1340.97 546.154
269 0 72.0759 12.1955 879 57.7042 1341.22 544.858
270 0 75.1168 12.0479 905 57.5724 1341.66 545.157
271 0 77.0705 12.5729 969 57.1238 1341.1 543.939
272 0 81.1538 13 1055 56.3915 1341.37 541.673
273 0 83.1724 12.5643 1045 56.6306 1341.57 540.883
274 0 84.1458 13.1795 1109 55.6474 1341.71 540.662
275 0 83.166 11.3027 940 57.4766 1341.61 542.201
276 1 50.0504 11.5683 579 55.8843 1341.64 556.261
277 0 50.046 11.5694 579 55.4456 1341.54 556.848
278 0 52.1219 10.9359 570 55.6175 1341.84 555.904
279 0 54.0589 12.3569 668 54.735 1341.57 555.531
280 0 56.0501 12.0606 676 54.5843 1341.35 554.808
281 0 57.0805 13.2269 755 53.4238 1341.84 554.16
282 0 58.0482 12.1967 708 55.113 1341.69 551.549
283 0 59.1048 12.131 717 55.0321 1341.78 552.19
284 0 62.1164 13.0239 809 54.3486 1341.69 549.692
285 0 64.1412 13.5482 869 53.5224 1342.16 550.486
286 0 64.2027 12.0867 776 55.6598 1342.69 547.128
287 0 66.2714 12.4488 825 55.2727 1342.79 547.318
288 0 68.3274 12.5572 858 55.0967 1343.53 545.14
289 0 72.2742 13.4211 970 53.9299 1343.65 544.967
290 0 74.1964 12.103 898 55.2762 1343.77 543.045
291 0 74.2851 12.0482 895 56.1888 1344.12 540.53
292 0 78.0551 12.2349 955 55.6733 1344.34 540.056
293 0 81.2142 13.2859 1079 54.7943 1344.46 538.771
294 0 87.2762 13.2568 1157 53.9576 1344.63 538.364
295 0 87.1806 12.8928 1124 55.2625 1344.9 536.658
296 0 89.1491 13.7186 1223 55.0883 1344.58 533.492
297 0 93.2306 13.7509 1282 55.0055 1344.76 531.064
298 1 51.1122 10.0759 515 55.6485 1345.27 554.74
299 0 54.0426 11.3799 615 54.735 1345.4 552.089
300 0 54.0805 11.0021 595 55.6773 1345.44 551.185
301 0 54.0457 12.1564 657 55.9391 1345.7 548.53
302 0 58.1305 12.2139 710 55.869 1345.86 547.889
303 0 58.0529 12.4542 723 56.6321 1346.12 548.012
304 0 60.1304 12.4729 750 57.2107 1345.96 546.707
305 0 61.1112 12.8618 786 57.5318 1345.83 546.416
306 0 66.1882 13.1443 870 56.7046 1346.52 544.22
307 0 67.141 12.6003 846 57.5745 1346.35 543.741
308 0 69.0763 12.0302 831 58.2876 1346.31 543.673
309 0 70.0556 12.8612 901 58.3807 1346.06 541.403
310 0 73.1616 13.7367 1005 57.4647 1345.82 541.867
311 0 76.1311 12.7149 968 59.1405 1346.56 539.998
312 0 78.0694 12.9628 1012 59.5346 1346.34 537.801
313 0 82.1334 13.0763 1074 59.4777 1346.56 537.104
314 0 82.1705 13.3016 1093 60.1006 1346.4 535.031
315 0 86.1141 13.0524 1124 59.9671 1346.05 535.12
316 1 46.0812 10.8721 501 61.2595 1345.59 552.727
317 0 49.1574 11.6158 571 60.5412 1346.18 553.112
318 0 50.2411 12.0618 606 60.2459 1345.58 552.035
319 0 52.1263 11.7983 615 60.5138 1345.49 551.832
320 0 52.1208 12.6629 660 60.7576 1345.46 550.776
321 0 55.1645 12.218 674 61.3442 1344.97 549.04
322 0 56.1348 11.8465 665 62.1474 1344.76 548.804
323 0 57.1586 12.7015 726 61.146 1344.66 547.018
324 0 60.1642 12.8648 774 60.792 1344.31 547.313
325 0 62.1534 12.5979 783 61.0702 1345.12 545.738
326 0 64.1 13.0421 836 61.25 1344.65 542.976
327 0 65.0785 12.0777 786 62.3486 1344.63 542.953
328 0 70.172 14.1652 994 59.0684 1344.97 542.817
329 0 70.0505 12.6766 888 62.0642 1344.41 540.823
330 0 72.1582 13.2764 958 61.0783 1344.25 540.271
331 0 75.1945 12.8999 970 61.5722 1344.31 537.799
332 0 78.0873 12.883 1006 62 1344.15 537.66
333 0 82.195 13.2368 1088 61.2629 1344.25 537.957
334 0 82.1417 12.9532 1064 62.6551 1343.77 536.282
335 0 84.1105 13.5774 1142 62.1786 1343.62 535.076
336 1 47.0667 9.64588 454 63.8612 1343.89 554.286
337 0 46.0792 10.9594 505 63.1168 1343.54 553.166
338 0 48.0704 11.2959 543 62.9908 1343.36 553.068
339 0 49.0517 11.2127 550 63.5764 1343.12 551.416
340 0 52.0543 12.3717 644 62.0388 1343.07 551.88
341 0 54.1714 11.4267 619 64.2181 1342.54 551.666
342 0 55.1282 12.3349 680 63.0721 1342.47 550.269
343 0 57.2619 12.0499 690 64.0768 1342.22 549.032
344 0 58.1017 12.3576 718 63.9067 1342.63 548.997
345 0 61.113 12.9596 792 62.4028 1341.86 549.932
346 0 62.151 12.6788 788 63.3134 1342.87 547.494
347 0 63.0838 12.7132 802 64.0798 1342.67 545.547
348 0 67.1305 13.7493 923 61.662 1342.17 545.432
349 0 68.0943 13.5694 924 62.4859 1342.69 545.134
350 0 69.104 12.9949 898 63.1314 1342.37 545.163
351 0 72.0542 12.8931 929 63.7341 1342.37 543.351
352 0 75.1374 13.4953 1014 62.5789 1342.08 542.646
353 0 78.2152 13.8592 1084 62.1559 1342.13 540.411
354 0 79.2249 13.2787 1052 63.2167 1342.24 539.421
355 0 80.0831 13.3861 1072 63.5205 1342.06 538.288
356 1 42.0958 9.95349 419 63.4916 1342.97 558.558
357 0 42.0178 10.6145 446 63.4686 1342.53 557.724
358 0 45.1103 11.217 506 63.081 1342.74 556.119
359 0 47.0606 11.5808 545 61.7743 1342.64 557.591
360 0 49.0616 12.4333 610 61.4344 1342.68 555.561
361 0 50.1941 11.3559 570 62.3737 1342.22 556.153
362 0 50.1302 11.2507 564 63.8972 1341.65 554.445
363 0 51.1929 12.1306 621 62.7375 1342.18 553.973
364 0 53.0907 12.9213 686 61.6516 1342.46 551.783
365 0 56.0941 12.5503 704 61.7415 1342.35 551.967
366 0 56.1365 12.6299 709 61.7518 1342.5 552.152
367 0 57.0885 12.647 722 62.554 1342.72 549.994
368 0 61.1017 13.453 822 61.1338 1342.82 548.865
369 0 62.085 13.9486 866 60.5462 1343.04 549.147
370 0 66.1312 13.6396 902 60.3636 1342.66 548.214
371 0 65.1102 12.7323 829 62.2919 1342.29 547.353
372 0 65.1546 13.1687 858 62.5606 1342.7 546.018
373 0 70.2885 13.8572 974 60.9086 1342.9 545.047
374 0 70.2885 13.8572 974 171.643 1343.9 545.058
375 0 74.1985 13.7604 1021 61.2654 1343.25 542.83
376 0 74.1985 13.8817 1030 176.858 1342.24 542.75
377 0 78.1606 13.0501 1020 60.8559 1343.9 540.465
378 0 84.3203 13.7808 1162 59.2487 1344.39 538.344
379 0 83.2707 13.4621 1121 59.9483 1343.77 538.707
380 0 84.1721 13.1754 1109 60.9738 1344.04 535.115
381 0 90.2637 14.0034 1264 59.2476 1343.95 534.801
382 0 91.3003 12.9791 1185 60.9755 1344.04 531.518
383 0 94.3551 13.587 1282 60.1412 1344.59 531.206
384 1 50.2075 11.1537 560 60.3821 1345 552.912
385 0 51.2146 11.1492 571 60.4851 1344.78 551.513
386 0 56.2887 12.8978 726 57.854 1345.32 550.58
387 0 56.1245 12.4901 701 58.9301 1344.95 546.748
388 0 61.0664 13.2806 811 56.9704 1345.36 547.693
389 0 64.039 12.5861 806 57.5906 1345.62 546.309
390 0 61.0399 12.8113 782 58.5959 1345.98 546.344
391 0 63.07 13.3344 841 57.9441 1345.63 544.874
392 0 66.0542 13.2467 875 57.8354 1346.43 544.315
393 0 68.0854 12.3668 842 59.4014 1346.33 543.726
394 0 70.047 12.9056 904 58.6715 1346.26 541.001
395 0 75.0843 13.2917 998 58.1713 1346.79 540.014
396 0 75.1074 13.2344 994 59.0614 1346.41 537.16
397 0 77.1241 12.5771 970 59.5639 1346.71 538.381
398 0 79.1436 13.6461 1080 59.3556 1346.9 534.703
399 0 83.1256 13.0165 1082 60.1442 1346.58 533.765
400 0 85.0662 13.8598 1179 59.3003 1346.84 531.608
401 0 89.0942 14.1087 1257 58.9117 1346.72 531.255
402 0 92.1647 13.324 1228 59.851 1346.9 529.722
403 0 93.1007 13.48 1255 60.1036 1346.73 529.736
404 0 98.0453 13.096 1284 60.345 1346.4 526.607
405 1 55.0638 11.1507 614 58.8958 1347.05 549.349
406 0 56.196 10.7837 606 59.165 1346.95 548.792
407 0 55.0405 11.6096 639 59.4898 1346.65 547.264
408 0 58.0698 11.3829 661 58.994 1346.56 547.095
409 0 60.0891 12.2318 735 57.898 1346.48 546.506
410 0 59.1622 11.5614 684 59.5117 1346.05 545.639
411 0 61.084 12.6383 772 58.3109 1346.53 544.744
412 0 65.0914 11.9524 778 58.0308 1346.67 544.559
413 0 69.1241 13.4685 931 55.986 1346.48 541.987
414 0 69.0635 11.8152 816 58.31 1346.14 541.577
415 0 72.1835 12.9392 934 57.6081 1346.64 540.032
416 0 73.0738 12.6448 924 57.9372 1346.63 539.202
417 0 75.129 12.8845 968 57.9246 1346.31 537.298
418 0 80.076 12.8628 1030 57.1806 1345.94 537.213
419 0 82.118 13.2127 1085 56.6866 1345.54 535.768
420 0 83.0564 11.727 974 57.6489 1345.17 534.691
421 0 86.0747 11.9547 1029 57.3081 1344.84 532.5
422 0 89.1286 12.7905 1140 56.5474 1344.93 529.819
423 0 92.1518 13.2065 1217 56.1224 1344.76 528.723
424 0 96.2184 12.9393 1245 56.1028 1344.6 528.366
425 1 51.0341 9.48386 484 55.0888 1345.2 553.089
426 0 54.0263 10.7725 582 54.756 1344.74 549.579
427 0 57.0768 11.8262 675 53.8474 1344.32 549.594
428 0 58.0701 10.9695 637 55.6986 1344.15 547.243
429 0 60.1539 12.2852 739 54.5115 1343.99 546.98
430 0 61.1209 11.649 712 55.5506 1343.37 547.597
431 0 64.1512 12.8446 824 54.4211 1343.36 545.495
432 0 64.2524 12.233 786 55.4733 1342.81 545.762
433 0 65.162 11.0494 720 56.7778 1343.08 544.988
434 0 67.1832 12.265 824 55.1444 1343.16 544.072
435 0 72.0954 11.7761 849 55.4158 1342.86 543.294
436 0 72.1943 12.217 882 55.0057 1342.63 542.217
437 0 75.1278 11.9263 896 55.6585 1342.56 541.175
438 0 76.159 11.4891 875 56.0754 1342.72 541.647
439 0 79.1009 12.7811 1011 55.5717 1342.8 537.677
440 0 82.1826 12.6304 1038 54.3863 1342.82 536.862
441 0 86.236 12.315 1062 54.71 1342.66 538.169
442 0 86.2255 12.4209 1071 54.6471 1342.75 534.157
443 1 47.0516 9.73399 458 55.0066 1342.52 554.269
444 0 49.037 9.64577 473 56.5708 1343.31 554.18
445 0 50.1281 11.4307 573 55.4887 1343.52 554.689
446 0 53.1295 12.2719 652 53.2255 1343.38 554.035
447 0 53.1405 12.8151 681 53.0264 1343.05 552.765
448 0 56.1087 12.2084 685 53.9285 1342.84 553.139
449 0 56.1216 12.4551 699 54.4578 1343.03 552.406
450 0 59.0639 13.2568 783 54.553 1343.07 550.549
451 0 60.1174 12.6586 761 55.7543 1343.18 550.495
452 0 61.1462 11.9059 728 56.6635 1342.9 549.342
453 0 61.1173 12.5496 767 56.7901 1343.55 547.98
454 0 66.1524 13.5596 897 55.049 1343.71 546.722
455 0 66.1161 13.0982 866 56.0739 1343.78 546.947
456 0 68.0856 12.5724 856 56.2628 1343.51 546.835
457 0 72.1411 14.0142 1011 54.2295 1343.68 546.265
458 0 72.0988 13.6202 982 55.278 1343.33 544.64
459 0 75.0868 14.1037 1059 54.9358 1343.2 543.971
460 0 77.1977 13.7698 1063 55.2728 1343.48 542.809
461 0 79.1337 13.5467 1072 56.2854 1343.06 539.16
462 0 82.1144 13.2863 1091 56.4895 1342.94 539.339
463 0 82.3286 13.6648 1125 56.2213 1342.74 539.864
464 0 87.3279 14.5314 1269 55.0843 1342.66 536.782
465 0 90.3108 14.0293 1267 56.0679 1342.83 534.833
466 0 93.1535 14.1487 1318 56.0395 1342.52 533.904
467 1 50.2855 11.7728 592 55.9358 1342.46 556.221
468 0 51.1899 11.2718 577 57.0936 1342.75 554.121
469 0 53.0828 11.8117 627 56.8868 1342.65 553.407
470 0 53.2154 12.9286 688 56.1686 1342.94 553.609
471 0 57.0856 11.8769 678 57.4484 1342.66 552.639
472 0 55.292 12.642 699 57.7239 1342.93 551.67
473 0 58.2712 12.9567 755 57.7046 1342.77 550.858
474 0 61.2145 12.6931 777 57.0618 1342.81 551.526
475 0 62.2313 12.8553 800 57.9412 1342.72 549.988
476 0 65.3821 13.4593 880 57.592 1342.84 548.86
477 0 66.2825 13.8649 919 58.1066 1343.06 547.329
478 0 68.5446 13.6699 937 58.4194 1343.19 547.054
479 0 69.3345 13.8171 958 58.2599 1343.45 548.171
480 0 72.2343 13.5946 982 59.5163 1343.47 546.011
481 0 74.3006 13.0012 966 60.8447 1343.6 543.541
482 0 76.3035 14.1147 1077 59.9025 1343.31 544.24
483 0 78.2437 13.982 1094 60.6947 1343.27 541.818
484 0 82.1662 14.0812 1157 61.0519 1342.99 539.462
485 0 85.26 14.7197 1255 60.1195 1343.49 539.098
486 0 87.1888 14.2564 1243 61.2816 1343.61 537.39
487 0 90.3096 14.406 1301 61.3613 1343.67 535.513
488 0 94.3699 13.6378 1287 62.2385 1343.28 535.679
489 0 97.2047 14.0425 1365 61.6857 1343.84 534.06
490 0 99.174 13.8242 1371 62.8337 1343.76 533.365
491 0 102.323 13.2424 1355 63.7771 1344.25 529.193
492 0 105.134 14.2771 1501 62.3811 1344.41 530.583
493 1 58.1104 10.4284 606 63.6749 1344.43 554.134
494 0 60.2317 11.3893 686 63.172 1344.69 551.184
495 0 63.1792 12.1084 765 62.1229 1344.79 549.94
496 0 67.1086 12.5021 839 61.5256 1344.22 547.821
497 0 69.134 12.295 850 62.6012 1344.15 545.978
498 0 71.0555 13.5246 961 61.1592 1344.23 545.458
499 0 72.1263 12.5613 906 62.606 1343.82 543.48
500 0 76.158 13.3407 1016 61.5059 1343.86 542.338
501 0 78.342 12.3688 969 62.4293 1343.46 541.514
502 0 80.1703 12.3861 993 62.2498 1343.9 539.202
503 0 82.1519 12.7934 1051 62.1113 1343.55 538.592
504 0 86.2183 12.8975 1112 62.188 1343.53 535.641
505 0 88.2663 13.0401 1151 61.709 1343.56 536.756
506 0 90.0825 13.0769 1178 61.7742 1343.73 534.191
507 0 94.2641 12.6135 1189 61.9983 1343.76 531.077
508 0 98.1851 13.332 1309 60.8358 1343.78 530.662
509 1 49.0678 10.8829 534 60.8202 1344.03 555.24
510 0 52.0552 10.9115 568 61.4401 1343.6 552.85
511 0 54.0698 11.9845 648 59.429 1343.82 552.255
512 0 53.0857 11.6604 619 60.5848 1343.67 551.669
513 0 55.038 12.3188 678 59.792 1343.88 551.438
514 0 59.0225 13.1814 778 58.1401 1343.87 550.524
515 0 59.1407 12.7831 756 59.8042 1344.26 548.619
516 0 62.0529 13.4401 834 58.97 1344.04 547.734
517 0 64.2746 13.2712 853 57.8628 1344.07 546.039
518 0 65.1165 13.2071 860 58.0721 1344.26 546.715
519 0 68.1309 12.6521 862 58.2819 1344.76 544.565
520 0 70.3306 13.6498 960 56.8031 1344.49 544.962
521 0 72.0885 12.4014 894 58.7081 1344.31 543.447
522 0 74.098 13.86 1027 57.1967 1344.49 541.262
523 0 77.1434 14.9721 1155 55.9827 1344.57 540.223
524 0 78.152 13.4737 1053 57.7654 1344.31 542.339
525 0 80.2987 13.4373 1079 58.5931 1344.57 537.438
526 0 84.2333 14.0087 1180 58.1381 1344.55 537.455
527 0 86.5224 13.9155 1204 58.1105 1344.3 536.802
528 0 88.3004 13.4428 1187 59.2409 1344.33 534.244
529 0 92.1946 14.1874 1308 58.5803 1344.47 533.931
530 0 94.1428 14.5205 1367 58.6481 1344.39 530.939
531 0 97.3297 14.1683 1379 59.0798 1344.45 530.819
532 0 99.1928 13.4284 1332 60.7072 1344.49 530.119
533 0 104.363 14.1237 1474 59.8562 1344.57 526.396
534 1 53.2337 12.9617 690 60.3116 1344.51 551.439
535 0 55.1406 11.8424 653 62.366 1344.8 550.495
536 0 57.1643 12.7877 731 61.7018 1345.12 549.698
537 0 59.176 12.7586 755 61.7219 1344.91 549.048
538 0 61.2318 13.3591 818 60.4205 1344.66 549.19
539 0 63.2912 13.6986 867 60.7001 1344.74 546.039
540 0 64.2103 13.4402 863 61.0823 1344.22 544.346
541 0 65.263 14.5565 950 60.3274 1344.2 543.716
542 0 68.3837 13.6582 934 60.9722 1343.94 541.972
543 0 73.124 13.9352 1019 60.0236 1344.27 541.626
544 0 76.2289 14.7451 1124 59.0801 1343.62 539.709
545 0 77.1462 14.0642 1085 60.8101 1343.15 538.629
546 0 79.2454 14.3352 1136 60.3257 1343.41 538.899
547 0 81.1899 13.7209 1114 61.1418 1342.92 535.429
548 0 86.4392 14.1371 1222 60.117 1343.06 534.277
549 0 88.2024 14.9429 1318 59.2337 1342.6 532.987
550 0 91.2922 14.3386 1309 59.9175 1343.15 533.304
551 0 93.2619 14.0679 1312 60.6806 1343.08 532.524
552 0 96.3576 14.249 1373 60.3933 1342.84 530.883
553 0 99.4309 14.241 1416 60.2083 1343.23 529.357
554 1 51.1716 11.1194 569 62.1652 1343.22 552.866
555 0 51.1716 11.0804 567 172.963 1343.23 552.866
556 0 55.2333 12.9089 713 60.7209 1343.47 550.881
557 0 57.1748 13.0827 748 60.2955 1343.43 550.531
558 0 60.1841 13.791 830 59.4928 1343.22 548.908
559 0 62.3066 13.6262 849 60.0954 1343 547.37
560 0 67.1502 13.3879 899 59.3493 1343.32 548.588
561 0 66.2531 13.2371 877 60.7035 1343.02 547.291
562 0 67.2869 13.7174 923 60.662 1343.31 544.642
563 0 71.3481 13.7495 981 59.9786 1343.03 545.035
564 0 73.2421 13.7353 1006 60.666 1343.13 543.441
565 0 75.2808 13.6954 1031 61.0068 1343.13 540.77
566 0 75.28 12.6993 956 63.16 1343.5 540.08
567 0 80.3974 14.0801 1132 61.2553 1343.15 539.322
568 0 85.2755 14.2597 1216 60.3914 1343.09 538.66
569 0 87.3922 14.1889 1240 60.7669 1342.8 535.704
570 0 90.3962 14.0382 1269 61.3254 1343.06 535.502
571 1 49.1333 11.2958 555 62.5784 1342.46 555.602
572 0 48.1735 11.1057 535 63.7178 1342.4 554.636
573 0 51.1794 12.5441 642 61.4813 1342.17 553.84
574 0 54.1057 11.9581 647 62.5008 1341.97 553.366
575 0 56.1001 12.1568 682 62.6276 1341.7 551.824
576 0 58.0603 12.8487 746 61.9424 1342.28 552.052
577 0 59.097 13.4186 793 61.8474 1341.99 550.473
578 0 61.1976 13.5136 827 61.8622 1341.72 549.793
579 0 62.1812 13.1551 818 62.2103 1341.65 548.989
580 0 64.2316 13.6693 878 61.5854 1341.67 549.476
581 0 66.0999 12.7988 846 62.9173 1341.48 547.204
582 0 67.2905 13.464 906 62.2053 1340.84 547.847
583 0 68.1942 13.1536 897 62.5206 1340.96 545.744
584 0 72.2643 13.8658 1002 60.8184 1341.04 546.037
585 0 73.1541 13.5877 994 62.0101 1341.18 542.962
586 0 77.2333 13.3492 1031 62.2852 1340.98 542.24
587 0 79.2397 13.7305 1088 62.1112 1341.21 540.832
588 0 82.1292 13.9658 1147 61.4333 1341.04 540.832
589 0 85.2453 13.8893 1184 61.2432 1340.6 540.315
590 0 87.1669 13.4111 1169 62.3576 1340.66 536.664
591 0 92.1683 13.8985 1281 60.6745 1341.4 537.963
592 1 44.0658 10.8928 480 61.1875 1341.25 559.973
593 0 44.0887 12.18 537 60.4209 1341.24 558.92
594 0 46.1093 12.1017 558 59.0574 1341.19 557.909
595 0 47.2091 10.57 499 60.6713 1340.92 557.108
596 0 48.1196 11.7416 565 59.3628 1340.32 557.538
597 0 51.1072 12.2292 625 58.8544 1340.74 555.803
598 0 53.2151 12.4589 663 57.2413 1340.7 555.872
599 0 54.1776 11.5915 628 58.5526 1340.32 555.314
600 0 54.1324 12.765 691 58.6657 1339.8 553.003
601 0 56.1262 12.4719 700 58.2529 1339.92 551.036
602 0 58.1521 13.0176 757 58.1902 1340.06 551.38
603 0 59.1546 12.5941 745 58.447 1340.25 550.784
604 0 61.08 13.4578 822 57.663 1340.11 549.473
605 0 64.0804 12.8276 822 57.9282 1340.54 549.208
606 0 66.098 13.3287 881 57.0261 1340.3 548.172
607 0 66.0658 13.0779 864 58.4931 1340 548.382
608 0 70.0845 13.1698 923 59.3131 1340.44 546.398
609 0 70.1043 13.7081 961 60.6889 1340.91 544.872
610 0 73.1092 13.5961 994 61.6821 1340.76 543.444
611 0 75.0923 13.3702 1004 62.7102 1340.8 542.624
612 0 78.1277 14.4635 1130 63.0513 1340.83 542.719
613 0 81.2144 14 1137 63.9217 1341.1 542.953
614 0 83.1122 13.8127 1148 65.642 1341.14 541.2
615 0 83.2096 13.484 1122 66.1765 1340.98 537.981
616 0 86.1978 13.3994 1155 68.6277 1340.71 536.815
617 0 90.2034 13.9352 1257 68.5975 1340.66 536.462
618 1 49.0444 11.3367 556 68.9496 1340.22 556.178
619 0 52.1287 11.3565 592 67.9696 1340.32 555.485
620 0 55.0545 12.2242 673 65.8425 1340.29 554
621 0 56.107 12.387 695 66.341 1340.48 553.426
622 0 57.1233 12.6043 720 67.4375 1340.27 551.271
623 0 56.0767 12.5899 706 67.5439 1341.18 551.864
624 0 58.0649 12.8649 747 67.8474 1341.17 550.303
625 0 59.1174 13.6508 807 67.3408 1340.99 549.212
626 0 62.1378 12.601 783 68.355 1340.95 549.19
627 0 65.2601 13.0555 852 68.135 1341.12 546.34
628 0 64.1151 13.3822 858 68.5828 1341.02 545.79
629 0 69.1946 13.4837 933 68.8307 1340.86 545.505
630 0 72.1021 13.6057 981 67.4006 1340.99 544.488
631 0 73.061 14.1936 1037 65.675 1340.77 542.807
632 0 77.2297 13.7641 1063 65.8749 1340.94 541.192
633 0 79.0938 13.7305 1086 66.0635 1341.25 538.712
634 0 82.1096 14.2249 1168 64.0728 1341.45 539.642
635 0 83.1004 12.9843 1079 65.6246 1341.83 537.331
636 1 40.0419 10.6638 427 65.1007 1341.47 558.049
637 0 43.0421 10.8034 465 64.5333 1341.94 558.441
638 0 46.0627 11.9619 551 61.4446 1341.63 558.488
639 0 48.0802 11.7096 563 61.5542 1341.72 556.043
640 0 49.0771 12.2257 600 61.34 1341.94 553.59
641 0 50.0732 11.9625 599 61.2287 1342.3 553.299
642 0 53.0327 11.1441 591 61.5804 1342.03 553.428
643 0 53.1192 12.7073 675 60.5304 1342.55 551.187
644 0 57.0679 12.6165 720 58.8833 1342.8 552.242
645 0 56.0553 12.113 679 154.932 1342.76 551.772
646 0 61.0535 12.4645 761 59.6597 1343.21 547.666
647 0 66.1152 13.1891 872 57.883 1343.12 547.865
648 0 69.2049 13.814 956 56.7908 1343.18 545.772
649 0 69.1446 12.134 839 58.7902 1342.93 545.909
650 0 71.3007 12.819 914 57.4497 1343.11 543.368
651 0 75.1622 13.5041 1015 56.1133 1343.5 542.756
652 1 37.2817 10.9169 407 58.1597 1343.48 558.531
653 0 41.0658 10.6902 439 57.0023 1343.31 558.415
654 0 40.1334 10.7143 430 57.9884 1342.99 556.765
655 0 43.1228 11.7339 506 56.3024 1342.63 555.779
656 0 44.2976 12.0097 532 56.5714 1343.91 556.714
657 0 47.0608 13.4932 635 54.3071 1343.86 555.893
658 0 45.1512 12.0041 542 56.9686 1344.22 554.847
659 0 49.1323 11.8252 581 56.1859 1343.93 553.527
660 0 51.1745 11.451 586 55.9693 1344.02 554.055
661 0 52.1222 11.1853 583 56.8799 1343.58 551.907
662 0 54.1637 10.8006 585 57.1453 1344.21 551.171
663 0 55.1141 12.1203 668 55.6033 1344.55 550.156
664 0 58.1038 11.9441 694 53.7579 1344.36 549.107
665 0 61.0584 11.8575 724 53.9406 1344.28 547.336
666 0 62.0786 11.7271 728 55.1291 1344.83 544.956
667 0 65.1072 13.5776 884 52.8541 1344.95 544.925
668 0 67.0571 12.3328 827 54.5828 1344.63 543.852
669 0 70.0773 12.3292 864 54.4711 1344.86 544.154
670 0 72.1271 12.9494 934 54.47 1344.9 543.574
671 1 36.0171 10.9115 393 54.9008 1345.83 558.738
672 0 37.0645 10.9809 407 55.6314 1345.26 558.202
673 0 37.0738 11.7064 434 55.7097 1345.39 557.555
674 0 42.1313 11.4404 482 55.0975 1345.51 557.251
675 0 40.0469 11.7612 471 56.3716 1345.45 555.236
676 0 42.1054 12.3975 522 55.8352 1345.66 555.358
677 0 44.1597 12.0698 533 56.1764 1345.77 555.6
678 0 45.1908 11.9936 542 56.6328 1346 553.363
679 0 47.1942 11.8235 558 56.2634 1345.9 552.057
680 0 48.0474 12.1755 585 56.0376 1346.4 552.95
681 0 49.1128 12.1557 597 56.4104 1346.36 551.575
682 0 50.102 13.1731 660 55.7742 1346.06 550.932
683 0 51.0864 12.567 642 56.4081 1346.15 549.305
684 0 55.1096 13.5367 746 54.8954 1346.44 548.843
685 0 54.1262 12.748 690 56.5058 1346.75 549.245
686 0 57.0853 13.7864 787 55.2402 1345.75 547.508
687 0 60.0633 11.9873 720 56.9417 1345.8 547.247
688 0 62.1893 12.5102 778 56.2236 1345.83 546.505
689 0 63.0412 12.8963 813 56.3641 1345.99 544.411
690 0 64.3452 13.5364 871 56.0735 1346.07 542.634
691 0 66.2336 13.2561 878 56.2312 1345.39 542.784
692 0 70.2142 13.2594 931 56.0752 1345.63 540.335
693 0 73.2152 13.5218 990 55.6707 1345.64 537.504
694 0 73.4347 12.7733 938 56.6322 1345.77 537.512
695 0 77.137 12.4713 962 56.8794 1345.06 535.611
696 1 36.0948 11.4421 413 57.9806 1344.83 554.194
697 0 40.1668 12 482 56.5477 1344.73 553.927
698 0 41.0778 12.6833 521 56.62 1344.71 552.712
699 0 41.0808 12.7067 522 57.1935 1344.47 552.058
700 0 41.0808 12.7067 522 155.774 1343.47 552.058
701 0 48.0403 12.9267 621 56.2319 1344.51 554.309
702 0 47.061 13.1319 618 57.2913 1344.65 552.555
703 0 48.1108 13.2818 639 57.0782 1344.42 552.246
704 0 48.1024 14.1781 682 57.0586 1344.51 551.613
705 0 53.0712 13.4725 715 57.3734 1344.29 550.548
706 0 52.027 12.3013 640 59.5047 1344.28 550.058
707 0 55.1079 14.0089 772 56.9184 1343.96 550.061
708 0 56.189 13.9885 786 57.5216 1344.07 548.001
709 0 58.1805 13.1144 763 58.2385 1344.13 547.558
710 0 61.1646 13.7988 844 57.2014 1343.7 547.026
711 0 63.3006 14.0915 892 56.778 1344.12 545.453
712 0 65.2041 14.5236 947 57.0634 1344.44 543.951
713 0 66.0542 14.5941 964 57.1546 1343.65 543.814
714 0 69.2445 14.326 992 57.4012 1343.64 543.758
715 0 72.408 13.3963 970 58.0113 1343.57 543.272
716 0 74.3921 14.4236 1073 57.8472 1343.25 539.668
717 0 75.4044 13.3016 1003 58.9342 1342.77 540.472
718 0 81.3564 14.6147 1189 56.6863 1342.46 539.56
719 0 83.2108 14.0727 1171 57.3706 1342.76 537.079
720 1 41.1279 10.6497 438 59.484 1342.29 556.475
721 0 43.1693 11.6055 501 58.7485 1341.77 555.848
722 0 43.0707 11.8642 511 58.4031 1342.11 556.485
723 0 46.1901 12.5784 581 57.8571 1341.93 555.11
724 0 48.0965 11.9136 573 57.8604 1342.2 554.59
725 0 48.0801 12.0424 579 58.3938 1341.67 554.358
726 0 51.0389 12.4219 634 56.541 1341.57 554.208
727 0 51.1707 13.5038 691 56.6208 1341.78 551.243
728 0 53.0474 13.29 705 56.8894 1341.41 551.559
729 0 55.0536 14.2043 782 55.046 1341.88 548.238
730 0 57.078 13.7882 787 54.9339 1341.88 547.635
731 0 58.076 13.9128 808 54.776 1341.3 548.644
732 0 63.2511 14.0235 887 53.9019 1341.8 546.475
733 0 64.2254 13.5772 872 54.2672 1341.21 547.025
734 0 65.285 13.9695 912 54.5735 1341.11 545.895
735 0 65.1003 12.089 787 56.7637 1341.22 545.618
736 0 66.1333 13.2006 873 55.992 1340.78 543.205
737 0 69.1736 13.4011 927 56.2028 1340.87 541.977
738 0 72.1268 12.991 937 56.2689 1340.78 542.629
739 0 72.179 13.0093 939 56.7071 1341.29 540.547
740 0 78.1343 13.2464 1035 56.3353 1341.76 539.461
741 1 42.0372 10.1101 425 57.2635 1341.62 558.066
742 0 45.1458 11.4075 515 56.4116 1340.99 555.639
743 0 46.0575 11.6594 537 55.4488 1341.43 556.54
744 0 49.0614 11.5569 567 55.5679 1340.84 555.531
745 0 49.1022 11.6288 571 56.2207 1340.76 553.947
746 0 54.1394 12.1908 660 55.3682 1340.72 553.558
747 0 55.1997 12.8624 710 56.0183 1340.52 554.159
748 0 55.2202 10.8113 597 57.7605 1340.4 552.621
749 0 57.0251 12.8364 732 55.4536 1340.12 550.833
750 0 60.2748 14.3178 863 53.8621 1340.31 550.869
751 0 62.1371 12.8587 799 55.1865 1340.13 550.29
752 0 62.2027 12.9255 804 55.9577 1339.96 549.9
753 0 66.163 12.9831 859 56.6775 1340.16 546.503
754 0 68.3584 11.8054 807 57.6332 1339.95 545.54
755 0 71.2184 12.7635 909 56.8229 1340.54 545.938
756 0 72.1486 14.0543 1014 55.5838 1340.31 546.357
757 0 74.2714 13.6392 1013 56.6348 1339.91 544.488
758 0 76.1222 14.1352 1076 56.7091 1339.78 543.362
759 0 81.1239 13.3006 1079 56.7989 1339.75 544.385
760 0 83.1253 13.6902 1138 56.8972 1339.65 542.002
761 1 49.0807 10.3503 508 55.5354 1339.31 561.065
762 0 48.1003 10.5821 509 57.5422 1339.35 557.89
763 0 49.0697 11.1067 545 57.0257 1339.64 558.02
764 0 51.0814 11.5502 590 55.839 1339.51 558.176
765 0 51.0327 12.247 625 56.8864 1339.79 555.824
766 0 52.1306 12.3152 642 56.9299 1340.24 555.142
767 0 54.0857 13.1643 712 55.4775 1340.08 553.827
768 0 54.0679 12.5398 678 56.2124 1339.28 553.594
769 0 57.1682 12.1396 694 56.0893 1339.63 553.579
770 0 59.2199 12.614 747 55.1754 1339.42 553.34
771 0 61.1323 13.1354 803 54.7036 1339.45 552.462
772 0 63.0705 13.1123 827 54.8295 1339.33 551.469
773 0 65.2643 13.4377 877 54.2588 1339.49 550.015
774 0 65.3769 13.338 872 54.828 1338.81 547.979
775 0 68.4959 12.8621 881 55.3314 1338.81 548.093
776 0 70.2919 12.7184 894 55.7013 1338.65 547.601
777 0 73.4107 13.5403 994 54.9125 1339.11 547.264
778 0 77.3463 13.5495 1048 54.9981 1338.98 543.605
779 0 78.3234 13.6868 1072 55.32 1339.32 543.663
780 0 80.3684 13.2141 1062 56.467 1339.71 539.906
781 0 83.4051 13.3925 1117 56.4628 1339.8 540.005
782 0 85.8391 13.7816 1183 56.2215 1339.85 540.198
783 0 90.7618 14.4885 1315 55.1133 1340.11 537.755
784 0 93.7701 14.141 1326 56.3537 1340.11 536.487
785 0 94.4433 12.9284 1221 58.5143 1340.57 535.134
786 0 97.4019 13.665 1331 57.9053 1340.46 532.554
787 1 50.2629 10.7634 541 59.7856 1340.44 555.514
788 0 51.3743 11.7763 605 59.6 1340.89 554.15
789 0 53.3578 12.3506 659 59.0516 1340.93 552.41
790 0 55.1722 12.8326 708 59.346 1341.36 550.797
791 0 57.3909 13.0509 749 58.9199 1341.27 550.59
792 0 59.2711 13.2105 783 59.7241 1341.58 550.123
793 0 60.4909 13.8699 839 59.4219 1341.8 547.451
794 0 62.9484 13.4555 847 59.7662 1342.51 546.009
795 0 63.4265 12.7234 807 60.7373 1342.18 544.654
796 0 64.3815 13.7617 886 59.6377 1342.81 544.357
797 0 69.3609 13.1486 912 59.7215 1342.67 544.425
798 0 71.285 14.0422 1001 58.9361 1342.44 541.637
799 0 73.4142 13.0084 955 59.9822 1342.66 540.559
800 0 76.3265 13.8353 1056 59.2481 1343.12 539.215
801 0 81.5989 14.3017 1167 58.323 1343.47 537.569
802 0 81.5989 14.3017 1167 162.742 1343.47 537.569
803 0 85.4139 13.2648 1133 59.729 1343.01 535.732
804 0 89.6756 14.0618 1261 58.314 1342.87 534.078
805 0 89.5096 13.6075 1218 59.5509 1342.54 532.113
806 0 96.399 14.1391 1363 57.7432 1342.86 532.239
807 1 49.287 12.3968 611 57.5499 1343.33 552.99
808 0 52.1879 11.4011 595 58.5731 1343.18 551.877
809 0 54.426 12.0163 654 58.9495 1343.11 550.408
810 0 57.1324 13.6875 782 56.0627 1343.2 552.582
811 0 57.0873 13.418 766 57.0418 1342.95 550.774
812 0 59.1559 13.456 796 56.8505 1343.82 549.78
813 0 60.2127 12.7382 767 57.7249 1343.84 547.795
814 0 61.1625 12.4913 764 58.11 1344.22 546.486
815 0 66.1762 14.1592 937 55.095 1344.34 545.336
816 0 69.2335 13.635 944 55.6165 1344.14 545.007
817 0 71.5482 13.1939 944 56.2023 1344.01 543.865
818 0 73.2781 13.865 1016 55.0886 1344.22 542.983
819 0 75.2368 13.4243 1010 55.7317 1344.12 541.055
820 0 75.2497 12.0665 908 56.6641 1344.24 539.129
821 0 79.3015 12.8119 1016 56.2598 1344.14 537.909
822 0 82.3716 13.0021 1071 56.0906 1344.1 535.18
823 0 87.1868 13.6144 1187 55.0295 1344.15 535.386
824 1 44.1031 10.6795 471 56.0637 1344.3 553.72
825 0 46.0475 9.4902 437 57.1693 1344.29 555.039
826 0 48.2049 11.5549 557 55.2011 1344.15 554.596
827 0 49.0469 11.0099 540 55.4148 1343.71 556.398
828 0 53.0759 11.4553 608 55.8372 1342.98 552.364
829 0 52.0239 12.4558 648 55.1806 1343.31 552.042
830 0 53.0331 12.709 674 55.497 1342.78 551.564
831 0 56.1402 13.0388 732 54.6735 1342.71 552.296
832 0 57.0318 12.4141 708 55.928 1342.38 550.633
833 0 58.0402 11.8539 688 56.7674 1342.21 550.067
834 0 59.0205 12.3177 727 56.9161 1341.99 547.872
835 0 60.0627 12.4203 746 57.0979 1342.21 547.902
836 0 64.1018 12.4178 796 56.3731 1342.09 546.955
837 0 66.0384 12.9016 852 56.2007 1342.69 546.951
838 0 68.1335 13.2387 902 56.8115 1343.08 546.35
839 0 71.104 13.4732 958 56.3246 1343.72 545.046
840 0 72.1806 12.6627 914 57.7768 1343.48 543.684
841 0 73.1328 12.8397 939 58.1065 1343.5 542.859
842 0 77.2105 12.6149 974 58.1324 1343.29 541.979
843 1 40.0498 9.73788 390 58.6103 1343.26 559.741
844 0 42.075 10.719 451 57.5233 1343.4 558.415
845 0 45.1926 11.5506 522 56.1973 1342.78 559.031
846 0 44.0542 11.9625 527 58.7951 1342.5 557.56
847 0 48.0406 12.8017 615 57.0911 1342.7 556.603
848 0 48.0707 12.7104 611 58.0475 1342.87 556.8
849 0 50.0711 12.4623 624 58.3702 1342.54 557.402
850 0 52.1374 13.8672 723 57.1286 1343.26 554.645
851 0 54.0639 12.5962 681 58.3275 1342.63 555.189
852 0 55.0712 12.5655 692 59.1488 1343.42 553.354
853 0 55.0534 13.387 737 58.1452 1343.2 553.763
854 0 57.092 13.0841 747 58.9371 1343.04 553.374
855 0 60.0933 13.0464 784 58.3304 1343.03 553.824
856 0 60.0516 14.3543 862 57.8097 1342.8 552.433
857 0 63.0794 12.2227 771 60.0337 1341.78 551.757
858 0 65.1258 14.0804 917 57.6827 1342.65 552.483
859 0 65.1038 13.3018 866 58.9376 1342.2 550.111
860 0 68.145 13.6474 930 58.7323 1342.54 548.274
861 0 70.0814 13.627 955 58.6534 1342.74 548.861
862 0 73.0596 13.3726 977 59.5015 1342.11 546.628
863 0 76.0559 13.5558 1031 59.2648 1342.7 546.815
864 1 40.0479 11.4113 457 61.5799 1342.61 563.562
865 0 41.0614 11.6167 477 61.5807 1342.91 561.637
866 0 41.0276 12.0894 496 62.7661 1342.28 560.004
867 0 43.061 12.7261 548 61.3102 1341.33 560.128
868 0 46.2781 12.9435 599 60.1219 1341.17 560.905
869 0 47.0414 12.9035 607 61.9094 1342.05 559.641
870 0 48.1048 13.3043 640 62.6859 1341.83 557.491
871 0 48.3452 13.7759 666 62.539 1340.38 558.548
872 0 50.1816 12.6142 633 63.8373 1340.59 558.937
873 0 50.2215 12.9028 648 64.0972 1340.33 557.54
874 0 53.2561 14.0829 750 62.1667 1340.62 556.531
875 0 52.2361 13.171 688 64.032 1340.58 555.815
876 0 55.0801 14.0159 772 63.0997 1339.93 553.61
877 0 56.2747 14.8379 835 62.3964 1339.92 553.079
878 0 59.11 14.177 838 63.4045 1340.24 552.448
879 0 62.1769 13.928 866 63.5866 1340.72 552.132
880 0 62.3277 14.7607 920 63.2815 1340.75 550.336
881 0 63.5124 13.9658 887 64.4115 1340.53 551.643
882 0 67.1142 15.8089 1061 61.8172 1340.85 548.912
883 0 69.3051 14.7464 1022 63.7671 1341.58 550.082
884 0 69.3051 14.7464 1022 168.615 1342.58 550.082
885 0 71.1902 14.1873 1010 65.4139 1341.88 547.369
886 0 75.2428 14.513 1092 64.6566 1341.99 546.622
887 0 76.2391 14.2184 1084 65.1061 1341.9 544.95
888 1 40.4538 12.8047 518 67.7278 1341.88 561.849
889 0 42.1428 13.739 579 66.285 1341.69 560.712
890 0 44.1289 15.5001 684 63.9444 1341.98 560.613
891 0 47.1961 15.0436 710 64.4831 1341.81 559.234
892 0 49.105 15.0901 741 64.4764 1342.09 557.725
893 0 49.0746 14.6512 719 86.7594 1342.62 556.118
894 0 49.3178 15.4711 763 63.5007 1342.48 556.99
895 0 52.228 15.911 831 63.1276 1343.07 554.816
896 0 53.1533 15.1825 807 64.1289 1343.75 554.834
897 0 54.3682 15.7629 857 63.8973 1343.68 552.448
898 0 56.1992 15.7476 885 63.5209 1343.9 553.863
899 0 57.1426 16.0476 917 62.9695 1344.25 553.584
900 0 58.5315 16.0939 942 63.5064 1344.26 552.431
901 0 62.3289 15.6428 975 63.682 1343.86 550.646
902 0 64.3131 16.684 1073 61.7856 1344.03 550.934
903 0 65.4106 16.5722 1084 62.4363 1343.93 547.265
904 0 68.1128 16.7223 1139 62.1089 1343.93 546.874
905 0 70.2353 15.4765 1087 63.6403 1343.85 544.96
906 0 72.2996 16.4178 1187 62.4937 1344.28 545.436
907 0 76.4583 16.388 1253 61.7127 1344.18 544.836
908 1 37.2706 14.113 526 66.6654 1344.24 560.859
909 0 38.2478 14.7982 566 65.811 1344.71 561.053
910 0 39.1668 15.4212 604 66.0166 1344.84 560.459
911 0 41.4584 16.9809 704 64.0128 1344.94 558.57
912 0 43.064 15.953 687 65.869 1345.03 558.348
913 0 45.4545 15.906 723 65.4661 1345.4 557.217
914 0 46.4148 16.6111 771 64.8482 1345.03 557.243
915 0 47.528 15.2542 725 66.8483 1345.23 556.141
916 0 48.1432 17.1572 826 64.7942 1345.2 555.318
917 0 48.3857 16.8438 815 65.4675 1345.6 554.757
918 0 51.1695 17.5886 900 64.32 1345.72 553.954
919 0 54.4479 16.8051 915 64.6361 1345.79 552.475
920 0 56.2522 16.6571 937 64.286 1345.75 552.561
921 0 57.3612 16.8581 967 64.6091 1345.85 550.81
922 0 60.488 17.0778 1033 63.2556 1345.99 551.911
923 0 61.3856 17.0724 1048 64.5668 1346.86 547.772
924 0 65.4608 16.9414 1109 64.2137 1346.53 547.671
925 0 64.2855 16.8467 1083 65.5309 1346.13 546.99
926 0 69.3205 16.6906 1157 64.255 1346.36 546.019
927 0 72.6377 16.424 1193 64.254 1346.47 546.174
928 0 75.5823 16.6441 1258 64.686 1346.42 544.282
929 0 78.5161 16.2896 1279 64.699 1346.61 543.561
930 1 36.4296 14.4662 527 68.1025 1346.72 561.611
931 0 39.5977 14.7988 586 67.9608 1346.76 560.075
932 0 40.2864 15.4891 624 68.3878 1346.71 559.163
933 0 42.2645 15.7342 665 68.0511 1346.68 559.041
934 0 43.623 15.909 694 67.8242 1346.16 557.952
935 0 45.3599 16.6226 754 66.7719 1345.83 557.021
936 0 46.505 16.0413 746 67.437 1346.02 558.016
937 0 51.3123 15.9806 820 66.272 1345.84 556.505
938 0 50.3296 15.7363 792 67.904 1345.74 554.933
939 0 51.2981 15.6146 801 68.3258 1345.74 553.996
940 0 55.4303 16.5974 920 65.8891 1345.98 552.8
941 0 56.5712 17.0051 962 65.9896 1345.78 551.155
942 0 58.5113 16.39 959 66.7445 1345.94 551.7
943 0 61.4475 17.0715 1049 65.4442 1345.13 550.96
944 0 63.8506 16.3976 1047 66.5129 1344.88 549.444
945 0 64.4434 16.5572 1067 67.492 1344.58 547.581
946 0 67.8399 16.2884 1105 67.2643 1344.34 547.444
947 0 69.9065 16.1215 1127 68.2156 1344 545.279
948 0 72.8818 15.9711 1164 67.6701 1343.83 545.698
949 0 74.6976 16.4128 1226 67.1003 1343.9 545.239
950 0 76.6855 16.9524 1300 66.7462 1343.45 543.958
951 0 79.7038 15.8964 1267 67.7861 1343.78 543.172
952 0 81.8913 16.9737 1390 66.8971 1343.63 541.568
953 0 85.3433 17.0839 1458 66.4842 1344.32 539.634
954 0 87.7542 16.4892 1447 67.575 1344.11 538.914
955 0 90.5069 16.6507 1507 67.0252 1343.97 537.64
956 0 92.4928 16.2824 1506 68.162 1343.95 534.08
957 0 97.0705 16.0605 1559 67.8961 1344.08 534.702
958 0 101.472 17.1575 1741 65.664 1344 532.851
959 0 105.097 16.0994 1692 67.221 1343.74 533.125
960 0 107.499 16.0374 1724 67.0644 1343.85 532.183
961 0 110.552 16.0196 1771 67.6234 1343.5 529.636
962 0 116.692 16.3679 1910 66.6754 1343.34 526.796
963 0 119.886 16.1987 1942 65.5381 1343.99 525.022
964 0 123.617 15.3619 1899 66.1064 1343.78 525.335
965 0 126.75 16.9941 2154 64.7632 1343.49 521.687
966 0 132.224 16.6308 2199 65.0046 1343.25 520.637
967 0 137.836 17.4628 2407 63.9747 1343.59 518.361
968 0 140.81 16.3553 2303 65.6222 1343.42 515.712
969 0 148.683 16.0677 2389 65.7735 1343.31 512.186
970 0 151.961 15.7475 2393 66.3903 1343.26 510.758
971 0 158.876 15.981 2539 65.896 1343.44 508.793
972 0 163.974 16.3868 2687 65.5657 1343.07 503.452
973 0 170.038 16.0435 2728 65.8856 1342.74 501.432
974 0 176.715 16.3484 2889 65.6757 1343.28 497.158
975 0 181.767 15.1458 2753 67.5568 1342.4 496.618
976 1 151.812 15.5258 2357 67.3475 1342.65 517.387
977 0 152.577 15.579 2377 68.6803 1342.78 508.798
978 0 157.593 15.1339 2385 69.1279 1342.25 506.764
979 0 167.014 15.0467 2513 69.0207 1342.33 506.658
980 0 172.815 16.2196 2803 67.2351 1341.98 503.948
981 0 177.48 15.9511 2831 68.3087 1342.34 499.807
982 0 186.966 16.0564 3002 67.3974 1342.45 498.068
983 0 191.789 15.882 3046 68.2695 1342.22 491.039
984 0 199.871 16.6157 3321 66.8958 1342.09 491.519
985 1 37.8534 15.4544 585 67.8735 1342.86 563.569
986 0 39.6889 15.6971 623 67.4799 1342.21 562.228
987 0 39.6885 16.6295 660 67.6788 1342.19 562.224
988 0 40.6475 15.7943 642 69.5125 1342.28 561.207
989 0 43.7559 15.8379 693 68.5772 1341.59 560.719
990 0 43.6125 16.5549 722 68.6233 1341.66 560.611
991 0 45.8246 15.472 709 70.488 1341.97 559.308
992 0 48.6176 16.6606 810 68.0037 1341.38 559.307
993 0 49.6248 15.4963 769 70.4916 1341.82 557.801
994 0 50.6205 15.8236 801 70.0375 1341.54 558.493
995 0 51.5675 15.9984 825 70.2642 1341.43 558.479
996 0 53.6882 15.6087 838 70.7983 1341.39 557.541
997 0 54.3677 16.1309 877 70.699 1341.38 556.901
998 0 58.5317 15.4959 907 70.763 1341.04 555.41
999 0 60.4085 16.1567 976 69.9949 1340.88 554.139
1000 0 61.5979 16.4941 1016 70.0532 1341.09 553.089
1001 0 66.5435 16.8762 1123 68.138 1341.64 552.919
1002 0 67.6238 16.37 1107 70.2042 1341.2 550.915
1003 0 70.5307 15.4117 1087 69.6118 1340.97 550.064
1004 1 38.2861 13.5558 519 70.6281 1341.65 564.229
1005 0 36.3221 15.1973 552 70.3605 1341.93 562.804
1006 0 39.3441 15.9872 629 67.9428 1342.37 563.657
1007 0 40.5508 16.991 689 66.6996 1342.07 562.822
1008 0 41.3983 16.7157 692 66.7283 1342.42 562.902
1009 0 42.5903 16.3183 695 67.7324 1342.17 562.977
1010 0 42.6112 16.4042 699 69.1302 1341.88 561.627
1011 0 44.4099 16.798 746 69.4544 1341.94 561.606
1012 0 47.5748 16.6685 793 68.5486 1341.52 561.826
1013 0 48.4178 17.2457 835 68.9964 1341.89 560.959
1014 0 47.4775 16.5131 784 71.5013 1341.79 558.957
1015 0 50.5337 15.7914 798 71.2732 1341.62 559.301
1016 0 52.4634 17.0595 895 70.105 1341.96 558.012
1017 0 53.381 16.4104 876 70.3448 1341.62 558.42
1018 0 54.7523 16.6934 914 70.465 1342.11 557.661
1019 0 57.41 17.1573 985 69.8487 1341.65 556.065
1020 0 58.4309 16.8746 986 70.2688 1341.62 555.615
1021 0 60.403 16.4727 995 71.2492 1341.5 555.761
1022 0 62.3913 17.0056 1061 69.426 1341.72 555.053
1023 0 64.336 17.5951 1132 69.2624 1341.89 553.012
1024 0 64.336 17.5485 1129 170.584 1342.9 553.047
1025 0 64.336 17.5174 1127 170.28 1343.89 553.053
1026 0 69.5932 17.5161 1219 68.7383 1342.94 551.072
1027 0 73.22 16.867 1235 69.0915 1342.68 550.26
1028 0 74.2435 17.281 1283 69.0764 1342.74 548.795
1029 0 76.301 16.9198 1291 69.7738 1342.81 547.756
1030 0 77.3669 16.5187 1278 70.6635 1343.03 547.229
1031 0 80.7424 17.4753 1411 69.0567 1343.1 544.507
1032 0 83.4787 16.6629 1391 69.4256 1343.12 544.968
1033 0 84.3486 16.9535 1430 69.158 1343.03 544.459
1034 0 87.2381 16.2773 1420 70.0916 1343.1 541.905
1035 0 91.3596 16.6704 1523 69.7636 1343.29 539.862
1036 0 93.2482 16.4614 1535 69.6378 1344.23 537.043
1037 1 55.1405 15.7597 869 71.7445 1344.57 555.191
1038 0 57.1391 15.8385 905 71.7646 1345.04 553.665
1039 0 60.2593 17.1592 1034 70.0174 1344.93 552.646
1040 0 59.1286 17.3013 1023 71.0518 1345.11 550.566
1041 0 59.1286 17.3182 1024 178.837 1345.11 550.456
1042 0 67.3591 17.5329 1181 68.8925 1345.68 549.242
1043 0 67.4988 17.1262 1156 69.7042 1345.78 548.702
1044 0 68.2504 17.3479 1184 70.2095 1345.9 547.628
1045 0 71.2239 17.8592 1272 69.4167 1345.39 547.191
1046 0 73.3868 16.7878 1232 71.1356 1345.91 545.273
1047 0 77.1978 17.5912 1358 68.6642 1345.84 545.814
1048 0 78.2852 18.0111 1410 68.8319 1345.79 543.755
1049 0 80.4401 17.8767 1438 69.0042 1345.95 541.225
1050 0 83.3396 17.2307 1436 70.0299 1346.42 540.687
1051 0 86.4265 17.2517 1491 69.7726 1346.36 539.697
1052 0 89.631 17.6167 1579 69.3825 1346.95 537.545
1053 0 92.9275 17.1316 1592 70.2343 1346.43 535.35
1054 0 95.5037 17.214 1644 70.2464 1346.7 535.163
1055 0 101.014 16.9085 1708 70.6241 1347.11 533.13
1056 1 46.0957 13.8625 639 69.6432 1347.54 557.111
1057 0 49.0686 12.2074 599 60.2888 1347.43 556.87
1058 0 50.0626 12.2646 614 60.7932 1346.78 555.598
1059 0 50.0792 11.4019 571 61.8249 1346.96 556.939
1060 0 53.0643 11.3824 604 61.846 1346.75 555.5
1061 0 54.1843 11.627 630 61.173 1346.87 554.467
1062 0 54.0895 12.0541 652 60.8942 1347.1 554.709
1063 0 55.0712 10.5681 582 63.5395 1347 553.225
1064 0 59.0343 10.7565 635 62.9339 1346.61 554.213
1065 0 58.3331 11.1772 652 63.7147 1345.94 553.702
1066 0 60.4735 12.1376 734 62.7507 1345.33 552.658
1067 0 63.57 12.6632 805 62.4012 1345.51 550.875
1068 0 63.6978 12.6221 804 62.9192 1345.1 550.168
1069 0 64.3888 11.7567 757 64.4967 1344.81 548.989
1070 1 33.3616 10.4911 350 60.9886 1344.87 565.746
1071 0 33.3059 10.2685 342 61.7719 1345.01 565.292
1072 0 35.2998 10.2267 361 61.7784 1344.71 565.075
1073 0 37.4014 10.3205 386 61.8497 1344.28 564.016
1074 0 39.4306 9.99225 394 62.0939 1344.03 563.523
1075 0 40.271 10.7025 431 62.9258 1343.87 562.612
1076 0 41.2168 10.554 435 63.0046 1344.05 561.892
1077 0 41.1779 10.9768 452 63.5885 1343.51 561.002
1078 0 44.2193 12.0762 534 61.3652 1344.07 559.803
1079 0 45.2408 11.1846 506 62.9447 1343.4 558.544
1080 0 45.4139 10.041 456 64.4934 1343.04 558.862
1081 0 47.2639 10.9809 519 63.0617 1343.02 557.886
1082 0 47.2304 11.1792 528 63.0871 1342.83 558.551
1083 0 48.1705 11.4385 551 63.2269 1343.02 558.452
1084 0 49.2691 10.4325 514 64.858 1343.01 557.597
1085 0 52.3536 11.174 585 64.1299 1342.8 555.831
1086 0 55.4768 12.6179 700 62.5643 1342.89 555.134
1087 0 56.358 12.1367 684 63.1944 1343.55 555.908
1088 0 57.2569 10.514 602 65.8455 1343.07 554.507
1089 0 61.4332 10.4015 639 65.1988 1343.2 554.41
1090 0 61.3483 11.6385 714 64.6148 1343.21 551.962
1091 0 63.2105 11.3747 719 65.2754 1342.93 552.025
1092 0 66.2861 11.6314 771 64.6044 1342.98 550.975
1093 0 67.495 11.3786 768 65.2878 1343.19 551.461
1094 0 68.2746 11.4684 783 66.4879 1343.02 548.181
1095 0 69.3343 11.6681 809 66.4326 1343.28 549.22
1096 0 72.3798 10.4173 754 67.2135 1344.08 548.407
1097 0 76.5846 12.2087 935 65.2214 1343.73 545.814
1098 0 77.6558 10.9973 854 67.2166 1343.4 545.288
1099 0 83.7148 9.93851 832 66.482 1343.13 543.099
1100 0 77.2035 15.7506 1216 43.3396 1344.28 536.061
1101 0 47.4502 14.668 696 56.6106 1344.04 548.042
1102 0 47.8327 14.2371 681 57.8253 1343.69 548.41
1103 0 49.5175 14.4191 714 57.9006 1343.12 548.51
1104 0 51.5788 14.8317 765 57.0431 1342.91 548.088
1105 0 52.6942 14.2331 750 58.212 1342.81 549.817
1106 0 53.6885 15.1615 814 57.4128 1342.92 549.263
1107 0 57.0446 15.8648 905 55.6597 1343.25 550.75
1108 0 55.8873 14.8871 832 58.8257 1343.02 549.942
1109 0 56.5162 14.8984 842 59.323 1343.19 549.532
1110 0 60.9223 14.6744 894 58.7662 1343.21 548.116
1111 0 62.7768 15.2445 957 58.0763 1343.4 547.976
1112 0 63.9827 15.723 1006 57.7614 1343.31 547.144
1113 0 64.8757 14.8284 962 60.0707 1343.05 545.271
1114 0 68.0167 15.261 1038 59.2813 1342.72 543.942
1115 0 69.9708 14.3917 1007 60.4796 1342.36 544.009
1116 0 73.9654 14.1012 1043 60.627 1342.22 541.785
1117 1 36.7039 10.0807 370 64.2649 1342.31 561.159
1118 0 37.584 11.1217 418 63.2153 1341.56 560.842
1119 0 38.4905 11.3534 437 62.9702 1342.11 560.705
1120 0 40.732 11.2933 460 63.8065 1341.98 558.972
1121 0 43.4408 11.9012 517 63.1257 1342.32 558.371
1122 0 43.1768 12.1362 524 64.3473 1342.29 549.572
1123 1 58.2667 17.746 1034 48.7969 1342.78 539.944
1124 0 57.2206 14.7674 845 53.9101 1342.15 543.415
1125 0 58.0478 14.178 823 55.3171 1341.87 545.706
1126 0 59.2582 15.019 890 54.2798 1342.6 544.575
1127 0 60.3698 16.7136 1009 52.3528 1342.48 543.38
1128 0 61.271 16.4678 1009 53.5937 1342.28 543.445
1129 0 62.4205 15.0111 937 55.8228 1342.66 544.949
1130 0 59.485 15.8864 945 56.5915 1342.49 545.1
1131 0 61.2081 16.3541 1001 56.2048 1342.79 545.476
1132 0 60.6235 15.5056 940 58.2277 1342.86 545.13
1133 0 64.2372 15.3494 986 58.3438 1343.24 542.475
1134 0 63.3963 16.0419 1017 58.6332 1342.89 543.52
1135 0 65.4205 14.6131 956 60.6904 1343.34 543.76
1136 0 67.723 15.1499 1026 59.8636 1342.64 542.543
1137 0 68.621 15.2869 1049 60.0724 1342.57 544.12
1138 0 71.0122 14.8144 1052 60.6388 1342.55 545.126
1139 0 69.8148 13.3926 935 63.462 1342.91 545.353
1140 0 72.6798 13.5388 984 63.0986 1342.7 546.104
1141 0 74.7872 13.6119 1018 61.9411 1343.07 546.112
1142 0 76.7279 13.789 1058 63.1786 1342.85 544.708
1143 0 76.8905 13.5387 1041 63.8444 1343.34 541.79
1144 0 80.7915 14.0361 1134 62.7769 1343.42 540.336
1145 0 82.6361 13.6623 1129 63.2179 1343.59 538.446
1146 0 84.7075 14.1074 1195 63.0126 1343.06 538.527
1147 0 87.4309 14.114 1234 62.8501 1343.5 537.978
1148 0 91.6791 13.5145 1239 63.4609 1343.57 535.95
1149 0 94.2961 13.797 1301 62.3036 1344.06 533.905
1150 0 98.5771 13.9992 1380 62.1551 1344.11 531.322
1151 0 99.641 13.5386 1349 63.1238 1344.31 530.476
1152 1 52.2749 11.4587 599 62.2454 1343.98 555.96
1153 0 54.3236 11.726 637 61.5542 1343.92 554.537
1154 0 53.1859 11.2812 600 62.7233 1344.09 553.842
1155 0 57.1918 11.9947 686 61.3222 1343.93 553.706
1156 0 59.1258 12.6002 745 61.0725 1344.69 551.717
1157 0 59.115 13.2284 782 60.5895 1345.23 551.32
1158 0 61.1052 13.1413 803 60.2441 1345.13 549.727
1159 0 63.1464 12.8115 809 60.6551 1345.67 547.794
1160 0 63.1323 13.0044 821 60.9135 1346.04 547.27
1161 0 68.0825 13.9537 950 59.02 1347.1 546.27
1162 0 69.2189 12.6844 878 60.803 1346.85 545.858
1163 0 71.2852 12.4991 891 61.1403 1347.21 543.791
1164 0 74.1485 13.6213 1010 59.5238 1347.64 541.786
1165 0 79.1885 13.3479 1057 58.5071 1347.56 541.069
1166 0 78.1624 13.4208 1049 59.5644 1347.56 540.483
1167 0 82.2348 13.1088 1078 59.5102 1347.42 538.533
1168 0 85.1551 12.4361 1059 60.1596 1347.92 537.119
1169 0 89.073 14.606 1301 57.3351 1347.37 535.199
1170 1 45.013 10.3526 466 60.4206 1348.21 557.985
1171 0 47.0382 11.1399 524 58.5401 1348.48 556.113
1172 0 48.0588 11.0698 532 58.2199 1348.43 557.077
1173 0 50.0794 11.4219 572 58.4615 1349 555.058
1174 0 50.1048 11.3562 569 58.4358 1349.43 556.736
1175 0 53.093 12.7135 675 57.637 1348.87 553.991
1176 0 53.0484 12.1776 646 58.5743 1348.1 553.95
1177 0 55.048 11.6081 639 59.7042 1347.96 551.074
1178 0 57.0409 11.8687 677 59.5377 1348.13 551.505
1179 0 58.0547 12.5399 728 58.6222 1348.33 550.563
1180 0 60.0634 12.7532 766 58.5535 1347.96 550.415
1181 0 62.2067 12.4745 776 58.6688 1348.44 548.92
1182 0 64.0914 12.4666 799 59.1815 1347.6 548.751
1183 0 65.0857 12.2915 800 59.015 1347.44 547.382
1184 0 67.0665 12.5845 844 58.968 1347.52 545.63
1185 0 71.1085 12.263 872 59.1663 1348.1 544.569
1186 0 73.097 12.6818 927 58.4347 1347.44 543.833
1187 0 74.0585 11.7475 870 59.8264 1347.49 542.358
1188 0 80.1068 13.7566 1102 56.5708 1347.47 541.573
1189 1 41.0082 9.90046 406 59.6404 1348.28 559.576
1190 0 43.0066 10.3705 446 58.8946 1347.51 559.549
1191 0 45.0132 11.2189 505 58.3782 1346.55 558.655
1192 0 45.0838 10.8687 490 60.2 1346.97 556.439
1193 0 46.0547 11.0304 508 59.0236 1346.53 555.167
1194 0 49.1293 11.887 584 57.637 1346.47 556.163
1195 0 48.0709 12.4399 598 58.607 1346.51 554.711
1196 0 51.0844 12.0585 616 58.7386 1346.18 554.047
1197 0 52.0426 13.3352 694 56.8415 1346.43 554.558
1198 0 54.0845 12.5359 678 58.0914 1346.03 553.289
1199 0 55.0686 12.3846 682 59.1085 1345.77 553.299
1200 0 57.1176 13.2709 758 57.88 1344.79 548.245
1201 0 58.269 12.734 742 59.438 1344.88 548.093
1202 0 59.314 12.7795 758 59.5871 1344.28 548.927
1203 0 59.2201 12.1918 722 61.1053 1344.17 545.651
1204 0 63.2389 12.856 813 60.4551 1344.06 547.77
1205 0 64.3073 13.4666 866 60.3326 1344.04 545.681
1206 0 63.2532 12.7582 807 62.0434 1344.36 545.958
1207 0 67.227 12.9858 873 62.3906 1344.25 545.333
1208 0 69.4326 12.8182 890 62.7708 1344.05 543.391
1209 0 70.3753 13.2859 935 62.1989 1344.26 541.71
1210 0 72.4163 13.8228 1001 61.1888 1344.53 541.119
1211 0 74.3993 13.4813 1003 61.9661 1344.63 539.326
1212 0 77.807 13.1993 1027 61.6524 1344.41 538.175
1213 0 79.5357 14.2326 1132 60.5336 1344.33 535.697
1214 0 82.5889 12.7015 1049 62.245 1343.71 536.879
1215 1 46.3321 10.9859 509 62.8153 1343.58 552.841
1216 0 48.3859 10.6023 513 62.423 1343.2 554.006
1217 0 46.2795 10.415 482 63.7552 1342.86 553.56
1218 0 48.3517 11.7679 569 62.3199 1343.03 552.357
1219 0 50.3216 12.5791 633 60.7204 1342.64 550.709
1220 0 59.234 12.9993 770 59.2961 1342.44 548.905
1221 0 59.197 14.7812 875 56.864 1342.55 547.571
1222 0 61.3711 14.4042 884 57.5769 1342.82 546.971
1223 0 63.4928 13.1983 838 58.8019 1342.66 546.243
1224 0 64.4551 14.2114 916 57.8614 1342.35 544.701
1225 0 62.4414 13.0522 815 60.1718 1342.18 546.021
1226 0 65.3546 13.2661 867 59.8085 1342.29 544.811
1227 0 67.3582 13.4208 904 59.8308 1341.99 543.145
1228 0 70.4194 13.7178 966 58.5217 1341.72 543.77
1229 0 71.3667 12.9052 921 60.355 1341.39 540.636
1230 0 72.4785 12.9556 939 60.5027 1342.11 540.1
1231 0 75.3935 13.2107 996 60.1797 1342.28 539.017
1232 0 78.5863 13.1321 1032 59.6608 1341.68 538.039
1233 0 82.414 13.4079 1105 58.3982 1342.1 537.157
1234 0 82.4018 13.4948 1112 59.3282 1342.13 535.368
1235 1 45.2302 10.6124 480 61.2 1341.75 553.892
1236 0 46.1002 9.73966 449 61.8374 1342 555.361
1237 0 46.1017 10.9757 506 61.1818 1341.8 554.308
1238 0 49.0788 12.0011 589 61.4856 1341.88 555.66
1239 0 51.0607 11.692 597 62.0251 1342.64 556.085
1240 0 55.0952 13.0501 719 60.1558 1342.05 554.049
1241 0 56.0836 13.0698 733 59.9086 1342.4 553.638
1242 0 57.1969 12.2559 701 61.2825 1342.64 553.408
1243 0 60.0464 12.4404 747 60.0428 1342.63 554.938
1244 0 60.0984 12.7624 767 61.2621 1342.54 551.545
1245 0 62.1433 13.0022 808 60.6993 1342.31 551.495
1246 0 62.1433 12.9861 807 164.529 1342.3 551.501
1247 0 65.0433 12.1458 790 62.4418 1342.22 548.39
1248 0 68.1046 13.494 919 61.3047 1341.62 547.259
1249 0 72.0702 12.9596 934 61.5856 1342.13 545.491
1250 0 73.1227 12.9782 949 61.9326 1341.66 544.157
1251 0 74.1108 13.0615 968 61.1994 1342.28 543.643
1252 0 78.0686 12.8349 1002 61.7026 1342.11 542.055
1253 0 80.0745 13.1877 1056 60.9848 1341.66 541.865
1254 0 83.191 12.5494 1044 62.0642 1341.66 539.827
1255 1 45.137 11.2989 510 59.8431 1341.55 560.288
1256 0 45.0981 10.5991 478 62.1004 1342.07 558.08
1257 0 48.153 11.9203 574 59.1951 1342.41 559.22
1258 0 48.1265 10.1815 490 61.8551 1343.06 556.712
1259 0 49.1098 11.3216 556 60.9406 1343.29 556.183
1260 0 52.2024 12.8155 669 58.3842 1343.81 555.404
1261 0 52.1326 11.7777 614 61.772 1343.87 554.254
1262 0 56.0614 12.2901 689 60.4035 1343.76 552.096
1263 0 58.0973 12.2037 709 59.7898 1343.62 551.179
1264 0 58.0463 11.8871 690 60.687 1343.86 550.523
1265 0 62.0828 12.8699 799 58.8924 1343.86 549.034
1266 0 63.0613 12.0359 759 59.2372 1344.17 547.21
1267 0 66.1144 12.5994 833 57.9256 1344.3 547.212
1268 0 68.1668 12.2494 835 58.2144 1344.83 544.783
1269 0 71.1598 12.6757 902 57.2306 1345.44 544.284
1270 0 72.0623 11.6843 842 58.6734 1345.91 543.246
1271 0 75.1602 12.5731 945 57.3206 1345.99 543.857
1272 0 75.222 11.8582 892 58.8206 1346.24 539.009
1273 0 80.0701 12.2767 983 57.589 1346.62 540.067
1274 0 79.3198 12.0651 957 58.1379 1346.79 537.137
1275 0 82.4915 13.6257 1124 56.5249 1346.87 533.592
1276 0 85.3932 13.2798 1134 56.6667 1346.7 532.982
1277 0 85.3316 11.344 968 59.7004 1347.18 532.559
1278 0 90.517 11.8873 1076 58.1589 1348 532.408
1279 0 94.3513 12.3157 1162 57.5766 1348.18 528.793
1280 0 95.4064 12.5673 1199 58.352 1348.42 526.41
1281 1 49.1845 8.96624 441 59.7732 1348.61 551.338
1282 0 52.2477 10.5459 551 58.8312 1348.52 548.755
1283 0 56.1036 11.1045 623 57.5072 1348.72 549.1
1284 0 57.149 11.3388 648 58.8164 1349.12 547.394
1285 0 58.1771 12.7198 740 57.5932 1349.18 546.864
1286 0 60.099 11.6142 698 59.4599 1348.99 545.89
1287 0 63.0801 12.0165 758 58.4222 1349.07 545.794
1288 0 66.116 12.1907 806 58.0868 1348.7 544.236
1289 0 68.1081 12.4655 849 57.7809 1348.39 543.617
1290 0 71.0835 12.7596 907 57.1466 1348.71 542.374
1291 0 74.1361 12.3287 914 57.2221 1348.47 540.822
1292 0 73.1921 12.2691 898 58.4566 1348.33 540.216
1293 0 76.1139 13.3221 1014 56.7515 1348.2 538.606
1294 0 79.084 12.4045 981 57.5189 1348.64 536.976
1295 0 81.1373 12.6699 1028 57.3823 1348.38 537.255
1296 0 87.0784 12.8964 1123 56.6456 1348.6 535.801
1297 0 86.1664 12.7196 1096 57.5164 1348.61 534.504
1298 0 90.1006 12.5526 1131 57.3846 1348.67 531.063
1299 0 91.1212 11.9292 1087 58.5649 1348.6 531.954
1300 0 95.1705 13.2709 1263 56.7284 1348.55 531.06
1301 0 99.097 13.512 1339 56.6833 1348.41 526.494
1302 0 100.444 13.2312 1329 57.0083 1348.29 526.647
1303 0 106.187 13.9753 1484 56.0249 1348.11 526.602
1304 0 109.168 13.4288 1466 56.0784 1347.87 524.355
1305 1 59.2402 9.84129 583 57.06 1348.73 549.376
1306 0 57.1105 10.1032 577 57.5563 1348.47 548.166
1307 0 62.0238 11.0925 688 56.7863 1348.09 546.785
1308 0 63.1003 11.0935 700 56.8114 1348.78 545.969
1309 0 65.0564 11.8205 769 56.5436 1347.58 544.229
1310 0 66.1546 12.8033 847 55.7603 1347.14 545.865
1311 0 68.1869 12.7297 868 56.4401 1347.49 545.262
1312 0 71.2104 13.6216 970 55.4412 1347.01 543.173
1313 0 72.1851 12.745 920 57.125 1346.93 542.277
1314 0 72.1444 12.6136 910 57.6506 1346.3 541.41
1315 0 75.1198 12.9393 972 56.4722 1346.17 540.162
1316 0 79.2 13.6111 1078 55.4852 1346.55 540.273
1317 0 81.1426 12.5458 1018 57.3301 1346.47 539.123
1318 0 85.1973 12.5004 1065 56.8385 1346.33 539.27
1319 0 85.2434 13.7371 1171 56.2511 1346.24 535.915
1320 0 88.3066 13.204 1166 56.8379 1345.22 536.065
1321 0 89.2479 13.793 1231 57.0049 1345.07 534.128
1322 0 92.2259 13.4561 1241 56.8493 1345.01 533.565
1323 0 96.2741 12.7345 1226 57.9454 1345.29 530.681
1324 0 100.265 14.0229 1406 55.591 1345.18 530.959
1325 0 102.334 13.1041 1341 56.6152 1345.28 530.421
1326 0 106.208 13.6053 1445 55.9585 1345.14 528.353
1327 0 108.247 12.8317 1389 57.4096 1344.83 526.58
1328 1 57.1063 10.8569 620 57.5258 1344.72 552.46
1329 0 57.0634 10.9878 627 57.874 1344.61 551.434
1330 0 61.1458 12.4784 763 56.5623 1344.83 550.056
1331 0 64.079 12.3598 792 55.851 1344.4 548.543
1332 0 63.0758 12.5563 792 55.9369 1344.53 547.813
1333 0 65.0403 12.9766 844 55.3649 1343.88 546.374
1334 0 66.1275 13.3379 882 56.6451 1344.16 547.567
1335 0 68.1625 12.7196 867 57.5213 1344.07 545.005
1336 0 70.064 12.5885 882 56.72 1343.89 544.5
1337 0 71.1007 12.9535 921 56.5299 1344.16 543.985
1338 0 74.1111 13.3988 993 55.716 1344.02 542.054
1339 0 75.0912 13.0508 980 56.2 1343.8 541.94
1340 0 80.0621 13.0898 1048 54.8158 1344.05 541.926
1341 0 80.0834 13.2612 1062 55.0782 1344.52 538.618
1342 0 84.0881 13.1053 1102 54.451 1343.81 538.911
1343 0 86.0686 12.3158 1060 54.7047 1343.79 539.471
1344 0 87.1164 12.3972 1080 55.1037 1343.43 535.826
1345 0 92.1652 13.8121 1273 53.3724 1343.62 533.747
1346 0 95.1037 13.5221 1286 53.4557 1343.44 535.197
1347 0 96.1016 13.3817 1286 54.2006 1342.9 535.083
1348 0 98.1766 13.5572 1331 54.296 1342.89 532.144
1349 0 103.165 12.9211 1333 55.2446 1342.81 529.463
1350 0 105.145 12.8774 1354 55.6418 1342.51 529.681
1351 1 54.0453 11.7124 633 55.9526 1341.97 552.711
1352 0 58.07 12.5022 726 54.9931 1342.33 553.427
1353 0 57.1591 11.5642 661 57.3389 1342.19 552.89
1354 0 60.033 12.7263 764 56.034 1341.35 552.969
1355 0 61.1156 13.09 800 56.4362 1341.69 551.442
1356 0 62.0961 12.7222 790 56.9835 1341.91 551.491
1357 0 63.0819 12.8246 809 57.5871 1341.35 549.705
1358 0 66.1077 13.2511 876 57.5776 1341.46 548.79
1359 0 70.0595 13.2316 927 56.9137 1341.79 548.034
1360 0 69.1721 13.0689 904 58.5918 1341.43 547.132
1361 0 72.074 13.1254 946 58.6839 1341.51 546.229
1362 0 73.1374 12.7431 932 60.0204 1341.31 545.93
1363 0 78.1582 13.4215 1049 59.0248 1341.4 544.134
1364 0 78.06 13.2462 1034 60.617 1341.09 543.298
1365 0 82.0349 13.7381 1127 59.9858 1341.15 541.97
1366 0 84.0976 13.0681 1099 61.3467 1340.73 540.127
1367 0 85.09 12.6337 1075 62.0474 1340.57 539.28
1368 0 89.3491 13.867 1239 60.2107 1340.8 536.725
1369 1 45.1318 10.9679 495 62.2909 1340.68 559.63
1370 0 47.0415 10.8415 510 61.8706 1340.48 559.869
1371 0 47.0941 11.5726 545 62.2018 1340.6 557.826
1372 0 50.0726 12.0425 603 61.4212 1340.61 556.421
1373 0 49.0601 12.2503 601 62.396 1340.92 556.512
1374 0 53.0764 12.6798 673 60.8217 1341.3 556.192
1375 0 55.0414 12.1545 669 61.9088 1341.04 556.203
1376 0 55.0675 12.403 683 62.4202 1341.24 553.977
1377 0 57.0678 12.8969 736 61.8614 1340.97 552.425
1378 0 59.0352 13.1108 774 61.5568 1341.4 552.992
1379 0 61.1184 12.713 777 62.3874 1341.2 551.39
1380 0 61.0952 12.767 780 62.5244 1340.92 551.756
1381 0 64.0408 13.2728 850 61.9812 1340.86 550.467
1382 0 66.1199 13.4604 890 59.0697 1341.16 550.692
1383 0 68.0621 13.4142 913 59.4775 1341.63 548.961
1384 0 70.0944 13.6958 960 62.3062 1341.53 546.007
1385 0 73.0893 14.2565 1042 60.9012 1341.94 546.926
1386 0 74.1119 13.6955 1015 62.8621 1342 545.402
1387 0 76.1921 13.6235 1038 63.0376 1342.05 545.116
1388 0 79.0569 14.3314 1133 62.2877 1342.22 542.193
1389 0 81.0473 14.2263 1153 62.7892 1342.62 541.747
1390 0 84.0966 13.8055 1161 63.9311 1342.57 539.362
1391 0 87.0693 13.6902 1192 64.052 1342.64 539.869
1392 0 90.125 13.9695 1259 63.757 1342.76 538.037
1393 0 91.065 14.4402 1315 63.3825 1342.7 536.632
1394 0 94.0943 13.9222 1310 64.2992 1342.44 533.909
1395 1 51.0592 10.811 552 63.7409 1342.88 557.101
1396 0 53.0785 11.0214 585 62.5795 1343.26 556.756
1397 0 52.079 11.3865 593 63.0287 1343.19 556.029
1398 0 54.0406 12.3611 668 62.0075 1343.5 554.605
1399 0 55.0229 11.268 620 64.4161 1343.65 554.081
1400 0 58.0246 12.0121 697 62.8106 1344.04 553.445
1401 0 60.0605 12.0212 722 62.8075 1344.08 551.163
1402 0 64.1857 12.1678 781 61.8284 1344.27 551.309
1403 0 65.0551 12.4664 811 61.418 1344.51 550.416
1404 0 65.1677 12.6597 825 61.6824 1344.59 549.055
1405 0 66.0736 12.3499 816 62.8897 1345.2 547.721
1406 0 69.1083 12.4876 863 62.2352 1345.29 546.514
1407 0 72.0799 12.9856 936 61.1389 1345.4 544.653
1408 0 72.0908 12.8172 924 62.1093 1345.39 543.591
1409 0 76.0868 11.96 910 62.8451 1345.29 542.082
1410 0 80.1024 13.4827 1080 60.5676 1345.7 540.877
1411 0 81.0988 12.3553 1002 62.0469 1345.93 539.116
1412 0 84.2036 13.1586 1108 61.185 1346.07 538.588
1413 0 88.1549 12.6255 1113 61.5867 1346.43 536.618
1414 1 52.038 10.8767 566 60.5707 1346.37 555.353
1415 0 54.0722 11.5956 627 60.1914 1346.73 553.057
1416 0 54.0322 11.197 605 60.5984 1346.4 554.584
1417 0 57.0681 11.5476 659 60.9029 1346.14 551.842
1418 0 57.039 12.7106 725 59.9848 1346.82 550.734
1419 0 59.0688 11.749 694 61.0648 1347.23 550.806
1420 0 60.1063 12.3781 744 60.8978 1346.88 549.497
1421 0 63.1734 12.4578 787 60.5972 1347.14 547.982
1422 0 64.1639 11.6888 750 61.7227 1347.07 546.525
1423 0 66.1131 12.4786 825 60.183 1346.66 545.736
1424 0 70.1432 12.7311 893 59.4983 1346.03 543.438
1425 0 70.2455 12.0577 847 60.4061 1346.37 542.116
1426 0 73.1324 12.2381 895 60.0916 1346.4 540.917
1427 0 78.0933 13.3046 1039 58.3946 1346.48 540.09
1428 0 78.1796 12.7015 993 58.9809 1346.85 537.662
1429 0 82.195 13.541 1113 57.655 1346.47 537.2
1430 0 84.2223 12.9538 1091 57.7415 1346.84 535.08
1431 0 87.1198 12.5919 1097 58.1768 1346.72 533.38
1432 0 90.2074 11.8505 1069 58.6819 1346.85 533.593
1433 1 48.0756 10.2547 493 58.3753 1346.99 554.921
1434 0 49.0307 10.6668 523 57.74 1346.6 555.623
1435 0 51.0366 10.9137 557 57.7361 1347.16 553.133
1436 0 53.1114 11.523 612 56.6062 1346.41 554.23
1437 0 52.0741 10.9459 570 59.2544 1345.57 552.277
1438 0 54.1434 12.4115 672 57.4241 1345.89 552.525
1439 0 56.0485 11.9718 671 58.4382 1345.64 550.806
1440 0 60.0695 12.1692 731 56.3379 1345.96 550.908
1441 0 57.0395 12.0969 690 57.3609 1345.68 549.63
1442 0 62.0697 12.776 793 55.5952 1345.93 549.18
1443 0 60.0798 11.285 678 57.7684 1346.04 546.562
1444 0 65.1543 12.0944 788 56.2398 1345.74 547.155
1445 0 65.1787 12.6422 824 56.1735 1345.33 545.992
1446 0 67.2021 12.4103 834 56.5779 1345.3 545.614
1447 0 68.1203 11.9348 813 57.1316 1344.89 545.731
1448 0 71.1033 12.1654 865 56.3318 1344.89 542.39
1449 0 73.1967 11.4759 840 56.1214 1344.55 541.074
1450 0 74.1337 11.83 877 56.049 1344.35 538.71
1451 0 79.2911 11.7289 930 56.6161 1344.41 539.714
1452 1 44.0373 9.53737 420 57.4429 1344.92 556.524
1453 0 45.0472 9.98953 450 56.7556 1344.73 557.007
1454 0 47.0124 10.8057 508 55.8957 1344.72 556.703
1455 0 50.0989 11.138 558 55.6237 1344.85 554.769
1456 0 49.0325 10.7684 528 56.3807 1344.01 554.932
1457 0 50.1354 12.4463 624 54.8462 1343.56 556.337
1458 0 52.0535 12.9098 672 54.5729 1344.29 554.118
1459 0 53.2022 11.992 638 56.0705 1343.73 553.616
1460 0 57.1259 12.5512 717 54.8675 1343.96 553.863
1461 0 57.1013 10.9805 627 56.9442 1343.51 553.072
1462 0 60.0954 13.4786 810 53.3494 1343.41 552.343
1463 0 60.2262 12.2538 738 55.5298 1343.41 551.446
1464 0 62.1728 12.4974 777 55.1416 1343.05 549.052
1465 0 64.1851 12.2147 784 55.0408 1343.28 550.404
1466 0 68.1458 12.7814 871 54.1251 1343.42 549.013
1467 0 69.2189 12.5544 869 54.3613 1343.84 548.349
1468 0 72.1517 13.5548 978 53.5256 1343.66 547.024
1469 0 74.2424 12.8633 955 53.9456 1343.72 545.494
1470 0 76.1391 12.4903 951 54.5174 1343.64 545.52
1471 0 79.1721 12.9717 1027 53.8316 1343.17 541.794
1472 0 82.2378 13.0111 1070 54.0766 1342.91 542.137
1473 1 45.0608 11.2071 505 54.501 1342.09 561.119
1474 0 45.1699 10.0509 454 55.8612 1342.3 560
1475 0 46.1922 10.7161 495 55.1374 1342.1 560.61
1476 0 48.1097 12.326 593 53.5076 1342.21 559.039
1477 0 49.0417 12.6831 622 53.3907 1342.44 558.275
1478 0 51.0565 12.2217 624 54.2644 1341.71 557.454
1479 0 51.0565 12.2609 626 165.978 1340.71 557.447
1480 0 53.054 13.081 694 53.8127 1342.2 556.781
1481 0 55.0491 12.8794 709 54.1777 1341.37 556.743
1482 0 55.0756 12.2559 675 55.803 1341.35 555.581
1483 0 61.0543 12.6609 773 54.925 1341.59 553.933
1484 0 60.0627 12.77 767 55.6036 1341.65 553.012
1485 0 62.0867 11.7094 727 57.1568 1340.9 552.166
1486 0 64.0828 12.7491 817 55.7834 1340.72 550.979
1487 0 67.0535 13.2133 886 55.2065 1341.1 551.262
1488 0 67.0176 13.489 904 55.4723 1341.04 548.2
1489 0 68.1211 13.3586 910 55.3692 1340.8 549.109
1490 0 70.0339 13.3078 932 55.2736 1340.61 547.822
1491 0 73.1388 13.1394 961 55.3424 1341.18 546.164
1492 0 77.0791 13.6743 1054 54.4307 1341.35 545.629
1493 0 79.1092 13.5635 1073 54.795 1341.93 544.605
1494 0 79.127 12.5115 990 56.202 1341.78 542.087
1495 0 84.1279 14.0382 1181 54.0093 1341.94 539.974
1496 0 82.1683 12.9369 1063 56.9069 1342.15 538.993
1497 0 87.1411 13.2085 1151 55.9383 1341.87 537.119
1498 0 89.1984 13.0944 1168 55.8647 1341.55 538.398
1499 0 93.1726 14.2209 1325 55.5313 1341.45 536.431
1500 0 95.3703 13.1592 1255 57.4167 1341.77 534.686
1501 1 52.1753 11.7872 615 57.761 1341.8 555.431
1502 0 52.1565 11.1395 581 57.9897 1342.04 556.083
1503 0 53.1952 12.3695 658 57.3632 1341.83 551.65
1504 0 55.0349 12.3558 680 58.95 1342.4 553.576
1505 0 58.1892 12.889 750 57.9213 1342.11 551.392
1506 0 60.1451 12.8689 774 57.6357 1342.49 550.849
1507 0 62.1577 13.1118 815 57.5681 1342.84 550.195
1508 0 61.0367 13.3199 813 57.9865 1343.13 550.175
1509 0 62.1169 12.8628 799 58.9574 1343.44 549.19
1510 0 64.1755 12.6372 811 58.5968 1343.49 548.348
1511 0 67.14 13.0176 874 58.1979 1344.03 547.448
1512 0 68.0832 13.5276 921 57.6352 1343.96 546.215
1513 0 71.1006 12.9676 922 58.3536 1343.87 547.003
1514 0 73.2403 13.7766 1009 57.3062 1343.7 544.594
1515 0 76.1713 14.021 1068 56.8802 1343.94 543.804
1516 0 79.2229 13.2033 1046 58.1424 1343.74 541.72
1517 0 81.1479 13.3214 1081 57.3006 1344.37 542.247
1518 0 82.1569 13.8029 1134 56.709 1343.71 542.134
1519 0 86.1934 14.1658 1221 56.1122 1344.09 536.629
1520 0 87.2491 13.6964 1195 56.5833 1344.77 537.243
1521 0 91.1335 14.0673 1282 56.0179 1344.93 533.957
1522 1 49.1072 10.6298 522 57.0575 1345.11 555.32
1523 0 50.021 10.6755 534 56.5131 1345.12 556.214
1524 0 49.0614 10.3136 506 56.836 1345.81 554.255
1525 0 51.1103 11.5632 591 54.7293 1345.96 552.388
1526 0 53.2185 11.7252 624 54.5817 1346.1 552.482
1527 0 55.1029 12.3405 680 53.5265 1346.15 554.281
1528 0 56.062 12.1294 680 53.8338 1346.56 550.775
1529 0 56.0621 11.8262 663 54.8567 1346.65 550.204
1530 0 60.1001 12.4293 747 53.324 1346.52 548.404
1531 0 61.0494 12.711 776 53.0258 1346.77 548.477
1532 0 63.0512 13.148 829 149.473 1346.85 547.591
1533 0 66.0349 12.5691 830 53.1759 1345.89 547.328
1534 0 68.0645 12.8848 877 53.0718 1346.73 544.186
1535 0 72.0746 13.5276 975 52.3395 1346.72 543.692
1536 0 72.0275 13.4532 969 53.1104 1346.77 542.079
1537 0 74.0344 12.3996 918 54.1558 1346.88 541.351
1538 0 76.1242 12.3614 941 54.2667 1346.58 540.612
1539 0 79.0917 11.9482 945 54.4868 1346.55 540.223
1540 0 82.2223 12.6973 1044 53.7337 1346.85 537.965
1541 0 84.1854 12.7813 1076 53.8448 1347.03 534.181
1542 1 46.1332 10.1229 467 51.8522 1346.96 557.585
1543 0 43.0445 10.2452 441 52.6032 1347.02 557.218
1544 0 46.0825 11.2407 518 51.3977 1347.07 555.89
1545 0 47.0531 10.52 495 52.3697 1347.56 554.511
1546 0 48.1013 11.2887 543 51.4125 1346.66 554.838
1547 0 50.0506 11.2886 565 51.6389 1346.92 552.605
1548 0 52.1212 11.4157 595 51.5866 1346.48 551.899
1549 0 54.0551 12.1358 656 50.7409 1346.58 553.614
1550 0 53.1421 10.6507 566 53.4841 1346.23 553.299
1551 0 56.1062 11.8525 665 52.2 1346.08 552.15
1552 0 60.1265 13.2388 796 50.9045 1346.17 550.127
1553 0 60.0303 12.2272 734 52.4332 1345.32 550.425
1554 0 62.1213 11.6546 724 52.6022 1344.82 549.751
1555 0 62.1251 13.3923 832 51.393 1345.17 549.609
1556 0 64.0991 12.4027 795 52.6377 1344.83 549.621
1557 0 65.0909 12.8129 834 52.2038 1344.85 548.222
1558 0 67.0484 12.4835 837 52.9486 1344.69 546.559
1559 0 71.0251 12.3618 878 53.2039 1344.97 545.272
1560 0 71.0613 12.4259 883 53.658 1344.46 545.102
1561 0 71.0613 12.44 884 156.275 1343.46 545.063
1562 0 77.0581 12.8215 988 53.4585 1344.26 540.746
1563 1 39.0624 10.5216 411 52.8224 1344.4 563.041
1564 0 38.0132 9.47039 360 54.7639 1344.49 560.911
1565 0 41.0708 10.4454 429 54.0326 1343.93 559.261
1566 0 43.0461 11.1044 478 52.8682 1343.83 559.416
1567 0 44.0866 11.2052 494 53.5749 1344.04 558.715
1568 0 45.0333 12.4352 560 53.1411 1344.96 557.479
1569 0 45.0094 11.5753 521 54.6334 1344.93 556.405
1570 0 47.0918 12.1253 571 54.1699 1344.66 555.949
1571 0 50.093 12.2971 616 52.8279 1344.24 554.958
1572 0 51.038 12.8532 656 52.7424 1344.11 555.872
1573 0 52.0514 12.6221 657 52.8813 1344.05 554.693
1574 0 51.0508 12.6149 644 154.778 1344.05 555.028
1575 0 57.0453 12.7267 726 52.7961 1343.9 554.63
1576 0 55.0845 12.0179 662 54.1571 1344.2 555.284
1577 0 58.0935 13.4438 781 53.2663 1343.67 551.805
1578 0 59.1386 13.1217 776 53.6121 1343.64 550.875
1579 0 62.0639 12.9383 803 53.9029 1343.13 550.721
1580 0 65.0277 13.625 886 53.4187 1342.83 550.102
1581 0 65.1392 13.2946 866 54.5635 1342.95 549.404
1582 0 68.1053 12.8331 874 55.4016 1342.74 548.54
1583 0 69.04 13.0504 901 55.788 1343.27 546.576
1584 0 73.0571 13.1678 962 55.0281 1343.08 545.65
1585 1 38.0438 10.9085 415 54.8169 1343.04 564.781
1586 0 40.0573 11.5834 464 54.2004 1342.49 565.256
1587 0 42.0694 11.6949 492 55.4797 1342.1 561.947
1588 0 41.0278 11.7725 483 55.5632 1341.61 562.358
1589 0 44.0612 12.3465 544 54.6599 1342.25 562.024
1590 0 44.0293 12.9686 571 54.8424 1341.87 561.527
1591 0 44.0415 12.4201 547 56.5814 1341.19 559.523
1592 0 45.0621 12.3163 555 57.0667 1341.6 559.587
1593 0 47.0582 12.1764 573 56.6544 1341.97 559.771
1594 0 49.0256 12.5445 615 55.6276 1341.89 558.039
1595 0 50.1336 12.2672 615 56.5203 1342.25 556.837
1596 0 49.1038 11.9746 588 57.3929 1342.32 556.403
1597 0 51.0854 12.4693 637 56.6845 1342.47 556.053
1598 0 53.1144 12.9908 690 55.7391 1342.06 555.942
1599 0 55.0416 13.6079 749 54.8745 1342.22 554.455
1600 0 56.075 13.7316 770 54.8234 1342.24 554.125
1601 0 58.0883 13.7894 801 54.5593 1342.54 554.303
1602 0 60.05 13.9384 837 54.0932 1342.38 552.453
1603 0 61.1091 13.1568 804 55.148 1342.52 551.44
1604 0 63.0656 13.3988 845 54.8675 1342.63 550.32
1605 0 65.0275 13.0714 850 54.78 1343.15 550.493
1606 0 67.0639 12.7938 858 54.9615 1343.35 547.596
1607 0 72.0658 12.7106 916 53.893 1343.68 546.676
1608 0 75.0843 13.4782 1012 52.5998 1344.02 546.141
1609 1 40.0825 10.8277 434 52.9585 1344.32 562.94
1610 0 40.0136 11.1462 446 52.7354 1344.45 561.202
1611 0 42.0712 11.6707 491 50.7576 1344.75 560.33
1612 0 43.0939 12.2291 527 51.7856 1344.8 558.541
1613 0 45.0655 11.45 516 52.0271 1344.35 560.033
1614 0 46.0501 12.0304 554 52.2744 1344.84 557.052
1615 0 46.0899 12.0417 555 52.6468 1344.71 557.13
1616 0 49.056 12.2513 601 51.6722 1345.08 558.651
1617 0 50.0456 12.1489 608 52.5312 1345.15 556.184
1618 0 51.0795 13.2734 678 51.3289 1345.99 555.06
1619 0 52.0701 12.8673 670 52.2313 1345.79 555.451
1620 0 54.1647 13.3482 723 51.87 1346.08 552.783
1621 0 56.0563 12.3982 695 52.7986 1346.68 552.135
1622 0 57.0656 12.0213 686 53.4636 1347.25 550.688
1623 0 61.1241 12.9572 792 51.6793 1346.73 549.662
1624 0 61.048 11.8431 723 53.2905 1347.08 548.06
1625 0 63.0531 13.0208 821 52.4519 1347.95 547.525
1626 0 64.1248 12.3977 795 53.1434 1347.75 545.109
1627 0 66.0642 12.8814 851 52.4148 1347.73 545.336
1628 0 68.0596 12.6066 858 52.8322 1348.56 543.81
1629 0 70.1198 12.7496 894 52.7472 1349.06 542.585
1630 0 73.212 12.6072 923 53.52 1348.99 539.937
1631 0 74.2634 12.7115 944 53.3962 1348.83 538.362
1632 1 40.0488 9.86298 395 55.2101 1349.46 555.213
1633 0 43.0498 11.1963 482 52.8734 1348.84 554.315
1634 0 44.0349 10.7188 472 52.8792 1348.7 554.17
1635 0 45.1266 12.5868 568 50.6373 1348.24 551.771
1636 0 48.0827 11.1267 535 53.7776 1348.38 553.985
1637 0 49.0498 12.2528 601 52.8719 1349.11 551.87
1638 0 50.0517 11.568 579 53.7945 1349.4 552.414
1639 0 51.0823 12.1373 620 53.2968 1349.5 548.947
1640 0 54.1208 12.3058 666 52.967 1349.44 550.198
1641 0 55.0594 13.2039 727 52.4154 1349.43 548.208
1642 0 57.0371 12.9916 741 51.8961 1348.96 548.864
1643 0 58.1003 12.9948 755 52.7338 1349.04 547.837
1644 0 59.2222 12.8161 759 53.0685 1348.96 545.748
1645 0 59.1233 12.4993 739 54.1624 1348.75 545.225
1646 0 63.1025 12.345 779 54.068 1348.21 544.465
1647 0 64.2039 11.0897 712 55.9508 1348.7 543.374
1648 0 66.2462 11.8799 787 55.4638 1348.99 544.878
1649 0 67.076 12.1355 814 55.8391 1348.03 542.849
1650 0 71.0957 12.8981 917 55.1505 1347.72 542.003
1651 1 39.015 10.2012 398 55.696 1347.59 559.837
1652 0 37.032 9.85633 365 57.8 1347.44 557.564
1653 0 40.0159 11.4454 458 56.3275 1347.17 557.878
1654 0 41.0165 10.4836 430 57.2209 1347.03 556.102
1655 0 42.0302 10.8731 457 56.4967 1346.62 556.042
1656 0 45.0385 12.0564 543 54.8214 1346.43 554.366
1657 0 46.0764 12.5878 580 54.4017 1347.55 553.35
1658 0 48.064 12.3585 594 54.7744 1347.2 553.577
1659 0 48.0429 12.1974 586 55.4915 1346.84 552.203
1660 0 50.0512 11.9877 600 56.1583 1346.74 552.032
1661 0 52.0716 12.1563 633 55.6003 1346.26 552.404
1662 0 54.0287 12.0121 649 56.0062 1346.22 552.485
1663 0 55.1025 12.7762 704 55.8892 1345.9 551.395
1664 0 57.0505 12.5327 715 55.7706 1345.94 551.471
1665 0 59.0214 13.0969 773 55.3351 1346.06 551.317
1666 0 61.0575 13.0696 798 55.3722 1345.7 548.996
1667 0 62.0651 12.648 785 55.0242 1345.79 547.516
1668 0 67.0738 12.9261 867 54.1684 1345.95 547.495
1669 0 67.1925 12.5758 845 54.6521 1345.89 546.495
1670 0 69.1277 13.6559 944 53.3718 1345.69 546.064
1671 0 71.172 12.5471 893 54.4289 1345.22 542.845
1672 0 73.1019 13.8847 1015 52.7054 1345.07 544.287
1673 0 76.0986 13.4037 1020 53.3412 1344.63 542.287
1674 0 77.1133 12.3714 954 54.6237 1344.64 540.464
1675 0 80.0957 12.5849 1008 54.3016 1344.02 539.316
1676 0 84.0987 13.282 1117 53.0224 1344.12 537.127
1677 0 87.2524 12.8134 1118 53.4732 1344.78 536.582
1678 0 91.207 13.0363 1189 53.0336 1344.64 535.783
1679 0 92.2066 12.3527 1139 53.8393 1343.77 534.094
1680 1 48.0703 10.8591 522 54.7624 1343.4 556.266
1681 0 53.105 11.5808 615 53.839 1343.24 555.662
1682 0 54.0355 11.8071 638 53.3448 1343.77 555.092
1683 0 54.036 12.3436 667 53.8546 1343.15 553.682
1684 0 56.0279 11.3158 634 53.5631 1344.06 552.27
1685 0 59.0447 13.024 769 51.2952 1342.99 552.408
1686 0 60.0971 12.1304 729 52.3155 1342.77 550.54
1687 0 60.0276 12.1111 727 52.5873 1342.63 550.861
1688 0 63.0571 13.0517 823 51.452 1342.87 548.44
1689 0 64.0282 12.3383 790 52.2899 1342.46 548.068
1690 0 67.1453 12.5995 846 52.1655 1342.31 545.779
1691 0 70.0295 12.6661 887 52.097 1342.41 546.038
1692 0 71.0385 13.4293 954 51.5922 1342.77 546.652
1693 0 72.0375 11.8411 853 54.0715 1342.44 543.484
1694 0 76.08 13.1835 1003 52.329 1342.61 543.844
1695 0 78.1169 12.2125 954 53.4549 1342.54 542.824
1696 0 82.1462 12.356 1015 52.9665 1342.25 542.736
1697 1 40.0206 9.91989 397 54.0076 1342.52 561.073
1698 0 42.0431 12.2255 514 51.5739 1342.69 561.272
1699 0 43.0254 10.7378 462 52.987 1342.24 561.05
1700 0 45.0537 11.3864 513 52.6316 1342.17 559.259
1701 0 46.0547 13.0497 601 51.8935 1342.01 559.215
1702 0 47.0865 12.1478 572 53.208 1340.95 559.378
1703 0 47.1634 11.7464 554 53.7256 1340.49 558.525
1704 0 51.0833 12 613 53.354 1340.41 556.855
1705 0 53.2368 12.1157 645 53.3411 1341.08 557.186
1706 0 54.1048 12.6976 687 52.5167 1341.16 557.087
1707 0 56.1041 12.9046 724 51.9461 1341.21 554.833
1708 0 57.0565 12.8644 734 52.1471 1341.4 553.388
1709 0 59.1429 11.6159 687 52.7293 1341.53 554.627
1710 0 61.1162 12.8608 786 51.8779 1341.27 553.2
1711 0 61.1002 13.1751 805 51.4783 1341.51 552.646
1712 0 62.0627 13.0674 811 51.799 1341.58 551.661
1713 0 65.1401 11.79 768 51.9245 1341.55 551.006
1714 0 68.163 12.162 829 51.8408 1341.62 547.72
1715 0 71.1607 13.2938 946 50.1025 1341.77 548.419
1716 0 72.2477 12.9554 936 51.2094 1341.8 546.311
1717 0 74.1984 11.7792 874 52.4153 1342.03 543.946
1718 0 78.3002 13.3844 1048 49.959 1342.13 542.986
1719 0 78.191 12.0858 945 51.7619 1342.14 541.562
1720 1 42.0565 9.58235 403 52.2134 1342.32 561.258
1721 0 45.088 10.6015 478 51.5105 1342.53 561.038
1722 0 46.0495 9.98925 460 51.1152 1342.1 561.02
1723 0 45.029 11.9479 538 50.3327 1342.33 559.827
1724 0 49.0261 11.0553 542 50.8579 1342.54 558.554
1725 0 52.0435 11.8555 617 50.3063 1343 557.11
1726 0 51.11 11.2894 577 51.4298 1342.6 557.974
1727 0 52.039 11.6643 607 51.6705 1342.73 556.333
1728 0 54.0673 12.0036 649 51.1495 1343.37 555.673
1729 0 57.0941 11.8051 674 50.6558 1343.58 554.037
1730 0 59.044 12.3637 730 49.6247 1343.9 552.608
1731 0 60.0359 13.3753 803 48.5342 1343.62 552.29
1732 0 61.0927 12.1619 743 49.5518 1343.87 549.798
1733 0 63.0288 13.0099 820 48.6866 1344.13 548.445
1734 0 64.1074 13.0874 839 48.7712 1344.64 547.864
1735 0 67.0947 13.2797 891 49.1223 1345.24 548.423
1736 0 71.165 13.1666 937 49.7716 1345.37 547.688
1737 0 72.0992 13.0237 939 51.2194 1345.27 544.937
1738 0 74.1316 12.5992 934 52.0439 1345.68 543.883
1739 0 77.0843 12.895 994 51.501 1346 541.848
1740 1 37.0448 9.96092 369 52.6884 1345.63 561.463
1741 0 41.0173 11.0197 452 50.5597 1346.12 561.102
1742 0 42.1164 11.0883 467 51.6617 1346.31 559.953
1743 0 44.0159 10.7688 474 51.8207 1346.33 557.751
1744 0 44.1582 11.255 497 51.2274 1346.47 555.992
1745 0 46.059 11.8326 545 50.956 1346.82 555.701
1746 0 48.0645 12.4624 599 49.9482 1347.15 553.512
1747 0 48.1215 12.323 593 50.2175 1347.72 554.607
1748 0 49.0917 11.9368 586 50.7816 1348.16 552.654
1749 0 51.1659 12.0588 617 50.0389 1348.53 554.447
1750 0 50.0788 12.0011 601 50.9201 1348.1 551.809
1751 0 52.0412 12.2787 639 51.2926 1348.76 549.362
1752 0 56.0469 12.0257 674 50.8843 1349.45 547.99
1753 0 58.0611 12.9691 753 50.0266 1348.68 548.137
1754 0 57.2708 13.4624 771 50.0778 1348.31 548.559
1755 0 57.2708 13.5322 775 159.439 1347.31 548.61
1756 0 61.0722 12.7554 779 50.8344 1348.76 546.979
1757 0 63.0383 13.1349 828 50.4034 1348.23 546.033
1758 0 66.0735 13.6061 899 49.7197 1348.07 545.08
1759 0 65.0496 12.8671 837 51.4707 1348.92 542.908
1760 0 69.1492 13.5793 939 50.771 1348.6 540.584
1761 0 71.2546 13.8938 990 50.4848 1349.18 540.777
1762 0 73.187 12.6389 925 51.7319 1349.1 539.425
1763 0 75.15 14.3047 1075 50.0279 1348.97 538.262
1764 0 78.1062 13.6737 1068 50.5084 1348.48 536.622
1765 0 80.2391 14.569 1169 50.124 1348.46 535.802
1766 1 42.0184 11.376 478 51.2197 1347.75 554.755
1767 0 41.0838 10.3204 424 52.4976 1347.6 553.734
1768 0 43.0629 11.7735 507 51.0256 1347.43 554.424
1769 0 44.3769 13.16 584 51.5531 1347.65 553.257
1770 0 46.1086 12.9477 597 52.1524 1347.04 554.327
1771 0 47.0928 13.208 622 52.2251 1347.47 554.609
1772 0 48.0835 14.35 690 52.1043 1347.15 553.394
1773 0 49.1417 13.166 647 53.5672 1347.47 553.927
1774 0 51.1375 13.5712 694 53.6009 1347.61 552.461
1775 0 52.0709 13.616 709 53.3639 1347.33 552.135
1776 0 52.0365 12.9909 676 53.7914 1347.27 550.982
1777 0 55.0773 12.7457 702 53.3362 1346.83 551.698
1778 0 55.0407 12.5362 690 54.8681 1346.62 550.325
1779 0 57.1474 13.1765 753 54.1434 1346.84 549.859
1780 0 60.1115 13.4583 809 53.6996 1346.69 548.409
1781 0 62.3499 13.9214 868 52.053 1346.44 549.06
1782 0 65.2174 13.5547 884 52.4536 1345.97 547.798
1783 0 68.1617 14.2015 968 51.5506 1345.93 547.185
1784 0 69.1611 14.4735 1001 51.2398 1345.52 545.444
1785 0 72.3242 14.1032 1020 51.6804 1345.22 545.08
1786 1 35.102 12.3925 435 53.6575 1345.18 559.138
1787 0 36.1599 12.4447 450 53.4578 1344.71 559.44
1788 0 39.0851 12.6903 496 52.5363 1344.53 557.897
1789 0 42.0729 12.0505 507 52.426 1343.91 558.629
1790 0 43.034 13.0827 563 52.1989 1344.28 557.25
1791 0 45.084 12.2882 554 52.8123 1344.41 556.641
1792 0 45.1246 13.2079 596 52.1158 1344.17 555.616
1793 0 47.0296 12.9918 611 52.3846 1344.15 556.193
1794 0 50.0811 13.578 680 51.1265 1344.01 555.843
1795 0 49.0246 14.0134 687 51.3624 1344.2 554.393
1796 0 52.103 13.1279 684 51.5789 1344.11 554.316
1797 0 54.0515 12.5991 681 52.2173 1343.67 553.276
1798 0 55.0828 14.6507 807 49.9876 1343.59 552.353
1799 0 55.1216 13.7333 757 51.3527 1343.81 552.642
1800 0 58.1094 12.8034 744 52.1653 1343.83 550.874
1801 0 58.0218 13.7018 795 51.3648 1343.29 550.835
1802 0 62.065 14.1787 880 50.8693 1343.62 548.788
1803 0 65.0925 14.4103 938 50.2772 1343.72 550.268
1804 0 66.0733 14.1358 934 51.0321 1344.07 547.692
1805 0 67.0691 13.9259 934 51.5835 1344.11 547.13
1806 0 69.1022 14.5292 1004 51.3994 1343.85 546.159
1807 0 72.2053 15.8576 1145 49.3109 1344.02 547.209
1808 0 74.062 13.8397 1025 52.0332 1343.64 542.969
1809 0 78.3951 14.4142 1130 51.0062 1344.1 543.253
1810 0 80.114 13.8802 1112 51.8822 1343.92 541.335
1811 0 82.0808 14.0837 1156 52.1151 1343.96 539.304
1812 1 41.0477 12.5707 516 52.1492 1343.48 560.554
1813 0 42.0712 11.1002 467 53.3533 1342.95 560.713
1814 0 44.0348 12.581 554 52.3141 1343.31 558.401
1815 0 46.0956 13.8408 638 50.7179 1343.23 559.19
1816 0 47.0728 13.5747 639 51.5086 1343.12 558.53
1817 0 49.1401 13.7159 674 51.1172 1342.9 557.408
1818 0 51.0937 14.0526 718 50.5905 1343.44 555.508
1819 0 53.0317 14.0671 746 50.7735 1343.41 555.713
1820 0 56.0465 14.2917 801 50.3109 1343.61 554.031
1821 0 56.1402 12.8607 722 51.7465 1343.51 552.539
1822 0 56.1616 13.3543 750 52.1413 1343.26 551.593
1823 0 61.1041 14.4017 880 50.4523 1342.94 550.442
1824 0 63.0742 14.2214 897 50.3646 1343.51 549.55
1825 0 63.114 13.436 848 52.0425 1343.58 547.5
1826 0 67.1 14.6945 986 50.497 1343.48 545.637
1827 0 71.1532 13.6607 972 51.2706 1343.43 545.148
1828 0 73.1837 14.5797 1067 50.4152 1344.26 544.567
1829 0 74.0537 14.3679 1064 51.1278 1344.45 543.16
1830 0 78.0469 15.0038 1171 50.0205 1345.08 541.743
1831 0 82.179 14.9917 1232 50.0666 1345.56 540.079
1832 0 84.2664 13.7065 1155 51.3264 1345.25 538.371
1833 0 86.0907 14.2059 1223 50.9616 1345.5 535.563
1834 1 42.0512 11.2244 472 52.4301 1345.64 556.837
1835 0 45.1528 11.5386 521 51.739 1345.49 555.656
1836 0 46.2282 13.1305 607 51.0115 1345.44 554.68
1837 0 51.1556 13.0387 667 49.7721 1345.89 555.856
1838 0 49.131 12.4565 612 52.0556 1346.1 553.291
1839 0 50.2871 12.3093 619 52.7884 1346.39 554.226
1840 0 55.1128 14.1346 779 50.3992 1346.66 551.783
1841 0 54.0591 13.0043 703 52.1238 1347.28 551.107
1842 0 59.091 13.2 780 51.1872 1347.85 551
1843 0 61.0529 12.956 791 51.2048 1347.46 548.839
1844 0 62.2387 13.5446 843 50.8636 1347.81 547.908
1845 0 65.0701 13.0475 849 51.4217 1347.86 547.853
1846 0 68.1389 13.5752 925 50.9135 1348.1 547.13
1847 0 67.0807 13.0142 873 51.9049 1347.78 546.288
1848 0 72.0728 12.8759 928 52.2996 1347.57 543.97
1849 0 72.1051 13.8686 1000 51.391 1347.72 541.481
1850 0 77.1169 13.0581 1007 52.0506 1348.23 540.618
1851 0 77.1169 13.0062 1003 160.516 1349.24 540.64
1852 0 80.2277 11.9161 956 53.8149 1348.72 539.157
1853 0 85.1544 13.8572 1180 50.8839 1348.15 536.678
1854 1 42.084 10.3127 434 53.0161 1348.59 557.652
1855 0 43.0487 11.4057 491 52.3035 1348.77 555.847
1856 0 46.1435 12.3094 568 51.7042 1348.42 554.933
1857 0 46.0754 11.9152 549 52.8142 1348.34 555.053
1858 0 48.1307 11.7596 566 52.6943 1348.02 554.574
1859 0 49.1379 13.1263 645 52.1535 1347.75 552.94
1860 0 53.2387 14.914 794 49.7003 1347.78 551.894
1861 0 53.165 12.8468 683 52.142 1347.71 551.532
1862 0 55.0922 13.1779 726 51.8705 1347.68 550.778
1863 0 55.1775 12.0883 667 53.1964 1347.55 550.801
1864 0 59.1157 13.1945 780 50.8654 1347.32 550.247
1865 0 60.1605 12.7326 766 51.9752 1347.33 547.894
1866 0 63.1196 12.706 802 51.919 1347.35 547.18
1867 0 63.1196 12.6902 801 159.725 1348.34 547.162
1868 0 67.0903 12.2969 825 52.6339 1347.15 546.902
1869 0 68.1578 12.207 832 53.1058 1346.78 544.121
1870 0 74.1379 13.6772 1014 50.8817 1346.62 544.408
1871 0 74.1379 13.6772 1014 160.73 1346.62 544.464
1872 1 37.0946 10.6754 396 50.9545 1347.24 560.619
1873 0 40.1399 12.1326 487 51.3573 1346.05 558.271
1874 0 41.357 11.2919 467 52.7388 1346.2 556.803
1875 0 44.2567 11.4107 505 52.5861 1345.65 555.812
1876 0 43.1116 12.0153 518 52.8398 1345.61 556.307
1877 0 45.1122 12.6352 570 52.479 1346.04 555.253
1878 0 48.0443 12.0098 577 52.6083 1345.42 555.516
1879 0 49.1336 13.2496 651 51.8894 1344.58 553.475
1880 0 51.0774 12.1972 623 52.8652 1344.92 553.522
1881 0 51.1978 11.7583 602 53.9435 1345.05 553.696
1882 0 53.0976 12.2228 649 53.8028 1345.01 553.273
1883 0 53.1595 12.6412 672 54.2455 1344.77 551.042
1884 0 56.2059 12.9346 727 53.2572 1344.51 551.175
1885 0 58.4671 12.2804 718 54.6838 1344.55 549.602
1886 0 59.3003 13.2377 785 53.9873 1344.3 549.809
1887 0 62.2044 13.5682 844 53.551 1344.49 548.181
1888 0 63.1709 12.9965 821 54.3983 1344.33 547.434
1889 0 65.5849 12.7316 835 54.5605 1344.03 546.669
1890 0 66.3235 12.9818 861 54.8351 1343.86 544.188
1891 0 70.2559 13.2658 932 54.6835 1344.4 543.647
1892 0 72.3882 13.6486 988 54.586 1343.93 541.689
1893 0 72.3882 13.6072 985 169.384 1343.92 541.667
1894 0 78.2169 13.6032 1064 54.4859 1343.81 539.682
1895 1 42.4324 10.9822 466 55.6288 1343.22 558.88
1896 0 43.2685 11.1166 481 56.763 1343.4 556.869
1897 0 44.4508 11.1584 496 57.0161 1343.03 556.502
1898 0 47.1778 12.2939 580 55.8586 1343.02 555.245
1899 0 48.2965 12.444 601 55.5508 1342.8 554.329
1900 0 51.2548 13.2085 677 54.7666 1342.28 553.194
1901 0 52.097 12.7071 662 55.5287 1341.86 553.163
1902 0 52.3155 13.3421 698 54.8897 1342.24 551.814
1903 0 54.3484 13.5239 735 54.6789 1342.22 550.261
1904 0 55.2529 13.8092 763 54.5439 1341.72 550.84
1905 0 58.2174 13.1232 764 55.4058 1341.65 550.509
1906 0 57.47 12.2673 705 57.3589 1341.88 548.526
1907 0 59.3518 12.9735 770 56.2649 1341.64 549.726
1908 0 61.3027 13.2294 811 56.4969 1341.74 549.08
1909 0 64.4066 14.1756 913 54.8686 1341.82 547.622
1910 0 64.4471 13.577 875 56.2949 1341.21 546.559
1911 0 66.3018 13.6195 903 56.4751 1341.28 545.954
1912 0 69.2677 13.8448 959 56.0469 1341.05 544.825
1913 0 71.4732 13.9633 998 55.8657 1341.06 545.56
1914 0 73.4555 13.4367 987 57.0851 1340.67 543.878
1915 0 75.42 14.3596 1083 56.6574 1340.52 542.07
1916 0 78.3783 13.6645 1071 57.7722 1340.5 541.204
1917 0 81.4185 14.2597 1161 57.1525 1340.53 538.282
1918 0 84.4831 13.9791 1181 57.8848 1340.57 538.748
1919 0 86.414 13.7825 1191 59.4643 1340.61 538.173
1920 0 88.3758 14.0084 1238 59.0832 1341.69 536.807
1921 0 90.3457 14.4224 1303 59.6378 1341.36 534.55
1922 0 96.3984 14.938 1440 58.7257 1340.99 533.362
1923 0 97.6839 14.7005 1436 59.4826 1340.8 532.876
1924 0 101.496 14.3848 1460 60.0082 1340.64 531.3
1925 0 104.421 15.0352 1570 59.2873 1340.58 529.932
1926 0 109.311 14.6005 1596 59.7193 1340.45 526.656
1927 0 111.346 13.7319 1529 61.1831 1340.3 526.572
1928 0 115.327 14.4459 1666 60.1026 1341.15 524.518
1929 1 60.1697 11.9994 722 61.9612 1341.03 550.999
1930 0 63.1249 13.1485 830 60.0458 1340.81 551.822
1931 0 64.1196 12.8822 826 61.0617 1341.17 550.502
1932 0 65.1978 13.0679 852 61.6643 1341.56 549.411
1933 0 69.3029 13.6214 944 60.786 1341.29 548.26
1934 0 73.2742 13.5518 993 59.8993 1341.52 548.745
1935 0 74.2178 13.6356 1012 60.5939 1341.78 545.896
1936 0 75.2286 13.6118 1024 60.7656 1341.4 544.324
1937 0 77.2924 14.5163 1122 59.918 1341.31 543.504
1938 0 80.4671 14.5525 1171 59.4876 1341.4 541.234
1939 0 82.4148 13.6505 1125 61.0409 1341.51 539.304
1940 0 83.2419 13.4788 1122 61.844 1342.01 538.161
1941 0 87.3938 14.3031 1250 60.8104 1341.9 537.794
1942 0 91.475 14.1787 1297 60.8273 1342.18 536.009
1943 0 92.4065 13.9059 1285 62.0747 1342.69 533.481
1944 0 95.3311 13.3849 1276 61.2571 1342.56 532.469
1945 0 96.4532 13.8098 1332 60.5676 1342.63 530.224
1946 0 101.349 13.5966 1378 60.3882 1343.14 527.525
1947 0 105.332 14.1837 1494 59.6319 1342.93 525.239
1948 0 109.205 14.8619 1623 58.4227 1343.01 524.599
1949 1 59.3068 12.3763 734 59.2139 1343.15 549.292
1950 0 63.1345 12.7822 807 58.1066 1342.7 547.906
1951 0 65.2764 12.47 814 57.86 1343.26 549.118
1952 0 67.3918 13.607 917 56.8844 1343.54 546.677
1953 0 69.3047 14.126 979 56.9101 1343.81 545.736
1954 0 71.4584 12.3009 879 58.8953 1343.96 544.135
1955 0 74.4497 13.6468 1016 56.8612 1343.74 544.95
1956 0 77.3665 13.6622 1057 56.4588 1343.74 542.588
1957 0 79.4279 14.1008 1120 56.1286 1343.57 539.194
1958 0 80.2081 12.9289 1037 57.8139 1343.97 539.119
1959 0 85.247 12.9271 1102 57.1715 1344.14 537.554
1960 0 88.25 13.915 1228 56.0554 1344.39 535.4
1961 0 90.4 13.1748 1191 56.8018 1344.48 535.24
1962 0 93.2247 13.5908 1267 56.1673 1344.53 534.135
1963 0 97.57 13.8362 1350 55.9763 1344.58 532.383
1964 0 99.3489 14.5044 1441 55.5094 1345.07 530.759
1965 0 102.399 13.7795 1411 56.4231 1345.36 528.938
1966 0 105.429 13.1558 1387 56.9813 1345.24 527.438
1967 0 107.201 14.3936 1543 55.477 1345.74 525.529
1968 1 57.3109 11.0799 635 55.8063 1346.04 552.861
1969 0 61.2485 12.1962 747 55.1513 1346.53 546.54
1970 0 64.4008 12.857 828 53.4167 1346.38 547.508
1971 0 65.422 13.2371 866 54.3464 1346.27 544.171
1972 0 67.3501 13.6154 917 53.5245 1345.71 544.543
1973 0 68.4013 12.4413 851 55.3725 1345.94 545.059
1974 0 70.1001 13.3381 935 54.4289 1346.31 541.594
1975 0 73.3232 13.1064 961 54.95 1347.03 539.121
1976 0 74.3071 11.9504 888 55.786 1347.3 540.51
1977 0 76.13 12.413 945 56.036 1347.2 539.489
1978 0 80.3569 13.0667 1050 55.1457 1347.3 537.016
1979 0 83.3475 13.1018 1092 54.6016 1347.7 536.05
1980 0 85.2176 13.0255 1110 55.0153 1347.22 532.837
1981 0 88.2739 13.4921 1191 54.4912 1348.28 531.01
1982 1 48.1881 9.87796 476 55.2164 1347.88 552.342
1983 0 47.1974 11.9498 564 54.3262 1348.32 551.09
1984 0 46.1937 11.7332 542 158.784 1348.31 550.766
1985 0 51.2458 11.1814 573 54.7749 1348.36 549.831
1986 0 53.1797 11.6586 620 53.6677 1348.58 548.924
1987 0 54.0995 12.0704 653 53.9954 1348.57 548.93
1988 0 57.1579 12.4917 714 53.4636 1348.25 547.641
1989 0 58.2888 12.4895 728 52.9986 1347.6 548.262
1990 0 59.4256 11.4597 681 54.254 1348.3 545.805
1991 0 62.3632 12.796 798 52.6855 1348.1 543.769
1992 0 64.29 12.2881 790 52.5823 1347.69 543.461
1993 0 67.2079 12.3497 830 52.4289 1347.51 542.2
1994 0 69.2862 13.5669 940 51.1883 1347.04 541.698
1995 0 70.2602 12.7099 893 52.4681 1347.83 540.608
1996 0 71.2908 13.3678 953 52.0934 1347.49 536.775
1997 0 73.3747 13.1926 968 52.5734 1347.33 537.917
1998 0 78.3356 12.4209 973 52.4553 1346.92 539.212
1999 1 40.3855 8.98838 363 54.6749 1346.09 555.058
2000 0 42.3512 11.2866 478 52.2678 1346.65 553.048
2001 0 43.3781 10.6275 461 53.1302 1346.25 552.616
2002 0 42.3734 10.3839 440 54.4955 1345.81 552.036
2003 0 45.3124 12.0055 544 52.0938 1346.08 551.697
2004 0 47.231 11.8143 558 52.353 1345.87 551.111
2005 0 49.2732 12.0552 594 52.3956 1345.26 552.687
2006 0 48.2202 12.4222 599 53.379 1345.46 549.481
2007 0 50.2177 12.0874 607 53.8929 1345.67 549.25
2008 0 53.0968 11.3378 602 54.3056 1345.55 548.065
2009 0 59.4864 11.6161 691 52.602 1345.07 549.611
2010 0 57.2595 12.225 700 53.6329 1345.31 546.733
2011 0 57.3869 11.7971 677 54.8774 1345.2 546.031
2012 0 61.6082 14.1702 873 51.7755 1344.12 546.324
2013 0 61.6933 11.8813 733 54.5116 1344.42 544.851
2014 0 64.4318 12.9439 834 53.5983 1344.27 544.04
2015 0 66.4577 11.9625 795 54.3849 1344.52 543.426
2016 0 69.4294 12.8332 891 53.2031 1344.7 542.49
2017 0 71.4209 13.0494 932 53.5944 1344.36 540.915
2018 0 72.3241 13.4533 973 53.1418 1344.06 540.91
2019 0 74.402 12.8626 957 54.0773 1344.42 539.534
2020 0 77.5253 13.0409 1011 53.8684 1344.58 538.035
2021 0 81.2919 13.4946 1097 53.4029 1344.22 536.578
2022 0 84.1499 12.7986 1077 54.1625 1344.09 535.45
2023 0 85.2909 12.8501 1096 54.3175 1344.22 534.604
2024 0 91.3018 13.1432 1200 53.585 1344.32 533.004
2025 1 45.0847 10.447 471 54.2739 1343.14 554.858
2026 0 45.0874 10.0915 455 54.5582 1343.1 555.991
2027 0 45.0233 10.5723 476 53.8887 1343.05 554.979
2028 0 49.0282 11.9727 587 53.1227 1343.5 554.242
2029 0 50.0686 11.6241 582 52.9639 1343.99 554.572
2030 0 52.0953 12.861 670 51.0612 1344.67 555.061
2031 0 55.0733 12.0566 664 51.8765 1344.9 554.41
2032 0 55.031 12.3021 677 52.483 1345.16 552.6
2033 0 56.0578 13.1115 735 52.1619 1344.88 551.156
2034 0 59.1287 12.0415 712 52.5927 1344.35 551.874
2035 0 62.1218 11.7189 728 52.4066 1343.92 551.952
2036 0 62.0739 11.5991 720 53.5931 1343.94 548.524
2037 0 64.2004 12.6946 815 52.3227 1343.82 548.84
2038 0 65.0572 12.5428 816 52.7365 1343.3 548.042
2039 0 67.125 12.2905 825 52.9988 1343.11 547.184
2040 0 70.1202 12.9349 907 51.7641 1343.42 546.697
2041 0 70.1362 12.3331 865 52.8335 1343.55 546.444
2042 0 72.1778 11.9982 866 53.2425 1343.62 545.172
2043 0 76.2219 12.9228 985 52.1787 1343.65 546.119
2044 0 78.1848 12.7646 998 52.3016 1344.04 542.985
2045 1 42.0728 10.1253 426 52.5775 1343.49 562.092
2046 0 43.086 10.5835 456 52.7325 1343.4 561.252
2047 0 43.0491 10.9642 472 52.7436 1342.87 562.097
2048 0 42.2307 10.9162 461 52.9002 1342.69 561.095
2049 0 45.1043 11.1076 501 52.8264 1342.63 560.289
2050 0 47.0586 11.2201 528 52.536 1342.26 558.686
2051 0 49.0462 11.9275 585 51.5197 1342.76 558.236
2052 0 49.0462 11.8868 583 158.033 1342.76 558.189
2053 0 51.1216 12.2453 626 51.7684 1342.16 557.275
2054 0 52.0298 11.9547 622 54.1415 1341.93 556.476
2055 0 56.0671 13.0201 730 52.1452 1342.13 555.519
2056 0 58.0573 13.0388 757 52.2642 1342.1 555.499
2057 0 57.0854 11.0711 632 55.3797 1341.75 554.82
2058 0 59.0814 12.0342 711 54.0956 1341.93 554.3
2059 0 62.1142 12.5414 779 53.8626 1341.71 554.2
2060 0 63.1109 12.2007 770 54.3364 1341.71 551.831
2061 0 66.0956 13.0115 860 53.7523 1341.7 550.791
2062 0 65.045 12.868 837 54.1004 1341.83 550.448
2063 0 69.0622 13.0317 900 53.8156 1342.31 548.503
2064 0 72.1477 13.6248 983 52.4588 1342.37 548.663
2065 0 72.141 13.1825 951 53.9895 1342.28 547.563
2066 0 73.1648 13.0801 957 54.442 1342.7 546.328
2067 0 79.3154 13.6039 1079 53.1344 1343 545.546
2068 0 79.31 13.9327 1105 53.6986 1342.73 543.543
2069 0 83.2291 13.8774 1155 53.51 1342.43 542.976
2070 0 84.2717 12.614 1063 55.3198 1342.57 541.678
2071 0 87.2956 12.7383 1112 55.3597 1342.46 537.468
2072 0 91.3785 13.0994 1197 55.3216 1342.87 539.424
2073 1 44.0957 10.2504 452 56.7013 1342.46 558.743
2074 0 47.1228 11.1411 525 56.1143 1341.51 556.72
2075 0 49.1703 11.328 557 55.2837 1342.91 557.038
2076 0 50.0734 11.0038 551 57.1343 1341.95 557.76
2077 0 52.0476 12.6423 658 56.4574 1342.47 556.495
2078 0 53.1322 12.6477 672 56.9434 1343.2 555.833
2079 0 52.0374 12.7216 662 57.8897 1343.17 555.027
2080 0 56.1228 13.0072 730 57.4726 1343.98 552.985
2081 0 56.1274 13.4694 756 57.1905 1344.27 553.385
2082 0 57.1305 12.6902 725 58.6703 1344.03 552.363
2083 0 62.1302 13.2786 825 56.8424 1344.41 550.708
2084 0 63.1059 13.8339 873 56.3608 1344.29 550.454
2085 0 64.0858 12.9202 828 57.9142 1343.88 548.001
2086 0 64.1486 12.9699 832 57.8438 1344.78 547.397
2087 0 69.1001 13.2996 919 57.148 1344.74 545.924
2088 0 71.1024 13.4735 958 56.9499 1344.74 545.756
2089 0 73.0933 13.4349 982 57.4409 1345.29 543.185
2090 0 75.1529 13.3727 1005 57.6438 1346.04 541.722
2091 0 77.1354 13.418 1035 57.8019 1346.26 539.725
2092 0 79.2716 13.6997 1086 57.1593 1346.46 538.064
2093 0 83.3365 13.4275 1119 57.1805 1346.42 537.448
2094 0 84.5614 13.3276 1127 57.7533 1346.41 535.469
2095 0 88.5182 13.3532 1182 57.3926 1346.48 534.571
2096 0 90.2924 13.4563 1215 57.3811 1346.29 532.417
2097 1 48.3013 11.6767 564 58.8635 1345.82 552.121
2098 0 49.3691 11.7888 582 58.5876 1345.97 551.789
2099 0 51.1251 12.0684 617 58.4635 1346.22 550.23
2100 0 54.1144 12.9356 700 57.8114 1346.9 550.441
2101 0 54.1921 13.3414 723 57.1217 1346.93 550.743
2102 0 58.2547 12.4968 728 58.0192 1346.57 548.709
2103 0 59.1561 13.7264 812 56.7709 1346.96 545.983
2104 0 61.2865 13.7551 843 56.8826 1347.14 545.448
2105 0 61.2865 13.7551 843 166.234 1346.14 545.448
2106 0 65.1787 12.8263 836 57.8864 1347.74 544.169
2107 0 65.4823 13.4998 884 57.2093 1347.8 544.38
2108 0 66.267 13.3852 887 57.8219 1347.57 542.626
2109 0 68.2965 13.5732 927 58.069 1348.02 540.565
2110 0 71.2238 13.6471 972 57.8333 1347.7 539.491
2111 0 73.4889 14.1926 1043 56.9866 1348.12 539.237
2112 0 75.2963 14.0512 1058 57.5104 1347.84 538.497
2113 0 80.424 13.8516 1114 57.5682 1347.77 535.796
2114 0 81.1632 14.0458 1140 57.7167 1347.99 534.694
2115 0 83.4788 13.7999 1152 57.717 1348.43 533.95
2116 0 87.2862 13.8166 1206 56.9726 1348.57 531.336
2117 1 45.0869 10.9123 492 58.2337 1347.92 552.77
2118 0 47.066 11.452 539 57.3525 1347.79 551.735
2119 0 47.1173 11.2273 529 58.1607 1347.55 551.58
2120 0 49.0587 13.0456 640 57.25 1348.02 548.094
2121 0 52.1893 13.1253 685 56.9533 1348.31 548.409
2122 0 54.0947 14.1603 766 55.4922 1347.51 549.487
2123 0 56.0712 13.251 743 57.4226 1347.7 549.027
2124 0 56.0712 13.251 743 165.735 1347.7 549.027
2125 0 57.1081 12.6777 724 58.8577 1346.72 547.939
2126 0 58.2373 13.5308 788 58.0685 1346.19 546.679
2127 0 63.1957 13.7509 869 57.1208 1346.24 545.01
2128 0 65.1364 14.0167 913 56.7371 1346.11 544.752
2129 0 66.2184 13.5159 895 57.7073 1346.01 543.203
2130 0 67.1139 13.2163 887 58.858 1345.7 542.074
2131 0 71.2925 14.0267 1000 57.055 1345.69 542.481
2132 0 71.1051 13.1917 938 59.0266 1346.16 540.933
2133 0 76.3256 14.0844 1075 57.1795 1345.54 539.531
2134 0 79.2247 13.5438 1073 58.0214 1345.74 537.87
2135 0 81.2599 14.2506 1158 57.0613 1345.57 536.408
2136 1 45.0681 10.5618 476 58.1618 1345.23 557.168
2137 0 45.0745 11.8471 534 57.824 1345.25 554.313
2138 0 46.1575 11.7857 544 57.7335 1345.26 555.191
2139 0 48.1137 11.6599 561 58.2246 1344.78 556.057
2140 0 48.0387 12.2609 589 58.9389 1343.95 555.377
2141 0 49.1066 12.4016 609 58.757 1344.15 554.568
2142 0 52.0812 12.3653 644 58.7453 1344.05 553.522
2143 0 54.05 12.5625 679 58.0766 1343.99 554.146
2144 0 56.0814 12.0717 677 58.4047 1344.22 553.08
2145 0 56.0995 12.157 682 58.4677 1344.41 552.069
2146 0 60.2044 12.7565 768 57.1276 1344.2 552.428
2147 0 61.0827 12.6222 771 57.2309 1343.76 551.132
2148 0 62.0912 12.5461 779 57.6765 1344.53 550.61
2149 0 64.0731 12.0175 770 58.1065 1344.58 548.426
2150 0 65.0997 13.487 878 56.0273 1344.2 548.191
2151 0 69.0877 12.2453 846 57.805 1344.04 547.807
2152 0 70.1587 13.4267 942 56.6019 1344 545.74
2153 0 74.1317 12.8285 951 56.9495 1343.87 544.543
2154 0 77.1314 13.1594 1015 56.2837 1344.43 542.994
2155 0 77.1314 13.0816 1009 162.613 1344.43 542.936
2156 0 82.1119 13.4451 1104 55.9321 1343.49 540.688
2157 0 86.0803 14.0334 1208 54.7815 1343.67 538.577
2158 0 88.2431 13.7801 1216 55.2615 1343.44 537.847
2159 0 90.1532 14.1315 1274 55.4945 1343.34 535.757
2160 0 92.1154 13.4614 1240 56.2056 1343.49 535.877
2161 0 96.102 13.1215 1261 56.2569 1343.1 533.818
2162 0 97.2821 13.5277 1316 56.4992 1343.77 530.982
2163 0 101.263 13.6772 1385 56.0787 1343.7 530.847
2164 0 104.219 13.4332 1400 56.3636 1343.49 529.434
2165 1 56.1225 10.4236 585 57.6838 1343.34 554.458
2166 0 58.0772 12.4145 721 55.896 1342.88 551.796
2167 0 61.1552 13.2613 811 54.8952 1342.75 548.471
2168 0 62.1358 13.4383 835 55.4204 1342.92 549.319
2169 0 63.2986 12.6859 803 56.3001 1342.74 548.461
2170 0 66.1345 13.2155 874 56.0206 1342.76 545.846
2171 0 67.1909 13.0821 879 55.6792 1342.97 546.735
2172 0 70.182 13.2228 928 55.7478 1342.92 545.01
2173 0 72.2528 12.913 933 56.3719 1342.95 543.497
2174 0 76.2951 14.1425 1079 54.3735 1342.48 541.081
2175 0 79.3335 13.3361 1058 55.8431 1343.12 540.541
2176 0 80.2554 12.8465 1031 55.7953 1342.71 538.75
2177 0 83.1445 13.0616 1086 56.0166 1342.76 536.55
2178 0 85.4221 13.9308 1190 55.0017 1342.62 533.882
2179 0 89.2702 13.3863 1195 55.1657 1342.33 534.06
2180 1 46.4266 10.1451 471 55.9575 1341.97 554.718
2181 0 48.4402 10.8794 527 54.4896 1342.02 553.626
2182 0 48.55 11.4727 557 53.8079 1342.39 553.53
2183 0 51.6919 11.5492 597 53.2094 1342.25 551.571
2184 0 52.5587 11.6251 611 53.5254 1342.49 550.664
2185 0 56.3631 11.834 667 53.3538 1342.53 552.429
2186 0 57.2962 12.4092 711 53.0127 1342.67 550.525
2187 0 57.2861 11.5211 660 54.3258 1343.21 550.112
2188 0 62.4039 12.6915 792 52.5139 1343.34 548.268
2189 0 61.4091 12.6366 776 53.1856 1344 547.028
2190 0 61.5206 11.4433 704 54.8182 1343.46 546.004
2191 0 67.3685 13.1219 884 52.8857 1343.89 544.39
2192 0 67.4676 13.0581 881 53.084 1344.2 544.915
2193 0 69.532 13.5046 939 52.9776 1343.97 542.065
2194 0 70.6067 12.2935 868 54.5853 1344.83 540.97
2195 0 75.4754 12.5736 949 53.9347 1344.29 540.77
2196 0 75.6312 13.0237 985 54.5695 1344.57 538.608
2197 0 79.5599 13.4741 1072 53.3004 1344.76 538.239
2198 0 82.469 12.9382 1067 54.8847 1344.8 535.97
2199 0 83.5943 13.6612 1142 54.8722 1344.7 532.93
2200 0 84.556 12.5006 1057 56.6717 1344.79 531.806
2201 0 87.5896 12.5928 1103 56.6065 1344.97 530.568
2202 0 93.7561 13.9724 1310 54.7718 1345.08 529.776
2203 0 94.7419 13.2465 1255 56.4566 1345.45 527.269
2204 1 51.602 10.9104 563 57.2682 1345.51 548.979
2205 0 52.6378 9.93582 523 57.8719 1345.44 550.539
2206 0 53.4487 11.5999 620 57.3419 1345.71 547.344
2207 0 57.2186 12.426 711 57.0225 1346.8 550.423
2208 0 57.1822 12.8362 734 57.4768 1347.42 548.857
2209 0 60.0839 12.133 729 58.3388 1347.18 549.17
2210 0 60.0413 12.7912 768 58.1276 1347.4 546.91
2211 0 63.0924 12.4579 786 58.4491 1347.13 545.91
2212 0 66.2795 12.402 822 57.573 1347.25 545.152
2213 0 68.2058 12.6969 866 57.4099 1347.79 543.63
2214 0 71.1025 13.3751 951 56.2955 1347.54 543.075
2215 0 73.2589 12.5445 919 57.6714 1348.04 542.283
2216 0 76.1884 12.6135 961 57.1988 1347.84 542.59
2217 0 79.1687 12.7197 1007 57.0626 1348.23 540.031
2218 0 81.2945 12.916 1050 56.8133 1348.41 538.05
2219 0 83.1968 12.4404 1035 58.2242 1348.14 535.14
2220 0 84.4054 12.594 1063 58.0894 1347.75 531.485
2221 1 46.1785 10.1129 467 57.3276 1347.81 555.934
2222 0 47.1224 10.3984 490 57.8674 1347.87 553.845
2223 0 48.0944 10.8329 521 58.1632 1347.91 554.09
2224 0 50.0673 11.1051 556 57.9532 1349.01 551.354
2225 0 51.1067 11.9162 609 57.3415 1348.55 550.271
2226 0 52.1245 11.6836 609 57.8243 1348.07 551.327
2227 0 54.1148 12.5474 679 56.4404 1348.04 550.028
2228 0 56.126 11.1535 626 58.0064 1348.16 549.917
2229 0 57.0862 11.579 661 58.5113 1348.42 549.342
2230 0 59.1221 12.1105 716 57.8101 1348.28 547.274
2231 0 64.2047 12.7716 820 56.3549 1348.23 546.579
2232 0 65.1036 12.4263 809 56.5698 1347.72 545.944
2233 0 64.1106 13.4923 865 55.7237 1348.34 545.111
2234 0 66.2106 12.2337 810 57.8691 1347.87 543.727
2235 0 70.1312 12.9757 910 56.6451 1347.92 542.643
2236 0 72.17 12.1519 877 57.8917 1347.58 540.903
2237 0 74.1284 11.9387 885 57.7695 1347.84 540.548
2238 0 77.2943 12.3036 951 56.8381 1348.17 539.404
2239 0 78.3695 12.1986 956 57.6391 1347.82 539.235
2240 0 82.2421 12.3902 1019 57.3415 1347.85 537.216
2241 0 84.3118 12.8808 1086 56.8186 1347.98 535.922
2242 0 85.2135 13.3312 1136 56.2711 1347.94 535.36
2243 0 89.3214 12.9868 1160 56.494 1347.87 532.817
2244 0 92.3136 13.1183 1211 56.1115 1349.46 531.022
2245 0 94.4282 12.7928 1208 56.4015 1347.67 529.803
2246 0 98.4033 13.2313 1302 56.1052 1347.03 527.636
2247 0 101.309 13.7204 1390 55.5223 1347.56 528.159
2248 1 57.2135 10.5045 601 56.7022 1347.73 549.053
2249 0 57.2996 10.7156 614 57.2052 1347.37 549.622
2250 0 58.0707 12.0026 697 56.1191 1346.63 548.836
2251 0 62.0851 12.7084 789 55.5387 1346.86 547.665
2252 0 63.1302 12.4821 788 56.0432 1346.94 544.704
2253 0 65.087 12.5678 818 55.7653 1346.93 544.984
2254 0 67.1036 12.3838 831 56.3225 1346.7 545.801
2255 0 69.1046 12.9659 896 55.8828 1346.57 544.275
2256 0 71.1104 12.8251 912 55.9452 1346.77 542.71
2257 0 74.142 12.7863 948 55.4652 1346.84 540.422
2258 0 77.1262 12.9917 1002 54.9681 1346.32 542.236
2259 0 78.2652 12.1893 954 56.327 1346.2 541.475
2260 0 79.1159 13.3981 1060 55.8387 1345.77 538.702
2261 0 82.1549 12.7686 1049 56.5415 1346.14 537.914
2262 0 85.1089 12.5134 1065 57.1418 1346.4 539.068
2263 0 85.1089 12.5016 1064 164.348 1346.39 539.137
2264 0 91.1078 13.8407 1261 56.0698 1346.43 534.078
2265 0 95.0991 13.2493 1260 56.6183 1347.49 532.821
2266 1 49.0251 10.9128 535 172.293 1348.8 555.85
2267 0 55.1424 10.3369 570 57.6667 1346.69 554.305
2268 0 55.0658 11.4045 628 57.1497 1346.93 553.623
2269 0 55.0439 10.3917 572 58.8357 1346.66 553.33
2270 0 58.0732 11.1756 649 57.2681 1347.19 552.148
2271 0 60.1035 11.4303 687 56.6405 1346.75 551.134
2272 0 61.1189 11.3385 693 57.1688 1346.72 548.342
2273 0 64.0541 12.3489 791 56.7522 1345.88 549.778
2274 0 65.1622 12.8756 839 56.4267 1346.04 548.979
2275 0 66.1162 12.599 833 56.5282 1345.57 548.112
2276 0 68.1326 13.2389 902 55.8248 1346.55 547.237
2277 0 70.1463 12.8873 904 56.3429 1346.22 546.71
2278 0 75.1229 12.7924 961 56.0656 1345.9 545.033
2279 0 75.0366 13.1669 988 56.2449 1345.87 544.908
2280 0 77.0752 13.2987 1025 55.9551 1346.02 543.551
2281 0 80.0353 13.3066 1065 55.8948 1345.48 541.551
2282 0 83.1139 13.307 1106 55.8445 1345.21 541.552
2283 0 86.1327 13.1425 1132 56.3763 1345.49 538.857
2284 0 90.2877 13.4127 1211 55.668 1344.61 538.609
2285 0 90.1018 13.8399 1247 55.8933 1345.02 537.354
2286 0 93.1194 12.9082 1202 57.2754 1344.6 535.912
2287 1 50.0891 11.1401 558 58.405 1344.38 554.394
2288 0 54.0823 11.6119 628 56.6545 1343.93 555.322
2289 0 54.0183 10.3854 561 58.4385 1343.98 556.239
2290 0 57.0819 12.3857 707 56.3833 1343.86 554.349
2291 0 58.0766 11.7431 682 57.0176 1344.19 554.887
2292 0 58.1008 13.7864 801 55.3645 1344.45 553.458
2293 0 59.1324 12.2944 727 57.1912 1344.55 550.911
2294 0 61.1178 12.0423 736 57.4429 1344.6 550.398
2295 0 62.1208 12.4274 772 57.1334 1344.12 550.663
2296 0 66.3276 12.981 861 56.0685 1344.33 549.996
2297 0 69.1033 12.8214 886 55.9526 1344.69 549.245
2298 0 68.1231 12.4921 851 57.4289 1344.01 547.678
2299 0 68.1231 12.4921 851 163.165 1343.01 547.678
2300 0 73.1717 13.3932 980 55.9571 1343.73 547.156
2301 0 74.1393 13.0295 966 56.6874 1343.75 544.377
2302 0 77.1383 12.497 964 57.2292 1343.24 543.816
2303 0 83.2371 13.864 1154 55.1629 1343.14 543.348
2304 0 85.1507 13.6346 1161 55.7097 1343.5 540.423
2305 0 87.2328 13.4697 1175 56.326 1343.64 540.035
2306 0 90.1692 13.3416 1203 56.2477 1343.39 537.991
2307 1 52.0718 11.3305 590 56.2797 1343.8 557.939
2308 0 51.0341 10.5616 539 56.7829 1344.2 559.122
2309 0 52.0945 11.1912 583 57.0875 1344.36 556.515
2310 0 53.0559 10.9319 580 57.8052 1344.21 555.681
2311 0 56.0775 12.3222 691 56.5789 1344.12 554.643
2312 0 57.0516 13.146 750 55.1427 1343.9 553.805
2313 0 59.1081 12.4348 735 56.7415 1344.54 551.569
2314 0 60.1001 11.9634 719 57.3157 1344.31 551.008
2315 0 63.1275 13.0688 825 55.6873 1344.75 549.939
2316 0 64.0435 13.2878 851 55.4865 1344.08 549.891
2317 0 67.0935 13.1458 882 55.8447 1344.17 548.539
2318 0 68.0898 13.7172 934 55.4068 1344.26 548.199
2319 0 70.0348 13.3505 935 56.261 1344.92 546.841
2320 0 72.1364 13.1834 951 56.4069 1344.64 545.71
2321 0 74.1047 13.4269 995 56.1286 1344.85 542.973
2322 0 76.2004 13.1364 1001 56.8082 1345.43 543.327
2323 0 80.1596 13.1488 1054 56.4886 1345.2 542.124
2324 0 82.1057 12.6057 1035 57.0908 1345.03 540.349
2325 0 86.1235 13.5039 1163 55.6242 1345.64 539.288
2326 0 88.1037 12.6215 1112 57.2221 1345.54 537.377
2327 0 89.211 12.8908 1150 56.9165 1346.03 535.526
2328 0 94.0794 13.5949 1279 55.7522 1346.23 533.434
2329 1 49.0676 10.3327 507 57.1322 1345.76 556.016
2330 0 52.1611 11.3495 592 56.6689 1345.8 554.255
2331 0 53.0522 12.2709 651 56.424 1346.13 553.298
2332 0 56.1304 12.3284 692 56.3382 1347.01 551.445
2333 0 56.1576 12.5183 703 56.5889 1346.59 548.428
2334 0 58.0642 12.779 742 56.4407 1347.2 549.995
2335 0 60.0693 12.652 760 56.7763 1347.11 547.863
2336 0 63.1725 13.012 822 56.2786 1347.07 548.502
2337 0 64.1949 12.9605 832 56.655 1347.25 547.393
2338 0 65.0531 12.9586 843 56.6512 1348.11 546.008
2339 0 68.224 13.0013 887 56.894 1348.02 544.451
2340 0 70.217 12.5753 883 56.9819 1347.71 543.537
2341 0 73.1797 13.1321 961 56.6368 1348.2 541.64
2342 0 76.1442 12.5289 954 56.8197 1348.13 540.496
2343 1 44.0144 10.3602 456 57.2851 1347.77 557.007
2344 0 44.0616 10.7577 474 57.038 1348 555.386
2345 0 46.0352 10.9699 505 57.2277 1347.74 556.186
2346 0 47.0986 11.2318 529 56.4594 1347.73 555.902
2347 0 48.06 11.9434 574 56.5 1347.49 553.88
2348 0 50.1718 11.2812 566 56.9594 1348.22 553.357
2349 0 52.0103 12.6513 658 55.9559 1347.74 551.778
2350 0 55.0626 13.0397 718 55.8983 1348.43 550.18
2351 0 56.0711 12.9835 728 56.1071 1348.22 550.148
2352 0 59.1695 12.5741 744 57.0659 1348.76 548.988
2353 0 58.1524 12.3813 720 58.1958 1348.62 549.212
2354 0 62.1653 13.078 813 56.7565 1348.84 548.712
2355 0 63.1798 13.0738 826 57.4201 1348.86 546.95
2356 0 66.1643 12.6503 837 57.6918 1348.64 546.509
2357 0 66.0962 12.966 857 57.7153 1349.08 544.925
2358 0 70.0882 13.1691 923 58.1408 1349.3 543.701
2359 0 70.0742 12.9577 908 58.826 1348.4 541.95
2360 0 73.2074 13.9603 1022 57.5998 1348.55 541.294
2361 0 74.3138 12.8509 955 59.845 1348.24 540.06
2362 0 78.1489 13.4871 1054 58.6224 1348.6 539.918
2363 0 83.171 13.7428 1143 57.0376 1348.4 539.294
2364 0 83.164 13.2028 1098 58.4526 1348.12 537.095
2365 1 44.2922 9.93404 440 59.5955 1348.58 558.036
2366 0 48.3542 10.5679 511 59.1155 1348.55 554.824
2367 0 49.2169 11.8455 583 57.3825 1347.96 555.983
2368 0 51.1563 12.5107 640 57.2547 1346.63 554.011
2369 0 53.0617 13.1357 697 56.6054 1346.73 552.195
2370 0 54.0895 12.6457 684 56.905 1347.3 552.79
2371 0 56.0396 13.1336 736 56.3016 1346.77 551.068
2372 0 58.0742 13.2589 770 56.2714 1346.58 550.242
2373 0 58.0951 12.9959 755 57.2331 1346.45 550.064
2374 0 62.102 13.6872 850 55.96 1346.6 548.796
2375 0 63.0504 12.8469 810 57.5988 1346.63 547.367
2376 0 65.0729 12.3554 804 57.9577 1346.59 545.994
2377 0 68.1349 12.7835 871 57.2365 1346.17 545.451
2378 0 68.1193 13.1534 896 56.5871 1346.94 544.253
2379 0 71.0938 13.5877 966 55.9099 1346.93 542.812
2380 0 73.0659 13.3031 972 56.5885 1346.76 542.47
2381 0 75.1793 13.235 995 56.7588 1347.25 541.605
2382 0 78.1021 13.2135 1032 54.2452 1346.7 541.582
2383 0 81.0769 13.5674 1100 52.9645 1346.69 543.202
2384 0 84.1453 12.4903 1051 54.6261 1347.18 538.589
2385 0 87.1059 13.8567 1207 52.8161 1346.63 539.087
2386 1 45.2333 9.90422 448 55.1272 1346.59 559.634
2387 0 47.1792 11.255 531 54.0772 1346.51 557.378
2388 0 49.0492 11.7841 578 53.2837 1345.83 557.381
2389 0 50.0894 12.2381 613 52.8075 1345.12 553.119
2390 0 53.0317 11.9928 636 54.261 1345.41 554.511
2391 0 55.1206 12.6087 695 53.3151 1346.33 554.917
2392 0 55.109 12.6114 695 53.8921 1346.12 553.445
2393 0 57.1163 13.4638 769 52.827 1346.29 550.971
2394 0 59.078 13.3722 790 52.5684 1346.47 550.766
2395 0 60.123 12.6408 760 53.0447 1346.58 550.617
2396 0 62.0502 13.2796 824 52.6711 1346.65 549.092
2397 0 65.0843 13.0907 852 52.6526 1346.5 548.108
2398 0 67.0575 12.6459 848 52.6875 1347.22 546.765
2399 0 69.1131 13.3549 923 52.1777 1346.96 546.511
2400 0 71.1105 13.2611 943 52.0265 1345.86 545.861
2401 0 71.1523 13.0846 931 52.9356 1345.52 544.674
2402 0 74.3069 13.1078 974 52.4096 1346.21 542.735
2403 0 75.1172 13.0995 984 52.6697 1345.68 543.829
2404 0 79.1559 13.7324 1087 51.8804 1345.55 542.385
2405 0 81.0885 12.8625 1043 52.4775 1345.45 539.599
2406 0 85.1739 13.22 1126 51.5186 1345.56 539.549
2407 0 86.1799 13.6459 1176 51.5825 1345.79 535.135
2408 0 91.2269 13.7459 1254 51.0941 1346.03 536.521
2409 0 93.1426 13.1411 1224 51.5637 1345.38 535.892
2410 0 97.3928 13.3788 1303 51.2134 1345.36 534.195
2411 1 51.0222 11.0932 566 51.6078 1345.43 558.041
2412 0 53.1188 11.5025 611 50.8511 1344.6 555.532
2413 0 55.1729 12.7055 701 50.612 1344.67 554.733
2414 0 56.1567 11.8597 666 51.3423 1344.72 553.736
2415 0 59.2757 13.2263 784 49.736 1344.93 552.312
2416 0 60.2527 13.3438 804 49.5348 1344.43 552.317
2417 0 61.0618 13.4618 822 49.4745 1344.19 551.872
2418 0 63.1257 13.386 845 48.9172 1344.02 551.638
2419 0 63.161 12.9827 820 49.7317 1344.21 550.118
2420 0 66.1618 13.5577 897 48.3188 1343.87 550.598
2421 0 68.1174 13.0363 888 48.8232 1343.87 547.609
2422 0 70.1567 13.5411 950 48.2063 1344.13 547.384
2423 0 72.1598 12.5278 904 48.9624 1344.11 547.149
2424 0 74.2544 12.8881 957 48.3741 1343.82 546.11
2425 0 78.1792 13.1493 1028 47.8259 1344.3 545.603
2426 0 78.125 13.6576 1067 48.2465 1344.48 541.996
2427 0 83.193 13.1381 1093 48.656 1344.68 539.862
2428 0 86.1721 13.8212 1191 47.9832 1344.44 538.999
2429 0 89.3102 13.5147 1207 47.6031 1344.53 539.715
2430 1 46.2138 10.5596 488 48.0881 1343.63 560.348
2431 0 48.1805 11.6852 563 47.9574 1343.57 556.934
2432 0 48.1864 11.414 550 48.02 1343.24 557.485
2433 0 51.1973 12.1686 623 47.2488 1343.45 555.942
2434 0 52.3203 10.3402 541 48.1183 1343.72 557.274
2435 0 54.1882 11.5339 625 48.28 1343.77 553.93
2436 0 57.1155 12.3259 704 47.9304 1344.39 555.413
2437 0 59.0467 13.2099 780 47.2974 1344.42 554.764
2438 0 61.1031 12.9944 794 47.7607 1344.54 552.652
2439 0 63.0581 13.5748 856 47.2021 1344.04 551.487
2440 0 64.0723 12.9853 832 48.1466 1344.45 549.238
2441 0 66.0324 13.978 923 47.2687 1343.51 550.224
2442 0 68.0856 13.6446 929 47.5953 1343.59 550.173
2443 0 67.1202 13.3343 895 49.3922 1343.58 548.56
2444 0 70.065 14.2011 995 48.9648 1343.54 547.594
2445 0 72.0563 13.1009 944 50.3528 1343.53 545.479
2446 0 75.1563 13.2657 997 50.1003 1343.67 544.156
2447 0 79.1387 13.5585 1073 49.9198 1343.37 543.386
2448 0 79.1057 14.3605 1136 50.2298 1343.65 540.452
2449 0 80.1505 13.1378 1053 51.5945 1343.96 542.225
2450 0 83.2068 13.2321 1101 51.7875 1343.97 539.391
2451 0 87.1572 13.9288 1214 51.0494 1344.43 538.455
2452 0 88.1276 13.1854 1162 52.4114 1344.21 536.7
2453 0 92.2212 13.6411 1258 52.0636 1345.01 536.056
2454 0 96.2056 14.0636 1353 50.9401 1344.89 532.595
2455 0 97.202 14.4956 1409 50.0135 1344.3 531.92
2456 1 51.0907 12.1744 622 51.7701 1344.55 552.752
2457 0 54.0381 13.435 726 49.9697 1345.11 553.366
2458 0 56.1066 11.3178 635 51.3717 1344.96 553.783
2459 0 58.0343 12.2341 710 51.1761 1345.55 550.982
2460 0 58.1005 11.8416 688 52.1148 1346.05 550.952
2461 0 62.1897 14.1503 880 49.1989 1345.79 550.739
2462 0 62.0716 13.5328 840 50.4452 1345.84 548.337
2463 0 63.0606 13.1936 832 51.1382 1346.65 546.974
2464 0 69.1525 14.2873 988 49.1012 1346.55 547.452
2465 0 69.1452 13.7681 952 50.3876 1346.99 545.354
2466 0 74.2556 14.1808 1053 49.5195 1347.26 544.828
2467 0 75.09 13.9033 1044 50.2318 1347.83 542.926
2468 0 78.1304 14.3734 1123 49.5004 1348.38 542.62
2469 0 79.0786 13.3791 1058 50.8989 1347.93 541.649
2470 0 81.0801 13.5175 1096 51.0712 1348.19 538.576
2471 0 85.033 13.0185 1107 51.6098 1348.34 536.821
2472 0 88.1829 13.9596 1231 50.6905 1348.61 535.89
2473 0 92.0473 14.8945 1371 49.6156 1348.99 536.325
2474 1 48.0609 11.527 554 52.2401 1349.25 553.758
2475 0 51.0282 12.111 618 51.021 1349.38 554.406
2476 0 52.0291 11.9164 620 51.6258 1349.61 552.836
2477 0 56.1397 12.7183 714 50.2647 1348.68 552.162
2478 0 56.1128 12.2788 689 51.6807 1349.29 549.282
2479 0 59.1302 13.7662 814 50.0663 1349.69 548.851
2480 0 60.1238 13.6884 823 50.2005 1349.28 546.654
2481 0 63.0539 12.9572 817 50.8103 1349.06 547.217
2482 0 63.039 12.5637 792 52.0114 1349.3 544.915
2483 0 67.0735 13.0454 875 51.552 1349.55 544.915
2484 0 68.066 13.4281 914 51.5996 1348.85 543.335
2485 0 68.1529 12.4279 847 53.3188 1349.18 543.067
2486 0 70.0861 12.1279 850 53.7318 1348.8 543.586
2487 0 74.1362 14.0822 1044 51.9282 1349.17 542.494
2488 0 74.0456 13.046 966 53.912 1348.55 541.345
2489 0 77.1061 13.6306 1051 53.8126 1348.85 539.836
2490 0 80.0849 14.4971 1161 52.888 1348.64 537.001
2491 0 80.116 12.8189 1027 55.2571 1347.78 537.84
2492 0 85.1587 14.9955 1277 52.7471 1348.01 534.93
2493 0 85.2712 12.7945 1091 55.7626 1348.21 535.386
2494 0 89.3715 13.7292 1227 55.1915 1348.58 533.556
2495 0 92.1462 14.9111 1374 53.9287 1349.15 531.761
2496 0 95.2909 14.356 1368 54.7822 1348.98 530.031
2497 0 99.289 14.5736 1447 54.3525 1348.36 529.508
2498 0 102.304 13.8117 1413 55.5251 1348.21 528.459
2499 1 54.2479 12.0373 653 56.4181 1348.15 550.934
2500 0 59.1454 12.2748 726 55.4422 1347.49 551.545
2501 0 60.2642 13.2417 798 54.5689 1347.64 550.672
2502 0 63.107 13.5167 853 54.3072 1347.54 548.321
2503 0 64.0808 13.3269 854 55.2131 1347.38 546.892
2504 0 67.1195 12.8726 864 55.4676 1347.24 547.073
2505 0 67.221 12.4515 837 56.6129 1347.69 545.038
2506 0 71.1937 13.4562 958 55.3737 1347.28 545.25
2507 0 72.3187 14.367 1039 54.8662 1346.97 544.367
2508 0 74.2236 13.5402 1005 55.7841 1347.29 542.148
2509 0 76.4977 13.5168 1034 56.5938 1346.84 542.479
2510 0 79.3158 13.8434 1098 56.4654 1346.78 540.625
2511 0 82.2878 13.55 1115 57.1848 1347.31 539.91
2512 0 84.3381 13.6119 1148 56.7883 1346.7 537.652
2513 0 90.3238 14.5809 1317 55.694 1346.11 536.516
2514 0 91.325 13.764 1257 57.1933 1346.39 535.266
2515 0 94.2457 13.8574 1306 56.7129 1346.38 534.394
2516 0 98.2312 13.6413 1340 57.4097 1347.01 531.237
2517 0 100.333 13.7642 1381 57.37 1346.48 532.534
2518 0 103.213 13.8064 1425 57.2119 1346.42 528.293
2519 0 107.275 14.9149 1600 55.21 1346.8 528.326
2520 1 58.055 11.9886 696 57.2902 1346.5 553.54
2521 0 57.063 11.093 633 58.4566 1346.49 550.547
2522 0 63.2595 12.9941 822 56.2774 1346.51 548.406
2523 0 63.2922 13.0506 826 56.3305 1346.72 548.619
2524 0 67.3326 13.7675 927 55.4056 1346.72 546.634
2525 0 68.1692 13.7012 934 55.364 1346.02 545.24
2526 0 71.2546 13.9921 997 55.2237 1346.05 542.824
2527 0 72.2943 13.2237 956 56.2479 1346.31 542.051
2528 0 74.295 13.931 1035 55.6647 1345.46 542.087
2529 0 77.2512 12.7765 987 57.0932 1345.92 540.013
2530 0 82.2161 13.9146 1144 55.2876 1346.67 539.1
2531 0 85.2786 14.9627 1276 54.0517 1346.04 538.327
2532 0 88.1786 13.5747 1197 55.619 1346.23 536.478
2533 0 89.266 13.5102 1206 55.4702 1346.2 534.329
2534 0 93.3252 13.3083 1242 55.756 1346.41 531.743
2535 0 97.235 14.1924 1380 54.2333 1345.78 530.569
2536 0 101.411 14.1011 1430 54.4965 1345.79 527.494
2537 1 53.3434 11.1729 596 55.2584 1344.54 552.673
2538 0 53.3125 10.8605 579 56.8325 1344.41 551.389
2539 0 55.3023 12.73 704 55.5014 1344.8 549.413
2540 0 59.275 12.4167 736 55.2446 1344.36 549.694
2541 0 62.041 13.7651 854 54.1089 1345.44 550.882
2542 0 63.0583 13.9395 879 54.1627 1345.75 550.857
2543 0 64.0662 13.5797 870 55.1747 1345.76 549.664
2544 0 65.1295 13.0356 849 55.8598 1345.47 549.515
2545 0 68.2042 13.5915 927 54.6483 1345.66 549.853
2546 0 70.0768 13.157 922 55.2505 1345.46 546.58
2547 0 74.2485 13.3471 991 54.4178 1345.17 547.177
2548 0 74.0737 12.7846 947 55.2101 1344.93 546.9
2549 0 76.1515 12.9085 983 55.8393 1344.8 543.558
2550 0 77.264 12.5285 968 56.5661 1344.91 543.543
2551 0 82.1056 13.2756 1090 54.8826 1345.11 542.506
2552 0 85.2833 13.1562 1122 55.2077 1345.42 541.2
2553 0 87.0917 13.526 1178 54.4592 1345.62 539.479
2554 0 88.1874 12.7342 1123 55.7222 1344.91 538.352
2555 0 93.0766 13.3761 1245 54.6249 1345.15 538.164
2556 1 53.0446 10.8399 575 54.8991 1344.99 559.12
2557 0 51.076 11.1794 571 56.282 1344.99 556.18
2558 0 55.2311 12.1489 671 55.1669 1344.97 554.002
2559 0 57.1008 11.7336 670 55.7716 1344.93 553.322
2560 0 58.0718 11.813 686 55.7128 1344.87 553.506
2561 0 60.0998 12.4127 746 54.4906 1345.13 551.638
2562 0 63.2417 12.8871 815 54.2429 1344.63 550.276
2563 0 64.2029 13.8779 891 53.9652 1344.55 547.88
2564 0 66.237 12.9837 860 54.1384 1344.24 548.115
2565 0 68.2624 13.5507 925 53.9286 1343.95 547.662
2566 0 72.2643 14.2809 1032 54.6405 1344.11 545.306
2567 0 73.4725 13.9916 1028 55.7267 1343.96 544.202
2568 0 74.471 14.3412 1068 55.8006 1344.2 543.647
2569 0 75.3916 13.4763 1016 57.1496 1344.08 542.606
2570 0 80.3294 13.8181 1110 56.6955 1343.87 540.606
2571 0 80.3314 13.0958 1052 58.5076 1343.71 538.874
2572 0 86.4083 14.0959 1218 57.3005 1343.36 538.093
2573 0 88.4783 14.2069 1257 57.1893 1343.98 536.115
2574 0 91.2415 14.2369 1299 57.7136 1343.98 534.159
2575 0 95.4284 15.3728 1467 56.2992 1343.58 534.762
2576 1 51.3032 11.5782 594 59.3838 1343.5 555.576
2577 0 51.4653 12.0469 620 57.65 1343.35 558.695
2578 0 51.4653 12.1247 624 173.147 1342.33 558.824
2579 0 53.3726 13.2465 707 58.4158 1343.34 553.653
2580 0 55.2151 12.9856 717 58.4072 1343.1 552.491
2581 0 57.2956 12.514 717 58.6457 1343.85 551.812
2582 0 61.7379 13.6545 843 56.8505 1343.83 550.027
2583 0 62.4417 12.5557 784 58.3941 1343.95 549.324
2584 0 64.5025 13.7824 889 56.4398 1343.83 548.164
2585 0 66.3677 12.717 844 57.6848 1343.3 546.818
2586 0 67.2853 13.4353 904 57.0498 1343.73 544.045
2587 0 71.5067 13.5232 967 56.4219 1343.58 544.169
2588 0 73.4774 13.215 971 57.2152 1343.61 542.333
2589 0 74.4278 13.5568 1009 56.3429 1343.56 540.498
2590 0 78.6896 12.8479 1011 56.5885 1344.2 539.622
2591 0 82.4574 13.6919 1129 55.6422 1344.15 538.43
2592 0 85.4649 14.3568 1227 55.057 1344.36 535.848
2593 0 85.3935 13.2094 1128 56.4574 1344.26 535.529
2594 0 89.4538 15.1251 1353 54.1914 1344.48 533.496
2595 0 90.6409 13.7135 1243 55.8858 1344.56 532.715
2596 0 94.3447 12.8995 1217 56.562 1344.57 531.826
2597 0 97.4431 14.4392 1407 54.71 1345 531.148
2598 1 52.3952 12.1958 639 56.615 1345 551.66
2599 0 52.3811 11.6645 611 57.1735 1345.55 550.272
2600 0 54.6822 12.1063 662 56.577 1345.76 550.153
2601 0 57.3302 13.0996 751 55.8269 1345.82 547.803
2602 0 61.1922 13.5965 832 54.3077 1346.08 548.364
2603 0 61.3395 13.1563 807 54.6109 1346.41 546.514
2604 0 63.7366 13.3204 849 54.5772 1346.32 545.317
2605 0 67.4998 13.0223 879 54.6496 1346.32 543.9
2606 0 67.6258 13.6486 923 54.1668 1346.57 544.557
2607 0 69.459 13.9651 970 54.5093 1346.96 541.157
2608 0 72.7589 13.7028 997 54.3962 1347.15 539.927
2609 0 74.464 13.3353 993 54.9406 1347.02 539.541
2610 0 76.7843 14.1435 1086 54.2726 1347.11 537.083
2611 0 79.6094 13.7672 1096 54.7591 1347.57 535.715
2612 0 83.7364 13.9008 1164 54.6065 1347.73 533.855
2613 0 86.4154 13.7013 1184 54.4147 1348.36 532.667
2614 0 88.6264 14.1831 1257 53.9364 1349.33 531.648
2615 0 93.6861 13.4492 1260 54.4627 1349.08 530.133
2616 0 96.4982 13.4925 1302 54.2427 1349.07 528.136
2617 1 53.3977 11.4612 612 54.3742 1348.65 550.384
2618 0 55.4354 11.9779 664 53.3509 1348.75 549.146
2619 0 58.5313 12.7966 749 52.745 1348.18 547.959
2620 0 59.627 12.1925 727 53.0481 1348.55 546.109
2621 0 61.6347 12.8337 791 52.3793 1348.73 544.769
2622 0 61.544 13.0963 806 52.4504 1348.99 544.032
2623 0 64.5531 13.2139 853 51.9707 1349.02 542.216
2624 0 66.5362 13.271 883 51.5198 1348.97 540.266
2625 0 69.5348 12.8425 893 51.897 1348.91 539.308
2626 0 73.6395 14.3809 1059 49.8168 1348.26 539.227
2627 0 75.5593 13.2611 1002 50.6986 1348.63 537.613
2628 0 76.3244 13.5474 1034 50.7224 1348.49 534.052
2629 0 79.5916 13.1798 1049 50.613 1348.34 534.248
2630 0 82.3018 12.685 1044 51.0623 1348.69 532.043
2631 0 85.2372 13.527 1153 50.2966 1349.12 528.991
2632 0 88.5285 12.5948 1115 50.9004 1349.19 529.19
2633 0 92.3413 13.9374 1287 49.7521 1348.78 527.338
2634 1 51.2407 11.1435 571 50.2014 1348 548.51
2635 0 55.0798 11.1656 615 50.3268 1349.17 547.87
2636 0 57.0909 11.3678 649 50.4715 1349.15 545.903
2637 0 58.1625 12.1212 705 50.9135 1349 548.677
2638 0 61.5975 13.6856 843 49.1317 1348.84 545.431
2639 0 63.4287 13.0383 827 49.607 1348.47 545.46
2640 0 66.4359 12.418 825 50.1552 1348.45 542.747
2641 0 67.4388 12.9451 873 49.543 1348.44 542.68
2642 0 69.5844 12.3447 859 50.2421 1348.03 541.51
2643 0 70.3929 13.0695 920 50.0457 1347.79 540.278
2644 0 73.4609 12.6326 928 50.236 1347.88 539.051
2645 0 78.448 13.2572 1040 49.4856 1347.8 536.085
2646 0 78.6119 13.7384 1080 49.2009 1347.81 536.967
2647 0 81.4761 13.82 1126 49.333 1348.11 535.566
2648 0 82.3056 13.3041 1095 50.4658 1347.71 531.934
2649 0 85.6184 13.2448 1134 49.5829 1347.53 532.296
2650 0 86.3801 12.9312 1117 48.8782 1348.01 530.667
2651 0 90.3217 13.0755 1181 48.5377 1348.08 528.516
2652 0 94.4117 13.6741 1291 47.9016 1347.43 528.06
2653 1 50.0106 9.9179 496 49.2681 1346.58 549.333
2654 0 53.0441 10.3687 550 49.0927 1346.47 548.635
2655 0 56.1873 12.1558 683 47.4407 1347.97 548.953
2656 0 56.1153 11.9041 668 48.0584 1347.45 549.56
2657 0 61.0819 12.7697 780 46.8833 1347.56 548.522
2658 0 62.2304 11.8592 738 47.9959 1346.91 548.163
2659 0 62.1329 12.3123 765 47.8627 1346.68 547.678
2660 0 66.1623 12.6809 839 47.0381 1346.34 547.815
2661 0 67.0316 13.4862 904 46.6604 1346.2 546.035
2662 0 70.1886 13.4495 944 46.5201 1346.27 546.107
2663 0 72.1663 13.2749 958 47.0825 1346.2 542.496
2664 0 74.2584 13.0356 968 47.2314 1346.66 540.561
2665 0 77.1685 13.3992 1034 46.8114 1346.76 541.235
2666 0 78.2393 12.9091 1010 47.7653 1346.85 538.991
2667 0 81.3124 12.8394 1044 47.6715 1347.15 539.801
2668 0 82.4701 12.9259 1066 48.5375 1347.17 536.076
2669 0 86.2576 13.1814 1137 48.0774 1347.52 535.529
2670 0 89.3942 13.3454 1193 48.2154 1347.46 533.649
2671 0 92.5276 13.3366 1234 47.7269 1347.69 529.545
2672 0 92.3676 12.591 1163 49.0482 1347.38 531.111
2673 0 97.4888 13.6734 1333 48.2153 1347.24 530.451
2674 0 102.589 12.9839 1332 49.0518 1347.08 528.194
2675 1 54.2511 11.4836 623 49.4173 1346.5 549.429
2676 0 56.0432 12.4011 695 48.7209 1345.96 549.295
2677 0 59.114 12.6874 750 48.5547 1346.05 548.145
2678 0 60.0721 13.1842 792 48.4874 1346.44 547.46
2679 0 62.1513 13.4189 834 47.8777 1346.76 546.173
2680 0 64.1845 12.9626 832 48.625 1346.06 545.528
2681 0 64.1131 12.0256 771 49.6213 1345.35 544.525
2682 0 68.289 13.2964 908 47.6927 1345.37 545.95
2683 0 70.2475 13.6944 962 47.5312 1344.86 544.627
2684 0 72.154 12.7366 919 48.2481 1344.94 544.933
2685 0 74.125 12.2766 910 49.1022 1345.19 542.636
2686 0 75.1062 13.2612 996 48.6094 1345.38 542.09
2687 0 77.2989 13.1309 1015 48.7488 1345.49 541.629
2688 0 81.2635 13.3762 1087 48.598 1345.2 539.628
2689 1 44.0573 9.23797 407 50.2039 1344.5 558.936
2690 0 43.1212 11.3401 489 49.4335 1345.01 557.759
2691 0 48.1057 12.0152 578 48.4567 1345.54 556.367
2692 0 48.2223 10.6382 513 49.3197 1345.87 558.676
2693 0 50.063 11.4656 574 49.2038 1345.63 556.74
2694 0 51.0484 12.6155 644 49.0885 1345.56 554.531
2695 0 51.1557 12.7845 654 49.4587 1344.63 552.813
2696 0 54.3457 12.1445 660 50.053 1345.37 553.809
2697 0 56.2033 13.3978 753 49.1076 1345.13 553.445
2698 0 56.1504 12.609 708 50.6384 1344.09 551.794
2699 0 57.0919 12.7339 727 50.8404 1344.08 551.575
2700 0 60.3288 12.9126 779 50.4981 1344.05 550.271
2701 0 62.1311 13.2623 824 50.3738 1344.52 549.169
2702 0 64.2138 12.801 822 51.1022 1344.41 548.978
2703 0 65.6227 12.3281 809 51.6972 1344.57 548.35
2704 0 69.301 13.4919 935 49.861 1344.84 548.588
2705 0 70.3334 14.4881 1019 49.4868 1345.15 547.919
2706 0 73.3203 13.0523 957 50.6583 1345.41 545.95
2707 0 73.3543 12.4464 913 52.0296 1345.11 544.647
2708 0 75.5822 12.7146 961 51.743 1344.76 543.04
2709 0 80.6066 13.9195 1122 49.9367 1344.69 541.422
2710 0 82.2668 13.4197 1104 50.9284 1344.48 538.922
2711 0 86.2591 14.1666 1222 49.4812 1345.07 539.648
2712 0 87.3455 13.3264 1164 50.8187 1344.89 535.997
2713 1 49.2238 11.0922 546 51.7729 1344.76 556.048
2714 0 50.3176 10.0362 505 52.6238 1344.51 556.291
2715 0 54.1618 11.3549 615 51.1756 1343.99 556.237
2716 0 52.1334 12.5831 656 49.2881 1343.81 554.422
2717 0 55.0875 12.7434 702 49.0385 1344.17 553.016
2718 0 56.0653 13.1454 737 48.4708 1344.15 552.923
2719 0 57.3362 12.2436 702 50.5826 1343.63 551.503
2720 0 60.2134 12.8211 772 49.2811 1343.36 553.136
2721 0 62.0942 12.9481 804 49.6928 1343.56 550.888
2722 0 63.2464 12.6964 803 50.2204 1343.59 549.027
2723 0 64.241 13.7762 885 48.9085 1343.9 550.655
2724 0 69.3062 13.2744 920 48.5902 1344.19 550.014
2725 0 69.311 13.3457 925 48.8519 1344.19 548.635
2726 0 72.3837 14.3402 1038 47.9499 1344.78 546.74
2727 0 74.5122 13.1119 977 49.5486 1344.85 544.424
2728 0 76.4076 13.7683 1052 49.02 1344.99 545.012
2729 0 80.5499 13.9417 1123 48.7284 1344.83 542.388
2730 0 81.5391 13.098 1068 49.6948 1344.82 539.631
2731 0 85.6203 13.2445 1134 49.3192 1344.49 539.802
