time division length width area intensity CMx CMy
0 0 57.3052 12.6516 725 69.8124 953.058 563.49
1 0 58.417 13.5748 793 91.4868 952.265 564.095
2 0 56.3744 11.9026 671 161.162 952.441 561.981
3 0 60.1655 12.4324 748 71.9973 952.743 560.472
4 0 60.1655 12.4989 752 165.045 953.735 560.499
5 0 67.2935 12.7947 861 72.9466 952.684 559.532
6 0 66.237 11.7004 775 76.7123 952.504 558.516
7 0 69.2857 13.0186 902 74.3282 952.474 555.748
8 0 73.2207 13.0564 956 74.4665 952.768 555.335
9 0 74.2149 12.2347 908 77.0044 952.565 553.726
10 1 40.1346 10.2904 413 77.4286 951.722 570.494
11 0 41.2438 10.5713 436 77.9358 951.44 570.342
12 0 42.1374 10.7031 451 77.6231 951.705 569.31
13 0 43.1714 11.4659 495 76.8909 951.372 568.675
14 0 44.356 12.1742 540 77.4389 952.504 570.1
15 0 45.3183 12.004 544 78.9448 952.688 567.456
16 0 47.3565 11.5507 547 78.3327 952.876 567.144
17 0 50.2487 11.9008 598 76.4883 952.082 565.416
18 0 52.2912 11.5316 603 76.2372 951.667 564.582
19 0 54.2499 12.5162 679 73.3829 951.879 562.673
20 0 55.2507 12.2532 677 73.966 951.31 562.422
21 0 57.1173 11.8178 675 72.3822 951.367 561.227
22 0 58.2543 12.3596 720 70.9347 951.601 561.696
23 0 59.1733 13.2154 782 71.2008 951.485 560.636
24 0 62.2939 12.6176 786 71.1081 951.911 559.317
25 0 63.1639 12.7604 806 71.5782 952.002 558.671
26 0 67.3899 13.6964 923 69.3207 952.115 555.807
27 0 68.2076 13.0631 891 71.2132 952.426 555.015
28 0 69.2904 12.96 898 71.8586 952.455 555.718
29 0 73.3575 12.0642 885 73.1164 952.553 554.685
30 0 74.4062 12.2167 909 73.3432 952.978 553.933
31 1 40.2221 10.7901 434 72.5415 952.41 570.486
32 0 43.1104 11.2038 483 72.9876 952.669 568.77
33 0 44.1966 10.5438 466 73.1481 953.157 569.901
34 0 45.1647 11.0485 499 72.2886 953.028 569.154
35 0 47.1862 11.4016 538 72.3903 953.275 566.433
36 0 51.2385 12.3345 632 69.5728 953.582 566.066
37 0 50.2236 11.4687 576 72.2969 953.646 564.995
38 0 53.2807 12.1995 650 70.5385 953.754 564.323
39 0 56.3319 12.1601 685 69.9358 953.626 563.188
40 0 57.3939 13.2418 760 68.3303 954.2 560.395
41 0 58.4063 12.7384 744 68.9731 953.598 561.395
42 0 58.1791 10.9318 636 72.0377 953.862 559.945
43 0 61.1878 12.7967 783 68.7458 954.023 558.224
44 0 63.2791 12.0419 762 69.2034 954.201 557.941
45 0 64.1776 12.294 789 68.8504 954.55 557.526
46 0 66.2391 12.4398 824 69.1456 955.095 554.616
47 0 68.1346 12.1818 830 68.9265 954.468 555.545
48 0 72.3768 12.3935 897 68.4125 955.057 552.535
49 0 76.2818 13.555 1034 66.1954 954.588 552.582
50 0 77.2896 12.5761 972 67.5381 954.76 553.278
51 0 79.2854 12.7514 1011 68.0089 954.869 548.889
52 0 81.3039 12.1396 987 69.073 954.919 548.677
53 0 84.245 14.0424 1183 66.7684 954.985 548.418
54 0 87.3156 13.5829 1186 67.4705 954.3 543.953
55 0 90.253 12.4871 1127 62.252 955.267 542.599
56 0 93.448 12.5738 1175 62.7226 955.546 540.98
57 0 97.316 13.5846 1322 61.1982 955.21 541.34
58 0 100.332 13.3257 1337 62.0823 955.296 539.128
59 1 55.2494 9.33946 516 63.2752 955.122 564.291
60 0 56.1579 10.7732 605 63.3207 955.531 564.066
61 0 58.1467 10.1124 588 65.2908 955.117 562.206
62 0 58.2759 11.6 676 64.3521 955.306 560.01
63 0 64.0946 12.466 799 62.627 955.045 559.125
64 0 65.2988 12.5117 817 63.4872 955.459 557.853
65 0 66.2077 12.1738 806 64.5943 955.365 556.38
66 0 69.2134 12.4398 861 64.4913 955.705 554.763
67 0 70.319 12.2869 864 65.3044 956.19 551.633
68 0 74.2515 12.7405 946 65.1385 956.073 552.56
69 0 76.2293 13.8267 1054 63.5816 955.608 551.266
70 0 79.223 13.3168 1055 64.5062 955.81 549.866
71 0 82.3284 15.0131 1236 62.6958 955.619 546.175
72 0 84.1658 13.3902 1127 65.5439 956.159 546.494
73 0 86.3444 14.0137 1210 65.7967 956.583 543.454
74 0 89.2419 12.6958 1133 67.5375 956.652 544.432
75 0 93.2149 13.5171 1260 66.8833 956.674 541.196
76 0 94.4078 12.8591 1214 68.1944 956.432 540.161
77 1 50.1643 10.8643 545 67.7248 956.27 561.868
78 0 53.1294 10.8415 576 68.7812 955.995 559.745
79 0 55.1195 12.0103 662 68.0997 956.322 558.577
80 0 57.1909 12.7118 727 67.447 956.934 555.281
81 0 57.1661 12.1401 694 69.196 957.28 555.076
82 0 62.2468 12.4826 777 67.4208 958.008 554.731
83 0 61.1942 12.3378 755 68.9417 958.166 553.989
84 0 65.1875 13.1774 859 67.3388 958.634 552.435
85 0 66.3825 12.8799 855 67.6854 958.76 549.809
86 0 66.3251 12.9363 858 67.5606 958.471 549.613
87 0 70.3006 13.5703 954 65.4099 958.628 547.269
88 0 71.2234 14.0684 1002 64.008 958.452 547.014
89 0 73.4555 13.0828 961 64.0198 958.566 545.463
90 0 75.1972 13.6707 1028 64.3774 959.454 543.518
91 0 77.2785 13.4061 1036 67.8938 960.055 541.149
92 0 80.2922 13.289 1067 69.686 960.192 540.253
93 0 81.4264 13.5583 1104 68.1024 961.126 540.165
94 0 85.237 13.703 1168 67.1944 960.8 537.235
95 0 87.2229 13.8381 1207 63.7357 960.997 537.176
96 0 90.2457 13.8289 1248 63.5609 961.253 534.816
97 0 94.3998 14.0678 1328 87.1649 961.465 533.921
98 0 98.3733 15.0244 1478 60.1069 961.313 533.641
99 1 50.1459 11.985 601 62.7754 959.955 556.073
100 0 52.2873 11.8958 622 64.2846 960.109 555.683
101 0 54.2847 11.9002 646 66.1269 960.947 553.923
102 0 55.193 12.2117 674 68.3249 961.077 552.384
103 0 56.2161 12.5765 707 64.1796 960.546 551.147
104 0 58.3987 12.8085 748 63.0963 960.348 551.622
105 0 58.3042 12.349 720 65.6611 960.332 550.032
106 0 58.3042 12.4005 723 168.071 959.324 549.989
107 0 64.2728 13.007 836 66.9246 960.267 548.882
108 0 64.2122 12.6456 812 68.9594 960.284 546.377
109 0 66.3164 13.0435 865 67.7491 960.349 544.976
110 0 67.2741 12.9322 870 67.7345 960.268 544.342
111 0 70.3277 13.2949 935 66.9155 960.502 544.032
112 0 70.3277 13.3944 942 169.97 959.514 544.002
113 0 75.3404 12.782 963 66.4237 960.51 540.571
114 0 78.2421 12.5252 980 66.1204 960.409 539.965
115 0 80.3506 13.0802 1051 65.8344 960.519 536.946
116 0 83.2728 13.1495 1095 64.8192 960.393 535.401
117 0 88.236 13.3392 1177 63.6924 960.506 534.988
118 1 43.1953 11.1123 480 63.6083 959.667 556.577
119 0 45.3852 11.5897 526 63.0551 959.886 554.85
120 0 47.2491 10.8785 514 64.1751 959.992 554.428
121 0 49.337 10.9857 542 63.3192 959.985 554.705
122 0 49.2948 11.6442 574 62.8188 960.002 552.157
123 0 52.2499 12.8421 671 60.7273 959.638 550.599
124 0 55.3385 12.1254 671 60.6662 959.319 553.177
125 0 54.1712 12.0728 654 61.6132 958.998 552.261
126 0 56.2626 11.8374 666 61.2628 958.327 551.356
127 0 56.1882 12.1378 682 62.2273 958.095 549.544
128 0 56.1451 11.595 651 62.6144 958.318 549.874
129 0 60.2296 12.1867 734 61.8324 958.046 548.772
130 0 62.2109 12.747 793 61.4956 958.388 547.822
131 0 63.2046 12.5624 794 62.5945 957.764 546.626
132 0 64.2554 12.5904 809 63.4648 957.99 545.685
133 0 66.2125 13.1697 872 63.0046 957.859 545.73
134 0 68.2096 13.8983 948 62.4546 958.039 543.191
135 0 71.2704 13.3856 954 63.1373 957.96 543.825
136 0 73.3266 13.4058 983 63.5738 958.126 543.494
137 0 76.2101 12.3868 944 65.2225 958.508 541.834
138 1 40.1812 9.68114 389 65.2699 957.53 560.139
139 0 41.2589 10.1312 418 63.7057 957.562 561.153
140 0 42.2053 11.2071 473 64.888 957.619 557.412
141 0 43.2424 9.57395 414 66.1014 957.328 559.42
142 0 44.2148 11.3084 500 65.1 957.832 558.34
143 0 45.1291 10.3924 469 66.1684 957.043 558.301
144 0 47.2187 12.5374 592 63.8953 957.596 554.25
145 0 48.1977 11.5151 555 65.4144 957.227 554.706
146 0 50.242 13.1563 661 63.5416 957.723 552.425
147 0 51.3495 12.8336 659 64.0804 957.522 553.085
148 0 54.1551 12.7042 688 63.4811 957.73 553.41
149 0 55.1983 12.591 695 64.3813 957.833 551.865
150 0 55.2192 11.391 629 66.213 957.862 551.25
151 0 57.222 11.7437 672 64.8884 957.746 550.817
152 0 59.2593 12.3862 734 64.1376 957.56 549.729
153 0 59.263 12.1324 719 64.4256 957.332 551.097
154 0 61.1709 12.4896 764 63.8717 956.804 550.02
155 0 62.1981 12.5245 779 64.1669 956.75 548.701
156 0 67.1932 13.3645 898 61.8653 956.984 546.244
157 0 67.1932 13.3793 899 150.59 957.993 546.232
158 0 69.2415 12.5214 867 63.6494 957.062 545.481
159 0 73.1669 13.2027 966 63.0662 957.066 542.709
160 0 73.2806 12.9093 946 63.4884 957.298 543.108
161 0 76.2839 11.8111 901 64.6748 957.662 541.199
162 0 81.2496 12.0862 982 64.4623 957.406 539.638
163 0 83.2002 12.8846 1072 63.7575 957.265 539.329
164 0 85.2727 12.8881 1099 64.5414 958.139 536.07
165 0 90.2418 12.7657 1152 64.6415 957.608 536.665
166 1 46.2792 10.0261 464 65.3082 957.325 555.832
167 0 47.2228 11.9646 565 63.6867 957.324 555.796
168 0 49.208 12.6402 622 63.1897 957.629 554.686
169 0 52.22 11.0877 579 64.6269 957.646 555.478
170 0 53.2552 12.2429 652 63.3819 958.008 552.276
171 0 53.2111 11.7269 624 64.9952 957.718 551.841
172 0 55.2044 12.336 681 65.1645 958.063 550.564
173 0 56.1867 11.3016 635 66.6142 957.803 550.997
174 0 58.2513 12.1886 710 65.9479 958.07 548.813
175 0 60.2154 12.6214 760 65.7526 958.186 548.149
176 0 60.297 12.8696 776 66.2229 958.336 546.894
177 0 63.156 12.287 776 66.8802 958.624 545.78
178 0 65.1632 13.7654 897 64.9208 958.848 544.716
179 0 65.2007 12.5612 819 66.9463 959.482 544.388
180 0 71.2579 12.8407 915 65.6022 959.546 542.633
181 0 71.3136 12.9709 925 65.9643 959.906 542.04
182 0 74.3877 13.107 975 66.0831 960.24 538.94
183 0 77.23 12.8577 993 65.8026 960.199 539.826
184 0 80.3084 12.5142 1005 66.593 960.482 536.712
185 1 43.2008 10.347 447 65.0112 959.501 556.727
186 0 43.1491 10.3826 448 64.6942 959.438 555.105
187 0 45.1452 11.3855 514 64.3735 959.642 552.934
188 0 46.12 10.928 504 64.8532 959.643 552.756
189 0 49.3114 11.0319 544 64.5165 960.818 551.485
190 0 50.2237 10.4931 527 65.3074 960.6 551.165
191 0 52.2548 11.9989 627 64.7735 960.525 549.451
192 0 52.3896 11.8344 620 65.671 961.494 547.848
193 0 56.2384 11.8247 665 64.2707 961.197 546.875
194 0 58.4077 12.1731 711 62.4458 961.149 546.089
195 0 58.4035 12.5677 734 62.6117 961.422 545.109
196 0 58.2925 11.9226 695 65 961.491 544.119
197 0 60.4346 11.5993 701 67.2168 962.077 543.382
198 0 64.2753 12.4465 800 65.855 962.409 541.872
199 0 64.2638 12.0597 775 66.8594 962.493 541.064
200 0 69.3028 13.1885 914 64.4923 962.643 540.28
201 0 68.2286 12.6633 864 65.8843 962.394 539.438
202 0 72.3114 13.027 942 65.6422 963.051 537.321
203 0 74.3168 12.662 941 65.6482 963.54 536.888
204 0 76.1992 12.9266 985 66.0193 963.135 533.949
205 1 41.1944 10.0742 415 65.8217 962.868 551.998
206 0 41.1944 10.0742 415 155.872 963.892 551.959
207 0 44.1512 10.1923 450 65.7267 962.589 552.307
208 0 44.1792 11.2723 498 66.5703 962.956 551.498
209 0 46.3138 12.1994 565 65.4478 962.526 550.687
210 0 48.3701 12.9212 625 65.4192 962.685 550.176
211 0 48.3175 12.2109 590 67.017 962.992 549.1
212 0 49.255 12.3642 609 67.4236 962.396 548.957
213 0 52.3324 12.3059 644 66.9053 962.792 548.16
214 0 53.188 12.6532 673 66.5572 962.178 546.743
215 0 55.2836 11.9746 662 67.858 961.97 547.719
216 0 56.2794 12.6156 710 66.9986 962.437 546.337
217 0 58.2865 13.5194 788 66.0876 961.957 545.261
218 0 58.3439 13.0605 762 66.8596 962.467 545.148
219 0 60.2069 12.6896 764 67.6296 963.377 544.486
220 0 62.223 13.1945 821 66.4324 962.296 543.79
221 0 65.1617 13.1059 854 66.4543 962.354 542.566
222 0 65.1617 13.1212 855 157.877 962.366 542.494
223 0 70.1752 13.0815 918 66.2604 961.7 541.333
224 0 70.1809 13.1517 923 67.2481 962.21 540.023
225 0 72.2641 13.0632 944 67.4407 961.828 539.876
226 0 76.1408 13.8822 1057 65.8184 962.087 538.495
227 0 79.1863 13.7903 1092 66.0797 962.025 536.801
228 0 80.2504 13.0342 1046 67.8987 962.463 535.546
229 0 84.287 12.932 1090 67.744 961.942 535.084
230 0 87.2949 13.2997 1161 67.3092 961.692 532.874
231 1 46.2553 10.3123 477 68.3124 960.308 554.857
232 0 49.1789 10.5126 517 66.4662 959.917 555.369
233 0 46.2931 10.1959 472 69.5975 959.604 553.256
234 0 48.2158 12.3404 595 67.2067 959.558 551.229
235 0 51.3013 12.6508 649 66.8814 959.216 551.151
236 0 52.2698 12.799 669 67.6129 959.078 550.764
237 0 53.3034 11.9692 638 69.3025 959.304 548.826
238 0 54.2575 12.3854 672 69.4018 959.086 548.275
239 0 55.1252 12.4807 688 69.2951 958.738 549.446
240 0 58.3918 12.9299 755 67.6464 958.917 548.532
241 0 58.3099 13.4111 782 67.5652 959.412 548.013
242 0 61.2347 12.8522 787 68.1385 959.365 547.431
243 0 63.1717 13.2971 840 67.5286 959.119 546.754
244 0 65.2486 13.0731 853 67.5991 959.183 546.081
245 0 66.2069 12.325 816 69.2953 959.342 544.82
246 0 69.2635 12.3008 852 68.4225 959.52 545.03
247 0 70.1437 11.8329 830 70.5831 959.193 542.34
248 0 75.2396 12.9985 978 67.6155 959.114 542.799
249 0 78.2488 13.751 1076 67.0223 958.989 540.71
250 0 80.2029 12.7926 1026 68.806 959.826 539.385
251 1 44.1644 11.2761 498 70.1165 958.675 555.223
252 0 44.1644 11.2534 497 167.799 957.66 555.231
253 0 47.2592 11.384 538 69.0874 958.902 554.978
254 0 50.3427 11.7395 591 68.9611 959.23 554.293
255 0 50.3484 12.2745 618 68.3544 958.765 554.045
256 0 51.1706 11.5887 593 69.6223 959.025 553.954
257 0 55.2836 11.9565 661 68.7579 958.808 552.268
258 0 55.09 11.5629 637 69.967 958.669 551.253
259 0 59.2123 12.0245 712 68.6152 958.507 551.024
260 0 61.3318 11.984 735 68.0367 958.063 550.601
261 0 63.2145 12.2598 775 68.1806 959.097 548.557
262 0 64.315 12.5165 805 68.2186 958.959 545.765
263 0 65.2925 11.9616 781 68.8873 958.352 547.126
264 0 70.1726 12.569 882 66.771 958.442 547.231
265 0 73.1601 12.5615 919 66.6921 958.326 545.706
266 0 73.2563 11.9171 873 68.2932 958.159 544.27
267 0 75.207 12.685 954 68.217 958.753 541.508
268 0 81.4391 13.5684 1105 66.0507 958.848 540.053
269 0 82.3155 13.2296 1089 67.0882 959.164 538.43
270 0 84.3441 11.9155 1005 68.6358 959.652 538.306
271 1 43.2294 9.87755 427 68.7986 958.555 557.588
272 0 46.2964 10.1736 471 68.121 958.792 557.452
273 0 47.1701 11.2783 532 66.5019 958.976 555.568
274 0 50.1347 11.8481 594 65.335 958.87 554.47
275 0 51.1534 12.2963 629 64.3927 958.283 554.204
276 0 50.05 11.4086 571 67.7986 958.243 553.545
277 0 53.1283 11.6322 618 66.2896 958.223 553.267
278 0 54.0463 11.4901 621 66.8019 958.948 551.246
279 0 55.1803 11.4534 632 67.5253 958.744 551.055
280 0 57.3204 12.9099 740 65.3892 959.068 550.034
281 0 59.31 12.7635 757 65.7583 959.787 548.378
282 0 61.3198 12.4104 761 66.0959 959.784 546.665
283 0 62.5044 13.4551 841 64.4887 959.867 546.797
284 0 65.3788 13.2459 866 65.2783 959.908 545.271
285 0 67.2983 13.0761 880 65.283 960.191 543.548
286 0 70.3349 12.8812 906 65.1049 960.888 543.443
287 0 72.4459 12.8234 929 64.9709 960.79 542.786
288 0 75.2205 13.2677 998 64.6202 961.483 540.25
289 0 77.4375 13.9209 1078 63.5909 961.494 538.27
290 0 78.4926 12.791 1004 65.2699 961.701 538.872
291 0 82.4811 13.494 1113 64.5202 962.233 535.206
292 1 46.3241 10.7072 496 64.2702 961.879 554.196
293 0 44.2805 11.2239 497 64.5996 962.199 553.181
294 0 46.3185 11.2482 521 64.2764 962.209 551.933
295 0 47.136 12.6655 597 63.0134 962.541 552.199
296 0 50.2682 11.7768 592 63.3885 962.304 551.302
297 0 51.172 12.3114 630 62.819 962.521 550.297
298 0 52.2001 12.6628 661 63.2557 962.894 548.573
299 0 52.1126 12.1276 632 64.2184 962.764 547.959
300 0 55.1188 12.2281 674 63.4748 962.815 546.685
301 0 57.1989 12.4303 711 62.9986 963 545.916
302 0 60.165 13.4297 808 61.021 963.467 545.038
303 0 60.2174 13.2188 796 61.6658 963.677 544.221
304 0 60.2079 12.8388 773 62.3661 963.503 543.455
305 0 64.2394 12.718 817 61.8715 963.447 542.433
306 0 64.2281 13.0005 835 61.9234 964.22 541.605
307 0 67.1606 12.6413 849 61.9764 964.114 540.214
308 0 67.1865 13.2318 889 61.6873 964.078 539.115
309 0 70.1548 12.5579 881 61.8207 963.781 539.492
310 0 71.1349 13.0175 926 61.703 963.59 537.877
311 0 74.2669 13.5861 1009 61.3261 964.315 536.453
312 0 77.25 12.6602 978 62.2178 964.001 537.28
313 0 79.1729 13.8936 1100 61.5418 964.335 532.917
314 0 80.2186 13.3386 1070 62.6757 964.183 532.489
315 0 83.137 13.3875 1113 62.9488 963.723 530.872
316 0 86.171 13.7981 1189 62.9142 963.102 529.9
317 0 92.1967 13.6447 1258 62.8291 963.609 528.294
318 0 92.2392 13.0097 1200 64.1583 963.062 527.963
319 1 49.0884 11.1432 547 64.4424 962.294 549.402
320 0 49.0596 11.272 553 64.7504 962.57 548.476
321 0 52.0607 11.7363 611 63.7954 962.028 548.002
322 0 54.1052 12.716 688 63.1148 962.049 546.156
323 0 55.203 12.2276 675 64.1037 962.464 544.935
324 0 56.2052 12.49 702 63.7792 962.122 545.685
325 0 58.1021 12.3231 716 63.7947 963.131 544.504
326 0 60.1531 13.2662 798 63.4311 962.751 542.817
327 0 64.1659 13.4339 862 61.79 962.706 541.771
328 0 64.1858 12.3548 793 63.8537 962.493 541.067
329 0 67.2343 12.4788 839 63.3242 961.971 540.019
330 0 69.1811 13.0093 900 62.6667 961.989 538.568
331 0 72.2813 12.7834 924 62.6678 962.074 536.856
332 0 74.2421 12.4592 925 62.893 961.67 537.308
333 0 77.1751 13.0612 1008 62.3184 961.956 535.213
334 0 80.1047 12.5586 1006 63.0457 961.572 534.318
335 0 82.1587 13.4739 1107 61.785 961.331 532.878
336 0 85.2539 12.5977 1074 62.7877 961.656 530.45
337 0 88.1812 13.8578 1222 61.3429 961.351 529.311
338 0 90.1873 12.474 1125 62.9493 960.957 528.156
339 1 45.1377 9.32702 421 62.4252 959.876 552.223
340 0 48.0893 10.6469 512 60.9805 959.856 551.652
341 0 47.0842 10.9591 516 62.0116 959.944 549.5
342 0 50.1849 10.6805 536 61.3731 959.937 549.812
343 0 51.1394 11.9477 611 60.5548 959.864 547.075
344 0 52.1398 11.45 597 61.8057 960.559 546.529
345 0 55.169 11.9632 660 60.8121 959.642 547.126
346 0 55.2573 10.6049 586 61.7935 960.712 548.056
347 0 58.2432 11.658 679 61.6392 960.664 544.505
348 0 60.2907 12.4895 753 60.263 960.163 544.404
349 0 64.256 12.4346 799 59.806 960.544 543.718
350 0 65.2024 13.4197 875 59.0674 960.189 542.878
351 0 68.1537 13.6016 927 58.2611 960.187 543.657
352 0 69.1795 12.6049 872 60.0516 959.907 541.737
353 0 72.2259 13.4024 968 59.374 960.018 539.522
354 0 73.2905 12.2935 901 60.9134 960.081 539.052
355 0 76.1908 13.0068 991 59.9909 960.024 537.323
356 0 78.2021 12.7234 995 60.3638 960.747 537.36
357 0 80.2196 12.8896 1034 60.7224 960.462 534.173
358 0 83.2251 13.1571 1095 59.8968 960.5 533.141
359 0 86.0901 13.149 1132 59.7712 960.207 531.059
360 0 90.1143 13.6049 1226 58.9674 960.298 531.029
361 0 90.2378 12.589 1136 60.5308 960.611 529.751
362 0 93.2188 12.9373 1206 60.1824 960.056 529.06
363 0 98.3193 12.8561 1264 59.6994 960.555 527.671
364 0 99.1724 14.0462 1393 59.1342 960.877 523.279
365 1 52.0722 11.2344 585 59.3111 960.296 547.815
366 0 53.0655 11.4387 607 59.4415 960.333 547.631
367 0 54.0434 11.8423 640 58.5266 960.53 547.37
368 0 57.1244 12.5691 718 57.9136 960.802 546.464
369 0 57.1102 11.7492 671 59.5976 961.332 546.23
370 0 57.2381 12.4218 711 59.5485 961.031 544.526
371 0 60.1592 13.0653 786 58.2506 960.765 543.942
372 0 64.208 13.0825 840 57.7321 961.283 544.104
373 0 65.1654 13.0437 850 58.4753 961.401 542.581
374 0 65.1654 12.9977 847 156.048 962.374 542.625
375 0 70.1512 12.6156 885 59.2328 961.608 540.899
376 0 70.1512 12.6299 886 158.777 960.608 540.861
377 0 74.229 13.5392 1005 58.1771 962.092 535.912
378 0 78.1669 13.8038 1079 58.0334 962.29 535.611
379 0 82.3275 13.7985 1136 57.9084 961.751 534.815
380 0 83.1616 13.3716 1112 59.134 962.139 531.297
381 1 46.2254 11.3141 523 58.5162 961.281 552.26
382 0 47.1624 10.6229 501 59.7565 961.744 551.469
383 0 47.1183 10.6116 500 60.1 962.534 550.716
384 0 51.1248 13.7311 702 56.4516 962.638 548.932
385 0 50.1775 12.6949 637 58.4458 962.785 547.805
386 0 54.2117 12.6357 685 58.5328 963.08 546.647
387 0 54.1455 13.2052 715 57.8909 962.712 546.66
388 0 55.1626 12.8711 710 58.5451 963.124 545.961
389 0 58.208 11.9399 695 60.1583 963.376 545.163
390 0 61.1582 12.5903 770 58.9416 963.843 543.571
391 0 62.2455 13.6556 850 58.2047 963.484 542.294
392 0 66.1561 13.3019 880 58.8818 964.198 541.438
393 0 68.1156 13.5652 924 58.8842 964.092 541.233
394 0 69.2422 13.8355 958 59.3173 964.2 537.592
395 0 70.1281 12.9477 908 60.4493 964.667 538.912
396 0 73.0933 14.3926 1052 58.942 964.249 535.076
397 0 78.2251 14.7267 1152 57.8976 964.332 535.546
398 0 78.163 13.1648 1029 60.8727 964.609 532.897
399 0 81.2531 13.0703 1062 61.339 964.471 531.742
400 1 43.1225 10.8528 468 60.2329 963.959 549.855
401 0 44.0668 10.6656 470 60.9915 963.806 549.234
402 0 44.1015 11.2921 498 60.51 964.151 549.384
403 0 48.2791 10.9571 529 60.8147 964.1 549.405
404 0 49.2203 12.7386 627 59.3301 963.751 547.263
405 0 50.2926 11.2542 566 61.0318 963.887 547.585
406 0 51.2583 12.6028 646 59.644 963.997 546.975
407 0 53.1738 11.9232 634 60.7129 963.592 545.64
408 0 56.2517 12.9063 726 58.416 963.647 544.89
409 0 56.1405 12.1125 680 59.7397 963.824 544.463
410 0 57.3583 12.8316 736 59.8886 963.53 542.808
411 0 60.1331 12.4723 750 59.4347 964.055 542.171
412 0 62.2281 12.0524 750 59.496 964.056 540.74
413 0 65.1395 12.9722 845 58.6615 964.086 537.96
414 0 64.0898 11.8584 760 60.5855 963.57 538.74
415 0 67.1378 12.5265 841 60.0024 964.131 537.545
416 0 71.0522 12.1319 862 59.8074 963.787 537.032
417 0 71.0647 12.763 907 59.4664 963.523 535.013
418 0 75.1742 12.8635 967 59.2864 963.344 533.548
419 0 75.1336 12.5377 942 59.4289 963.165 533.281
420 0 78.0647 12.938 1010 59.1584 962.583 530.386
421 0 83.1313 12.2818 1021 60.1058 962.152 530.409
422 1 45.037 11.4794 517 58.7969 961.868 547.747
423 0 44.1023 10.1809 449 60.3408 961.746 548.682
424 0 48.0339 11.8458 569 57.7873 961.62 548.308
425 0 48.0631 11.9634 575 58.553 961.562 547.021
426 0 49.088 11.734 576 59.5451 961.913 545.398
427 0 51.0952 11.8602 606 58.6964 961.731 546.318
428 0 54.0868 12.5539 679 57.2342 961.781 544.636
429 0 54.0482 11.9523 646 59.4598 961.468 542.519
430 0 55.1375 12.3509 681 58.9956 961.057 543.131
431 0 59.132 11.3306 670 60.206 961.146 541.651
432 0 61.2106 12.4488 762 59.0118 960.693 539.919
433 0 66.2546 13.3274 883 59.1076 960.727 540.849
434 0 68.2829 13.2244 903 60.0111 960.663 539.626
435 0 68.1709 12.4687 850 61.5953 960.361 539.325
436 0 71.1936 12.7259 906 61.6711 960.214 537.558
437 0 75.2959 13.0552 983 61.6602 960.367 535.749
438 0 77.1881 13.357 1031 61.8128 960.473 535.713
439 0 78.2302 12.3098 963 64.5732 960.502 534.841
440 1 40.1825 9.33243 375 64.1493 959.461 553.848
441 0 42.105 10.3076 434 62.3687 959.396 553.691
442 0 40.1045 9.92407 398 63.206 959.585 553.636
443 0 44.0646 11.0974 489 61.9632 959.462 550.215
444 0 45.0935 10.5115 474 62.673 959.928 551.618
445 0 48.2713 11.5804 559 61.9481 960.601 550.587
446 0 49.2537 12.2021 601 63.7421 960.491 550.206
447 0 49.3676 11.384 562 65.7669 960.509 551.071
448 0 51.2627 12.2116 626 64.2891 960.246 550.668
449 0 52.2259 12.3502 645 65.014 960.552 549.478
450 0 55.2415 12.0742 667 65.5562 960.655 548.247
451 0 54.2984 12.063 655 66.4901 960.757 548.336
452 0 57.2199 12.2859 703 66.3599 960.767 547.088
453 0 57.2116 12.4101 710 67.0662 961.463 545.592
454 0 60.2804 12.0769 728 67.0041 961.581 544.766
455 0 63.106 12.994 820 65.7171 961.095 543.113
456 0 64.0861 12.4832 800 66.5775 961.075 542.41
457 0 66.1499 12.1391 803 66.7659 961.331 541.719
458 0 68.0959 13.0845 891 66.0528 960.974 539.522
459 0 70.1226 12.2785 861 66.7398 960.777 540.879
460 0 73.1573 12.726 931 66.3695 961.141 536.807
461 0 77.1577 13.9455 1076 64.4703 961.085 536.058
462 0 78.2003 13.0306 1019 65.7556 961.088 535.046
463 0 81.2027 13.2015 1072 65.3535 960.987 532.283
464 0 83.1489 13.6021 1131 64.6074 960.95 531.216
465 1 43.1587 10.473 452 66.2942 960.883 550.082
466 0 48.0462 10.8645 522 65.2778 960.755 549.887
467 0 50.0847 10.6619 534 64.9401 961.069 549.455
468 0 48.1026 11.2052 539 65.8905 961.236 548.033
469 0 52.1835 11.6895 610 64.1656 961.164 547.726
470 0 52.2365 12.3477 645 65.0744 961.265 547.898
471 0 55.1674 12.163 671 64.7705 961.279 547.15
472 0 57.2545 11.4926 658 65.3587 961.158 546.471
473 0 59.3995 12.3065 731 65.104 961.352 545.457
474 0 61.1964 13.1217 803 64.0598 961.366 545.004
475 0 61.306 13.6202 835 63.5497 961.267 544.096
476 0 65.1698 12.5058 815 64.6356 961.391 543.642
477 0 66.2128 12.9884 860 64.0802 961.548 542.956
478 0 67.3602 12.693 855 64.8924 961.801 541.84
479 0 72.2862 13.6817 989 62.6279 961.965 539.811
480 0 74.1909 13.2766 985 63.4599 961.819 539.656
481 0 75.2308 12.4683 938 64.2068 961.96 538.741
482 0 78.2188 12.8869 1008 63.5288 961.716 537.46
483 0 80.1567 13.1492 1054 62.9336 961.647 537.011
484 0 82.2804 13.3203 1096 62.958 961.439 535
485 1 43.1997 9.79173 423 63.714 960.813 554.792
486 0 45.1122 10.5515 476 62.208 961.107 554.008
487 0 47.2995 11.1629 528 61.767 961.345 552.47
488 0 48.1373 11.3633 547 61.3821 960.943 551.989
489 0 49.2035 12.052 593 61.2681 961.779 550.241
490 0 50.1702 11.4211 573 61.8098 962 549.604
491 0 52.1418 12.5044 652 60.2945 962.347 549.785
492 0 53.1962 13.3656 711 59.7229 962.492 549.762
493 0 55.213 12.1167 669 60.7877 962.432 548.457
494 0 58.1068 12.391 720 59.9542 962.711 547.019
495 0 56.0929 12.1406 681 60.9971 962.809 545.665
496 0 60.1631 12.8152 771 58.8275 962.423 545.541
497 0 60.0826 12.5993 757 59.5244 962.119 543.947
498 0 62.1244 12.652 786 58.9313 962.372 542.3
499 0 67.1461 13.4334 902 57.2772 962.051 541.299
500 0 66.0869 12.5592 830 59.1036 961.832 541.383
501 0 69.2165 11.9047 824 59.7816 961.644 537.972
502 0 72.15 12.4047 895 58.4201 962.105 537.773
503 0 75.2224 13.4003 1008 57.5407 961.836 536.064
504 0 77.1128 12.5271 966 59.1988 961.664 535.179
505 0 79.1685 13.0986 1037 58.5805 961.716 532.991
506 1 43.0186 10.2979 443 56.5102 961.298 553.05
507 0 46.0738 10.9173 503 57.1948 961.338 550.215
508 0 44.0261 10.9026 480 58.1583 961.496 549.408
509 0 47.0693 11.8336 557 57.939 961.517 548.393
510 0 50.4809 11.2122 566 58.6767 961.431 548.991
511 0 49.1323 11.2553 553 59.7523 961.942 548.445
512 0 53.1196 12.5566 667 57.925 961.529 547.15
513 0 55.231 13.1086 724 56.6243 961.565 547.439
514 0 58.1147 11.7526 683 57.918 961.529 546.873
515 0 58.1109 13.0612 759 57.2398 961.668 545.177
516 0 58.1451 12.1248 705 59.3475 961.53 544.789
517 0 62.1608 13.8833 863 55.3082 961.86 543.589
518 0 61.1578 13.0482 798 57.9048 962.554 542.398
519 0 65.166 13.3198 868 56.8583 963.196 542.968
520 0 67.1476 12.8523 863 57.7567 963.496 542.526
521 0 69.3034 13.5924 942 57.2834 963.183 540.576
522 0 71.1524 12.5927 896 58.7366 963.469 540.731
523 0 74.1592 13.3362 989 58.2012 963.49 536.889
524 0 77.175 13.2426 1022 57.3346 962.859 538.537
525 0 78.3267 12.5883 986 58.8377 963.065 536.663
526 0 81.1287 12.8931 1046 59.2352 962.947 535.106
527 0 83.3324 12.5761 1048 59.7968 962.822 533.198
528 0 88.315 13.1688 1163 59.8796 962.721 532.399
529 1 46.2881 11.6445 539 58.9258 962.297 553.634
530 0 47.2085 10.4218 492 61.1402 962.368 553.083
531 0 46.2564 10.5283 487 61.9281 962.7 550.632
532 0 48.1209 12.4478 599 59.4758 962.745 550.402
533 0 50.0659 12.6833 635 58.8268 962.003 547.613
534 0 49.0437 11.6631 572 61.3182 962.414 547.689
535 0 52.0528 12.1031 630 60.7143 962.63 547.729
536 0 52.0579 11.9482 622 62.0563 963.082 547.063
537 0 55.0965 12.5961 694 60.6758 962.842 546.622
538 0 56.0877 12.4805 700 60.9271 962.787 544.866
539 0 57.2093 12.2532 701 61.9301 962.672 543.89
540 0 59.0945 12.7762 755 61.2927 962.098 543.85
541 0 63.1337 12.8616 812 61.4877 961.994 541.818
542 0 64.187 13.0245 836 60.3756 961.831 542.233
543 0 65.2461 13.0889 854 60.6429 962.58 540.494
544 0 68.1741 12.9961 886 61.3397 962.019 539.683
545 0 72.1961 14.5714 1052 59.3983 961.474 538.829
546 0 73.1627 13.0941 958 61.4916 961.561 538.838
547 1 43.115 11.1562 481 61.4158 960.796 552.642
548 0 42.113 9.92567 418 62.2105 960.615 553.895
549 0 42.1806 11.4508 483 62.3478 960.474 552.712
550 0 46.1443 12.2009 563 61.3677 961.034 550.86
551 0 46.1341 13.5041 623 60.0899 961.128 551.462
552 0 49.1727 12.9137 635 61.2362 960.874 550.652
553 0 49.1321 12.3748 608 63.2089 961.145 550.536
554 0 51.1614 13.4086 686 61.691 961.587 550.26
555 0 51.1614 13.4672 689 165.491 961.599 550.255
556 0 51.1296 13.1822 674 64.0401 961.711 549.837
557 0 53.1732 12.9012 686 64.6968 961.695 548.793
558 0 56.1547 13.3738 751 64.0945 961.288 548.514
559 0 56.0794 13.1777 739 65.5196 961.176 546.878
560 0 57.1171 13.3935 765 65.485 961.281 546.558
561 0 61.1807 14.0567 860 64.1256 961.256 545.673
562 0 61.1938 13.8413 847 64.6789 961.403 545.227
563 0 62.2626 13.7322 855 65.4234 961.244 544.423
564 0 65.1201 13.9895 911 65.146 961.344 542.273
565 0 65.1846 13.7609 897 65.9353 961.308 542.495
566 0 68.1935 14.1509 965 64.8819 961.728 540.922
567 0 71.0819 13.3508 949 66.1749 961.438 539.964
568 0 75.2255 14.4765 1089 64.1148 961.42 539.053
569 0 76.2342 15.0064 1144 63.6818 961.09 537.48
570 0 76.1942 13.5968 1036 66.6255 961.354 537.812
571 0 80.3926 13.4589 1082 66.8771 960.86 536.136
572 0 80.2087 14.5371 1166 66.0832 961.014 534.823
573 0 83.1709 14.0674 1170 66.7086 960.828 532.963
574 0 87.3718 14.6042 1276 65.4146 960.782 532.793
575 0 89.4302 14.078 1259 66.2113 960.528 531.938
576 1 46.0703 10.3971 479 69.714 960.357 551.081
577 0 50.1996 11.4344 574 67.824 960.136 551.509
578 0 52.2314 11.6214 607 67.4119 960.033 552.184
579 0 54.1231 12.4716 675 66.1452 959.924 549.671
580 0 56.1161 12.4207 697 65.4605 959.996 550.1
581 0 57.1196 12.5176 715 66.1986 959.841 548.54
582 0 57.205 12.7087 727 66.0413 959.23 548.062
583 0 62.2611 12.8009 797 65.2735 959.464 545.42
584 0 62.2602 12.512 779 66.0218 959.308 545.757
585 0 65.1743 13.8091 900 64.3889 959.352 543.156
586 0 65.1262 12.637 823 66.6744 959.096 543.576
587 0 68.128 13.137 895 65.9598 959.447 543.401
588 0 70.1301 12.9046 905 66.2011 959.183 543.38
589 0 72.2379 13.4002 968 66.2066 958.787 540.501
590 0 76.1947 13.0061 991 66.4924 958.965 540.481
591 0 78.1527 14.1134 1103 65.0335 959.734 538.944
592 0 81.1577 13.6524 1108 65.6191 959.292 538.259
593 0 83.2009 14.1465 1177 64.7324 959.278 536.685
594 0 87.467 13.9024 1216 63.9827 959.469 535.718
595 0 90.3957 14.3259 1295 62.017 959.412 532.077
596 0 94.2634 13.7593 1297 61.9823 958.943 532.021
597 0 98.3715 13.5812 1336 61.8278 959.248 531.442
598 1 54.1895 11.5705 627 59.7528 958.67 553.526
599 0 54.3 11.8416 643 60.8383 958.63 549.316
600 0 57.2309 12.1962 698 60.2034 957.874 549.603
601 0 59.35 12.2157 725 57.8676 958.178 548.852
602 0 60.1206 12.8741 774 58.2468 958.262 548.035
603 0 61.1885 13.009 796 57.4849 958.381 546.479
604 0 62.266 13.2175 823 57.2527 958.316 544.78
605 0 65.1848 12.4262 810 57.4407 958.748 543.046
606 0 70.5096 12.9486 913 55.4797 958.534 543.751
607 0 72.4063 12.4851 904 56.5088 958.216 540.896
608 0 73.3924 11.9222 875 57.232 958.552 542.142
609 0 77.3368 12.3874 958 57.88 959.098 539.709
610 0 79.3331 12.832 1018 57.3635 959.012 537.763
611 0 83.491 13.0553 1090 57.0303 959.123 536.906
612 0 85.2879 13.7769 1175 57.7711 959.048 535.178
613 0 88.2903 12.9573 1144 58.6469 959.399 532.844
614 0 90.2401 12.8878 1163 59.2089 959.36 532.436
615 0 95.5627 12.3374 1179 58.8974 959.322 528.813
616 0 98.3756 12.6657 1246 59.744 959.01 529.93
617 1 51.256 10.4573 536 59.9664 958.864 554.907
618 0 51.2529 11.0433 566 60.6961 958.519 550.29
619 0 51.1386 11.2831 577 59.0936 958.203 550.672
620 0 55.0956 11.598 639 57.8607 958.296 549.427
621 0 56.1363 12.4162 697 57.9498 958.186 548.27
622 0 59.1535 12.5436 742 57.8652 958.179 548.891
623 0 58.171 12.4804 726 58.584 959.276 545.887
624 0 63.1907 12.0587 762 58.7441 959.345 545.692
625 0 63.1907 12.1062 765 59.3987 959.178 545.553
626 0 65.1845 12.2882 801 59.4008 959.332 544.412
627 0 68.1852 13.0527 890 58.5888 959.47 542.3
628 0 71.2607 12.6297 900 59.2 959.397 541.722
629 0 72.0935 12.8167 924 60.54 959.157 539.396
630 0 76.2101 13.2791 1012 58.6393 959.196 538.165
631 0 79.1972 12.753 1010 58.3772 959.152 537.989
632 0 81.1746 13.1938 1071 58.6256 959.366 535.109
633 0 84.3057 13.5934 1146 57.9476 959.539 532.76
634 0 86.2003 13.4454 1159 57.346 960.071 532.261
635 0 91.1779 13.874 1265 56.1328 960.536 529.949
636 1 46.0564 10.4654 482 56.3423 959.954 552.888
637 0 47.0358 11.5019 541 56.9205 959.922 551.874
638 0 49.0265 10.5453 517 56.795 959.886 551.799
639 0 48.2471 11.5447 557 54.8348 961.118 548.269
640 0 53.2149 12.0079 639 55.6886 961.202 549.654
641 0 56.1955 11.5668 650 56.14 961.208 549.074
642 0 57.2343 12.213 699 55.6924 960.96 548.339
643 0 57.1755 11.7533 672 55.5759 961.436 547.964
644 0 61.2008 12.1894 746 55.1528 961.692 546.011
645 0 61.2008 12.1894 746 153.95 961.692 546.011
646 0 63.1165 12.0888 763 55.6225 961.604 544.651
647 0 65.3328 12.4593 814 55.3464 961.43 543.711
648 0 66.1926 12.0104 795 56.6855 961.672 542.187
649 0 69.4043 12.2471 850 56.5553 961.525 541.208
650 0 71.1223 12.9636 922 55.3753 961.563 541.175
651 0 73.2594 13.1314 962 55.6507 962.172 537.975
652 0 75.266 12.0905 910 56.6451 962.133 538.749
653 0 79.2931 12.6367 1002 56.0399 961.807 535.907
654 0 82.2282 13.122 1079 55.0213 961.478 534.132
655 0 84.274 12.7916 1078 55.6002 961.292 533.044
656 0 87.2822 12.8434 1121 55.7386 961.566 532.352
657 0 88.2771 12.8572 1135 55.7542 961.943 529.629
658 1 46.1935 10.8673 502 55.4622 961.139 551.783
659 0 50.1541 11.2254 563 55.238 961.268 549.821
660 0 47.1157 10.3999 490 56.1408 962.202 550.606
661 0 51.1726 11.2756 577 55.5147 962.028 548.139
662 0 53.1261 11.708 622 55.6109 962.436 547.267
663 0 56.2618 12.2285 688 54.439 962.789 546.481
664 0 55.2613 12.3052 680 54.4971 962.857 546.132
665 0 59.1705 11.9654 708 54.267 962.592 545.384
666 0 59.2687 12.1818 722 54.8934 963.187 543.849
667 0 59.2157 12.598 746 54.9625 963.424 542.425
668 0 63.2238 12.4478 787 55.3901 963.3 539.602
669 0 66.3309 12.5432 832 54.8702 963.456 540.844
670 0 67.3344 11.9553 805 56.2497 963.43 539.015
671 0 71.1911 12.6561 901 54.5982 963.703 538.838
672 0 74.253 12.8614 955 54.6052 963.344 535.754
673 1 36.1236 9.82736 355 56.1239 962.507 553.183
674 0 39.1949 10.384 407 53.8796 963.093 552.74
675 0 39.1002 9.56518 374 55.7754 962.671 552.283
676 0 39.1153 10.2262 400 55.5275 963.042 551.69
677 0 42.0911 10.1209 426 55.2277 963.089 551.805
678 0 46.2579 12.4519 576 51.8733 963.653 550.13
679 0 44.1928 11.0652 489 54.7566 963.982 549.266
680 0 46.1373 12.181 562 53.5 964.491 548.502
681 0 47.1331 12.1995 575 53.7722 964.562 547.682
682 0 50.21 12.5672 631 53.2203 964.547 546.827
683 0 50.0969 12.7553 639 53.9562 964.557 545.825
684 0 50.078 11.9414 598 55.0936 964.925 545.274
685 0 54.1286 12.341 668 54.8099 965.419 543.253
686 0 56.1529 12.5728 706 54.2465 964.266 543.026
687 0 55.1356 12.6597 698 55.1347 964.416 543.211
688 0 58.2797 12.0968 705 55.366 964.394 542.922
689 0 61.1245 13.857 847 53.778 964.351 542.504
690 0 62.267 13.7472 856 55.0596 964.686 541.394
691 0 63.1426 13.3666 844 56.154 964.091 540.114
692 0 63.158 12.5716 794 57.9811 964.286 538.814
693 0 68.1289 13.6359 929 56.507 964.417 537.417
694 0 71.2403 14.0089 998 56.3387 964.466 536.458
695 0 71.1405 13.3539 950 58.4095 963.765 534.067
696 0 74.1218 13.6802 1014 58.2968 963.972 534.736
697 0 79.191 14.2567 1129 57.1612 963.749 533.254
698 1 40.0445 9.76414 391 60.9003 963.046 551.425
699 0 42.1853 11.9236 503 57.2763 963.479 550.489
700 0 43.1423 11.3809 491 58.1833 963.776 550.45
701 0 46.0893 11.174 515 59.2 963.39 552.165
702 0 46.1756 11.6079 536 60.0728 962.498 551.507
703 0 50.0448 12.5488 628 58.6178 962.193 549.282
704 0 51.0808 12.6466 646 59.1502 962.406 548.266
705 0 49.1304 11.215 551 61.7151 962.114 547.456
706 0 54.1416 12.652 685 59.0409 962.399 546.368
707 0 54.2125 11.9899 650 60.7215 962.014 545.343
708 0 56.1615 12.5531 705 59.6511 962.332 546.166
709 0 59.2472 12.7095 753 59.332 962.353 545.817
710 0 59.2595 11.9643 709 61.4824 961.85 543.817
711 0 61.289 12.8571 788 60.4277 962.178 543.077
712 0 64.4792 13.4307 866 59.8245 962.717 543.212
713 0 67.2699 13.1114 882 60.5408 961.997 541.078
714 0 68.362 13.7211 938 60.5298 962.067 539.82
715 0 71.2334 13.2943 947 60.6843 962.134 539.124
716 0 73.3332 13.2409 971 61.069 961.776 538.656
717 0 73.1978 13.4157 982 61.3035 961.368 537.031
718 0 77.3028 13.0267 1007 61.1172 960.986 536.259
719 0 78.1743 13.4699 1053 59.9079 960.998 533.446
720 1 40.0394 10.5646 423 58.7281 960.317 553.359
721 0 40.0205 9.59509 384 61.1068 959.62 552.815
722 0 42.0203 11.4945 483 58.3975 961.025 551.588
723 0 45.0127 12.8408 578 56.5502 960.526 552.611
724 0 48.2602 12.2875 593 57.7487 960.786 552.877
725 0 48.162 11.8143 569 59.7627 960.584 551.705
726 0 51.3387 12.9337 664 56.7786 960.595 551.351
727 0 51.2346 12.8819 660 57.4864 960.483 549.685
728 0 52.3118 13.2284 692 57.2052 960.153 549.04
729 0 54.2992 12.8915 700 56.8714 960.314 548.536
730 0 55.2114 12.7148 702 57.0014 960.399 547.548
731 0 56.2286 12.627 710 57.5648 959.892 546.776
732 0 57.2437 12.1236 694 57.8372 960.166 547.291
733 0 58.2633 12.7181 741 57.5128 959.584 545.771
734 0 62.3578 13.0858 816 56.8811 959.672 545.092
735 0 63.3912 12.9513 821 57.2607 959.795 546.071
736 0 64.2308 13.2335 850 57.7741 959.342 543.933
737 0 65.3215 12.936 845 58.7763 959.295 544.828
738 0 69.1848 14.3673 994 57.0292 958.924 543.578
739 0 69.1593 13.693 947 58.3527 959.49 542.062
740 0 72.2374 14.1616 1023 58.176 959.634 541.537
741 0 75.2121 14.1068 1061 58.4533 959.364 541.36
742 0 77.2445 13.2695 1025 59.9161 959.044 540.104
743 0 79.2998 14.1362 1121 59.6137 959.388 537.923
744 0 82.3306 14.879 1225 58.5363 959.016 537.224
745 0 82.2408 13.1322 1080 61.8815 959.093 536.244
746 0 87.2258 13.0466 1138 61.5896 958.821 538.046
747 0 91.2933 16.0034 1461 57.6619 958.734 535.261
748 0 90.2153 14.0109 1264 61.4929 958.729 532.547
749 0 94.3681 13.8288 1305 61.3755 958.379 531.392
750 1 53.1725 10.8327 576 61.3177 958.212 554.309
751 0 51.1557 11.3575 581 62.0155 957.984 552.458
752 0 54.1822 11.7566 637 61.617 957.834 552.669
753 0 57.1498 12.091 691 62.1505 958.279 550.794
754 0 59.2268 12.7983 758 62.0594 958.649 549.562
755 0 59.2286 12.7134 753 62.9854 959.258 548.594
756 0 60.3416 12.7275 768 63.4375 958.894 547.31
757 0 65.4567 12.5732 823 62.9174 958.406 547.23
758 0 68.1824 12.6426 862 63.0162 957.999 546.115
759 0 70.4357 13.0048 916 62.7904 957.902 544.996
760 0 73.3053 12.864 943 63.105 957.96 544.223
761 0 75.3737 13.7316 1035 62.7594 957.945 541.916
762 0 78.4234 13.6439 1070 62.7832 957.948 542.363
763 0 79.4163 13.6496 1084 64.1292 958.138 537.784
764 0 81.25 13.3415 1084 64.5148 958.393 537.987
765 0 85.2488 12.9034 1100 65.8164 958.654 537.032
766 1 48.174 10.7112 516 67.3198 958.459 555.704
767 0 51.2879 11.6012 595 65.4252 958.341 554.773
768 0 51.1753 12.2129 625 66.1008 957.765 553.954
769 0 52.2981 12.2758 642 65.5358 958.352 553.344
770 0 54.4663 12.1727 663 66.2458 958.175 552.824
771 0 57.3522 12.955 743 64.926 957.898 551.805
772 0 59.338 13.1956 783 65.0358 957.916 550.585
773 0 62.321 13.2219 824 64.5874 957.819 548.978
774 0 65.3014 12.6337 825 65.5915 957.061 546.12
775 0 66.3127 13.5117 896 64.6027 957.089 546.271
776 0 68.3451 12.7295 870 65.6805 957.014 542.78
777 0 70.3842 12.6591 891 65.9899 957.426 542.362
778 0 70.4788 12.1597 857 66.3862 957.362 541.882
779 0 73.3904 12.7537 936 65.4925 957.634 539.682
780 0 79.5509 14.1042 1122 62.9225 957.988 536.49
781 0 78.3743 13.3845 1049 64.6892 957.957 535.506
782 0 83.6364 13.487 1128 63.8785 958.072 534.698
783 0 82.6362 13.3598 1104 65.0009 958.262 533.869
784 1 47.3128 11.1809 529 66.6427 958.482 551.284
785 0 46.2689 11.3899 527 66.4744 958.88 552.425
786 0 48.2903 11.2238 542 66.8192 958.932 553.828
787 0 50.2787 12.7688 642 66.4252 958.924 552.721
788 0 51.1331 12.7706 653 65.5559 959.058 551.36
789 0 55.1987 12.6815 700 64.1814 959.16 551.376
790 0 56.3524 12.6348 712 65.8357 959.303 549.9
791 0 59.5606 13.8682 826 63.0448 958.933 546.937
792 0 59.2665 14.1395 838 64.0442 959.413 547.297
793 0 62.3752 13.5952 848 65.1557 959.46 544.259
794 0 63.2821 14.1114 893 64.5935 960.032 542.585
795 0 67.308 13.8914 935 63.9551 959.784 541.133
796 0 66.2663 13.989 927 64.9428 960.304 542.145
797 0 69.422 13.9437 968 64.564 960.387 540.56
798 0 74.5859 16.3436 1219 59.4725 960.308 537.237
799 0 74.2967 15.5323 1154 61.877 960.452 537.391
800 0 76.5001 13.9869 1070 64.1598 960.861 537.561
801 0 77.4531 14.0601 1089 64.7998 961.094 536.122
802 0 77.4531 14.073 1090 174.893 961.102 536.154
803 0 86.2184 15.2752 1317 61.8679 960.691 533.36
804 0 87.2155 14.7336 1285 62.9805 960.676 531.845
805 0 89.2798 14.7066 1313 63.1074 960.421 530.99
806 0 93.5285 14.4127 1348 62.8961 960.545 527.91
807 1 50.4856 11.845 598 63.7893 960.684 549.619
808 0 54.4397 12.0133 654 63.8899 960.492 547.893
809 0 55.3103 12.1677 673 63.8886 960.64 547.377
810 0 54.6338 12.5746 687 64.3639 961 546.029
811 0 58.5832 13.4339 787 61.8818 961.117 546.039
812 0 60.666 13.154 798 61.7757 961.62 544.949
813 0 61.4754 13.3549 821 61.8563 961.672 544.283
814 0 64.6014 14.2412 920 60.4728 962.174 541.7
815 0 66.4193 13.9116 924 60.2868 962.248 541.477
816 0 67.2384 12.8647 865 61.0382 962.239 541.266
817 0 69.3348 14.192 984 59.5528 962.137 538.545
818 0 72.5653 14.58 1058 58.4953 962.161 537.39
819 0 76.6426 12.9562 993 59.7996 962.059 536.708
820 0 77.377 13.6216 1054 58.9421 962.351 536.484
821 0 80.3051 13.511 1085 59.4369 961.959 534.605
822 0 81.374 13.4318 1093 59.5005 961.817 534.115
823 0 86.41 14.3618 1241 57.9001 962.023 530.79
824 0 88.4063 13.8452 1224 58.3922 962.37 528.216
825 0 92.4552 13.8986 1285 58.0934 962.493 527.98
826 0 93.2983 14.2875 1333 57.2768 962.548 526.392
827 1 47.2628 9.77513 462 60.0303 962.398 548.342
828 0 47.2738 10.9574 518 59.2799 962.156 546.205
829 0 50.1469 12.6229 633 57.2796 962.406 545.239
830 0 54.3997 12.8126 697 55.9067 962.057 546.004
831 0 52.2691 11.8808 621 58.38 962.074 544.2
832 0 59.1961 12.8894 763 56.0459 961.687 543.317
833 0 58.1445 12.7441 741 57.0661 961.552 542.777
834 0 58.1686 11.226 653 59.4793 961.45 540.397
835 0 64.2761 13.1464 845 56.9432 961.444 539.841
836 0 65.2679 12.6862 828 57.5121 961.257 538.699
837 0 67.2546 13.04 877 57.0969 961.197 539.32
838 0 71.229 13.6742 974 56.5442 961.129 539.663
839 0 72.326 13.1488 951 57.592 961.757 537.555
840 0 76.3303 13.4285 1025 57.242 961.474 535.947
841 0 76.2013 13.5037 1029 57.5015 961.304 535.386
842 0 77.1775 13.4754 1040 58.6587 961.402 532.558
843 0 81.2092 13.8408 1124 58.1139 961.568 531.264
844 0 84.1936 13.5521 1141 58.4242 961.865 530.698
845 0 87.2383 14.2827 1246 57.63 961.078 530.522
846 0 90.3384 13.3719 1208 59.1109 960.807 526.882
847 0 95.1628 14.0286 1335 58.3049 960.798 525.745
848 1 48.1045 10.2693 494 60.6093 960.158 548.206
849 0 48.0895 10.2101 491 60.3035 960.088 548.194
850 0 53.0179 10.7888 572 59.0157 960.481 548.096
851 0 55.0779 11.7833 649 58.1063 960.337 547.253
852 0 58.1245 12.8861 749 57.9533 961.053 545.601
853 0 59.25 11.8143 700 59.9971 961.264 546.877
854 0 60.1579 12.1181 729 59.62 961.08 544.883
855 0 65.3672 12.7893 836 58.2632 961.291 544.555
856 0 65.3667 12.6517 827 58.8549 961.334 541.302
857 0 67.2235 13.0163 875 58.592 961.106 540.303
858 0 68.2012 12.3458 842 59.3717 961.448 543.796
859 0 71.15 12.3823 881 58.9262 960.989 539.868
860 0 72.2052 12.1598 878 59.754 961.236 539.146
861 0 77.4001 13.4496 1041 57.6263 961.368 538.53
862 0 78.3145 13.101 1026 58.9688 960.883 536.206
863 0 81.1907 12.2305 993 60.1601 961.179 534.824
864 0 85.1893 13.1941 1124 58.9075 960.96 534.371
865 0 85.2494 13.0675 1114 59.7801 961.101 531.794
866 0 89.286 12.8912 1151 60.2763 960.529 531.31
867 0 92.466 12.6857 1173 60.5294 959.433 527.06
868 0 95.3803 12.6441 1206 61.1169 959.439 529.527
869 1 53.3858 10.3211 551 62.0708 959.613 551.78
870 0 53.1403 9.95477 529 62.7694 959.567 550.119
871 0 57.1799 11.1578 638 61.6238 959.049 549.118
872 0 57.1696 10.9674 627 62.4609 959.373 548.464
873 0 59.1208 12.1108 716 60.2514 958.777 547.934
874 0 61.1896 11.3091 692 61.2948 959.149 546.415
875 0 63.1525 12.1135 765 60.6575 959.478 545.852
876 0 64.1862 12.2612 787 60.7281 959.036 543.044
877 0 66.1925 12.6903 840 59.5083 958.666 544.887
878 0 69.2715 11.8664 822 60.0523 959.021 542.82
879 0 70.1939 11.4255 802 60.9264 958.98 542.41
880 0 73.2579 11.9851 878 59.8702 959.052 539.976
881 0 75.2742 11.8234 890 59.6045 958.77 538.922
882 0 77.2449 11.3665 878 60.9146 958.977 538.42
883 0 80.2126 12.0679 968 59.7645 959.41 536.527
884 0 80.2126 12.0305 965 155.42 960.417 536.576
885 0 85.2302 12.4017 1057 59.0397 959.52 535.775
886 0 87.4133 12.2178 1068 59.6152 959.912 532.552
887 0 91.4411 12.1062 1107 59.2574 959.997 532.165
888 0 94.3459 12.5496 1184 59.038 959.845 529.83
889 0 96.5612 13.318 1286 57.769 959.704 529.293
890 0 99.3198 12.8675 1278 58.3865 959.75 527.549
891 0 100.54 12.6815 1275 58.7169 959.593 523.479
892 0 103.388 12.1291 1254 59.6156 959.825 521.579
893 0 107.341 13.1078 1407 87.5288 960.303 520.291
894 0 113.395 14.0747 1596 55.7337 960.18 516.976
895 1 63.1574 10.1492 641 58.0156 959.743 542.594
896 0 66.2394 11.2924 748 57.2433 960.499 542.743
897 0 67.1661 11.8214 794 56.7116 961.943 535.302
898 0 70.2588 11.0307 775 56.9897 961.813 539.566
899 0 72.2997 11.729 848 56.5849 961.562 536.671
900 0 73.542 12.3331 907 55.9581 962.116 537.927
901 0 77.4845 11.5507 895 57.1486 961.8 535.172
902 0 79.4296 12.0484 957 55.7994 961.854 533.84
903 0 82.46 12.406 1023 55.5132 961.65 533.019
904 0 85.4047 13.5356 1156 54.3746 961.554 530.87
905 0 88.3512 12.2466 1082 56.3567 961.464 528.272
906 0 90.2956 12.7027 1147 55.9782 962.08 527.084
907 0 92.3604 13.3174 1230 54.987 962.028 528.137
908 0 97.4375 13.1777 1284 55.3544 962.097 524.688
909 1 52.4628 9.72117 510 56.449 961.924 548.449
910 0 54.2686 10.319 560 55.9714 962.02 548.054
911 0 55.3265 10.7543 595 56.4403 962.318 546.255
912 0 59.3705 10.7798 640 56.2766 962.47 545.528
913 0 60.3321 11.1384 672 57.4524 962.978 542.81
914 0 59.2388 11.7491 696 57.7356 962.787 541.799
915 0 62.2779 11.1757 696 57.977 962.882 541.813
916 0 63.3214 11.6074 735 57.9497 962.837 539.688
917 0 66.2422 12.4694 826 56.3305 963.462 538.385
918 0 69.2865 13.1339 910 55.2143 963.467 538.231
919 0 70.2684 12.5234 880 56.2795 963.61 538.125
920 0 74.2378 11.4093 847 57.4876 963.656 536.163
921 0 74.1652 12.0002 890 56.918 963.698 535.767
922 0 76.231 12.3703 943 56.4316 963.735 535.057
923 0 77.0914 13.1403 1013 55.8786 964.742 533.99
924 0 79.141 12.7999 1013 56.9427 964.519 529.851
925 0 84.2978 12.6338 1065 56.3155 964.129 529.069
926 0 88.1395 13.2631 1169 55.1762 964.388 527.996
927 1 47.0287 10.1427 477 55.9476 963.379 548.312
928 0 46.0361 9.3405 430 57.0233 963.374 549.198
929 0 47.0556 9.07438 427 57.6604 964.028 547.494
930 0 49.059 10.6606 523 56.434 963.384 547.006
931 0 52.2262 11.2779 589 56.1613 964.626 546.852
932 0 55.1677 11.3835 628 55.9522 963.449 546.408
933 0 57.0898 11.806 674 56.3502 963.469 545.297
934 0 56.1689 10.7889 606 57.8548 963.165 544.361
935 0 58.0923 11.585 673 57.0981 962.743 542.434
936 0 60.2414 11.8025 711 55.1941 963.021 543.722
937 0 61.088 11.8845 726 57.3926 962.883 542.459
938 0 64.2771 12.4306 799 55.7472 962.825 543.378
939 0 65.1555 12.1862 794 56.5353 962.844 540.291
940 0 65.1555 12.1862 794 153.141 961.844 540.291
941 0 69.1074 12.2852 849 56.7456 963.161 537.289
942 0 71.3992 12.7312 909 56.505 963.243 538.081
943 0 72.2 12.5623 907 56.7122 962.638 536.677
944 0 75.3337 12.5442 945 56.8466 962.69 534.523
945 0 79.4589 12.9878 1032 55.9157 962.489 534.572
946 0 80.5738 13.3294 1074 55.3352 962.302 531.555
947 0 83.3959 13.4539 1122 56.6373 961.928 531.709
948 0 87.4298 13.2335 1157 56.3146 961.79 531.291
949 1 48.3004 9.77217 472 56.2712 961.816 549.58
950 0 51.4392 10.0896 519 56.4008 961.035 549.975
951 0 53.1071 11.1096 590 55.9661 960.998 549.308
952 0 54.1334 11.6749 632 55.7674 960.617 547.337
953 0 54.2619 12.4397 675 55.4089 961.322 547.184
954 0 56.2603 12.6199 710 55.8761 962.486 546.303
955 0 56.1725 11.7495 660 57.3212 962.391 545.759
956 0 59.3393 11.6112 689 57.4746 962.52 545.019
957 0 60.3641 12.2755 741 56.7868 962.537 544.664
958 0 63.2503 12.7588 807 55.8736 962.478 543.038
959 0 62.4138 12.5613 784 57.5293 962.189 543.172
960 0 67.2791 13.6892 921 55.24 962.18 543.911
961 0 68.2914 14.5846 996 54.5753 961.896 541.813
962 0 70.3102 13.3551 939 56.2098 961.63 540.241
963 0 72.29 13.1415 950 56.4263 962.13 539.557
964 0 74.5461 13.106 977 56.3521 962.11 537.867
965 0 76.3639 13.0559 997 56.7482 961.534 537.084
966 0 77.5025 12.7351 987 57.7143 961.134 535.884
967 0 80.4044 13.345 1073 56.8322 961.758 536.17
968 0 85.2975 13.2712 1132 56.5186 961.676 534.433
969 0 86.2672 13.6668 1179 56.7371 961.734 531.437
970 0 89.2757 13.4527 1201 57.0042 961.785 531.166
971 0 94.4127 13.8858 1311 56.2151 961.811 530.213
972 1 51.3652 11.8173 607 57.318 961.023 549.956
973 0 49.0699 11.9014 584 57.7055 960.421 547.842
974 0 49.0611 11.822 580 58.5379 961.047 546.791
975 0 53.1457 12.3058 654 57.7875 960.326 547.818
976 0 55.2004 12.6267 697 58.2869 960.23 547.552
977 0 58.3318 12.926 754 57.0623 960.314 547.577
978 0 57.182 12.6613 724 58.5414 960.24 545.041
979 0 60.2241 12.7358 767 58.2803 960.227 545.704
980 0 62.3473 12.6549 789 58.3942 959.901 545.044
981 0 66.3507 13.4287 891 56.8575 960.203 544.701
982 0 67.2396 12.9537 871 57.4363 960.118 542.377
983 0 67.4677 12.8802 869 58.2497 960.215 540.778
984 0 71.2771 14.142 1008 56.2877 960.059 540.993
985 0 70.3527 12.4658 877 59.0559 960.261 540.753
986 0 74.2884 13.7168 1019 57.2012 959.663 539.827
987 0 76.3354 12.825 979 58.0644 959.755 538.3
988 0 79.2414 14.0457 1113 56.6415 960.163 536.28
989 0 81.2555 12.7007 1032 58.314 959.417 535.408
990 0 84.2179 13.4413 1132 57.1572 959.291 533.824
991 0 85.2351 13.7385 1171 57.3091 959.647 533.006
992 1 47.1882 11.5071 543 57.0866 958.733 553.125
993 0 48.2218 10.5761 510 58.3843 959.357 553.184
994 0 50.2266 11.8264 594 57.3216 959.13 551.113
995 0 52.2874 10.3084 539 58.6883 958.829 551.301
996 0 56.2234 12.3614 695 56.2863 958.915 550.281
997 0 56.0775 12.2152 685 56.6788 958.888 548.923
998 0 58.1478 12.6918 738 56.9634 958.616 546.831
999 0 59.1495 13.1869 780 57.0538 958.2 546.473
1000 0 64.1586 12.9211 829 56.4186 958.549 546.662
1001 0 62.0816 11.7104 727 58.7359 958.928 543.992
1002 0 65.3016 11.8374 773 58.185 958.858 543.827
1003 0 68.2256 12.5906 859 56.4331 958.899 542.81
1004 0 70.1691 13.6812 960 55.4365 958.842 541.959
1005 0 71.3716 13.1425 938 56.0874 959.627 539.829
1006 0 75.2377 12.2412 921 57.2367 960.117 538.701
1007 0 76.2257 12.686 967 56.9049 959.861 537.636
1008 0 79.3097 13.2645 1052 56.4297 960.313 536.964
1009 0 81.2549 13.1561 1069 56.971 960.086 536.022
1010 0 85.3431 13.1821 1125 56.6764 960.006 535.138
1011 0 86.2697 12.4957 1078 59.2922 960.249 533.566
1012 0 92.1656 13.4323 1238 57.5008 959.683 532.089
1013 0 92.1463 13.2615 1222 58.6858 960.084 530.258
1014 0 97.3193 13.6458 1328 58.0504 960.074 530.157
1015 0 98.3676 12.6363 1243 59.4159 960.037 528.458
1016 0 101.228 13.0398 1320 58.9561 960.411 527.141
1017 0 105.185 13.481 1418 58.3434 959.919 525.499
1018 1 58.1454 11.6432 677 58.5258 960.245 547.641
1019 0 60.074 11.103 667 59.6956 959.865 547.087
1020 0 60.2668 12.0132 724 59.1685 959.751 546.052
1021 0 62.321 12.4035 773 58.8357 959.837 545.38
1022 0 65.2109 12.9273 843 58.4591 960.252 545.458
1023 0 68.1921 13.0807 892 57.9238 960.5 544.578
1024 0 68.1921 13.11 894 163.49 959.494 544.629
1025 0 71.2806 13.1031 934 58.6296 960.892 541.076
1026 0 72.464 12.1854 883 59.7962 961.304 540.598
1027 0 75.2148 13.0958 985 58.7645 961.065 539.832
1028 0 76.4328 13.3843 1023 59.1261 961.061 537.89
1029 0 80.2205 12.4033 995 60.2834 960.796 538.754
1030 0 81.4071 13.2544 1079 59.9824 961.012 534.258
1031 0 86.2035 13.3057 1147 59.4307 960.922 534.306
1032 0 89.3958 12.8753 1151 60.3414 960.889 532.042
1033 0 91.4185 12.8639 1176 60.477 960.751 530.724
1034 1 47.23 8.935 422 61.801 960.573 554.384
1035 0 49.2122 10.9729 540 61.0907 960.863 551.418
1036 0 50.3859 10.6578 537 60.7616 961.804 551.587
1037 0 52.2344 12.1185 633 59.5845 962.213 549.795
1038 0 53.2459 12.508 666 59.4054 962.817 547.992
1039 0 56.1602 12.7136 714 59.9328 962.969 548.325
1040 0 55.1636 12.7258 702 60.8063 963.245 547.348
1041 0 59.0645 13.0197 769 59.9064 963.744 545.287
1042 0 61.2299 13.0165 797 60.0126 963.807 544.828
1043 0 62.1204 12.9104 802 59.9514 963.766 544.687
1044 0 64.3409 13.3041 856 59.8108 963.801 543.842
1045 0 65.0827 12.7684 831 60.2491 963.326 542.934
1046 0 68.181 13.9628 952 58.7132 963.796 541.193
1047 0 69.1477 12.9867 898 58.9009 963.695 540.291
1048 0 70.1361 12.49 876 59.5457 963.669 539.862
1049 0 73.2148 13.6175 997 58.3631 963.818 538.152
1050 0 73.232 12.5765 921 59.8328 964.372 535.815
1051 0 77.2066 13.4704 1040 58.3423 964.492 534.412
1052 0 81.2819 13.1025 1065 58.7944 965.07 533.424
1053 0 82.3193 13.1439 1082 59.0749 964.651 532.239
1054 0 84.1449 12.4666 1049 59.6759 964.933 530.482
1055 0 89.1899 12.9611 1156 59.6341 965.174 528.695
1056 0 91.1579 13.2079 1204 59.2998 965.061 525.957
1057 0 95.0683 12.9801 1234 59.3898 965.057 524.323
1058 0 99.1883 14.4674 1435 57.3157 964.512 523.352
1059 0 100.234 13.7079 1374 58.6878 964.524 522.524
1060 0 105.209 14.0673 1480 57.8777 964.398 520.582
1061 0 104.114 13.322 1387 59.3569 964.579 519.909
1062 1 56.0475 11.8649 665 57.5414 964.701 544.959
1063 0 59.1604 12.5084 740 57.3838 964.888 542.658
1064 0 60.0901 12.8807 774 58.1977 964.125 544.253
1065 0 59.0628 12.6814 749 60.0961 963.943 543.398
1066 0 64.0559 12.5359 803 59.4483 963.719 543.085
1067 0 66.0435 13.2034 872 58.6388 963.937 542.947
1068 0 69.0765 13.2172 913 59.1884 963.701 539.561
1069 0 70.0608 12.8602 901 60.3596 963.253 538.169
1070 0 72.1336 12.7125 917 60.6423 963.377 538.203
1071 0 73.1046 13.0908 957 60.8244 963.322 535.723
1072 0 76.0805 12.5131 952 62.1092 963.213 534.319
1073 0 78.1065 12.6238 986 61.5081 963.192 535.162
1074 0 82.1003 13.2521 1088 60.6691 962.759 534.432
1075 1 46.0214 9.86498 454 61.0507 962.676 552.341
1076 0 46.0299 10.5149 484 62.0971 962.75 549.781
1077 0 47.0313 11.1415 524 60.5802 962.363 550.55
1078 0 50.0807 12.0206 602 59.2542 962.689 548.51
1079 0 51.0966 11.8207 604 59.8907 962.23 548.248
1080 0 54.1297 11.7496 636 59.8836 962.377 548.486
1081 0 51.1244 11.697 598 61.4047 962.393 546.975
1082 0 54.1333 11.5086 623 60.9454 962.254 545.586
1083 0 59.0743 11.6802 690 59.8768 962.341 545.984
1084 0 60.147 12.087 727 59.6589 962.509 543.823
1085 0 62.1255 13.6015 845 57.6982 962.472 543.102
1086 0 64.3979 13.3389 859 59.8778 962.399 542.964
1087 0 66.1671 12.5138 828 61.1582 962.883 544.807
1088 0 66.324 13.1928 875 61.304 962.728 541.483
1089 0 71.3016 13.9829 997 59.35 962.533 541.023
1090 0 71.3252 12.5201 893 61.682 962.628 539.559
1091 0 74.2831 13.112 974 61.2043 962.342 538.769
1092 0 77.3864 12.8446 994 61.5966 962.118 536.548
1093 0 79.2219 12.6985 1006 61.3678 962.32 536.133
1094 0 84.3312 14.2059 1198 59.0534 962.066 534.391
1095 0 83.4793 12.9134 1078 61.1438 962.275 532.89
1096 0 87.3001 13.173 1150 60.2044 962.719 530.367
1097 0 89.3396 12.8275 1146 60.5506 962.586 530.072
1098 1 48.1149 10.9322 526 60.673 961.81 549.34
1099 0 48.0916 11.0206 530 60.6 961.896 548.513
1100 0 49.1195 11.2786 554 61.4549 961.774 549.289
1101 0 52.0728 12.1177 631 60.7987 961.954 547.815
1102 0 58.1721 12.4286 723 59.657 961.84 545.598
1103 0 56.1211 12.3839 695 60.5496 961.391 546.452
1104 0 56.1271 12.7211 714 60.465 961.024 546.901
1105 0 58.1217 13.2481 770 59.0182 960.997 546.888
1106 0 60.1176 12.6419 760 60.629 961.172 544.395
1107 0 61.0822 12.8188 783 60.6807 961.25 544.261
1108 0 66.1256 13.3231 881 58.7321 961.26 544.611
1109 0 65.0748 13.2924 865 60.6405 961.206 541.028
1110 0 69.0963 12.6056 871 60.7302 961.27 541.319
1111 0 71.3518 13.1602 939 59.7881 961.498 539.79
1112 0 72.1695 13.205 953 60.5184 961.337 537.375
1113 0 76.4086 12.6295 965 60.7917 961.303 537.424
1114 0 78.2945 14.1645 1109 58.606 961.152 536.325
1115 0 81.2376 13.3189 1082 59.768 960.706 534.093
1116 0 85.2604 13.6758 1166 58.94 960.472 530.7
1117 0 89.4382 13.35 1194 58.9791 960.296 531.768
1118 0 92.3119 13.736 1268 58.7382 959.86 529.85
1119 1 49.1436 10.1946 501 60.024 960.076 551.689
1120 0 50.1252 11.2718 565 59.7257 960.266 551.149
1121 0 52.2865 11.59 606 60.2607 960.38 551.455
1122 0 54.1191 12.6203 683 60.9063 960.694 548.883
1123 0 56.071 12.2523 687 61.4702 960.368 547.709
1124 0 59.1596 13.3875 792 59.1452 960.037 548.319
1125 0 58.1311 12.8159 745 60.1248 959.879 547.983
1126 0 63.1463 12.8907 814 59.1794 960.34 546.747
1127 0 62.3466 12.4305 775 61.6452 959.978 547.183
1128 0 66.4573 13.2416 880 60.2261 959.967 547.417
1129 0 67.2142 11.6791 785 62.1478 960.364 546.345
1130 0 69.2491 13.9063 963 58.9128 960.258 544.28
1131 0 70.3285 12.8966 907 60.7497 960.485 542.813
1132 0 72.4158 13.4363 973 60.3412 960.726 542.316
1133 0 73.4248 12.9248 949 62.2108 960.967 540.578
1134 0 77.4739 13.0754 1013 61.6555 960.633 540.145
1135 0 79.3626 13.117 1041 62.0749 961.116 537.753
1136 0 79.3442 12.4773 990 63.6141 960.407 537.74
1137 0 83.3556 13.9163 1160 62.1043 960.381 536.24
1138 0 86.4683 13.6813 1183 62.5182 960.222 532.763
1139 0 91.3312 13.4894 1232 63.0836 960.846 534.181
1140 1 52.2618 10.2369 535 63.8953 960.189 556.107
1141 0 53.2204 11.7248 624 64.7147 961.074 552.808
1142 0 56.2345 11.8255 665 66.0376 960.662 551.433
1143 0 57.1153 10.9603 626 67.3978 960.867 550.818
1144 0 59.2292 12.5783 745 65.9745 961.189 549.881
1145 0 61.2317 13.0815 801 63.8065 961.458 547.803
1146 0 62.1684 13.576 844 63.9751 961.081 546.893
1147 0 63.1338 13.3843 845 64.3195 961.57 545.43
1148 0 65.2271 12.7401 831 65.9699 961.709 545.227
1149 0 69.1094 13.5003 933 64.6227 962.08 543.81
1150 0 69.2302 12.7979 886 66.2901 962.097 542.884
1151 0 73.1535 13.3691 978 65.1861 962.531 542.591
1152 0 76.521 14.0092 1072 64.0634 962.372 540.76
1153 0 79.3231 14.0438 1114 64.1759 962.353 537.287
1154 0 80.383 13.4854 1084 65.2592 962.529 537.852
1155 0 82.3975 13.18 1086 65.5994 962.89 536.543
1156 0 84.335 13.7665 1161 65.1102 963.361 535.196
1157 0 88.2059 14.1034 1244 64.1439 963.822 534.052
1158 0 88.1718 13.9047 1226 65.0514 963.934 532.546
1159 0 92.1704 13.3014 1226 65.46 964.25 529.162
1160 0 96.1799 14.057 1352 64.0525 964.492 528.633
1161 1 52.1017 10.8442 565 66.2372 965.331 549.674
1162 0 52.0594 11.679 608 65.4441 965.217 549.896
1163 0 54.1212 11.6405 630 65.9048 965.286 547.924
1164 0 55.1578 12.6183 696 64.9842 965.41 546.677
1165 0 58.2856 12.0613 703 65.4168 965.552 545.447
1166 0 59.26 12.8755 763 64.6186 965.418 545.153
1167 0 61.1864 13.1892 807 64.3247 965.502 546.063
1168 0 63.2528 13.28 840 64.9119 965.996 545.848
1169 0 65.2685 12.9465 845 65.155 965.697 543.575
1170 0 66.2484 13.0871 867 65.0877 965.925 542.72
1171 0 69.1887 13.5716 939 64.2726 966.355 540.931
1172 0 72.1615 12.9709 936 64.1731 966.376 541.18
1173 0 74.3879 12.7843 951 65.1977 967.073 539.025
1174 0 76.2513 14.203 1083 63.4617 967.04 539.044
1175 0 79.3091 13.605 1079 64.266 966.84 536.609
1176 0 82.1634 13.6557 1122 64.3369 966.815 535.516
1177 0 84.3446 14.3103 1207 63.5775 966.476 534.531
1178 0 87.279 14.1271 1233 64.4574 966.58 533.122
1179 0 88.2789 13.9218 1229 65.3369 966.803 531.536
1180 0 91.2388 13.4154 1224 66.411 966.364 529.675
1181 0 95.4714 13.9728 1334 65.4243 966.846 527.349
1182 0 98.2748 13.9609 1372 65.5066 965.958 525.971
1183 0 103.272 14.1471 1461 64.9439 965.922 525.216
1184 0 105.28 13.9817 1472 65.0299 966.017 525.058
1185 1 58.1438 11.6263 676 66.9985 966.432 546.632
1186 0 58.1262 11.389 662 67.0423 965.863 546.495
1187 0 62.3586 11.3216 706 67.5 965.831 545.259
1188 0 65.2587 11.9371 779 66.4442 965.65 545.436
1189 0 66.2637 12.6464 838 66.1325 965.593 543.095
1190 0 69.1838 13.7171 949 64.6923 965.227 542.809
1191 0 70.1641 13.2404 929 65.9537 964.953 541.874
1192 0 74.2444 12.7821 949 66.6238 964.978 539.243
1193 0 76.2959 14.0112 1069 65.0327 964.845 537.791
1194 0 79.2069 14.2033 1125 64.7493 965.064 536.636
1195 0 82.2484 13.9091 1144 64.8208 965.249 536.407
1196 0 83.3191 13.6583 1138 65.6643 964.742 534.706
1197 0 87.1243 14.4621 1260 64.2254 965.115 532.825
1198 0 89.2403 13.5477 1209 66.153 964.642 530.673
1199 0 93.2905 14.2673 1331 64.8385 964.495 531.919
1200 0 96.3226 13.9427 1343 65.3812 964.108 529.416
1201 0 99.2448 15.1242 1501 64.0213 964.143 527.089
1202 0 100.307 14.0071 1405 66.3004 963.233 525.447
1203 0 106.407 15.6099 1661 63.4726 963.054 522.967
1204 0 108.315 14.2548 1544 66.013 962.608 523.866
1205 0 111.257 14.5698 1621 66.211 962.669 521.449
1206 1 61.0996 11.4567 700 68.3286 962.986 547.11
1207 0 63.1264 12.7047 802 67.207 962.879 546.067
1208 0 64.1138 12.9457 830 67.3253 962.869 544.355
1209 0 68.2449 13.4369 917 65.7819 963.137 541.811
1210 0 67.1206 13.7216 921 65.4463 963.398 541.759
1211 0 74.2703 14.1914 1054 63.6831 963.391 540.016
1212 0 75.124 13.9769 1050 64.6219 963.337 538.519
1213 0 77.171 13.5673 1047 64.9389 963.05 538.063
1214 0 77.1351 13.4699 1039 66.1347 962.601 537.619
1215 0 81.1715 13.49 1095 65.8457 962.754 535.073
1216 0 83.0865 13.4077 1114 66.2101 962.315 534.815
1217 0 87.1188 13.671 1191 65.618 962.027 533.576
1218 0 90.1825 13.7832 1243 65.4875 961.994 531.732
1219 0 92.144 14.4231 1329 64.4838 961.621 531.277
1220 0 92.1836 13.8636 1278 65.8396 961.69 530.854
1221 0 95.1232 13.4247 1277 66 961.776 529.471
1222 0 99.1789 14.6301 1451 64.6003 962.103 526.831
1223 0 105.1 13.1494 1382 65.5579 961.994 528.171
1224 0 105.134 13.6112 1431 65.6233 961.486 524.036
1225 0 109.278 14.1656 1548 64.4018 961.412 523.039
1226 0 112.252 13.6033 1527 65.7551 961.457 521.204
1227 0 116.294 14.4891 1685 63.9573 961.173 520.823
1228 0 120.126 13.7273 1649 64.9891 960.925 518.634
1229 0 123.188 14.0192 1727 64.2594 960.504 516.281
1230 1 67.0798 13.1783 884 63.767 961.063 543.563
1231 0 68.0576 12.5188 852 64.7336 961.243 543.824
1232 0 70.1579 14.168 994 63.2596 960.773 539.489
1233 0 74.1013 14.6826 1088 62.2132 961.237 538.869
1234 0 74.2876 13.4074 996 64.504 961.227 538.449
1235 0 77.0885 13.7245 1058 63.9972 961.508 537.645
1236 0 78.202 13.8104 1080 64.7259 961.586 536.295
1237 0 81.1813 13.9687 1134 64.4515 961.67 535.549
1238 0 82.1024 13.7633 1130 64.8106 961.214 533.038
1239 0 88.1421 14.0909 1242 64.1852 961.008 533.231
1240 0 91.2054 14.4399 1317 63.7821 960.643 530.592
1241 0 92.1401 13.7725 1269 64.8258 961.076 530.438
1242 0 99.3068 13.856 1376 63.6439 961.35 530.471
1243 0 100.208 15.0387 1507 62.6689 961.401 526.412
1244 0 105.186 14.7738 1554 62.9389 961.144 525.425
1245 0 107.16 14.4363 1547 63.3975 960.943 524.405
1246 0 111.119 14.7949 1644 63.1582 960.861 522.967
1247 0 114.258 14.686 1678 63.8158 960.866 520.596
1248 0 117.218 14.7077 1724 65.4124 960.356 517.712
1249 0 122.157 14.7678 1804 65.4085 960.693 513.82
1250 1 64.1719 12.373 794 68.1121 960.204 544.573
1251 0 67.2487 12.7289 856 67.7886 961.192 543.277
1252 0 70.1449 13.3581 937 66.8677 961.077 542.926
1253 0 71.3043 13.9964 998 66.7685 960.615 541.225
1254 0 75.1529 13.7586 1034 67.3501 960.803 539.248
1255 0 77.2441 14.6807 1134 66.7064 961.179 536.385
1256 0 79.0887 14.6291 1157 67.0856 961.895 535.417
1257 0 83.1621 14.7904 1230 67.0919 962.192 533.458
1258 0 86.2128 14.6034 1259 67.2724 962.766 531.975
1259 0 89.1764 14.7236 1313 67.5765 962.562 530.06
1260 0 91.1902 13.8502 1263 68.977 962.944 528.276
1261 0 91.3244 14.3007 1306 69.3545 963.048 527.41
1262 0 97.3027 14.6861 1429 68.1113 962.936 526.683
1263 0 98.2681 15.1219 1486 68.1777 962.877 524.204
1264 0 101.174 14.4801 1465 69.8628 963.003 524.532
1265 0 104.439 14.6209 1527 69.6529 962.906 522.229
1266 0 108.273 14.8236 1605 69.2673 963.013 519.181
1267 0 113.205 15.017 1700 68.6876 962.961 517.658
1268 1 58.289 12.2493 714 70.9762 963.587 544.293
1269 0 61.1196 13.0073 795 70.478 964.185 542.865
1270 0 64.4325 14.1854 914 67.9059 964.518 542.332
1271 0 64.1814 13.8202 887 70.7903 964.799 539.309
1272 0 66.3072 13.7089 909 70.2057 964.906 539.526
1273 0 68.1713 13.6421 930 70.6075 965.23 539.016
1274 0 70.2914 13.8708 975 70.7005 965.634 536.537
1275 0 73.5189 14.3092 1052 70.1654 965.822 534.437
1276 0 76.321 14.2294 1086 70.4521 965.777 533.199
1277 0 79.4483 13.8832 1103 70.9646 965.89 531.783
1278 0 83.3887 13.6589 1139 70.1194 966.651 531.673
1279 0 84.2533 13.946 1175 70.6153 966.829 529.356
1280 0 87.515 14.3176 1253 71.0535 966.93 526.588
1281 0 88.4411 14.6312 1294 70.8431 967.267 526.378
1282 0 91.5684 14.0223 1284 71.9782 967.412 524.915
1283 0 95.8906 14.4123 1382 70.3748 967.615 524.173
1284 0 98.6249 13.7896 1360 71.9868 967.93 523.626
1285 0 103.518 14.0362 1453 71.0626 967.637 519.905
1286 0 103.426 13.865 1434 71.9017 967.768 517.823
1287 0 110.654 13.9895 1548 70.6466 967.808 516.579
1288 0 113.378 14.1297 1602 70.6841 967.582 514.547
1289 1 61.4843 13.4506 827 68.5187 967.488 541.295
1290 0 61.2251 12.7562 781 70.9577 967.732 538.852
1291 0 65.3155 13.3659 873 68.4926 967.693 537.861
1292 0 67.448 12.8692 868 69.7419 967.517 536.85
1293 0 69.311 13.7929 956 67.6088 967.427 536.55
1294 0 72.2802 13.4338 971 68.3234 967.851 533.044
1295 0 74.3326 13.4261 998 68.4339 967.553 532.185
1296 0 77.3569 14.1422 1094 66.926 967.864 531.122
1297 0 78.3038 13.6392 1068 68.3436 967.69 530.298
1298 0 82.1971 14.0759 1157 66.1098 967.755 529.473
1299 0 84.1702 13.8291 1164 66.9296 967.772 528.774
1300 0 86.4799 13.9917 1210 66.7926 967.574 527.624
1301 0 89.1163 14.1949 1265 66.6972 967.3 524.718
1302 0 92.2141 14.2603 1315 66.6472 967.119 523.475
1303 0 94.1836 13.3994 1262 68.8003 966.543 524.956
1304 0 96.1885 14.7003 1414 66.367 966.344 521.285
1305 0 100.236 14.6055 1464 66.3723 966.875 519.939
1306 0 102.281 13.766 1408 67.728 966.784 519.142
1307 0 105.401 14.4022 1518 67.2286 966.312 517.18
1308 0 109.405 14.6886 1607 66.4325 966.9 515.669
1309 0 111.255 13.9409 1551 67.8079 966.06 514.382
1310 0 117.319 14.6438 1718 66.3364 966.031 511.297
1311 0 119.386 14.0804 1681 67.4402 965.985 511.246
1312 0 124.268 14.6216 1817 66.8745 965.572 507.499
1313 0 125.328 13.9554 1749 67.9966 965.539 506.86
1314 0 132.225 14.9216 1973 65.8991 965.011 504.607
1315 0 139.194 15.3454 2136 63.9532 964.774 502.941
1316 0 141.391 14.8029 2093 65.3063 964.908 501.551
1317 0 148.315 14.449 2143 66.0303 964.837 497.672
1318 0 154.288 15.1211 2333 64.9498 964.759 494.323
1319 1 87.16 11.519 1004 65.9492 964.477 530.958
1320 0 88.0515 11.868 1045 65.7397 963.509 528.421
1321 0 91.2009 12.138 1107 66.0136 963.478 526.538
1322 0 95.1982 12.4687 1187 65.5324 963.382 523.52
1323 0 96.1598 12.4688 1199 66.0075 963.683 522.075
1324 0 102.148 12.9714 1325 64.44 963.511 520.371
1325 0 105.139 12.7926 1345 64.5703 963.731 518.755
1326 1 62.1141 9.74013 605 62.557 963.998 542.894
1327 0 64.1053 11.5747 742 61.0337 963.403 541.573
1328 0 67.0794 12.4927 838 59.9033 963.42 540.529
1329 0 68.1411 12.0926 824 60.3932 963.324 541.618
1330 0 71.1425 12.4961 889 60.4983 963.306 539.945
1331 0 73.0852 12.6017 921 59.949 962.713 537.831
1332 0 76.1869 12.1937 929 60.2347 962.733 537.13
1333 0 79.2753 12.5386 994 60.7093 962.126 537.352
1334 0 77.0802 12.4675 961 63.6191 962.387 537.286
1335 0 82.1808 11.9614 983 63.1109 962.478 535.168
1336 0 86.1504 12.6175 1087 61.0028 962.573 533.833
1337 0 87.2718 13.0283 1137 60.5462 963.044 532.831
1338 0 91.2295 12.4521 1136 60.0783 962.247 530.679
1339 0 96.2665 12.829 1235 58.6632 962.12 528.338
1340 0 97.2476 12.6481 1230 58.587 962.692 526.959
1341 1 52.3219 10.3207 540 58.0537 962.526 550.424
1342 0 54.1919 10.2598 556 57.6313 961.948 550.221
1343 0 54.2046 9.74088 528 59.1591 962.218 546.062
1344 0 58.1721 11.9645 696 55.2902 961.784 546.246
1345 0 58.0875 11.6204 675 56.8993 961.114 545.216
1346 0 61.059 12.1686 743 57.3688 960.804 545.055
1347 0 61.0628 11.218 685 60.0482 959.918 546.305
1348 0 64.0257 11.6828 748 59.3316 959.868 544.324
1349 0 65.0458 11.5303 750 59.748 959.82 544.015
1350 0 68.0863 11.7792 802 59.4838 959.592 542.466
1351 0 70.0858 12.0852 847 59.2869 959.004 540.647
1352 0 73.0712 12.002 877 59.8062 959.566 541.803
1353 0 74.3071 12.9059 959 57.5892 960.538 542.118
1354 0 72.2107 11.6465 841 60.8787 959.931 541.973
1355 0 78.1763 12.3695 967 59.8976 960.307 540.318
1356 0 79.211 11.6651 924 61.9978 960.51 539.471
1357 0 80.2034 12.2813 985 62.1127 960.136 537.668
1358 0 84.13 12.8967 1085 61.5198 959.995 535.989
1359 0 86.2554 12.1268 1046 62.9245 960.216 533.544
1360 1 46.0726 11.3951 525 63.8095 958.91 553.11
1361 0 44.0493 10.125 446 65.0942 959.063 554.984
1362 0 49.0892 11.2448 552 63.7301 958.634 554.542
1363 0 50.0363 11.4117 571 61.5604 959.345 552.618
1364 0 50.0512 11.0886 555 65.7928 958.757 553.02
1365 0 52.1114 11.4946 599 66.8698 958.593 552.681
1366 0 55.0679 12.2394 674 65.3858 958.236 550.777
1367 0 57.1226 12.6395 722 64.2521 958.375 549.62
1368 0 58.0997 11.9106 692 65.7312 958.701 548.117
1369 0 57.2877 12.4459 713 66.5554 958.536 549.129
1370 0 59.206 11.9583 708 68.4138 958.749 547.338
1371 0 61.2231 12.626 773 66.978 958.823 547.212
1372 0 62.2714 12.028 749 68.526 958.716 547.232
1373 0 65.215 12.8038 835 67.194 959.107 547.062
1374 0 65.3426 12.7176 831 68.2431 959.626 546.342
1375 0 69.199 13.8875 961 66.2227 959.448 545.976
1376 0 70.2348 13.3125 935 68.1946 959.525 544.878
1377 0 73.2825 13.4821 988 68.3806 959.176 543.792
1378 0 74.4354 13.3001 990 69.1515 959.588 543.006
1379 0 79.2535 13.4253 1064 67.9483 959.454 542.019
1380 0 79.4027 13.123 1042 68.7447 959.031 541.132
1381 0 85.3595 13.9528 1191 66.4484 958.913 541.516
1382 0 85.4435 13.6347 1165 65.3631 959.148 537.407
1383 0 87.3492 13.5662 1185 64.8464 959.636 536.981
1384 0 89.472 13.6579 1222 67.7095 959.527 534.556
1385 1 49.3088 11.215 553 69.6528 959.705 555.6
1386 0 50.1273 10.7327 538 68.9256 959.914 555.452
1387 0 53.1839 10.9996 585 68.4274 960.024 553.349
1388 0 55.1184 12.4641 687 66.8341 960.21 551.338
1389 0 54.1482 12.4104 672 67.9003 960.836 549.048
1390 0 57.1218 13.1123 749 66.4927 960.505 549.128
1391 0 58.1498 12.9493 753 66.6853 960.59 549.252
1392 0 62.1707 13.5755 844 64.9822 960.692 548.786
1393 0 61.1258 13.7749 842 66.0142 960.657 546.653
1394 0 64.2704 13.1631 846 66.7364 960.375 545.812
1395 0 66.1624 13.3308 882 66.28 960.737 544.627
1396 0 68.0991 13.3629 910 66.3 961.274 543.275
1397 0 70.0984 13.2243 927 65.6861 961.255 543.115
1398 0 75.329 13.607 1025 64.8156 961.402 541.471
1399 0 77.2335 13.388 1034 65.619 961.854 539.289
1400 0 80.0963 13.9457 1117 64.5524 962.287 537.689
1401 1 42.0924 10.6432 448 66.9531 962.174 554.417
1402 0 44.0479 11.5102 507 65.5286 962.248 554.544
1403 0 45.0332 13.1681 593 63.9444 962.597 551.437
1404 0 48.1608 13.5587 653 62.6708 962.923 550.455
1405 0 49.1593 12.7748 628 64.3137 963.013 552.932
1406 0 49.1966 13.07 643 64.5257 963.378 554.07
1407 0 52.1328 13.3122 694 63.6672 963.298 550.637
1408 0 52.0766 13.5378 705 63.5489 963.026 550.267
1409 0 55.0875 13.1246 723 63.5076 963.014 548.473
1410 0 56.1396 13.983 785 62.7898 964.033 547.377
1411 0 58.2477 14.0435 818 62.3643 964.056 547.74
1412 0 59.0918 13.4198 793 63.8361 964.552 545.198
1413 0 61.0981 13.2246 808 64.0297 964.52 545.746
1414 0 64.1358 14.5473 933 61.8757 964.461 544.244
1415 0 66.1194 14.8973 985 61.1888 964.89 541.588
1416 0 68.138 14.6321 997 61.6008 964.651 542.16
1417 0 68.1028 14.1698 965 63.1503 964.734 541.445
1418 0 68.1028 14.1698 965 172.544 965.734 541.445
1419 0 74.2982 14.1592 1052 62.1682 965.33 538.884
1420 0 76.212 13.9086 1060 62.5934 965.188 538.176
1421 0 79.1238 14.155 1120 62.6268 965.487 535.546
1422 0 82.2549 14.1876 1167 62.467 965.467 533.721
1423 1 41.0578 12.1292 498 64.1124 965.273 553.695
1424 0 45.0863 12.5759 567 62.2522 964.598 552.683
1425 0 44.0401 13.5558 597 61.5511 964.874 552.276
1426 0 45.0837 13.5304 610 62.2328 964.549 551.585
1427 0 49.0218 12.831 629 63.1781 964.816 550.927
1428 0 47.0706 13.5116 636 62.6997 965.308 549.717
1429 0 50.1236 13.2473 664 62.6039 964.584 549.401
1430 0 53.0988 14.3506 762 60.0748 964.95 548.951
1431 0 53.1347 13.8892 738 61.5732 964.764 547.936
1432 0 55.2188 13.2926 734 61.688 964.796 547.826
1433 0 58.1844 13.8525 806 61.2543 964.443 545.897
1434 0 60.1319 14.0691 846 61.4291 964.546 546.702
1435 0 61.2128 14.6865 899 62.0378 964.973 544.448
1436 0 63.2203 14.489 916 62.6943 964.355 543.629
1437 0 64.0435 14.3496 919 63.2775 964.341 542.701
1438 0 66.1133 13.7189 907 63.9129 964.569 543.301
1439 0 71.2214 14.0828 1003 62.7218 964.017 541.328
1440 0 70.1604 13.8112 969 63.6089 964.449 538.432
1441 0 76.2049 13.9886 1066 61.7289 964.387 538.845
1442 0 79.0601 13.7111 1084 62.1624 964.336 537.464
1443 0 80.1517 14.2729 1144 61.7028 964.336 535.35
1444 0 81.0633 13.8657 1124 62.3283 964.326 535.033
1445 0 86.1169 15.2816 1316 60.073 963.992 533.014
1446 0 87.0602 14.1396 1231 62.0674 964.109 529.988
1447 0 91.0943 14.6003 1330 61.394 963.674 530.078
1448 0 93.217 14.6432 1365 61.3641 963.465 528.511
1449 1 48.1223 11.5123 554 63.3484 963.134 550.33
1450 0 50.099 11.5372 578 62.981 963.123 550.128
1451 0 53.0766 12.1334 644 62.3696 962.599 549.422
1452 0 54.1025 13.5484 733 60.8158 962.891 547.288
1453 0 55.0746 13.164 725 61.4814 962.759 546.119
1454 0 56.1186 12.9369 726 62 962.974 544.798
1455 0 58.0657 13.3297 774 61.5078 962.939 545.168
1456 0 60.1643 13.5795 817 61.2362 962.558 545.552
1457 0 64.1081 13.758 882 61.119 962.646 543.017
1458 0 66.0832 13.1804 871 61.6912 963.095 541.513
1459 0 70.1019 13.3948 939 61.607 962.588 542.043
1460 0 72.1089 13.9511 1006 60.8608 962.741 541.508
1461 0 73.1657 13.5036 988 61.7277 962.475 540.157
1462 0 76.1089 14.2953 1088 61.046 962.22 538.172
1463 0 79.1364 13.344 1056 62.1278 962.251 537.493
1464 0 82.2105 14.0736 1157 61.1703 961.905 534.737
1465 0 86.0981 14.2396 1226 61.0848 962.17 533.55
1466 1 43.0141 10.7872 464 62.653 961.466 554.179
1467 0 46.018 11.9518 550 60.9436 962.078 554.882
1468 0 45.0996 11.6187 524 62.3664 961.779 552.317
1469 0 49.0465 12.845 630 61.0413 961.903 552.049
1470 0 49.0352 12.2361 600 62.9017 961.923 552.563
1471 0 51.0422 11.8725 606 63.2228 961.528 551.254
1472 0 54.1448 13.1499 712 61.9087 960.636 551.32
1473 0 55.181 12.5043 690 62.9217 959.897 551.48
1474 0 58.2718 12.9908 757 61.9815 960.506 549.324
1475 0 59.1367 12.4626 737 62.8711 960.024 549.497
1476 0 61.1948 13.073 800 61.5225 959.969 549.058
1477 0 63.1889 13.0719 826 61.6889 959.883 547.163
1478 0 64.2496 13.3386 857 61.0467 959.611 546.411
1479 0 68.169 13.5105 921 60.4734 959.533 545.256
1480 0 68.1462 13.1042 893 61.3819 959.982 543.758
1481 0 71.2057 12.5692 895 61.7944 959.108 543.126
1482 0 75.1788 13.9268 1047 59.5301 959.194 540.319
1483 0 78.1337 13.4897 1054 60.13 959.712 538.759
1484 0 81.3461 13.5102 1099 59.4459 959.689 538.936
1485 0 83.2057 12.7395 1060 61.3226 959.11 535.833
1486 1 43.0527 10.4059 448 61.9665 959.152 555.299
1487 0 46.0413 12.0978 557 59.9677 959.467 555.51
1488 0 48.0245 11.9106 572 58.8811 959.374 554.257
1489 0 47.0596 11.9211 561 59.9501 958.989 553.364
1490 0 50.0492 13.0671 654 57.6498 959.028 553.021
1491 0 52.0734 12.0407 627 58.9984 958.992 553.137
1492 0 56.0901 12.0164 674 58.1498 959.125 552.04
1493 0 56.3078 12.9112 727 57.1843 960.007 550.437
1494 0 57.2694 12.4674 714 57.8109 960.022 550.346
1495 0 61.1075 13.3371 815 55.9325 960.244 549.626
1496 0 61.1722 12.3259 754 58.4456 960.47 547.789
1497 0 65.3465 12.5485 820 57.3768 960.322 546.76
1498 0 67.2232 13.775 926 56.4849 960.228 544.409
1499 0 69.3481 13.1799 914 58.3709 960.079 544.565
1500 0 71.2683 11.9829 854 60.356 960.254 544.082
1501 0 73.4612 12.9592 952 59.9695 960.466 542.986
1502 0 77.5212 12.0483 934 60.6927 960.464 542.305
1503 1 39.4057 10.9629 432 60.0162 960.28 559.808
1504 0 41.2738 11.6539 481 59.0083 960.578 559.792
1505 0 42.3494 11.7121 496 59.8165 960.677 556.7
1506 0 41.0849 12.1456 499 59.7194 961.467 554.661
1507 0 45.2326 12.6458 572 58.3182 961.689 554.6
1508 0 44.2731 12.3777 548 59.6204 962.089 554.659
1509 0 47.2235 12.3879 585 59.9026 962.186 553.28
1510 0 48.354 12.4912 604 58.4636 962.018 554.507
1511 0 49.1959 13.1108 645 59.0822 962.535 551.366
1512 0 50.2241 12.504 628 59.2834 961.971 552.454
1513 0 53.1244 13.0449 693 59.1645 961.964 550.889
1514 0 53.0486 12.0267 638 61.1802 961.898 551.099
1515 0 54.0985 13.1057 709 60.3032 962.255 550.295
1516 0 57.0164 12.9612 739 60.3491 962.099 549.405
1517 0 59.234 13.2356 784 59.81 962.758 549.129
1518 0 60.3386 13.3745 807 59.2986 962.197 548.54
1519 0 60.2512 13.1616 793 60.6154 962.687 546.694
1520 0 64.13 13.3011 853 59.9461 963.093 546.304
1521 0 65.3918 13.3197 871 60.2641 963.234 543.897
1522 0 65.1406 14.1694 923 59.8017 963.949 544.399
1523 0 69.2282 13.3327 923 60.2026 963.992 543.744
1524 0 70.2804 13.0335 916 61.0338 964.513 541.099
1525 0 73.2436 12.9568 949 60.4173 964.487 539.668
1526 0 74.3256 13.8983 1033 59.0978 964.258 540.645
1527 0 78.3751 13.563 1063 59.4186 964.653 539.642
1528 0 81.4181 13.9035 1132 58.8074 965.064 537.602
1529 1 44.3328 11.7295 520 60.5904 964.804 555.283
1530 0 45.2339 11.4737 519 61.1349 964.642 553.8
1531 0 44.1558 12.0935 534 61.4195 964.798 552.948
1532 0 44.1558 12.0709 533 167.242 965.767 553.009
1533 0 50.112 12.2925 616 60.5779 964.028 554.149
1534 0 51.1156 13.401 685 60.0905 964.601 550.953
1535 0 51.0952 12.9954 664 61.4262 965.045 550.661
1536 0 54.1656 13.071 708 61.6836 964.938 549.372
1537 0 57.2214 12.8798 737 61.5224 964.917 549.716
1538 0 57.1391 13.7209 784 61.1582 964.571 548.884
1539 0 60.1416 13.1024 788 61.0482 964.582 549.053
1540 0 61.1573 13.7187 839 61.1788 964.746 547.472
1541 0 63.2611 14.2268 900 60.9467 964.991 544.248
1542 0 65.1993 14.1106 920 60.713 964.758 544.213
1543 0 66.2797 13.9107 922 61.3764 964.624 545.415
1544 0 69.1017 13.9939 967 61.5574 964.751 543.288
1545 0 71.312 14.4856 1033 61.3049 965.179 541.429
1546 0 73.2345 14.7472 1080 60.437 964.528 540.743
1547 0 75.0731 13.6667 1026 62.1433 964.953 539.336
1548 0 79.1685 14.3112 1133 61.0062 964.499 538.866
1549 1 42.3106 13.5663 574 62.2474 964.274 556.038
1550 0 43.1529 11.8416 511 64.2192 963.802 556.597
1551 0 46.1379 12.6144 582 64.0137 964 554.955
1552 0 49.1897 14.1493 696 62.3305 964.141 552.826
1553 0 49.2439 13.8697 683 63.2782 963.397 552.981
1554 0 49.1751 14.1535 696 63.7888 962.964 551.58
1555 0 53.197 13.7602 732 63.097 963.214 550.537
1556 0 53.1052 14.1982 754 63.5119 963.054 551.026
1557 0 56.3097 14.8642 837 61.9952 963.05 550.796
1558 0 56.0972 13.5836 762 64.9331 962.875 549.16
1559 0 60.2668 14.1537 853 63.789 962.951 547.688
1560 0 61.2716 13.6768 838 64.8473 962.548 547.921
1561 0 61.2716 13.6768 838 177.737 961.542 547.97
1562 0 66.2241 14.466 958 63.739 962.508 545.945
1563 0 68.5212 14.4627 991 63.7508 962.5 546.081
1564 0 71.2112 15.0117 1069 63.1899 962.909 544.288
1565 0 72.199 14.4462 1043 64.1419 962.033 543.171
1566 0 74.2848 14.4175 1071 64.366 962.254 541.88
1567 0 79.2413 14.6388 1160 63.6948 962.452 539.074
1568 0 81.303 14.4029 1171 63.9394 962.702 540.358
1569 0 84.3317 14.609 1232 64.1542 962.7 537.345
1570 0 87.5444 14.941 1308 63.6919 962.421 535.453
1571 0 90.3571 14.3542 1297 63.7286 962.119 534.871
1572 0 95.2299 14.1447 1347 63.7379 961.84 534.323
1573 1 49.1485 12.92 635 66.0032 961.783 554.05
1574 0 49.1485 12.92 635 176.869 961.783 554.05
1575 0 53.2916 15.1056 805 62.8162 961.672 552.835
1576 0 55.1467 15.4497 852 62.5352 962.039 552.681
1577 0 55.363 14.4139 798 64.7243 961.554 550.586
1578 0 58.1942 14.1939 826 64.8124 961.614 550.829
1579 0 60.4267 14.0004 846 64.74 961.103 550.117
1580 0 60.1981 14.2031 855 65.7708 960.763 549.119
1581 0 63.1569 14.5986 922 64.9382 960.858 546.954
1582 0 64.2986 14.2927 919 65.7345 960.618 547.302
1583 0 67.15 14.0432 943 65.6638 961.059 546.859
1584 0 70.2628 14.2038 998 65.0962 960.937 545.549
1585 0 71.2249 14.7701 1052 64.2196 960.941 545.032
1586 0 74.1269 14.2189 1054 64.4658 960.366 545.553
1587 0 78.2324 14.9554 1170 63.5359 960.203 541.046
1588 0 79.186 14.346 1136 64.4877 959.733 541.826
1589 0 83.2739 13.9299 1160 64.725 960.273 540.86
1590 0 87.1915 14.2101 1239 64.6086 960.139 536.772
1591 1 47.1711 13.292 627 65.2568 959.683 556.412
1592 0 46.1376 12.1159 559 66.8068 959.814 557.959
1593 0 48.135 12.735 613 66.0049 960.326 556.832
1594 0 51.0576 13.6904 699 64.4478 960.305 555.536
1595 0 52.0397 14.316 745 64.2336 960.674 552.897
1596 0 53.1393 14.302 760 64.479 960.532 552.81
1597 0 57.1108 13.5351 773 65.0298 960.739 553.185
1598 0 57.245 14.3419 821 63.7393 960.404 553.168
1599 0 60.2542 14.0737 848 64.3927 960.613 549.106
1600 0 63.1207 14.3535 906 63.1369 960.637 550.148
1601 0 64.2328 14.3385 921 63.9577 960.982 548.299
1602 0 66.3267 14.6547 972 62.9352 960.921 547.004
1603 0 69.2124 14.6361 1013 62.997 961.038 545.875
1604 0 71.1873 14.9324 1063 62.7865 961.251 543.436
1605 0 74.2966 14.3748 1068 62.8961 961.801 543.331
1606 0 76.1298 13.871 1056 63.7386 961.956 541.279
1607 0 79.4736 13.7027 1089 63.6354 962.194 538.961
1608 1 42.1078 12.5392 528 63.2348 962.256 557.706
1609 0 42.3111 12.4553 527 63.0949 962.484 557.953
1610 0 46.2073 13.8073 638 61.2555 962.591 554.719
1611 0 46.1174 14.2029 655 60.6641 962.719 554.997
1612 0 46.3217 13.6005 630 62.5635 962.792 552.949
1613 0 50.4859 13.172 665 61.3083 962.937 554.165
1614 0 50.0913 13.3556 669 61.9357 963.43 552.435
1615 0 51.1946 14.982 767 60.2347 963.138 551.353
1616 0 53.3658 13.6042 726 62.0344 963.621 551.28
1617 0 55.385 14.2096 787 61.6086 963.717 549.197
1618 0 56.1432 14.4274 810 62.0309 964.662 547.98
1619 0 59.5497 14.1226 841 61.9703 964.358 549.523
1620 0 60.181 14.5229 874 61.9153 964.644 547.555
1621 0 62.3613 14.4962 904 62.6792 965.019 545.608
1622 0 64.2903 14.6678 943 62.2174 965.56 545.642
1623 0 65.3953 14.313 936 63.4412 965.109 544.379
1624 0 69.3114 14.7595 1023 62.6031 965.541 542.744
1625 0 71.4911 14.5333 1039 63.1415 966.278 541.765
1626 0 74.2862 13.9595 1037 63.8582 965.984 539.322
1627 0 75.1168 14.098 1059 64.3862 965.808 538.49
1628 0 79.3004 14.7414 1169 63.1899 966.532 537.444
1629 0 83.2799 14.7334 1227 63.1866 967.015 534.705
1630 0 86.2559 15.0019 1294 63.4258 966.94 532.964
1631 0 90.3737 14.1745 1281 64.2022 966.759 532.691
1632 1 46.3541 12.7713 592 67.022 966.645 552.162
1633 0 48.3003 13.8508 669 65.87 966.77 550.64
1634 0 50.3291 13.4713 678 66.6652 966.668 550.183
1635 0 53.4076 13.7434 734 66.1894 966.371 549.302
1636 0 54.1475 14.8114 802 65.7257 966.249 548.069
1637 0 57.2768 14.2292 815 66.1313 966.198 547.167
1638 0 59.3242 14.2775 847 66.0154 966.59 545.436
1639 0 61.2463 15.103 925 65.0541 966.631 544.712
1640 0 64.0905 14.3547 920 66.4 966.706 544.248
1641 0 66.2745 14.3041 948 65.7373 966.848 542.06
1642 0 72.3478 15.2734 1105 63.0054 966.575 540.756
1643 0 72.2602 14.4063 1041 65.5869 966.663 538.778
1644 0 76.2239 14.7592 1125 64.7804 966.834 537.811
1645 0 79.1848 14.6114 1157 64.8064 966.588 535.933
1646 1 42.156 13.118 553 66.9096 965.526 553.329
1647 0 43.0901 12.323 531 68.3748 965.874 553.731
1648 0 44.1244 13.3033 587 67.6474 966.143 552.399
1649 0 46.0507 12.9206 595 68.0992 965.306 552.245
1650 0 47.1631 13.6972 646 67.8297 965.002 550.658
1651 0 49.1981 14.1266 695 67.1727 965.547 550.84
1652 0 51.0536 13.7111 700 67.8286 965.281 548.864
1653 0 53.1241 13.9108 739 67.5819 965.061 549.526
1654 0 56.0802 14.1761 795 66.322 965.147 548.108
1655 0 56.1563 13.783 774 67.0349 964.58 548.155
1656 0 57.1302 14.0556 803 66.4545 964.484 546.092
1657 0 60.1271 14.1367 850 65.64 964.515 545.801
1658 0 62.227 14.6078 909 64.945 964.192 544.351
1659 0 63.1292 14.3515 906 65.755 964 542.919
1660 0 66.1775 14.5215 961 64.9355 963.785 542.936
1661 0 68.1451 14.6746 1000 65.155 963.48 542.073
1662 0 70.0978 14.5083 1017 65.2006 963.395 542.777
1663 0 72.1106 14.3807 1037 65.6422 963.214 541.369
1664 0 75.2028 14.6803 1104 65.1757 963.364 539.771
1665 0 76.2422 14.6507 1117 65.8227 963.601 539.43
1666 0 80.2622 14.1162 1133 66.3124 963.362 538.099
1667 0 84.2116 14.0598 1184 64.6225 963.466 536.824
1668 0 86.1634 14.7743 1273 63.8468 963.497 534.068
1669 0 91.1656 14.3914 1312 63.7104 963.492 532.161
1670 0 93.4088 14.6881 1372 63.5663 963.445 530.461
1671 1 49.0816 11.6948 574 65.0679 962.652 552.232
1672 0 50.2915 11.6918 588 64.4694 962.461 553.151
1673 0 51.0914 12.9767 663 63.8235 962.268 550.134
1674 0 54.1014 12.8093 693 63.482 962.319 549.788
1675 0 55.1067 13.4829 743 63.1104 961.72 548.588
1676 0 57.1282 12.8133 732 63.5068 962.092 547.889
1677 0 59.0569 13.0383 770 63.2779 962.778 547.165
1678 0 63.099 13.455 849 62.5889 962.895 544.993
1679 0 65.2093 13.6484 890 61.6584 962.064 545.097
1680 0 65.1178 13.6829 891 62.8923 962.195 544.967
1681 0 67.1334 13.5104 907 63.5987 962.072 544.024
1682 0 71.1866 13.6824 974 64.1047 962.856 541.747
1683 0 70.2544 13.3088 935 65.6556 962.154 541.53
1684 0 73.1394 13.6999 1002 63.2395 963.02 538.403
1685 0 78.2102 13.5404 1059 63.0623 962.07 538.739
1686 0 82.4239 14.0372 1157 62.2541 961.861 538.194
1687 0 83.1941 13.0057 1082 64.61 961.762 535.742
1688 0 86.097 13.7055 1180 63.7856 962.236 533.977
1689 0 89.1835 13.9263 1242 63.8559 961.558 533.7
1690 1 49.1049 10.8136 531 65.7081 961.384 553.622
1691 0 52.1293 12.1813 635 63.737 961.219 553.561
1692 0 54.1492 12.1516 658 64.1292 961.761 553.152
1693 0 54.4199 12.6608 689 64.8491 961.356 550.713
1694 0 57.121 13.4977 771 63.2711 960.529 550.835
1695 0 57.1433 12.9849 742 65.0175 960.576 548.724
1696 0 59.2044 12.5328 742 65.2439 960.204 550.09
1697 0 61.1302 13.185 806 64.6303 960.29 547.847
1698 0 64.155 12.3919 795 64.9195 960.527 547.395
1699 0 65.1648 13.1359 856 64.2862 960.214 546.52
1700 0 68.0409 13.4625 916 63.1648 960.18 546.441
1701 0 70.3112 12.9282 909 64.0077 959.968 544.933
1702 0 72.1218 12.5205 903 64.6534 959.612 544.552
1703 0 73.1089 13.0627 955 64.1623 959.327 543.706
1704 0 78.2043 13.8995 1087 62.196 959.23 541.765
1705 0 78.1514 12.7957 1000 64.539 959.96 540.629
1706 0 81.2705 13.2643 1078 63.475 959.949 541.808
1707 1 43.1078 12.5499 541 63.4085 960.087 558.2
1708 0 43.2028 11.99 518 65.0792 960.357 556.398
1709 0 45.2005 12.1016 547 64.2212 960.227 557.051
1710 0 46.2062 13.1368 607 63.1829 959.893 556.804
1711 0 47.1021 12.5684 592 63.6926 959.672 554.905
1712 0 50.1817 13.0725 656 62.5534 959.8 555.191
1713 0 51.154 12.7067 650 62.8954 959.854 555.969
1714 0 53.1051 13.8593 736 61.4062 960.029 552.314
1715 0 54.2238 13.2599 719 62.4284 960.174 553.286
1716 0 56.1313 13.0765 734 63.0164 960.101 551.35
1717 0 59.2686 13.7847 817 61.8078 960.07 550.307
1718 0 60.3464 13.5054 815 61.8074 960.318 550.602
1719 0 62.2092 13.8082 859 61.8196 960.149 547.629
1720 0 65.2537 13.164 859 62.6927 960.219 548.939
1721 0 67.2268 14.3247 963 61.2336 960.345 546.763
1722 0 69.2273 13.3329 923 62.2156 959.882 545.779
1723 0 72.2973 14.0392 1015 61.7882 959.936 542.757
1724 0 74.2185 14.1474 1050 61.2486 959.977 542.496
1725 0 76.4172 13.531 1034 62.4478 960.447 541.096
1726 0 80.2123 13.0903 1050 63.0695 960.963 541.051
1727 0 83.3707 14.9573 1247 60.3889 960.938 538.476
1728 1 42.1376 12.1269 511 64.9002 961.106 556.847
1729 0 44.3016 13.0469 578 63.1834 961.306 556.65
1730 0 46.1775 12.1921 563 63.6075 961.48 556.584
1731 0 46.2478 12.7357 589 62.8947 961.341 555.577
1732 0 49.3171 14.6805 724 59.9668 961.66 552.762
1733 0 52.4644 14.5051 761 59.2142 962.005 552.562
1734 0 52.2285 13.6707 714 60.7241 962.471 551.406
1735 0 54.3764 14.51 789 60.7972 962.924 551.345
1736 0 56.2358 13.799 776 63.2216 963.048 550.562
1737 0 57.2326 14.2926 818 64.2971 962.912 548.319
1738 0 59.3751 14.1642 841 64.937 963.203 549.636
1739 0 61.5738 13.7721 848 64.7488 963.423 547.871
1740 0 62.1671 14.3806 894 63.9597 963.379 546.468
1741 0 65.1777 14.3761 937 62.7631 963.916 545.014
1742 0 67.2298 14.4728 973 64.2631 964.165 543.37
1743 0 72.1476 15.1772 1095 61.5991 964.474 541.989
1744 0 73.2874 13.9997 1026 62.6228 964.904 540.164
1745 0 76.1826 13.4151 1022 63.5607 964.975 538.933
1746 0 79.1349 15.0882 1194 61.6759 965.049 536.959
1747 0 81.1017 14.6236 1186 61.9823 965.728 536.293
1748 0 85.1667 14.7123 1253 61.4733 966.169 534.109
1749 0 89.3026 15.677 1400 59.9921 966.682 532.801
1750 0 91.0779 14.9762 1364 60.7881 966.27 531.713
1751 1 46.0344 12.621 581 64.4475 966.639 552.279
1752 0 48.1084 12.7836 615 64.6163 967.184 551.372
1753 0 51.031 13.5016 689 63.4978 966.573 551.258
1754 0 52.1198 13.6033 709 63.7616 966.23 549.289
1755 0 52.1198 13.162 686 178.923 965.204 549.013
1756 0 57.0864 14.224 812 63.0591 966.81 547.329
1757 0 58.0359 14.3704 834 62.8237 966.489 544.971
1758 0 61.1601 14.6991 899 62.0634 966.231 544.002
1759 0 62.0454 15.0696 935 62.2011 966.979 541.478
1760 0 64.0992 14.5088 930 63.5204 966.658 539.555
1761 0 68.1342 13.9284 949 63.5068 967.242 539.777
1762 0 71.0961 15.1907 1080 61.925 967.193 537.936
1763 0 72.2482 15.1699 1096 62.9106 967.058 536.654
1764 0 76.1769 15.5559 1185 62.1232 966.513 535.036
1765 0 78.0734 15.1524 1183 63.5545 966.441 533.719
1766 0 79.1773 15.2822 1210 64.0777 966.217 532.549
1767 0 85.2553 15.1428 1291 63.7026 966.102 531.111
1768 1 41.0244 12.0904 496 64.2016 965.766 553.226
1769 0 42.0462 13.2949 559 64.8855 965.508 551.487
1770 0 43.0707 13.5359 583 66.4614 965.437 551.388
1771 0 44.0754 13.4769 594 67.0657 965.322 552.833
1772 0 47.0761 13.9774 658 67.196 965.774 551.933
1773 0 48.0591 14.4613 695 67.3468 966.216 550.413
1774 0 50.067 16.0585 804 64.6244 966.184 547.917
1775 0 50.0827 14.9553 749 67.1856 965.941 547.314
1776 0 50.0226 14.3735 719 68.8387 966.032 547.325
1777 0 54.1052 14.8784 805 67.0956 965.667 548.481
1778 0 53.0582 13.7585 730 70.8206 965.655 547.084
1779 0 56.1792 14.1156 793 69.6419 965.71 547.359
1780 0 57.1426 14.8751 850 68.8447 965.371 545.695
1781 0 60.1097 14.8728 894 68.1298 965.073 544.673
1782 0 61.0325 15.1723 926 68.7063 964.641 543.959
1783 0 63.1666 14.8496 938 69.2942 964.51 543.338
1784 0 65.1738 15.1288 986 68.3966 964.19 542.66
1785 0 67.0465 14.3781 964 70.499 963.741 540.29
1786 0 69.0768 13.9989 967 70.1841 963.797 540.456
1787 1 34.0785 13.9677 476 70.5357 962.712 557.279
1788 0 36.1056 13.0451 471 71.6284 962.989 555.898
1789 0 38.0503 13.6399 519 71.6397 962.763 555.555
1790 0 38.2219 13.9449 533 70.743 962.874 556.266
1791 0 38.0324 14.6191 556 71.2068 963.291 554.685
1792 0 42.2332 14.42 609 70.4893 963.064 554.074
1793 0 43.0403 15.5668 670 69.0403 963.042 554.322
1794 0 45.243 14.9415 676 69.8254 962.984 552.894
1795 0 45.1745 14.9421 675 70.1318 963.042 553.255
1796 0 48.5323 14.2173 690 70.1986 963.032 551.981
1797 0 48.3209 14.9211 721 70.6352 962.573 550.295
1798 0 51.4828 14.1989 731 69.8454 962.48 550.492
1799 0 54.255 15.0585 817 68.7062 962.73 549.379
1800 0 54.466 14.8533 809 69.3424 962.698 548.312
1801 0 56.3689 14.9196 841 68.8216 962.357 548.88
1802 0 58.6469 15.0221 881 68.479 962.406 547.63
1803 0 61.6142 15.3698 947 67.7656 962.726 546.706
1804 0 63.4558 15.1602 962 68.1154 962.753 545.804
1805 0 64.3933 14.8773 958 69.1952 962.813 545.202
1806 0 67.2459 15.6292 1051 67.6146 962.522 542.69
1807 0 68.4149 14.529 994 69.5714 962.618 541.046
1808 1 33.3149 13.0872 436 72.133 961.654 558.927
1809 0 34.2659 12.1695 417 73.3333 962.062 559.657
1810 0 35.2575 13.3305 470 71.466 961.945 559.068
1811 0 37.4498 14.4994 543 70.0313 962 557.985
1812 0 38.278 15.2307 583 69.6106 961.907 557.787
1813 0 36.3507 15.4055 560 71.4643 961.536 557.161
1814 0 41.1852 15.0297 619 70.2585 961.746 557.176
1815 0 39.2148 15.8359 621 71.087 961.741 556.546
1816 0 42.3954 15.2139 645 71.1008 961.47 556.307
1817 0 42.0804 15.9457 671 71.1714 961.514 555.268
1818 0 45.2557 15.998 724 70.221 961.883 554.072
1819 0 45.2953 15.6087 707 71.7539 961.721 554.369
1820 0 46.3081 15.2025 704 72.7003 961.984 553.78
1821 0 47.4093 15.9673 757 71.8085 962.025 552.326
1822 0 48.5544 14.8287 720 73.85 961.84 551.589
1823 0 51.3138 15.2006 780 72.8038 961.427 551.45
1824 0 51.4325 14.3878 740 74.9689 961.818 550.093
1825 0 53.3009 15.1217 806 73.696 961.737 550.241
1826 0 54.4872 15.4715 843 73.7117 961.521 549.368
1827 0 56.4983 14.8854 841 74.8074 961.688 548.537
1828 0 60.4076 15.114 913 73.414 962.462 548.812
1829 0 62.7315 15.6221 980 72.5929 962.605 547.213
1830 0 62.4945 15.0733 942 73.7643 963.141 546.098
1831 0 65.4836 15.1946 995 74.209 963.774 543.902
1832 0 66.4163 15.8244 1051 73.2084 963.552 543.203
1833 1 33.4168 12.8379 429 77.5245 963.396 557.772
1834 0 35.6166 14.4034 513 75.3567 963.866 557.117
1835 0 36.645 14.2175 521 75.7985 963.729 556.43
1836 0 37.3193 15.7827 589 73.4669 963.557 556.754
1837 0 39.5623 15.0901 597 74.0486 964.122 556.769
1838 0 39.2101 14.7666 579 75.9983 964.392 555.56
1839 0 40.4047 15.2705 617 74.9271 964.506 555.648
1840 0 43.3306 15.6702 679 73.3152 964.864 554.923
1841 0 44.3902 14.7555 655 75.0779 965.289 553.203
1842 0 45.1928 15.9981 723 73.6155 965.87 552.668
1843 0 48.4032 15.4948 750 73.0147 965.489 552.005
1844 0 47.3648 16.0668 761 73.3233 965.983 550.577
1845 0 50.2542 15.0634 757 74.8005 965.929 551.358
1846 0 53.2654 17.3096 922 70.1486 966.282 549.53
1847 0 53.4914 16.1895 866 72.5543 965.796 550.878
1848 0 51.619 15.8663 819 74.6068 965.574 550.195
1849 0 58.4973 17.9495 1050 69.2181 965.927 547.671
1850 0 61.3166 17.3689 1065 70.0066 966.407 545.115
1851 0 61.3166 17.4504 1070 161.929 967.418 545.074
1852 0 69.3541 19.9123 1381 63.6995 967.332 540.628
1853 0 75.5162 15.6258 1180 68.3059 966.45 542.609
1854 0 75.4333 17.194 1297 65.7363 966.809 538.774
1855 0 75.4609 20.3284 1534 61.8227 967.112 536.132
1856 0 82.5678 20.5891 1700 59.2812 967.378 532.813
1857 0 88.4086 16.3672 1447 65.302 966.623 535.493
1858 0 96.6734 19.3745 1873 57.7672 966.534 527.304
1859 1 169.784 15.8967 2699 58.7925 966.252 487.411
1860 0 168.499 10.6944 1802 70.6249 966.248 510.234
1861 0 168.481 10.1198 1705 71.7443 966.1 512.604
1862 0 168.512 9.85688 1661 73.2065 965.975 510.663
1863 1 41.4543 14.5944 605 69.9736 965.413 555.37
1864 0 41.2602 14.9781 618 69.2411 965.084 554.5
1865 0 42.3458 14.5705 617 69.7115 965.118 554.146
1866 0 43.24 16.2119 701 68.3195 965.492 553.18
1867 0 46.494 16.3677 761 67.3141 964.639 552.591
1868 0 45.345 15.9224 722 68.9834 965.32 553.338
1869 0 47.4478 15.9122 755 69 965.003 550.886
1870 0 47.3356 15.8866 752 69.0452 964.681 552.944
1871 0 51.2547 17.2667 885 65.1243 965.123 551.264
1872 0 51.306 17.7952 913 65.5367 965.094 549.604
1873 0 53.5613 17.5313 939 65.6912 964.253 549.234
1874 0 54.6116 17.3773 949 65.9505 964.381 548.827
1875 0 54.2239 16.7454 908 67.6718 963.944 548.39
1876 0 56.2827 16.6659 938 67.5192 963.986 548.458
1877 0 58.5027 17.1103 1001 66.6803 964.711 546.887
1878 0 59.4008 16.8853 1003 67.4267 964.038 546.797
1879 0 62.5975 16.2786 1019 67.9225 963.296 545.635
1880 0 62.454 16.7003 1043 68.4583 963.865 544.421
1881 0 64.759 17.0787 1106 67.8183 963.91 545.032
1882 0 64.5817 17.1411 1107 68.6956 963.815 544.217
1883 0 66.4806 17.554 1167 68.7961 963.612 542.222
1884 0 71.4771 17.0264 1217 68.5053 963.296 542.036
1885 0 73.7784 17.0239 1256 69.2994 963.471 539.886
1886 0 75.4033 17.4926 1319 69.235 963.19 540.804
1887 0 78.2705 17.6695 1383 68.9617 963.435 538.63
1888 0 81.0092 17.0598 1382 69.309 963.17 536.511
1889 0 84.2717 16.6841 1406 69.4168 963.036 535.43
1890 0 86.7679 17.3566 1506 68.5425 962.805 533.838
1891 0 91.1252 16.8779 1538 68.7984 963.434 531.585
1892 1 38.0311 8.78228 334 57.9132 960.281 556.488
1893 0 40.087 8.63123 346 58.0434 960.52 556.595
1894 0 43.0814 10.4453 450 57.1867 960.667 555.027
1895 0 42.0518 8.75111 368 59.038 960.44 557.174
1896 0 43.0728 9.72772 419 59.222 960.869 554.723
1897 0 42.0462 9.442 397 59.8741 960.428 554.914
1898 0 45.0384 9.41419 424 58.9764 960.257 554.54
1899 1 144.817 14.584 2112 63.7808 962.239 501.64
1900 0 146.886 13.5003 1983 65.1125 961.862 500.541
1901 0 151.699 13.6323 2068 64.766 961.436 496.881
1902 1 49.0674 10.1901 500 57.726 960.05 552.594
1903 0 50.1123 9.85786 494 58.4292 960.099 551.188
1904 1 167.951 14.3196 2405 62.358 961.393 492.63
1905 0 169.797 14.5821 2476 63.0452 961.237 488.415
1906 1 56.2581 11.0917 624 56.6731 960.021 549.949
1907 0 55.2294 10.1757 562 58.3416 959.888 551.415
1908 0 56.2642 9.66866 544 58.9081 960.123 551.524
1909 1 33.1979 9.2777 308 57.8474 960.328 559.942
1910 0 33.2043 9.36626 311 57.5884 959.566 561.965
1911 0 36.3809 10.9123 397 56.2343 960.375 560.013
1912 0 37.4438 10.2554 384 57.2344 960.513 560.518
1913 0 38.3586 9.98471 383 57.4386 960.308 560.778
1914 0 37.3574 10.4129 389 58.0643 960.039 561.653
1915 0 38.1226 9.96784 380 56.3579 959.079 562.034
1916 0 39.3528 9.96118 392 56.1709 959.15 560.717
1917 0 38.351 10.795 414 56.1014 958.978 562.145
1918 0 39.2063 9.79434 384 57.5078 959.148 562.214
1919 0 39.0417 9.016 352 59.9375 958.031 560.798
1920 0 44.0485 10.7382 473 57.2431 959.068 558.579
1921 0 42.0372 9.32508 392 59.9158 958.773 559.135
1922 0 44.2505 10.6213 470 58.9872 958.587 558.977
1923 0 44.2049 9.16189 405 61.1457 958.336 559.807
1924 0 46.0836 10.5244 485 59.9897 958.322 559.124
1925 0 49.1037 11.2008 550 59.0836 958.358 555.718
1926 0 52.21 11.2814 589 57.9796 958.385 555.693
1927 0 52.113 11.6094 605 58.8083 958.288 556.699
1928 0 52.3847 10.4229 546 60.9725 959.205 554.874
1929 0 51.1749 10.4934 537 62.0056 959.184 555.127
1930 0 57.422 11.2326 645 60.2124 959.054 554.473
1931 0 57.4116 10.7121 615 61.9463 959.659 553.296
1932 0 58.3976 11.1477 651 61.3656 959.969 552.783
1933 0 61.6223 11.0999 684 61.671 959.7 552.92
1934 0 62.4418 11.4186 713 61.6143 959.973 550.964
1935 0 66.5284 11.9648 796 60.3719 960.181 551.085
1936 0 66.3273 12.3629 820 61.5073 960.021 548.226
1937 0 67.4289 12.2203 824 62.4284 960.13 547.6
1938 0 71.5557 12.2143 874 61.5767 960.241 545.527
1939 1 40.3126 9.89766 399 64.7093 960.196 560.596
1940 0 42.3742 10.1477 430 63.5233 960.535 559.512
1941 0 45.2864 11.615 526 62.1331 960.479 559.5
1942 0 45.1459 10.6765 482 63.4647 960.139 558.674
1943 0 48.0291 11.6596 560 62.6786 960.741 556.221
1944 0 47.2144 11.9455 564 61.7305 960.979 556.837
1945 0 49.1937 13.0504 642 59.7414 961.154 554.413
1946 0 51.1418 12.2209 625 60.864 961.715 554.806
1947 0 51.1524 12.7853 654 60.9526 961.439 552.902
1948 0 52.0768 12.6736 660 61.6182 961.415 552.094
1949 0 55.127 12.7524 703 61.3186 961.428 551.607
1950 0 58.0876 13.2386 769 60.4707 961.332 549.848
1951 0 57.1081 13.168 752 61.6037 961.955 551.348
1952 0 60.1366 13.0869 787 61.751 962.208 548.349
1953 0 61.2784 12.9736 795 63.088 962.44 549.24
1954 0 63.2341 13.2682 839 62.6925 962.567 547.079
1955 0 64.1605 13.6844 878 62.3007 962.388 548.387
1956 0 65.2962 13.4617 879 63.6109 962.43 545.471
1957 0 67.2353 13.0586 878 64.0809 962.149 545.272
1958 0 69.1721 13.5459 937 64.0736 962.607 542.398
1959 0 72.2793 13.6139 984 63.1341 962.656 542.86
1960 0 73.308 13.5865 996 63.4418 962.985 541.076
1961 0 76.1759 12.563 957 64.3615 963.119 541.304
1962 0 77.4187 13.976 1082 63.0176 963.133 537.85
1963 0 80.2527 13.5946 1091 63.1173 963.25 538.522
1964 0 83.3383 12.7912 1066 64.5328 963.645 538.672
1965 0 83.4192 14.1454 1180 63.5932 963.836 535.12
1966 0 85.2876 12.8272 1094 65.3382 963.775 534.542
1967 0 91.3856 13.1968 1206 64.0813 964.443 532.95
1968 0 92.3456 14.0559 1298 62.7681 964.978 530.918
1969 0 97.3888 14.1905 1382 62.1447 965.354 527.623
1970 1 53.2858 11.4852 612 65.2157 965.356 548.57
1971 0 55.1534 12.1117 668 64.5988 965.322 546.731
1972 0 56.0896 11.232 630 65.2302 964.857 546.941
1973 0 59.1005 12.4026 733 64.3452 965.169 545.664
1974 0 60.0266 12.9942 780 63.4897 965.426 543.663
1975 0 63.0674 13.4618 849 63.5159 966.121 541.767
1976 0 63.0767 13.2061 833 63.8908 966.389 540.803
1977 0 66.05 13.3989 885 63.3627 966.181 541.11
1978 0 68.0473 13.8727 944 62.5561 966.355 539.077
1979 0 72.1004 13.717 989 62.5794 966.695 538.171
1980 0 73.2157 13.4534 985 63.3086 966.5 537.644
1981 0 76.2194 13.6579 1041 62.9107 967.546 537.651
1982 0 76.2297 13.4593 1026 63.8138 967.695 536.147
1983 0 80.1297 13.6654 1095 63.7142 967.743 535.726
1984 0 80.1297 13.6529 1094 176.193 967.751 535.723
1985 0 86.1122 13.6914 1179 63.3138 967.848 533.765
1986 0 88.1376 13.9328 1228 62.8778 968.178 530.193
1987 0 91.1141 14.3227 1305 62.1939 967.619 530.163
1988 0 95.2234 14.1772 1350 62.3556 967.523 527.393
1989 0 97.0675 13.743 1334 62.8193 966.834 525.799
1990 0 101.163 14.3729 1454 62.0612 967.578 523.266
1991 0 105.282 14.3995 1516 61.4828 967.228 523.619
1992 0 108.2 14.1035 1526 61.5452 966.906 521.983
1993 0 113.278 14.716 1667 60.6431 966.717 520.391
1994 0 116.277 14.3279 1666 61.0846 966.289 518.17
1995 0 121.197 14.7694 1790 60.1916 966.958 516.713
1996 1 62.1005 12.8018 795 61.9434 966.385 543.508
1997 0 65.2581 13.0712 853 61.415 966.354 542.604
1998 0 67.2628 13.9899 941 60.1711 965.836 541.185
1999 0 71.206 13.5944 968 60.2562 965.365 540.592
2000 0 73.3418 14.8483 1089 58.5574 966.096 536.706
2001 0 76.226 14.2209 1084 59.4373 965.648 536.199
2002 0 77.2039 14.248 1100 59.0564 965.185 536.518
2003 0 81.1484 14.2578 1157 58.6413 965.501 534.243
2004 0 84.2674 14.6676 1236 57.9353 965.128 533.29
2005 0 85.3729 13.892 1186 59.9629 964.541 532.651
2006 0 88.3996 13.7218 1213 60.3042 964.701 530.721
2007 0 90.2953 14.5965 1318 59.3156 965.039 529.245
2008 0 94.4191 14.2768 1348 59.5289 964.861 527.844
2009 1 48.2023 11.7837 568 59.9824 964.213 551.215
2010 0 47.092 10.5326 496 61.375 964.284 551.409
2011 0 51.2327 11.1452 571 60.8214 964.51 549.362
2012 0 53.1649 12.1885 648 58.9429 963.367 549.157
2013 0 56.3319 12.4796 703 58.7909 963.417 548.563
2014 0 57.4037 12.9608 744 58.4691 963.383 548.808
2015 0 58.1938 13.077 761 58.7661 963.25 547.962
2016 0 60.2615 13.3253 803 58.4521 963.563 545.856
2017 0 64.3917 13.0607 841 57.8775 963.332 545.308
2018 0 64.2148 13.1123 842 58.5249 963.329 543.963
2019 0 68.2869 12.4475 850 58.7612 963.551 543.624
2020 0 70.1908 12.7652 896 58.721 963.863 541.301
2021 0 73.3014 13.9697 1024 56.4854 963.344 541.871
2022 0 76.3077 13.6945 1045 57.267 963.421 539.161
2023 0 77.3256 12.8677 995 59.1548 963.447 536.747
2024 0 80.181 13.7564 1103 57.961 963.519 537.53
2025 0 84.2818 13.2413 1116 58.5287 963.145 535.086
2026 0 87.2526 13.2603 1157 58.1625 963.4 534.981
2027 0 89.2824 13.4965 1205 58.2514 963.279 531.899
2028 0 93.3054 12.9682 1210 58.4554 963.301 530.294
2029 1 48.3286 11.2356 543 57.9668 963.164 554.306
2030 0 47.2714 10.8522 513 59.2222 962.904 553.156
2031 0 51.3431 10.3811 533 58.9024 963.101 553.799
2032 0 52.3575 12.2237 640 57.9359 963.369 553.13
2033 0 54.1662 12.5909 682 58.1217 963.06 550.669
2034 0 57.2528 12.4361 712 57.2964 962.617 550.506
2035 0 58.1818 12.6156 734 57.9373 962.33 548.666
2036 0 60.1438 13.1019 788 57.2576 961.818 547.699
2037 0 61.1861 12.5355 767 58.5815 961.735 546.142
2038 0 62.1366 13.1002 814 57.6142 961.27 546.068
2039 0 66.1874 14.5949 966 55.6574 961.099 544.895
2040 0 66.2559 12.6479 838 58.259 961.486 544.967
2041 0 68.4939 12.1617 833 58.7143 961.705 544.609
2042 0 71.4097 12.3793 884 58.414 961.634 543.808
2043 0 73.3263 13.3376 978 58.0583 961.847 541.324
2044 0 76.3845 13.419 1025 57.5093 962.236 540.874
2045 0 80.6251 13.1225 1058 57.5851 961.949 538.93
2046 0 82.5615 13.5778 1121 57.1713 961.766 538.037
2047 0 83.3513 13.2331 1103 58.1233 961.18 537.729
2048 0 87.4867 13.2134 1156 57.5104 960.881 535.006
2049 0 89.5209 13.6169 1219 57.717 960.609 533.214
2050 0 92.5533 13.2032 1222 58.23 960.691 530.765
2051 1 50.2977 12.267 617 56.9968 960.481 552.36
2052 0 50.2977 12.3067 619 157.299 961.483 552.289
2053 0 52.2959 11.0334 577 59.8371 960.768 551.135
2054 0 55.3265 12.4533 689 60.0639 960.64 552.855
2055 0 56.419 12.4958 705 60.0582 960.712 549.952
2056 0 57.1359 12.7941 731 60.5636 960.368 549.435
2057 0 57.3915 12.5977 723 61.6999 960.044 549.952
2058 0 60.2669 13.0254 785 60.5121 960.087 549.564
2059 0 60.3492 12.7094 767 62.1108 959.999 550.132
2060 0 64.2394 13.0449 838 61.352 960.111 547.694
2061 0 65.2638 12.4878 815 62.7227 959.929 547.033
2062 0 67.2209 13.0763 879 61.4653 960.242 546.716
2063 0 68.1654 12.1323 827 63.5913 960.955 543.109
2064 0 71.21 12.8914 918 62.8072 960.398 542.245
2065 0 76.1459 13.5267 1030 61.3854 960.262 541.034
2066 0 78.3474 13.1083 1027 62.5657 960.775 540.396
2067 0 80.451 12.8277 1032 63.4186 960.94 538.778
2068 1 43.1773 10.7232 463 64.9892 959.888 558.57
2069 0 44.168 10.8902 481 65.2266 959.821 556.395
2070 0 45.2907 11.7684 533 64.2589 960.004 555.786
2071 0 49.1734 12.2424 602 62.1478 960.163 555.248
2072 0 50.2486 12.677 637 63.4443 960.746 554.108
2073 0 50.1556 12.7603 640 63.8922 960.841 554.427
2074 0 53.0783 13.433 713 62.5007 960.916 552.477
2075 0 51.0958 13.1518 672 64.5223 961.592 551.557
2076 0 54.0348 13.2322 715 63.7217 961.523 548.634
2077 0 57.0953 13.8891 793 62.5977 961.456 549.851
2078 0 56.0379 13.5087 757 63.7424 961.794 547.867
2079 0 60.1348 13.054 785 63.535 961.696 545.626
2080 0 61.198 13.1867 807 63.5105 962.58 546.512
2081 0 62.1711 13.3342 829 63.6393 962.901 546.858
2082 0 64.0692 13.4542 862 63.4408 962.776 546.638
2083 0 67.284 13.064 879 63.8055 963.073 544.398
2084 0 68.2535 13.1861 900 64.0533 963.172 544.342
2085 0 71.1358 13.3266 948 63.6403 962.862 543.135
2086 0 74.2876 13.165 978 63.1769 963.409 541.035
2087 0 76.2115 13.3838 1020 63.102 963.354 539.463
2088 0 78.3207 14.3129 1121 61.884 963.228 538.148
2089 1 39.0726 11.2099 438 64.9772 963.039 556.852
2090 0 40.144 11.1349 447 64.9105 963.743 556.45
2091 0 43.1487 11.7269 506 64.3261 963.923 554.889
2092 0 45.1535 12.6236 570 63.0877 964.009 553.732
2093 0 46.3047 12.7201 589 63.9796 964.893 553.414
2094 0 47.2829 13.0914 619 63.7577 964.919 552.926
2095 0 47.1531 12.5761 593 64.9191 964.985 552.818
2096 0 50.2773 12.9681 652 63.9525 964.732 552.083
2097 0 51.0672 13.12 670 64.6104 964.976 549.781
2098 0 52.1635 13.1701 687 64.4833 965.114 549.234
2099 0 55.1575 12.564 693 64.6551 965.022 548.706
2100 0 55.2503 13.5203 747 64.0027 965.794 548.992
2101 0 57.152 12.8954 737 65.0149 965.727 547.281
2102 0 57.1381 12.7061 726 66.259 965.587 546.897
2103 0 61.1752 13.2733 812 64.4778 965.871 545.092
2104 0 62.2368 13.5611 844 64.9182 966.046 543.522
2105 0 62.2368 13.5611 844 164.594 966.046 543.527
2106 0 64.1003 13.9625 895 65.343 966.466 542.634
2107 0 68.1796 13.3618 911 65.2195 966.498 542.744
2108 0 69.1408 13.6967 947 65.3527 966.341 540.094
2109 0 71.1659 13.5458 964 65.7697 966.692 540.702
2110 0 74.6044 13.8598 1034 65.4526 966.491 538.436
2111 0 77.3484 13.2259 1023 66.8104 966.878 537.075
2112 0 78.4022 13.7369 1077 66.247 966.705 535.631
2113 0 80.2511 13.9437 1119 66.3834 966.643 534.474
2114 0 85.2949 13.4709 1149 66.6519 966.696 533.556
2115 1 44.1139 10.6316 469 67.9787 966.761 553.917
2116 0 47.0785 12.2774 578 65.192 966.827 551.737
2117 0 47.1265 12.4134 585 65.294 966.969 551.22
2118 0 49.0931 12.4457 611 64.9182 966.844 550.519
2119 0 52.1903 13.2209 690 63.7116 966.778 549.633
2120 0 53.1478 13.4719 716 64.0056 966.543 548.451
2121 0 53.1816 13.5385 720 64.4931 966.376 548.075
2122 0 56.2048 13.8066 776 63.4781 965.791 548.532
2123 0 55.141 14.2 783 64.5019 965.912 547.18
2124 0 55.141 14.2 783 173.853 965.912 547.18
2125 0 61.1997 13.8236 846 63.9232 965.482 545.234
2126 0 64.1048 13.4623 863 64.19 965.162 544.73
2127 0 64.1394 14.2346 913 63.678 964.865 542.809
2128 0 69.1288 13.7425 950 63.181 964.797 542.274
2129 0 71.3125 14.1209 1007 62.85 964.578 540.889
2130 0 74.4226 14.7402 1097 62.0811 964.254 538.624
2131 0 76.1188 13.5183 1029 64.0515 964.135 538.092
2132 0 78.1083 13.1996 1031 65.1212 964.674 536.327
2133 0 82.2596 14.0409 1155 62.9766 964.168 536.669
2134 0 82.2333 13.486 1109 64.6312 964.381 534.953
2135 1 44.1617 11.639 514 65.3482 963.792 554.142
2136 0 46.3798 11.0609 513 65.5088 963.774 554.427
2137 0 47.3038 11.6693 552 65.4384 963.86 552.674
2138 0 49.1848 12.9918 639 63.9609 963.826 552.635
2139 0 49.1842 13.0936 644 64.6056 963.486 552.199
2140 0 51.1504 12.7467 652 64.8006 962.808 551.821
2141 0 53.1804 11.8089 628 65.3965 962.818 551.881
2142 0 54.0838 13.2942 719 64.6565 962.378 550.028
2143 0 58.2435 13.1174 764 64.3887 962.442 549.577
2144 0 59.1246 12.6851 750 64.952 962.669 548.961
2145 0 61.2025 12.8753 788 64.5127 962.688 548.355
2146 0 63.3014 13.5384 857 63.79 962.526 547.691
2147 0 67.3165 13.34 898 63.9733 962.124 546.157
2148 0 69.381 13.2313 918 64.7375 962.862 545.989
2149 0 70.4309 13.105 923 65.4323 962.98 543.918
2150 0 72.4498 13.0435 945 66.0952 962.714 540.831
2151 0 73.4436 12.867 945 66.9947 962.542 541.236
2152 1 38.2465 10.4585 400 67.8875 962.552 558.982
2153 0 39.155 11.2885 442 67.0837 962.466 559.378
2154 0 41.172 11.0269 454 67.8018 963.196 557.438
2155 0 41.172 10.9783 452 169.018 964.179 557.445
2156 0 45.0735 11.7142 528 66.7955 962.307 556.831
2157 0 45.0659 12.8922 581 65.8709 962.367 554.859
2158 0 47.1851 12.9702 612 65.4624 962.15 555.539
2159 0 48.2243 13.0225 628 65.3885 961.978 555.893
2160 0 50.14 12.7643 640 65.8594 962.084 554.111
2161 0 53.1593 13.2056 702 65.2707 961.504 552.952
2162 0 54.1593 13.4234 727 65.7015 962.084 551.001
2163 0 56.257 12.4073 698 67.1146 962.103 551.268
2164 0 55.2613 13.3728 739 66.8106 961.924 550.702
2165 0 59.1981 13.9869 828 64.9493 961.687 550.95
2166 0 60.2293 13.0667 787 66.8069 961.427 548.999
2167 0 61.3292 13.7781 845 66.0059 961.858 549.391
2168 0 64.2406 12.9046 829 66.9445 961.66 548.08
2169 0 67.2149 13.4345 903 65.8671 961.615 547.276
2170 0 67.3107 13.4748 907 66.0419 961.365 545.666
2171 0 71.3633 13.7325 980 64.4092 961.414 543.856
2172 0 71.5452 13.5858 972 65.6029 961.44 543.142
2173 0 73.3176 12.8755 944 66.5932 961.53 541.971
2174 0 77.2939 13.5198 1045 65.6794 961.59 540.936
2175 1 39.2294 10.0945 396 67.4343 961.598 560.144
2176 0 41.3416 11.4654 474 64.0548 961.215 559.618
2177 0 40.0952 11.2981 453 65.5629 961.258 559.475
2178 0 43.2576 12.4834 540 63.5037 960.748 558.361
2179 0 44.0666 12.8215 565 63.7009 960.522 556.784
2180 0 43.0835 11.5822 499 65.7295 961.224 556.487
2181 0 47.1358 13.5354 638 62.3746 961.122 555.069
2182 0 48.1236 13.3406 642 62.6667 961.357 554.64
2183 0 50.2128 13.8212 694 61.2219 960.983 554.728
2184 0 52.136 12.7551 665 62.8256 961.158 553.153
2185 0 52.3032 13.2305 692 62.3642 961.409 552.555
2186 0 54.1145 12.9725 702 62.4501 961.439 551.818
2187 0 57.0552 13.2503 756 61.7209 961.975 551.648
2188 0 57.163 12.8755 736 62.8709 962.17 550.356
2189 0 60.1658 13.5791 817 61.3917 962.403 549.114
2190 0 61.1203 13.3344 815 62.0626 961.856 548.076
2191 0 63.0957 13.1863 832 62.5457 962.553 545.882
2192 0 64.1136 13.0706 838 63.1301 962.887 545.038
2193 0 67.1725 13.4728 905 62.021 962.748 544.533
2194 0 70.2336 13.8111 970 61.2784 963.499 542.472
2195 0 72.1394 12.767 921 62.6569 963.105 540.602
2196 1 36.1577 10.6202 384 62.9245 963.057 558.232
2197 0 41.1516 11.0324 454 61.3062 963.533 556.674
2198 0 42.2093 10.8507 458 62.0939 963.533 555.334
2199 0 42.1744 11.6658 492 60.9289 963.362 556.256
2200 0 42.1727 11.7849 497 61.7988 963.66 553.956
2201 0 45.1047 12.5708 567 59.8377 963.693 552.393
2202 0 47.0921 12.0827 569 60.6924 963.705 553.506
2203 0 47.2364 12.7233 601 59.9401 964.2 552.01
2204 0 49.1733 12.9948 639 60.072 964.721 551.319
2205 0 49.1701 12.1619 598 61.51 964.602 550.383
2206 0 52.2561 12.7832 668 59.8683 964.536 549.651
2207 0 52.1128 13.1446 685 59.9124 964.964 548.003
2208 0 54.2097 12.8021 694 59.7997 965.597 546.477
2209 0 57.0963 12.7329 727 60.1692 966.091 545.429
2210 0 57.2667 12.9744 743 60.0175 966.545 544.777
2211 0 61.2849 13.2006 809 58.9901 966.162 544.262
2212 0 62.1449 12.6157 784 59.2615 966.254 543.199
2213 0 62.4196 12.9607 809 59.8813 966.613 540.591
2214 0 66.2295 12.7436 844 59.1884 966.315 541.434
2215 0 68.1991 12.6688 864 60.0845 966.861 540.542
2216 0 69.1485 12.7985 885 59.7028 966.672 539.097
2217 0 73.2516 12.9554 949 58.8219 966.956 537.622
2218 0 74.2668 12.6032 936 59.5353 967.026 535.755
2219 0 77.1598 13.1286 1013 59.0267 966.612 535.074
2220 0 80.2915 13.6005 1092 58.4927 966.556 531.074
2221 0 82.2967 13.4878 1110 59.1955 966.343 531.955
2222 0 84.3026 13.416 1131 59.8506 966.551 530.376
2223 0 88.2176 12.8999 1138 60.5088 966.288 529.584
2224 0 90.1832 13.1067 1182 60.6472 967.275 526.39
2225 1 48.0265 10.4734 503 60.1093 966.145 549.246
2226 0 49.0466 10.9284 536 60.6287 966.28 547.918
2227 0 51.055 11.6933 597 59.7203 966.645 548.784
2228 0 53.0387 12.1609 645 59.4155 966.729 546.22
2229 0 56.297 12.2919 692 61.2139 967.345 548.091
2230 0 59.1947 12.6025 746 60.0013 966.961 547.007
2231 0 62.2006 12.5079 778 59.9293 967.107 546.12
2232 0 61.2842 11.8628 727 61.5488 966.719 545.946
2233 0 64.2671 12.7748 821 60.0804 967.353 543.648
2234 0 64.2651 13.1642 846 60.5331 966.909 543.546
2235 0 67.2399 13.028 876 60.8288 966.881 540.958
2236 0 69.3453 12.9785 900 61.12 966.546 541.113
2237 0 70.2772 13.0626 918 60.8464 966.575 539.758
2238 0 75.2195 13.7597 1035 59.142 966.802 538.368
2239 0 76.2532 13.9666 1065 60.0423 966.4 536.943
2240 0 78.2236 13.1418 1028 61.3346 966.256 536.776
2241 0 82.2888 13.0759 1076 61.5381 966.128 534.531
2242 0 86.2667 13.1221 1132 60.8657 965.971 534.486
2243 0 89.3338 13.2984 1188 60.8333 965.827 531.259
2244 0 91.1963 13.0049 1186 61.1079 967.535 530.267
2245 0 95.2291 13.8508 1319 60.2578 965.831 528.165
2246 0 98.2045 13.9098 1366 60.448 965.313 526.54
2247 0 101.287 13.9307 1411 60.6315 965.743 527.045
2248 0 103.426 13.2849 1374 61.9199 965.672 524.438
2249 1 58.0892 11.6545 677 60.6942 965.49 548.402
2250 0 56.1482 10.0983 567 62.6561 965.69 548.482
2251 0 57.0772 10.6698 609 62.6913 965.78 547.434
2252 0 59.0517 12.1927 720 60.9389 965.801 545.233
2253 0 63.0893 12.3793 781 60.5544 965.58 545.146
2254 0 64.0976 13.3234 854 59.863 965.459 543.885
2255 0 66.1347 12.2024 807 61.6146 965.333 543.022
2256 0 67.0554 12.691 851 60.8543 965.388 541.888
2257 0 71.1831 12.798 911 59.4325 965.193 541.616
2258 0 72.0537 12.4213 895 60.4268 964.613 541.694
2259 0 74.1471 12.0976 897 60.7425 964.72 539.827
2260 0 75.1008 12.5298 941 60.9362 964.336 538.149
2261 0 80.1536 12.9127 1035 59.6473 964.869 537.68
2262 1 42.1246 9.40068 396 61.3965 964.639 556.616
2263 0 42.1246 9.37694 395 166.058 964.625 556.651
2264 0 44.2152 9.67994 428 61.6869 964.35 554.783
2265 0 46.1875 12.0595 557 58.4165 965.264 553.772
2266 0 48.0864 12.6023 606 57.5462 965.482 553.043
2267 0 47.1603 12.3409 582 58.866 965.404 552.57
2268 0 50.1766 12.7948 642 57.6604 965.76 552.131
2269 0 51.1419 12.0058 614 58.6254 965.412 552.456
2270 0 53.2037 12.7435 678 57.4248 965.434 552.274
2271 0 53.0644 13.0407 692 57.4364 965.058 552.266
2272 0 55.1271 12.9519 714 58.1274 965.277 549.937
2273 0 56.1635 12.7485 716 58.1201 964.96 549.018
2274 0 56.1172 13.0441 732 58.026 965.038 550.059
2275 0 59.0315 13.2302 781 57.7017 964.557 547.789
2276 0 60.1421 13.2187 795 57.117 965.499 547.381
2277 0 61.074 13.5409 827 57.052 965.16 547.045
2278 0 64.1247 13.8168 886 55.9255 964.869 546.116
2279 0 65.1635 12.5224 816 57.712 964.733 545.911
2280 0 66.1107 12.5244 828 57.7271 964.748 546.605
2281 0 67.0947 12.7283 854 57.781 964.37 543.351
2282 0 70.166 13.24 929 56.831 964.243 542.831
2283 0 72.11 13.0218 939 57.3855 964.398 541.823
2284 0 74.0836 13.1473 974 57.2947 963.651 542.146
2285 0 76.2343 13.3011 1014 57.3254 963.957 540.593
2286 0 81.1223 14.2994 1160 56.1069 963.609 537.76
2287 1 42.1555 10.912 460 58.6956 963.454 556.109
2288 0 45.1065 9.93204 448 59.1719 963.011 555.826
2289 0 47.075 11.9596 563 57.5773 963.412 554.904
2290 0 48.0461 12.0717 580 58.0276 962.945 553.01
2291 0 49.1098 11.9324 586 58.4642 962.84 554.162
2292 0 52.0992 11.67 608 58.4046 963.133 553.354
2293 0 54.0897 12.3499 668 57.9641 963.394 549.323
2294 0 55.0564 12.8051 705 57.6511 963.607 548.216
2295 0 57.1084 13.308 760 56.9553 963.34 549.184
2296 0 61.053 13.1525 803 56.5953 963.381 547.955
2297 0 62.0749 13.5804 843 56.2325 963.824 548.775
2298 0 63.0517 13.2907 838 56.7661 963.204 548.068
2299 0 63.0517 13.259 836 170.098 963.185 548.074
2300 0 68.0725 13.4856 918 56.6503 962.98 544.358
2301 0 69.1122 14.0207 969 56.3168 963.007 542.406
2302 0 70.1226 13.1341 921 57.6569 962.42 542.141
2303 0 73.1607 13.3952 980 57.4408 962.22 542.108
2304 0 74.0586 14.259 1056 56.8958 962.417 539.006
2305 0 77.1342 14.0275 1082 57.0268 962.367 538.768
2306 0 81.1448 14.5666 1182 56.0465 962.035 535.624
2307 0 84.095 14.4955 1219 56.2888 962.553 534.985
2308 0 88.1027 12.9962 1145 57.5895 962.933 534.286
2309 0 90.0912 13.4419 1211 56.9876 963.064 533.357
2310 1 47.0361 11.842 557 56.711 963.187 553.032
2311 0 49.0361 11.1958 549 57.8452 963.046 551.856
2312 0 50.1022 11.9356 598 56.9699 962.905 552.911
2313 0 52.1192 11.5696 603 58.0995 962.403 554.665
2314 0 55.072 12.638 696 56.9799 962.308 551.172
2315 0 57.3021 13.106 751 56.277 962.945 551.176
2316 0 61.2616 13.222 810 55.3333 962.358 550.489
2317 0 61.1835 12.8956 789 56.4423 962.498 548.117
2318 0 60.0543 12.855 772 57.5686 962.457 548.9
2319 0 64.1649 13.4653 864 57.1076 963.303 547.057
2320 0 65.17 13.5185 881 57.3042 962.899 545.856
2321 0 67.1396 13.3751 898 57.8307 963.068 543.596
2322 0 69.2352 13.5191 936 57.5353 963.815 544.252
2323 0 74.0873 14.132 1047 56.4327 963.45 543.844
2324 0 74.1753 13.7647 1021 58.1097 963.512 540.918
2325 0 77.2129 13.0419 1007 58.6187 964.019 539.915
2326 0 78.0942 13.5349 1057 58.754 964.202 537.67
2327 0 82.1191 13.7118 1126 58.6075 964.55 536.886
2328 0 84.2617 14.2057 1197 58.4728 964.871 534.018
2329 0 87.0378 13.7412 1196 59.1823 965.064 531.365
2330 0 91.2673 14.3206 1307 58.3336 964.714 530.137
2331 0 94.1258 13.9388 1312 59.1883 964.97 529.066
2332 1 52.0153 11.2467 585 60.0137 965 549.82
2333 0 53.0525 11.7431 623 59.5907 964.807 548.363
2334 0 53.0442 11.9146 632 61.0047 965.119 549.94
2335 0 53.1842 12.2781 653 61.8744 965.046 548.717
2336 0 56.1602 13.6574 767 59.7718 965.214 549.026
2337 0 60.1203 12.6413 760 60.6803 965.41 548.667
2338 0 61.1862 12.8787 788 60.8528 966.36 545.598
2339 0 63.1352 13.3998 846 60.5 966.228 545.118
2340 0 65.2352 13.2597 865 60.9225 965.975 544.475
2341 0 66.2637 12.7823 847 62.2668 966.281 543.871
2342 0 69.2021 13.4678 932 61.2961 966.377 541.191
2343 0 71.2686 13.7508 980 61.4541 966.547 541.334
2344 0 74.2955 12.9752 964 62.6556 966.512 540.279
2345 0 73.277 13.1692 965 63.8446 966.518 539.107
2346 0 78.1436 13.7311 1073 63.0783 966.796 537.514
2347 0 79.2256 14.0737 1115 63.313 966.578 534.899
2348 0 82.3576 13.3807 1102 64.2096 966.587 534.521
2349 0 87.2095 13.6912 1194 63.5963 966.684 532.888
2350 1 48.0391 11.4074 548 64.6077 966.29 552.195
2351 0 48.0415 11.8439 569 65.754 966.111 550.279
2352 0 49.1542 12.3896 609 66.3399 966.872 550.737
2353 0 51.1577 12.5103 640 66.0406 966.744 549.969
2354 0 54.1115 12.7145 688 65.2791 966.972 549.176
2355 0 55.1295 13.1508 725 64.9421 966.745 547.497
2356 0 55.1555 13.5254 746 65.0228 966.773 547.496
2357 0 60.0936 13.5622 815 64.0442 967.212 546.094
2358 0 60.0329 13.4759 809 66.1248 967.47 544.62
2359 0 60.1078 13.8917 835 65.521 966.819 543.132
2360 0 61.2914 13.9498 855 65.8959 967.014 542.106
2361 0 65.0959 13.6875 891 65.9719 966.915 541.536
2362 0 67.2338 14.2934 961 65.5827 966.882 541.582
2363 0 69.0804 13.8245 955 65.4565 966.54 540.849
2364 0 72.196 13.9758 1009 65.2369 966.341 539.444
2365 0 73.1923 13.608 996 66.5422 966.473 539.192
2366 0 75.1442 14.0929 1059 65.8584 966.493 535.71
2367 1 41.1509 11.8345 487 65.7947 965.489 555.189
2368 0 42.1432 11.9829 505 67.0416 964.715 553.366
2369 0 43.0789 11.5834 499 66.8196 964.81 553.75
2370 0 43.0497 12.2649 528 67.1364 965.578 553.76
2371 0 46.0907 13.0395 601 64.2429 965.476 552.05
2372 0 46.076 13.6296 628 63.7946 965.231 550.58
2373 0 47.1106 12.9058 608 65.9095 965.053 550.592
2374 0 50.1306 13.0459 654 65.2034 965.278 550.561
2375 0 52.0581 13.3697 696 65.0144 965.303 548.227
2376 0 51.0199 13.7593 702 65.151 965.376 548.759
2377 0 54.0628 14.2797 772 64.2396 965.092 549.222
2378 0 53.0482 13.5914 721 66.5506 965.853 547.359
2379 0 57.0938 14.3623 820 63.9561 965.859 547.155
2380 0 59.0796 13.8965 821 64.7625 965.577 545.704
2381 0 61.0891 14.6671 896 63.9955 965.933 544.564
2382 0 61.0878 14.0454 858 62.4977 965.383 545.452
2383 0 64.1169 13.7561 882 62.2823 965.381 544.61
2384 0 66.1447 13.153 870 63.4402 965.837 544.197
2385 0 69.0844 14.3737 993 61.1098 965.222 543.024
2386 0 71.0715 13.4935 959 62.5162 965.11 542.236
2387 0 73.0671 13.3028 972 62.7387 965.243 540.187
2388 0 77.0919 13.205 1018 62.8762 965.054 537.883
2389 0 82.1586 13.62 1119 61.4021 965.103 536.573
2390 1 40.0179 11.0451 442 63.0045 964.462 556.627
2391 0 41.1082 10.0223 412 62.9684 964.842 556.6
2392 0 46.0401 12.2719 565 59.9823 964.25 555.874
2393 0 46.0744 13.0224 600 59.625 964.505 553.072
2394 0 48.0242 11.9523 574 60.439 964.958 552.854
2395 0 50.2584 12.9332 650 59.0569 965.183 552.814
2396 0 51.122 12.9103 660 59.2758 965.127 551.368
2397 0 52.1399 12.3514 644 60.4006 964.835 551.016
2398 0 54.0619 12.8002 692 59.9668 965.516 548.702
2399 0 58.124 14.1938 825 57.5345 965.206 549.954
2400 0 58.1437 12.9851 755 59.5417 964.17 549.438
2401 0 60.1486 13.0676 786 60.2532 963.743 547.593
2402 0 62.12 13.2324 822 59.871 964.442 547.123
2403 0 62.1131 13.1051 814 60.941 963.923 548.027
2404 0 66.1235 13.7772 911 60.0966 963.872 547.048
2405 0 68.2536 13.1861 900 60.9367 963.651 545.087
2406 0 70.0608 14.5588 1020 59.6088 963.853 545.361
2407 0 72.0741 13.833 997 60.9147 963.98 540.84
2408 0 75.1603 13.7307 1032 60.9031 964.219 541.85
2409 0 76.0916 13.6677 1040 61.826 963.632 538.974
2410 0 78.1098 13.5322 1057 62.7039 963.669 539.003
2411 0 82.1264 14.3437 1178 61.573 963.624 538.347
2412 0 84.2207 13.3578 1125 62.9404 963.277 535.196
2413 1 44.0563 10.8044 476 64.0756 962.731 556.712
2414 0 49.0292 11.7481 576 63.658 962.786 553.384
2415 0 50.0161 12.1561 608 62.5625 963.298 553.184
2416 0 51.0374 12.2459 625 63.56 962.709 552.789
2417 0 53.1109 12.8034 680 62.8721 962.588 552.359
2418 0 54.1772 12.6806 687 63.3493 962.623 552.322
2419 0 58.1155 12.8193 745 62.4859 962.737 551.907
2420 0 59.1338 13.089 774 62.2817 962.447 551.632
2421 0 58.1375 12.4704 725 63.96 962.379 549.939
2422 0 63.1099 13.1834 832 62.8185 962.627 548.093
2423 0 65.1851 13.8682 904 61.4259 962.366 548.341
2424 0 67.1548 13.3125 894 62.5727 962.436 547.481
2425 0 70.2481 13.2673 932 62.5934 962.668 546.523
2426 0 68.2085 12.6817 865 64.6809 962.969 544.966
2427 0 72.1102 13.7013 988 63.3462 963.313 542.758
2428 0 76.2571 13.2447 1010 63.2366 963.085 543.137
2429 0 77.2624 13.5253 1045 62.9388 963.147 542.051
2430 0 80.4224 13.7648 1107 62.7019 962.897 540.284
2431 0 82.2746 13.4914 1110 62.9297 962.593 539.639
2432 0 86.3669 13.9405 1204 62.4601 962.584 538.346
2433 0 88.4412 14.4277 1276 61.5078 962.688 537.804
2434 0 91.3735 13.4941 1233 62.9513 962.741 536.196
2435 0 93.4164 14.1731 1324 62.0045 962.752 531.777
2436 0 96.4242 13.8658 1337 62.3089 963.058 530.821
2437 0 101.443 14.5796 1479 61.0284 963.103 529.052
2438 0 103.582 13.2262 1370 63.3876 963.177 527.634
2439 0 108.519 13.5552 1471 62.3365 962.653 526.136
2440 1 58.2963 10.9956 641 62.3089 962.922 551.373
2441 0 60.3451 11.5834 699 62.8598 962.059 549.31
2442 0 62.5578 12.0688 755 62.4278 962.348 547.813
2443 0 65.408 12.7202 832 62.3161 962.54 546.356
2444 0 67.3262 12.7142 856 62.7465 962.484 545.874
2445 0 70.2721 12.9639 911 61.9704 962.526 545.189
2446 0 71.2976 11.978 854 63.4438 962.701 543.86
2447 0 74.3619 13.0712 972 61.7366 962.525 541.532
2448 0 75.351 12.1034 912 63.5482 962.674 541.92
2449 0 80.4515 13.5734 1092 61.0183 963.104 540.247
2450 0 80.3456 13.3797 1075 61.8037 963.028 537.44
2451 0 85.1856 13.8404 1179 60.7676 963.408 536.601
2452 0 87.424 12.9484 1132 62.1201 963.1 536.371
2453 0 91.4669 13.2835 1215 61.9992 964.068 532.633
2454 1 48.3128 10.3078 498 61.0904 963.06 554.805
2455 0 51.1268 11.892 608 58.9013 962.883 553.827
2456 0 51.2137 12.0085 615 60.2667 963.657 552.016
2457 0 52.2216 12.6384 660 60.2045 964.058 552.689
2458 0 53.0822 12.5654 667 60.3568 963.567 550.876
2459 0 54.1918 13.2308 717 60.2287 964.054 550.283
2460 0 57.1065 12.8882 736 60.3736 964.618 549.598
2461 0 60.1188 13.6896 823 58.7959 964.464 549.049
2462 0 59.116 13.1606 778 60.8188 964.455 547.044
2463 0 61.108 12.8788 787 61.0203 965.315 548.192
2464 0 64.277 13.1151 843 59.9561 965.148 545.404
2465 0 65.1577 14.3651 936 58.9594 965.562 544.08
2466 0 68.2359 13.6878 934 59.5557 965.98 542.809
2467 0 71.2189 14.0412 1000 58.742 966.364 543.249
2468 0 72.3753 13.7478 995 59.601 966.773 541.727
2469 0 76.105 14.572 1109 58.4509 966.262 540.346
2470 0 77.341 13.4857 1043 60.0566 966.449 538.131
2471 0 78.1962 14.3997 1126 59.4103 966.576 536.976
2472 0 82.2746 13.5643 1116 60.0815 966.78 536.262
2473 1 41.1707 11.5859 477 61.543 966.692 554.598
2474 0 44.1608 11.4808 507 61.8047 966.609 553.801
2475 0 46.0649 12.287 566 60.6749 967.055 553.512
2476 0 47.05 12.8799 606 60.1287 967.347 552.706
2477 0 49.015 13.098 642 60.8801 967.665 550.16
2478 0 51.1483 13.6661 699 59.6781 968.073 549.515
2479 0 52.078 13.595 708 60.1059 968.571 548.634
2480 0 54.0524 14.3194 774 59.0879 967.753 548.025
2481 0 56.0535 14.2542 799 58.9612 967.677 547.668
2482 0 57.0583 13.3898 764 60.6243 967.817 547.08
2483 0 58.0117 14.0317 814 60.2887 968.24 545.864
2484 0 61.104 14.1235 863 59.6721 967.536 544.381
2485 0 63.1573 13.5693 857 60.7363 968.02 542.74
2486 0 62.0935 14.1883 881 60.7128 967.725 542.528
2487 0 66.142 14.2874 945 60.1545 968.302 542.094
2488 0 67.1716 14.1131 948 60.6097 967.641 541.203
2489 0 70.1114 13.8209 969 60.872 967.84 540.316
2490 0 73.2084 14.2197 1041 59.7704 967.678 537.184
2491 0 74.1968 14.4076 1069 59.7774 966.869 536.705
2492 0 77.2446 14.6289 1130 59.3327 966.93 534.861
2493 0 80.1875 15.1395 1214 58.6911 967.236 533.446
2494 0 84.5877 15.0376 1272 58.6038 967.694 532.721
2495 0 86.4225 15.1465 1309 58.534 968.129 530.669
2496 0 89.5185 14.187 1270 59.8417 967.922 528.818
2497 1 46.3804 12.5053 580 61.0759 967.557 549.341
2498 0 47.275 12.3533 584 61.1438 967.272 548.622
2499 0 49.305 12.737 628 61.035 967.318 549.059
2500 0 51.1716 13.6208 697 59.9914 966.669 548.109
2501 0 53.1007 13.7851 732 59.612 966.974 547.339
2502 0 55.29 14.3606 794 59.2834 966.966 544.273
2503 0 57.2467 13.5903 778 60.446 966.544 545.087
2504 0 59.3349 14.949 887 58.4983 966.645 544.186
2505 0 61.1108 13.5819 830 60.4976 966.819 543.04
2506 0 63.3147 13.883 879 60.2764 966.594 543.413
2507 0 64.4849 13.7862 889 60.6907 966.255 541.721
2508 0 67.2292 13.7292 923 59.9859 966.437 540.27
2509 0 70.3552 14.4268 1015 59.6 966.088 539.747
2510 0 73.2726 14.8896 1091 59.4702 966.015 538.072
2511 0 76.4214 15.0743 1152 59.2283 966.473 537.062
2512 0 78.7478 14.9084 1174 59.2104 965.899 536.505
2513 0 79.4388 13.4317 1067 61.6785 965.168 536.017
2514 0 83.5341 14.2696 1192 60.854 965.537 533.696
2515 0 88.2343 14.3028 1262 59.8154 965.412 533.051
2516 0 90.4798 14.5226 1314 60.0396 965.979 529.753
2517 0 90.5206 14.3835 1302 60.9432 965.429 529.616
2518 1 45.1586 11.2492 508 62.7658 965.752 551.9
2519 0 47.1387 12.5163 590 60.0136 966.09 551.903
2520 0 49.122 12.5606 617 60.269 965.78 551.322
2521 0 51.2295 13.4883 691 59.0434 965.667 549.517
2522 0 51.1341 13.5721 694 59.2075 965.501 548.654
2523 0 54.0996 13.2164 715 57.9371 965.614 550.347
2524 0 56.0945 13.6377 765 57.8235 965.648 548.52
2525 0 56.1353 13.414 753 58.3984 964.975 547.79
2526 0 58.1343 13.9505 811 57.3452 965.192 546.645
2527 0 61.1552 13.6047 832 57.7091 965.411 543.376
2528 0 62.1887 13.459 837 58.0084 964.708 543.969
2529 0 63.063 13.1932 832 58.4495 965.084 544.394
2530 0 66.196 13.5507 897 57.8105 965.979 540.674
2531 0 69.2065 14.0305 971 57.1885 965.348 540.886
2532 0 71.2576 13.3179 949 58.2002 965.264 539.542
2533 0 75.2605 14.9082 1122 55.5766 965.559 537.634
2534 0 77.1644 13.3611 1031 57.2532 965.774 538.499
2535 0 79.2122 13.9372 1104 56.8071 964.947 535.736
2536 0 83.166 14.5612 1211 55.7374 965.178 533.443
2537 0 86.2486 13.9481 1203 56.9709 964.641 532.678
2538 0 88.1337 13.071 1152 58.1432 964.168 532.199
2539 1 46.0488 11.6833 538 59.3532 964.374 552.639
2540 0 49.1324 11.8048 580 58.1241 963.576 553.595
2541 0 49.1316 12.151 597 59.0117 963.849 551.982
2542 0 50.0962 12.5958 631 59.0111 964.087 550.555
2543 0 53.1397 12.8717 684 57.9547 964.357 550.602
2544 0 54.0376 13.3241 720 58.2611 964.131 549.482
2545 0 56.1427 13.0916 735 58.4177 964.401 549.275
2546 0 54.0454 13.3592 722 59.2202 964.213 548.812
2547 0 59.0841 13.4385 794 58.3136 963.788 548.424
2548 0 59.0989 13.4182 793 58.9533 963.603 547.401
2549 0 61.116 13.6789 836 59.1854 963.573 546.266
2550 0 65.0584 13.5109 879 58.7804 963.662 546.229
2551 0 67.2003 14.3154 962 57.1466 963.932 545.327
2552 0 69.0582 13.4524 929 58.6222 964.12 545.005
2553 0 72.228 13.7897 996 58.0813 964.489 542.581
2554 0 74.1114 13.952 1034 57.6219 963.717 541.794
2555 0 77.294 13.7527 1063 57.8834 963.849 540.213
2556 0 77.1441 13.6368 1052 59.3489 963.817 539.2
2557 0 82.3736 13.4145 1105 58.8959 963.693 536.452
2558 1 43.1513 11.703 505 58.5564 963.739 556.339
2559 0 44.1195 11.9222 526 58.3099 963.854 555.557
2560 0 45.1584 11.0721 500 59.634 963.792 556.692
2561 0 47.0937 12.0823 569 59.8559 964.12 553.763
2562 0 48.1555 12.605 607 59.4069 964.105 552.697
2563 0 51.0492 12.9091 659 59.3475 963.212 555.733
2564 0 52.1072 13.6641 712 58.8343 963.601 551.282
2565 0 52.0764 13.845 721 59.7115 962.81 551.431
2566 0 54.102 12.92 699 61.9914 962.904 553.04
2567 0 56.0904 13.4426 754 61.9708 962.767 551.139
2568 0 57.1891 12.7472 729 63.4458 962.997 548.888
2569 0 61.2142 13.4773 825 61.3297 962.781 550.632
2570 0 62.0649 12.9703 805 63.2261 962.852 546.953
2571 0 65.0797 13.6909 891 61.4781 962.655 546.667
2572 0 66.0582 13.7454 908 62.2621 962.276 545.55
2573 0 67.043 12.6486 848 63.763 962.98 543.988
2574 0 69.1863 13.0806 905 63.4497 963.27 542.119
2575 0 72.2566 13.9226 1006 62.0795 962.62 542.402
2576 0 75.1531 13.7453 1033 62.0949 962.696 541.401
2577 0 77.093 13.3345 1028 62.3288 962.968 539.891
2578 0 77.093 13.2567 1022 169.856 961.927 539.919
2579 0 80.1129 13.7057 1098 62.7341 962.966 537.849
2580 0 84.112 13.589 1143 62.2056 962.59 536.186
2581 1 46.0592 11.2898 520 63.3212 963.117 555.629
2582 0 48.0927 11.3323 545 62.8385 962.984 555.846
2583 0 50.1385 12.1264 608 61.9803 962.812 555.449
2584 0 51.2182 11.9294 611 62.293 962.525 554.558
2585 0 53.0481 12.0645 640 62.2781 961.764 552.655
2586 0 54.109 12.5487 679 61.5479 962.33 550.766
2587 0 57.2257 12.8963 738 60.687 962.123 551.102
2588 0 58.1451 12.7784 743 60.6716 962.104 550.956
2589 0 60.061 12.8702 773 60.3131 962.166 548.151
2590 0 61.4569 13.2451 814 59.8022 962.73 547.612
2591 0 64.3095 12.9841 835 59.6036 962.626 546.922
2592 0 64.3261 13.1051 843 60.4057 962.68 544.631
2593 0 69.4936 13.9006 966 58.3209 962.609 543.621
2594 0 71.3887 13.1814 941 59.169 962.926 542.647
2595 0 72.3533 12.1764 881 60.6447 963.037 542.447
2596 0 76.4576 13.4846 1031 58.8438 962.975 539.141
2597 0 78.389 13.7519 1078 58.3377 963.665 539.101
2598 1 37.3159 9.70095 362 61.1326 963.127 557.345
2599 0 39.1722 9.80288 384 59.6641 963.594 557.167
2600 0 40.0718 11.0052 441 57.9977 963.773 558.512
2601 0 43.0223 11.5522 497 57.7847 963.843 556.809
2602 0 45.0245 11.1939 504 58.3591 964.316 555.228
2603 0 47.1773 11.9337 563 57.1208 964.893 554.602
2604 0 48.197 12.6356 609 56.3251 964.655 554.228
2605 0 49.0712 12.1049 594 57.6178 964.784 553.035
2606 0 51.1355 12.3593 632 56.9399 965.063 552.625
2607 0 51.0661 11.7103 598 58.0184 965.318 552.005
2608 0 53.05 12.2337 649 57.6549 965.726 549.333
2609 0 53.1871 12.0894 643 58.1991 965.538 549.317
2610 0 55.0713 12.0026 661 56.8502 965.982 549.658
2611 0 58.0525 12.6782 736 56.053 966.594 547.291
2612 0 58.082 12.4651 724 57.0221 966.532 544.789
2613 0 60.0392 12.2087 733 57.0709 967.221 544.951
2614 0 64.0523 12.9426 829 55.579 968.244 544.543
2615 0 63.0328 12.311 776 56.8428 967.93 543.881
2616 0 65.0473 12.1604 791 57.5246 968.067 541.196
2617 0 68.0398 11.9342 812 57.436 967.751 541.942
2618 0 69.0481 12.8027 884 56.7138 967.93 540.25
2619 0 71.1426 12.2711 873 57.9084 967.378 538.894
2620 0 73.1324 11.6774 854 58.2564 967.732 538.631
2621 0 77.1608 12.9859 1002 56.3812 967.938 537.862
2622 0 79.0924 12.5802 995 57.4714 968.332 535.659
2623 0 83.1435 12.8934 1072 57.3619 968.463 533.587
2624 0 83.2361 12.6628 1054 58.3273 968.367 532.325
2625 0 87.2982 12.9212 1128 58.2872 968.307 530.568
2626 0 89.2103 13.1151 1170 57.947 967.608 529.861
2627 0 92.1843 12.6052 1162 58.3649 968.035 526.942
2628 0 95.1796 13.1961 1256 57.9873 967.763 524.548
2629 0 97.1556 13.2777 1290 58.0589 967.557 524.972
2630 1 54.1067 10.7011 579 58.1416 968.019 547.33
2631 0 53.0703 10.0998 536 59.25 968.261 547.091
2632 0 57.1526 11.0756 633 59.0964 968.096 547.374
2633 0 57.1478 12.4589 712 58.1531 967.65 545.698
2634 0 59.1231 12.1103 716 58.5405 966.545 545.186
2635 0 62.0414 13.1041 813 56.9963 967.102 545.492
2636 0 63.0198 12.7262 802 58.0524 967.039 542.389
2637 0 65.0949 12.7353 829 57.9312 966.943 542.988
2638 0 69.0704 12.5814 869 57.878 966.901 541.573
2639 0 69.0288 13.2553 915 57.1563 966.288 541.004
2640 0 72.0885 12.9979 937 57.2668 966.733 539.383
2641 0 76.1182 13.6498 1039 56.2945 966.722 538.425
2642 0 77.2523 12.9964 1004 57.6803 966.334 536.356
2643 0 78.1707 13.0612 1021 58.0441 966.401 533.712
2644 0 81.0905 12.9978 1054 58.4013 966.664 533.948
2645 0 84.0858 13.617 1145 57.9432 966.519 530.383
2646 0 87.0665 12.9901 1131 58.962 966.652 531.418
2647 0 89.1967 12.9713 1157 59.5341 966.982 530.042
2648 0 91.1932 13.3343 1216 59.185 966.502 528.999
2649 1 44.0334 10.5829 466 59.8476 965.792 551.18
2650 0 46.0533 10.3793 478 57.0439 965.82 553.092
2651 0 50.0787 11.0426 553 56.6908 965.96 551.412
2652 0 51.103 10.8409 554 57.3736 965.453 550.069
2653 0 54.1365 11.7665 637 56.6452 965.661 548.6
2654 0 54.1177 12.0663 653 57.3721 966.19 546.167
2655 0 57.134 13.127 750 56.2027 966.297 545.589
2656 0 57.0788 12.8244 732 57.123 965.904 546.368
2657 0 60.1411 12.8198 771 56.9066 965.92 544.265
2658 0 58.111 12.7687 742 58.1482 965.838 544.9
2659 0 63.0784 13.0948 826 56.7554 965.54 545.044
2660 0 62.0436 13.0553 810 57.8012 965.389 542.828
2661 0 65.0744 13.861 902 56.5732 965.072 540.696
2662 0 66.1067 13.3421 882 57.2245 965.185 541.024
2663 0 69.1518 12.8124 886 57.5508 964.709 541.095
2664 0 70.183 13.935 978 56.68 965.348 537.454
2665 0 73.2049 13.4281 983 57.2004 965.596 538.273
2666 0 75.1016 13.2221 993 57.2779 965.36 537.413
2667 0 78.1149 14.4275 1127 55.9743 965.768 535.431
2668 0 81.2888 13.9872 1137 56.2243 965.638 533.264
2669 0 81.166 13.1336 1066 57.6914 966.096 532.786
2670 0 86.3741 13.812 1193 56.4417 966.214 530.367
2671 0 87.255 13.0537 1139 57.5856 966.234 529.745
2672 0 92.1936 13.9489 1286 55.9106 965.839 528.287
2673 1 48.0846 10.024 482 56.8983 965.297 551.699
2674 0 49.0706 11.6363 571 56.042 965.545 549.051
2675 0 50.022 11.255 563 55.9183 965.393 548.794
2676 0 51.1556 12.0222 615 56.0293 964.79 547.428
2677 0 53.1498 11.9286 634 56.448 964.793 549.659
2678 0 54.121 12.6938 687 55.9054 964.966 547.747
2679 0 55.1074 12.7388 702 55.8903 965.13 548.255
2680 0 56.3059 12.5031 704 56.0639 964.91 548.189
2681 0 59.1454 13.6105 805 54.7155 964.171 547.199
2682 0 60.2396 12.8985 777 55.6281 964.223 545.704
2683 0 63.3122 13.2834 841 54.7206 963.816 545.109
2684 0 64.1112 12.8839 826 55.362 963.895 544.981
2685 0 67.1793 12.9653 871 55.0161 963.592 542.94
2686 0 67.1188 12.6194 847 56.3506 963.706 542.484
2687 0 70.2373 13.312 935 55.6332 963.945 540.032
2688 0 72.1573 12.9162 932 56.0644 963.614 540.762
2689 0 73.1253 12.7726 934 56.394 962.973 540.122
2690 0 76.1995 12.9135 984 56.2276 963.175 537.836
2691 0 80.2637 13.1442 1055 55.5735 963.978 536.292
2692 0 85.1825 13.5826 1157 55.0475 964.1 534.478
2693 0 85.1422 13.8004 1175 55.114 963.997 533.855
2694 1 48.0581 10.1128 486 56.6255 963.868 553.549
2695 0 49.021 10.9137 535 55.3645 963.841 554.751
2696 0 50.042 11.3705 569 55.3427 964.158 553.098
2697 0 52.0898 12.4209 647 54.4884 963.487 550.615
2698 0 51.1991 10.9182 559 56.7352 963.19 550.372
2699 0 56.1688 13.1212 737 53.1479 962.623 551.277
2700 0 58.1317 12.9189 751 53.5446 962.647 549.541
2701 0 58.2652 12.4259 724 54.768 963.104 548.827
2702 0 61.1918 12.7632 781 54.6351 962.904 547.657
2703 0 64.2532 12.2484 787 54.615 963.2 547.201
2704 0 67.1989 12.8276 862 54.3596 963.303 546.456
2705 0 66.2001 12.8248 849 55.3816 963.769 544.844
2706 0 71.1734 12.7997 911 54.7278 963.802 543.666
2707 0 72.2246 12.9457 935 55.308 963.615 543.197
2708 1 40.0658 10.3579 415 55.4313 962.484 559.655
2709 0 42.0201 11.2327 472 55.839 962.551 558.161
2710 0 43.0168 11.3677 489 55.9489 962.611 557.798
2711 0 42.236 11.3884 481 57.8108 963.108 557.239
2712 0 46.0324 13.3601 615 54.7041 962.794 555.6
2713 0 46.1768 11.8241 546 57.6026 962.817 556.136
2714 0 47.1281 12.2008 575 57.1548 962.699 555.242
2715 0 50.0813 12.0804 605 57.9157 962.38 554.369
2716 0 52.1082 13.2033 688 55.109 962.112 554.869
2717 0 52.1272 13.0834 682 56.1188 962.62 553.77
2718 0 54.2113 12.2299 663 58.0513 962.665 549.931
2719 0 55.1167 12.6277 696 57.7716 962.264 551.614
2720 0 57.2638 11.9098 682 59.5953 962 550.611
2721 0 60.2825 12.8561 775 58.7406 962.334 549.174
2722 0 60.1539 13.7314 826 57.9092 962.316 548.83
2723 0 62.1226 12.7812 794 59.5516 962.62 548.951
2724 0 65.0515 13.1588 856 59.2909 963.105 546.605
2725 0 67.0802 13.0292 874 59.8844 963.033 545.589
2726 0 69.1499 12.5524 868 60.9574 963.652 544.993
2727 0 71.1912 13.4848 960 60.2698 963.835 542.881
2728 1 36.0342 10.2403 369 62.458 963.255 561.255
2729 0 39.0901 10.4119 407 62.1155 963.012 560.995
2730 0 42.0191 10.7332 451 61.6896 962.876 559.08
2731 0 39.0288 10.0951 394 64.1777 962.708 558.871
