time division length width area intensity CMx CMy
0 0 79.2392 12.456 987 76.1489 496.134 548.715
1 0 81.1463 12.385 1005 100.441 495.422 548.36
2 0 84.1814 12.4137 1045 76.1493 495.588 545.706
3 0 89.1206 13.3415 1189 74.2599 495.852 543.242
4 0 89.1206 13.3527 1190 159.58 495.849 543.208
5 1 50.1289 11.7098 587 75.3356 495.136 563.702
6 0 52.2838 12.719 665 74.6932 495.767 562.716
7 0 52.0663 11.9847 624 76.242 495.296 561.2
8 0 54.0835 12.6656 685 75.3606 495.667 561.628
9 0 56.0429 11.9194 668 75.8204 495.702 560.741
10 0 59.1058 13.6027 804 73.7027 495.694 558.387
11 0 60.2766 13.3883 807 74.6035 495.457 558.294
12 0 62.1561 13.1926 820 75.439 495.549 557.278
13 0 64.1943 13.4903 866 73.8568 495.431 556.434
14 0 65.1931 13.0995 854 75.3794 496.212 556.107
15 0 68.2078 13.1656 898 76.0601 496.428 553.247
16 0 71.4008 13.3472 953 75.6034 496.497 551.916
17 0 71.2082 13.8748 988 75.3826 495.91 550.116
18 0 75.3261 13.3022 1002 75.5369 495.465 548.735
19 1 41.2356 11.6162 479 75.0271 495.349 564.818
20 0 42.1593 11.4803 484 75.2831 495.122 564.843
21 0 42.0885 11.0957 467 75.469 494.991 564.657
22 0 46.0882 12.0421 555 72.8486 495.119 563.245
23 0 47.1491 13.2982 627 71.949 494.896 562.478
24 0 48.094 12.9746 624 72.9407 495.077 561.013
25 0 50.0841 14.1562 709 70.5346 495.333 559.969
26 0 51.0857 13.4871 689 72.0174 495.332 559.543
27 0 52.1195 12.9318 674 73.9822 495.693 559.555
28 0 54.2034 14.5932 791 71.2971 496.138 559.425
29 0 57.1959 14.494 829 71.5151 496.224 557.846
30 0 57.1268 14.424 824 72.1165 496.485 559.022
31 0 59.1349 13.7144 811 74.2035 496.982 556.11
32 0 62.2202 13.9183 866 73.4527 496.993 555.976
33 0 63.125 14.1941 896 73.7199 497.31 555.731
34 0 63.1211 14.5593 919 74.0403 497.108 555.651
35 0 65.1834 13.1782 859 76.5914 497.239 554.205
36 0 67.0755 14.0588 943 75.789 497.268 552.418
37 0 68.0533 14.2535 970 76.167 497.182 552.796
38 0 71.0805 13.8153 982 76.6029 497.29 551.591
39 0 74.1242 14.2464 1056 75.9545 497.079 550.523
40 0 76.1066 14.0724 1071 76.8655 497.536 546.359
41 0 78.0869 14.2277 1111 76.8191 497.122 546.162
42 0 80.0486 13.9915 1120 77.2438 497.263 546.598
43 0 84.1455 14.5938 1228 75.6873 497.431 544.274
44 0 85.1384 14.3414 1221 76.5274 497.708 543.1
45 0 90.0794 14.6981 1324 76.0536 497.974 540.193
46 0 92.1507 14.3352 1321 76.3989 498.416 539.991
47 1 44.12 11.854 523 78.0325 497.587 562.363
48 0 49.1223 13.0898 643 75.4977 498.151 560.367
49 0 50.1597 11.8621 595 78.4891 497.706 561.398
50 0 52.1144 12.9715 676 76.8388 498.019 560.036
51 0 53.1204 12.9141 686 77.2915 498.064 560.07
52 0 57.0464 13.7607 785 74.7618 497.842 558.85
53 0 57.0557 12.6894 724 77.6588 497.867 558.878
54 0 58.1352 12.901 750 77.4813 497.047 556.323
55 0 62.1095 13.4923 838 67.926 498.191 554.661
56 0 63.1053 13.7548 868 68.5945 498.438 553.465
57 0 63.1232 12.9429 817 70.3035 498.089 551.058
58 0 68.1136 13.6683 931 69.7465 498.266 550.139
59 0 71.1152 13.893 988 69.5678 498.767 549.627
60 0 72.1394 12.9749 936 72.3771 499.074 550.448
61 0 78.2635 14.2723 1117 70.7681 498.716 547.491
62 0 79.2671 14.1421 1121 71.6521 498.756 548.103
63 0 80.1713 13.4836 1081 73.2276 498.678 545.806
64 0 84.2342 13.6405 1149 73.3655 498.766 542.259
65 0 89.3447 13.5766 1213 73.1467 498.626 539.466
66 0 90.3319 14.2253 1285 72.5113 499.04 538.841
67 1 45.0177 11.6176 523 73.0516 498.855 560.321
68 0 46.0706 10.4839 483 74.3789 498.822 561.427
69 0 47.0641 12.3661 582 72.5739 498.412 558.342
70 0 52.0367 12.5104 651 70.6866 498.611 557.286
71 0 52.1278 12.853 670 70.6269 498.315 556.967
72 0 55.0338 12.5923 693 70.7619 499.027 555.691
73 0 56.0646 13.092 734 70.2738 499.403 554.211
74 0 60.0835 12.6158 758 70.3311 499.588 553.331
75 0 61.1239 13.808 844 69.0036 499.998 551.66
76 0 64.0598 12.7537 817 70.4357 499.67 551.218
77 0 65.1424 13.0637 851 70.8437 500.377 547.076
78 0 66.0953 14.0101 926 69.4255 500.032 547.482
79 0 69.066 13.4654 930 70.2817 500.223 545.576
80 0 73.0712 13.5484 990 70.0242 500.606 543.142
81 0 76.0821 12.7757 972 71.2305 500.17 542.491
82 0 79.1105 14.0942 1115 69.7695 500.903 541.83
83 0 82.1005 13.179 1082 71.8013 501.162 539.023
84 1 41.0745 10.2253 420 73.0024 501.348 558.093
85 0 45.0804 10.9804 495 70.0646 501.36 558.119
86 0 44.1909 12.0613 533 70.0976 501.315 555.296
87 0 47.1367 12.7289 600 68.4667 501.762 553.545
88 0 48.1558 13.2071 636 66.8223 501.626 553.969
89 0 47.0523 11.3916 536 69.528 501.903 552.009
90 0 49.1565 12.7755 628 68.258 502.553 551.022
91 0 53.0661 12.7765 678 71.4735 503.215 550.034
92 0 53.1613 12.4151 660 75.0803 503.326 549.721
93 0 56.0915 12.9788 728 72.4341 504.008 548.661
94 0 59.1149 12.9578 766 71.2911 503.646 547.661
95 0 59.22 13.1375 778 68.0064 503.916 546.27
96 0 61.2403 13.6022 833 67.2749 504.077 544.733
97 0 64.1167 13.8342 887 90.2086 504.531 544.485
98 0 65.0821 13.5521 882 65.8798 504.117 543.331
99 0 69.1095 13.9489 964 65.5902 503.196 541.446
100 0 72.127 14.0447 1013 67.4057 503.373 541.019
101 0 73.0747 13.5751 992 70.2319 504.127 538.14
102 0 77.1758 13.5664 1047 72.3419 504.238 537.708
103 0 77.1939 13.6021 1050 68.7295 503.627 534.967
104 1 39.0465 10.1674 397 68.3149 503.04 554.071
105 0 40.1504 10.5105 422 69.0474 502.995 552.964
106 0 43.01 11.0904 477 69.9853 503.371 553.18
107 0 43.1163 12.5011 539 69.4675 503.362 553.215
108 0 44.085 11.9769 528 71.5246 503.383 552.388
109 0 44.0607 11.4161 503 72.2922 503.453 550.547
110 0 47.1545 11.9395 563 71.0018 503.345 549.767
111 0 48.1599 13.206 636 67.7862 503.648 550.267
112 0 47.0691 12.6835 597 69.943 503.387 548.127
113 0 50.1595 11.3239 568 71.044 503.586 547.222
114 0 52.1721 12.6696 661 69.1316 503.514 546.628
115 0 53.1333 13.2685 705 68.9447 503.572 546.308
116 0 55.1076 12.6843 699 69.1345 503.534 546.567
117 0 57.2314 13.0173 745 68.9369 503.67 544.075
118 0 60.2552 13.6918 825 68.497 503.29 543.098
119 0 60.1272 12.906 776 70.0773 503.21 542.062
120 0 62.2003 12.5401 780 70.5038 503.363 542.308
121 0 65.1205 12.9913 846 69.857 503.416 540.512
122 0 66.1014 12.5565 830 70.8048 503.411 538.651
123 0 69.1269 13.4535 930 69.3323 503.065 537.366
124 0 70.1778 12.0978 849 72.1319 502.793 537.363
125 0 74.2292 12.4614 925 71.2573 502.408 535.899
126 0 78.0839 13.588 1061 69.9585 501.925 533.717
127 1 39.0514 10.9599 428 69.1215 501.166 552.474
128 0 40.0224 10.5691 423 69.0236 501.418 551.678
129 0 41.0393 9.13758 375 70.7733 501.019 551.891
130 0 45.0194 11.5284 519 67.4933 501.636 551.432
131 0 45.0628 11.9611 539 67.9388 500.929 549.844
132 0 46.0753 11.2642 519 68.8767 501.291 550.607
133 0 47.0704 11.5147 542 68.7214 501.166 549.882
134 0 48.0981 11.8508 570 68.7439 501.149 548.351
135 0 50.0723 12.2822 615 68.3919 501.252 546.956
136 0 53.1182 12.6887 674 67.2433 501.408 547.497
137 0 52.1186 12.5867 656 67.6494 501.642 547.655
138 0 56.1193 12.8476 721 66.3467 501.524 546.951
139 0 55.1354 12.1156 668 68.5329 501.756 544.987
140 0 58.1743 12.1703 708 67.654 501.363 544.855
141 0 61.0644 12.8717 786 67.1247 501.365 543.615
142 0 62.0942 13.1896 819 67.0464 501.697 543.537
143 0 64.1167 12.3213 790 69.019 501.167 542.762
144 0 66.0879 13.588 898 67.9131 501.501 541.069
145 0 69.0473 13.4545 929 68.1378 501.228 540.258
146 0 72.0922 13.344 962 69.3441 501.333 538.16
147 0 75.1386 13.7479 1033 69.1113 501.372 537.322
148 0 77.1296 13.3152 1027 70.851 501.531 535.196
149 0 78.0885 13.3182 1040 71.8106 501.535 534.938
150 0 80.0872 13.5602 1086 72.2781 501.448 533.703
151 0 85.1368 14.3416 1221 70.6765 501.444 533.763
152 0 89.1076 14.6115 1302 70.7181 501.104 531.902
153 0 91.0863 14.6125 1331 71.2787 500.805 532.068
154 1 48.0382 11.0953 533 73.3058 499.912 551.964
155 0 51.1044 11.1536 570 73.9895 499.656 551.282
156 0 53.1597 11.757 625 73.8112 500.024 550.445
157 0 53.2187 12.5708 669 72.9626 500.57 550.713
158 0 55.1319 12.8601 709 73.2722 500.042 550.299
159 0 56.128 12.4359 698 74.6805 499.968 550.073
160 0 59.1968 12.7541 755 73.6914 500.09 549.468
161 0 61.2026 13.5942 832 71.9808 500.321 547.928
162 0 62.2155 13.3247 829 72.8649 500.239 547.836
163 0 63.1806 13.596 859 72.7416 500.119 546.745
164 0 67.2872 13.6281 917 72.2225 500.939 543.3
165 0 67.2168 13.092 880 73.1625 500.348 544.135
166 0 71.1576 12.8447 914 73.3786 500.823 542.388
167 0 72.1679 13.3439 963 72.756 500.809 541.25
168 0 73.26 13.7865 1010 72.2723 501.079 540.584
169 0 77.1579 13.6992 1057 71.7682 501.288 539.675
170 0 79.3444 13.4855 1070 71.4037 501.448 537.116
171 0 82.2136 13.5866 1117 70.513 501.311 536.534
172 0 85.4687 13.0574 1116 72.3853 501.637 533.802
173 0 88.1813 13.4723 1188 71.314 501.658 531.614
174 0 93.3309 13.9504 1302 69.778 501.909 531.56
175 1 54.1979 12.2883 666 72.1772 501.995 547.764
176 0 55.1473 11.4058 629 72.8426 501.968 548.037
177 0 59.2619 12.3519 732 71.3169 502.46 545.693
178 0 60.289 13.485 813 70.1796 502.437 545.181
179 0 63.248 13.4866 853 70.3728 503.136 542.869
180 0 64.1803 13.54 869 70.672 503.133 543.186
181 0 65.2403 13.5652 885 71.7096 503.292 541.92
182 0 69.2586 12.8504 890 72.8562 503.497 539.826
183 0 70.3656 12.9467 911 72.9166 503.693 538.73
184 0 72.2265 13.4577 972 72.3735 504.063 538.118
185 0 75.2422 13.0246 980 73.1337 504.094 536.633
186 0 77.3919 14.1229 1093 70.9716 503.808 535.643
187 0 78.161 13.6001 1063 72.444 504.043 534.598
188 0 82.2069 14.6703 1206 70.5954 503.711 533.415
189 0 83.2135 13.3392 1110 73.3108 504.102 531.875
190 0 86.3083 14.1701 1223 72.2077 504.32 530.941
191 0 89.2637 13.1969 1178 74.4075 504.053 529.387
192 0 91.3722 14.337 1310 72.8618 504.834 526.701
193 0 92.4507 13.6505 1262 73.046 504.557 526.063
194 0 94.2954 13.2562 1250 72.024 504.504 523.949
195 0 99.2336 13.6345 1353 71.677 504.66 522.279
196 0 103.243 13.3762 1381 72.7965 504.818 520.592
197 1 53.3453 11.1538 595 74.0706 505.139 545.106
198 0 56.0873 12.2488 687 72.31 505.504 543.613
199 0 59.2819 11.8249 701 72.8445 505.1 540.3
200 0 60.2222 12.4871 752 72.1011 505.404 539.895
201 0 63.2007 11.867 750 72.3053 505.235 539.577
202 0 65.1901 11.6736 761 73.1472 505.666 539.389
203 0 68.4135 13.2576 907 70.419 506.196 538.624
204 0 69.3531 12.6598 878 73.1196 505.847 535.186
205 0 72.4458 12.8372 930 72.2548 506.489 534.808
206 0 72.3115 12.3355 892 73.9776 505.98 534.325
207 0 75.2273 12.8278 965 73.1803 506.152 534.734
208 0 77.2843 13.6509 1055 72.8815 506.532 532.694
209 0 79.1878 12.8555 1018 74.0904 505.899 530.829
210 0 82.1079 13.7137 1126 72.8979 505.681 529.848
211 0 85.163 12.9047 1099 73.5833 506.091 528.48
212 0 86.1809 13.8198 1191 73.6188 505.432 526.981
213 0 90.207 13.4136 1210 73.0405 505.627 527.139
214 0 91.1481 14.1747 1292 72.2485 505.115 525.568
215 0 95.1421 13.895 1322 73.2436 505.026 523.038
216 0 97.1537 13.2059 1283 74.6196 505.662 522.041
217 0 99.1652 12.7867 1268 75.142 505.096 519.479
218 0 103.16 14.1625 1461 72.8576 505.603 518.461
219 0 103.172 13.618 1405 74.7146 506.739 516.423
220 0 107.245 13.7536 1475 73.8461 505.851 516.013
221 1 60.0461 11.1414 669 71.4439 505.492 541.764
222 0 61.1748 10.9849 672 71.9568 505.56 540.658
223 0 62.2576 10.7457 669 72.8191 504.97 539.945
224 0 65.1314 12.6974 827 69.7424 505.386 538.933
225 0 66.3987 12.4099 824 71.7282 504.727 537.925
226 0 72.1398 13.557 978 69.5634 505.085 536.967
227 0 73.2426 12.1787 892 72.2724 505.093 535.584
228 0 75.2623 12.7952 963 70.1516 505.508 534.299
229 0 79.2181 12.3457 978 71.6421 504.888 533.466
230 0 82.2176 12.7467 1048 71.251 504.478 533.579
231 0 84.1843 12.5558 1057 71.65 504.229 530.844
232 0 87.1415 12.0838 1053 72.3229 503.791 529.813
233 0 90.2323 12.889 1163 70.6638 503.466 526.074
234 0 94.2135 13.0236 1227 69.5265 503.039 526.651
235 0 96.2347 12.563 1209 71.3722 502.739 521.473
236 1 53.0536 9.70716 515 70.4796 502.184 546.705
237 0 55.055 10.1172 557 70.3268 502.185 544.851
238 0 58.1386 11.0254 641 69.7301 502.19 543.463
239 0 60.1383 10.4592 629 70.2957 501.623 544.137
240 0 63.2911 12.2292 774 67.916 502.019 543.948
241 0 65.328 13.0266 851 66.4183 502.496 542.995
242 0 65.277 11.8418 773 68.2898 502.373 542.705
243 0 69.2348 11.8726 822 67.444 502.128 541.258
244 0 71.268 12.6845 904 67.4491 502.386 539.927
245 0 72.2598 12.801 925 67.0584 502.572 539.594
246 0 75.342 12.3172 928 67.6703 502.917 537.835
247 0 77.2716 13.2261 1022 66.9501 502.47 535.471
248 0 80.2376 12.6499 1015 67.4128 502.223 536.595
249 0 83.3203 12.71 1059 66.9254 502.059 536.059
250 0 87.3547 13.0274 1138 66.5624 503.029 532.357
251 0 90.2667 12.9948 1173 66.7937 502.199 529.587
252 0 91.3088 12.7589 1165 67.0567 502.633 528.607
253 1 53.264 11.0957 591 64.9695 502.514 551.409
254 0 53.3167 10.9534 584 64.3904 502.666 552.163
255 0 54.2252 11.1019 602 65.7276 502.674 548.508
256 0 56.3236 11.6115 654 64.4358 502.717 548.482
257 0 56.2326 11.239 632 65.9051 502.348 547.634
258 0 60.2087 12.1743 733 64.9523 502.701 545.563
259 0 61.3131 12.689 778 64.1362 502.505 545.235
260 0 63.2428 12.6497 800 64.1787 502.25 544.075
261 0 64.2992 12.053 775 64.5845 503.067 545.244
262 0 68.2086 13.7373 937 61.9541 502.895 542.209
263 0 68.3573 12.9759 887 63.239 502.227 542.55
264 0 71.2147 13.4804 960 62.1208 502.452 539.719
265 0 74.2399 13.2947 987 61.7558 502.419 539.57
266 0 76.2718 12.5997 961 62.9365 502.255 538.48
267 0 77.1332 13.7165 1058 62.086 502.381 535.904
268 0 80.3186 13.0107 1045 62.9282 502.524 534.865
269 0 82.1444 13.598 1117 62.1262 502.33 533.233
270 0 83.147 13.4461 1118 62.5429 502.957 532.88
271 0 86.1971 13.7012 1181 62.4699 502.323 531.204
272 0 89.1734 13.3448 1190 62.8261 502.594 530.539
273 0 91.172 13.2168 1205 62.9369 502.853 529.166
274 0 96.1674 14.2044 1366 61.3411 502.911 526.995
275 0 99.1309 13.8705 1375 61.4225 502.815 526.304
276 0 102.156 13.2053 1349 62.7153 502.524 525.909
277 1 50.0741 10.8639 544 62.4393 502.118 549.759
278 0 52.1259 11.2037 584 61.6387 502.25 547.598
279 0 54.0951 10.8143 585 62.0701 502.576 548.716
280 0 55.0309 10.2306 563 61.9432 502.268 546.989
281 0 58.0586 12.2979 714 58.7605 502.748 545.874
282 0 58.0389 11.8541 688 59.5189 502.411 545.416
283 0 59.0739 13.4239 793 57.9748 502.719 544.483
284 0 62.1897 13.7965 858 57.8531 503.033 543.221
285 0 60.0826 12.1666 731 60.4501 503.353 541.129
286 0 65.1596 13.3518 870 58.1356 503.92 541.701
287 0 67.1327 13.868 931 57.8475 503.976 539.834
288 0 69.1402 13.5232 935 58.4096 504.676 538.581
289 0 71.1482 13.1556 936 59.031 504.646 536.325
290 0 74.1079 13.6288 1010 58.5683 504.873 535.744
291 0 75.1876 12.143 913 61.012 505.377 534.163
292 0 77.1734 13.9038 1073 59.178 505.724 531.802
293 0 81.0821 13.5172 1096 59.5675 505.9 530.406
294 0 83.2614 14.2803 1189 59.1682 505.898 528.834
295 0 86.1096 13.6454 1175 60.0196 506.043 529.501
296 0 87.1325 13.6574 1190 60.863 505.803 527.218
297 0 90.1435 14.4436 1302 60.4032 506.137 523.105
298 0 93.0682 13.3665 1244 61.5828 506.478 522.524
299 0 96.1957 13.8468 1332 61.2275 506.454 520.84
300 0 99.1223 14.2854 1416 61.0869 506.578 517.859
301 0 102.233 12.9019 1319 62.881 506.803 516.072
302 0 106.309 13.8182 1469 61.6719 507.223 515.002
303 1 54.1369 10.9352 592 61.723 506.883 542.215
304 0 59.0384 11.5518 682 61.5674 506.837 540.575
305 0 61.0628 11.9058 727 61.3673 506.799 539.444
306 0 62.1242 12.5555 780 60.9987 507.469 537.764
307 0 63.0889 13.2036 833 61.0672 507.579 536.563
308 0 66.0902 12.8309 848 61.4269 507.631 534.164
309 0 70.1613 12.3145 864 62.2604 507.326 533.039
310 0 72.1892 13.1599 950 61.5442 507.084 533.075
311 0 75.0759 12.8803 967 62.4964 507.929 529.967
312 0 75.1144 12.248 920 64.6848 507.672 529.422
313 0 80.2174 13.8623 1112 62.0468 507.947 528.378
314 0 83.0934 13.7797 1145 62.207 507.912 526.436
315 0 84.1169 12.7085 1069 64.4153 507.468 526.096
316 0 87.1188 12.1673 1060 65.3594 506.924 523.314
317 1 43.0236 10.3199 444 64.045 506.935 546.827
318 0 42.0268 10.874 457 64.4114 506.477 546.665
319 0 46.0105 11.1279 512 64.582 506.188 545.572
320 0 48.0401 11.8651 570 62.7298 506.274 546.165
321 0 48.0132 13.1422 631 62.3027 505.895 543.236
322 0 49.0456 12.7025 623 62.748 505.708 543.478
323 0 51.033 12.149 620 63.2758 505.634 541.695
324 0 53.0758 12.9626 688 61.9186 505.747 541.799
325 0 55.0562 12.8414 707 62.2928 506.639 541.115
326 0 57.0458 13.5154 771 61.2231 506.398 539.645
327 0 57.1219 13.8301 790 61.4949 506.432 536.053
328 0 61.0906 13.3572 816 61.7108 506.115 537.167
329 0 63.1066 13.4376 848 62.2099 505.601 536.047
330 0 64.1136 13.3201 854 62.7869 505.46 533.711
331 0 63.0672 12.1616 767 65.0535 505.484 532.634
332 0 68.1336 12.9452 882 64.0147 505.269 532.635
333 0 70.1151 13.2354 928 63.9213 505.453 531.992
334 0 74.099 13.9948 1037 62.7165 505.048 531.08
335 0 76.1596 13.7868 1050 63.4943 505.008 529.562
336 0 77.2501 14.5113 1121 63.2462 505.173 528.531
337 0 81.1173 14.0537 1140 63.3298 504.783 528.668
338 0 82.1799 13.8233 1136 64.3891 504.444 526.465
339 0 86.2284 14.508 1251 63.5012 504.293 524.617
340 0 87.0949 13.9503 1215 65.0403 504.213 524.612
341 1 47.0882 10.6396 501 66.6886 503.679 544.659
342 0 48.1617 11.0046 530 66.6962 503.645 543.472
343 0 52.0247 11.8405 616 65.3425 503.49 543.904
344 0 51.1225 11.7952 603 65.5522 504.061 542.234
345 0 54.0886 12.5165 677 64.3944 503.137 542.9
346 0 54.1707 12.1837 660 65.6652 504.229 541.564
347 0 55.0447 12.0993 666 66.4865 503.937 540.56
348 0 58.1266 13.3158 774 64.1098 503.503 540.138
349 0 61.1029 12.3235 753 65.1169 503.857 540.526
350 0 62.1851 13.0095 809 65.0655 503.617 538.525
351 0 64.1275 13.1145 841 65.3365 503.545 537.622
352 0 68.1495 13.6171 928 64.3502 503.217 537.62
353 0 69.0791 13.1588 909 65.8867 503.18 536.358
354 0 71.1319 12.9197 919 66.9304 503.213 535.087
355 0 72.1376 12.9336 933 67.7042 503.081 533.502
356 0 77.0859 13.6471 1052 66.0932 503.786 533.058
357 0 79.0903 14.3128 1132 65.6519 503.245 532.174
358 0 81.0529 11.8318 959 69.7706 503.366 529.387
359 0 85.0966 13.1145 1116 67.8065 503.362 528.509
360 0 88.2175 13.1493 1160 68.075 503.337 526.678
361 1 50.0461 11.2696 564 65.8457 503.312 547.73
362 0 52.1028 10.3257 538 68.4461 502.558 545.134
363 0 53.0615 12.0803 641 65.727 503.228 544.966
364 0 53.0785 11.0968 589 67.9881 503.499 543.292
365 0 54.1979 11.8086 640 67.875 503.728 541.566
366 0 59.1191 11.7559 695 66.9871 503.768 541.935
367 0 58.1722 12.7552 742 66.3598 503.809 541.819
368 0 61.281 12.0755 740 67.2568 503.945 539.645
369 0 64.13 13.9404 894 64.2964 504.194 538.213
370 0 67.2023 13.3329 896 65.0882 503.863 536.893
371 0 66.1219 12.2955 813 67.7306 503.496 535.851
372 0 70.2061 12.3921 870 67.3506 504.044 534.346
373 0 73.2183 12.7564 934 67.1049 504.282 533.455
374 0 73.2183 12.7427 933 157.316 505.26 533.413
375 1 38.0408 8.93777 340 67.3853 503.835 551.003
376 0 40.0745 9.93149 398 67.7035 503.932 549.309
377 0 41.0275 10.0908 414 64.9783 504.188 550.548
378 0 43.0216 10.9248 470 65.3191 504.702 548.728
379 0 45.028 11.3485 511 64.8963 504.207 547.438
380 0 46.0525 11.2046 516 66.562 504.667 546.428
381 0 46.0443 11.6627 537 66.2458 504.529 546.168
382 0 47.1161 11.7794 555 66.4739 505.998 546.728
383 0 52.3129 12.062 631 67.4802 505.426 547.247
384 0 53.2476 12.4888 665 67.6812 505.559 545.43
385 0 54.2722 12.7321 691 67.877 505.553 544.576
386 0 57.3059 13.2098 757 66.3725 505.93 544.16
387 0 58.2661 11.3617 662 68.642 505.592 543.427
388 0 60.2054 12.0089 723 67.5436 505.968 542.521
389 0 63.3041 13.3799 847 65.1641 506.336 541.893
390 0 63.2233 11.9576 756 68.0053 506.688 540.765
391 0 65.4018 12.5532 821 66.4641 506.208 540.838
392 0 66.3471 12.1482 806 67.9975 507.11 538.118
393 0 69.2217 12.0194 832 68.1731 506.81 538.694
394 0 72.3288 12.2081 883 68.0668 506.847 536.02
395 0 74.2543 12.2148 907 67.5314 507.329 535.81
396 0 76.2939 12.8188 978 67.2035 507.039 531.914
397 1 41.0376 10.1858 418 67.7081 506.074 550.687
398 0 45.0328 10.348 466 66.7039 506.41 550.099
399 0 45.0231 10.7944 486 65.9177 506.123 549.512
400 0 47.061 10.8583 511 65.6654 506.45 547.002
401 0 48.0495 11.6963 562 64.2989 506.407 545.915
402 0 47.1541 11.0913 523 64.8126 506.428 547.654
403 0 49.2025 11.3206 557 64.5386 506.255 546.481
404 0 49.3251 12.1845 601 64.0499 507.166 546.621
405 0 50.3284 11.3852 573 65.6928 507.66 544.204
406 0 53.2661 12.0527 642 63.8863 507.231 543.565
407 0 55.2275 12.1316 670 63.994 506.767 542.952
408 0 57.2645 11.5429 661 64.5068 506.567 543.607
409 0 56.2675 12.2095 687 64.7438 507.15 540.342
410 0 57.3266 12.5247 718 64.8635 506.628 541.107
411 0 60.2765 12.9238 779 63.4724 507.166 541.332
412 0 62.2977 12.344 769 63.8544 507.222 540.72
413 0 61.2369 11.4637 702 65.9744 507.214 539.02
414 0 65.2787 11.7496 767 65.3755 507.004 536.701
415 0 68.2325 12.8531 877 64.5188 507.416 536.676
416 0 70.2213 11.6631 819 65.5482 507.382 535.324
417 0 70.1803 12.8954 905 64.6983 507.023 534.96
418 0 74.3237 13.2932 988 63.9646 506.75 534.044
419 0 75.3424 12.8746 970 65.2433 506.398 532.61
420 0 77.3825 12.8194 992 65.5837 505.972 531.676
421 0 81.1636 13.2449 1075 64.4074 505.66 531.329
422 0 84.259 12.9719 1093 64.7548 505.731 529.801
423 1 45.2074 10.7062 484 65.6942 504.787 548.814
424 0 46.2446 11.3959 527 64.8254 504.769 548.142
425 0 47.1826 11.89 561 64.8895 505.166 546.501
426 0 48.1795 12.2459 590 65.0119 504.993 546.425
427 0 50.2784 12.6496 636 64.6855 504.896 544.25
428 0 51.2004 12.7929 655 64.9405 504.788 544.945
429 0 53.2062 12.179 648 66.0123 504.463 543.86
430 0 53.2482 12.2445 652 66.704 504.023 543.811
431 0 53.2354 13.074 696 66.7845 504.151 542.921
432 0 56.2434 12.8904 725 66.4234 503.626 543.008
433 0 59.2352 12.864 762 65.9331 503.861 540.647
434 0 61.3485 13.4315 824 65.2731 503.944 540.706
435 0 62.1822 13.5891 845 65.2 503.791 539.28
436 0 62.214 13.0035 809 66.2769 503.467 539.739
437 0 65.2348 13.6277 889 64.7537 503.506 540.487
438 0 66.1532 13.635 902 65.6164 503.738 538.275
439 0 68.2008 13.4016 914 66.3873 503.925 537.234
440 0 70.2349 13.6969 962 65.7931 503.869 536.832
441 0 75.2096 13.8546 1042 64.6651 503.602 536.523
442 0 75.0523 13.6971 1028 65.4912 503.768 534.599
443 0 78.222 13.4233 1050 65.5324 503.291 533.073
444 0 82.278 14.0864 1159 64.1389 503.754 533.013
445 1 43.1267 11.3387 489 66.2372 503.658 551.765
446 0 43.3296 11.8626 514 65.8813 503.837 551.193
447 0 47.3113 12.5129 592 64.4443 503.885 550.672
448 0 47.2582 11.4689 542 66.2454 503.574 550.469
449 0 49.1491 11.8619 583 65.9177 504.009 548.729
450 0 50.2603 12.7138 639 65.4085 504.147 548.255
451 0 53.2907 12.8728 686 64.4956 504.036 548.134
452 0 53.2182 12.7964 681 65.0602 504.053 546.01
453 0 55.3671 12.6971 703 64.5263 504.708 545.605
454 0 58.2488 13.099 763 63.2149 504.861 545.156
455 0 59.2591 12.8757 763 63.6121 504.817 544.134
456 0 60.2227 12.3874 746 63.6702 504.81 544.142
457 0 63.2692 13.6243 862 61.7309 505.039 542.863
458 0 65.2436 13.3653 872 62.0768 504.748 541.057
459 0 70.2167 13.6007 955 60.7246 504.437 541.222
460 0 69.4151 13.0807 908 62.1894 504.655 538.169
461 0 72.3004 13.679 989 61.7331 504.313 537.544
462 0 74.3479 12.7778 950 62.8011 504.216 536.992
463 0 77.2401 13.2703 1025 62.5834 504.144 534.592
464 0 79.2316 12.8863 1021 63.4006 503.972 533.179
465 0 82.3526 13.0779 1077 63.6695 504.203 532.777
466 1 45.3501 11.4002 517 64.9246 503.89 550.174
467 0 48.2359 11.195 540 64.6093 504.174 550.278
468 0 47.1442 12.1542 573 65.1187 504.393 548.269
469 0 50.2005 12.47 626 64.9792 504.217 547.765
470 0 52.3054 13.0006 680 64.8235 504.426 547.49
471 0 54.2326 12.3542 670 65.6552 503.976 548.688
472 0 56.2578 13.0649 735 64.6599 503.931 547.457
473 0 58.2632 12.8554 749 65.7383 504.076 545.453
474 0 59.2176 12.7496 755 66.5497 504.04 544.57
475 0 62.1932 13.4259 835 64.9222 503.89 543.956
476 0 63.1723 13.2495 837 65.7503 503.946 543.487
477 0 66.1405 14.7111 973 64.1161 504.154 541.495
478 0 68.2479 13.7147 936 65.3846 504.437 540.58
479 0 70.3222 13.5804 955 65.755 504.61 539.517
480 0 72.1881 13.0077 939 66.7284 504.594 538.968
481 0 75.306 13.983 1053 65.4672 504.936 536.924
482 0 76.1942 13.8462 1055 66.2085 504.374 536.617
483 0 79.2443 13.6287 1080 65.9444 504.358 535.403
484 0 81.2796 13.5212 1099 66.6852 503.82 533.463
485 0 87.1925 13.8773 1210 65.5736 504.226 532.34
486 0 89.2241 13.8416 1235 66.0891 504.513 530.846
487 1 49.0619 10.5785 519 66.4913 504.235 550.975
488 0 52.2159 10.6481 556 65.5755 503.899 551.887
489 0 49.1694 11.0638 544 67.2077 504.653 549.419
490 0 53.145 11.9861 637 65.3155 504.97 548.091
491 0 53.172 12.1681 647 66.0093 505.57 547.573
492 0 56.2458 12.8899 725 65.6014 505.683 547.953
493 0 59.3511 12.8894 765 65.9856 505.765 545.976
494 0 59.2359 11.834 701 67.9372 506.068 543.675
495 0 62.2399 12.8535 800 66.2312 506.049 542.679
496 0 63.2201 14.2043 898 64.5033 505.667 541.776
497 0 66.2382 14.0402 930 64.5323 505.369 540.99
498 0 69.3323 12.5194 868 66.5461 505.559 539.431
499 0 69.2635 13.0949 907 66.602 505.155 538.108
500 0 72.2139 13.4046 968 66.4318 504.972 537.232
501 0 75.2207 12.9752 976 67.0348 504.695 536.467
502 0 77.1572 13.9974 1080 65.6694 505.111 535.494
503 0 79.1255 14.4328 1142 65.6673 504.734 534.307
504 0 81.1463 14.098 1144 66.6661 504.616 532.807
505 0 84.1702 14.138 1190 66.9151 504.67 530.824
506 0 85.2404 13.808 1177 67.8284 504.931 529.395
507 0 90.1353 13.8348 1247 67.7322 505.127 526.423
508 0 92.1804 14.0268 1293 67.4996 505.147 526.789
509 0 95.1564 14.1977 1351 68.0355 505.21 524.333
510 0 98.3403 13.4533 1323 69.3991 504.81 523.571
511 1 53.1594 10.967 583 69.6655 504.504 545.024
512 0 55.0984 11.5974 639 67.6228 503.908 546.455
513 0 57.2149 11.6928 669 67.997 504.199 544.949
514 0 60.146 12.4198 747 67.3039 504.553 542.604
515 0 61.2245 13.132 804 67.2836 504.725 541.315
516 0 62.3093 12.1651 758 69.7731 504.509 541.491
517 0 66.2026 13.9723 925 65.1384 504.678 540.228
518 0 67.3005 12.8677 866 66.8926 504.882 540.397
519 0 68.2273 13.0446 890 67.2303 505.397 539.48
520 0 72.2466 13.1771 952 66.5956 506.015 538.92
521 0 74.2084 14.2571 1058 65.2193 505.881 536.561
522 0 76.1722 13.3513 1017 67.0669 506.067 534.989
523 0 78.1492 13.6662 1068 66.9213 506.006 534.257
524 0 81.1859 13.4506 1092 67.5339 505.851 533.071
525 0 83.1474 13.9752 1162 67.0301 505.862 530.76
526 0 86.1268 13.3176 1147 68.4699 505.828 529.472
527 0 90.2653 13.693 1236 67.5453 505.515 528.57
528 0 92.1546 13.651 1258 67.903 505.377 527.334
529 0 95.192 13.1839 1255 68.8406 505.66 524.546
530 0 99.306 14.1381 1404 67.1033 505.687 524.161
531 0 100.269 14.092 1413 67.7488 505.717 520.359
532 1 56.1578 10.5595 593 67.0017 505.005 545.123
533 0 56.1531 9.79465 550 67.8618 505.098 544.138
534 0 56.1888 9.9664 560 67.9589 505.411 545.023
535 0 60.325 11.3386 684 65.6886 506.001 543.257
536 0 62.1569 12.4845 776 64.3312 506.339 542.869
537 0 65.3043 13.4448 878 62.4419 506.231 540.356
538 0 65.2472 12.7975 835 63.8503 506.004 539.817
539 0 67.2544 12.3412 830 64.3904 506.012 537.612
540 0 72.2587 12.4968 903 62.9136 505.347 536.493
541 0 74.1879 12.684 941 63.0595 505.418 534.368
542 0 75.3638 12.9372 975 62.7272 505.202 532.052
543 0 76.211 12.0061 915 64.2131 505.611 532.33
544 0 83.1892 13.1147 1091 62.3676 505.204 529.787
545 0 84.2043 12.7547 1074 63.0531 504.799 530.1
546 0 86.2904 12.8751 1111 63.1368 505.137 527.732
547 0 91.242 12.0449 1099 63.0582 504.426 527.654
548 0 92.2009 12.6571 1167 62.9117 504.563 524.525
549 1 53.1985 10.0755 536 62.2015 503.129 545.659
550 0 53.1098 10.4689 556 62.2608 503.588 545.169
551 0 57.211 10.6623 610 61.677 503.908 545.58
552 0 59.3023 11.8208 701 59.8217 503.698 544.518
553 0 59.2519 11.3414 672 61.7515 504.789 543.246
554 0 62.4766 12.7408 796 59.8417 504.986 542.209
555 0 63.2555 12.3467 781 61.3956 505.479 542.407
556 0 66.5205 12.6577 842 61.0261 505.582 540.812
557 0 68.2686 12.3483 843 61.3499 505.288 538.597
558 0 70.5455 12.1482 857 61.7223 504.711 539.502
559 0 72.3276 12.3604 894 61.9116 504.632 538.338
560 0 74.3428 12.819 953 61.6988 504.839 536.699
561 0 76.4945 12.1839 932 62.9324 504.673 534.807
562 0 79.4868 13.2097 1050 60.9476 504.593 534.268
563 1 41.3626 10.5168 435 62.5724 504.549 551.584
564 0 43.5125 9.44557 411 64.1849 504.338 550.825
565 0 45.3777 9.49805 431 63.8237 504.51 549.508
566 0 48.4399 10.7969 523 61.6788 504.533 549.442
567 0 48.3297 11.7112 566 61.7473 504.564 549.129
568 0 49.3276 11.3121 558 62.4355 504.62 547.771
569 0 50.319 11.4867 578 62.7716 504.445 546.827
570 0 54.4467 11.975 652 61.4371 504.5 547.666
571 0 55.4568 12.6044 699 61.4807 504.082 545.515
572 0 57.2682 11.4549 656 63.1814 504.148 544.715
573 0 58.3078 12.5198 730 62.3356 503.897 544.223
574 0 62.2722 13.3286 830 60.7458 503.639 543.336
575 0 62.2111 12.8273 798 62.3246 503.402 541.586
576 0 63.3685 13.1296 832 62.1683 503.382 541.028
577 0 64.183 12.2462 786 63.2252 503.407 541.628
578 0 66.1814 13.2212 875 61.8251 503.273 540.478
579 0 67.3882 12.3019 829 63.2593 503.11 538.441
580 0 70.2574 13.1943 927 62.0874 503.123 540.106
581 0 71.2561 12.5744 896 63.5067 502.95 535.948
582 0 74.2636 13.1693 978 62.2914 502.259 535.602
583 0 75.2931 13.1221 988 62.584 502.487 533.597
584 0 78.3383 12.8417 1006 62.9046 502.442 532.85
585 0 78.2854 12.5438 982 63.6375 502.436 532.13
586 0 84.3751 13.2029 1114 62.1311 501.965 530.856
587 0 87.2421 13.5714 1184 62.3539 502.274 528.433
588 1 46.2514 11.1348 515 61.3495 501.383 550.258
589 0 47.0796 10.7053 504 63.2738 501.056 548.488
590 0 48.0575 11.0493 531 63.7853 501.644 547.424
591 0 51.0331 10.5814 540 62.9519 502.106 547.872
592 0 52.0817 11.7316 611 62.5548 501.856 548.057
593 0 54.0258 12.6976 686 61.5452 501.905 545.484
594 0 55.3664 12.7514 706 64.0227 502.05 546.242
595 0 57.2403 12.4563 713 62.8247 501.822 545.926
596 0 60.1734 12.3477 743 63.0121 501.363 545.638
597 0 60.1791 12.2135 735 63.9905 501.893 545.082
598 0 64.1751 13.4476 863 61.0985 501.7 543.006
599 0 66.2377 13.1345 870 61.6172 501.357 542.74
600 0 66.1527 12.7886 846 63.4314 500.957 540.059
601 0 69.2342 14.0249 971 60.172 500.89 540.885
602 0 71.2177 12.5952 897 62.1873 501.149 540.327
603 0 72.1882 12.7722 922 61.9555 501.157 539.132
604 0 75.167 13.1308 987 61.9939 501.27 535.779
605 0 78.1588 13.4854 1054 61.1262 501.712 535.33
606 0 80.1099 13.5938 1089 60.2828 501.591 535.496
607 0 82.2254 13.2806 1092 61.9112 501.403 531.106
608 0 86.1463 13.8485 1193 61.4786 501.737 530.897
609 0 87.213 13.1058 1143 63.6675 502.284 531.535
610 0 90.1526 13.699 1235 62.7717 502.207 527.5
611 0 92.1042 12.8333 1182 64.7623 502.36 524.45
612 0 96.1727 13.6109 1309 64.8449 502.341 525.105
613 0 98.116 12.8114 1257 66.3357 502.658 525.444
614 0 102.231 13.4206 1372 66.2879 502.714 522.538
615 0 104.184 12.8811 1342 66.2593 502.66 520.204
616 0 108.215 13.6117 1473 66.9613 502.385 517.645
617 0 110.198 13.1037 1444 68.9349 502.354 516.861
618 0 115.095 14.1883 1633 66.2149 501.851 515.793
619 0 116.151 14.0421 1631 66.26 502.064 510.916
620 0 119.468 13.2588 1584 67.2961 502.035 511.054
621 1 65.1349 11.5299 751 65.534 502.425 538.636
622 0 69.1575 11.1195 769 66.3342 502.274 538.481
623 0 71.0938 11.2949 803 66.1843 502.776 536.248
624 0 73.0658 11.6333 850 66.5529 502.759 537.102
625 0 76.0528 13.1619 1001 65.2877 502.349 534.825
626 0 78.0416 11.6989 913 67.6572 502.3 532.504
627 0 81.0617 13.1875 1069 65.16 502.416 533.274
628 0 85.1857 12.7251 1084 66.2601 502.859 529.475
629 0 87.114 12.7993 1115 68.0592 502.253 530.326
630 0 91.1194 12.1818 1110 67.4946 502.441 528.209
631 0 93.2094 12.4344 1159 66.5522 502.396 525.173
632 0 97.1883 13.5613 1318 64.786 502.868 522.193
633 0 100.176 12.1386 1216 66.7533 503.168 521.192
634 0 103.171 13.7151 1415 64.236 503.218 520.961
635 0 106.175 12.1497 1290 66.6395 503.623 517.746
636 1 56.0366 9.8507 552 65.1413 503.159 543.355
637 0 58.0529 10.0253 582 65.1048 503.177 543.249
638 0 62.0684 11.6645 724 63.1754 502.797 542.239
639 0 65.1784 12.4274 810 62.6222 503.015 540.291
640 0 66.2491 11.7134 776 63.3634 503.265 540.503
641 0 68.2718 12.7871 873 61.6174 503.53 539.918
642 0 70.2952 12.7747 898 61.5568 503.185 539.349
643 0 70.306 11.3362 797 63.5282 503.713 538.577
644 0 75.2009 12.1142 911 62.1811 503.908 536.29
645 0 76.3309 12.3803 945 62.691 503.978 535.828
646 0 77.2598 11.6749 902 63.3758 504.052 534.149
647 0 80.1249 12.3432 989 62.5581 503.974 531.909
648 0 85.2392 13.0574 1113 61.319 504.254 530.4
649 0 85.1611 12.447 1060 63.1491 504.111 528.133
650 0 89.144 11.9133 1062 62.9247 504.227 527.334
651 0 92.1549 13.423 1237 60.8844 504.732 524.871
652 0 97.2364 13.1021 1274 61.27 504.858 523.841
653 0 99.1613 13.3016 1319 61.2199 504.592 521.536
654 1 55.1117 10.2882 567 60.8995 503.7 545.478
655 0 59.1004 10.5583 624 60.0513 504.846 542.915
656 0 59.0997 10.2369 605 60.4 505.055 543.868
657 0 60.1139 11.578 696 59.3075 505.549 539.256
658 0 62.1367 11.6839 726 59.1997 505.952 538.689
659 0 64.3579 12.4616 802 57.52 505.137 539.933
660 0 66.1161 12.2209 808 57.8007 505.218 539.025
661 0 67.1958 11.9204 801 58.7778 504.9 538.831
662 0 69.1958 12.573 870 58.4897 505.329 536.702
663 0 69.2173 11.7745 815 59.6429 505.715 536.899
664 0 71.1088 12.0379 856 59.4778 505.909 535.354
665 0 75.3352 13.0351 982 58.2444 505.903 533.714
666 0 77.3096 12.7539 986 59.4047 506.506 530.38
667 0 79.2967 12.2578 972 60.0741 506.421 531.887
668 0 83.1759 12.5637 1045 59.9177 506.106 528.434
669 0 85.3288 12.2936 1049 59.9695 506.503 528.048
670 0 88.3307 12.9513 1144 60.0035 506.289 527.098
671 0 94.2194 12.6938 1196 58.8269 506.747 525.366
672 1 48.2365 10.3449 499 60.2846 505.483 546.481
673 0 53.266 10.9638 584 59.2414 505.861 544.868
674 0 52.3551 11.4411 599 60.4608 506.573 543.881
675 0 55.275 11.5423 638 60.1395 506.691 543.683
676 0 55.4061 12.3452 684 60.4883 507.045 541.642
677 0 57.2749 12.2043 699 61.0386 507.21 540.525
678 0 60.3816 13.1497 794 59.3489 507.48 539.23
679 0 61.2723 13.3829 820 59.4463 507.488 539.193
680 0 63.2673 13.2296 837 59.3357 507.978 538.949
681 0 66.3232 13.4342 891 58.8373 508.083 539.016
682 0 64.5023 13.1933 851 60.6627 508.094 536.416
683 0 70.4738 13.9626 984 58.2612 508.122 536.005
684 0 72.279 14.1535 1023 58.4047 508.266 535.519
685 0 75.3485 12.7541 961 60.4912 507.777 532.671
686 0 75.3063 13.7173 1033 59.5924 506.802 532.657
687 0 77.4417 13.8556 1073 59.5899 507.021 531.365
688 0 80.2647 13.8168 1109 59.7439 507.041 531.041
689 0 83.3706 13.7938 1150 60.0043 507.005 528.875
690 0 85.4677 13.6075 1163 60.3723 507.744 529.277
691 0 86.3736 13.9973 1209 60.7072 507.245 526.273
692 0 88.5087 13.027 1153 62.1127 507.451 525.066
693 0 91.3675 13.6263 1245 61.1333 507.408 524.026
694 0 95.292 13.8627 1321 60.7267 507.506 523.014
695 0 99.309 14.2787 1418 59.8061 506.955 521.807
696 0 100.273 13.8921 1393 60.2412 507.31 518.106
697 0 101.327 13.8956 1408 60.7891 507.134 515.853
698 0 104.313 13.3732 1395 61.1039 507.057 515.003
699 0 107.316 13.4835 1447 60.8507 506.455 511.663
700 0 112.362 13.8036 1551 60.3011 506.289 512.116
701 1 60.0904 9.98496 600 62.4567 505.717 539.152
702 0 64.2012 11.1992 719 61.1613 506.153 538.099
703 0 65.0802 10.8328 705 62.0993 505.895 536.034
704 0 67.0565 12.8399 861 60.3391 505.561 535.555
705 0 70.1353 11.9911 841 61.6635 505.646 532.932
706 0 73.0524 12.8812 941 60.5845 505.747 531.21
707 0 74.1401 12.4224 921 61.1629 505.44 531.444
708 0 77.0624 12.8338 989 61.1132 505.646 529.024
709 0 79.1 13.7168 1085 60.1926 505.686 529.385
710 0 82.1235 12.9926 1067 61.3721 505.347 527.396
711 0 85.0696 12.5074 1064 61.9774 505.827 526.155
712 0 89.1134 13.0508 1163 62.086 506.163 521.928
713 1 50.0542 9.62956 482 60.7552 504.88 544.245
714 0 50.0378 9.55278 478 61.5293 504.77 543.485
715 0 52.0358 10.2045 531 61.2411 504.71 542.706
716 0 54.0985 11.7009 633 60.5245 503.97 541.994
717 0 54.0439 11.8052 638 60.6473 503.901 542.904
718 0 58.1638 12.7399 741 60.6478 503.323 543.791
719 0 59.1139 12.4336 735 61.702 503.592 542.936
720 0 60.1489 13.7492 827 60.37 503.582 541.114
721 0 62.2578 13.4762 839 60.4958 503.225 542.353
722 0 61.2267 12.9682 794 62.1675 503.508 540.615
723 0 63.1595 13.7113 866 61.3915 503.724 539.748
724 0 66.1336 13.4878 892 61.5706 503.584 539.794
725 0 67.1297 13.6452 916 62.5688 503.287 537.901
726 0 70.2382 13.8813 975 61.441 503.246 537.238
727 0 72.0972 13.3431 962 62.2526 503.253 537.476
728 0 74.1444 13.0826 970 63.3454 503.023 536.219
729 0 75.1647 13.4904 1014 62.5207 503.244 534.613
730 0 77.2801 13.354 1032 62.6618 503.411 533.445
731 0 78.2214 13.7558 1076 62.6933 503.019 532.029
732 0 80.225 13.4497 1079 63.6886 503.536 529.675
733 0 85.4214 13.6617 1167 62.8072 502.991 528.462
734 1 51.2603 11.6464 597 61.2814 502.702 547.26
735 0 51.2255 11.1663 572 62.2483 503.002 548.133
736 0 52.2671 10.7142 560 62.525 502.709 546.262
737 0 54.3554 12.0319 654 61.2095 502.774 546.482
738 0 53.198 12.3689 658 61.8556 502.403 545.191
739 0 56.1189 12.8477 721 61.3564 502.226 544.576
740 0 58.4207 11.7595 687 62.7351 502.595 543.293
741 0 59.2525 12.3202 730 62.5452 502.41 544.512
742 0 63.19 12.3912 783 62.0281 502.167 542.453
743 0 62.2097 12.265 763 62.7366 502.553 543.193
744 0 65.2946 13.4621 879 61.595 502.396 540.096
745 0 68.3519 13.7231 938 61.0362 502.537 540.751
746 0 69.5102 13.3362 927 61.6526 502.379 540.851
747 0 71.386 13.2379 945 61.909 502.276 539.559
748 0 71.2644 12.9097 920 63.0022 502.364 536.435
749 0 75.2764 14.1611 1066 60.8583 501.969 536.904
750 0 77.4571 13.7883 1068 61.7285 502.267 535.688
751 0 78.1804 13.3154 1041 62.4765 502.022 534.843
752 1 45.1285 9.48402 428 63.2009 501.766 552.479
753 0 46.2575 10.0092 463 62.3693 501.886 552.305
754 0 45.1824 9.98176 451 63.235 501.761 551.956
755 0 49.1983 11.6467 573 61.356 502.168 550.236
756 0 49.1878 12.3405 607 60.8254 501.336 550.033
757 0 51.1364 10.9707 561 63.2531 501.159 549.257
758 0 53.1877 12.0893 643 61.6656 501.751 549.053
759 0 52.1551 11.6384 607 62.9407 501.626 549.657
760 0 54.2464 12.2773 666 62.4595 501.709 547.995
761 0 55.1992 12.011 663 62.6953 501.688 547.525
762 0 57.2258 13.1584 753 61.3745 501.495 546.803
763 0 59.3352 12.2187 725 63.3103 501.823 546.812
764 0 58.1131 12.8887 749 63.263 502.012 545.561
765 0 59.1381 12.6653 749 64.4139 502.303 544.992
766 0 63.3887 12.9834 823 63.7764 501.926 543.473
767 0 64.3899 13.4959 869 63.2704 501.785 541.261
768 0 67.3027 13.5062 909 62.8196 501.178 542.503
769 0 68.2951 13.0024 888 63.0822 501.616 541.445
770 0 70.2367 12.7142 893 63.5812 501.391 541.477
771 0 73.3711 13.8474 1016 62.2943 501.335 539.487
772 0 76.3207 13.1681 1005 62.7353 501.296 539.11
773 0 77.57 13.1236 1018 63.4037 501.235 536.933
774 0 79.2402 13.5537 1074 62.7505 500.573 534.749
775 0 81.2406 13.5031 1097 63.6709 500.618 533.546
776 0 84.233 13.3677 1126 63.2691 500.405 533.829
777 0 88.2317 13.3965 1182 63.5 500.853 532.12
778 0 89.1657 12.7403 1136 64.6989 500.695 529.891
779 0 92.255 13.376 1234 63.7358 500.982 529.895
780 0 93.29 13.517 1261 64.5012 501.305 525.898
781 0 97.2394 13.7393 1336 64.4671 501.356 527.144
782 0 101.27 14.0516 1423 64.1427 501.45 525.523
783 0 104.207 14.8838 1551 62.53 501.671 524.568
784 0 106.197 13.9081 1477 64.8152 502.003 522.595
785 1 56.1161 10.7456 603 66.4362 502.504 545.187
786 0 60.2149 11.6583 702 65.067 502.274 543.504
787 0 63.1473 11.5919 732 65.5642 502.307 543.041
788 0 64.1101 12.5565 805 65.1528 502.976 540.973
789 0 67.2035 12.797 860 64.1988 502.48 540.226
790 0 67.0428 12.7381 854 64.9473 502.486 540.361
791 0 70.1193 13.2346 928 64.3901 502.306 537.405
792 0 72.1575 13.0825 944 65.4831 502.554 535.398
793 0 73.1267 13.5792 993 66.4079 502.635 535.366
794 0 75.1634 13.0915 984 66.498 503.27 536.275
795 0 77.1013 12.6716 977 67.4862 503.04 532.155
796 0 82.1135 13.7005 1125 65.9484 503.631 531.093
797 0 83.3036 13.877 1156 66.3019 503.698 528.106
798 0 88.1664 13.9055 1226 65.425 503.51 529.198
799 0 87.1977 12.6609 1104 68.7328 503.719 526.398
800 0 90.2015 13.3922 1208 68.0058 504.227 525.969
801 0 95.2155 13.5692 1292 67.7856 504.613 523.039
802 0 95.2155 13.6007 1295 168.611 504.608 523.036
803 0 100.246 13.2474 1328 69.1988 504.309 519.128
804 0 103.34 14.0023 1447 68.0173 504.18 518.816
805 1 56.13 10.7786 605 68.6645 503.916 543.783
806 0 57.107 10.4365 596 69.0487 504.044 542.46
807 0 60.2621 10.4543 630 67.8349 504.463 541.395
808 0 64.239 12.3912 796 65.6709 504.351 539.744
809 0 65.1696 12.6132 822 65.9586 504.507 539.311
810 0 67.1122 12.874 864 66.1806 504.34 537.801
811 0 69.1999 13.0636 904 66.4115 504.565 535.106
812 0 71.2585 12.5599 895 67.0134 505.002 534.199
813 0 75.2115 12.6576 952 66.416 505.057 533.02
814 0 76.4068 13.4805 1030 65.8932 505.686 531.336
815 0 79.6933 13.0626 1041 66.4467 505.772 530.194
816 0 84.2125 14.4397 1216 63.7936 505.736 529.132
817 0 84.4236 13.2546 1119 65.9133 505.651 526.606
818 0 87.2115 12.9914 1133 66.3857 505.746 525.358
819 0 92.3154 13.4539 1242 65.0998 505.702 524.201
820 0 95.3593 14.3038 1364 64.1848 505.987 523.167
821 0 97.2961 13.2688 1291 66.3935 505.656 520.347
822 0 98.4334 12.9834 1278 67.3067 505.455 518.603
823 0 103.426 13.3526 1381 66.4084 505.691 515.923
824 1 57.2347 10.9549 627 65.6938 505.539 541.129
825 0 59.2996 12.1586 721 64.914 505.792 539.298
826 0 59.2067 11.9581 708 65.1483 505.668 539.364
827 0 62.132 12.3608 768 64.7565 505.568 539.504
828 0 64.2649 11.8727 763 65.2739 505.33 536.476
829 0 66.2402 13.1642 872 63.8234 505.78 535.084
830 0 66.441 12.402 824 65.4272 505.223 533.309
831 0 66.2246 12.3821 820 66.4049 505.273 531.037
832 0 70.398 12.9407 911 65.0044 505.097 532.523
833 0 73.3862 12.223 897 66.1427 504.887 530.353
834 0 77.4217 14.3241 1109 62.615 504.787 531.173
835 0 78.2279 13.7036 1072 64.5858 504.752 527.915
836 0 81.2437 12.8872 1047 64.8071 504.564 526.559
837 0 84.2407 14.7197 1240 62.3758 504.578 524.069
838 0 88.1876 13.5053 1191 63.9026 504.537 524.71
839 0 92.2949 12.9585 1196 64.2182 505.092 523.081
840 0 93.3041 13.0219 1215 64.9786 504.881 520.137
841 0 95.1833 13.1641 1253 64.9282 504.619 516.69
842 0 100.178 13.6258 1365 64.6095 504.635 515.54
843 1 53.2347 10.4067 554 63.6643 504.289 542.617
844 0 55.2092 10.0889 557 64.9982 504.513 541.05
845 0 57.1907 9.93169 568 65.6338 503.81 540.023
846 0 59.28 11.0324 654 64.2661 503.549 539.234
847 0 61.3429 11.0363 677 65.0148 504.019 538.186
848 0 64.3405 12.2784 790 62.9949 503.914 538.178
849 0 64.2156 11.7884 757 64.2629 503.853 535.752
850 0 68.3182 11.6953 799 63.4681 504.338 534.947
851 0 69.3233 12.6941 880 62.383 503.922 535.149
852 0 71.407 13.0939 935 62.3882 504.644 534.345
853 0 74.1627 13.1872 978 62.229 504.682 533.923
854 0 77.3696 13.1059 1014 62.215 504.516 532.351
855 0 79.1555 12.9366 1024 62.1768 504.534 532.815
856 0 81.2873 12.8187 1042 62.7265 504.605 529.031
857 0 84.1809 13.2097 1112 62.1996 504.393 527.277
858 0 87.114 12.7075 1107 63.0759 504.743 528.394
859 0 89.3918 12.999 1162 62.3296 504.219 527.533
860 0 94.1277 13.3117 1253 61.411 504.03 525.723
861 0 96.2761 13.4405 1294 61.4127 504.114 525.393
862 0 99.2298 13.504 1340 62.0403 503.608 522.62
863 0 102.342 12.9076 1321 62.9349 504.412 521.843
864 0 104.317 13.1809 1375 63.2596 504.175 518.997
865 0 110.404 13.8492 1529 62.1478 504.394 516.785
866 1 57.1833 9.93297 568 65.8134 503.398 544.621
867 0 58.1629 10.9348 636 64.8758 502.335 544.535
868 0 60.1859 10.8165 651 65.0123 502.441 543.814
869 0 62.1485 12.261 762 64.1391 502.854 542.689
870 0 65.1276 12.4064 808 63.5804 502.772 541.178
871 0 66.1198 12.1597 804 64.842 502.162 540.1
872 0 68.1854 13.2873 906 63.1711 502.688 540.118
873 0 71.1128 13.9637 993 62.2497 502.524 538.626
874 0 71.2005 13.6235 970 63.3897 502.912 537.699
875 0 75.2121 13.7212 1032 62.8789 502.851 537.604
876 0 74.2481 13.3875 994 64.4527 502.333 536.24
877 0 77.2004 13.3289 1029 64.4577 502.289 533.679
878 0 80.2567 13.5939 1091 64.0247 502.522 532.912
879 0 83.2164 14.264 1187 63.7624 502.468 531.343
880 0 84.1364 13.3236 1121 65.4175 502.44 530.277
881 0 89.3088 13.1902 1178 65.3846 502.276 527.967
882 0 92.2579 13.3755 1234 64.9603 502.525 527.867
883 1 46.0818 10.3512 477 68.9392 502.665 548.285
884 0 49.1415 12.4742 613 65.9772 503.176 547.292
885 0 49.1425 11.7617 578 67.0692 502.972 547.4
886 0 52.0793 11.9625 623 66.9631 503.188 545.937
887 0 53.0603 12.3256 654 66.1774 503.394 544.865
888 0 54.1066 12.7896 692 66.0679 503.425 544.616
889 0 56.0837 13.0876 734 65.5204 503.584 542.546
890 0 59.1762 14.1104 835 64.1916 503.819 542.074
891 0 60.0632 14.235 855 64.4035 503.629 540.298
892 0 62.1557 13.7719 856 65.3598 503.836 538.848
893 0 63.092 14.2649 900 98.71 504.103 540.264
894 0 66.1588 14.1024 933 63.6356 504.002 537.927
895 0 69.2197 14.7068 1018 63.1248 504.606 536.24
896 0 71.2447 14.1765 1010 64.1465 505.367 535.576
897 0 73.1406 14.4106 1054 64.0047 505.493 534.196
898 0 74.0934 14.8191 1098 63.8224 505.832 533.541
899 0 77.1687 14.7469 1138 63.5712 506.112 532.423
900 0 79.3603 14.3397 1138 64.2557 505.431 531.031
901 1 42.1607 12.0017 506 68.2055 505.381 548.225
902 0 44.049 12.1002 533 67.8011 505.681 547.917
903 0 45.0824 12.6435 570 67.414 505.456 546.3
904 0 47.2906 13.047 617 66.9238 505.426 545.446
905 0 46.1215 13.4427 620 67.6194 505.368 545.185
906 0 50.1352 14.042 704 66.733 505.717 543.714
907 0 52.2042 14.7498 770 65.4584 505.86 542.092
908 0 53.1902 13.7055 729 67.3621 505.89 542.034
909 0 56.2363 14.9548 841 64.9322 506.165 540.711
910 0 56.3004 14.0496 791 67.1024 506.25 541.377
911 0 59.2916 13.5432 803 67.7808 506.483 540.667
912 0 61.1067 15.072 921 66.3344 506.592 538.771
913 0 63.1506 15.2968 966 65.8965 506.832 537.81
914 0 62.0826 14.078 874 69.2288 506.566 537.134
915 0 66.2551 14.7158 975 67.7897 506.688 535.536
916 0 68.1718 15.4316 1052 66.6198 506.528 535.129
917 0 71.1021 14.5987 1038 68.1859 507.029 533.092
918 0 73.2988 14.3931 1055 68.9422 507.041 531.104
919 0 77.1562 14.8919 1149 67.9626 507.052 531.005
920 0 79.2636 14.6221 1159 68.503 507.203 528.032
921 0 82.2336 14.9817 1232 67.4083 507.2 528.494
922 1 41.0697 12.7832 525 69.4514 507.47 547.495
923 0 43.0366 12.7566 549 69.8525 507.991 546.386
924 0 46.0933 12.8001 590 70.2932 507.803 544.89
925 0 45.0861 13.8402 624 68.9071 507.519 545.213
926 0 47.126 14.2384 671 68.5917 507.818 542.855
927 0 49.0471 14.0681 690 68.2333 507.997 544.274
928 0 51.2036 14.6865 752 67.262 508.068 543.827
929 0 53.1206 14.4577 768 67.1758 508.174 542.686
930 0 54.1607 14.457 783 67.4879 508.047 541.697
931 0 55.0646 14.1289 778 69.3779 507.891 540.179
932 0 57.0323 13.6239 777 70.0837 507.9 540.12
933 0 59.2868 14.472 858 68.9709 507.853 539.488
934 0 61.163 13.979 855 69.0807 507.566 539.194
935 0 60.1598 14.6277 880 69.6182 507.15 536.192
936 0 64.1531 14.1692 909 69.5567 507.524 538.591
937 0 66.1047 15.3242 1013 68.2557 507.267 535.361
938 0 67.1818 15.138 1017 68.8574 507.287 535.782
939 0 69.142 14.7522 1020 69.2843 507.156 535.352
940 0 73.095 15.2268 1113 68.531 507.531 533.757
941 0 75.106 14.7125 1105 69.5629 507.417 532.472
942 0 78.0766 14.9469 1167 69.3171 507.458 530.475
943 0 80.2276 14.9824 1202 69.787 506.656 529.369
944 1 44.2045 12.8041 566 71.0035 506.314 546.993
945 0 45.0269 13.2587 597 71.0704 506.126 546.323
946 0 46.0552 13.5055 622 70.4823 505.723 547.312
947 0 47.0869 13.4857 635 71.348 505.581 545.91
948 0 49.0328 14.4597 709 69.8124 505.427 545.845
949 0 48.0878 14.8686 715 71.1762 505.401 544.379
950 0 51.0675 14.6473 748 70.3503 504.972 544.551
951 0 51.0592 13.8271 706 71.7365 505.15 544.241
952 0 54.1328 13.8918 752 72.1157 505.118 542.641
953 0 57.0447 14.7779 843 70.688 505.811 541.891
954 0 57.0444 14.7429 841 71.5624 505.773 541.398
955 0 59.1376 14.2718 844 72.1777 505.463 540.194
956 0 60.0404 14.4236 866 72.6212 505.521 539.353
957 0 63.2461 14.9416 945 71.8243 505.542 538.564
958 0 66.1108 14.99 991 71.1342 505.625 537.648
959 0 68.1063 15.7548 1073 70.4958 505.307 538.64
960 0 70.087 15.1383 1061 71.7107 505.396 536.287
961 0 73.113 14.9495 1093 72.0091 504.996 536.035
962 0 77.0303 15.4355 1189 71.0892 504.73 533.539
963 0 78.1821 15.9627 1248 71.1082 505.419 531.581
964 1 42.0397 11.8935 500 75.706 505.09 548.864
965 0 44.1176 13.26 585 74.2137 504.851 547.569
966 0 44.066 14.1833 625 73.232 504.427 548.338
967 0 45.0128 13.3296 600 75.1783 504.8 548.653
968 0 50.1384 14.0012 702 72.8262 504.645 547.321
969 0 49.0414 14.5795 715 72.4392 504.646 547.28
970 0 51.1453 14.5468 744 73.1519 504.706 546.778
971 0 51.0604 14.3751 734 73.8556 504.808 545.763
972 0 55.0883 15.0849 831 72.1769 504.449 544.122
973 0 56.0259 15.3322 859 72.5239 504.129 542.392
974 0 58.0656 14.6214 849 73.874 504.734 542.314
975 0 58.1902 14.1605 824 75.5352 503.83 541.265
976 0 60.0664 14.1343 849 75.9199 503.968 541.706
977 0 62.0342 15.2658 947 73.924 504.048 539.642
978 0 63.1452 14.7596 932 74.897 503.618 539.04
979 0 66.1464 14.9819 991 74.7992 503.639 539.332
980 0 68.1132 15.2247 1037 74.7136 503.244 538.58
981 0 70.0984 15.5068 1087 74.8234 503.639 536.537
982 0 71.1591 15.2335 1084 75.4234 503.838 536.036
983 0 73.0887 15.2417 1114 75.9381 503.74 534.603
984 0 78.0939 15.9423 1245 74.1398 503.586 534.163
985 0 79.1098 15.3584 1215 76.1251 503.703 532.081
986 0 81.2553 15.4944 1259 76.1732 503.284 531.448
987 0 84.154 15.2221 1281 76.2108 503.22 530.539
988 0 87.3849 15.3116 1338 75.6824 503.368 529.648
989 1 47.1431 13.6181 642 78.4969 502.836 548.693
990 0 48.1045 13.928 670 78.0582 502.985 548.927
991 0 48.0629 14.0025 673 79 503.276 547.444
992 0 51.0618 14.8643 759 77.4295 502.835 546.195
993 0 52.1498 15.2062 793 76.633 503.395 545.996
994 0 53.0468 15.0245 797 77.4241 503.098 545.215
995 0 57.0935 15.1156 863 76.1437 502.969 544.591
996 0 57.1742 14.9368 854 76.6487 502.852 544.164
997 0 57.1671 14.9212 853 78.3423 502.957 541.529
998 0 61.1452 15.7494 963 76.1983 502.533 541.028
999 0 62.0534 15.5834 967 76.7156 502.573 541.35
1000 0 65.2194 15.4709 1009 76.8038 502.892 540.897
1001 0 66.0871 15.4493 1021 77.3222 503.246 538.356
1002 0 67.1329 14.9852 1006 79.008 502.92 538.435
1003 0 71.3446 15.306 1092 76.6337 502.6 537.117
1004 0 72.211 14.9839 1082 77.9954 502.704 537.597
1005 0 76.1817 16.29 1241 75.1475 503.198 535.048
1006 0 77.0627 15.4679 1192 77.7651 503.612 534.13
1007 0 81.2819 15.5262 1262 76.8082 503.433 532.697
1008 0 83.2491 15.4116 1283 77.5035 503.934 531.331
1009 0 86.0997 15.8189 1362 76.5852 503.573 529.673
1010 0 88.2616 15.5674 1374 77.3377 503.421 529.007
1011 0 91.2182 15.8631 1447 78.2405 503.513 528.012
1012 0 96.2189 16.0675 1546 77.4191 503.094 525.696
1013 1 48.1015 12.8063 616 80.9123 503.716 548.39
1014 0 47.2246 12.7264 601 82.9085 503.531 546.549
1015 0 52.098 12.3613 644 80.4581 503.464 546.281
1016 0 53.077 13.471 715 79.3091 503.853 545
1017 0 55.2442 13.7028 757 78.3065 503.474 544.235
1018 0 59.1123 13.3813 791 77.775 503.979 543.887
1019 0 62.1435 13.9194 865 76.5445 503.529 541.149
1020 0 65.104 14.3002 931 75.9839 503.53 540.161
1021 0 68.1647 13.8341 943 75.8855 503.661 541.221
1022 0 68.1956 14.1505 965 76.1813 503.663 537.997
1023 0 72.079 14.1789 1022 76.3151 503.983 536.737
1024 0 72.079 14.2344 1026 176.144 503.977 536.832
1025 0 75.1809 13.8333 1040 77.3115 504.381 534.307
1026 0 77.1575 13.9844 1079 77.7989 504.95 532.655
1027 0 78.2189 13.5901 1063 79.1308 504.594 529.727
1028 0 82.1244 13.5526 1113 78.7727 504.528 530.261
1029 0 86.1296 14.3969 1240 77.4347 504.744 528.934
1030 0 89.1486 14.4366 1287 77.3862 504.925 526.806
1031 0 93.2022 13.755 1282 78.1271 505 525.711
1032 0 96.2227 13.6974 1318 77.9575 504.96 524.146
1033 0 99.14 13.8289 1371 77.0102 504.818 523.37
1034 1 58.1282 10.5801 615 76.1707 505.291 544.304
1035 0 60.0641 11.5377 693 75.9293 505.323 542.115
1036 0 63.0846 12.6497 798 73.8935 506.209 540.276
1037 0 63.0269 12.8199 808 75.7079 506.334 538.019
1038 0 66.0867 12.8165 847 75.1688 506.603 537.468
1039 0 69.1604 12.6662 876 75.1495 506.612 536.554
1040 0 72.1715 12.3456 891 74.9697 506.741 534.881
1041 0 74.0681 12.664 938 74.3049 507.198 535.221
1042 0 79.1552 12.5197 991 74.9374 507.208 530.774
1043 0 81.1266 13.2632 1076 73.2807 507.276 529.878
1044 0 85.1214 12.6878 1080 74.4324 507.453 528.167
1045 0 88.1767 13.0533 1151 74.0599 507.115 526.368
1046 1 46.0749 9.7667 450 72.9467 507.538 547.28
1047 0 49.1254 10.1577 499 70.9058 507.403 546.944
1048 0 52.1281 11.3566 592 68.9882 507.253 546.351
1049 0 55.0379 11.81 650 70.4938 506.665 543.951
1050 0 57.1223 11.8343 676 70.7337 506.913 545.432
1051 0 60.1578 12.035 724 69.9503 506.972 544.54
1052 0 62.0963 12.0941 751 70.8589 507.625 542.332
1053 0 64.142 12.4879 801 69.9875 507.167 542.01
1054 0 63.2583 12.3462 781 71.6504 507.535 540.462
1055 0 65.2511 12.0917 789 72.3954 507.882 540.269
1056 0 69.3528 12.2273 848 71.9481 507.768 538.629
1057 0 69.2679 11.6648 808 72.8317 507.785 537.847
1058 0 74.308 11.7215 871 71.5029 507.39 537.445
1059 0 75.2939 12.2055 919 71.506 507.476 535.247
1060 0 76.2788 12.2315 933 71.7513 507.568 534.119
1061 0 80.3226 11.9518 960 71.2958 507.74 531.451
1062 0 82.3193 12.3786 1019 70.5731 508.122 530.798
1063 0 87.3353 12.1715 1063 70.8344 508.294 528.626
1064 0 89.295 12.2179 1091 71.0257 508.078 528.727
1065 0 93.3319 12.9431 1208 70.0886 507.93 528.134
1066 0 95.3315 12.7135 1212 70.599 507.46 528.006
1067 0 99.3513 12.8131 1273 70.769 507.458 523.923
1068 0 103.277 13.6816 1413 69.3185 506.916 521.947
1069 0 106.225 12.7559 1355 71.0413 506.821 522.745
1070 1 58.3317 9.54884 557 72.149 507.095 546.488
1071 0 61.1564 10.5958 648 71.5849 506.702 542.872
1072 0 63.3794 10.9973 697 70.8838 506.801 543.003
1073 0 66.5325 10.6113 706 68.8314 507.479 540.999
1074 0 67.4188 11.5101 776 68.8196 506.728 539.358
1075 0 67.5374 11.2234 758 68.3813 506.311 542.102
1076 0 69.3525 11.7371 814 68.7027 506.541 540.645
1077 0 71.1972 11.9527 851 68.5441 505.978 538.866
1078 0 75.206 11.6879 879 67.9693 506.258 537.447
1079 0 76.2894 11.4826 876 68.7352 505.713 537.138
1080 0 81.4783 12.6659 1032 66.3924 506.39 534.194
1081 0 82.3927 12.5375 1033 67.4589 505.629 533.726
1082 0 83.326 12.4811 1040 68.0385 505.346 531.954
1083 0 88.2699 12.9263 1141 66.4601 505.372 533
1084 0 91.2654 13.4991 1232 66.0576 505.579 528.152
1085 0 93.226 13.1723 1228 66.7484 505.441 527.47
1086 0 97.2701 12.162 1183 68.033 505.432 527.888
1087 0 99.3377 13.7611 1367 65.9707 506.674 526.642
1088 0 101.303 13.7508 1393 65.7064 505.67 523.869
1089 0 105.333 13.0349 1373 66.8594 505.622 522.353
1090 1 60.1962 10.2332 616 67.2971 505.946 547.094
1091 0 61.1747 10.5599 646 66.7817 505.183 546.272
1092 0 63.211 11.248 711 67.0183 505.876 543.018
1093 0 65.2499 11.4789 749 66.6328 506.275 543.905
1094 0 67.2411 12.5965 847 64.9197 506.104 542.21
1095 0 66.1187 12.78 845 65.503 506.307 540.357
1096 0 69.4397 12.9609 900 64.6478 506.734 540.211
1097 0 70.3602 12.9477 911 64.7036 506.531 538.667
1098 0 75.3089 14.0754 1060 61.3274 506.061 537.535
1099 0 76.2726 12.5995 961 64.3757 506.093 536.348
1100 0 78.3604 14.2674 1118 61.3533 505.974 537.219
1101 0 77.3175 12.3646 956 65.5105 506.312 535.718
1102 0 79.2273 13.3414 1057 63.65 505.852 534.662
1103 0 82.6057 13.5342 1118 62.7987 505.263 535.089
1104 0 85.4131 13.0542 1115 63.3695 504.962 534.135
1105 0 87.2232 13.0011 1134 63.7178 504.826 531.449
1106 0 90.3973 13.8721 1254 61.764 504.344 529.919
1107 0 94.3503 13.789 1301 61.5565 504.814 529.055
1108 1 52.1863 10.3092 538 62.1301 504.1 550.565
1109 0 55.1271 10.5574 582 61.9003 504.158 549.299
1110 0 54.3449 10.7094 582 62.2577 504.289 548.471
1111 0 56.3653 11.0884 625 61.1632 504.55 548.306
1112 0 57.3446 11.2652 646 59.6533 504.517 548.466
1113 0 58.2951 12.6769 739 59.5859 504.378 546.394
1114 0 60.295 11.1286 671 60.5812 503.817 545.41
1115 0 62.3902 11.8769 741 59.1984 503.412 544.762
1116 0 66.2942 12.0071 796 59.7362 503.131 543.197
1117 0 67.3983 13.2051 890 58.2652 502.822 542.708
1118 0 68.3686 12.2717 839 59.1931 502.321 544.013
1119 0 69.3458 13.065 906 58.8422 502.719 540.639
1120 0 69.44 12.3992 861 60.2822 502.986 539.377
1121 0 72.367 13.0999 948 59.4314 503.258 538.75
1122 0 75.555 12.9972 982 59.5733 503.253 536.019
1123 0 78.4382 12.6341 991 60.1453 503.085 533.772
1124 0 79.8005 13.446 1073 58.6095 502.666 535.989
1125 0 80.5815 13.1171 1057 59.4503 502.666 531.851
1126 0 82.992 12.3506 1025 59.8039 503.074 532.11
1127 0 87.736 13.0505 1145 59.4044 502.687 529.988
1128 1 47.531 10.5194 500 60.182 502.36 550.156
1129 0 48.4147 11.0917 537 59.9553 503.032 550.607
1130 0 50.21 11.2328 564 59.5851 503.167 551.271
1131 0 51.2353 12.1401 622 58.8248 503.376 550.251
1132 0 52.182 12.533 654 59.7645 503.795 550.388
1133 0 55.2368 11.9486 660 60.9455 503.924 548.592
1134 0 56.2029 11.672 656 61.5412 503.57 548.04
1135 0 58.3075 11.8681 692 61.1618 504.156 547.568
1136 0 60.2675 12.262 739 61.0135 503.401 546.122
1137 0 60.4259 12.1968 737 61.8128 503.495 544.231
1138 0 65.589 13.1577 863 60.0232 503.293 542.79
1139 0 65.5418 12.5264 821 61.3861 504.012 542.505
1140 0 68.4936 12.9209 885 61.2667 503.963 542.847
1141 0 69.4292 13.0349 905 61.4199 504.415 541.192
1142 0 71.4256 12.6565 904 63.8695 504.019 540.485
1143 0 74.5153 13.2322 986 63.1653 504.554 539.251
1144 0 75.3983 13.3425 1006 64.0577 504.555 537.119
1145 0 77.33 13.1514 1017 64.4848 504.771 536.741
1146 0 80.449 12.6788 1020 65.3098 504.292 535.616
1147 0 82.3167 12.9743 1068 65.133 504.88 534.346
1148 0 86.4248 13.1559 1137 65.0449 505.015 532.736
1149 0 87.421 12.9031 1128 65.7172 505.574 530.373
1150 0 92.5862 12.9177 1196 64.9189 505.422 531.489
1151 1 51.2536 10.2042 523 65.7036 505.778 551.356
1152 0 52.2932 10.7089 560 66.6446 505.584 548.377
1153 0 54.1804 11.4433 620 65.2016 505.635 547.023
1154 0 58.4748 12.142 710 64.6056 505.828 545.992
1155 0 60.6322 12.5676 762 64.2205 506.144 544.357
1156 0 61.2384 12.9331 792 64.9583 506.294 543.148
1157 0 62.218 12.2473 762 65.9423 507.119 542.777
1158 0 64.2674 13.1015 842 64.5297 507.029 542.172
1159 0 67.3828 12.8816 868 64.7408 507.545 541.067
1160 0 68.5146 12.5959 863 66.0151 507.987 538.628
1161 0 70.4491 12.1648 857 66.2999 508.945 538.286
1162 0 73.3073 12.8637 943 65.5186 508.552 537.151
1163 0 74.3849 12.5563 934 66.2645 508.63 534.439
1164 0 77.4598 12.8195 993 65.7724 508.756 533.542
1165 0 79.3019 13.0388 1034 65.5861 508.786 532.772
1166 0 83.3869 13.6113 1135 64.3445 508.67 531.109
1167 0 85.3443 12.8773 1099 65.8626 508.646 530.754
1168 0 88.3045 12.5475 1108 66.472 509.028 529.321
1169 0 89.1735 12.9747 1157 66.2852 508.52 527.543
1170 0 95.4506 12.9282 1234 66.0705 508.963 525.455
1171 0 97.5322 13.9236 1358 64.7224 509.214 527.229
1172 0 101.373 13.8203 1401 64.4975 509.273 524.061
1173 0 103.333 14.1581 1463 64.8209 510.062 522.492
1174 0 107.416 13.7782 1480 65.5845 510.45 520.059
1175 0 111.34 13.8944 1547 65.2728 510.013 519.107
1176 0 115.369 14.2153 1640 64.8506 510.055 517.64
1177 0 117.536 13.6128 1600 66.2675 509.624 513.471
1178 1 65.4234 10.2104 668 67.5988 509.334 541.496
1179 0 67.3462 11.582 780 66.5897 509.667 540.141
1180 0 70.5894 11.9848 846 67.3783 509.305 537.389
1181 0 71.3859 12.1733 869 67.9287 509.87 534.612
1182 0 75.5695 13.4578 1017 65.4749 508.922 534.625
1183 0 75.3843 12.6949 957 67.5381 509.019 535.054
1184 0 78.1705 13.5345 1058 66.0085 509.381 534.333
1185 0 79.4274 13.1567 1045 66.8813 509.931 534.158
1186 0 81.3127 13.4911 1097 67.3045 509.057 532.643
1187 0 84.2072 13.823 1164 66.6151 509.058 530.127
1188 0 85.4386 12.9918 1110 67.9613 509.243 528.59
1189 0 89.3438 12.7709 1141 68.0947 509.286 528.43
1190 0 92.1189 13.3306 1228 67.5757 508.905 527.038
1191 0 95.2719 12.795 1219 68.4454 508.653 524.843
1192 0 96.1857 13.4427 1293 68.273 508.686 521.743
1193 0 99.1804 13.0066 1290 68.9977 508.474 519.908
1194 0 102.249 13.3888 1369 68.2988 508.397 520.174
1195 0 106.326 13.5244 1438 68.0876 508.307 518.756
1196 0 107.32 13.3899 1437 68.8678 507.369 517.299
1197 0 112.508 13.1013 1474 69.2856 507.686 515.227
1198 0 116.403 14.0976 1641 67.3583 507.335 514.155
1199 1 71.0567 11.5823 823 67.7874 507.282 538.639
1200 0 73.122 12.2125 893 66.8018 507.264 535.068
1201 0 73.1268 11.9655 875 68 507.176 533.353
1202 0 75.2097 12.6181 949 67.8651 506.72 533.725
1203 0 79.1396 13.0023 1029 66.9417 506.494 532.311
1204 0 81.2621 13.0073 1057 67.3236 505.991 533.451
1205 0 84.1674 13.0217 1096 67.8349 506.036 531.309
1206 0 86.1754 12.8343 1106 67.8183 506.257 529.743
1207 0 90.3025 14.1857 1281 65.8501 506.144 528.984
1208 0 91.1968 13.4106 1223 67.4146 506.148 527.195
1209 0 96.4989 13.0675 1261 67.1895 506.349 524.42
1210 0 99.155 13.3125 1320 66.1091 506.397 524.8
1211 0 100.195 12.7252 1275 67.2855 506.68 521.83
1212 0 105.34 14.0592 1481 65.2782 506.643 520.151
1213 0 109.399 13.7753 1507 65.4705 506.263 519.895
1214 1 61.3709 10.5099 645 65.4853 505.228 546.113
1215 0 61.3107 10.7485 659 66.0121 505.329 543.486
1216 0 62.2919 10.5311 656 66.1387 505.168 542.633
1217 0 64.3881 11.2754 726 65.6253 504.698 542.821
1218 0 67.4248 11.9986 809 64.8232 504.978 539.855
1219 0 69.1709 11.927 825 63.2218 504.656 537.967
1220 0 72.2779 12.0922 874 63.413 504.584 537.601
1221 0 73.3264 11.892 872 63.695 504.686 537.294
1222 0 76.2241 12.7387 971 61.8157 504.329 536.854
1223 0 76.2108 12.7016 968 62.3037 504.354 535.17
1224 0 80.3104 12.8377 1031 61.936 504.023 533.433
1225 0 82.2487 12.8513 1057 62.2573 503.974 531.282
1226 0 86.3699 12.5044 1080 62.1472 504.125 531.46
1227 0 87.2649 12.8459 1121 61.926 503.888 528.175
1228 0 88.1805 12.259 1081 63.0574 503.673 527.029
1229 0 94.4518 13.4566 1271 60.8371 503.33 524.922
1230 0 96.4093 13.1937 1272 61.2869 504.023 523.019
1231 0 98.3983 12.9474 1274 61.9144 504.253 522.608
1232 0 102.342 12.9761 1328 61.7033 503.808 519.931
1233 0 106.205 13.8411 1470 60.4068 504.092 518.032
1234 0 109.393 13.0904 1432 61.1892 503.959 518.026
1235 0 111.328 12.9437 1441 62.4899 504.222 515.926
1236 0 115.3 13.6166 1570 61.6096 504.283 515.015
1237 0 117.24 13.2036 1548 62.9981 504.38 511.643
1238 0 121.423 14.3959 1748 60.655 503.976 511.545
1239 0 124.518 14.4317 1797 61.6555 503.789 508.311
1240 0 128.517 13.1189 1686 62.7023 503.491 506.749
1241 1 75.7244 11.3174 857 60.1599 503.651 535.56
1242 0 76.2008 11.6403 887 61.2244 503.975 532.127
1243 0 79.27 12.0853 958 60.7933 504.014 531.086
1244 0 81.2397 12.5062 1016 61.2953 503.768 531.791
1245 0 82.2002 12.4574 1024 61.793 503.612 530.656
1246 0 86.2086 12.5278 1080 61.9509 503.435 527.849
1247 0 88.1624 12.511 1103 62.0571 503.556 526.094
1248 0 92.2779 13.3726 1234 62.0972 503.143 526.19
1249 0 94.2276 13.2233 1246 63.0907 503.439 523.859
1250 0 96.2127 13.0232 1253 63.9713 503.093 523.674
1251 0 100.303 13.9478 1399 62.3174 503.78 522.156
1252 0 103.181 13.5781 1401 63.6067 503.68 519.196
1253 0 103.344 13.0922 1353 65.1826 503.155 518.284
1254 0 108.226 13.6843 1481 64.5463 503.24 516.722
1255 0 110.292 13.5187 1491 65.4782 503.673 513.753
1256 0 114.215 12.8092 1463 66.4908 504.34 513.086
1257 0 118.26 13.6733 1617 64.9468 504.523 513.132
1258 0 122.199 14.0427 1716 64.7121 505.326 510.305
1259 0 126.133 13.676 1725 65.4313 505.48 508.533
1260 0 126.286 13.5723 1714 66.1488 506.267 505.488
1261 1 72.1391 10.4798 756 65.4021 507.189 534.258
1262 0 76.1165 10.9569 834 63.4149 506.894 534.089
1263 0 74.1712 10.8533 805 64.3292 506.571 531.668
1264 0 78.1349 11.365 888 63.8727 506.409 529.551
1265 0 80.0754 12.0511 965 62.6093 506.442 529.031
1266 0 85.1884 11.5743 986 62.8742 506.635 529.305
1267 0 88.3779 12.8313 1134 61.5494 506.487 527.293
1268 0 91.4463 12.0398 1101 62.0391 506.928 525.28
1269 0 94.5255 12.2401 1157 61.4909 507.453 525.866
1270 0 96.2261 11.7951 1135 62.1771 507.815 522.71
1271 0 101.315 12.3575 1252 61.3978 507.879 523.187
1272 0 103.369 12.3151 1273 61.8759 508.166 519.283
1273 0 105.283 12.6041 1327 61.4258 508.494 518.696
1274 0 109.255 12.4205 1357 61.0435 508.88 517.651
1275 0 113.395 13.2016 1497 60.2759 509.148 515.073
1276 0 114.394 11.6352 1331 62.1337 509.192 511.44
1277 0 117.212 13.2069 1548 60.4703 509.12 512.618
1278 0 121.278 12.764 1548 60.5284 509.548 509.251
1279 0 124.291 13.4523 1672 59.8828 510.065 506.972
1280 0 128.332 12.6546 1624 61.3645 510.174 504.233
1281 0 130.221 12.7782 1664 61.1484 510.41 503.552
1282 0 136.275 13.3407 1818 60.0809 510.417 502.507
1283 0 140.199 13.5379 1898 59.677 510.593 500.664
1284 0 144.169 12.7905 1844 61.0922 510.842 499.789
1285 1 88.1092 10.521 927 59.3506 509.762 529.696
1286 0 88.0881 10.7506 947 59.9894 510.317 527.07
1287 0 92.1956 11.02 1016 59.2687 510.344 527.898
1288 0 94.2234 11.9715 1128 58.7456 510.02 523.965
1289 0 94.0756 12.1604 1144 58.2351 509.128 525.171
1290 0 97.1038 12.1931 1184 58.9941 509.492 521.057
1291 0 100.224 12.6017 1263 58.0063 509.506 521.775
1292 0 103.169 13.5117 1394 57.2733 510.39 520.202
1293 0 105.119 12.9853 1365 57.7524 510.281 518.725
1294 0 108.453 12.5307 1359 58.3922 510.751 516.13
1295 0 109.186 12.2268 1335 59.2569 510.121 514.73
1296 0 113.286 12.367 1401 59.2527 510.037 514.043
1297 0 115.218 13.0188 1500 58.5913 509.985 511.637
1298 0 119.316 12.0269 1435 58.7547 509.646 512.283
1299 1 74.0585 10.4512 774 57.1059 509.42 535.472
1300 0 74.2132 10.3486 768 57.8047 509.323 533.479
1301 0 76.0945 11.4332 870 56.7621 509.145 531.222
1302 0 81.2611 11.8384 962 56.3919 509.048 531.003
1303 0 83.3181 11.9662 997 56.6269 509.93 530.487
1304 0 86.2176 12.1785 1050 56.0095 509.704 528.417
1305 0 88.0935 12.9294 1139 55.2054 510.366 525.514
1306 0 90.2447 12.8872 1163 55.7163 510.301 525.695
1307 0 94.3206 11.885 1121 57.083 509.675 524.955
1308 0 96.3437 12.6941 1223 56.7621 510.337 522.65
1309 0 100.484 13.2558 1332 56.3333 509.483 521.788
1310 0 101.266 12.9362 1310 57.2504 509.362 520.546
1311 0 106.331 13.5708 1443 56.6306 509.485 520.019
1312 0 107.374 12.9827 1394 58.2037 509.028 515.939
1313 0 110.381 12.8102 1414 58.4342 508.941 516.687
1314 0 114.289 12.8533 1469 59.0313 508.213 515.306
1315 0 118.513 13.4584 1595 58.0966 507.904 513.863
1316 0 120.233 13.5071 1624 58.2377 507.28 513.917
1317 0 122.382 13.3598 1635 59.8269 507.196 510.113
1318 0 127.445 13.4724 1717 59.9837 507.164 508.416
1319 1 72.0812 11.1263 802 59.8529 507.052 538.97
1320 0 75.4439 11.5848 874 59.6899 506.268 536.447
1321 0 76.3226 12.041 919 60.0588 505.642 535.481
1322 0 79.305 12.8743 1021 59.1763 506.413 533.641
1323 0 80.2192 13.2637 1064 59.6043 506.805 530.477
1324 0 82.2626 12.9099 1062 59.6638 506.675 530.311
1325 0 85.3532 13.286 1134 58.9524 506.948 529.82
1326 0 87.2974 13.1963 1152 59.7266 506.361 528.678
1327 0 89.4277 13.6758 1223 59.8226 506.016 526.571
1328 0 89.4137 13.4767 1205 60.6838 506.074 526.958
1329 0 94.3665 13.6065 1284 60.553 506.03 524.96
1330 0 97.2603 13.3765 1301 61.2929 506.291 526.007
1331 0 101.315 14.4993 1469 59.678 505.925 522.908
1332 0 101.38 13.6318 1382 61.5441 506.072 520.924
1333 0 104.371 14.3622 1499 60.9039 505.801 520.27
1334 0 107.29 13.841 1485 63.6162 506.058 520.01
1335 0 107.173 13.7068 1469 64.6923 505.815 519.186
1336 0 110.112 13.6951 1508 64.057 505.854 516.795
1337 0 115.358 13.6185 1571 64.0547 506.21 514.385
1338 1 68.1805 10.3255 704 64.7017 506.024 537.923
1339 0 70.2933 11.9072 837 62.1302 505.914 539.018
1340 0 73.1839 12.4208 909 61.1683 506.31 537.196
1341 0 74.2055 12.4654 925 61.253 506.637 535.381
1342 0 76.2585 11.9593 912 61.7336 505.999 533.729
1343 0 79.1445 12.4329 984 60.6839 505.795 532.962
1344 0 80.1564 12.6877 1017 60.7699 505.476 531.258
1345 0 85.1363 13.5078 1150 59.2078 505.788 530.918
1346 0 84.0828 13.118 1103 60.5766 505.996 528.96
1347 0 90.1861 13.1617 1187 59.7464 505.071 528.699
1348 0 91.1948 12.6433 1153 60.5481 504.744 525.771
1349 0 93.4503 11.7603 1099 61.5378 503.913 525.886
1350 0 96.2369 12.1991 1174 61.0733 503.59 522.766
1351 1 53.08 10.4182 553 59.991 502.452 545.119
1352 0 55.1137 10.3967 573 59.7522 502.949 545.241
1353 0 57.0672 11.1623 637 59.0958 502.973 544.604
1354 0 59.1451 10.5841 626 59.7204 502.257 544.508
1355 0 60.0475 10.8414 651 60.0184 502.745 542.504
1356 0 64.1449 10.944 702 59.2493 503.538 541.736
1357 0 62.1458 11.3604 706 60.0198 502.936 539.847
1358 0 65.2976 12.221 798 58.3509 502.957 540.653
1359 0 67.2114 11.9623 804 58.1803 503.221 538.563
1360 0 68.2306 11.9301 814 58.828 502.896 537.55
1361 0 70.2003 12.1794 855 59.014 502.953 536.379
1362 0 72.3191 11.4216 826 60.0182 502.594 536.373
1363 0 76.3418 12.6012 962 58.8119 502.885 534.074
1364 0 76.3355 12.7988 977 59.4023 502.62 534.104
1365 0 78.4799 12.0413 945 60.9228 502.785 531.531
1366 0 82.5216 12.8815 1063 59.9737 502.358 529.607
1367 0 83.3432 12.8505 1071 60.4034 502.478 528.275
1368 0 87.5219 12.6825 1110 60.4856 502.72 527.421
1369 0 90.6516 14.0097 1270 59.3551 502.694 527.476
1370 0 92.7025 12.9662 1202 61.2637 502.572 524.305
1371 0 94.5462 12.5864 1190 61.7521 502.645 524.656
1372 0 97.4769 12.762 1244 62.7886 502.619 522.994
1373 0 101.487 13.4303 1363 62.0726 503.021 520.951
1374 0 105.445 12.8124 1351 63.0762 503.289 519.859
1375 1 62.4623 11.0467 690 63.4101 503.162 541.741
1376 0 63.3292 11.0376 699 63.2132 503.415 542.546
1377 0 64.4908 12.0482 777 62.9176 502.985 541.741
1378 0 65.4901 12.2767 804 64.2898 503.204 540.813
1379 0 69.2359 12.6524 876 63.9966 502.921 540.845
1380 0 69.1527 13.2027 913 64.0854 502.66 541.696
1381 0 69.2312 13.0144 901 64.7636 502.486 542.358
1382 0 72.1884 13.3817 966 62.707 502.556 539.541
1383 0 75.2854 14.0798 1060 60.2736 503.091 538.837
1384 0 73.1763 13.324 975 65.9497 502.886 536.278
1385 0 80.3063 13.7972 1108 63.8574 503.337 536.593
1386 0 78.2456 13.2531 1037 66.4812 503.422 535.943
1387 0 83.3042 13.7328 1144 65.0428 503.644 532.378
1388 0 85.2743 13.0872 1116 65.9659 503.806 532.311
1389 0 87.4438 14.3178 1252 65.0447 504.315 528.323
1390 0 89.3273 13.1763 1177 67.3934 504.28 529.201
1391 0 94.2276 13.8176 1302 66.6214 504.347 526.741
1392 0 96.3183 14.0264 1351 66.6099 504.603 525.719
1393 0 99.2868 14.4027 1430 66.465 504.516 523.793
1394 0 104.412 14.5481 1519 66.1053 504.28 520.9
1395 0 106.246 14.8241 1575 66.2832 504.629 519.457
1396 0 109.313 14.3076 1564 67.3248 505.008 518.63
1397 0 112.259 14.2438 1599 67.1038 504.918 517.874
1398 0 117.219 14.5881 1710 66.1538 505.179 515.467
1399 0 121.251 14.7546 1789 66.2063 505.666 512.864
1400 1 67.2113 10.9803 738 69.2209 505.818 540.236
1401 0 70.1781 12.3115 864 68.0069 505.88 537.119
1402 0 72.0657 13.002 937 67.0587 506.011 536.977
1403 0 73.1535 13.8066 1010 65.9188 506.104 534.967
1404 0 77.201 13.5361 1045 65.7904 506.164 534.073
1405 0 77.1989 13.679 1056 66.0218 506.721 533.624
1406 0 80.216 14.8599 1192 64.443 506.911 532.002
1407 0 84.17 14.0668 1184 64.9476 507.04 530.103
1408 0 85.2887 13.9878 1193 65.3956 507.13 527.433
1409 0 89.2596 13.6568 1219 65.4463 507.007 526.754
1410 0 93.2085 14.312 1334 64.4895 507.588 525.279
1411 0 96.1387 14.4583 1390 63.9432 507.619 522.668
1412 0 97.3189 14.3857 1400 64.4793 507.728 521.587
1413 0 100.282 14.2798 1432 64.3499 508.156 521.51
1414 0 104.274 14.7496 1538 63.4083 508.017 518.471
1415 0 108.371 15.0779 1634 62.6842 508.469 518.065
1416 0 109.239 15.0312 1642 63.4951 508.37 517.208
1417 0 113.228 14.8992 1687 63.8239 508.517 513.746
1418 0 114.252 14.3543 1640 64.9232 509.187 513.666
1419 0 120.19 14.7766 1776 63.5045 509.088 513.334
1420 0 123.302 14.8173 1827 63.6442 508.824 509.321
1421 0 128.317 14.5265 1864 64.3852 509.157 506.075
1422 1 70.0726 10.8744 762 66.1339 509.192 536.861
1423 0 74.0684 12.1239 898 65.5846 509.092 533.849
1424 0 76.0666 12.1341 923 64.9816 508.566 532.213
1425 0 79.1318 12.991 1028 63.3346 508.148 531.986
1426 0 82.168 13.3264 1095 62.9151 508.211 529.44
1427 0 85.077 13.7052 1166 62.8199 508.052 528.75
1428 0 88.3569 12.8909 1139 63.3345 508.678 526.278
1429 0 91.2391 14.1825 1294 61.3686 508.085 526.957
1430 0 93.3479 13.7978 1288 61.903 508.454 523.315
1431 0 97.1359 13.8775 1348 61.8375 508.172 522.091
1432 0 101.141 14.376 1454 60.9766 508.316 521.895
1433 0 104.131 13.7231 1429 62.345 507.912 519.202
1434 0 108.099 13.8854 1501 62.437 508.171 518.682
1435 0 113.156 13.689 1549 63.7657 508.747 515.025
1436 0 116.251 13.8149 1606 63.335 507.909 512.747
1437 0 120.2 14.2846 1717 62.9645 507.979 510.135
1438 1 67.1763 10.8223 727 63.2022 507.922 539.935
1439 0 69.1177 12.674 876 61.9989 507.276 537.155
1440 0 72.1734 13.3429 963 60.135 507.484 535.262
1441 0 74.2772 13.4092 996 59.7841 507.523 534.929
1442 0 76.1171 13.4792 1026 59.384 507.484 535.132
1443 0 78.1071 12.8029 1000 60.329 507.51 533.654
1444 0 80.2558 12.5474 1007 60.7279 507.433 529.734
1445 0 84.0878 12.9983 1093 59.5901 507.21 529.585
1446 0 87.3319 13.6605 1193 58.8659 507.505 527.441
1447 0 89.3583 13.4291 1200 59.4917 507.154 526.548
1448 0 93.4405 13.0243 1217 59.9721 507.074 523.239
1449 0 94.3764 13.7111 1294 59.4838 506.83 521.051
1450 0 98.4637 13.8122 1360 58.9375 506.83 520.915
1451 0 101.252 13.8664 1404 59.5954 506.409 518.729
1452 0 104.306 13.3166 1389 59.9258 506.652 518.796
1453 0 105.263 13.5566 1427 60.5634 506.445 516.517
1454 0 110.384 13.3805 1477 60.1618 506.437 516.349
1455 0 113.382 13.9881 1586 59.7818 506.552 512.754
1456 1 67.3127 10.8895 733 60.3424 506.651 539.382
1457 0 67.0729 12.0615 809 60.1854 505.878 539.86
1458 0 70.2449 11.2179 788 62.2107 506.086 537.36
1459 0 72.1861 12.1769 879 60.7338 505.548 539.17
1460 0 77.2564 13.4746 1041 58.8002 505.7 537.531
1461 0 75.0898 12.505 939 61.1033 505.471 533.862
1462 0 79.1354 12.6871 1004 60.5438 505.002 533.255
1463 0 81.0631 13.5327 1097 59.701 504.926 531.913
1464 0 83.1601 12.7826 1063 60.8579 504.51 529.278
1465 0 87.131 12.8427 1119 60.1448 504.69 528.981
1466 0 91.3806 13.876 1268 57.7043 504.883 525.599
1467 0 94.3562 13.3749 1262 58.3439 505.359 524.312
1468 0 96.2202 12.5441 1207 59.0646 504.939 522.773
1469 0 100.116 12.106 1212 58.821 504.936 523.462
1470 1 57.0781 10.6696 609 57.5993 504.901 543.734
1471 0 60.2898 11.5774 698 55.6934 504.616 544.638
1472 0 59.0796 11.6284 687 58.802 503.523 542.46
1473 0 61.1613 10.8075 661 58.2466 503.611 541.811
1474 0 64.1455 12.4872 801 57.0999 503.989 541.633
1475 0 66.1442 12.6693 838 56.642 503.424 539.853
1476 0 66.18 13.6748 905 56.3768 503.445 539.182
1477 0 68.2994 12.3281 842 57.5321 503.274 537.948
1478 0 72.3201 12.7074 919 56.5201 502.94 537.214
1479 0 73.1001 12.1888 891 58.2604 502.846 536.293
1480 0 77.0875 12.4404 959 57.5109 503.241 534.987
1481 0 77.2297 12.8318 991 57.6599 502.543 535.423
1482 0 83.2757 13.4733 1122 56.6141 502.502 533.261
1483 0 85.363 13.3079 1136 57.3697 502.848 530.871
1484 0 86.2949 12.8976 1113 58.7637 502.798 528.945
1485 0 88.1544 13.1701 1161 59.0379 502.393 525.947
1486 0 94.3766 13.2872 1254 58.1276 502.662 525.747
1487 0 96.5628 13.6284 1316 58.6147 502.926 524.368
1488 0 98.6044 13.7114 1352 58.5599 502.87 521.848
1489 0 103.622 13.9932 1450 58.1497 502.612 520.102
1490 0 104.493 12.3836 1294 60.3184 502.375 518.579
1491 1 56.3716 10.3598 584 60.7106 502.949 542.637
1492 0 61.3692 10.999 675 60.1556 503.033 539.81
1493 0 64.2145 11.6796 750 58.524 503.852 538.98
1494 0 67.4247 12.0727 814 59.1536 504.483 537.719
1495 0 69.4097 11.6987 812 58.8596 504 537.262
1496 0 69.4721 11.8321 822 60.101 504.259 534.749
1497 0 72.3064 12.4609 901 59.061 504.062 536.827
1498 0 74.2465 13.2127 981 58.211 503.854 536.267
1499 0 78.4339 12.6858 995 59.999 503.912 533.472
1500 0 80.3528 12.806 1029 60.1497 504.104 533.548
1501 0 82.2819 12.6638 1042 60.9914 504.334 530.981
1502 0 86.4196 13.7122 1185 60.8532 504.429 527.873
1503 0 89.423 14.0344 1255 59.7705 504.598 528.609
1504 0 89.4184 13.4201 1200 61.8383 504.814 526.46
1505 0 95.3039 13.8085 1316 61.4476 504.754 524.682
1506 0 97.3679 13.9779 1361 61.8185 505.122 522.505
1507 0 99.4244 13.3368 1326 63.2164 505.404 519.281
1508 0 102.374 13.4409 1376 63.186 505.739 520.809
1509 0 106.401 13.8627 1475 62.4102 505.887 518.336
1510 1 62.2348 11.0228 686 62.1487 506.277 542.598
1511 0 63.1358 11.5624 730 62.8438 506.653 539.677
1512 0 64.1592 11.0039 706 64.3031 506.676 538.989
1513 0 68.3182 11.9734 818 62.8117 506.474 539.918
1514 0 71.0304 12.6566 899 62.3426 506.473 537.634
1515 0 71.2634 13.1624 938 63.436 505.631 538.671
1516 0 73.0744 12.9868 949 63.4405 505.071 538.442
1517 0 75.1056 13.3812 1005 62.3483 505.663 539.417
1518 0 77.0716 14 1079 62.0371 505.16 538.156
1519 0 78.1355 13.6558 1067 63.3599 505.509 535.842
1520 0 79.0629 13.0655 1033 64.668 506.075 534.53
1521 0 83.1313 13.2441 1101 64.3642 506.332 531.75
1522 0 85.1324 13.5788 1156 64.2907 507.141 532.249
1523 0 88.238 13.8149 1219 63.9459 507.144 531.874
1524 0 90.1023 13.5402 1220 65.1754 507.624 528.686
1525 0 92.1268 13.1232 1209 65.5062 507.515 527.3
1526 0 96.2099 13.2419 1274 65.7182 507.525 524.845
1527 0 100.196 13.6034 1363 65.2744 508.043 522.772
1528 0 103.174 14.0636 1451 64.796 508.382 521.021
1529 0 107.168 13.6981 1468 65.2398 508.415 519.608
1530 0 108.341 13.5591 1469 65.968 508.32 514.967
1531 0 114.177 13.7419 1569 65.2498 508.54 513.728
1532 0 116.286 13.9828 1626 66.2269 508.263 512.89
1533 0 121.171 14.8055 1794 64.6343 508.017 509.835
1534 0 123.275 13.7254 1692 67.0733 508.561 507.518
1535 0 127.319 14.1299 1799 67.139 508.417 505.696
1536 1 73.1393 10.6372 778 67.8021 508.911 535.965
1537 0 77.169 11.5331 890 66.2978 508.973 534.949
1538 0 78.1267 11.0206 861 66.8049 508.44 532.372
1539 0 80.2737 13.1301 1054 64.2789 508.361 530.431
1540 0 81.2095 12.2769 997 65.0973 507.929 532.73
1541 0 85.3474 12.6659 1081 65.0962 508.19 528.938
1542 0 88.1642 12.6242 1113 65.0144 508.232 525.6
1543 0 90.1716 12.6869 1144 64.757 508.178 527.169
1544 0 93.3068 12.8394 1198 64.1544 508.341 526.242
1545 0 96.227 12.4913 1202 65.1889 509.021 520.604
1546 0 101.411 13.8249 1402 62.7332 508.46 520.515
1547 0 103.432 13.2551 1371 63.671 508.612 518.492
1548 0 107.295 13.1227 1408 63.7997 508.178 516.816
1549 0 111.353 13.4527 1498 63.2664 508.451 515.997
1550 0 114.31 14.4345 1650 61.7473 508.134 514.896
1551 0 115.283 13.4712 1553 63.9601 508.109 511.569
1552 0 120.247 14.1458 1701 63.0259 508.215 511.419
1553 1 68.1773 10.2233 697 63.891 507.915 538.176
1554 0 71.088 10.5081 747 63.7068 507.288 538.829
1555 0 72.1534 10.9212 788 64.1003 507.43 536.367
1556 0 75.2138 12.0855 909 63.2739 506.462 534.339
1557 0 78.0692 12.6811 990 62.098 506.723 533.973
1558 0 78.1507 12.4887 976 63.5902 506.543 531.546
1559 0 83.2349 12.9873 1081 62.5032 506.573 530.977
1560 0 84.1265 12.7546 1073 63.3514 505.804 531.094
1561 0 84.1265 12.7665 1074 162.314 505.823 531.083
1562 0 90.1895 12.9505 1168 62.417 506.024 528.547
1563 0 94.1397 12.8001 1205 62.8614 505.928 527.466
1564 0 97.1436 12.8778 1251 62.9912 506.19 524.778
1565 0 99.2736 13.1757 1308 62.9885 505.319 523.33
1566 0 105.298 13.0677 1376 62.6664 505.553 521.214
1567 0 108.239 13.4333 1454 62.392 505.781 520.643
1568 0 109.416 13.4533 1472 63.125 506.071 518.359
1569 0 114.267 13.0659 1493 63.4662 506.064 515.979
1570 0 117.232 13.3155 1561 63.3318 505.68 515.703
1571 0 122.302 14.2598 1744 61.6439 505.469 512.521
1572 0 126.357 14.1424 1787 61.7465 505.245 512.626
1573 0 130.345 13.1651 1716 62.8479 505.266 508.111
1574 0 132.22 13.2658 1754 62.9475 505.229 507.63
1575 1 76.1765 11.2896 860 60.7791 504.662 538.766
1576 0 75.2821 11.1713 841 61.9679 504.785 537.316
1577 0 76.0823 11.5927 882 62.5193 504.351 532.337
1578 0 79.1592 13.2518 1049 60.2364 504.375 534.512
1579 0 82.0418 12.4571 1022 61.3679 503.931 533.788
1580 0 84.089 12.3678 1040 62.0923 503.515 531.117
1581 0 86.1214 12.8539 1107 61.9937 503.587 529.416
1582 0 90.0888 13.0871 1179 61.8499 503.31 527.611
1583 0 92.1481 13.3264 1228 62.1026 504.241 526.556
1584 0 95.113 12.6481 1203 63.1155 504.059 527.343
1585 0 98.1522 13.6319 1338 61.5516 504.123 526.152
1586 0 100.168 13.1579 1318 62.4704 503.5 525.733
1587 0 105.114 13.1856 1386 62.6443 502.908 522.846
1588 0 109.148 13.3581 1458 61.8621 502.359 521.745
1589 1 62.0208 9.80316 608 62.6365 502.827 545.076
1590 0 65.0576 11.7127 762 61.4081 502.535 540.925
1591 0 67.0742 11.5096 772 61.9702 502.33 540.229
1592 0 69.1165 11.184 773 62.9314 503.559 540.745
1593 0 71.2383 12.2968 876 59.2774 504.255 540.094
1594 0 72.0932 11.3326 817 60.3696 504.255 538.152
1595 0 78.2177 14.2807 1117 56.3796 504.301 533.117
1596 0 76.1211 12.4407 947 60.3981 504.503 534.498
1597 0 80.2 12.9551 1039 59.1068 504.704 536.076
1598 0 82.258 13.4455 1106 60.7821 504.288 533.439
1599 0 84.147 13.108 1103 61.7253 504.444 531.39
1600 0 86.2407 13.242 1142 61.0587 504.589 531.944
1601 0 87.2242 13.2761 1158 61.7332 504.547 528.856
1602 0 92.2734 13.1999 1218 62.2356 504.081 527.195
1603 0 95.1915 13.7197 1306 61.6822 504.126 528.587
1604 0 99.3357 13.9225 1383 60.7433 503.999 524.761
1605 0 102.385 13.879 1421 61.7241 504.59 523.182
1606 0 107.395 13.9578 1499 61.0761 504.851 523.067
1607 0 108.337 14.298 1549 61.3054 505.144 520.57
1608 0 111.223 13.7742 1532 63.0581 505.287 517.864
1609 0 114.447 13.6745 1565 63.2109 505.794 518.458
1610 0 118.248 14.2582 1686 62.8903 506.068 515.767
1611 0 122.323 13.8159 1690 63.2858 506.24 513.431
1612 1 69.1989 11.9366 826 64.2264 505.433 541.504
1613 0 70.148 11.0908 778 63.518 505.63 539.99
1614 0 72.1323 11.978 864 63.7118 506.436 538.678
1615 0 73.0604 12.6334 923 65.1896 506.031 537.598
1616 0 75.041 13.0995 983 63.3744 506.864 536.194
1617 0 79.0667 12.812 1013 64.1461 506.491 535.584
1618 0 82.1797 13.5313 1112 64.6718 507.978 532.677
1619 0 84.2917 13.133 1107 65.4029 507.744 532.288
1620 0 88.1729 13.5075 1191 64.1948 507.926 530.448
1621 0 89.1869 13.511 1205 65.1859 508.324 529.737
1622 0 90.1476 13.7219 1237 65.4592 508.892 527.427
1623 0 94.1289 14.0339 1321 64.6268 508.425 525.46
1624 0 97.3569 14.2157 1384 64.7861 508.863 523.816
1625 0 100.1 14.7452 1476 64.2927 509.466 523.625
1626 0 102.195 13.983 1429 65.5269 509.209 520.539
1627 0 107.094 14.053 1505 64.9282 509.102 518.915
1628 1 64.1444 10.3516 664 66.7214 509.288 541.06
1629 0 64.0571 11.4897 736 65.1454 511.306 539.806
1630 0 66.1602 11.2757 746 65.2895 511.185 539.107
1631 0 67.0458 12.9016 865 63.9827 511.138 536.657
1632 0 68.2169 12.7388 869 63.5593 511.455 533.426
1633 0 70.054 12.8758 902 63.2871 511.319 533.794
1634 0 74.1344 13.6374 1011 62.7883 511.342 534.093
1635 0 75.2777 13.603 1024 62.7715 510.615 533.586
1636 0 76.0881 13.1164 998 64.6513 510.443 531.046
1637 0 78.1683 13.8803 1085 63.6138 510.398 531.042
1638 0 80.1423 13.6507 1094 63.7724 510.693 530.491
1639 0 83.1894 13.5354 1126 64.4698 510.71 527.147
1640 0 85.1498 12.9067 1099 65.5478 510.864 526.865
1641 0 90.1651 13.7525 1240 63.604 510.95 525.258
1642 0 91.1808 13.4568 1227 64.0065 510.666 523.875
1643 0 94.0979 13.6347 1283 64.244 510.669 522.985
1644 0 97.1422 13.506 1312 64.4627 510.809 518.506
1645 0 100.259 14.313 1435 63.3387 510.711 517.69
1646 0 103.203 14.1469 1460 64.1192 510.222 517.149
1647 0 104.171 14.0826 1467 65.2079 510.678 515.21
1648 0 110.271 14.5097 1600 64.2525 510.936 515.642
1649 0 111.169 13.9787 1554 65.8308 510.164 512.665
1650 0 114.2 14.1682 1618 65.67 509.328 511.165
1651 0 119.116 14.4482 1721 64.5003 509.497 510.471
1652 0 123.38 14.4027 1777 64.247 509.252 509.937
1653 0 125.285 14.1757 1776 65.7005 509.09 506.293
1654 1 68.0767 11.3401 772 64.3873 508.522 535.439
1655 0 70.1586 11.6165 815 64.4245 508.139 534.856
1656 0 72.0661 11.8364 853 64.3013 508.234 533.416
1657 0 75.1088 13.2341 994 62.6348 507.814 532.012
1658 0 77.174 14.111 1089 61.3352 508.243 532.992
1659 0 81.2377 13.4051 1089 61.8604 508.014 531.201
1660 0 82.1556 13.5718 1115 62.348 507.705 529.486
1661 0 86.1987 13.3877 1154 62.2721 507.471 529.146
1662 0 87.1564 12.9423 1128 63.5372 507.454 526.643
1663 0 92.235 13.5849 1253 62.3073 507.124 526.356
1664 0 95.1632 13.7763 1311 62.5713 507.42 524.301
1665 0 96.2698 13.7426 1323 63.2298 507.589 525.828
1666 0 98.1598 13.4984 1325 64.0725 507.377 521.885
1667 0 104.233 14.1701 1477 61.195 507.414 521.237
1668 0 106.221 14.2815 1517 61.2307 507.311 518.949
1669 0 109.054 14.3782 1568 60.8297 507.355 516.802
1670 0 112.19 13.7891 1547 61.5934 507.095 515.051
1671 0 116.212 13.286 1544 61.5939 506.727 514.813
1672 0 121.218 13.7356 1665 60.642 506.312 513.611
1673 0 124.139 13.5009 1676 60.8974 505.989 509.595
1674 0 128.362 13.9839 1795 60.2836 505.888 508.838
1675 0 130.234 13.2301 1723 61.8207 505.251 505.021
1676 0 136.324 14.0401 1914 60.3595 505.562 504.609
1677 0 138.283 14.145 1956 60.2837 506.206 502.398
1678 0 145.205 14.7722 2145 59.2224 506.161 500.09
1679 0 151.299 15.01 2271 58.3804 505.268 498.219
1680 0 153.439 14.2141 2181 60.2132 505.413 495.918
1681 0 160.289 14.1681 2271 60.0097 505.083 494.156
1682 0 163.283 14.2146 2321 60.3262 505.639 492.248
1683 0 170.416 14.1712 2415 60.4017 504.749 488.091
1684 0 175.433 14.2961 2508 58.9793 505.564 485.722
1685 0 180.386 14.5965 2633 58.7387 504.594 482.534
1686 0 185.555 14.2976 2653 59.089 504.311 476.863
1687 1 145.401 11.8087 1717 61.4432 504.257 500.406
1688 0 150.629 12.4743 1879 59.9079 504.736 500.578
1689 0 154.885 13.4293 2080 59.7111 504.241 494.64
1690 0 159.454 13.9288 2221 58.9865 504.211 490.4
1691 0 164.717 14.0484 2314 58.8358 504.306 489.466
1692 0 170.66 15.2174 2597 57.4886 504.807 488.22
1693 0 175.579 13.9937 2457 59.4253 504.31 482.359
1694 0 185.613 14.5572 2702 58.1506 504.549 480.783
1695 0 190.544 14.8207 2824 57.7989 504.552 476.235
1696 1 47.2426 11.5997 548 55.7318 504.088 548.307
1697 0 49.2001 10.4471 514 56.7549 504.442 547.8
1698 0 53.3842 12.4756 666 54.0631 504.712 547.704
1699 0 52.2411 13.1888 689 54.5486 504.443 546.364
1700 0 56.5942 13.0579 739 55.1691 504.448 544.529
1701 0 58.5467 13.9376 816 54.3088 504.199 544.556
1702 0 60.5898 13.3521 809 55.2398 503.749 543.157
1703 0 64.5932 13.9334 900 53.8089 503.519 543.86
1704 0 64.247 13.0901 841 55.497 503.366 541.674
1705 0 65.6296 11.9763 786 57.5992 503.808 541.344
1706 0 66.6453 12.7541 850 57.7906 503.639 541.302
1707 0 69.4552 13.1884 916 56.6343 503.546 539.814
1708 0 71.7485 13.2268 949 57.1749 503.772 537.734
1709 0 73.6852 13.1098 966 57.6273 503.886 537.408
1710 0 74.438 13.9982 1042 57.1104 503.603 537.036
1711 0 78.7529 13.0281 1026 57.5643 503.9 535.272
1712 0 79.3903 13.251 1052 58.1302 503.938 533.993
1713 0 87.5187 16.5565 1449 52.3789 503.833 531.107
1714 0 86.615 14.7434 1277 55.7894 503.81 531.377
1715 0 91.7271 15.9713 1465 53.6068 503.937 529.016
1716 0 90.8436 15.1359 1375 55.9549 503.791 527.068
1717 0 100.386 18.2496 1832 50.2178 504.025 519.303
1718 1 51.4416 11.6443 599 56.6828 504.302 550.01
1719 0 51.2832 12.2067 626 57.0591 504.323 548.888
1720 0 54.1154 12.2516 663 57.2006 503.949 548.875
1721 0 55.236 13.0531 721 57.1553 503.634 548.738
1722 0 56.204 13.2909 747 56.9344 503.151 547.552
1723 0 57.2167 13.58 777 57.695 503.44 545.918
1724 0 58.2724 13.1966 769 58.1066 503.674 545.884
1725 0 61.3405 13.7919 846 57.1206 504.387 543.423
1726 0 63.2146 13.5886 859 57.6612 504.984 544.573
1727 0 64.2855 13.3778 860 58.6488 504.873 543.409
1728 0 66.3751 14.0414 932 58.0215 505.545 541.092
1729 0 66.3208 12.8014 849 59.5583 505.845 541.664
1730 0 67.2587 13.1433 884 59.5011 506.033 540.189
1731 0 71.4573 13.3366 953 58.936 505.992 538.366
1732 0 72.2848 14.5259 1050 57.5619 506.396 537.279
1733 0 75.2774 14.9846 1128 57.0284 506.472 534.97
1734 0 76.2792 13.5686 1035 59.2222 506.821 535.23
1735 0 77.2834 14.311 1106 59.4801 507.288 533.604
1736 0 80.2753 13.8897 1115 61.4574 507.327 533.886
1737 0 84.2023 14.3939 1212 61.2682 507.093 532.356
1738 0 88.3431 13.4136 1185 62.611 507.5 530.889
1739 0 90.2346 13.9636 1260 61.6548 507.675 528.403
1740 0 92.3577 14.5413 1343 60.551 507.559 526.826
1741 0 95.2769 14.0118 1335 60.6712 508.18 525.285
1742 0 99.2188 14.4831 1437 60.9374 508.34 521.587
1743 0 100.213 13.9004 1393 61.1443 508.45 521.123
1744 1 61.0917 11.1799 683 59.3324 508.684 543.25
1745 0 61.3075 11.3852 698 60.2436 508.723 541.195
1746 0 63.1594 12.4605 787 59.3405 508.821 539.526
1747 0 65.1855 12.7943 834 58.6415 509.134 539.57
1748 0 67.1653 13.6827 919 57.3656 509.614 538.441
1749 0 69.2324 14.083 975 56.6749 510.201 537.974
1750 0 70.1497 13.0578 916 57.5721 509.847 537.115
1751 0 74.2288 13.6739 1015 57.1576 510.57 534.641
1752 0 76.2053 13.7654 1049 57.1335 511.103 533.435
1753 0 77.2453 12.9846 1003 58.667 510.505 532.735
1754 0 80.2709 13.5167 1085 57.9908 510.19 531.23
1755 0 81.2123 13.36 1085 58.1899 510.428 530.421
1756 0 86.196 13.6665 1178 57.7776 510.679 528.728
1757 0 88.4052 14.2639 1261 57.2062 510.45 526.436
1758 0 88.204 13.4688 1188 58.9529 510.073 524.614
1759 0 92.2883 13.7721 1271 58.8143 510.693 524.567
1760 0 96.1748 13.4547 1294 59.6275 510.342 520.724
1761 0 100.321 13.716 1376 58.9506 511.047 520.177
1762 0 102.48 13.9051 1425 58.7158 511.01 519.696
1763 0 103.16 12.7472 1315 60.9894 510.654 516.258
1764 0 110.177 13.796 1520 59.0191 510.044 515.686
1765 1 61.1537 10.8906 666 59.1201 509.673 540.413
1766 0 63.0867 11.6506 735 59.317 509.423 537.31
1767 0 66.095 12.4064 820 58.3939 508.977 537.083
1768 0 69.1431 12.7851 884 57.7398 509.035 535.874
1769 0 69.2951 12.4107 860 58.7419 508.994 535.858
1770 0 71.2436 11.959 852 59.4554 508.846 534.711
1771 0 73.2383 12.7392 933 59.5295 508.954 533.258
1772 0 77.2767 12.5135 967 60.5843 508.776 533.384
1773 0 79.2113 12.6371 1001 60.5504 509.191 530.267
1774 0 82.2345 13.4858 1109 59.2741 509.224 530.664
1775 0 84.0923 13.9133 1170 58.153 509.223 527.654
1776 0 86.1659 13.2999 1146 60.1003 509.122 525.832
1777 0 91.3163 14.0063 1279 59.2275 508.913 526.379
1778 0 92.3356 13.765 1271 60.5382 508.812 522.854
1779 0 94.3777 13.9864 1320 60.6644 509.043 522.137
1780 0 98.2669 13.5956 1336 60.851 508.692 521.987
1781 0 100.249 13.7059 1374 60.8224 508.346 520.434
1782 0 102.243 13.8494 1416 60.7684 508.028 520.31
1783 0 105.286 13.7815 1451 61.1502 507.968 518.904
1784 0 109.207 14.3397 1566 60.3665 507.655 517.047
1785 0 110.152 13.5812 1496 61.9118 507.194 515.777
1786 0 113.359 15.3319 1738 59.4148 507.29 512.606
1787 0 118.224 15.09 1784 59.4871 506.812 513.785
1788 0 120.502 14.174 1708 60.8109 506.881 511.139
1789 0 124.406 15.2324 1895 59.6586 506.612 511.583
1790 1 71.0921 11.9704 851 61.7462 506.606 536.946
1791 0 71.245 11.8886 847 62.2562 506.707 535.662
1792 0 74.1011 13.1307 973 60.1665 506.578 535.513
1793 0 76.2228 12.9095 984 61.0813 506.272 535.087
1794 0 79.1369 12.9775 1027 61.0467 506.173 533.055
1795 0 80.1632 13.6222 1092 60.4505 506.858 532.493
1796 0 83.2883 13.2912 1107 60.3622 506.699 531.908
1797 0 86.2051 13.4795 1162 60.3571 506.248 529.372
1798 0 91.4264 14.3394 1311 58.9931 506.153 527.74
1799 0 93.312 13.5031 1260 60.2016 506.488 526.563
1800 0 97.1982 13.8891 1350 59.2452 506.408 524.444
1801 0 99.2089 14.162 1405 59.237 505.969 522.405
1802 0 105.38 14.8795 1568 57.4018 506.178 523.704
1803 1 58.147 11.2645 655 59.6443 506.064 545.046
1804 0 61.1489 11.5783 708 59.6271 506.343 542.799
1805 0 61.1469 11.1371 681 60.1806 506.38 543.245
1806 0 63.322 12.618 799 58.4443 506.088 542.756
1807 0 67.2539 12.5495 844 58.763 506.094 539.935
1808 0 68.1305 13.8704 945 57.5873 505.915 538.8
1809 0 70.1859 13.3075 934 57.8533 506.23 539.065
1810 0 72.1191 13.963 1007 56.6177 506.169 538.357
1811 0 75.4046 14.2962 1078 56.4963 506.228 535.931
1812 0 78.2088 13.8603 1084 56.893 506.087 536.363
1813 0 81.1121 14.1532 1148 56.2256 505.576 535.957
1814 0 80.15 13.9114 1115 57.9327 505.83 532.957
1815 0 85.1563 14.5497 1239 56.2938 505.559 532.843
1816 0 87.2527 14.3148 1249 56.8287 505.406 532.402
1817 0 89.26 14.3401 1280 57.1281 505.291 530.603
1818 0 94.4781 13.6645 1291 57.2905 505.86 528.542
1819 0 94.1867 14.7048 1385 57.2917 505.701 527.855
1820 0 99.2894 13.9189 1382 57.9602 506.006 526.432
1821 0 101.282 14.0894 1427 58.2971 505.925 524.158
1822 0 104.264 15.1058 1575 57.3467 505.749 523.069
1823 0 105.401 14.4591 1524 58.7454 505.42 521.268
1824 0 110.486 14.9793 1655 57.623 505.863 518.297
1825 0 112.395 14.4935 1629 58.4408 505.836 517.894
1826 0 117.247 15.5228 1820 56.8824 505.64 515.484
1827 0 119.252 15.5133 1850 57.3357 505.629 511.887
1828 0 124.291 15.4798 1924 57.0707 506.425 511.095
1829 0 128.369 15.175 1948 57.309 506.48 510.53
1830 0 131.444 15.2917 2010 57.2378 506.989 506.66
1831 0 136.268 15.2714 2081 57.4152 507.512 505.94
1832 0 140.277 14.7208 2065 58.3976 507.212 503.041
1833 0 145.271 15.2817 2220 57.6014 507.502 500.338
1834 0 149.201 14.3163 2136 59.1428 507.761 498.261
1835 0 152.509 14.5303 2216 59.1191 507.551 495.008
1836 0 159.536 14.749 2353 58.7565 507.333 492.853
1837 0 167.478 15.5304 2601 57.2757 507.805 491.276
1838 0 172.432 14.3651 2477 59.0674 508.039 486.428
1839 0 179.551 15.1823 2726 57.6952 508.163 485.999
1840 0 184.472 15.2218 2808 57.8864 508.525 482.223
1841 0 190.438 15.4381 2940 57.7 509.038 478.116
1842 0 198.485 15.0792 2993 58.2606 509.603 475.591
1843 0 205.548 15.0767 3099 58.0887 509.146 471.577
1844 0 209.368 15.0787 3157 58.3142 509.437 465.717
1845 0 219.522 15.1921 3335 57.8732 509.485 464.602
1846 0 225.79 16.4445 3713 56.0353 509.736 458.471
1847 1 177.507 11.8362 2101 60.5426 509.635 490.769
1848 0 184.839 12.5352 2317 59.656 509.327 485.719
1849 0 191.072 13.2882 2539 59.1729 509.388 477.249
1850 0 198.593 14.0941 2799 58.4398 509.938 471.22
1851 0 206.442 14.716 3038 57.102 510.153 469.058
1852 0 213.772 14.3377 3065 57.83 510.419 464.182
1853 0 221.859 14.365 3187 56.347 509.981 461.46
1854 0 228.2 14.163 3232 56.3769 510.354 458.383
1855 0 236.962 14.3736 3406 56.0854 510.638 450.649
1856 1 60.1265 9.71286 584 55.3545 509.937 539.967
1857 0 63.1265 11.5641 730 54.6932 510.768 538.263
1858 0 68.2568 12.8339 876 52.3779 509.421 536.658
1859 0 67.14 12.0643 810 54.2272 509.222 538.036
1860 0 69.1077 13.11 906 53.894 508.993 535.744
1861 0 73.0674 13.5902 993 53.0131 508.801 534.418
1862 0 75.157 13.066 982 53.3656 508.749 533.248
1863 0 77.3365 12.7365 985 54.4579 508.488 531.466
1864 0 79.1196 12.5001 989 54.9808 508.218 529.398
1865 0 84.1792 12.8179 1079 54.6793 508.163 528.816
1866 0 85.1171 12.5474 1068 55.2547 508.317 528.276
1867 0 91.2554 12.4267 1134 54.9453 507.451 525.535
1868 0 93.1433 12.7331 1186 54.941 508.068 523.929
1869 0 97.1168 12.521 1216 54.8026 507.682 522.325
1870 0 99.1403 12.7093 1260 54.8968 507.302 520.057
1871 1 56.2322 11.3636 639 53.0876 507.955 544.15
1872 0 56.3817 11.5286 650 53.1908 507.883 543.82
1873 0 60.41 11.7861 712 53.7542 507.33 543.378
1874 0 62.1775 12.995 808 52.0408 507.423 543.095
1875 0 63.2931 12.055 763 53.1114 506.856 542.028
1876 0 66.3537 12.7951 849 52.4193 506.934 540.442
1877 0 68.1422 12.5913 858 52.2762 507.516 540.845
1878 0 70.1866 12.6377 887 52.8546 506.781 540.379
1879 0 72.2017 12.7698 922 52.9978 506.015 539.979
1880 0 73.328 12.3009 902 54.214 506.614 538.672
1881 0 75.1762 13.5681 1020 52.9127 506.653 539.332
1882 0 74.2065 13.1255 974 54.269 506.663 538.374
1883 0 77.2264 12.9878 1003 54.8524 506.507 534.988
1884 0 79.2359 12.6836 1005 55.2776 506.113 536.187
1885 0 80.32 13.2844 1067 55.5858 506.315 534.201
1886 0 84.2823 13.3717 1127 55.0745 505.997 534.993
1887 0 87.244 13.3877 1168 55.5959 506.265 533.659
1888 0 88.2027 13.4236 1184 55.7086 506.002 530.051
1889 0 90.137 12.2369 1103 57.2874 505.882 528.033
1890 0 96.182 13.3185 1281 55.3708 505.465 527.968
1891 0 98.1545 13.1629 1292 55.7825 506.022 527.331
1892 0 103.159 13.7069 1414 55.0743 505.563 523.61
1893 0 107.306 14.2396 1528 54.2592 505.653 522.207
1894 1 62.0375 11.7348 728 55.2198 504.941 545.779
1895 0 63.0631 11.988 756 55.0714 504.89 544.907
1896 0 66.0379 13.0531 862 53.7077 505.563 543.797
1897 0 68.0508 13.4605 916 53.6059 505.323 541.775
1898 0 69.2645 12.8204 888 53.4403 505.293 539.225
1899 0 70.2568 13.2087 928 53.1907 505.161 538.291
1900 0 70.2427 12.77 897 54.0546 504.76 537.583
1901 0 74.2179 12.9888 964 52.7552 504.275 537.515
1902 0 76.429 12.8224 980 53.2041 504.737 533.744
1903 0 79.0867 12.8593 1017 53.1544 504.054 534.085
1904 0 81.1459 12.8534 1043 53.6807 503.755 535.274
1905 0 85.1501 14.3394 1221 52.5242 504.388 533.6
1906 0 87.1827 13.7527 1199 53.0534 504.442 531.063
1907 0 90.1395 13.9229 1255 52.9259 504.195 531.456
1908 0 93.151 13.3225 1241 53.2611 504.4 530.669
1909 0 95.2107 13.801 1314 53.1522 504.295 525.491
1910 0 97.1178 14.0139 1361 53.0191 503.497 527.051
1911 0 100.359 14.6274 1468 53.077 503.655 525.39
1912 0 103.085 14.813 1527 53.1009 503.259 524.625
1913 0 108.256 14.1794 1535 53.598 503.089 524.209
1914 0 107.19 14.1152 1513 54.8282 502.526 522.911
1915 0 112.187 13.834 1552 54.9053 502.34 520.983
1916 0 116.135 14.664 1703 54.2959 502.804 517.662
1917 0 118.202 14.0606 1662 55.4344 502.79 517.501
1918 0 121.265 13.7303 1665 56.3177 502.715 516.472
1919 0 127.166 14.5007 1844 56.2191 502.912 512.969
1920 0 130.304 14.4124 1878 56.287 503.93 512.127
1921 1 76.2315 11.124 848 58.2099 503.517 538.999
1922 0 76.071 11.1343 847 58.6635 503.041 539.968
1923 0 78.1608 11.6938 914 58.7746 502.992 535.769
1924 0 81.153 12.6058 1023 58.3079 502.879 535.012
1925 0 85.069 13.6007 1157 57.1901 503.059 535.495
1926 0 87.066 13.507 1176 57.1811 502.458 532.972
1927 0 91.1159 13.8176 1259 57.282 502.722 531.986
1928 0 92.1401 13.0996 1207 58.6918 503.379 530.615
1929 0 97.2499 14.2211 1383 57.3369 503.404 528.653
1930 0 99.2694 14.1333 1403 57.6486 502.998 528.424
1931 0 101.084 13.6618 1381 58.9051 503.181 524.653
1932 0 106.16 13.6492 1449 58.3665 503.539 524.532
1933 0 109.116 14.0676 1535 58.5362 503.362 523.009
1934 0 112.165 13.177 1478 59.1434 503.506 522.434
1935 0 114.263 13.7139 1567 59.8296 503.685 518.603
1936 0 117.238 13.7072 1607 60.1226 503.304 517.305
1937 0 123.315 13.6885 1688 59.7494 503.294 516.075
1938 0 127.199 14.5756 1854 58.7816 503.47 514.376
1939 0 128.145 13.7891 1767 60.5156 503.643 512.316
1940 0 135.306 14.0275 1898 60.0263 504.144 509.528
1941 0 138.377 14.381 1990 60.0286 504.03 511.339
1942 0 142.233 14.2723 2030 60.664 504.246 504.499
1943 0 146.473 13.8319 2026 61.3697 504.579 503.344
1944 0 151.264 14.1937 2147 59.4206 504.528 501.124
1945 0 156.389 13.914 2176 59.4715 504.606 496.705
1946 0 161.38 14.1343 2281 59.0815 505.097 494.238
1947 0 166.521 13.8121 2300 59.6617 504.88 490.994
1948 0 174.402 14.6787 2560 58.5488 505.012 487.448
1949 0 181.583 15.5631 2826 57.1016 505.024 484.565
1950 0 184.522 14.5565 2686 58.6582 504.673 482.361
1951 1 147.259 12.6851 1868 60.3624 505.137 504.514
1952 0 152.298 13.3619 2035 59.7636 505.536 501.23
1953 0 159.305 13.8602 2208 60.1264 505.918 497.439
1954 0 161.464 14.3562 2318 59.9978 506.024 493.415
1955 0 166.502 13.9999 2331 60.3179 505.859 493.323
1956 0 169.404 14.3739 2435 60.223 505.807 488.303
1957 0 178.457 14.2275 2539 59.8637 505.664 484.043
1958 0 185.402 14.4227 2674 59.4514 506.106 481.527
1959 0 193.352 15.0916 2918 58.1456 506.106 478.527
1960 1 143.32 12.8314 1839 59.6552 506.502 505.56
1961 0 146.58 12.3687 1813 60.2443 506.64 503.025
1962 0 154.421 13.7416 2122 58.9312 506.723 499.626
1963 0 157.487 14.2044 2237 58.6504 506.672 495.793
1964 0 163.259 14.5597 2377 58.658 506.958 489.955
1965 0 169.365 14.9677 2535 58.071 507.267 487.869
1966 0 175.594 14.357 2521 58.2392 507.034 486.073
1967 0 181.28 14.5907 2645 58.2246 507.483 479.378
1968 0 187.432 15.0934 2829 57.1124 508.001 478.662
1969 0 194.475 14.9223 2902 57.601 508.471 473.987
1970 0 198.634 15.0276 2985 57.663 508.565 472.286
1971 0 204.65 14.5663 2981 58.8058 508.346 468.799
1972 0 211.564 15.0404 3182 57.9705 508.027 464.962
1973 0 219.673 15.2681 3354 57.7352 508.238 461.197
1974 0 227.444 15.0323 3419 57.7142 508.569 457.289
1975 0 232.533 16.6729 3877 56.0395 509.226 451.148
1976 0 238.665 16.19 3864 56.1902 509.461 448.521
1977 0 248.763 15.7459 3917 56.82 509.256 440.646
1978 0 255.969 15.9395 4080 56.5338 509.321 440.058
1979 1 231.706 12.0972 2803 59.3329 509.599 467.469
1980 0 229.471 10.6941 2454 60.5913 509.59 469.339
1981 0 228.506 9.99538 2284 60.8004 510.747 474.854
1982 0 228.649 11.791 2696 60.5334 510.902 464.296
1983 0 231.593 14.2535 3301 59.0473 510.898 457.417
1984 0 231.593 14.2837 3308 176.737 510.896 457.501
1985 0 247.798 15.1615 3757 58.6396 511.11 445.175
1986 0 256.573 15.6135 4006 57.5724 511.428 440.167
1987 0 264.993 16.1552 4281 56.6069 510.802 435.051
1988 0 273.917 16.1874 4434 56.8618 510.526 430.678
1989 0 282.922 16.881 4776 55.8673 509.805 426.226
1990 0 292.483 17.4437 5102 55.3508 510.444 419.878
1991 0 297.422 17.5744 5227 55.3706 510.198 415.465
1992 0 295.948 16.1244 4772 57.1947 509.774 413.982
1993 0 298.69 18.705 5587 54.2155 509.541 415.316
1994 0 298.558 17.2261 5143 55.79 509.198 415.866
1995 0 259.887 13.6944 3559 58.3479 509.927 450.845
1996 0 269.508 15.3168 4128 57.3246 509.494 437.419
1997 0 275.734 14.8984 4108 57.7388 509.444 433.557
1998 0 284.346 16.603 4721 55.5738 509.066 424.819
1999 0 296.253 17.026 5044 54.7845 508.574 421.731
2000 0 298.669 17.8726 5338 54.251 509.389 417.175
2002 0 299.523 17.5813 5266 54.8595 508.299 416.909
2003 0 297.806 16.8432 5016 55.7063 508.553 415.898
2004 0 298.717 18.1074 5409 54.2908 508.308 416.297
2005 0 299.574 17.2746 5175 55.9343 507.782 416.142
2006 0 299.957 18.5993 5579 54.3441 507.948 416.861
2007 0 299.641 18.1884 5450 54.9451 508.212 416.722
2008 0 298.596 16.5039 4928 57.1457 507.967 415.078
2009 0 299.511 17.6922 5299 55.5031 507.6 416.268
2010 0 298.804 16.6397 4972 57.2747 507.764 415.212
2011 0 299.68 17.3118 5188 56.214 507.715 415.366
2012 0 299.62 16.9982 5093 56.6982 506.667 414.672
2013 0 299.6 17.3966 5212 56.3903 506.768 414.715
2014 0 298.961 18.387 5497 55.0344 506.757 414.962
2015 0 296.855 16.6681 4948 57.1595 506.762 413.19
2016 0 296.632 16.5896 4921 57.1713 507.073 412.91
2017 0 296.506 16.5629 4911 57.0963 506.835 413.064
2018 0 297.555 16.8876 5025 56.3574 506.577 414.079
2019 0 254.49 13.4112 3413 59.6443 506.706 446.14
2020 0 263.523 14.9171 3931 58.4879 506.941 437.294
2021 0 275.671 15.3698 4237 57.5249 506.675 435.686
2022 0 281.385 15.6867 4414 57.6425 506.611 421.564
2023 0 291.423 16.4709 4800 57.294 506.652 416.63
2024 0 297.5 16.4538 4895 57.6186 506.724 414.304
2025 0 297.505 17.3341 5157 56.7398 506.343 413.9
2026 0 297.42 16.9323 5036 56.979 506.513 413.822
2027 0 298.348 17.0506 5087 57.267 506.424 413.607
2028 0 297.768 17.8259 5308 56.2031 506.6 413.501
2029 0 297.509 16.6718 4960 57.8748 506.683 412.937
2030 0 297.415 16.5829 4932 57.9193 506.356 413.05
2031 0 296.354 16.7638 4968 57.9865 506.587 413.103
2032 0 299.604 18.0004 5393 56.6104 506.806 413.651
2033 0 296.643 16.0563 4763 59.5159 506.437 410.979
2034 0 297.581 16.5132 4914 59.2043 505.958 410.988
2035 0 297.62 16.3464 4865 59.9431 505.641 411.241
2036 0 298.946 17.1503 5127 59.2149 505.346 412.132
2037 0 301.714 17.8679 5391 58.5646 505.317 413.849
2038 0 301.951 17.6684 5335 58.4028 504.755 413.713
2039 0 301.41 16.6152 5008 59.847 504.506 413.304
2040 0 302.414 16.5733 5012 59.7173 504.934 413.011
2041 0 303.486 17.2858 5246 58.8511 505.13 414.136
2043 0 302.351 16.848 5094 59.3889 505.095 412.661
2044 0 302.648 18.5397 5611 57.0399 505.477 413.588
2045 0 300.651 16.1317 4850 60.1505 505.062 411.103
2046 0 301.775 17.8941 5400 57.5417 505.092 411.484