time division length width area intensity CMx CMy
0 0 37.1117 10.0777 374 64.8422 1134.05 573.064
1 0 41.2578 10.3253 426 64.5869 1133.91 571.359
2 0 44.2542 11.2984 500 62.788 1133.5 571.096
3 0 44.2147 12.3262 545 62.0294 1133.37 569.939
4 0 47.2552 12.1891 576 62.4462 1133.41 570.783
5 0 48.4363 12.0984 586 63.2031 1133.41 570.759
6 0 49.114 12.2572 602 62.608 1133.03 568.767
7 0 49.2385 12.1856 600 62.7217 1132.78 566.767
8 0 52.1533 12.1373 633 62.7346 1132.83 567.229
9 0 53.246 11.8507 631 62.317 1132.43 568.582
10 0 55.1194 12.355 681 62.2115 1133.16 565.825
11 0 57.2353 12.0031 687 63.0509 1132.71 564.735
12 0 58.2916 13.3638 779 61.5353 1133.17 563.585
13 0 60.186 12.1457 731 62.632 1132.88 562.774
14 0 61.2546 12.848 787 61.9174 1132.98 562.876
15 0 63.2583 11.9668 757 62.6328 1133.47 562.343
16 0 64.3005 13.2658 853 61.5088 1133.62 558.409
17 0 67.3973 11.9589 806 62.4901 1133.24 558.617
18 0 70.3009 12.4038 872 60.8475 1132.91 558.394
19 0 72.5281 13.2087 958 59.8831 1132.94 554.946
20 0 73.4211 13.5928 998 59.7916 1133.36 554.056
21 0 77.5329 12.0207 932 60.471 1132.95 554.364
22 0 78.4538 13.7661 1080 59.2926 1133.17 551.866
23 0 81.4668 13.1833 1074 60.0987 1133.53 552.141
24 0 84.6035 12.5527 1062 60.467 1133.5 551.881
25 0 87.3975 14.3368 1253 58.814 1134.01 548.05
26 1 47.1663 11.4277 539 59.0056 1133.87 570.762
27 0 45.2896 10.4439 473 60.7188 1133.62 569.273
28 0 50.2482 10.9656 551 60.3757 1133.79 568.43
29 0 49.1732 12.4661 613 59.5644 1134.27 567.206
30 0 51.2141 10.9345 560 61.4036 1134.16 567.507
31 0 53.2326 12.3796 659 60.0258 1134.91 567.173
32 0 55.2578 11.9802 662 60.5302 1134.76 567.31
33 0 59.2019 12.0266 712 60.0955 1135.44 565.292
34 0 59.2023 12.7867 757 59.6645 1135.12 565.23
35 0 62.1827 12.7688 794 60.4761 1135.04 563.12
36 0 63.4567 13.7417 872 59.8693 1134.96 561.307
37 0 64.2048 12.3199 791 61.5917 1135.18 562.254
38 0 67.2782 12.7382 857 60.8973 1135.01 561.644
39 0 67.2511 11.7619 791 63.1037 1134.81 559.114
40 0 71.3215 12.7311 908 62.1289 1135.57 556.833
41 0 74.284 11.8599 881 63.1612 1135.49 556.928
42 0 75.2669 12.2232 920 62.588 1135.48 556.56
43 0 79.4045 12.3167 978 62.2771 1134.85 553.834
44 0 82.3306 12.3891 1020 62.4137 1135.3 553.491
45 1 44.2093 10.4503 462 61.9069 1134.52 572.442
46 0 45.2679 9.63155 436 63.711 1134.73 569.986
47 0 47.182 12.6107 595 61.0118 1135.6 568.909
48 0 48.2659 11.1466 538 62.9182 1135.2 568.296
49 0 49.1552 11.1687 549 62.8543 1135.42 569.146
50 0 50.2051 11.9112 598 62.2324 1135.62 567.742
51 0 51.2653 11.1772 573 63.0366 1135.65 568.079
52 0 54.3067 12.8161 696 60.4813 1136.04 565.931
53 0 55.4316 10.9685 608 62.6447 1136 565.456
54 0 57.2622 12.3991 710 61.269 1135.32 563.721
55 0 58.2018 12.0787 703 54.7752 1135.62 565.024
56 0 60.2209 11.7401 707 55.2504 1136.19 563.721
57 0 62.3464 11.4682 715 56.1748 1136.62 562.687
58 0 64.3422 11.9206 767 55.6897 1136.1 562.353
59 0 67.2704 12.8734 866 55.1293 1136.74 558.706
60 0 68.4361 12.8295 878 55.8508 1136.99 558.751
61 0 71.3182 12.4933 891 56.5095 1136.38 556.019
62 0 74.3081 12.2867 913 56.5641 1136.11 557.188
63 0 76.3402 12.5491 958 56.5522 1136.07 555.042
64 1 42.2055 10.5437 445 57.0202 1134.69 571.978
65 0 42.2037 10.3072 435 57.5379 1134.81 571.202
66 0 44.1931 10.4541 462 57.6212 1134.79 570.539
67 0 44.148 11.1217 491 56.7556 1136.16 569.688
68 0 46.3313 10.9861 509 54.6523 1136.22 570.018
69 0 47.3324 11.4509 542 54.7288 1136.2 569.096
70 0 47.3872 11.2689 534 55.4625 1135.48 568.749
71 0 51.2561 11.6864 599 54.8364 1136 565.756
72 0 51.2081 12.0098 615 55.3398 1136.4 565.114
73 0 53.3887 11.6129 620 57.3516 1136.45 564.432
74 0 57.1971 13.2349 757 56.0013 1137.09 562.535
75 0 58.282 12.5939 734 56.5749 1137.36 561.629
76 0 60.2001 12.2259 736 57.2228 1137.79 560.72
77 0 60.1655 12.5653 756 57.4458 1137.93 560.803
78 0 63.3096 11.9729 758 57.5172 1137.86 558.61
79 0 65.372 12.9566 847 56.588 1137.75 556.485
80 0 66.3546 11.9961 796 57.8781 1138.3 555.307
81 0 67.2653 12.4433 837 57.6583 1137.69 555.603
82 0 71.3442 12.3206 879 57.884 1138.4 552.059
83 0 74.2056 13.1122 973 57.0062 1138.33 552.092
84 0 78.2555 13.6732 1070 56.1449 1138.94 551.221
85 0 78.259 12.8931 1009 57.9286 1139.48 548.265
86 0 83.2228 13.4458 1119 57.1019 1139.81 545.518
87 0 85.2076 13.649 1163 56.5847 1139.97 543.917
88 0 89.2263 12.5075 1116 56.7133 1139.61 542.661
89 0 92.3005 14.0953 1301 53.6603 1139.89 541.959
90 0 90.2757 11.764 1062 56.4915 1139.78 542.451
91 1 52.44 12.8718 675 59.8118 1140.52 560.381
92 0 50.3256 12.4787 628 64.3662 1140.72 560.053
93 0 54.3605 12.969 705 60.1106 1141.26 559.386
94 0 54.2126 12.1374 658 62.3891 1141.24 557.488
95 0 57.2513 12.6635 725 58.8207 1140.88 557.299
96 0 57.1619 13.1206 750 57.804 1141.9 555.851
97 0 60.3558 12.7908 772 81.1528 1141.89 556.215
98 0 61.2683 12.4697 764 56.9385 1140.85 557.706
99 0 63.1964 13.197 834 57.2038 1140.43 555.047
100 0 65.465 13.6562 894 58.726 1140.6 552.751
101 0 66.4642 13.2402 880 61.8864 1141.44 551.191
102 0 65.4425 12.8051 838 63.6396 1141.54 551.387
103 0 68.4312 13.1957 903 60.8549 1141.37 550.081
104 0 71.6706 13.9388 999 60.1461 1141.42 549.52
105 0 72.2976 12.6284 913 61.7032 1141.6 547.225
106 0 75.4184 12.7953 965 63.114 1141.62 547.411
107 0 76.3105 13.2878 1014 63.7258 1141.68 545.678
108 0 80.365 13.6129 1094 64.2669 1141.56 543.404
109 0 84.366 13.3348 1125 61.688 1141.6 543.649
110 0 83.3676 13.5304 1128 61.9911 1141.78 542.034
111 0 85.2642 13.5579 1156 60.1228 1142.03 542.413
112 0 88.3656 13.0594 1154 60.1785 1141.99 539.28
113 0 91.2825 12.4777 1139 61.0729 1142.14 537.159
114 1 49.1694 11.4502 563 61.6341 1142.07 557.091
115 0 52.2781 12.3761 647 60.7883 1141.59 557.176
116 0 53.1624 12.0574 641 61.429 1141.04 556.618
117 0 55.249 12.9233 714 59.2409 1141.65 555.297
118 0 56.1768 13.0125 731 59.8591 1141.62 553.573
119 0 57.2618 12.8707 737 59.7246 1141.39 553.543
120 0 61.1643 13.6518 835 58.2287 1141.09 553.424
121 0 60.1926 13.2076 795 59.1924 1140.8 552.514
122 0 66.2192 13.999 927 57.7066 1141.47 550.298
123 0 67.2935 14.0578 946 57.815 1141.4 548.237
124 0 69.3569 13.3945 929 58.1615 1140.94 548.285
125 0 70.2725 14.1022 991 57.4581 1140.72 549.879
126 0 73.3396 14.4942 1063 57.2088 1140.27 546.588
127 0 80.3349 11.2404 903 59.0177 1140.37 547.354
128 0 82.3419 12.3995 1021 58.3732 1140.42 545.082
129 0 81.4012 14.017 1141 57.482 1140.55 542.61
130 0 82.3363 12.8133 1055 59.1668 1140.27 542.058
131 0 84.2833 14.4394 1217 57.2827 1140.32 541.287
132 0 88.4121 13.6633 1208 58.1639 1140.26 538.444
133 0 89.4069 14.1152 1262 57.9525 1140.03 535.876
134 0 96.5318 14.7931 1428 56.5455 1140.56 535.917
135 0 96.5318 14.8863 1437 157.651 1141.57 535.9
136 1 52.3224 10.8558 568 58.4912 1139.76 557.764
137 0 50.343 10.4086 524 60.4275 1139.69 556.031
138 0 52.3374 13.0499 683 57.8887 1139.89 554.067
139 0 55.1868 13.554 748 57.0775 1139.52 554.011
140 0 56.2957 13.5712 764 57.3115 1140.01 552.423
141 0 58.0601 14.1061 819 56.7607 1139.69 552.617
142 0 60.3318 13.9893 844 56.519 1139.53 552.136
143 0 62.144 13.1951 820 57.7634 1139.88 550.061
144 0 62.144 13.2273 822 166.853 1139.89 550.103
145 0 64.2196 13.2358 850 58.5259 1139.33 548.64
146 0 67.3218 14.4678 974 57.6119 1139.26 547.6
147 0 67.209 12.6769 852 60.1432 1140.04 546.411
148 0 71.2841 14.5615 1038 58.2996 1139.84 544.043
149 0 73.1543 13.6287 997 59.2427 1139.82 544.801
150 0 74.2716 14.1777 1053 60.0627 1139.73 542.633
151 0 78.3157 14.5182 1137 59.4899 1139.61 542.708
152 0 78.2515 13.4183 1050 62.079 1139.62 540.422
153 0 80.1957 14.5519 1167 61.1645 1139.67 541.209
154 0 85.2333 14.6539 1249 61.3763 1139.57 538.237
155 0 86.1318 14.6171 1259 61.7744 1138.92 536.852
156 0 88.2285 14.7911 1305 62.0314 1138.89 535.516
157 0 91.2047 14.9554 1364 62.2837 1139.37 533.12
158 0 91.1908 14.2668 1301 63.3566 1139.04 535.001
159 1 45.0852 11.3563 512 64.998 1138.98 555.35
160 0 53.057 12.2321 649 61.9168 1139.04 556.029
161 0 52.0966 12.9183 673 62.8262 1138.71 553.646
162 0 54.0511 11.6556 630 64.5206 1138.96 553.995
163 0 55.0679 12.5845 693 63.4791 1138.96 553.89
164 0 56.0884 12.7121 713 64.5133 1139.59 550.638
165 0 58.0238 13.3911 777 63.9858 1139.71 549.338
166 0 60.1004 14.2928 859 63.0547 1139.74 549.07
167 0 64.0719 13.3132 853 63.789 1139.74 549.635
168 0 65.0735 13.3541 869 65.1726 1139.77 547.017
169 0 66.2015 14.5767 965 63.7492 1140.15 547.269
170 0 70.0846 14.0402 984 64.5417 1140.54 543.381
171 0 71.0929 13.9676 993 64.9376 1140.24 542.448
172 0 76.0726 13.9998 1065 65.0976 1140.43 541.7
173 0 76.0377 14.3087 1088 65.6517 1140.51 540.829
174 0 79.0612 13.5591 1072 66.5653 1140.87 539.06
175 0 84.0391 14.0411 1180 65.8695 1140.92 537.692
176 1 41.0157 10.0693 413 67.1695 1140.67 556.47
177 0 44.0468 11.9645 527 64.8975 1140.8 556.658
178 0 45.0352 12.0572 543 64.5101 1140.96 554.838
179 0 48.0306 12.9084 620 63.8661 1141.31 553.736
180 0 49.0172 12.9138 633 63.9684 1142.07 554.193
181 0 50.0318 12.7719 639 65.1768 1142.11 552.706
182 0 50.0318 12.6919 635 164.461 1142.11 552.869
183 0 50.0318 12.7719 639 163.415 1142.08 553.006
184 0 57.0686 12.7215 726 63.9959 1142.31 550.705
185 0 55.0948 11.8342 652 66.4923 1142.46 548.416
186 0 60.0339 13.7756 827 62.4958 1142.52 546.134
187 0 60.0288 13.127 788 63.0216 1142.58 546.367
188 0 64.0651 13.4082 859 62.7183 1143 544.414
189 0 65.0462 12.4373 809 64.6897 1142.84 544.104
190 0 67.1092 13.0384 875 63.7954 1142.67 541.637
191 0 70.0502 12.6195 884 63.7907 1142.8 541.715
192 0 72.1163 12.771 921 64.1802 1143.56 538.907
193 0 77.0749 13.4026 1033 61.9129 1143.74 538.118
194 0 78.0459 13.7355 1072 60.0774 1143.78 536.284
195 0 79.0873 13.0994 1036 60.6795 1143.32 536.242
196 0 85.0569 13.1794 1121 61.702 1143.79 534.499
197 0 84.1704 12.4272 1046 64.0325 1143.82 532.973
198 1 45.0195 10.9508 493 61.9554 1143.9 552.14
199 0 46.0394 11.0775 510 61.8451 1143.98 550.378
200 0 50.0676 11.125 557 61.1903 1144.06 551.804
201 0 50.0105 12.0375 602 60.2841 1144.36 550.525
202 0 52.2165 12.0268 628 61.0398 1145.01 549.764
203 0 54.1048 11.9953 649 61.2018 1144.84 550.715
204 0 53.1517 12.1915 648 61.6574 1144.67 549.928
205 0 58.1455 12.8471 747 60.1526 1144.99 548.718
206 0 58.0622 12.7794 742 61.3828 1144.76 548
207 0 60.0889 13.4967 811 60.3144 1144.91 547.058
208 0 61.1377 12.9544 792 61.6856 1145.36 544.688
209 0 64.1252 13.0526 837 60.6499 1145.17 544.35
210 0 66.1538 14.6175 967 59.1975 1145.32 542.794
211 0 66.1538 14.6175 967 157.219 1145.32 542.794
212 0 69.0889 13.5043 933 60.6088 1145.23 540.241
213 0 73.1114 13.9923 1023 59.5337 1145.48 540.436
214 0 74.1108 14.06 1042 60.0058 1145.04 536.579
215 0 79.27 12.8296 1017 60.7552 1145.11 536.148
216 0 79.0785 12.7848 1011 61.5252 1144.77 534.931
217 0 83.1251 13.5579 1127 60.2192 1144.63 534.219
218 1 46.1195 10.4511 482 59.3589 1144.09 553.45
219 0 46.0698 9.29025 428 60.8598 1143.58 552.995
220 0 48.1025 11.621 559 58.9445 1143.42 551.869
221 0 50.0586 11.5864 580 59.1345 1142.87 550.522
222 0 51.0359 11.6389 594 58.6061 1142.78 549.209
223 0 52.078 11.79 614 58.6645 1142.65 549.396
224 0 54.0922 12.5342 678 57.9897 1142.49 547.482
225 0 57.2409 11.932 683 57.978 1142.43 548.643
226 0 57.174 11.5787 662 59.3248 1143.17 547.651
227 0 58.1441 12.0907 703 58.5704 1142.86 547.219
228 0 59.0759 12.5263 740 59.1797 1142.89 545
229 0 63.0974 12.6947 801 58.6891 1142.8 544.171
230 0 64.1355 12.6763 813 58.4723 1142.7 544.877
231 0 65.2264 13.0162 849 58.6101 1142.78 545.053
232 0 66.2204 13.8175 915 58.365 1142.71 543.273
233 0 68.1988 13.4607 918 59.0632 1142.63 541.255
234 0 74.1046 13.7778 1021 58.5534 1141.96 539.481
235 0 74.1897 12.5624 932 60.2446 1141.25 539.295
236 0 78.0998 14.6223 1142 58.5219 1141.41 537.187
237 0 81.0932 12.6644 1027 60.9649 1141.2 536.66
238 0 84.1273 12.6832 1067 60.5417 1141.11 538.335
239 1 41.0935 12.3377 507 59.3097 1141.26 554.728
240 0 43.0313 12.1075 521 60.0595 1141 557.505
241 0 45.0653 13.4472 606 58.8069 1141.82 554.502
242 0 47.0441 13.2004 621 58.8551 1141.77 555.626
243 0 47.0381 12.9895 611 59.6678 1141.01 553.571
244 0 48.037 14.0517 675 58.4074 1141.24 553.216
245 0 49.0928 11.7533 577 60.6967 1141.54 554.279
246 0 52.07 12.7905 666 59.5751 1141.52 551.538
247 0 52.0607 13.5035 703 58.7269 1141.67 549.791
248 0 53.0298 12.7098 674 59.6573 1141.2 550.543
249 0 57.0402 13.061 745 58.8497 1141.07 549.676
250 0 58.0508 12.5063 726 59.449 1141.5 549.435
251 0 59.0428 13.0922 773 59.436 1141.45 548.629
252 0 63.2212 12.6382 799 59.796 1141.64 546.358
253 0 63.0434 13.4828 850 59.2729 1141.26 546.811
254 0 66.1083 12.7972 846 60.0426 1141.47 546.522
255 0 66.061 13.427 887 60.1545 1141.53 543.946
256 0 70.1816 13.6076 955 59.3372 1141.15 543.596
257 0 72.0539 13.9479 1005 59.4308 1141.3 542.343
258 0 74.1623 13.2547 983 60.2472 1141.44 541.85
259 0 77.237 12.7659 986 60.36 1140.92 541.548
260 1 38.049 10.7756 410 60.1732 1140.58 558.11
261 0 40.0743 10.6552 427 60.0258 1140.48 559.178
262 0 42.0375 11.6087 488 59.418 1140.62 558.846
263 0 43.0976 10.4878 452 62.031 1140.33 559.783
264 0 43.0976 10.6735 460 155.593 1139.32 559.644
265 0 46.1269 12.2705 566 60.2173 1140.08 557.127
266 0 46.0622 12.3963 571 61.0718 1140.23 556.622
267 0 50.1114 12.3724 620 60.6774 1140.29 554.858
268 0 50.0382 13.3498 668 60.235 1140.34 554.049
269 0 52.0707 13.3088 693 60.1328 1140.95 554.509
270 0 52.0465 13.9106 724 60.5235 1140.7 551.749
271 0 52.0465 13.853 721 148.861 1140.71 551.754
272 0 55.1668 13.2326 730 61.7411 1140.91 550.042
273 0 58.0746 12.9144 750 61.5787 1141.15 549.413
274 0 60.0945 12.497 751 62.5726 1140.84 548.045
275 0 62.127 13.5851 844 61.532 1140.82 546.906
276 0 63.0764 13.6025 858 62.5256 1140.87 546.444
277 0 65.0424 13.1607 856 63.1262 1141.09 544.612
278 0 68.0746 12.9123 879 63.3493 1141.28 543.354
279 0 71.1478 14.1817 1009 62.2735 1141 541.143
280 0 73.108 13.186 964 63.4014 1141.45 541.159
281 0 76.1849 13.7429 1047 62.6141 1141.7 541.101
282 1 38.0228 10.8882 414 64.2343 1141.83 557.824
283 0 39.0337 10.555 412 64.8107 1141.45 557.794
284 0 42.0187 13.137 552 62.5181 1141.77 557.036
285 0 42.0805 12.0721 508 63.7559 1142.43 556.864
286 0 40.0739 11.1794 448 65.933 1142.2 555.944
287 0 46.1004 12.5812 580 63.3983 1142.69 552.716
288 0 50.0719 13.0013 651 61.9877 1143.14 553.358
289 0 49.099 12.0165 590 64.1492 1142.84 553.003
290 0 50.0208 13.3344 667 63.8816 1142.9 551.477
291 0 53.1036 13.2571 704 63.7443 1143.53 549.936
292 0 54.067 13.4463 727 63.8322 1143.62 549.809
293 0 56.066 11.7718 660 66.2848 1143.71 550.203
294 0 55.1173 13.2445 730 64.6932 1143.71 549.07
295 0 57.0961 12.0499 688 66.8343 1144.08 546.503
296 0 60.0341 13.6589 820 64.8841 1143.75 545.09
297 0 61.076 13.3113 813 66.1574 1143.6 543.954
298 0 64.0739 13.8122 885 64.896 1144.03 542.184
299 0 66.0567 13.3976 885 65.5627 1144.15 540.828
300 0 67.0649 14.1356 948 64.8755 1144.63 539.062
301 0 70.0508 14.104 988 64.2581 1144.37 539.007
302 0 74.057 13.4491 996 65.0673 1145.07 537.064
303 1 39.0717 9.59775 375 64.5067 1145.01 555.896
304 0 39.0375 9.88794 386 64.5414 1145.27 554.964
305 0 36.0274 10.1312 365 64.9562 1145.07 554.255
306 0 42.1162 10.8034 455 63.3846 1145.01 553.358
307 0 44.1476 11.3936 503 62.7714 1145.3 551.344
308 0 47.1781 11.8911 561 61.6542 1145.37 551.214
309 0 45.1075 11.129 502 62.8187 1145.07 551.114
310 0 47.1099 11.038 520 62.2654 1144.58 551.606
311 0 52.0744 10.9075 568 61.9595 1145.34 549.378
312 0 52.0732 12.0984 630 147.798 1144.47 548.119
313 0 53.1667 12.6395 672 60.9137 1146.13 547.58
314 0 55.1524 12.6014 695 60.5237 1145.91 546.882
315 0 56.1368 12.1133 680 60.9735 1145.8 544.952
316 0 56.097 12.9953 729 60.7956 1145.54 543.679
317 0 58.1035 12.2024 709 61.4796 1145.54 544.715
318 0 59.0748 12.5434 741 61.444 1145.44 542.93
319 0 62.0999 12.2222 759 61.8063 1145.35 543.013
320 0 64.0939 13.4022 859 60.9511 1144.88 542.319
321 0 62.0682 13.2113 820 148.995 1143.9 541.582
322 0 70.0684 12.5877 882 61.2188 1143.94 541.674
323 0 71.2556 12.3218 878 61.7244 1143.6 540.016
324 0 74.0742 12.7575 945 61.0868 1143.79 537.625
325 0 74.0282 12.5088 926 61.9914 1144.38 536.484
326 0 78.0394 12.6474 987 61.4904 1144.25 535.389
327 0 81.0442 12.561 1018 61.332 1144.15 534.479
328 0 85.1428 13.3775 1139 60.3266 1144.33 533.26
329 0 82.1257 12.6513 1039 61.8046 1144.08 531.763
330 0 86.142 13.7331 1183 60.2992 1143.58 527.472
331 0 93.126 11.9301 1111 61.4356 1143.97 528.538
332 0 91.1248 13.1029 1194 60.9598 1143.38 526.614
333 0 96.1096 13.6095 1308 59.9985 1143.1 525.208
334 0 99.0776 13.5046 1338 60.6405 1143.12 522.581
335 0 104.221 13.3562 1392 60.2184 1142.87 523.28
336 0 107.161 12.8965 1382 60.6643 1142.86 520.8
337 0 108.2 13.3734 1447 60.5245 1142.71 518.907
338 0 112.286 13.6438 1532 60.2748 1142.71 517.426
339 0 115.155 13.3385 1536 60.5488 1142.77 515.309
340 0 118.33 13.8089 1634 59.6071 1142.99 518.103
341 0 125.319 12.8712 1613 60.6336 1142.8 514.068
342 1 64.0544 10.5535 676 60.0547 1142.58 541.654
343 0 69.0466 12.2236 844 58.513 1142.07 540.346
344 0 70.0576 12.661 887 58.7249 1142.02 539.77
345 0 72.0978 12.5385 904 58.9215 1142.01 541.238
346 0 73.0946 12.7232 930 59.2032 1141.95 539.663
347 0 75.0492 12.765 958 59.8027 1142.35 535.73
348 0 79.0908 12.6184 998 59.4559 1142.15 536.809
349 0 81.0719 12.6184 1023 59.3382 1141.33 535.743
350 0 89.1679 14.0409 1252 57.2117 1141.61 534.232
351 0 88.0852 12.522 1103 58.8477 1140.91 534.339
352 0 93.1346 13.9476 1299 57.9415 1141.05 531.475
353 0 95.0796 13.5991 1293 58.4122 1140.62 529.142
354 0 97.0925 13.4614 1307 58.7789 1139.7 527.057
355 0 97.0925 13.4614 1307 160.55 1139.7 527.057
356 0 104.128 13.7427 1431 58.1356 1140.15 526.386
357 1 57.062 9.90152 565 57.1858 1139.62 551.867
358 0 57.0236 10.2063 582 56.8522 1139.81 551.942
359 0 59.1462 10.5501 624 57.1474 1140.37 548.909
360 0 63.1428 12.2738 775 55.3097 1140.34 547.479
361 0 62.1244 12.1369 754 56.3886 1140.19 545.236
362 0 66.2061 12.7028 841 55.3579 1140.82 545.025
363 0 67.1255 11.769 790 57.0608 1140.99 542.53
364 0 69.1061 12.242 846 55.656 1141.29 543.388
365 0 73.2 12.6776 928 55.4483 1141.45 540.81
366 0 77.1364 14.0401 1083 54.2401 1141.3 539.319
367 0 79.1157 13.0947 1036 55.0396 1141.28 540.039
368 0 82.1542 12.9756 1066 55.1998 1141.54 537.033
369 0 84.1733 13.2227 1113 55.743 1141.8 534.266
370 0 87.2643 13.9232 1215 54.7811 1142.14 533.368
371 0 88.1332 12.8328 1131 55.7825 1142.81 533.81
372 0 91.1591 12.3849 1129 56.3667 1143.02 530.421
373 0 96.1804 13.7034 1318 54.8907 1142.56 527.587
374 0 99.3066 13.7755 1368 55.0409 1142.84 524.985
375 1 51.0517 10.9497 559 54.0072 1143.14 548.56
376 0 54.0964 11.498 622 53.5804 1143.16 548.482
377 0 57.1361 10.7988 617 53.6661 1143.11 549.69
378 0 57.1841 11.4717 656 54.0671 1143.56 549.526
379 0 57.1841 11.4717 656 145.45 1143.56 549.526
380 0 61.2867 11.6828 716 54.7235 1143.96 547.226
381 0 62.1651 12.1129 753 54.4449 1144.18 547.376
382 0 65.127 12.8825 839 53.8069 1144.24 546.613
383 0 69.2828 11.7489 814 55.3415 1144.4 543.204
384 0 70.2172 12.2335 859 54.8673 1144.58 542.154
385 0 72.2268 12.35 892 55.2096 1145.01 541.406
386 0 75.1054 12.3693 929 55.267 1144.17 539.132
387 0 78.2259 12.2466 958 55.166 1144.31 537.75
388 0 80.2154 12.5662 1008 55.2897 1144.66 537.853
389 0 81.2024 11.6253 944 56.6578 1145.18 536.261
390 0 87.2759 12.9933 1134 55.2601 1144.9 532.792
391 0 90.1286 12.2714 1106 55.623 1145.05 533.334
392 1 51.0861 11.0598 565 54.2407 1145.23 552.365
393 0 51.0861 11.1185 568 146.681 1146.22 552.308
394 0 51.0861 11.1381 569 146.079 1147.23 552.302
395 0 55.1501 12.4569 687 53.7365 1145.56 549.827
396 0 57.1991 11.8184 676 54.8994 1145.98 546.809
397 0 57.1497 12.616 721 55.1581 1146.04 545.162
398 0 61.2799 12.141 744 55.0108 1146.02 545.184
399 0 60.1981 12.4589 750 55.94 1146.2 544.469
400 0 64.1829 12.589 808 55.2648 1146.21 542.457
401 0 64.1284 12.6777 813 56.1033 1146.4 541.627
402 0 67.1962 12.8579 864 56.0289 1146.52 540.897
403 0 70.2117 13.2884 933 55.2101 1146.4 540.543
404 0 74.1333 13.8264 1025 54.6956 1146.23 539.33
405 0 76.2697 12.9934 991 56.1251 1146.07 537.896
406 0 76.2122 13.2918 1013 56.0721 1146.37 538.556
407 0 79.1518 13.114 1038 56.9104 1146.59 536.773
408 0 83.2428 14.1514 1178 55.9847 1146.42 533.211
409 0 86.1004 13.252 1141 57.3514 1146.8 531.857
410 0 90.2043 13.3475 1204 56.892 1146.66 531.223
411 1 44.1239 11.2864 498 57.7811 1145.87 553.412
412 0 49.1903 10.6728 525 56.581 1146.16 552.59
413 0 49.0925 11.2644 553 56.7848 1145.62 552.644
414 0 51.1344 12.5551 642 55.0919 1145.53 549.674
415 0 52.1335 13.1393 685 55.6088 1146.39 548.328
416 0 51.2449 12.372 634 57.5331 1145.34 548.601
417 0 54.1204 12.5092 677 57.7031 1145.19 547.112
418 0 56.12 12.794 718 56.4777 1145.04 548.274
419 0 57.1493 12.6686 724 57.2279 1144.55 546.402
420 0 58.0989 11.5837 673 58.5646 1144.69 546.306
421 0 60.1034 11.7464 706 58.4008 1144.61 545.885
422 0 62.1734 13.205 821 57.4154 1144.15 544.435
423 0 63.1372 12.4491 786 58.1959 1144.33 544.361
424 0 65.165 12.6141 822 59.0328 1144.65 545.013
425 0 66.1866 12.9785 859 58.5681 1144.7 544.113
426 0 67.0815 13.2674 890 58.9596 1144.16 543.337
427 0 71.1591 13.0974 932 58.4603 1143.81 542.31
428 0 72.1536 12.5288 904 60.1162 1143.37 539.228
429 0 74.0829 13.1069 971 59.656 1143.31 539.844
430 0 76.054 12.8461 977 60.3634 1143.15 537.989
431 0 79.1253 12.9921 1028 60.4086 1142.67 535.771
432 0 84.1598 12.5476 1056 60.714 1141.8 535.628
433 0 85.0767 13.4232 1142 59.5876 1142.33 535
434 0 89.1345 13.1374 1171 60.3108 1142.04 532.276
435 1 49.0451 10.7656 528 60.1856 1142.16 553.153
436 0 49.0557 11.3544 557 60.3896 1141.68 551.968
437 0 52.0865 12.1145 631 59.0808 1141.29 551.341
438 0 52.0558 10.9306 569 60.341 1141.73 551.592
439 0 56.1354 12.9686 728 58.5549 1142.13 548.968
440 0 57.1655 12.9099 738 58.8144 1141.87 548.874
441 0 58.1812 13.8017 803 57.5131 1142.11 549.611
442 0 61.1758 13.0771 800 58.33 1142.54 548.518
443 0 66.0866 11.606 767 58.7862 1142.33 548.404
444 0 67.1794 13.4416 903 56.7984 1142.85 547.86
445 0 67.1046 14.0229 941 57.2891 1142.86 546.101
446 0 68.1144 13.125 894 58.3993 1143 547.383
447 0 71.0984 13.2633 943 58.3001 1142.66 543.918
448 0 72.125 12.5754 907 59.2205 1142.76 543.667
449 0 77.1884 14.1213 1090 57.1092 1142.89 540.343
450 0 78.1164 13.1599 1028 58.7782 1142.15 539.295
451 0 81.0225 13.0951 1061 59.0594 1142.67 540.172
452 0 81.1062 13.5748 1101 59.0382 1142.77 536.83
453 0 88.1085 14.2325 1254 57.8118 1143.47 534.706
454 0 89.1588 13.6049 1213 58.7807 1143.36 534.855
455 0 91.1777 13.7753 1256 58.9331 1143.28 531.974
456 0 94.2879 14.0951 1329 58.4402 1142.52 531.418
457 1 48.0566 10.7165 515 60.4485 1142.72 552.713
458 0 51.0811 11.1 567 60.3616 1142.07 551.774
459 0 53.057 11.7609 624 59.6362 1142.4 550.535
460 0 56.0891 12.5871 706 58.1742 1142.46 549.687
461 0 56.2116 12.6131 709 58.8745 1142.5 548.128
462 0 58.1059 12.9247 751 58.6498 1142.7 547.257
463 0 60.1759 12.4801 751 58.6618 1142.12 547.943
464 0 62.2656 13.587 846 57.5745 1141.85 547.544
465 0 66.1875 13.6884 906 57.2362 1142.2 546.359
466 0 69.2615 14.5824 1010 56.5772 1142.59 544.039
467 0 70.2173 14.0849 989 57.4378 1142.41 542.907
468 0 71.2917 12.9468 923 59.0943 1142.19 543.803
469 0 75.2917 14.5036 1092 57.0275 1142.47 542.006
470 0 77.2639 13.8616 1071 57.6162 1142.11 542.591
471 0 77.4028 13.3975 1037 59 1141.97 540.333
472 0 83.4677 13.7059 1144 57.6993 1142.19 539.059
473 0 85.3847 13.1405 1122 58.6212 1142.03 537.065
474 0 89.2942 14.6034 1304 57.1296 1142.3 534.814
475 0 93.341 13.8953 1297 57.1974 1142.4 534.752
476 1 51.2569 10.3791 532 58.062 1141.93 555.177
477 0 50.2085 11.6116 583 57.3808 1142.09 555.738
478 0 50.3076 11.1315 560 58.0411 1142.68 555.823
479 0 52.0944 12.1126 631 57.878 1142.75 554.659
480 0 56.1792 13.3145 748 56.0013 1142.54 552.797
481 0 58.2298 11.7637 685 57.5912 1142.49 553.159
482 0 57.1568 12.1245 693 58.2222 1142.25 551.136
483 0 60.1336 11.8902 715 57.7063 1142.58 550.852
484 0 64.2405 12.0796 776 57.0735 1142.37 550.148
485 0 62.2305 12.1805 758 58.0963 1142.75 549.343
486 0 66.3438 12.9779 861 57.7468 1142.65 547.402
487 0 68.2817 13.2246 903 57.4363 1142.59 547.376
488 0 71.2545 13.7255 978 56.3384 1142.87 548.202
489 0 72.366 13.8186 1000 56.486 1143.26 546.277
490 0 76.3903 14.5306 1110 55.5117 1143.32 545.241
491 0 78.2168 13.795 1079 56.3234 1143.04 542.626
492 0 79.2619 12.8057 1015 57.2502 1143.71 543.721
493 0 82.1872 13.0799 1075 56.9646 1143.61 541.638
494 0 87.3831 14.0531 1228 55.0831 1143.86 541.332
495 0 89.4049 13.7129 1226 56.0538 1143.89 536.24
496 0 92.2554 13.2892 1226 56.3932 1143.17 534.499
497 1 48.2103 10.4542 504 56.2917 1142.75 557.171
498 0 50.2405 11.7634 591 54.9323 1142.62 555.506
499 0 52.306 10.993 575 55.0226 1142.59 557.129
500 0 55.2667 13.2991 735 52.898 1142.79 553.62
501 0 56.2767 12.5629 707 53.7412 1142.68 553.028
502 0 56.2082 12.4181 698 53.947 1142.84 552.291
503 0 58.4504 13.2078 772 53.0751 1142.93 551.211
504 0 59.2635 12.3347 731 54.4665 1143.04 549.907
505 0 61.3078 13.6035 834 53.2074 1142.95 548.896
506 0 63.2811 12.6894 803 54.3213 1142.97 548.056
507 0 66.212 12.8527 851 53.9542 1142.93 547.784
508 0 68.2932 12.8271 876 54.2374 1143.36 546.244
509 0 71.2749 13.2726 946 53.4926 1142.99 545.623
510 0 72.2214 12.3648 893 54.2072 1143.26 545.47
511 0 74.2806 12.8028 951 54.02 1143.4 543.602
512 0 75.1647 12.8518 966 54.3602 1142.87 541.358
513 0 79.2437 12.4679 988 54.3937 1143.35 541.366
514 0 80.195 12.1828 977 55.0502 1143.32 538.714
515 0 85.1926 12.818 1092 54.2628 1142.98 537.923
516 0 87.2889 12.0519 1052 54.9458 1143.21 534.818
517 0 89.2756 12.523 1118 53.3918 1143.23 536.026
518 0 92.3469 13.4709 1244 53.0281 1143.96 533.961
519 0 93.2884 12.7776 1192 53.7844 1144.34 535.525
520 0 93.3894 12.2284 1142 54.4492 1144.9 534.656
521 0 98.371 11.8734 1168 55.2183 1144.47 531.485
522 0 102.412 11.8541 1214 55.2875 1144.55 530.407
523 0 105.362 12.813 1350 54.5037 1144.55 525.812
524 1 63.2145 11.8644 750 52.572 1143.8 551.859
525 0 60.2388 11.5872 698 54.9155 1144.13 548.294
526 0 61.1684 12.1958 746 54.4504 1144.05 549.605
527 0 64.2361 11.1775 718 55.7716 1144.18 546.857
528 0 68.2614 13.3018 908 53.4879 1144.58 545.82
529 0 65.3076 13.3675 873 54.362 1144.57 544.644
530 0 65.3076 13.3675 873 140.448 1144.57 544.644
531 0 73.2295 13.0412 955 54.3466 1144.26 542.556
532 0 75.2192 13.4673 1013 54.6871 1144.33 541.165
533 0 78.2071 13.0806 1023 54.8319 1144.64 540.544
534 0 82.3494 13.6977 1128 53.9371 1144.91 539.012
535 0 86.1876 13.4126 1156 54.4801 1144.65 535.749
536 1 47.2435 12.4462 588 54.7466 1144.18 554.838
537 0 48.263 9.92479 479 56.5929 1143.81 554.284
538 0 50.1998 13.008 653 54.1746 1144.09 551.911
539 0 53.39 13.0549 697 53.8594 1143.77 551.694
540 0 53.2577 12.4489 663 55.1704 1143.44 551.083
541 0 54.1548 11.2825 611 56.8134 1143.04 551.447
542 0 58.3041 11.8345 690 56.0725 1143.63 549.325
543 0 57.2322 12.7027 727 56.0536 1143.23 549.466
544 0 60.2529 13.4267 809 55.2237 1143.3 546.724
545 0 61.1689 12.4083 759 57.0711 1143.67 545.531
546 0 63.2597 13.737 869 55.9218 1143.33 546.23
547 0 66.3219 12.4242 824 56.4636 1143.36 543.834
548 0 69.3166 13.8495 960 55.0469 1143.01 543.017
549 0 70.3574 13.4741 948 55.712 1142.94 542.557
550 0 74.3355 13.4525 1000 55.785 1143.29 541.608
551 0 75.2938 13.9587 1051 55.7707 1143.77 540.519
552 0 75.2938 13.9454 1050 160.129 1144.75 540.428
553 0 81.3757 13.8739 1129 56.2631 1143.29 539.407
554 0 80.3608 13.5887 1092 57.9057 1144.19 537.009
555 0 84.2837 13.9529 1176 57.6344 1143.92 536.057
556 0 88.3251 13.9938 1236 57.5275 1144.06 536.404
557 1 46.2084 11.1668 516 60.1977 1142.92 555.378
558 0 48.2297 12.1502 586 59.5051 1143.26 554.133
559 0 51.1301 11.2654 576 59.9583 1143.03 553.543
560 0 51.2382 12.1004 620 60.2 1143.19 552.731
561 0 51.1632 12.1572 622 61.0177 1143.64 551.764
562 0 54.1956 12.5102 678 59.5841 1143.73 551.482
563 0 55.1657 13.4504 742 59.7102 1143.16 550.633
564 0 58.1388 13.055 759 60.0659 1143.39 549.428
565 0 58.2258 13.2416 771 60.1556 1143.38 548.105
566 0 61.3798 13.0336 800 59.7075 1143.1 548.588
567 0 64.2024 13.8157 887 59.1939 1143.54 548.014
568 0 64.2802 13.7212 882 59.9796 1143.65 545.236
569 0 67.2842 13.7625 926 59.6156 1143.55 546.314
570 0 69.1325 13.9876 967 59.6856 1143.41 544.608
571 0 70.2488 13.1675 925 61.1178 1143.24 543.924
572 0 74.2298 13.5525 1006 60.1422 1143.05 541.901
573 0 77.2262 13.959 1078 59.8933 1142.68 541.528
574 0 83.3308 14.0044 1167 59.3085 1142.45 540.176
575 0 83.1718 15.498 1289 58.3033 1142.44 538.656
576 0 84.3265 14.8352 1251 60.0424 1142.01 538.685
577 0 87.2307 14.3527 1252 61.107 1142.66 536.94
578 0 89.311 14.3207 1279 61.3284 1142.26 535.414
579 0 93.3329 15.4179 1439 59.8652 1142.3 534.203
580 0 97.5493 14.895 1453 60.6001 1141.95 534.011
581 1 50.1502 12.1635 610 63.282 1141.23 556.456
582 0 54.3508 12.0329 654 64.3517 1141.22 555.083
583 0 56.2525 12.4261 699 62.9227 1141.03 555.422
584 0 56.3865 12.8931 727 63.7015 1141 553.465
585 0 58.1934 13.5067 786 63.2366 1140.99 552.23
586 0 60.3672 13.8651 837 62.509 1140.27 552.207
587 0 62.327 13.9105 867 63.1338 1140.85 549.106
588 0 63.3646 13.3829 848 63.809 1140.46 550.262
589 0 65.197 13.3288 869 64.229 1140.32 549.193
590 0 69.2808 13.6546 946 63.4588 1140.48 549.802
591 0 70.5038 13.5312 954 63.4916 1140.75 547.492
592 0 72.4581 13.9805 1013 62.9279 1140.73 547.474
593 0 75.3153 13.875 1045 63.4861 1140.4 545.601
594 0 78.2827 13.9494 1092 62.3233 1140.69 544.637
595 0 79.2653 13.3602 1059 63.0472 1140.7 542.738
596 0 86.2575 13.1815 1137 61.8162 1140.42 541.834
597 0 88.4129 14.3644 1270 60.0842 1140.4 540.628
598 0 91.2911 13.5391 1236 61.3034 1140.87 537.766
599 0 93.4013 14.1004 1317 60.9157 1140.48 537.078
600 1 47.2172 10.9918 519 62.6435 1139.35 558.268
601 0 50.2431 11.2055 563 61.3819 1139.67 556.616
602 0 52.1154 11.3018 589 62.2275 1140.34 555.859
603 0 52.0939 12.3239 642 61.3022 1140.25 554.706
604 0 55.2092 12.4979 690 59.6087 1139.82 554.019
605 0 57.184 12.521 716 59.4302 1140.02 551.746
606 0 59.1759 13.519 800 58.63 1139.9 549.945
607 0 62.3835 13.3529 833 59.8655 1140.38 549.441
608 0 62.2828 14.4663 901 59.9245 1140.34 548.123
609 0 64.3671 12.8948 830 62.7482 1141.2 547.411
610 0 64.1852 12.76 819 63.6447 1141.31 545.904
611 0 67.331 12.8321 864 64.1655 1140.88 544.713
612 0 70.292 13.7284 965 62.5834 1141.05 545.295
613 0 68.2988 12.826 876 65.7294 1140.9 543.494
614 0 74.414 12.6858 944 65.446 1141 541.518
615 0 78.1115 13.6856 1069 63.2039 1140.64 540.263
616 0 80.2363 13.4104 1076 65.1218 1140.59 538.602
617 0 81.2395 12.3708 1005 66.1522 1140.81 537.581
618 1 45.0617 10.6742 481 63.973 1140.21 555.85
619 0 45.0981 10.7765 486 62.7901 1140.61 554.582
620 0 45.1468 11.2079 506 60.6186 1140.46 554.016
621 0 46.214 11.6415 538 61.6877 1141.19 552.831
622 0 51.3774 12.0092 617 62.1086 1140.39 558.089
623 0 51.5786 12.1368 626 62.5958 1140.95 556.053
624 0 53.3675 12.0298 642 62.9517 1140.98 555.257
625 0 57.4555 12.2704 705 61.9319 1141.01 553.98
626 0 57.49 12.75 733 61.4543 1140.8 554.637
627 0 59.3658 12.4146 737 62.5319 1140.89 552.581
628 0 62.4563 12.841 802 61.2718 1140.75 552.167
629 0 62.4222 13.7131 856 61.5549 1141.26 550.2
630 0 65.1906 13.4528 877 61.3672 1141 548.65
631 0 67.2254 12.882 866 60.8349 1140.99 549.122
632 0 68.2879 13.4724 920 60.45 1141.24 547.996
633 0 70.4413 12.876 907 60.6097 1141.5 547.234
634 0 73.2748 13.1833 966 60.0528 1141.39 544.471
635 0 75.2256 13.3731 1006 59.7406 1141.53 542.271
636 0 78.1451 13.4237 1049 59.7112 1141.9 542.954
637 0 81.256 12.2576 996 59.995 1142.46 539.177
638 0 86.1209 13.6552 1176 57.3503 1142.11 538.077
639 0 89.2896 13.473 1203 57.729 1142.6 536.017
640 1 49.1674 11.1863 550 55.6145 1141.73 558.9
641 0 49.1759 11.4487 563 56.6217 1141.83 557.691
642 0 50.3079 12.1055 609 56.6388 1142.41 555.41
643 0 51.1817 12.778 654 56.3196 1142.53 555.368
644 0 52.1802 12.5527 655 55.9359 1142.6 554.299
645 0 54.2085 12.8947 699 55.9928 1142.53 553.046
646 0 54.1233 12.5824 681 56.8076 1142.73 551.662
647 0 57.1899 12.6945 726 55.9669 1142.55 551.105
648 0 58.2652 12.5289 730 56.1247 1142.63 550.175
649 0 60.2033 12.5242 754 56.3011 1142.5 549.419
650 0 59.2284 12.5109 741 56.5911 1143.09 548.3
651 0 63.3235 12.9968 823 55.4617 1143.37 548.046
652 0 65.188 12.5176 816 56.0257 1143.62 544.547
653 0 67.3404 13.7213 924 54.6569 1143.62 545.207
654 0 69.1867 13.2106 914 55.1116 1143.49 544.364
655 0 71.1511 13.4502 957 55.1108 1143.22 543.897
656 0 73.133 13.7694 1007 55.1966 1143.29 539.936
657 0 76.2263 13.3681 1019 55.687 1143.66 540.488
658 0 78.4304 12.9032 1012 55.8597 1143.28 541.507
659 0 78.3063 13.1662 1031 56.8632 1143.48 537.153
660 0 83.2333 14.7898 1231 54.7945 1143.46 538.306
661 0 86.2477 13.3221 1149 56.6223 1142.98 535.369
662 0 89.4154 13.5435 1211 56.6135 1144.01 534.399
663 0 93.3467 13.6802 1277 56.567 1144.25 532.901
664 1 49.1276 10.5033 516 57.9884 1143.79 553.405
665 0 54.0575 11.0068 595 57.0538 1143.5 552.615
666 0 52.0999 11.5739 603 58.0381 1143.93 550.794
667 0 54.1228 11.9728 648 57.6373 1144.37 550.343
668 0 52.1151 11.3211 590 59.8797 1144.52 549.739
669 0 56.2322 11.8437 666 58.8408 1144.95 547.82
670 0 58.2451 12.4817 727 58.5502 1144.49 548.304
671 0 60.2367 12.3679 745 58.3275 1144.68 546.47
672 0 63.1886 12.5814 795 57.9333 1144.58 544.704
673 0 63.2019 12.8794 814 58.5 1144.81 542.575
674 0 67.2197 12.1393 816 58.4828 1144.81 542.732
675 0 68.4377 12.5516 859 58.1339 1145.4 540.708
676 0 71.1988 12.5283 892 58.0953 1145.63 540.089
677 0 73.2527 12.4228 910 58.5626 1145.48 540.414
678 0 75.2283 12.1364 913 58.9047 1145.94 539.916
679 0 79.2734 13.5228 1072 57.3078 1145.41 538.311
680 0 82.1717 13.2892 1092 57.2555 1146.59 534.871
681 0 86.2272 13.7892 1189 56.5332 1146.33 533.718
682 0 87.3229 13.2955 1161 57.6253 1145.68 533.242
683 0 89.2119 13.6193 1215 57.2634 1146.22 531.348
684 1 49.1732 10.7579 529 57.7372 1145.53 553.085
685 0 47.1491 11.1561 526 59.3517 1145.48 551.479
686 0 51.1087 11.9745 612 57.6307 1144.9 551.518
687 0 51.1017 11.3891 582 58.9708 1145.05 550.983
688 0 52.2523 12.5162 654 57.6239 1145.49 549.463
689 0 54.1987 12.2697 665 58.3624 1145.66 549.176
690 0 57.311 13.2086 757 57.1744 1145.98 548.402
691 0 57.3034 12.8265 735 57.8993 1145.44 548.922
692 0 58.2707 13.6261 794 57.5239 1146.35 545.971
693 0 58.0963 12.4276 722 59.4945 1146.03 546.145
694 0 62.2332 12.5656 782 58.9309 1146.08 545.955
695 0 62.1264 13.1667 818 59.1968 1145.3 544.465
696 0 64.1455 13.8591 889 58.6895 1145.73 542.828
697 0 67.1948 12.5605 844 60.1493 1145.63 544.065
698 0 71.1424 13.48 959 58.8238 1145.02 542.344
699 0 71.1745 13.6987 975 59.2205 1144.71 541.2
700 0 72.1999 13.5457 978 59.8323 1144.33 542.04
701 0 76.2111 13.2133 1007 59.8779 1144.25 541.943
702 0 78.246 13.202 1033 60.4763 1143.86 539.043
703 0 80.2107 13.0656 1048 61.0716 1143.47 538.655
704 0 84.3248 15.0964 1273 59.1555 1144.28 536.164
705 0 85.3203 14.0412 1198 60.8447 1144.26 535.048
706 0 85.3203 14.0412 1198 171.547 1144.27 535.078
707 0 91.3011 13.91 1270 61.0008 1143.78 532.509
708 0 96.3121 14.3388 1381 60.3418 1144.07 530.994
709 1 49.1209 11.5633 568 62.2746 1143.95 552.389
710 0 51.3704 10.7455 552 62.3551 1143.26 552.757
711 0 54.1652 12.388 671 60.386 1143.09 551.794
712 0 55.2368 12.7451 704 59.5838 1142.6 551.273
713 0 57.1468 12.7216 727 60.2614 1142.99 549.849
714 0 59.2539 12.1511 720 60.8361 1142.66 549.912
715 0 60.173 13.3781 805 59.6534 1143.41 547.184
716 0 62.2873 13.1488 819 59.917 1142.68 547.52
717 0 64.1594 12.656 812 60.5025 1142.33 547.469
718 0 64.0481 12.8966 826 60.753 1142.21 545.922
719 0 68.1273 13.7243 935 58.9914 1142.51 546.211
720 0 70.167 13.0546 916 59.6932 1142.37 543.079
721 0 72.2254 13.361 965 59.2798 1142.17 543.769
722 0 75.1736 14.0874 1059 57.7205 1142.03 543.972
723 0 78.2373 12.6155 987 59.5106 1142.44 541.996
724 0 82.1722 12.9606 1065 57.9521 1141.96 542.608
725 0 84.3809 14.0553 1186 58.0034 1142.09 537.738
726 0 88.1695 14.0525 1239 56.226 1141.75 538.384
727 1 45.1074 10.5526 476 58.4622 1140.46 557.401
728 0 50.1839 10.4615 525 57.5543 1140.51 557.51
729 0 50.0783 11.6018 581 56.3666 1140.76 554.895
730 0 51.1802 11.86 607 55.4778 1140.27 553.858
731 0 51.0977 12.0553 616 54.5195 1140 553.856
732 0 56.1208 12.8473 721 53.2774 1140.6 553.441
733 0 56.1274 12.4538 699 53.4263 1140.52 554.286
734 0 59.2648 13.3638 792 52.8333 1140.97 551.572
735 0 62.1608 11.1002 690 54.3333 1140.51 552.314
736 0 61.1034 12.7325 778 53.6992 1140.48 551.114
737 0 65.1375 12.773 832 53.482 1140.93 550.844
738 0 68.242 12.1919 832 53.6094 1141.27 550.23
739 0 68.3249 13.4065 916 52.1976 1140.85 550.426
740 0 71.3263 13.7958 984 52.7063 1141.69 547.249
741 0 71.1961 13.7507 979 53.6936 1141.4 546.091
742 0 73.1989 13.757 1007 53.3386 1140.95 547.676
743 0 78.5132 14.0613 1104 53.2817 1141.62 543.564
744 0 78.2026 12.5571 982 55.4878 1140.05 543.304
745 0 83.2504 12.6125 1050 54.8657 1139.99 543.267
746 0 82.4034 11.7714 970 56.2165 1139.52 542.812
747 1 46.2505 11.935 552 54.3424 1139.48 560.348
748 0 48.192 11.6409 561 54.6578 1139.22 559.893
749 0 45.3263 11.4282 518 56.2626 1138.98 558.986
750 0 49.1746 12.9742 638 54.0517 1138.82 558.096
751 0 49.3143 13.0997 646 54.0929 1138.68 557.909
752 0 49.3143 13.0997 646 156.44 1138.68 557.909
753 0 54.1242 13.469 729 55.0631 1138.5 554.487
754 0 56.2838 13.201 743 54.8762 1138.61 556.441
755 0 56.1715 12.9603 728 56.456 1138.88 554.256
756 0 58.0671 12.6061 732 56.653 1138.74 553.98
757 0 60.2913 13.186 795 56.2918 1138.38 553.764
758 0 59.1631 12.2712 726 57.4697 1138.21 554.96
759 0 63.2227 13.5394 856 56.3984 1138.37 552.022
760 0 64.2284 12.7047 816 57.9007 1138.34 551.047
761 0 66.1574 12.7272 842 58.2613 1138.39 550.12
762 0 66.1366 12.7766 845 58.8544 1138.4 549.25
763 0 69.1499 12.0607 834 59.7002 1138.36 549.773
764 0 71.1872 13.6401 971 58.7137 1138.5 547.985
765 0 73.2258 13.3423 977 58.9294 1139.21 545.272
766 0 75.1177 13.2592 996 59.6175 1138.54 545.27
767 0 77.1715 12.4398 960 60.1396 1139.33 543.63
768 0 80.2334 13.361 1072 58.5877 1139.07 545.457
769 0 80.1677 13.11 1051 59.2493 1138.83 541.235
770 0 85.1677 14.2542 1214 57.8204 1138.64 542.66
771 0 84.1855 13.2208 1113 58.956 1138.96 542.796
772 0 91.2512 13.7313 1253 58.2953 1138.86 538.958
773 0 95.2444 14.321 1364 57.4912 1139.1 537.268
774 0 95.3538 13.2769 1266 59.1998 1138.94 536.308
775 0 100.346 13.9317 1398 58.3569 1138.91 533.595
776 0 102.434 13.5111 1384 58.7269 1138.61 534.297
777 0 106.384 13.9119 1480 58.623 1139.04 530.976
778 1 59.3196 11.7836 699 58.0343 1138.94 555.491
779 0 62.2689 11.2416 700 58.7186 1139.3 553.08
780 0 64.196 12.7422 818 56.9768 1139.46 552.844
781 0 64.1565 12.1889 782 57.8491 1138.87 551.917
782 0 65.1648 12.7983 834 57.7638 1139.17 549.448
783 0 70.1626 13.4117 941 56.1849 1139.09 548.605
784 0 73.1832 13.1588 963 56.7934 1139.08 549.32
785 0 75.2484 13.4621 1013 56.8164 1140.52 546.992
786 0 75.2649 12.6354 951 57.5731 1140.92 546.256
787 0 77.2639 13.3827 1034 56.854 1140.83 543.281
788 0 77.2702 12.5016 966 58.3002 1140.74 543.506
789 0 83.2689 12.7298 1060 57.7142 1140.78 541.421
790 0 86.3923 13.2188 1142 57.901 1140.87 540.003
791 1 45.2462 11.3822 515 57.7282 1140.83 560.21
792 0 45.2494 10.8731 492 59.3862 1141.02 560.752
793 0 46.2213 10.4497 483 59.735 1140.97 561.147
794 0 46.2104 11.0148 509 60.3222 1140.83 558.566
795 0 48.1696 11.8955 573 59.5637 1140.87 557.375
796 0 50.3664 12.9253 651 58.4992 1141.76 556.098
797 0 53.3051 12.5504 669 58.4185 1141.23 555.877
798 0 53.1644 13.5053 718 58.2521 1141.51 553.818
799 0 53.2732 12.3139 656 60.2104 1142.01 554.538
800 0 56.2322 13.4976 759 58.7088 1142.19 553.257
801 0 57.2278 13.8569 793 58.5183 1142.5 553.241
802 0 59.1516 12.7469 754 58.9748 1142.69 553.655
803 0 61.2461 13.0947 802 58.6658 1142.18 552.353
804 0 61.1736 13.2737 812 59.2463 1142.01 550.171
805 0 65.1362 12.9114 841 58.1011 1141.47 551.033
806 0 63.0706 13.2391 835 58.5928 1141.18 549.519
807 0 64.104 13.8837 890 57.2843 1141.31 548.081
808 0 68.181 14.4908 988 56.913 1142.16 545.775
809 0 69.1725 13.3579 924 58.2229 1141.8 548.123
810 0 79.2248 10.8804 862 59.3701 1142.53 548.927
811 0 78.268 12.3167 964 58.6089 1142.57 546.144
812 0 76.1167 13.7815 1049 57.979 1142.89 544.362
813 0 77.1268 13.1472 1014 59.1124 1143.12 544.267
814 0 79.2044 13.5346 1072 59.6138 1143.2 540.682
815 0 83.1954 13.7628 1145 58.4096 1143.29 540.72
816 0 85.3245 13.9233 1188 58.415 1143.38 538.543
817 0 89.3295 14.2394 1272 57.9528 1143.41 537.121
818 0 92.2048 12.7868 1179 59.6565 1143.44 535.73
819 0 95.1712 14.5317 1383 57.6746 1143.86 533.045
820 1 48.1508 12.0455 580 59.7862 1143.38 555.695
821 0 52.2037 13.658 713 57.4811 1142.94 554.425
822 0 52.1797 13.5493 707 58.4328 1143.14 553.124
823 0 54.2057 13.5779 736 58.3791 1142.97 551.439
824 0 55.1546 12.8004 706 58.7677 1143.34 551.96
825 0 57.1723 14.4475 826 57.5533 1143.77 550.662
826 0 60.2611 14.6529 883 57.0328 1143.65 550.626
827 0 58.2123 13.1244 764 59.8586 1143.52 550.01
828 0 62.2616 13.1702 820 59.1171 1143.64 548.493
829 0 63.1387 14.0484 887 58.5682 1143.66 547.386
830 0 65.2444 13.3498 871 59.8657 1143.46 545.893
831 0 67.1858 13.2915 893 60.0571 1143.09 545.685
832 0 69.1754 13.6754 946 59.4915 1142.76 546.148
833 0 69.1754 13.6609 945 162.353 1142.75 546.157
834 0 76.116 14.2546 1085 58.8811 1142.84 541.195
835 0 78.3298 14.0177 1098 59.5701 1142.2 541.285
836 0 80.2374 13.7467 1103 58.9773 1142.34 539.274
837 0 82.2158 13.6713 1124 59.4351 1142.54 538.783
838 0 84.1985 13.7176 1155 59.619 1142.31 538.425
839 0 88.2618 13.9245 1229 59.3588 1142.47 536.289
840 1 47.1338 11.1809 527 60.315 1141.55 556.552
841 0 50.0316 12.712 636 58.2799 1141.38 553.712
842 0 49.3216 11.8407 584 59.786 1141.29 555.747
843 0 49.2267 12.4526 613 59.9266 1141.31 553.626
844 0 57.1999 13.8112 790 56.6392 1142.37 551.099
845 0 54.1859 12.1249 657 60.0654 1141.65 551.014
846 0 58.4391 12.235 715 58.9175 1141.46 550.731
847 0 56.2365 12.6252 710 59.8803 1141.65 548.628
848 0 59.2344 12.1045 717 60.2022 1142.03 549.028
849 0 61.3048 12.8212 786 59.1527 1141.6 549.359
850 0 64.3154 12.7186 818 58.813 1142.2 549.279
851 0 65.2478 12.6901 828 58.9952 1142.21 546.908
852 0 67.3739 12.8685 867 58.3322 1142.51 545.884
853 0 70.248 13.2673 932 58.0333 1142.89 543.609
854 0 71.1682 12.7304 906 58.8742 1142.43 540.972
855 0 75.1808 11.6785 878 59.5091 1142.33 542.991
856 0 76.1957 11.9954 914 58.6182 1142.04 542.123
857 0 78.354 12.0096 941 58.9033 1141.83 539.559
858 1 44.199 9.2536 409 58.0782 1141.31 559.293
859 0 45.2385 10.3452 468 55.8803 1140.96 559.073
860 0 47.3502 10.2428 485 57.3299 1141.98 554.905
861 0 47.311 10.5895 501 56.519 1141.94 555.908
862 0 49.2934 9.45361 466 58.0644 1141.68 555.723
863 0 48.3645 10.6483 515 57.4971 1141.85 554.575
864 0 52.1979 11.4564 598 55.4348 1141.31 556.201
865 0 51.1922 11.7987 604 55.2483 1141.97 550.028
866 0 52.238 12.7111 664 54.7636 1141.74 550.206
867 0 55.1968 12.4283 686 55.3776 1140.33 553.074
868 0 59.1606 13.5394 801 53.2697 1140.77 552.035
869 0 59.2897 12.751 756 55.082 1141.03 550.532
870 0 61.1726 13.5028 826 54.4528 1140.67 550.915
871 0 63.2246 13.1436 831 54.8628 1140.71 550.48
872 0 66.1938 13.1734 872 54.8555 1140.34 548.584
873 0 65.1669 12.7365 830 55.8084 1141.08 546.051
874 0 69.1667 13.2434 916 54.3766 1141.19 546.481
875 0 71.1389 13.059 929 54.8805 1140.65 545.173
876 0 73.2397 12.5478 919 54.8999 1140.39 544.493
877 0 75.0673 13.0549 980 54.8439 1140.59 542.313
878 0 79.203 13.5475 1073 53.7642 1141.29 539.964
879 0 81.1303 13.3735 1085 54.6664 1140.85 539.83
880 0 84.248 13.5196 1139 54.309 1140.85 538.525
881 0 86.1513 13.604 1172 54.4923 1141.02 536.913
882 0 88.2403 12.466 1100 55.3127 1140.81 535.915
883 1 47.0763 10.6635 502 55.1633 1140.91 557.402
884 0 51.0687 11.3572 580 54.3586 1141.17 555.136
885 0 52.1635 12.1924 636 53.684 1140.88 555.576
886 0 53.1959 13.8168 735 53.5592 1141.19 553.755
887 0 54.1126 13.0469 706 54.2535 1140.95 554.814
888 0 57.163 13.1204 750 53.9253 1140.84 553.457
889 0 57.1869 12.8001 732 54.3115 1140.76 553.079
890 0 60.3184 12.7324 768 54.4323 1140.95 552.056
891 0 60.2675 12.8593 775 54.2116 1141 551.797
892 0 63.3402 12.7723 809 61.2262 1141 549.295
893 0 65.3214 14.1608 925 55.4432 1141.54 548.307
894 0 66.3245 13.5847 901 53.4373 1142.22 547.998
895 0 67.3632 14.1917 956 52.5115 1142.62 547.385
896 0 71.3483 13.6373 973 52.6125 1142.42 546.221
897 0 74.2004 13.6792 1015 52.3123 1142.93 546.071
898 0 76.1292 13.3457 1016 53.2618 1142.85 542.887
899 0 79.2621 14.5214 1151 51.4526 1142.64 540.632
900 0 80.1602 14.0344 1125 52.4169 1143.28 538.171
901 0 83.1694 14.224 1183 51.847 1142.82 538.187
902 0 87.2196 14.0565 1226 51.8075 1143.23 536.095
903 1 50.1247 11.0724 555 53.0144 1142.67 555.144
904 0 49.1897 11.5471 568 53.7359 1142.51 554.958
905 0 50.037 11.7113 586 54.3993 1142.49 554.046
906 0 53.1178 12.237 650 53.4508 1142.95 552.763
907 0 53.2291 12.775 680 53.2059 1143.67 552.05
908 0 57.1958 13.7423 786 52.1616 1143.46 550.539
909 0 58.1536 13.2924 773 52.6507 1144.17 550.706
910 0 60.2224 13.6328 821 52.7783 1144.68 549.039
911 0 62.1414 14.4992 901 51.9412 1143.7 548.388
912 0 63.2712 14.019 887 53.2424 1144.46 546.864
913 0 64.1248 13.3022 853 53.7632 1143.94 546.904
914 0 66.1635 13.9805 925 53.5492 1144.01 542.888
915 0 68.0895 13.4529 916 54.1528 1144.35 543.547
916 0 72.2294 14.1771 1024 52.9902 1144.24 540.967
917 0 72.1982 13.2967 960 54.5125 1144.76 539.84
918 0 77.1839 13.9796 1079 53.57 1144.79 538.763
919 0 77.2269 14.4639 1117 53.5703 1145.04 539.873
920 0 79.3761 13.14 1043 55.5743 1145.08 538.279
921 0 79.3761 13.1022 1040 169.262 1145.09 538.288
922 0 84.3909 13.6626 1153 56.0121 1145.61 535.091
923 0 85.3912 14.1349 1207 55.865 1145.75 533.781
924 1 45.2881 12.2107 553 55.6456 1145.19 555.467
925 0 47.2804 12.8383 607 55.7578 1145.39 553.812
926 0 46.0988 11.6272 536 57.4646 1145.67 553.119
927 0 48.1893 12.5962 607 56.9407 1146.09 551.921
928 0 50.1524 13.8179 693 55.9091 1146.13 552.307
929 0 51.1398 13.16 673 56.9034 1146.1 551.49
930 0 54.0986 14.6769 794 54.7204 1145.88 551.111
931 0 54.0556 13.6156 736 57.4253 1146.1 548.689
932 0 55.056 14.4035 793 57.1929 1145.53 549.177
933 0 55.056 14.3309 789 162.24 1144.53 549.092
934 0 58.0248 14.4593 839 57.8391 1145.68 546.262
935 0 61.0765 14.0152 856 58.4042 1145.66 546.521
936 0 62.0694 14.5321 902 58.3537 1145.25 546.178
937 0 62.0294 14.3964 893 59.5913 1145.52 544.887
938 0 65.1178 14.8807 969 58.8824 1145.45 545.188
939 0 68.1366 15.8358 1079 58.4458 1146.06 542.762
940 0 69.0921 14.6326 1011 59.8882 1145.52 543.294
941 0 71.3094 15.3977 1098 59.5701 1145.59 542.59
942 0 74.1609 15.763 1169 59.6536 1145.04 540.054
943 0 74.0893 14.6175 1083 61.7544 1144.7 537.181
944 0 77.1003 15.0064 1157 61.4546 1144.46 536.875
945 0 81.2436 15.2627 1240 61.1702 1144.19 535.948
946 0 82.0696 15.4869 1271 61.9953 1143.79 534.378
947 0 86.1384 15.2197 1311 62.5652 1143.51 532.816
948 0 89.0998 16.0045 1426 61.0715 1143.48 532.309
949 1 44.0669 11.7095 516 65.7771 1143.54 554.88
950 0 46.0708 13.7614 634 63.7744 1142.98 553.342
951 0 49.0815 13.284 652 63.9064 1143.56 552.314
952 0 49.1594 13.9546 686 64.8761 1143.13 550.671
953 0 52.2817 14.5558 761 63.3088 1142.94 551.764
954 0 53.254 14.8533 791 63.2086 1143.53 549.388
955 0 54.1805 14.3594 778 64.3188 1143.46 549.901
956 0 57.1307 14.6506 837 63.8698 1143.67 548.39
957 0 58.1641 14.5966 849 64.1991 1143.72 547.213
958 0 60.1291 14.236 856 63.8797 1142.94 548.06
959 0 62.2569 14.392 896 64.2388 1143.07 545.683
960 0 64.2461 14.1176 907 64.0011 1143.13 546.507
961 0 68.1168 14.5632 992 62.8438 1142.76 544.591
962 0 71.3595 15.1627 1082 61.9926 1142.27 543.119
963 0 71.2077 14.9703 1066 61.8396 1142.98 541.042
964 0 76.1815 15.2924 1165 60.6266 1142.77 538.247
965 0 78.314 15.2846 1197 60.1236 1142.58 536.293
966 0 83.3926 15.3611 1281 59.4668 1142.44 537.06
967 1 41.171 11.5372 475 61.9453 1142.71 557.025
968 0 41.1117 12.1133 498 61.8755 1142.38 554.311
969 0 46.3636 12.3804 574 59.885 1142.41 554.845
970 0 46.3062 12.8277 594 60.6886 1142.68 554.14
971 0 48.3697 13.3348 645 59.4264 1142.06 553.698
972 0 50.2085 13.2846 667 59.949 1142.12 550.891
973 0 52.2485 13.8186 722 58.687 1141.73 550.83
974 0 55.2665 13.9687 772 57.7189 1141.74 549.803
975 0 56.5061 13.3968 757 58.469 1141.22 548.012
976 0 56.2018 13.9675 785 58.5541 1141.28 547.229
977 0 58.4005 13.1335 767 59.6649 1141.7 546.527
978 0 60.4224 13.9187 841 58.107 1141.07 545.281
979 0 63.3118 14.0416 889 58.1575 1140.92 544.45
980 0 66.2805 14.3028 948 57.9124 1140.84 543.431
981 0 67.3708 14.0862 949 58.0653 1141.3 542.709
982 0 71.4367 14.1384 1010 57.7089 1141.17 541.361
983 0 73.263 13.6222 998 59.1643 1141.09 538.054
984 0 74.4714 13.5891 1012 58.9427 1140.54 539.004
985 0 77.3574 13.638 1055 58.9213 1140.21 538.751
986 0 81.3993 13.5628 1104 59.4303 1140.51 536.653
987 0 82.3776 14.1786 1168 59.2106 1140.6 535.675
988 0 82.3776 14.1786 1168 159.842 1141.6 535.675
989 0 89.5234 13.8288 1238 59.0452 1140.58 532.955
990 0 92.422 14.4771 1338 58.8602 1140.23 530.607
991 0 97.7409 14.8965 1456 57.6951 1140.91 528.4
992 0 97.7409 14.8965 1456 160.206 1141.91 528.4
993 1 55.1799 12.269 677 59.3058 1140.65 549.508
994 0 55.2513 12.6332 698 59.639 1140.42 549.834
995 0 57.316 13.6611 783 58.2452 1140.38 548.945
996 0 59.2773 13.6308 808 58.5606 1140.31 547.432
997 0 59.4578 13.3708 795 58.9937 1140.14 545.79
998 0 65.3296 13.7916 901 57.4062 1139.77 544.707
999 0 66.6386 14.1059 940 57.2245 1139.89 543.483
1000 0 69.2761 13.4245 930 58.328 1140.22 541.37
1001 0 69.4143 13.4842 936 58.4904 1139.78 542.524
1002 0 73.3661 13.9847 1026 58.6784 1140.27 541.3
1003 0 75.2999 13.1209 988 58.3128 1140.13 538.723
1004 0 79.5408 14.37 1143 56.79 1139.98 538.892
1005 0 81.3874 13.6139 1108 57.482 1140.36 537.93
1006 0 83.3187 13.6344 1136 58.2544 1140.51 533.867
1007 0 85.2246 12.8484 1095 58.9589 1140.8 532.111
1008 0 91.3465 14.4943 1324 56.8263 1141.09 531.416
1009 0 93.2179 14.7397 1374 57.1601 1141.2 530.54
1010 0 95.2854 14.0945 1343 57.9873 1140.79 530.05
1011 0 95.2854 14.1155 1345 172.184 1139.8 530.113
1012 0 103.279 14.3881 1486 58.6433 1140.76 525.747
1013 0 107.205 14.6448 1570 58.3191 1141.15 525.334
1014 0 111.152 13.9268 1548 59.3056 1141.38 522.043
1015 0 116.281 14.4993 1686 58.0777 1141.43 518.342
1016 0 116.281 14.4563 1681 171.556 1140.43 518.343
1017 1 65.0752 11.8171 769 58.0533 1141.06 544.278
1018 0 69.4452 13.1039 910 57.1758 1141.49 542.889
1019 0 70.4024 12.8263 903 58.2226 1140.87 542.317
1020 0 75.3696 13.5466 1021 56.8472 1140.55 542.848
1021 0 75.3842 13.4511 1014 58.3166 1141.03 537.224
1022 0 77.2456 12.7904 988 58.3573 1141.09 539.12
1023 0 81.2106 12.3013 999 58.8508 1141.16 537.238
1024 0 85.4583 12.7431 1089 58.3242 1141.6 535.383
1025 0 87.3589 12.6948 1109 58.0045 1141.56 533.5
1026 0 88.3755 13.0127 1150 166.936 1141.56 534.151
1027 0 95.3303 13.6997 1306 57.0421 1142.18 529.736
1028 0 98.4633 13.2435 1304 57.533 1142.2 529.349
1029 0 102.386 13.3417 1366 57.56 1142.17 528.232
1030 1 54.1922 9.61393 521 59.6104 1141.55 553.081
1031 0 55.2691 9.20949 509 60.0707 1141.89 553.788
1032 0 55.2691 9.13712 505 156.02 1142.84 553.853
1033 0 55.2691 9.13712 505 155.547 1143.84 553.853
1034 0 61.2181 12.382 758 56.1847 1142.39 549.153
1035 0 60.3398 11.8496 715 58.0671 1143.08 546.676
1036 0 62.2291 11.8755 739 58.0068 1143.45 546.95
1037 0 66.2377 11.806 782 57.4578 1143.56 547.217
1038 0 67.3331 12.7723 860 57.0116 1143.94 544.501
1039 0 69.2786 12.4136 860 57.1535 1143.9 544.434
1040 0 72.2206 13.1957 953 56.829 1144.55 540.832
1041 0 73.2352 13.3133 975 57.2041 1144.44 542.422
1042 0 77.267 12.6574 978 57.591 1144.52 539.527
1043 0 79.192 13.562 1074 56.811 1144.38 539.736
1044 0 80.4057 12.5862 1012 58.3014 1144.77 537.567
1045 0 82.2596 12.9225 1063 58.3744 1144.64 535.227
1046 0 86.2322 12.6751 1093 58.6404 1144.87 534.577
1047 0 90.2818 12.6604 1143 57.1811 1144.97 534.466
1048 0 94.2484 13.6766 1289 56.4825 1145.18 531.019
1049 0 95.4136 11.9899 1144 58.1329 1145.53 530.462
1050 0 99.1119 13.5705 1345 56.577 1145.87 527.734
1051 0 101.321 12.8799 1305 57.3111 1145.33 527.761
1052 0 105.188 13.1955 1388 57.4589 1146.34 523.104
1053 0 108.208 12.6793 1372 57.664 1145.62 522.501
1054 1 57.0753 11.7914 673 56.1902 1146.1 548.42
1055 0 58.1698 12.1369 706 56.6799 1145.93 547.857
1056 0 60.1664 12.0998 728 56.6813 1145.63 546.854
1057 0 61.2039 12.4012 759 56.2543 1145.64 545.846
1058 0 64.4238 12.7282 820 55.528 1145.78 542.279
1059 0 65.3417 12.4882 816 55.7108 1145.88 543.814
1060 0 67.2931 12.5867 847 55.6694 1145.77 543.848
1061 0 70.3808 12.4182 874 55.3856 1146.09 542.333
1062 0 69.432 12.7175 883 55.8063 1146.6 540.32
1063 0 74.467 11.8576 883 55.9536 1146.76 540.229
1064 0 77.6598 12.5934 978 55.1135 1146.39 540.327
1065 0 77.2484 12.1426 938 55.9606 1146.35 538.974
1066 0 81.372 12.0434 980 55.7071 1145.95 536.614
1067 0 82.3416 12.5089 1030 55.4515 1145.92 535.279
1068 0 86.4559 14.5045 1254 53.5128 1145.87 533.258
1069 1 45.5406 10.8694 495 55.0343 1144.88 554.39
1070 0 43.4822 10.717 466 55.6352 1144.51 554.103
1071 0 45.1091 11.3946 514 54.9455 1144.33 553.047
1072 0 47.4297 10.7949 512 55.875 1144.84 551.363
1073 0 47.5211 12.142 577 54.5407 1144.88 551.674
1074 0 51.3208 12.0224 617 53.3501 1144.5 549.673
1075 0 51.2716 11.7024 600 54.16 1144.84 549.45
1076 0 53.646 11.8741 637 53.664 1144.59 548.859
1077 0 54.4214 12.1827 663 53.905 1143.96 547.567
1078 0 55.3958 13.4487 745 52.6765 1144.19 546.368
1079 0 57.5345 13.3138 766 52.56 1143.47 545.423
1080 0 56.5508 11.5471 653 55.0597 1143.64 543.56
1081 0 57.5139 12.2753 706 54.3499 1143.56 543.769
1082 0 60.8668 11.9606 728 54.4437 1143.45 543.826
1083 0 64.6814 11.9045 770 54.4416 1143.24 542.639
1084 0 67.6717 13.1961 893 53.3102 1143.19 539.629
1085 0 67.4633 12.4512 840 54.4583 1143.53 540.239
1086 0 68.5429 12.6344 866 54.6212 1143.46 539.212
1087 0 68.6453 12.1349 833 55.1765 1143.68 538.72
1088 0 74.5747 12.7121 948 53.693 1143.23 537.162
1089 0 78.3517 12.4056 972 53.928 1143.29 536.219
1090 1 39.4052 10.3032 406 55.1355 1142.91 554.448
1091 0 43.4198 10.6864 464 55.0172 1142.67 552.528
1092 0 43.4194 10.5483 458 54.9498 1143 551.943
1093 0 44.2701 10.7748 477 55.26 1143.3 550.572
1094 0 46.2415 11.2669 521 54.0346 1142.59 551.572
1095 0 49.5948 12.0376 597 53.4154 1142.98 549.352
1096 0 49.4121 10.0583 497 55.2596 1142.96 550.3
1097 0 51.5931 11.0286 569 54.7996 1142.81 547.531
1098 0 52.3798 12.7912 670 52.6791 1143.02 546.281
1099 0 53.4835 12.8451 687 53.4134 1142.83 544.786
1100 0 55.3376 12.6316 699 53.3276 1142.77 546.461
1101 0 55.2683 12.6293 698 53.8854 1142.98 544.143
1102 0 58.4561 12.1288 709 54.2087 1142.78 542.803
1103 0 60.3182 12.5004 754 53.3926 1142.36 544.308
1104 0 62.2958 12.8901 803 53.1905 1142 543.614
1105 0 67.5636 12.7436 861 52.5912 1141.61 543.892
1106 0 67.4703 13.1169 885 52.817 1141.82 541.446
1107 0 70.4973 13.2913 937 52.4706 1141.95 540.198
1108 0 72.4473 13.7203 994 51.9849 1141.82 539.578
1109 0 77.6124 13.3355 1035 51.8106 1142.01 539.5
1110 0 79.6817 12.7005 1012 52.3883 1142.39 537.432
1111 0 79.656 13.0185 1037 52.7117 1142.69 535.068
1112 0 84.7211 13.6684 1158 51.3955 1141.94 537.275
1113 0 86.6763 13.5216 1172 52.1169 1141.72 534.21
1114 0 90.489 12.6424 1144 52.5874 1141.37 531.285
1115 0 92.5356 12.7735 1182 52.3409 1141.41 530.368
1116 0 94.1815 13.2616 1249 52.281 1140.96 527.708
1117 0 99.2948 12.4981 1241 52.8074 1140.85 526.616
1118 1 59.0347 12.0099 709 49.6996 1139.85 550.975
1119 0 57.0576 11.3219 646 52.8901 1140.75 549.868
1120 0 61.1432 11.9882 733 51.2306 1141.39 548.423
1121 0 63.1003 11.8858 750 51.072 1141.56 549.943
1122 0 65.1397 12.0817 787 51.3571 1141.24 547.987
1123 0 66.0807 12.3334 815 51.5399 1142.09 547.816
1124 0 66.1558 11.9113 788 51.6777 1141.05 549.305
1125 0 67.3761 12.7048 856 51.3294 1141.15 546.186
1126 0 69.2675 12.5167 867 51.1211 1141.26 547.424
1127 0 73.238 11.647 853 51.8265 1141.01 545.393
1128 0 74.3379 11.636 865 51.6532 1140.79 546.076
1129 0 75.2614 12.3038 926 51.8499 1141.01 543.605
1130 0 78.1689 11.5775 905 52.5271 1141.21 542.719
1131 0 82.2276 13.3289 1096 51.0794 1141.53 540.08
1132 0 83.1587 12.1815 1013 52.5755 1141.31 540.79
1133 0 85.2534 12.9027 1100 52.7145 1142.06 536.222
1134 0 88.2671 11.8957 1050 53.841 1141.22 535.818
1135 0 92.1656 13.2045 1217 52.7749 1141.73 535.908
1136 0 94.1973 12.9515 1220 53.5385 1141.6 531.115
1137 0 96.2298 12.3247 1186 54.425 1141.88 533.844
1138 0 100.228 13.3894 1342 53.5313 1141.8 531.452
1139 0 103.222 13.8439 1429 53.1756 1142.1 530.232
1140 0 106.353 13.0038 1383 53.9646 1141.76 529.095
1141 1 59.1425 10.6184 628 53.3869 1141.86 552.734
1142 0 61.1403 10.7621 658 54.1322 1141.78 552.422
1143 0 61.1368 12.1531 743 53.6514 1142.17 549.491
1144 0 63.2503 12.3636 782 54.2468 1142.91 550.024
1145 0 65.151 13.0159 848 53.5637 1142.89 548.768
1146 0 68.1857 11.3367 773 55.1669 1142.79 548.418
1147 0 69.2134 12.0786 836 54.4151 1143.36 546.981
1148 0 69.2444 11.9576 828 54.8358 1143.14 545.275
1149 0 74.1304 12.1812 903 53.8616 1144.05 544.584
1150 0 74.0808 11.6494 863 54.5956 1144.27 544.37
1151 0 77.112 12.4235 958 53.8726 1144.58 541.752
1152 0 81.2265 12.1512 987 53.5856 1144.18 540.431
1153 0 83.2278 11.9311 993 53.1511 1144.37 541.028
1154 0 86.1377 12.8515 1107 52.2556 1144.49 538.912
1155 0 87.2684 11.5047 1004 53.7839 1144.6 538.049
1156 0 90.2108 12.4043 1119 52.6676 1144.98 534.719
1157 0 94.2652 12.7194 1199 52.251 1145.22 533.437
1158 0 95.1562 10.7087 1019 53.0873 1145.34 533.898
1159 0 98.242 13.0596 1283 51.3359 1145.68 528.441
1160 0 103.35 12.7528 1318 51.5713 1145.65 526.998
1161 0 106.27 12.9858 1380 51.3572 1146.68 525.629
1162 0 106.185 12.2428 1300 52.0431 1147.01 525.831
1163 0 112.383 13.374 1503 50.322 1147 522.668
1164 0 113.133 11.7295 1327 51.3617 1147.07 521.833
1165 0 119.304 13.8889 1657 49.4683 1147.51 518.139
1166 1 51.1677 10.1236 518 52.027 1146.62 552
1167 0 53.0976 10.4525 555 51.8072 1145.92 552.148
1168 0 58.1098 11.289 656 50.7043 1146.09 550.188
1169 0 60.123 12.042 724 49.6519 1146.06 548.037
1170 0 61.1574 12.2634 750 49.816 1146.62 544.728
1171 0 65.1882 12.4409 811 49.0962 1147.12 545.308
1172 0 65.1419 12.1734 793 49.3405 1147.09 544.898
1173 0 67.1298 12.2896 825 49.4776 1147.92 540.087
1174 0 71.1633 11.4385 814 50.0786 1148.88 543.285
1175 0 71.1992 12.3316 878 49.7665 1148.03 539.982
1176 0 73.2428 12.5883 922 50.3557 1148.07 538.886
1177 0 83.3301 9.93638 828 51.5072 1147.54 540.331
1178 0 84.1764 10.2879 866 52.0081 1147.58 540.59
1179 0 84.1667 13.6634 1150 49.4948 1147.25 535.707
1180 0 84.1561 14.6157 1230 49.4943 1148.14 533.742
1181 0 87.2437 13.8463 1208 50.4512 1148 532.17
1182 0 89.1963 13.6104 1214 50.8633 1147.33 533.012
1183 0 92.3091 14.4298 1332 50.461 1147.21 531.206
1184 0 94.2141 13.5755 1279 51.5238 1147.16 529.834
1185 0 97.2459 13.4504 1308 51.9266 1147.55 528.764
1186 0 99.1154 13.8324 1371 52.1276 1147.4 526.33
1187 0 100.251 13.9251 1396 52.5931 1146.75 528.356
1188 0 102.289 13.5694 1388 53.178 1146.84 527.771
1189 0 106.389 14.2872 1520 52.6684 1147.21 525.227
1190 0 112.512 14.434 1624 52.2703 1146.44 522.902
1191 0 115.342 14.7475 1701 52.2892 1146.63 522.739
1192 0 116.442 14.0585 1637 53.0849 1146.23 516.18
1193 0 119.458 14.1305 1688 53.141 1146.09 516.936
1194 0 123.356 15.0135 1852 52.7921 1146.19 514.198
1195 0 128.365 15.2222 1954 52.8562 1145.83 510.185
1196 0 131.498 14.9204 1962 53.6065 1146.11 509.562
1197 0 136.412 15.2479 2080 53.5231 1146.13 509.65
1198 0 140.356 15.3253 2151 53.9396 1145.89 504.444
1199 0 144.16 15.9892 2305 53.3761 1145.5 506.027
1200 0 147.347 14.5914 2150 55.0549 1145.19 504.059
1201 0 147.347 14.571 2147 162.528 1145.19 504.089
1202 0 156.394 14.796 2314 55.5164 1145.04 497.91
1203 0 163.296 16.069 2624 54.3906 1145.09 494.686
1204 0 160.301 14.8034 2373 56.729 1144.56 492.675
1205 0 162.417 13.3545 2169 57.9516 1144.48 497.207
1206 1 92.3571 11.9319 1102 57.6189 1144.39 530.472
1207 0 94.2103 12.1961 1149 57.5065 1144.67 529.198
1208 0 98.217 13.2462 1301 57.0315 1144.9 525.739
1209 0 99.1649 12.696 1259 58.2669 1145.13 523.526
1210 0 104.102 14.6299 1523 55.4498 1145.06 523.016
1211 0 108.221 13.7219 1485 56.4296 1145.37 520.757
1212 0 110.167 13.2708 1462 57.5698 1144.44 519.709
1213 0 112.095 14.0774 1578 56.7845 1144.53 518.218
1214 0 116.297 13.5515 1576 57.2722 1144.34 518.464
1215 0 121.146 14.4206 1747 56.4602 1144.1 516.069
1216 0 124.211 14.5237 1804 55.6591 1143.98 515.261
1217 0 128.107 14.5035 1858 56.1356 1143.21 512.395
1218 0 132.169 13.5962 1797 56.7474 1143.38 510.653
1219 0 137.211 14.2117 1950 55.6646 1143.36 510.179
1220 0 142.254 14.0804 2003 55.7529 1143.05 507.152
1221 0 146.243 14.5716 2131 55.0746 1143.66 505.258
1222 0 151.21 14.4302 2182 55.341 1143.12 501.862
1223 0 155.223 14.5983 2266 54.8288 1143.62 500.729
1224 0 160.207 13.9694 2238 55.3878 1143.06 500.012
1225 0 167.266 15.6518 2618 53.7456 1142.81 495.547
1226 0 173.29 13.7169 2377 55.8187 1142.27 492.713
1227 0 178.692 15.0314 2686 54.4613 1142.91 486.893
1228 0 184.329 14.3059 2637 55.3098 1142.29 486.19
1229 0 190.515 13.7837 2626 55.7479 1142.8 484.593
1230 1 142.227 13.7246 1952 55.3847 1142.49 507.786
1231 0 144.305 13.8456 1998 56.0035 1142.28 507.592
1232 0 151.246 14.3739 2174 54.9871 1142.28 505.951
1233 0 152.291 14.7283 2243 55.2884 1142.53 501.971
1234 0 157.256 14.842 2334 55.0964 1143.01 498.174
1235 0 162.18 15.0574 2442 55.4447 1142.73 497.626
1236 0 167.451 14.5176 2431 55.7729 1143.01 497.775
1237 0 169.288 13.8817 2350 56.9664 1142.68 495.481
1238 0 175.449 14.8647 2608 56.1296 1142.65 490.959
1239 0 178.525 13.7236 2450 58.0061 1142.36 489.433
1240 0 185.648 15.0661 2797 56.5034 1142.45 483.198
1241 0 193.519 14.5516 2816 57.2173 1143.05 482.828
1242 0 200.566 15.0823 3025 56.4836 1142.83 477.345
1243 0 207.841 14.5207 3018 56.666 1142.98 478.488
1244 0 214.832 14.9372 3209 56.6557 1142.56 470.831
1245 1 169.689 11.9042 2020 58.7619 1142.3 504.48
1246 0 177.789 13.3923 2381 58.0365 1142.4 494.804
1247 0 183.452 14.6414 2686 57.4914 1142.59 490.853
1248 0 187.431 14.2293 2667 59.7732 1142.54 484.564
1249 0 192.674 15.2745 2943 59.5392 1142.48 480.653
1250 0 192.674 15.2745 2943 165.157 1143.48 480.653
1251 1 201.448 13.954 2811 61.9552 1142.18 477.073
1252 0 209.573 14.792 3100 61.2406 1142.03 474.585
1253 0 213.456 14.3355 3060 62.6 1142.66 473.714
1254 0 220.385 15.2324 3357 62.0795 1142.38 472.826
1255 0 227.4 16.051 3650 61.2452 1142.64 466.66
1256 0 231.419 14.6271 3385 63.5876 1142.61 465.658
1257 0 239.495 15.5703 3729 62.4489 1142.86 462.2
1258 0 247.745 15.0841 3737 63.5499 1143.4 461.679
1259 0 251.563 17.0971 4301 61.1195 1143.71 456.265
1260 0 257.684 17.2226 4438 60.8925 1143.78 451.206
1261 0 262.556 16.4727 4325 62.4858 1143.69 446.41
1262 0 271.706 16.9264 4599 61.701 1143.83 445.244
1263 0 279.777 16.2951 4559 62.6161 1143.94 440.517
1264 0 286.739 16.6284 4768 62.4805 1144.07 436.719
1265 0 296.619 16.9679 5033 62.0745 1144.25 432.826
1266 0 305.709 17.1176 5233 61.5951 1144.2 431.378
1267 1 57.4104 10.8865 625 60.04 1146.98 547.93
1268 0 61.2587 11.8187 724 60.355 1147.19 548.424
1269 0 61.054 11.2196 685 61.3416 1147.23 549.117
1270 0 59.0815 10.5617 624 63.7147 1147.18 547.994
1271 0 61.0776 11.8374 723 63.7524 1146.93 548.025
1272 0 61.0909 12.1949 745 64.7826 1147.11 547.605
1273 0 61.1032 12.438 760 65.404 1146.91 549.176
1274 0 62.0744 12.5978 782 66.546 1147.21 546.561
1275 0 62.0538 11.909 739 67.6739 1146.99 548.28
1276 0 65.1244 13.0826 852 66.5 1146.94 548.126
1277 0 64.0796 12.6873 813 68.1784 1146.7 547.148
1278 0 65.2539 13.1946 861 67.4472 1146.81 546.549
1279 0 66.1317 13.5034 893 67.9328 1147.47 547.017
1280 0 65.1519 13.1999 860 69.7233 1147.7 546.956
1281 0 66.1323 12.853 850 71.3071 1147.85 546.479
1282 0 67.1804 13.6647 918 71.1492 1147.56 546.922
1283 0 65.0778 13.4454 875 74.3017 1147.25 547.461
1284 0 66.1109 13.3261 881 74.8786 1147.57 547.523
1285 0 66.1412 14.212 940 75.65 1147.66 546.726
1286 0 65.2142 13.862 904 76.1361 1147.83 547.219
1287 0 65.1114 13.1928 859 78.8137 1147.15 548.625
1288 0 65.1917 13.3606 871 78.7956 1147.3 547.909
1289 0 66.0912 13.9504 922 77.1941 1147.34 547.411
1290 0 67.1228 13.3636 897 78.0212 1147.2 547.775
1291 1 33.0283 10.8089 357 79.5658 1146.14 562.868
1292 0 33.0096 10.8756 359 77.8942 1145.83 563.362
1293 0 33.1006 10.6343 352 81.3494 1145.81 564.429
1294 0 32.0862 10.1601 326 77.8834 1145.03 563.074
1295 0 34.0129 11.6426 396 76.0657 1145.58 562.934
1296 0 33.0046 10.6652 352 79.1477 1145.25 562.636
1297 0 34.0558 9.36698 319 81.2571 1144.66 564.138
1298 0 32.0366 10.5504 338 78.1272 1144.4 561.97
1299 0 34.046 11.4551 390 75.3359 1144.22 562.197
1300 0 36.0835 10.642 384 74.6484 1144.43 569.38
1301 0 34.0208 10.8757 370 76.9649 1144.61 565.773
1302 0 34.0277 11.3437 386 77.3161 1144.45 563.223
1303 0 35.0677 11.0073 386 76.4922 1144.57 564.453
1304 0 35.0152 11.3665 398 76.6759 1143.54 563.224
1305 0 34.0243 11.3448 386 77.6865 1143.57 563.741
1306 0 33.0089 11.6029 383 78.1593 1143.43 563.462
1307 0 33.0163 11.0248 364 79.6786 1144.02 563.569
1308 0 33.0296 11.1113 367 78.0708 1143.68 564.907
1309 0 34.0329 10.6955 364 78.6374 1143.29 565.335
1310 0 36.0331 10.6846 385 78.1584 1143.58 563.592
1311 0 35.0583 10.6109 372 78.3656 1143.25 563.352
1312 0 35.0746 12.0315 422 73.3839 1143.69 564.739
1313 0 35.0389 11.2161 393 74.6743 1142.92 565.982
1314 0 34.0124 11.0842 377 76.756 1142.75 565.499
1315 0 35.0469 12.1551 426 73.9742 1142.06 566.65
1316 0 34.0054 11.5276 392 75.648 1142.46 566.263
1317 0 34.0068 11.733 399 72.9298 1142.32 565.93
1318 0 35.0063 10.9409 383 75.6893 1142.8 564.744
1319 0 34.014 11.2601 383 75.0026 1142.53 566.431
1320 0 36.0179 11.2444 405 73.084 1142.36 566.563
1321 0 36.0276 10.9361 394 74.8858 1142.32 565.706
1322 0 36.0617 10.9535 395 74.6633 1142.25 565.446
1323 0 34.0413 11.9267 406 73.8941 1142.11 566.268
1324 0 35.0112 12.0533 422 73.2109 1142.06 565.246
1325 0 37.1375 11.9286 443 72.2867 1143.12 567.756
1326 0 35.0172 11.2802 395 74.3975 1143.08 565.646
1327 0 36.0452 11.8185 426 73.0164 1142.43 565.991
1328 0 36.0452 11.8185 426 161.575 1142.43 565.991
1329 0 36.0074 11.4143 411 73.0365 1142.54 565.178
1330 0 36.0184 11.2443 405 73.3457 1142.24 565.437
1331 0 36.0269 11.6024 418 73.1986 1142.14 566.215
1332 0 35.0183 11.3369 397 73.7557 1141.75 565.617
1333 0 37.0745 11.4364 424 73.1368 1141.56 565.594
1334 0 34.0165 10.7889 367 75.2916 1141.25 565.932
1335 0 36.0168 11.8833 428 72.4229 1140.93 565.519
1336 0 36.0472 12.012 433 73.2286 1141.25 565.229
1337 0 35.0463 11.8415 415 73.5614 1141.06 565.571
1338 0 36.058 11.953 431 72.174 1141.21 565.515
