time division length width area intensity CMx CMy
0 0 72.209 13.0039 939 64.3078 1210.63 558.181
1 0 73.1886 12.2287 895 66.124 1210.49 555.842
2 0 76.3168 12.2516 935 65.8759 1210.17 555.111
3 0 80.2979 13.1386 1055 65.3071 1210.04 554.283
4 0 83.3002 13.0612 1088 66.1847 1210.19 552.242
5 1 43.1748 9.00989 389 67.9871 1210.38 572.812
6 0 45.1382 11.9189 538 64.5279 1209.94 570.825
7 0 47.2399 11.4522 541 64.3678 1209.9 570.725
8 0 47.1667 12.742 601 64.4343 1210.34 570.458
9 0 49.0561 11.599 569 66.2408 1209.06 570.561
10 0 50.0346 11.7718 589 67.382 1209.99 568.061
11 0 53.0278 12.9932 689 66.3556 1209.31 567.848
12 0 53.0779 11.9824 636 68.3098 1209.72 567.173
13 0 55.0506 13.6783 753 64.6826 1209.43 566.578
14 0 56.0901 12.2125 685 67.5197 1209.62 565.638
15 0 58.1239 12.6282 734 67.3747 1209.88 565.037
16 0 59.1211 11.7386 694 68.3386 1209.95 563.922
17 0 62.1287 12.957 805 66.2907 1209.72 562.355
18 0 62.0745 12.1306 753 66.7317 1209.44 562.02
19 0 66.102 12.9648 857 64.93 1209.5 559.701
20 0 67.0872 12.2974 825 66.2097 1209.67 560.297
21 0 70.1463 13.8425 971 63.2812 1209.68 559.105
22 0 71.1853 12.7133 905 65.0365 1209.66 557.987
23 0 74.1161 13.0471 967 64.1675 1209.91 557.929
24 0 77.149 12.923 997 64.9127 1210.14 553.588
25 1 39.0272 10.0955 394 63.5736 1210.3 574.81
26 0 41.0368 9.60114 394 65.8553 1210.56 572.594
27 0 44.0791 10.345 456 65.7939 1210.6 570.702
28 0 45.0495 11.0323 497 65.1529 1210.86 570.235
29 0 45.0622 11.584 522 65.592 1211.33 568.992
30 0 46.045 11.6625 537 66.0354 1211.12 568.944
31 0 48.0265 12.389 595 65.084 1211.47 568.837
32 0 50.0202 12.1751 609 65.3744 1210.74 569.775
33 0 50.0111 11.1375 557 67.3034 1211.42 569.023
34 0 51.0117 11.3699 580 66.5534 1211.05 569.505
35 0 52.0474 11.0092 573 67.8482 1211.05 567.805
36 0 56.0924 12.4081 696 65.2529 1211.06 566.49
37 0 56.07 12.7697 716 65.4721 1211.46 565.943
38 0 58.0748 12.7078 738 65.4011 1211.47 565.864
39 0 59.0769 11.9505 706 66.694 1211.18 564.341
40 0 62.0999 12.7858 794 65.6486 1211.95 562.825
41 0 64.0659 12.0969 775 66.1742 1212.14 563.008
42 0 64.0576 13.6127 872 65.2489 1212.19 561.413
43 0 67.0758 12.5082 839 66.1669 1211.69 561.17
44 0 68.1054 12.4513 848 67.0802 1212.08 559.712
45 0 72.085 13.5951 980 65.35 1212.1 557.371
46 0 75.1207 13.4051 1007 65.578 1212.19 555.979
47 0 76.1563 12.8683 980 66.9959 1212.85 556.366
48 0 74.0586 12.058 893 68.6461 1212.51 557.384
49 0 82.0598 13.5145 1109 66.6312 1212.71 553.007
50 0 82.069 13.3912 1099 67.5023 1212.4 552.052
51 0 87.0828 13.2058 1150 67.5583 1212.73 551.941
52 1 47.1031 10.8061 509 68.7092 1213.22 568.185
53 0 50.1808 12.3952 622 66.0482 1212.78 568.469
54 0 52.1033 12.6863 661 65.7216 1212.02 567.602
55 0 53.1068 12.6726 673 58.9941 1212.31 567.826
56 0 53.1236 11.878 631 60.8859 1212.88 566.615
57 0 57.172 12.0514 689 60.508 1213.14 565.901
58 0 58.1328 12.351 718 60.1198 1212.67 566.386
59 0 58.0745 12.6217 733 60.3984 1213.19 564.989
60 0 60.1192 13.0408 784 60.1671 1213.36 564.473
61 0 61.0236 12.2739 749 61.9279 1212.89 562.131
62 0 65.0912 11.891 774 61.5749 1212.36 561.403
63 0 65.1666 12.89 840 60.9631 1212.4 559.725
64 0 67.0632 13.0623 876 61.0548 1212.36 557.477
65 0 68.0573 13.4739 917 60.867 1212.6 554.644
66 0 74.082 11.8247 876 60.718 1212.25 558.41
67 0 76.1583 13.577 1034 58.8607 1213.28 555.418
68 0 77.0622 12.2498 944 60.3051 1213.36 554.476
69 1 43.114 10.1823 439 58.4123 1212.69 572.164
70 0 43.0641 10.5657 455 58.0945 1211.86 572.53
71 0 46.1345 11.163 515 57.466 1212.36 569.563
72 0 48.093 11.7689 566 57.1413 1213.28 567.247
73 0 51.033 12.0706 616 57.099 1213.32 566.419
74 0 50.0847 11.8399 593 58.1265 1213.8 565.673
75 0 51.1052 10.7425 549 59.4262 1213.84 566.543
76 0 53.193 13.2536 705 57.1064 1214.15 563.165
77 0 54.0364 11.4923 621 58.1739 1214.02 563.729
78 0 57.0611 11.6892 667 58.1979 1214.49 560.732
79 0 61.0787 13.7691 841 55.5755 1214.31 561.228
80 0 59.098 13.283 785 57.5682 1214.72 557.87
81 0 62.0894 13.8349 859 56.6973 1214.15 557.996
82 0 63.0837 12.4121 783 58.304 1214.72 558.078
83 0 65.0938 13.5497 882 57.6587 1214.66 556.305
84 0 65.1109 12.6707 825 59.1988 1215.31 556.221
85 0 69.1642 12.3908 857 59.133 1215.77 552.52
86 0 70.23 12.516 879 58.6052 1216.08 552.686
87 0 73.0807 12.0825 883 58.6795 1216.12 550.93
88 0 77.1322 12.1998 941 57.4283 1215.89 549.427
89 0 76.088 13.7472 1046 54.9331 1216.17 547.48
90 0 78.1294 12.9785 1014 56.1568 1216.29 544.006
91 0 82.061 12.7466 1046 61.4857 1217.01 545.013
92 0 85.2212 12.1683 1037 64.6104 1217.47 543.156
93 0 89.2071 13.6648 1219 60.2198 1217.94 539.796
94 0 91.3178 13.4585 1229 60.7738 1217.73 539.948
95 0 94.2023 13.3861 1261 59.004 1217.38 537.064
96 0 96.2756 12.942 1246 58.3499 1218.08 537.032
97 0 101.198 13.7454 1391 81.8584 1218.42 534.779
98 0 103.335 14.4579 1494 56.2644 1217.81 535.662
99 0 107.195 14.301 1533 56.5329 1217.04 534.338
100 0 111.326 14.0578 1565 58.1176 1217.17 530.659
101 0 113.334 13.3147 1509 61.3943 1217.82 529.798
102 0 116.368 14.4885 1686 61.6542 1217.85 523.639
103 0 120.19 13.254 1593 61.452 1217.66 524.239
104 0 125.363 14.6774 1840 59.6967 1217.74 523.086
105 0 132.392 15.016 1988 58.6122 1217.69 520.4
106 1 65.2327 9.56576 624 64.5962 1217.42 551.82
107 0 70.2081 11.238 789 64.5234 1217.44 548.005
108 0 72.1523 12.6954 916 64.3515 1217.32 547.933
109 0 75.3153 12.8394 967 61.8966 1217.3 546.025
110 0 75.1826 11.4122 858 63.2308 1217.61 545.725
111 0 78.3905 14.0068 1098 58.7596 1217.68 545.374
112 0 84.3382 13.0546 1101 59.2879 1217.79 543.845
113 0 82.2997 13.6209 1121 60.2462 1217.92 540.6
114 0 85.296 14.5259 1239 59.9193 1218.12 538.133
115 0 86.3049 12.7803 1103 62.4053 1217.8 536.267
116 0 92.3578 14.2814 1319 59.5694 1217.02 536.809
117 0 91.1944 14.5184 1324 59.8603 1217.71 537.381
118 0 92.2796 12.6247 1165 62.1983 1217.61 536.834
119 0 99.4285 15.4684 1538 57.6209 1217.51 539.019
120 0 105.272 12.3109 1296 61.7431 1217.3 533.296
121 0 105.316 14.1764 1493 59.9712 1217.09 532.53
122 0 114.298 14.3135 1636 58.9444 1217.62 530.466
123 0 113.309 14.1913 1608 59.4646 1217.52 529.124
124 0 113.242 12.619 1429 61.8859 1217.15 528.796
125 0 119.414 15.4338 1843 59.076 1216.94 524.585
126 0 122.361 15.7812 1931 58.4775 1216.48 521.397
127 0 120.211 11.6212 1397 63.3944 1216.58 520.935
128 0 123.151 12.3425 1520 61.6441 1216.42 526.241
129 0 121.275 10.9091 1323 63.0529 1216.55 527.881
130 0 122.253 9.48036 1159 64.8533 1216.3 529.719
131 1 73.094 11.4373 836 62.1866 1216.15 546.172
132 0 76.1491 13.1059 998 60.6754 1216.03 544.356
133 0 84.1214 10.889 916 62.5775 1215.83 545.749
134 0 86.1595 12.6858 1093 60.9195 1216.24 545.764
135 0 84.1787 13.0674 1100 62.1509 1216.12 541.555
136 0 84.1303 12.7778 1075 63.6912 1216.14 539.047
137 0 85.1176 13.546 1153 63.1023 1215.82 540.321
138 0 92.1615 14.8001 1364 62.1466 1215.94 535.927
139 0 94.2302 14.2417 1342 62.7988 1215.43 537.059
140 0 97.1587 11.8569 1152 66.217 1216.08 535.18
141 0 98.1401 14.0615 1380 64.363 1215.68 533.444
142 1 113.218 11.5618 1309 64.8144 1215.59 537.272
143 0 112.143 11.7261 1315 66.911 1216.09 530.928
144 0 112.143 11.7885 1322 173.676 1216.11 530.995
145 0 114.152 14.3405 1637 64.5846 1215.84 527.185
146 0 119.237 14.6347 1745 64.318 1215.76 524.468
147 1 75.1161 10.0245 753 64.7503 1216.35 550.053
148 0 72.1163 9.60948 693 66.8283 1216.34 549.727
149 0 74.1889 11.309 839 64.6722 1216.57 548.375
150 0 73.0995 11.1218 813 66.4686 1215.76 546.157
151 0 73.1602 11.5773 847 66.0732 1215.8 546.432
152 0 77.0849 13.4527 1037 63.4754 1215.96 544.491
153 0 76.0962 11.6169 884 66.293 1216.18 543.974
154 0 80.1205 12.6559 1014 64.5483 1215.89 542.29
155 0 82.0987 12.6677 1040 63.0913 1215.1 545.444
156 0 84.2974 12.3254 1039 64.41 1215.1 541.174
157 0 88.1675 13.7012 1208 62.8154 1215.51 538.13
158 0 88.2562 12.1238 1070 64.7486 1215.11 538.611
159 0 95.2093 13.4441 1280 62.0117 1215.1 537.331
160 0 95.1797 11.9353 1136 64.2086 1215.25 535.799
161 0 99.3618 12.7614 1268 63.2319 1214.99 534.114
162 0 100.341 12.308 1235 64.2308 1215.1 531.39
163 0 104.486 13.6382 1425 61.8758 1215 532.41
164 0 108.296 14.2942 1548 61.0911 1215.78 531.767
165 0 105.32 12.2579 1291 64.8087 1215.95 528.372
166 0 114.141 13.3168 1520 63.277 1215.94 523.054
167 0 125.184 12.9969 1627 62.6152 1215.81 525.091
168 0 123.277 12.8896 1589 63.776 1215.88 521.389
169 0 124.365 14.2885 1777 61.6066 1216.24 523.984
170 0 129.34 14.7363 1906 61.2487 1216.42 517.576
171 0 130.287 13.194 1719 63.6416 1216.17 514.259
172 0 135.234 14.1902 1919 62.4794 1216.35 513.739
173 0 138.32 13.8737 1919 63.6477 1216.36 509.63
174 0 146.29 15.148 2216 61.7992 1216.87 510.29
175 0 148.197 13.7587 2039 64.3551 1216.95 506.8
176 0 154.31 13.5052 2084 64.274 1216.81 502.338
177 0 159.371 14.8521 2367 62.9708 1216.96 500.017
178 0 167.316 15.0553 2519 62.3696 1217.1 499.556
179 0 172.259 15.3606 2646 61.8515 1217.37 494.862
180 1 100.177 11.1902 1121 62.6789 1217.54 531.508
181 0 103.415 12.4063 1283 62.7342 1217.63 527.053
182 0 103.415 12.3966 1282 161.249 1217.62 526.911
183 0 103.415 12.4353 1286 160.639 1217.65 526.791
184 1 115.194 12.7785 1472 62.5482 1217.93 523.404
185 0 117.277 12.6624 1485 63.2795 1218.13 519.337
186 0 123.287 13.5943 1676 60.898 1217.97 515.549
187 0 123.22 12.6603 1560 62.1167 1218.18 515.964
188 0 128.222 13.0477 1673 61.9492 1218.63 513.8
189 0 135.28 13.7789 1864 61.1137 1218.57 511.871
190 0 135.242 11.8158 1598 63.4324 1218.52 508.081
191 0 143.514 12.3751 1776 62.5524 1218.72 505.894
192 1 70.176 9.36218 657 60.1355 1218.89 545.451
193 0 72.2026 10.5813 764 57.9673 1220.2 542.778
194 0 74.2004 12.2641 910 55.1484 1220.24 541.445
195 0 76.155 11.4766 874 55.349 1219.87 540.362
196 0 74.0581 10.2757 761 57.6597 1220.23 539.929
197 0 77.0836 10.4432 805 56.8994 1220.1 542.247
198 0 84.0865 12.0352 1012 55.6789 1220.46 537.482
199 0 85.085 10.1075 860 57.0279 1220.42 535.366
200 0 87.1783 10.1287 883 57.2299 1220.57 532.29
201 0 92.3094 10.8873 1005 55.1403 1220.46 532.294
202 0 97.3404 12.3587 1203 53.6185 1221.12 530.058
203 1 49.1013 8.83887 434 53.4816 1220.01 556.283
204 0 51.2018 9.04266 463 52.2981 1219.88 555.114
205 0 50.1541 9.55057 479 51.8184 1220.06 554.528
206 0 54.181 11.0186 597 50.608 1220.18 549.861
207 0 56.165 11.7867 662 49.219 1220.37 552.423
208 0 56.1097 10.7824 605 50.9868 1220.87 550.165
209 0 59.1464 10.4994 621 50.9308 1220.56 551.13
210 0 59.1978 11.7741 697 50.406 1220.89 550.083
211 0 59.1978 11.6896 692 142.267 1220.85 550.14
212 0 62.2742 11.0319 687 51.8108 1221.07 547.785
213 0 65.2011 12.6992 828 51.6618 1221.35 546.064
214 0 66.1963 12.8255 849 51.6443 1220.85 545.96
215 0 69.2203 12.6986 879 51.7361 1221.02 544.4
216 0 72.2082 12.9764 937 51.8399 1220.74 545.153
217 0 72.2656 12.1635 879 53.355 1220.63 543.59
218 0 75.3202 13.5687 1022 52.0959 1220.67 544.337
219 0 76.4176 13.2692 1014 53.1923 1220.28 540.665
220 0 79.2378 13.7813 1092 52.4286 1220.34 541.228
221 0 81.2393 12.9863 1055 53.7725 1219.72 538.252
222 0 83.5518 13.3809 1118 53.7415 1219.7 537.013
223 0 87.6133 13.2514 1161 53.8234 1219.72 535.422
224 0 89.7794 13.4663 1209 53.7502 1219.43 533.556
225 0 91.6398 14.0005 1283 53.5737 1219.6 532.956
226 0 93.6413 12.8149 1200 54.9858 1220.07 532.442
227 0 98.3698 14.4252 1419 53.2156 1219.94 532.691
228 1 53.2679 11.1324 593 54.6307 1219.48 554.069
229 0 52.1807 9.19881 480 56.7771 1219.11 555.11
230 0 54.0939 10.4448 565 54.4442 1218.43 551.92
231 0 57.2296 11.6723 668 55.3488 1218.37 553.054
232 0 59.0554 11.7855 696 54.6853 1219.69 553.037
233 0 59.1623 12.5418 742 54.9784 1218.31 550.668
234 0 62.1168 13.5873 844 53.5924 1217.71 550.66
235 0 63.2234 13.5235 855 54.0702 1217.11 548.258
236 0 64.145 13.1265 842 55.0368 1217.31 547.151
237 0 67.1194 13.0216 874 53.905 1217.48 549.098
238 0 70.297 13.6706 961 53.283 1217.4 546.861
239 0 69.1994 13.4539 931 54.363 1217.7 541.713
240 0 73.073 14.6292 1069 52.6024 1217.46 544.949
241 0 75.1104 12.7013 954 53.8899 1217.97 541.442
242 0 80.1201 14.316 1147 51.8291 1217.78 542.838
243 0 80.22 11.4311 917 55.1363 1216.89 540.851
244 0 84.2191 13.643 1149 52.3107 1217.26 542.44
245 1 49.1524 9.09416 447 52.9709 1218 559.852
246 0 48.0933 9.56474 460 53.4109 1218.57 557.874
247 0 47.0677 10.1981 480 53.0333 1218.82 557.756
248 0 48.0576 10.3834 499 53.1022 1218.39 557.375
249 0 47.0652 10.3261 486 54.1996 1217.51 555.451
250 0 51.0778 11.5706 591 51.2301 1217.42 557.65
251 0 56.1165 10.2822 577 52.8579 1217.04 555.003
252 0 57.0949 10.7891 616 52.9286 1217.59 553.101
253 0 56.1191 10.6203 596 53.854 1217.31 553.389
254 0 58.0821 12.0347 699 52.7697 1217.47 553.81
255 0 61.1627 13.8483 847 51.5159 1217.59 552.477
256 0 61.0786 12.5085 764 52.9228 1217.07 550.893
257 0 65.1199 12.5922 820 52.3134 1217.41 551.548
258 0 66.0854 12.3779 818 53.0562 1217.61 550.293
259 0 67.0699 12.8523 862 52.7923 1217.45 549.435
260 0 68.0867 12.5428 854 53.8981 1216.76 549.826
261 0 69.0925 13.4313 928 53.4343 1216.92 547.952
262 0 70.0461 13.1057 918 54.4161 1217.15 545.932
263 0 74.1578 13.1072 972 54.7356 1216.85 546.317
264 0 79.0652 13.8873 1098 52.8224 1216.89 546.21
265 0 77.0944 13.1527 1014 54.7801 1216.5 542.641
266 0 82.1357 14.0621 1155 54.3143 1216.67 542.67
267 0 84.2434 11.4312 963 56.7269 1216.64 543.273
268 0 86.1579 12.8601 1108 56.3213 1216.46 539.059
269 0 91.143 14.0877 1284 54.8442 1217.08 537.34
270 0 92.0866 12.2711 1130 57.0752 1216.69 536.981
271 0 92.0866 12.2602 1129 164.081 1215.69 536.982
272 0 99.3164 13.452 1336 55.8975 1216.89 532.298
273 0 101.266 11.9388 1209 57.3342 1217.02 530.05
274 1 54.059 10.8215 585 55.6393 1216.29 555.268
275 0 57.1207 12.5874 719 53.8108 1216.26 554.33
276 0 60.1334 12.1397 730 53.4548 1216.3 554.708
277 0 60.1502 12.3358 742 53.7439 1216.25 553.105
278 0 63.1256 14.0513 887 52.5231 1217.17 550.433
279 0 62.0791 12.6613 786 54.9618 1216.91 549.636
280 0 67.0848 13.7289 921 53.1238 1217.33 548.767
281 0 68.2135 12.5635 857 54.6686 1217.67 547.07
282 0 69.1666 13.1711 911 54.3096 1218.11 546.443
283 0 73.1815 13.0771 957 54.0146 1217.77 545.126
284 0 75.1008 13.0358 979 55.0838 1218.26 543.361
285 0 77.1502 13.2469 1022 54.4736 1218.59 543.861
286 0 79.0769 13.9484 1103 54.388 1218.37 541.972
287 0 84.138 14.9873 1261 53.4671 1218.63 538.613
288 0 89.2294 15.2528 1361 52.6209 1219.34 532.887
289 0 91.181 14.9264 1361 53.518 1218.99 535.517
290 0 92.1788 13.604 1254 55.7416 1219.26 535.944
291 1 49.0639 9.23286 453 56.9603 1219.4 557.618
292 0 50.071 10.2854 515 56.8524 1219.39 555.441
293 0 50.043 11.1304 557 55.9479 1219.41 556.485
294 0 53.0487 11.1407 591 57.2893 1219.49 551.481
295 0 57.1402 12.8806 736 55.3777 1220.19 550.368
296 0 60.071 12.9181 776 55.5503 1219.11 549.986
297 0 60.107 12.2781 738 56.8957 1218.87 549.676
298 0 63.1039 12.8835 813 55.7983 1219.3 549.541
299 0 63.1786 12.061 762 57.6535 1219.9 545.823
300 0 66.1376 13.2602 877 56.0536 1220.38 545.049
301 0 68.1401 13.4282 915 55.8317 1220.23 544.013
302 0 71.1948 13.0768 931 56.1235 1220.75 543.749
303 0 72.1194 12.9785 936 56.0449 1221.37 544.614
304 0 74.217 14.1612 1051 55.509 1221.63 542.122
305 0 76.1006 13.745 1046 55.8107 1221.46 541.31
306 0 78.2964 13.8704 1086 56.2127 1221.39 538.542
307 0 81.13 12.9052 1047 57.4584 1221.5 536.969
308 0 83.1511 13.253 1102 57.3521 1221.47 534.701
309 1 44.0456 11.1475 491 57.5336 1221.36 554.34
310 0 44.0581 11.5529 509 57.8821 1220.86 553.994
311 0 48.0691 12.6485 608 56.1859 1221.79 552.508
312 0 48.0691 12.6069 606 159.276 1222.77 552.543
313 0 50.073 12.5217 627 57.6348 1222.37 550.946
314 0 54.0191 12.8658 695 56.3755 1222.11 551.519
315 0 52.0746 12.3093 641 58.2215 1221.34 551.643
316 0 55.0452 13.0257 717 56.1186 1220.44 550.066
317 0 58.1683 12.6186 734 55.6471 1220.51 551.518
318 0 59.0386 12.7713 754 56.0716 1220.38 550.013
319 0 61.0885 13.4559 822 56.2689 1220.95 547.507
320 0 61.2111 12.5794 770 57.5987 1220.48 547.731
321 0 64.1182 12.9292 829 56.9807 1220.06 547.598
322 0 64.1319 12.6926 814 57.8759 1219.8 546.262
323 0 64.1319 12.7394 817 164.532 1219.79 546.171
324 0 69.227 13.2463 917 56.6554 1220.11 546.09
325 0 71.1859 14.1601 1008 56.0278 1220.5 544.898
326 0 71.1649 13.0963 932 57.5815 1220.44 544.002
327 0 75.1072 13.8602 1041 55.586 1220.39 545.098
328 0 75.2443 11.7617 885 58.9153 1220.36 542.816
329 0 78.1775 13.1624 1029 57.5345 1220.14 538.777
330 0 84.125 13.8365 1164 56.2766 1219.84 538.698
331 0 86.1314 14.4198 1242 55.9469 1220.18 535.976
332 0 88.1958 13.9916 1234 56.8825 1219.63 535.429
333 0 90.1083 12.6625 1141 58.9369 1219.28 532.814
334 1 48.0898 12.3935 596 58.1124 1219.4 553.847
335 0 50.022 12.5345 627 56.177 1219.35 554.737
336 0 48.0796 11.3978 548 58.5146 1219.29 553.777
337 0 53.0376 11.7841 625 57.6992 1218.95 553.608
338 0 54.0969 11.5903 627 58.4099 1218.34 553.013
339 0 57.1224 11.9043 680 56.7088 1218.5 552.034
340 0 57.0364 13.0268 743 55.5585 1218.61 552.043
341 0 60.1373 12.1223 729 56.7805 1218.51 549.779
342 0 62.0951 12.819 796 56.2161 1218.63 547.53
343 0 64.1727 14.5077 931 54.4576 1218.38 548.04
344 0 64.1685 13.184 846 56.6312 1218.45 546.935
345 0 64.2442 12.1879 783 57.7241 1218.04 547.782
346 0 70.124 12.6348 886 56.1309 1217.98 548.193
347 0 71.4334 13.2151 944 56.1134 1218.52 544.889
348 0 73.1426 14.3555 1050 55.099 1218.29 544.646
349 0 75.1893 13.2466 996 56.3815 1217.32 544.731
350 0 77.1859 13.448 1038 57.0106 1217.73 539.803
351 0 80.2574 11.2638 904 59.1471 1216.92 542.086
352 0 82.1132 13.9685 1147 56.3435 1217.19 540.498
353 0 85.1644 13.245 1128 57.2456 1216.73 541.244
354 0 88.2023 13.9679 1232 56.2419 1215.89 538.979
355 0 88.2023 13.9112 1227 163.524 1215.87 538.986
356 1 43.0634 10.0317 432 57.4907 1217.26 561.444
357 0 44.0713 10.188 449 58.3229 1217.34 559.762
358 0 47.037 12.9047 607 54.9901 1217.19 561.087
359 0 47.0387 12.4153 584 56.4281 1217.25 558.322
360 0 49.1174 12.3989 609 56.7225 1216.62 556.409
361 0 52.0555 11.9104 620 56.9081 1216 556.694
362 0 54.0735 13.0193 704 56.1449 1216.96 557.061
363 0 53.0625 12.1178 643 58.0793 1217.3 553.784
364 0 55.0665 13.5836 748 56.3369 1217.63 551.275
365 0 56.0654 13.2167 741 56.5047 1217.72 553.873
366 0 60.1264 12.9228 777 56.5959 1217.63 551.548
367 0 62.0794 12.8062 795 56.1371 1217.6 552.036
368 0 62.0863 13.5296 840 55.444 1217.81 550.457
369 0 66.1019 11.2856 746 56.9504 1218.1 550.204
370 0 67.0856 12.3872 831 56.0217 1218.46 548.611
371 0 70.1197 13.477 945 54.4667 1219.26 546.482
372 0 72.0951 13.607 981 54.3782 1219.29 544.98
373 0 73.1034 13.9939 1023 54.5425 1218.64 543.394
374 0 76.0687 12.2915 935 55.784 1218.76 543.401
375 0 76.0916 13.8912 1057 54.315 1219.25 541.758
376 0 83.1022 13.0562 1085 53.8433 1219.45 538.817
377 0 84.0458 14.0043 1177 52.7069 1219.75 537.265
378 0 86.1783 13.0543 1125 53.6418 1220.02 538.691
379 0 86.1783 13.0775 1127 154.344 1220.03 538.661
380 0 95.1935 13.6354 1298 52.3998 1220.23 536.091
381 0 96.0868 13.134 1262 53.1957 1220.72 535.304
382 0 99.148 12.8898 1278 53.2402 1220.56 534.617
383 0 102.136 12.6107 1288 53.8874 1220.83 530.967
384 1 55.1575 13.2348 730 52.5315 1221.33 551.401
385 0 56.151 12.7513 716 52.4902 1221.41 552.828
386 0 56.151 12.8048 719 156.392 1221.4 552.766
387 0 58.086 12.6192 733 53.1583 1221.31 550.064
388 0 60.0969 12.1637 731 53.7661 1221.51 549.688
389 0 61.096 12.8977 788 53.4302 1222.05 547.527
390 0 63.1191 13.6726 863 52.482 1221.54 548.015
391 0 68.1238 13.5489 923 51.3835 1221.53 546.519
392 0 69.1194 13.9324 963 51.6822 1222.17 545.454
393 0 69.1194 13.9324 963 155.705 1223.16 545.416
394 0 69.1194 13.9324 963 155.222 1224.16 545.416
395 0 77.1501 14.556 1123 50.5539 1222.21 543.425
396 0 78.1796 13.1876 1031 52.419 1222.1 538.187
397 0 79.0779 13.6574 1080 52.1343 1222.07 539.051
398 0 83.1259 14.2675 1186 51.6231 1222.25 536.142
399 0 86.1039 14.0528 1210 51.9438 1222.24 536.859
400 0 89.2553 14.2513 1272 51.3742 1222.14 532.353
401 0 92.1492 14.0967 1299 52.0377 1222.24 533.52
402 0 94.1929 14.396 1356 52.1165 1222.32 530.387
403 1 52.1329 12.986 677 52.418 1222.03 553.538
404 0 53.1374 12.5712 668 52.6377 1221.83 552.736
405 0 55.0901 12.1074 667 53.7736 1221.84 551.627
406 0 55.1076 11.7588 648 53.5664 1222.07 550.858
407 0 57.1169 12.4306 710 52.9718 1222.17 550.642
408 0 60.132 13.9693 840 51.8952 1222.21 549.67
409 0 60.0758 14.515 872 52.1273 1222.53 546.19
410 0 63.1497 13.8085 872 52.4404 1222.37 545.744
411 0 65.1509 14.029 914 51.9694 1222.39 546.9
412 0 67.1213 13.5724 911 52.7761 1222.53 544.758
413 0 71.104 13.5013 960 52.375 1221.96 544.902
414 0 73.1731 14.4862 1060 51.7613 1221.85 541.969
415 0 74.0637 13.5559 1004 53.1155 1222.46 542.406
416 0 79.1271 13.927 1102 53.1053 1221.73 539.251
417 0 81.274 14.3834 1169 53.1155 1221.48 538.965
418 0 83.0954 14.2607 1185 53.0557 1221.16 537.194
419 0 85.2178 14.8208 1263 52.8282 1220.72 536.298
420 0 90.1627 15.4277 1391 52.1366 1220.97 534.239
421 0 91.1558 14.3271 1306 53.0505 1220.72 533.784
422 0 92.1742 13.1707 1214 55.0181 1220.21 533.392
423 0 97.0958 14.6041 1418 53.2355 1220.68 531.05
424 0 100.222 14.7274 1476 53.334 1220.95 530.374
425 0 106.283 13.7746 1464 53.6974 1220.86 530.496
426 0 106.192 14.1913 1507 53.8155 1220.45 529.372
427 1 53.052 11.1966 594 55.2323 1219.54 554.012
428 0 55.0891 10.2198 563 56.5044 1219.16 553.293
429 0 58.0217 11.5819 672 55.814 1219.23 549.312
430 0 61.1509 13.2786 812 53.4963 1219.09 549.473
431 0 64.0835 13.1391 842 54.1164 1219.2 548.017
432 0 62.061 12.9067 801 54.9126 1218.44 547.588
433 0 65.2015 11.7329 765 55.4667 1218.85 547.506
434 1 136.47 14.5966 1992 53.8153 1218.55 511.089
435 1 70.0737 13.0149 912 53.9627 1218.85 544.912
436 0 74.1986 12.8978 957 54.0418 1218.43 542.773
437 0 76.1727 13.3906 1020 54.149 1218.15 541.3
438 0 79.1245 13.2702 1050 54.3695 1218.46 539.695
439 0 82.1952 13.6504 1122 53.9447 1218.74 540.582
440 0 84.2269 13.7367 1157 54.0182 1218.35 535.711
441 0 88.164 12.6696 1117 54.4664 1218.44 538.251
442 0 90.0918 13.0312 1174 54.2939 1218.71 534.81
443 0 94.2941 12.5458 1183 54.1471 1218.54 536.548
444 0 97.1834 13.1607 1279 53.9515 1218.97 534.15
445 0 102.194 13.6603 1396 53.1476 1218.93 533.294
446 0 105.226 13.8179 1454 53.1444 1219.16 530.089
447 0 108.273 13.6968 1483 53.5347 1218.8 527.25
448 1 56.1105 10.2476 575 55.5704 1218.46 554.25
449 0 59.1123 13.1106 775 53.1523 1218.68 552.041
450 0 61.0796 11.8861 726 54.9848 1218.46 549.398
451 0 64.0996 12.543 804 54.0062 1218.94 550.442
452 0 66.0741 13.8784 917 53.096 1219.04 546.487
453 0 68.1786 12.8193 874 53.9977 1219.62 546.674
454 0 72.173 14.2574 1029 52.4363 1219.65 546.325
455 0 71.1571 12.8167 912 54.9342 1219.22 544.647
456 0 77.2194 13.766 1063 53.3104 1218.79 545.03
457 0 79.1908 12.9687 1027 54.2736 1219.32 545.71
458 0 79.2221 13.8976 1101 54.4124 1218.74 542.358
459 0 85.2316 14.4899 1235 53.1976 1219.11 542.824
460 0 88.1482 15.3718 1355 52.6819 1218.99 538.42
461 0 89.1965 13.5431 1208 55.1225 1218.72 538.12
462 0 92.2738 14.8905 1374 53.6616 1218.93 539.844
463 0 94.3615 13.639 1287 55.648 1218.45 535.068
464 0 99.1046 14.52 1439 54.4705 1218.17 534.051
465 1 52.0222 12.2448 637 54.8179 1218.11 557.229
466 0 52.1265 11.5872 604 56 1218.11 556.462
467 0 55.1113 12.8104 706 54.6034 1218.37 554.887
468 0 58.0776 12.8965 749 53.9559 1217.99 556.182
469 0 56.0764 11.9302 669 55.864 1218.23 554.1
470 0 60.1147 13.5574 815 53.6896 1218.24 553.52
471 0 63.0856 13.2677 837 53.8447 1217.95 552.114
472 0 63.0886 12.316 777 54.7645 1218.18 551.152
473 0 66.1114 12.4789 825 54.4461 1218.02 550.148
474 0 68.169 12.7624 870 53.9897 1218.25 549.58
475 0 71.2372 12.2268 871 54.3261 1218.37 549.488
476 0 73.3162 14.1579 1038 52.4451 1218.47 548.375
477 0 76.3434 13.6227 1040 53.0077 1218.49 547.313
478 0 77.1528 14.2185 1097 52.639 1219.04 546.274
479 0 81.192 14.4226 1171 52.2152 1219.14 544.398
480 1 43.1764 11.2793 487 53.0554 1218.4 563.337
481 0 43.1298 11.1524 481 54.104 1218.64 561.595
482 0 46.1409 11.9634 552 53.2971 1218.14 560.761
483 0 47.0409 12.3935 583 52.9468 1218.28 560.515
484 0 50.0976 13.7332 688 52.4622 1218.25 557.638
485 0 52.0993 13.7046 714 52.3165 1218.62 558.878
486 0 51.2551 12.6231 647 54.5147 1218.6 557.275
487 0 53.2428 13.3351 710 53.331 1218.74 558.13
488 0 57.0683 13.0545 745 53.2685 1219.27 557.761
489 0 56.1771 14.0627 790 53.0506 1219.73 554.235
490 0 56.285 13.4139 755 54.2146 1219.72 552.82
491 0 63.4226 15.0577 955 50.9099 1219.49 554.982
492 0 61.1141 13.6466 834 53.47 1220.17 553.91
493 0 62.0537 13.585 843 53.9763 1220.16 550.225
494 0 64.1501 13.3437 856 54.2815 1220.39 549.933
495 0 68.1189 13.7554 937 53.0992 1220.4 549.434
496 0 69.2043 14.5367 1006 52.3817 1219.76 548.873
497 0 71.1879 14.2299 1013 53.1333 1220.13 545.58
498 0 72.2691 13.5051 976 54.0799 1219.87 545.324
499 0 76.2268 14.0895 1074 53.1676 1219.7 545.964
500 0 78.1709 13.931 1089 53.4986 1219.69 543.078
501 0 82.0856 14.0829 1156 52.9394 1219.59 543.849
502 0 84.1349 14.6907 1236 52.6367 1219.83 542.404
503 1 43.272 11.3237 490 54.9735 1219.74 560.02
504 0 44.1662 13.2228 584 53.8048 1219.88 559.837
505 0 46.0907 11.3255 522 56.6207 1219.45 557.418
506 0 48.0844 13.7882 663 53.6742 1219.67 558.517
507 0 53.1646 14.5398 773 53.0052 1219.66 554.992
508 0 54.2894 12.2123 663 55.1674 1219.92 557.531
509 0 53.3036 12.7759 681 55.1043 1219.6 555.734
510 0 55.2502 13.0678 722 55.1011 1220.04 553.655
511 0 54.3805 13.4607 732 54.9822 1219.97 553.255
512 0 56.3099 13.8519 780 54.8782 1219.99 551.865
513 0 61.1885 14.6269 895 53.5184 1220.64 552.463
514 0 60.3471 13.3395 805 55.0559 1220.16 550.861
515 0 62.1852 13.299 827 55.4909 1220.07 549.384
516 0 65.4309 14.2593 933 54.5509 1220.17 547.836
517 0 68.1714 14.5075 989 52.6582 1220.02 547.115
518 0 68.2111 14.9682 1021 52.6347 1220.56 546.569
519 0 72.2146 14.8585 1073 52.3262 1220.82 545.568
520 0 75.3223 14.8827 1121 52.3952 1221.31 544.924
521 0 75.2709 14.109 1062 53.5443 1220.78 542.794
522 0 78.2848 13.9746 1094 53.7349 1220.9 540.366
523 0 82.4975 14.5823 1203 52.4979 1221.02 540.03
524 0 84.4625 14.1009 1191 53.3694 1220.57 538.895
525 0 88.3595 14.7013 1299 52.1032 1220.63 540.105
526 1 48.0593 12.8591 618 53.3932 1221.19 556.67
527 0 49.2103 13.1477 647 54.0618 1220.81 554.805
528 0 51.1268 12.3614 632 54.1361 1221.12 556.106
529 0 51.1411 13.453 688 54.1759 1221.22 553.263
530 0 51.1411 13.453 688 165.603 1222.22 553.263
531 0 56.0684 13.1803 739 54.5007 1220.97 551.292
532 0 58.3849 15.0381 878 53.0387 1221.03 550.323
533 0 61.2263 14.9119 913 52.5717 1221.34 551.248
534 0 60.16 14.744 887 53.9267 1221.46 549.109
535 0 63.1134 15.3058 966 52.5518 1221.01 548.58
536 0 65.1594 14.5182 946 53.3393 1221.65 548.949
537 0 69.2718 15.5619 1078 52.039 1221.33 546.18
538 0 69.2328 15.1807 1051 52.8059 1221.4 544.307
539 0 71.1444 14.8009 1053 53.5784 1220.86 541.506
540 0 74.2328 15.3301 1138 52.9675 1220.47 541.162
541 0 76.1483 16.0082 1219 52.6587 1220.42 541.381
542 0 78.171 15.1079 1181 53.5292 1220.61 541.331
543 0 80.3181 15.725 1263 54.0214 1220.23 537.595
544 0 82.3076 14.9804 1233 54.5547 1220.14 537.37
545 0 86.2073 15.6483 1349 53.8162 1220.35 536.546
546 0 90.2121 15.8848 1433 53.3845 1220.11 534.45
547 0 94.3224 15.2668 1440 54.1403 1220.03 533.807
548 0 92.1103 15.362 1415 54.8671 1219.7 533.237
549 0 96.2681 15.6958 1511 54.7439 1219.65 529.701
550 0 99.2392 16.4955 1637 53.8638 1219.88 531.621
551 0 105.225 14.2077 1495 56.1037 1220.19 530.88
552 0 102.245 14.8272 1516 56.5257 1219.63 527.05
553 0 106.229 14.2428 1513 57.033 1219.66 527.763
554 0 112.197 14.8043 1661 56.121 1220.6 528.161
555 0 112.197 14.7954 1660 173.111 1221.6 528.243
556 1 65.079 12.8613 837 58.3811 1220.58 547.357
557 0 67.1593 14.4582 971 56.9114 1220.01 545.723
558 0 69.1346 14.5947 1009 56.7364 1220.1 545.648
559 0 71.0404 14.3439 1019 57.577 1219.96 543.295
560 0 74.1281 14.7582 1094 57.0192 1220.11 543.106
561 0 76.0786 14.2353 1083 58.1477 1220.32 539.519
562 0 79.1197 13.3848 1059 58.2247 1220.39 541.267
563 0 84.2266 14.1523 1192 57.4371 1219.88 541.054
564 0 86.0957 15.204 1309 56.8923 1220.1 536.471
565 0 87.1396 14.4366 1258 58.031 1219.91 534.541
566 0 93.2832 14.6972 1371 56.9847 1219.76 535.08
567 0 93.0669 14.2478 1326 58.4412 1220.07 533.108
568 0 98.1481 15.334 1505 56.6452 1220.05 532.864
569 0 99.2138 14.3024 1419 57.8985 1219.99 530.725
570 0 104.082 15.6799 1632 56.7433 1219.86 528.026
571 1 58.0919 12.8589 747 57.7778 1219.74 552.031
572 0 60.046 13.2898 798 57.297 1219.46 550.094
573 0 60.1567 13.3152 801 57.4794 1219.04 550.091
574 0 66.1272 13.0355 862 57.1392 1218.79 548.562
575 0 64.0737 14.296 916 56.1528 1218.76 548.682
576 0 66.0736 12.9855 858 58.2319 1218.48 547.131
577 0 67.1196 14.0644 944 57.5413 1219.05 543.19
578 0 69.2091 14.0588 973 57.1644 1218.48 545.238
579 0 73.109 13.2952 972 57.4578 1218.45 544.42
580 0 73.1969 13.2246 968 58.5248 1218.28 542.586
581 0 78.0862 14.1638 1106 56.1754 1218.07 544.405
582 0 82.2116 15.0709 1239 55.4027 1218.02 541.546
583 0 80.2978 13.4375 1079 57.7841 1217.78 539.647
584 0 84.2987 13.7131 1156 57.0822 1217.72 539.946
585 0 87.1642 14.7079 1282 56.4797 1217.89 538.132
586 0 88.2356 13.8946 1226 57.633 1217.09 535.178
587 0 91.2832 13.3321 1217 58.1841 1217.64 534.908
588 0 94.3652 13.7763 1300 58.4238 1217.35 532.499
589 0 98.1675 14.3734 1411 57.713 1217.21 532.393
590 0 100.253 13.2765 1331 59.0601 1217.23 530.582
591 0 105.379 15.0314 1584 56.596 1217.46 528.636
592 1 62.1918 11.5128 716 59.243 1217.34 548.754
593 0 66.3818 11.7954 783 58.1788 1216.68 548.711
594 0 69.3889 12.6677 879 56.6121 1217.03 548.288
595 0 69.2546 12.6779 878 56.5581 1217.01 547.139
596 0 72.353 13.3512 966 55.7257 1216.89 545.068
597 0 75.1662 13.1708 990 55.3657 1216.82 544.905
598 0 76.3774 13.5511 1035 54.7488 1217.12 544.646
599 0 79.3655 13.3559 1060 54.8142 1216.82 545.145
600 0 83.2603 12.2627 1021 56.4231 1216.38 539.092
601 0 86.2662 13.5974 1173 53.636 1216.31 542.109
602 1 154.5 14.4272 2229 54.9067 1216.75 507.625
603 1 91.4727 13.4357 1229 54.1994 1216.71 536.649
604 0 94.3954 12.7866 1207 54.5659 1216.38 532.917
605 0 95.2235 12.4234 1183 54.8174 1216.7 531.57
606 0 103.557 13.3646 1384 52.94 1216.47 534.149
607 0 104.589 14.753 1543 53.1374 1216.75 531.978
608 0 108.53 15.498 1682 53.777 1216.88 527.442
609 0 113.548 13.862 1574 56.0337 1217.47 526.943
610 0 115.304 13.6509 1574 56.7687 1217.72 524.142
611 0 120.641 13.9505 1683 56.6215 1217.25 520.634
612 0 124.433 14.3129 1781 56.3318 1217.46 519.278
613 0 128.472 14.1976 1824 57.0241 1217.12 518.839
614 1 71.4014 12.7308 909 57.2673 1217.07 543.331
615 0 72.703 12.0903 879 57.9875 1216.7 543.188
616 0 76.7705 13.5469 1040 57.3106 1216.63 542.596
617 0 78.5635 13.7341 1079 56.6784 1216.8 542.239
618 0 79.6751 12.7392 1015 57.6522 1216.64 541.298
619 0 83.7463 14.8424 1243 54.6661 1216.95 540.147
620 0 84.5236 13.7476 1162 56.0258 1216.95 538.012
621 0 85.4697 13.4083 1146 56.6379 1217.03 537.935
622 0 88.6912 14.0375 1245 56.2024 1216.64 538.031
623 0 91.5752 13.2896 1217 56.8546 1217.03 533.501
624 0 97.5953 15.4516 1508 54.2155 1217.03 534.524
625 0 98.8009 13.2084 1305 57.5992 1217.2 530.674
626 0 101.712 14.8458 1510 55.9238 1216.95 531.147
627 0 105.757 14.0889 1490 57.4336 1217.07 527.708
628 0 110.723 13.2131 1463 57.812 1216.98 528.951
629 1 48.3555 10.6917 517 59.5938 1216.74 555.389
630 0 51.5548 12.123 625 57.3504 1216.48 554.739
631 0 54.4856 14.2239 775 55.4503 1216.59 551.747
632 0 56.6277 12.6087 714 56.881 1216.66 552.704
633 0 58.6305 13.6107 798 55.5927 1217.05 551.139
634 0 58.5431 13.1356 769 56.8986 1216.91 549.663
635 0 59.6524 12.8243 765 57.0889 1216.99 549.246
636 0 60.6044 12.8374 778 57.8059 1217.51 549.671
637 0 63.7671 12.7966 816 57.4142 1218.12 546.558
638 0 64.5214 13.6854 883 56.7429 1217.71 546.159
639 0 67.6626 13.5821 919 57.0435 1218.12 544.625
640 0 65.5049 12.625 827 59.0036 1218.29 543.209
641 0 69.7856 13.3695 933 58.0632 1218.18 542.111
642 0 72.5805 13.5987 987 57.6424 1218.46 540.264
643 0 75.5979 13.6115 1029 57.6754 1218.36 541.19
644 0 75.8259 13.5838 1030 57.7845 1218.61 538.665
645 0 79.7643 14.1542 1129 57.2374 1218.35 538.939
646 0 80.6097 12.9761 1046 59.0057 1218.65 535.59
647 0 82.9594 13.6452 1132 58.0733 1218.6 535.028
648 0 88.5871 13.3992 1187 57.8568 1218.45 534.88
649 0 89.5826 13.9089 1246 57.7769 1218.45 531.653
650 1 49.6827 10.4262 518 58.4344 1218.08 552.49
651 0 52.4272 10.4907 550 59.7691 1218.68 549.722
652 0 53.5859 11.6635 625 58.8688 1219.08 546.202
653 0 57.499 11.8263 680 57.5941 1218.82 547.084
654 0 57.8118 12.6618 732 57.4863 1218.8 544.422
655 0 60.4134 11.7689 711 57.9705 1218.37 544.976
656 0 60.7454 12.4783 758 57.9037 1218.52 543.034
657 0 62.5542 12.6291 790 57.5975 1218.91 543.13
658 0 64.4821 12.6392 815 57.7313 1218.8 541.211
659 0 67.543 13.2656 896 56.7266 1218.93 541.992
660 0 67.5255 12.8988 871 57.8553 1218.97 539.956
661 0 72.7508 13.5531 986 56.784 1218.6 537.617
662 0 74.5371 12.8661 959 57.7894 1219.48 537.54
663 0 75.546 12.8399 970 58.2588 1219.84 535.92
664 0 78.4824 13.6846 1074 57.9898 1220.22 532.858
665 0 83.5622 12.5057 1045 58.9522 1220.03 531.697
666 0 82.4032 13.3733 1102 58.9338 1220.32 530.162
667 0 86.3406 14.1069 1218 57.8333 1220.31 529.975
668 0 85.3574 13.918 1188 59.4815 1220.49 526.593
669 0 90.3691 14.2969 1292 58.3483 1220.89 526.258
670 0 93.3865 13.7493 1284 59.0366 1220.41 526.481
671 0 97.4072 14.1057 1374 58.9338 1220.84 523.054
672 0 99.4366 14.2101 1413 59.2725 1220.55 521.144
673 0 104.378 14.0834 1470 59.1374 1220.78 521.164
674 1 60.2928 11.6929 705 57.4411 1220.51 542.972
675 0 57.454 10.3909 597 59.5243 1220.95 542.067
676 0 58.2723 10.9314 637 60.0644 1221.5 539.254
677 0 62.3047 11.4759 715 58.4238 1221.45 539.411
678 0 66.2093 12.5964 834 56.6775 1221.68 538.553
679 0 68.1492 12.4286 847 56.6706 1221.08 537.748
680 0 70.4427 11.9388 841 57.2045 1222.26 534.858
681 0 73.2694 11.8194 866 56.4099 1221.85 538.012
682 0 74.2344 12.2854 912 56.6864 1221.33 534.589
683 0 74.3626 11.686 869 57.4925 1221.86 533.143
684 0 76.2813 12.2573 935 57.1123 1222.17 530.664
685 0 80.2258 11.8914 954 57.2788 1222.05 529.341
686 0 83.2236 13.698 1140 55.1439 1221.46 529.695
687 0 87.5879 12.2506 1073 56.26 1221.42 527.244
688 0 87.4093 11.9209 1042 57.0326 1221.33 524.766
689 0 92.404 11.5579 1068 57.3474 1221.53 523.462
690 0 96.3764 11.6315 1121 57.0054 1221.95 523.246
691 0 97.3252 12.7408 1240 56.1064 1221.51 521.004
692 0 102.335 12.9379 1324 55.7137 1222.18 519.636
693 0 110.552 12.4195 1373 55.949 1222.25 520.139
694 1 61.6099 8.79728 542 55.1845 1221.71 546.948
695 0 61.3079 9.52569 584 54.637 1221.1 545.49
696 0 66.4163 10.9311 726 53.2562 1221.43 542.707
697 0 65.2204 10.8555 708 51.5734 1221.31 545.233
698 0 67.1708 10.8232 727 52.2985 1220.84 540.481
699 0 70.2004 11.0683 777 52.6384 1220.95 540.057
700 0 74.2334 12.5819 934 51.1916 1220.61 539.475
701 0 78.2172 9.80603 767 53.0808 1220.47 540.641
702 0 79.2647 12.0104 952 51.7237 1219.84 537.577
703 0 81.2023 10.6031 861 53.0163 1219.45 538.337
704 0 82.1546 11.2593 925 53.2076 1220.13 535.53
705 0 86.3725 11.3694 982 52.8096 1220.59 534.943
706 0 86.3725 11.3694 982 142.674 1220.59 534.943
707 0 92.2231 12.4047 1144 52.3322 1220.47 530.839
708 0 96.3886 11.9412 1151 52.742 1220.75 530.234
709 0 96.2294 11.3583 1093 53.4721 1221.02 528.513
710 1 58.1253 10.8731 632 49.5047 1220.57 551.293
711 0 58.0548 9.38768 545 51.6349 1220.51 551.989
712 0 61.138 10.1901 623 51.0658 1219.79 548.928
713 0 60.0794 10.5361 633 51.4044 1219.84 548.303
714 0 62.1557 10.6024 659 52.1715 1218.12 546.939
715 0 66.0716 11.9719 791 50.7118 1218.94 545.468
716 0 67.1475 11.6162 780 51.3 1218.44 546.273
717 0 68.2597 11.9104 813 51.8918 1218.73 544.288
718 0 69.1352 11.3401 784 52.0242 1218.79 544.614
719 0 70.1266 11.4365 802 52.6658 1218.96 542.116
720 0 72.2577 12.3309 891 51.1919 1218.64 541.96
721 0 72.3086 11.6722 844 51.9656 1218.55 542.204
722 0 77.2308 12.0807 933 50.8757 1218.25 543.015
723 0 78.2705 13.2745 1039 49.6352 1218.55 541.732
724 0 82.286 12.6388 1040 49.9048 1218.2 537.701
725 0 82.2039 13.3084 1094 50.3519 1218.07 536.153
726 0 85.3458 11.0023 939 50.803 1217.7 535.627
727 0 88.5829 12.192 1080 50.388 1217.51 532.734
728 0 92.4242 12.7239 1176 50.1641 1217.55 532.658
729 0 91.4819 12.0789 1105 49.7077 1217.36 534.562
730 1 52.5095 10.5886 556 48.4281 1216.68 553.014
731 0 55.5322 12.1731 676 47.5296 1216.4 550.982
732 0 55.4917 9.98347 554 49.8718 1217.35 552.762
733 0 56.3111 10.9037 614 48.0831 1216.4 547.031
734 0 58.617 11.7884 691 48.6961 1216.93 548.242
735 0 61.6718 11.9666 738 48.6843 1216.62 545.039
736 0 62.5344 12.8409 803 48.0548 1216.5 541.924
737 0 66.4656 14.1276 939 47.2481 1216.98 541.805
738 0 68.5266 10.9738 752 50.0572 1216.56 541.467
739 0 67.6177 11.358 768 49.7083 1216.26 542.055
740 0 70.4713 12.4164 875 49.3006 1216.92 540.542
741 0 70.5428 12.2762 866 49.7102 1216.73 542.127
742 0 70.6449 12.8813 910 50.0835 1216.5 540.186
743 0 75.744 13.0175 986 49.499 1216.68 539.925
744 0 79.7586 13.1396 1048 48.9962 1215.92 542.229
745 0 80.5359 12.6279 1017 50.3677 1215.76 540.548
746 0 82.6914 12.3834 1024 51.0176 1215.7 540.447
747 0 90.4601 12.4475 1126 50.5293 1215.53 538.838
748 0 86.5974 12.9219 1119 50.5773 1215.57 535.609
749 0 91.5198 12.1832 1115 51.157 1214.97 534.091
750 0 92.4738 12.7387 1178 51.0823 1214.79 535.882
751 0 94.5535 12.2153 1155 51.7671 1214.78 533.348
752 0 94.5535 12.173 1151 156.267 1213.76 533.294
753 1 52.2671 8.07392 422 54.3886 1215.08 555.86
754 0 57.1243 12.0964 691 50.7554 1215.74 552.111
755 0 55.1441 10.1915 562 53.1281 1215.7 553.639
756 0 58.0793 12.0525 700 51.2143 1215.24 555.006
757 0 62.0986 12.3835 769 51.4447 1214.92 551.26
758 0 62.087 13.32 827 51.2866 1214.87 551.63
759 0 65.0862 12.9213 841 51.6017 1215.16 548.271
760 0 66.0738 13.3487 882 51.6553 1215.01 547.77
761 0 66.1177 11.3434 750 54.7507 1215.01 547.233
762 0 68.2661 11.7188 800 53.87 1214.89 547.62
763 0 73.23 13.0138 953 51.6842 1215.08 548.639
764 0 73.151 12.7408 932 53.2049 1215.22 545.346
765 0 77.0969 12.1016 933 53.3708 1215.79 542.952
766 0 80.3213 13.944 1120 51.5241 1215.31 543.871
767 0 81.1578 11.7672 955 53.8712 1215.85 542.805
768 0 84.2129 12.8959 1086 52.6105 1215.61 544.117
769 0 86.307 11.9457 1031 53.5034 1215.42 538.81
770 0 90.3087 12.878 1163 53.1238 1215.42 534.961
771 0 92.4209 13.5034 1248 52.27 1215.68 536.682
772 0 93.3548 13.5505 1265 52.1589 1215.39 537.413
773 0 98.2345 12.5618 1234 53.0818 1215.66 535.549
774 0 102.392 12.5889 1289 53.2382 1215.21 532.463
775 0 106.187 12.5439 1332 53.0871 1214.89 531.297
776 0 109.252 12.5398 1370 53.3759 1214.67 527.753
777 0 111.206 12.7242 1415 53.4226 1215.23 529.137
778 0 112.369 12.2454 1376 54.2376 1215.5 523.835
779 1 63.0851 12.8557 811 51.2318 1215.35 551.375
780 0 66.1316 12.0366 796 51.7688 1215.55 550.098
781 0 64.0743 11.3462 727 53.088 1215.79 549.699
782 0 69.2449 13.9072 963 50.0872 1216.02 550.906
783 0 70.2199 13.4862 947 49.8004 1215.56 548.483
784 0 71.0903 13.8416 984 50.376 1215.86 547.71
785 0 73.0489 12.0467 880 51.9932 1216.25 546.422
786 0 74.0713 12.839 951 51.8833 1216.81 545.572
787 0 77.1148 13.7846 1063 50.778 1216.91 544.944
788 0 79.1688 13.0354 1032 51.6289 1217.05 543.262
789 0 80.0602 12.8903 1032 52.3731 1217.01 542.882
790 0 85.0388 12.2415 1041 53.2152 1216.97 540.162
791 0 90.1923 14.5245 1310 50.2947 1217.13 538.941
792 1 49.0765 9.57689 470 54.3298 1217.26 559.853
793 0 50.0275 10.7341 537 53.3091 1217.3 559.505
794 0 51.037 10.5218 537 54.2104 1216.94 555.682
795 0 54.105 12.4758 675 53.0282 1216.97 555.376
796 0 54.1165 12.1035 655 54.3511 1218.51 554.386
797 0 55.1494 11.4416 631 54.2377 1217.31 554.03
798 0 57.174 12.6981 726 53.0523 1217.38 551.898
799 0 59.1849 11.1008 657 55.2222 1217.78 551.889
800 0 59.222 12.3434 731 54.3858 1218.08 551.952
801 0 62.1324 13.9058 864 53.2755 1218.55 549.475
802 0 65.1621 14.1647 923 52.4442 1218.63 548.651
803 0 67.1009 12.9059 866 54.366 1218.07 549.637
804 0 70.211 13.0464 916 53.6386 1217.83 548.38
805 0 69.1324 13.8141 955 54.1393 1217.91 545.138
806 0 72.1537 14.3028 1032 53.2955 1217.52 545.816
807 0 72.1373 12.6287 911 54.6981 1217.62 542.503
808 0 78.2354 12.9609 1014 53.7416 1218.16 542.409
809 0 79.1474 14.3782 1138 52.5677 1218.05 540.928
810 0 80.2706 12.3582 992 53.7792 1218.75 544.79
811 0 82.2515 13.2034 1086 54.128 1218.77 540.69
812 0 85.178 13.419 1143 53.9099 1219.36 538.086
813 0 87.1524 13.7116 1195 53.5197 1219.51 538.793
814 0 92.1058 14.4073 1327 53.0226 1219.4 535.46
815 0 95.15 14.5875 1388 52.5764 1219.46 534.648
816 0 104.105 11.1618 1162 54.099 1219.51 537.707
817 0 104.106 10.9504 1140 164.515 1220.51 538.057
818 0 103.124 12.4219 1281 54.6058 1219.51 529.475
819 1 57.1036 11.9432 682 53.1056 1219.69 544.779
820 0 57.1036 12.0658 689 154.475 1220.71 544.678
821 0 62.1397 13.0995 814 52.5614 1219.23 549.619
822 0 61.0934 12.8001 782 53.7685 1219.38 548.884
823 0 64.0581 12.4574 798 53.7318 1218.95 546.731
824 0 66.0591 13.17 870 53.1448 1219.38 545.736
825 0 67.0437 13.618 913 52.9387 1219.82 547.225
826 0 69.0924 13.8944 960 52.7615 1219.69 545.881
827 0 73.1469 13.7395 1005 52.397 1219.78 545.917
828 0 72.1466 14.1517 1021 52.4829 1219.92 544.665
829 0 77.0316 15.3963 1186 50.7858 1220.13 541.841
830 0 81.124 12.8075 1039 53.2281 1219.91 541.928
831 0 82.1394 13.7693 1131 52.5146 1219.53 540.937
832 0 80.1142 13.0064 1042 54.6046 1219.26 539.014
833 0 80.1142 13.0439 1045 160.353 1218.25 538.96
834 0 88.2604 12.5877 1111 54.8371 1219.45 535.532
835 0 88.0824 13.2603 1168 54.7312 1218.64 535.642
836 0 93.0435 13.4453 1251 53.5236 1218.83 532.622
837 0 97.0909 13.338 1295 53.8896 1218.87 530.704
838 0 101.169 14.6784 1485 52.3165 1218.63 530.607
839 0 103.363 13.3413 1379 53.8078 1218.69 531.226
840 1 56.0901 11.4815 644 54.6879 1218.91 551.91
841 0 58.0569 11.4543 665 53.8105 1218.23 550.731
842 0 58.0322 12.2174 709 54.7123 1218.07 548.719
843 0 63.0612 13.2728 837 53.73 1218.18 546.206
844 0 66.0803 13.529 894 53.009 1219.42 547.52
845 0 64.0397 12.9763 831 54.3369 1218.87 546.641
846 0 67.0516 13.6909 918 53.2996 1218.41 545.836
847 0 70.1635 14.1669 994 53.3964 1218.52 542.78
848 0 73.033 13.9115 1016 53.2559 1218.88 545.31
849 0 76.0843 14.0371 1068 53.2537 1218.53 542.869
850 0 76.0702 12.541 954 54.7537 1219.03 543.252
851 0 81.0811 13.9367 1130 53.1734 1218.91 541.967
852 0 84.0564 13.9668 1174 52.8228 1219.01 539.702
853 0 85.1036 12.2909 1046 54.7218 1219.3 536.796
854 0 89.1607 13.5934 1212 53.4893 1218.96 531.443
855 1 48.033 10.1805 489 54.6667 1218.62 557.436
856 0 49.0198 11.2608 552 53.5236 1219.11 554.645
857 0 51.0499 11.3027 577 52.3848 1219.02 554.828
858 0 53.1065 10.5825 562 53.8915 1219.04 554.817
859 0 53.095 11.2628 598 53.8629 1217.77 552.63
860 0 55.1584 12.6545 698 51.9312 1218.7 551.679
861 0 58.0497 12.3515 717 52.463 1218.69 551.236
862 0 59.096 12.2005 721 53.0915 1218.26 550.527
863 0 62.0716 12.115 752 52.9588 1218.34 551.824
864 0 62.086 12.1928 757 53.7239 1218.13 551.174
865 0 64.1447 12.3627 793 53.3241 1218.6 549.62
866 0 62.0867 12.708 789 54.4905 1218.32 545.616
867 0 65.119 13.9437 908 52.4978 1217.09 549.537
868 0 65.1705 11.631 758 55.0541 1217.43 546.158
869 0 68.0842 12.6755 863 55.2642 1217.74 546.235
870 0 70.0992 12.0401 844 56.2571 1217.28 545.754
871 0 74.18 13.1302 974 55.0031 1217.2 545.872
872 0 77.0919 13.5812 1047 55.1318 1216.74 543.17
873 0 77.0786 12.5197 965 57.1399 1217.36 540.563
874 0 80.152 11.4657 919 58.3166 1217.28 538.283
875 0 85.2494 13.8065 1177 55.2591 1216.67 538.434
876 0 88.3106 14.1319 1248 55.0449 1216.19 539.774
877 0 90.1595 12.7663 1151 57.4839 1216.43 534.166
878 1 49.1361 10.6032 521 57.19 1216.72 556.134
879 0 54.0788 9.30123 503 58.6501 1216.32 557.185
880 0 53.1339 12.4026 659 56.5159 1216.06 555.181
881 0 58.2204 11.3362 660 58.197 1217.33 552.917
882 0 56.0444 12.276 688 57.6977 1217 551.536
883 0 57.0126 11.6641 665 58.8722 1216.82 552.236
884 0 62.0794 12.5323 778 55.7326 1217.47 552.532
885 0 62.0884 12.3695 768 57.0755 1217.72 551.589
886 0 63.1842 11.506 727 58.0757 1217.85 548.217
887 0 67.185 13.4107 901 55.0122 1217.46 548.626
888 0 66.1442 11.8982 787 57.6963 1217.41 547.678
889 0 69.117 12.3414 853 56.5674 1217.21 547.548
890 0 73.1392 13.235 968 55.343 1217.42 545.67
891 0 72.124 12.3815 893 56.5588 1217.54 544.689
892 0 74.1382 13.1376 974 62.4127 1217.48 543.696
893 0 75.1617 12.5862 946 59.1744 1218.08 541.735
894 0 78.1078 13.3405 1042 55.0144 1218.46 541.26
895 0 82.2808 13.1501 1082 55.2884 1218.81 539.011
896 0 85.2281 12.6601 1079 56.2289 1218.55 538.863
897 0 86.2045 13.5724 1170 55.4812 1218.94 538.389
898 0 89.3384 13.4097 1198 56.1569 1218.8 533.753
899 0 92.3208 13.7997 1274 54.6554 1218.49 533.307
900 0 94.3271 14.6935 1386 54.4113 1218.92 529.773
901 0 96.2896 13.854 1334 55.1732 1218.74 528.588
902 0 99.1913 13.5697 1346 55.4688 1219.31 527.969
903 0 104.303 13.7484 1434 54.3633 1219.04 528.619
904 1 57.1007 11.1908 639 55.6886 1217.86 547.919
905 0 60.1192 12.2756 738 55.3631 1217.53 546.701
906 0 61.0954 13.1598 804 55.3408 1219.75 546.137
907 0 62.2076 13.0048 809 55.2967 1220.11 545.257
908 0 65.0952 13.2575 863 54.8864 1219.37 545.37
909 0 66.1615 12.3486 817 55.9976 1220.21 546.332
910 0 66.1263 12.2039 807 57.2664 1220.69 544.32
911 0 66.1263 12.2039 807 160.988 1221.69 544.32
912 0 72.1662 13.2611 957 56.4828 1220.67 542.331
913 0 75.1077 13.2343 994 56.1127 1220.4 542.523
914 0 77.1393 13.9099 1073 56.3103 1220.64 538.221
915 0 80.1948 13.0806 1049 56.5977 1220.98 539.07
916 0 79.0796 12.6581 1001 57.5624 1220.85 538.331
917 0 83.1554 13.108 1090 56.955 1221.27 536.282
918 0 86.1323 13.398 1154 57.039 1221.24 535.144
919 0 89.2143 14.4035 1285 55.7549 1221.53 535.23
920 0 95.3002 15.2466 1453 54.6105 1221.74 531.193
921 0 95.3002 15.1521 1444 155.531 1222.7 531.19
922 0 95.3002 15.1206 1441 155.217 1223.68 531.244
923 1 53.2056 11.6717 621 57.0032 1221.76 551.976
924 0 54.2847 12.0476 654 57.5031 1221.03 551.07
925 0 57.4778 12.109 696 56.5115 1220.89 548.303
926 0 57.2523 13.0824 749 56.235 1221.21 548.067
927 0 59.0424 12.1099 715 57.7189 1222.24 547.869
928 0 61.192 13.4985 826 55.9794 1221.8 548.011
929 0 64.0749 12.4854 800 56.8662 1221.56 547.516
930 0 66.1827 14.2787 945 55.0286 1221.55 545.12
931 0 67.0728 13.1052 879 57.0569 1221.74 544.851
932 0 69.1373 12.9886 898 57.5657 1221.19 544.291
933 0 69.1373 13.0465 902 165.847 1220.18 544.354
934 0 71.216 13.452 958 57.8539 1221.27 542.686
935 0 72.1999 13.2549 957 58.2518 1221.4 541.419
936 0 76.2451 13.5615 1034 57.4062 1221.03 540.956
937 0 77.3712 12.9893 1005 58.9274 1221.27 537.563
938 0 79.3917 13.15 1044 58.8755 1221.5 536.717
939 0 83.2459 13.6583 1137 58.3034 1222.12 535.198
940 0 86.3245 13.4145 1158 58.2003 1221.56 533.548
941 1 49.107 10.7928 530 58.8717 1221.54 550.668
942 0 48.154 9.92649 478 60.0021 1220.56 550.816
943 0 54.0543 12.0064 649 57.698 1220.33 549.193
944 0 52.0918 11.6333 606 59.2904 1219.88 547.888
945 0 57.1487 13.8236 790 57.1139 1219.61 550.901
946 0 59.075 12.0694 713 58.9986 1219.29 550.14
947 0 60.1099 12.3607 743 58.716 1218.96 550.18
948 0 62.1652 13.4641 837 57.6655 1218.89 547.581
949 0 64.0534 13.4107 859 57.3714 1219.19 548.531
950 0 67.0779 13.3427 895 57.4279 1218.8 546.12
951 0 68.0507 12.5495 854 58.0866 1219.22 546.043
952 0 70.1493 13.6423 957 57.6625 1218.81 543.745
953 0 72.1316 13.0733 943 58.1463 1218.81 544.456
954 0 74.2764 13.6382 1013 57.3386 1219.18 542.04
955 0 77.1437 14.998 1157 55.3933 1219.28 544.035
956 0 80.1384 13.8885 1113 56.619 1219.44 541.668
957 0 81.3004 14.1943 1154 57.3146 1219.61 537.701
958 0 85.2243 13.6698 1165 57.0566 1219.01 537.674
959 0 87.2168 13.6556 1191 57.4845 1219.38 535.359
960 0 90.2269 13.5325 1221 57.3538 1219.54 535.29
961 0 94.3127 13.7203 1294 56.5858 1219.22 533.481
962 0 95.2255 12.7697 1216 58.2525 1218.61 531.752
963 1 54.1653 10.5233 570 57.7825 1218.78 553.572
964 0 57.3494 11.7002 671 56.1848 1218.51 552.103
965 0 59.0939 11.304 668 57.5898 1218.33 548.903
966 0 61.1721 12.0807 739 56.8674 1218.41 548.165
967 0 62.1145 11.5915 720 57.4014 1218.92 547.322
968 0 65.151 12.5862 820 56.0341 1218.66 547.098
969 0 66.1594 12.0164 795 57.0428 1218.77 545.186
970 0 71.2138 12.9048 919 55.4831 1219.03 544.778
971 0 74.1719 12.0126 891 56.6285 1218.58 543.279
972 0 76.1591 13.3142 1014 55.2633 1218.63 541.415
973 0 79.3517 12.892 1023 55.4702 1218.23 541.504
974 0 80.2474 13.2091 1060 55.166 1218.21 541.361
975 0 82.3409 13.1526 1083 55.9381 1217.78 537.979
976 0 85.1844 13.6175 1160 55.9112 1217.95 537.647
977 0 89.4284 13.2285 1183 55.7616 1218.3 536.186
978 0 91.218 13.6267 1243 55.1883 1217.79 532.503
979 0 91.3136 12.9992 1187 56.5897 1217.67 532.368
980 1 54.3962 10.3132 561 56.4742 1217.66 554.635
981 0 54.4189 10.7683 586 55.9454 1218.15 553.558
982 0 56.2224 11.6679 656 54.7317 1218.12 552.422
983 0 58.1974 11.8906 692 55.3121 1217.62 551.751
984 0 58.1512 11.2637 655 56.374 1216.66 551.435
985 0 61.1233 12.712 777 55.3526 1216.74 550.045
986 0 62.1017 12.6567 786 55.243 1216.88 549.706
987 0 64.2426 13.6358 876 54.4874 1217.03 546.758
988 0 64.2426 13.6358 876 147.837 1218.04 546.79
989 0 68.2606 12.4816 852 55.527 1218.21 545.442
990 0 68.1486 11.739 800 57.39 1216.67 545.619
991 0 74.152 13.0138 965 54.857 1217.27 543.568
992 0 74.2903 13.4338 998 54.9389 1216.81 544.546
993 0 75.1378 12.151 913 56.7667 1217.62 543.071
994 0 78.2547 13.5966 1064 55.2942 1217.12 542.505
995 0 81.3279 12.0869 983 56.823 1217.09 542.281
996 0 84.2841 12.2918 1036 56.7017 1217.02 539.727
997 0 84.1999 11.7102 986 57.7333 1216.73 538.324
998 0 90.2111 14.7321 1329 53.8375 1216.62 536.336
999 0 93.2599 12.7279 1187 56.4617 1216.72 534.291
1000 0 95.2221 13.2637 1263 55.9968 1217.23 532.055
1001 0 100.323 13.5662 1361 55.191 1216.81 532.558
1002 0 103.222 13.3402 1377 56.1249 1217.32 531.927
1003 1 58.1647 12.6881 738 54.8699 1217.09 548.915
1004 0 59.15 11.175 661 55.9259 1216.28 552.129
1005 0 63.1458 12.1623 768 54.2031 1216.62 550.469
1006 0 64.0718 11.5964 743 55.6689 1217.63 550.47
1007 0 68.1038 14.4045 981 52.2446 1217.74 546.173
1008 0 68.0777 12.2213 832 55.4159 1217.54 545.405
1009 0 73.1136 12.6652 926 54.567 1217.61 545.767
1010 0 73.0747 12.9867 949 54.3382 1217.25 546.357
1011 0 73.0747 12.973 948 163.75 1216.25 546.354
1012 0 77.1787 12.3609 954 56.3857 1217.1 543.255
1013 0 78.0708 13.1291 1025 56.1698 1217.45 543.079
1014 0 81.274 12.1564 988 57.3755 1217.49 542.342
1015 0 84.2804 12.9449 1091 56.1412 1217.35 540.06
1016 0 84.2804 12.9568 1092 162.789 1218.34 540.024
1017 0 91.2102 12.6411 1153 55.8387 1217.05 535.973
1018 0 94.3614 13.4589 1270 55.2071 1217.42 535.786
1019 0 95.3686 13.1595 1255 55.4701 1216.75 536.732
1020 0 100.368 12.9623 1301 55.7048 1216.53 534.185
1021 0 102.471 12.7744 1309 56.3728 1216.88 530.746
1022 0 107.368 12.9834 1394 55.9907 1217.12 529.697
1023 0 109.239 13.4018 1464 55.7152 1217.33 528.85
1024 1 61.1619 10.9545 670 56.3104 1217.21 551.045
1025 0 63.123 11.533 728 55.5494 1217.01 550.146
1026 0 63.123 11.5013 726 164.788 1217 550.118
1027 0 69.0612 12.8147 885 54.3232 1218.72 546.724
1028 0 74.1289 15.1358 1122 51.2041 1217.61 544.146
1029 0 74.0794 13.418 994 54.2596 1217.22 543.314
1030 0 74.0795 12.7701 946 56.0233 1217.41 544.004
1031 0 74.1036 12.442 922 57.0564 1218.48 544.12
1032 0 74.1036 12.4016 919 168.48 1218.48 544.156
1033 0 74.1036 12.4016 919 167.956 1218.48 544.156
1034 0 83.1677 12.8055 1065 56.8394 1219.03 539.12
1035 0 84.2656 13.1252 1106 57.0958 1219.25 538.103
1036 0 86.3632 12.899 1114 57.7217 1219.57 536.303
1037 0 88.198 13.1636 1161 57.5702 1219.51 536.323
1038 0 91.3728 13.3519 1220 57.0746 1219.75 536.12
1039 0 95.4853 13.6356 1302 57.0891 1219.89 533.564
1040 0 98.421 13.8995 1368 56.8311 1220.41 529.292
1041 0 103.407 13.7999 1427 56.8486 1220.46 529.426
1042 1 57.2552 11.8941 681 56.9031 1219.94 550.568
1043 0 56.3553 9.40462 530 59.534 1219.7 551.649
1044 0 57.2347 10.6579 610 57.7803 1220.04 549.967
1045 0 60.182 11.3988 686 56.8746 1220.04 548.302
1046 0 61.1546 12.4112 759 58.2951 1220.51 549.576
1047 0 63.1033 13.1372 829 56.3764 1222.29 548.166
1048 0 66.056 13.0344 861 56.885 1222.42 547.995
1049 0 65.0547 12.9276 841 57.4304 1222.82 545.599
1050 0 69.0403 13.4414 928 56.3782 1223.02 544.056
1051 0 71.1994 13.2304 942 57.0648 1222.4 544.252
1052 0 71.1994 13.2585 944 163.873 1221.4 544.266
1053 0 75.0604 13.1627 988 57.914 1222.49 541.644
1054 0 77.0663 13.2224 1019 57.5947 1223.05 541.613
1055 0 78.0824 12.9479 1011 58.7577 1222.72 538.938
1056 0 83.179 13.5611 1128 57.5656 1222.26 539.89
1057 0 83.2642 12.3823 1031 59.128 1222.09 537.829
1058 0 87.2535 13.7416 1199 56.97 1221.92 537.015
1059 0 88.2158 13.773 1215 57.042 1222.02 533.245
1060 0 92.3206 13.3773 1235 56.9976 1221.7 533.126
1061 0 94.2012 12.9935 1224 57.1708 1221.85 532.107
1062 0 98.4176 13.6663 1345 56.3718 1222.36 529.739
1063 0 99.3402 13.0662 1298 57.4792 1222.68 526.575
1064 0 104.255 13.9178 1451 56.1413 1222.33 529.182
1065 0 106.359 12.6176 1342 57.8823 1222.24 526.815
1066 0 110.425 13.602 1502 56.6318 1222 522.695
1067 0 114.433 12.8809 1474 57.2544 1222.11 522.17
1068 0 117.417 13.3541 1568 56.757 1222.01 519.108
1069 0 121.506 13.0858 1590 57.0044 1221.32 515.666
1070 1 68.2294 11.1242 759 55.058 1221.17 544.852
1071 0 69.2304 11.3245 784 54.44 1220.98 546.057
1072 0 70.1604 11.6162 815 56.6429 1221.19 543.906
1073 0 74.1655 12.0541 894 54.9452 1220.88 544.758
1074 0 74.1341 13.3542 990 54.3374 1220.62 539.784
1075 0 79.1885 12.7039 1006 53.1034 1221.34 540.777
1076 0 83.1871 11.8648 987 53.7264 1220.78 539.374
1077 0 84.1885 12.6858 1068 53.0534 1220.63 538.601
1078 0 86.1965 13.8869 1197 51.8154 1221.08 536.125
1079 0 89.1885 12.6362 1127 52.827 1220.5 535.492
1080 0 92.1155 13.5482 1248 52.1018 1220.44 532.692
1081 0 94.2174 12.9806 1223 53.0343 1220.37 532.245
1082 0 95.2686 12.5435 1195 53.7933 1220.09 530.869
1083 0 101.306 14.7968 1499 51.4636 1220.18 530.24
1084 0 101.171 13.235 1339 53.6856 1219.98 527.282
1085 1 57.0778 9.37318 535 53.7608 1220.78 554.23
1086 0 61.1536 10.7271 656 53.061 1220.69 550.867
1087 0 61.1394 11.8909 727 52.337 1220.87 550.715
1088 0 66.2094 12.8834 853 51.0492 1220.38 548.886
1089 0 65.1028 11.6431 758 53.0369 1220.31 547.468
1090 0 70.1825 11.4559 804 52.5572 1219.71 547.373
1091 0 69.1316 11.8325 818 53.2653 1219.18 546.07
1092 0 74.2376 13.6858 1016 50.2854 1219.66 543.886
1093 0 75.1578 12.4937 939 51.3738 1219.76 545.21
1094 0 76.1379 12.8845 981 51.213 1219.18 543.008
1095 0 78.155 12.5008 977 51.2702 1219.75 542.278
1096 0 80.0977 12.4348 996 50.992 1219.51 540.488
1097 0 83.2438 13.1061 1091 50.8588 1219.75 538.638
1098 0 86.1015 12.2181 1052 51.3821 1219.96 538.758
1099 0 88.3776 13.7931 1219 50.475 1219.73 535.127
1100 0 89.1157 11.4121 1017 52.4356 1219.68 537.327
1101 0 93.0849 12.7411 1186 51.2209 1219.65 535.121
1102 0 96.1793 12.6846 1220 51.318 1219.48 533.165
1103 0 100.303 12.8411 1288 51.6708 1219.1 533.498
1104 0 102.156 13.9688 1427 51.1969 1218.66 530.13
1105 1 55.2174 10.9024 602 52.2608 1218.46 553.349
1106 0 56.2055 11.8494 666 51.8408 1218.59 550.895
1107 0 61.247 11.5924 710 51.2479 1218.42 553.525
1108 0 58.2838 11.3067 659 50.0501 1218.27 550.962
1109 0 59.4355 10.7848 641 51.3651 1218.03 544.936
1110 0 63.1222 11.8342 747 49.996 1219.4 546.766
1111 0 65.244 12.4762 814 50.3022 1219.71 548.695
1112 0 67.1393 12.1985 819 50.4628 1218.98 543.114
1113 0 67.2042 13.4218 902 49.7871 1218.75 539.501
1114 0 67.0997 12.6826 851 50.2738 1218.79 539.911
1115 0 72.1085 12.9388 933 49.5241 1218.54 544.226
1116 0 73.1601 12.1924 892 50.0751 1218.23 545.368
1117 0 75.1833 13.4338 1010 48.8059 1217.11 546.066
1118 0 78.1922 12.9936 1016 49.6319 1216.7 543.605
1119 0 79.1402 12.8127 1014 49.8185 1216.98 543.365
1120 0 78.0496 11.9283 931 50.9216 1217.15 543.145
1121 0 84.0978 12.5925 1059 49.9641 1217.18 539.678
1122 0 87.1062 13.1449 1145 49.8253 1217.02 537.869
1123 0 90.0958 13.0861 1179 49.3936 1217.38 537.628
1124 0 93.1267 15.6239 1455 47.1491 1217.58 536.117
1125 1 55.1677 11.1478 615 49.2829 1216.96 555.501
1126 0 55.1682 10.9665 605 49.9504 1217.32 553.765
1127 0 55.0784 10.6938 589 50.4686 1217.71 553.064
1128 0 58.0458 10.4228 605 51.286 1217.6 551.106
1129 0 62.1033 12.9301 803 49.1021 1217.98 551.812
1130 0 61.2181 11.1405 682 51.2683 1217.68 550.682
1131 0 63.1542 11.4165 721 51.1692 1217.79 549.502
1132 0 66.1964 12.8708 852 50.3075 1217.89 548.723
1133 0 69.4237 13.5833 943 49.351 1218.61 548.393
1134 0 72.2167 13.8334 999 48.975 1217.77 547.464
1135 0 74.3142 13.5775 1009 49.6204 1218.24 545.802
1136 0 77.2581 13.7979 1066 49.1492 1218.11 542.905
1137 0 76.2968 13.1329 1002 50.6737 1218.29 540.361
1138 0 81.3665 12.6588 1030 50.8544 1217.87 542.65
1139 0 81.3534 12.1568 989 51.2356 1218.29 542.107
1140 1 46.2336 11.6366 538 49.0372 1217.98 561.011
1141 0 47.2009 11.6947 552 50.0525 1218.61 558.652
1142 0 49.2828 10.4093 513 52.3918 1218.37 556.776
1143 0 50.1823 12.056 605 50.2281 1218.94 556.271
1144 0 53.2616 12.6545 674 50.1632 1218.39 554.899
1145 0 53.2897 10.4148 555 51.6955 1218.56 557.096
1146 0 56.1173 12.5273 703 52.2518 1218.86 554.478
1147 0 59.1251 12.5666 743 52.4065 1219.28 553.121
1148 0 58.0746 12.2084 709 53.1001 1219.1 551.639
1149 0 61.1259 11.9916 733 52.9932 1219.82 552.018
1150 0 62.1138 12.1229 753 52.8672 1220.15 549.851
1151 0 64.1039 12.7761 819 52.7277 1220.22 550.093
1152 0 67.3234 14.1852 955 49.6859 1220.25 546.852
1153 0 68.1359 13.9867 953 51.2907 1220.18 547.361
1154 0 71.2291 13.0986 933 52.0536 1220.39 546.817
1155 0 70.1334 12.4192 871 53.3123 1220.45 545.988
1156 0 73.1751 12.7502 933 52.9014 1221 544.394
1157 0 75.089 14.2364 1069 51.7306 1221.32 542.249
1158 0 77.1091 15.0177 1158 50.6986 1221.82 541.846
1159 0 79.198 13.6746 1083 52.0803 1222.01 540.986
1160 0 81.1857 13.4137 1089 52.6024 1221.85 539.896
1161 0 83.2137 13.8198 1150 52.6478 1222.86 538.061
1162 0 87.2224 14.228 1241 52.0983 1223.26 536.701
1163 0 89.2818 13.295 1187 52.9174 1223.12 534.849
1164 0 92.2508 13.3441 1231 52.6986 1223.29 532.272
1165 0 93.149 13.3227 1241 52.7929 1223.57 531.479
1166 0 99.1641 12.9281 1282 52.8541 1223.46 532.36
1167 0 99.1074 13.8637 1374 52.2991 1222.8 530.113
1168 1 57.0877 10.3175 589 53.8862 1222.56 552.44
1169 0 61.0528 12.5138 764 52.1283 1222.68 548.486
1170 0 62.1191 11.8482 736 53.5258 1222.71 548.117
1171 0 64.0774 12.9687 831 52.5463 1223.14 547.463
1172 0 67.137 12.6458 849 52.1826 1223.19 545.688
1173 0 67.1686 12.9823 872 51.8314 1224.56 544.846
1174 0 69.126 13.5116 934 51.6895 1225.19 544.451
1175 0 72.0827 13.0544 941 52.0478 1224.11 542.207
1176 0 76.2774 13.9753 1066 50.7186 1224.1 542.229
1177 0 76.2158 13.5274 1031 51.4753 1223.71 540.276
1178 0 79.1172 14.2068 1124 51.0961 1223.74 538.993
1179 0 82.2273 13.2924 1093 51.1793 1223.22 536.958
1180 0 84.137 14.9399 1257 49.4694 1224.07 535.809
1181 0 87.0897 14.6745 1278 49.4914 1224.05 534.311
1182 0 87.0928 13.1813 1148 51.5105 1223.79 532.405
1183 0 91.1926 13.5647 1237 50.9992 1223.89 532.016
1184 0 92.0807 13.7162 1263 50.9992 1223.87 530.006
1185 1 48.0576 10.4666 503 51.4175 1223.57 552.326
1186 0 51.1038 10.9972 562 51.1815 1223.12 550.242
1187 0 53.0973 11.5637 614 50.1336 1222.53 550.722
1188 0 54.2176 10.9374 593 50.6594 1222.37 550.454
1189 0 53.0669 10.515 558 51.3495 1223.08 546.862
1190 0 58.2484 11.9832 698 49.7808 1222.31 546.931
1191 0 61.2993 12.3656 758 49.2045 1222.5 545.813
1192 0 64.1049 12.3391 791 49.9355 1221.96 548.552
1193 0 64.1471 12.8922 827 49.7703 1221.72 545.036
1194 0 65.0832 13.1831 858 49.9254 1222 544.853
1195 0 66.0858 13.3463 882 50.2166 1221.3 545.298
1196 0 72.079 14.498 1045 48.6565 1221.81 544.396
1197 0 71.0841 12.7314 905 51.1006 1221.89 543.449
1198 0 74.113 13.3175 987 50.4924 1221.49 541.612
1199 0 75.179 13.3282 1002 50.9511 1221.3 541.589
1200 0 75.235 13.0126 979 51.5751 1221.45 539.888
1201 0 75.235 13.0391 981 156.092 1220.47 539.933
1202 0 82.2879 13.8295 1138 50.7065 1221.38 535.788
1203 0 85.2582 14.0866 1201 50.3281 1221.44 535.029
1204 0 88.2724 13.8662 1224 50.5188 1221.02 535.211
1205 0 90.2872 13.1912 1191 51.5894 1221 533.376
1206 0 92.2642 13.6673 1261 51.1523 1221.19 534.891
1207 0 91.1771 13.4354 1225 52.1143 1221.56 534.02
1208 0 97.1635 12.8649 1250 52.8768 1221.38 531.241
1209 1 52.1896 11.8414 618 51.6359 1221.65 553.736
1210 0 55.1356 11.771 649 51.379 1221.3 553.778
1211 0 57.0639 12.337 704 50.8054 1221.31 552.33
1212 0 56.2397 12.1267 682 51.8108 1220.1 550.416
1213 0 58.2334 12.2095 711 51.903 1220.22 551.132
1214 0 61.3339 14.3314 879 49.5313 1220.26 548.933
1215 0 62.0466 13.4738 836 50.7644 1219.92 548.653
1216 0 62.1197 13.8281 859 50.525 1219.91 547.717
1217 0 65.1042 14.5459 947 49.7286 1219.19 547.899
1218 0 66.1892 13.7485 910 50.7231 1219.59 546.206
1219 0 67.0706 13.2696 890 51.2079 1219.47 543.603
1220 0 70.1176 13.8054 968 50.5062 1219.32 543.543
1221 0 72.1718 13.1769 951 51.164 1219.65 543.476
1222 0 75.2251 14.5563 1095 49.8639 1219.21 543.331
1223 0 78.1483 14.8052 1157 49.5402 1219.78 542.628
1224 0 79.1395 13.6847 1083 50.7535 1219.3 542.438
1225 0 82.1826 13.7377 1129 50.9699 1218.95 540.999
1226 0 82.3242 13.9813 1151 51.2233 1218.54 540.244
1227 0 87.2919 12.9565 1131 52.1353 1219.45 538.393
1228 1 46.079 9.80925 452 53.0686 1218.96 557.958
1229 0 50.1093 10.2576 514 53.1693 1219.16 555.64
1230 0 53.0637 12.3248 654 50.841 1218.95 555.566
1231 0 55.0605 12.6588 697 51.5194 1218.25 554.775
1232 0 56.0253 10.6738 598 53.2007 1218.03 554.564
1233 0 58.0726 13.9136 808 50.526 1218.14 554.832
1234 0 58.1474 12.2447 712 52.2233 1218.96 553.472
1235 0 59.1706 12.2865 727 53.1623 1218.78 550.182
1236 0 62.1805 13.5412 842 51.6853 1218.91 551.202
1237 0 64.3189 14.0083 901 51.3097 1218.55 549.698
1238 0 64.1699 12.7318 817 52.8996 1218.33 549.482
1239 0 67.1463 12.7483 856 53.1694 1218.08 549.642
1240 0 67.2238 13.9385 937 51.9136 1218.14 548.892
1241 0 69.2495 12.9676 898 53.5902 1218.71 549.148
1242 0 71.3198 13.8671 989 52.1112 1218.53 548.612
1243 0 70.3011 13.5844 955 53.0712 1218.6 546.653
1244 0 75.387 14.1802 1069 52.0037 1218.23 545.271
1245 0 76.2086 13.24 1009 53.3697 1218.04 544.734
1246 0 81.2805 14.4684 1176 51.6692 1218.12 543.434
1247 0 82.2103 13.5993 1118 53.1521 1218.18 543.113
1248 0 81.311 12.8027 1041 55.6955 1218.21 540.012
1249 0 87.4154 14.0021 1224 53.9191 1217.94 539.079
1250 0 89.3924 12.9094 1154 55.5832 1217.63 534.37
1251 1 48.3327 10.076 487 55.3984 1217.18 557.766
1252 0 49.3491 11.5301 569 55.4851 1216.97 555.791
1253 0 51.3779 12.3205 633 55.3318 1217.68 553.872
1254 0 52.2889 13.0047 680 54.9368 1217.42 554.8
1255 0 56.3215 13.0323 734 54.2875 1217.53 552.591
1256 0 57.3064 13.0701 749 54.8678 1217.71 550.53
1257 0 59.288 14.0163 831 53.5848 1218.23 551.586
1258 0 59.2098 11.9744 709 56.2496 1218.77 550.852
1259 0 63.2618 12.393 784 55.4439 1218.74 549.082
1260 0 64.1844 12.7134 816 54.3554 1218.76 548.181
1261 0 66.3367 11.8637 787 55.7776 1218.74 547.356
1262 0 65.2052 12.6677 826 55.5242 1218.95 545.26
1263 0 70.306 13.7968 970 54.0186 1219.16 544.855
1264 0 69.217 13.8116 956 54.7186 1219.36 543.938
1265 0 71.2538 13.2203 942 55.2527 1219.52 543.61
1266 0 74.3346 14.6096 1086 53.6851 1219.56 542.257
1267 0 75.2481 14.6848 1105 54.0371 1220.08 539.359
1268 0 80.4137 14.7612 1187 53.4979 1220.48 540.28
1269 0 82.3467 13.2853 1094 55.0576 1219.6 539.528
1270 0 87.306 14.5236 1268 53.1577 1220.53 538.784
1271 0 88.1525 13.6241 1201 54.6578 1221.04 535.859
1272 0 90.2854 13.5238 1221 54.8256 1221.51 534.865
1273 0 94.3169 13.8681 1308 54.3486 1221.76 533.457
1274 1 51.1999 11.3086 579 55.5458 1222.05 552.877
1275 0 52.0823 10.3682 540 56.0056 1221.94 553.967
1276 0 55.1156 11.5212 635 55.3622 1222.1 551.934
1277 0 56.0787 10.8954 611 56.2995 1222.71 550.088
1278 0 58.0764 11.6915 679 54.3814 1223.19 549.826
1279 0 59.0717 12.2394 723 54.2351 1223.34 548.87
1280 0 62.1211 13.4737 837 52.9916 1223.13 548.859
1281 0 61.0944 12.849 785 54.628 1223.71 547.181
1282 0 65.168 12.9511 844 53.3543 1223.5 546.367
1283 0 67.1308 13.1087 880 53.0318 1223.17 545.042
1284 0 71.1474 14.1678 1008 51.7232 1223.49 544.346
1285 0 72.3199 14.6294 1058 51.4045 1223.21 543.818
1286 0 74.3251 13.1584 978 53 1223.09 541.81
1287 0 79.1429 14.796 1171 51.3151 1223.01 541.793
1288 0 81.2307 13.4924 1096 52.8257 1223.21 540.27
1289 0 83.3255 13.8013 1150 52.8104 1222.96 538.756
1290 0 87.2426 14.1674 1236 52.3042 1223.35 535.806
1291 0 88.2694 12.9377 1142 53.2277 1223.16 535.405
1292 0 92.2578 13.5923 1254 52.1236 1222.94 536.913
1293 0 95.2999 13.914 1326 52.4103 1222.87 530.598
1294 1 56.2992 13.1085 738 51.1599 1222.65 552.753
1295 0 56.2073 11.8312 665 52.9654 1223.23 551.445
1296 0 59.1312 12.5822 744 52.5457 1223.63 550.05
1297 0 57.2127 12.2351 700 53.9314 1223.81 550.104
1298 0 61.2498 13.5184 828 52.3925 1223.53 549.612
1299 0 61.2007 12.941 792 54.3005 1223.48 548.938
1300 0 63.1915 13.4828 852 53.7254 1223.81 547.291
1301 0 67.2261 13.6703 919 53.6518 1223.23 546.225
1302 0 67.185 14.0359 943 53.3139 1223.56 544.997
1303 0 70.1978 14.5019 1018 52.8949 1222.74 544.597
1304 0 71.2407 13.1105 934 55.0064 1222.93 543.177
1305 0 74.1904 13.371 992 54.3387 1223.02 542.357
1306 0 78.194 13.2363 1035 54.7556 1222.96 540.325
1307 0 81.297 14.1457 1150 53.3861 1223.04 541.032
1308 0 79.4715 11.8407 941 56.3369 1222.73 540.176
1309 0 85.3225 14.7441 1258 53.6749 1222.6 536.4
1310 0 88.2294 13.7143 1210 54.6058 1222.24 536.74
1311 0 92.4948 14.8441 1373 53.2156 1222.14 533.315
1312 0 93.3028 13.9974 1306 55.4686 1222.15 531.207
1313 0 97.4102 14.3106 1394 55.076 1221.68 532.16
1314 1 54.1355 11.6005 628 56.3615 1221.38 551.65
1315 0 57.3562 11.0363 633 55.9542 1220.8 551.423
1316 0 57.2341 12.3528 707 55.5926 1221.15 556.576
1317 0 58.1449 12.7096 739 55.3491 1221.14 552.582
1318 0 61.2875 11.3237 694 56.83 1220.88 551.167
1319 0 62.3143 13.127 818 55.4181 1220.76 551.105
1320 0 65.2432 13.7945 900 54.2667 1220.01 549.19
1321 0 65.2399 12.9062 842 56.4774 1220.15 547.778
1322 0 68.3712 13.0464 892 56.0964 1219.98 547.232
1323 0 68.293 12.5928 860 57.2198 1220.95 545.566
1324 0 70.2681 12.865 904 56.7268 1220.54 543.285
1325 0 73.3333 14.1955 1041 54.611 1220.18 546.83
1326 0 75.2431 13.4099 1009 55.5411 1220.43 543.519
1327 0 79.2198 15.4507 1224 53.1234 1220.15 542.242
1328 0 79.3506 14.1524 1123 55.2066 1220.67 540.53
1329 0 82.2752 13.9532 1148 55.4033 1220.05 538.879
1330 0 85.3567 13.7775 1176 55.4507 1219.56 538.441
1331 0 88.2932 14.4405 1275 54.5161 1219.07 535.962
1332 0 92.2017 14.2947 1318 54.7367 1218.86 535.3
1333 0 95.1917 13.4045 1276 55.2555 1219.28 534.241
1334 0 95.4113 14.3694 1371 55.5325 1219.66 533.9
1335 0 99.1689 13.9358 1382 55.6085 1219.59 534.957
1336 0 102.227 14.7124 1504 54.3657 1219.32 532.052
1337 0 104.31 13.0284 1359 56.4864 1219.38 529.291
1338 1 60.1259 11.3096 680 55.5471 1219.1 550.835
1339 0 62.3195 12.5643 783 53.5964 1218.96 551.507
1340 0 65.2391 12.5538 819 53.0122 1219.03 550.934
1341 0 65.1614 12.8297 836 53.5395 1219.9 549.243
1342 0 68.2973 12.2113 834 53.5468 1219.69 546.278
1343 0 69.1539 12.1613 841 53.3579 1219.3 546.314
1344 0 69.1539 12.1324 839 157.697 1219.3 546.383
1345 0 76.4078 12.538 958 52.1754 1219.35 542.005
1346 0 77.4151 13.3824 1036 50.9151 1218.81 544.713
1347 0 78.3236 11.8355 927 53.4423 1218.87 541.282
1348 0 80.3508 12.5948 1012 52.7006 1218.35 541.367
1349 0 83.5049 12.8974 1077 52.2721 1218.28 542.386
1350 0 86.4212 12.2655 1060 53.2736 1217.91 539.033
1351 0 89.486 12.7282 1139 53.0061 1217.67 537.898
1352 0 93.3692 13.12 1225 53.0996 1217.67 531.71
1353 0 93.4093 12.1829 1138 54.833 1217.65 534.174
1354 0 99.5042 14.2205 1415 52.6396 1217.72 533.537
1355 0 99.6139 13.1307 1308 54.1567 1217.98 532.367
1356 0 100.284 12.5045 1254 55.8461 1218.07 530.145
1357 0 105.441 13.2492 1397 54.6879 1217.5 530.519
1358 0 107.234 12.3655 1326 56.2353 1217.33 526.41
1359 0 111.427 13.1835 1469 55.1654 1217.18 526.279
1360 1 60.4736 11.4926 695 53.9094 1216.61 553.675
1361 0 63.3448 11.3821 721 54.7476 1216.63 551.799
1362 0 63.2887 11.4554 725 55.3503 1216.79 550.127
1363 0 66.4499 11.8285 786 55.0891 1216.55 549.819
1364 0 66.2876 12.3553 819 56.0989 1216.44 548.686
1365 0 69.5578 11.76 818 56.6687 1216.7 547.23
1366 0 73.5812 12.9517 953 55.3494 1215.94 545.16
1367 0 76.6717 12.4557 955 55.91 1215.98 545.309
1368 0 79.6582 13.1813 1050 55.0657 1215.82 543.196
1369 0 81.4929 14.0626 1146 55.0096 1216.22 540.31
1370 0 82.5086 13.1744 1087 56.7406 1216.19 542.006
1371 0 84.7359 12.2852 1041 57.8463 1216.26 539.562
1372 1 45.4806 10.9717 499 57.1864 1215.9 559.431
1373 0 46.4109 11.0534 513 57.2534 1216.08 558.111
1374 0 47.695 10.8397 517 58.0193 1215.38 558.132
1375 0 47.5797 10.6978 509 59.446 1216.05 555.766
1376 0 52.3626 11.2485 589 57.8778 1215.87 555.839
1377 0 55.4235 12.0166 666 57.1787 1215.5 554.956
1378 0 56.3598 12.5622 708 56.6624 1215.83 552.541
1379 0 56.3585 12.1898 687 57.3275 1215.45 550.645
1380 0 58.3679 11.8558 692 58.1199 1215.17 551.127
1381 0 62.5951 12.461 780 56.7551 1215.6 550.672
1382 0 62.3318 13.4602 839 53.5495 1215.39 548.383
1383 0 65.5956 13.69 898 52.7684 1216.05 547.704
1384 0 64.5553 13.3219 860 57.6128 1215.84 547.305
1385 0 68.5584 13.7985 946 54.7653 1215.96 546.434
1386 0 70.3309 13.4365 945 55.9153 1216.62 545.362
1387 0 70.4882 13.0802 922 56.6811 1217 545.881
1388 0 70.4905 12.413 875 58.3577 1217.08 543.111
1389 0 75.2836 13.1636 991 56.7185 1217.17 543.971
1390 0 78.421 14.0013 1098 55.816 1217.45 544.255
1391 0 79.375 13.2661 1053 57.3286 1217.14 541.558
1392 0 79.375 13.2661 1053 161.233 1217.14 541.558
1393 0 84.4249 13.0412 1101 58.0082 1217.28 537.768
1394 0 86.2579 13.9118 1200 57.1367 1217.33 536.686
1395 0 89.3234 13.4791 1204 57.8098 1217.2 535.802
1396 0 92.3457 13.4278 1240 57.5718 1217.86 536.467
1397 0 95.3166 14.0584 1340 56.6836 1217.95 532.673
1398 0 99.3034 13.2725 1318 57.6411 1218.26 530.701
1399 0 101.385 12.5857 1276 58.5133 1218.87 528.839
1400 0 105.361 13.8002 1454 57.0681 1218.72 527.64
1401 0 109.348 13.2056 1444 57.437 1219.38 525.815
1402 1 56.272 9.86281 555 58.555 1218.97 550.373
1403 0 62.0885 11.0165 684 56.0439 1218.85 551.56
1404 0 63.1446 12.0834 763 54.4273 1221.29 551.974
1405 0 63.3211 12.7446 807 55.1611 1221.2 546.974
1406 0 68.1155 13.2129 900 53.1144 1221.63 546.799
1407 0 66.0685 12.4568 823 54.5395 1221.66 543.589
1408 0 71.1949 12.4307 885 53.7311 1221.69 544.62
1409 0 75.1235 14.0835 1058 51.7448 1221.42 544.605
1410 0 75.2511 13.4882 1015 52.5399 1221.9 543.1
1411 0 79.1 13.0341 1031 52.7158 1222.17 540.164
1412 0 82.0762 14.0845 1156 50.9792 1222.2 541.584
1413 0 84.0533 13.9197 1170 51.4701 1222.63 537.81
1414 0 87.1002 13.9609 1216 51.5288 1222.34 535.93
1415 0 88.1238 13.3789 1179 51.9856 1222.25 535.439
1416 0 88.1238 13.4243 1183 158.022 1222.26 535.407
1417 0 95.1726 14.1848 1350 51.5867 1222.83 533.004
1418 0 96.368 13.6145 1312 52.3872 1223.17 531.423
1419 0 101.255 14.6561 1484 51.1813 1222.88 529.74
1420 0 101.378 13.3461 1353 52.9571 1222.92 524.989
1421 0 107.459 14.1728 1523 51.6724 1222.83 524.083
1422 0 112.451 16.8874 1899 48.3418 1222.88 518.976
1423 1 62.2121 11.2518 700 53.16 1223.3 545.054
1424 0 62.3378 11.935 744 53.336 1222.85 546.814
1425 0 67.1307 13.7046 920 50.9739 1223.38 545.925
1426 0 69.1429 13.6529 944 50.7786 1223.3 545.388
1427 0 69.254 12.8657 891 52.5634 1223.27 545.145
1428 0 70.172 12.8826 904 52.2588 1223.74 544.345
1429 0 73.2321 14.1195 1034 50.5928 1223.28 542.085
1430 0 74.4574 12.1009 901 52.7414 1222.93 541.43
1431 0 75.4264 13.0591 985 52.0873 1223.34 539.918
1432 0 79.3071 13.5801 1077 51.3918 1223.55 541.503
1433 0 85.3308 14.0512 1199 49.5505 1223 539.523
1434 0 85.3595 13.039 1113 51.2633 1222.6 539.118
1435 0 89.2048 13.0374 1163 51.957 1222.74 537.285
1436 0 90.2928 13.0686 1180 52.8627 1222.37 534
1437 0 92.4093 13.3753 1236 52.9223 1222.2 532.478
1438 0 95.2435 14.2267 1355 52.4524 1221.93 532.064
1439 0 98.361 13.4911 1327 52.9329 1221.96 529.569
1440 0 102.453 13.9868 1433 51.6678 1221.93 528.243
1441 0 104.359 14.0093 1462 51.327 1221.85 527.841
1442 0 107.197 13.4052 1437 51.4447 1222.02 525.46
1443 0 112.439 15.0036 1687 49.9058 1221.44 522.941
1444 0 114.398 13.8552 1585 51.1394 1222 522.293
1445 1 66.0591 11.3686 751 51.5939 1220.53 546.442
1446 0 68.1676 10.4008 709 51.7391 1220.76 546.719
1447 0 71.0778 11.41 811 51.1689 1219.9 545.28
1448 0 72.1361 12.4764 900 50.7344 1219.92 541.423
1449 0 75.0971 13.3161 1000 49.423 1220.88 542.744
1450 0 77.1067 13.0728 1008 50.7391 1220.84 539.854
1451 0 79.0688 13.2796 1050 50.5514 1221.14 540.913
1452 0 81.0613 13.4219 1088 50.4825 1220.54 539.259
1453 0 84.2321 13.5578 1142 50.6243 1220.51 537.029
1454 0 86.1455 13.2566 1142 51.0271 1220.24 535.329
1455 0 90.3381 12.9403 1169 51.1788 1220.18 534.759
1456 0 96.1805 15.8972 1529 47.8319 1220.51 531.908
1457 0 93.2524 12.6538 1180 52.2373 1220.16 530.937
1458 0 93.2524 12.6753 1182 150.766 1219.15 530.952
1459 0 99.2364 13.3217 1322 51.798 1219.34 528.215
1460 0 103.236 13.5806 1402 51.3402 1219.87 528.757
1461 0 106.295 14.2528 1515 51.1637 1219.54 524.518
1462 1 60.1825 9.90321 596 52.5654 1219.29 550.767
1463 0 63.1654 11.2562 711 51.1913 1219.15 549.952
1464 0 66.1346 12.4443 823 51.503 1219.08 545.463
1465 0 69.0998 12.9523 895 50.419 1218.7 546.24
1466 0 71.2226 12.3978 883 51.1382 1218.54 543.835
1467 0 71.1285 12.7516 907 51.1632 1218.52 544.023
1468 0 76.207 14.5525 1109 49.1858 1218.09 542.51
1469 0 75.2827 11.2509 847 52.3932 1218.3 540.869
1470 0 81.249 12.3325 1002 50.511 1218.16 542.684
1471 0 84.1955 12.8629 1083 50.2271 1217.89 538.393
1472 0 85.328 13.4071 1144 50.0079 1216.84 537.063
1473 0 87.3458 12.3876 1082 51.1959 1216.66 535.163
1474 0 87.3445 13.3151 1163 50.8487 1217.26 531.423
1475 0 91.4542 12.6621 1158 50.8515 1217.11 530.967
1476 0 94.4449 13.267 1253 50.1979 1217.24 529.298
1477 0 97.3764 11.6044 1130 52.0133 1217.5 525.325
1478 0 100.265 13.3047 1334 50.1634 1217.03 527.581
1479 0 105.321 13.3687 1408 50.3182 1216.88 525.143
1480 1 57.2103 10.4352 597 50.737 1216.5 547.605
1481 0 58.2874 8.93847 521 52.1823 1216.55 548.61
1482 0 61.3592 10.3652 636 51.467 1216.69 546.535
1483 0 64.145 10.4139 668 51.4551 1217.25 545.988
1484 0 65.2813 10.7075 699 51.8727 1216.97 545.246
1485 0 64.2666 9.94296 639 54.0047 1216.21 541.38
1486 0 70.2158 11.5359 810 52.0407 1215.95 543.986
1487 0 72.144 11.5741 835 52.1198 1217.01 542.072
1488 0 72.1366 11.9496 862 52.239 1216.38 542.392
1489 0 74.1988 12.2374 908 52.1663 1216.06 539.865
1490 0 80.1264 11.4694 919 52.3972 1217.58 543.698
1491 0 82.1823 12.6183 1037 51.6905 1216.2 542.517
1492 0 84.1394 12.7289 1071 52.4855 1216.08 539.733
1493 0 85.167 13.7377 1170 51.6932 1216.95 539.964
1494 0 88.2799 13.174 1163 52.0215 1217.19 538.609
1495 0 90.1204 13.0492 1176 52.608 1217.19 535.364
1496 0 92.1382 13.0022 1198 53.293 1217.26 535.907
1497 0 95.105 13.3747 1272 53.6093 1217.12 530.432
1498 0 97.1329 13.7646 1337 52.8414 1217.14 532.512
1499 0 101.098 13.1259 1327 54.5667 1217.39 528.516
1500 0 106.211 13.9816 1485 53.1286 1217.59 528.296
1501 0 107.178 12.9971 1393 54.9052 1218.09 524.967
1502 0 111.139 13.4606 1496 54.0234 1218.16 523.622
1503 0 113.115 12.1911 1379 55.2451 1218.48 524.423
1504 0 118.141 13.3739 1580 54.6006 1218.84 519.307
1505 0 119.098 12.9642 1544 54.726 1219.06 518.905
1506 0 123.278 13.0843 1613 54.3602 1219.12 515.043
1507 1 76.1201 10.4046 792 52.7917 1219.14 543.468
1508 0 74.0572 9.61419 712 53.5014 1219.35 543.195
1509 0 79.1289 11.8794 940 52.7649 1219.81 540.233
1510 0 82.1139 11.752 965 52.6746 1219.77 539.058
1511 0 84.1072 12.1987 1026 52.8928 1220.69 537.912
1512 0 87.2117 13.622 1188 51.5455 1220.57 535.414
1513 0 89.1506 13.1351 1171 52.1418 1220.19 535.517
1514 0 92.1933 12.6257 1164 52.3462 1220.26 534.717
1515 0 96.0582 13.471 1294 51.2187 1221.15 532.611
1516 0 97.2072 12.9414 1258 51.9412 1221 530.783
1517 0 100.136 12.0237 1204 52.9801 1221.49 526.582
1518 0 103.254 12.813 1323 51.8798 1221.5 524.684
1519 0 105.22 12.5737 1323 52.6538 1221.75 523.229
1520 0 109.213 13.231 1445 51.681 1221.76 523.972
1521 0 113.264 12.749 1444 51.91 1222.49 520.627
1522 0 117.287 13.2069 1549 51.9135 1222.86 518.409
1523 0 119.238 13.0999 1562 51.5839 1223.08 517.804
1524 0 125.379 12.546 1573 51.4278 1222.96 520.702
1525 0 127.24 13.6043 1731 50.6678 1222.85 514.477
1526 0 130.196 13.1878 1717 51.1648 1222.71 513.73
1527 1 78.0803 12.2438 956 48.5983 1222.78 544.01
1528 0 78.2696 11.8309 926 49.6156 1222.78 539.477
1529 0 82.124 13.6379 1120 47.8304 1222.77 540.638
1530 0 83.2696 12.5976 1049 48.8904 1222.77 538.842
1531 0 84.1852 12.2587 1032 49.1463 1222.75 534.744
1532 0 88.1368 12.8096 1129 48.8671 1222.54 534.516
1533 0 88.1368 12.7642 1125 145.397 1222.55 534.528
1534 0 95.2043 12.72 1211 48.744 1222.65 530.896
1535 0 98.2229 12.6651 1244 48.9654 1222.62 530.302
1536 0 100.275 12.5655 1260 48.9683 1222.84 528.674
1537 0 104.285 13.2522 1382 48.4465 1222.8 527.741
1538 0 107.389 13.2788 1426 48.723 1223.41 527.394
1539 0 106.312 12.1434 1291 50.244 1223.02 523.052
1540 0 110.24 13.9968 1543 49.0305 1222.65 522.426
1541 0 113.32 13.2721 1504 49.9189 1223.25 521.742
1542 0 121.372 16.4289 1994 46.514 1222.8 518.034
1543 0 122.468 14.3058 1752 48.2083 1222.92 521.364
1544 0 125.241 13.2704 1662 49.4079 1222.71 515.635
1545 0 129.352 13.4749 1743 49.066 1222.78 514.287
1546 0 134.408 13.221 1777 49.3033 1222.62 512.425
1547 1 77.1917 11.6981 903 49.2027 1222.18 540.291
1548 0 79.1994 11.995 950 49.0926 1222.21 540.23
1549 0 83.1166 11.8388 984 49.1423 1222.12 537.617
1550 0 86.0902 12.1036 1042 48.7169 1222.18 540.352
1551 0 87.1563 12.4833 1088 49.2068 1220.84 535.699
1552 0 91.0732 12.7919 1165 48.8429 1221.99 535.938
1553 0 90.3182 12.4338 1123 49.5459 1221.6 535.41
1554 0 96.1649 12.9985 1250 48.8352 1221.18 533.143
1555 0 98.1734 12.7631 1253 49.8053 1220.98 531.523
1556 0 102.158 12.9994 1328 49.7583 1221.16 527.94
1557 0 105.21 13.0786 1376 49.4898 1220.76 528.517
1558 0 108.198 13.4476 1455 49.8467 1221.01 526.071
1559 0 110.294 13.7178 1513 49.7264 1221.01 527.401
1560 0 115.231 14.319 1650 49.5382 1220.26 525.523
1561 0 117.235 14.6032 1712 49.8037 1220.8 521.135
1562 0 120.412 13.6282 1641 50.6807 1220.48 521.186
1563 0 122.367 13.1816 1613 52.2362 1220.46 516.227
1564 1 71.1993 10.281 732 52.8812 1220.25 544.249
1565 0 76.2482 11.3314 864 50.4514 1219.93 543.671
1566 0 76.3577 11.7342 896 51.7321 1219.33 542.086
1567 0 79.2137 11.9045 943 51.7253 1219.44 539.825
1568 0 80.2683 13.268 1065 50.015 1219.55 535.785
1569 0 83.109 12.5859 1046 52.1032 1220 535.272
1570 0 87.3453 13.418 1172 51.1391 1220.65 537.255
1571 0 88.1677 12.9072 1138 51.5914 1220.48 535.431
1572 0 92.2168 13.7936 1272 50.7618 1220.11 533.68
1573 0 93.2922 12.7127 1186 51.6121 1219.99 534.891
1574 0 98.4729 13.2118 1301 51.2998 1219.72 531.291
1575 0 101.506 14.2947 1451 50.705 1219.78 527.431
1576 1 64.7778 10.482 679 53.0457 1219.95 546.676
1577 0 64.559 9.06148 585 53.3607 1219.72 549.983
1578 0 65.611 8.83998 580 53.8431 1219.31 549.567
1579 0 65.393 9.90932 648 54.3719 1219.3 548.031
1580 0 66.499 11.0077 732 53.3648 1219.07 548.382
1581 1 121.592 13.2574 1612 54.0527 1218.79 518.637
1582 0 124.668 14.4544 1802 52.9917 1218.97 516.803
1583 0 129.672 14.1202 1831 53.142 1218.66 517.782
1584 1 74.5087 12.5489 935 53.2492 1218.71 543.924
1585 0 75.3965 12.295 927 54.041 1218.84 543.821
1586 0 76.5872 12.822 982 53.667 1218.71 543.052
1587 0 78.9339 13.847 1093 53.0952 1218.4 538.58
1588 0 81.5593 12.3346 1006 54.4145 1217.94 540.31
1589 0 86.5919 14.7011 1273 52.3307 1218.34 537.769
1590 0 86.4946 12.8794 1114 54.7917 1217.87 534.644
1591 0 89.8026 13.9194 1250 53.48 1218.1 535.063
1592 0 91.4522 13.2419 1211 54.4352 1217.98 533.597
1593 0 96.6441 14.4241 1394 52.8902 1218.6 533.433
1594 0 98.5768 13.9181 1372 53.4738 1218.64 530.842
1595 0 102.652 14.252 1463 53.3999 1218.84 528.869
1596 0 104.713 13.7041 1435 54.1233 1218.68 528.77
1597 0 106.756 13.7041 1463 54.5208 1218.66 527.511
1598 0 109.438 14.9583 1637 53.5113 1218.09 522.273
1599 0 113.516 13.5751 1541 54.7988 1218.5 521.521
1600 0 115.817 13.5472 1569 55.392 1218.24 522.013
1601 0 120.75 13.7723 1663 54.7811 1218.34 519.774
1602 0 129.665 17.8614 2316 49.4396 1218.45 512.535
1603 0 128.682 15.682 2018 52.389 1218.54 513.087
1604 0 131.619 14.8307 1952 53.7505 1219.13 514.233
1605 0 132.531 14.306 1896 54.3782 1218.6 512.463
1606 0 139.796 14.5713 2037 53.5557 1219.06 509.954
1607 0 143.679 15.3328 2203 52.719 1220.08 509.752
1608 1 83.451 11.8033 985 54.3949 1220.01 539.314
1609 0 87.2847 13.1065 1144 53.2605 1220.2 537.641
1610 0 90.3162 13.4417 1214 53.1474 1220.28 534.685
1611 0 93.4074 14.3993 1345 52.2112 1220.52 533.75
1612 0 95.3874 14.5407 1387 52.2696 1220.42 533.854
1613 0 99.4606 14.096 1402 52.2147 1221.04 530.129
1614 0 101.447 14.0862 1429 52.7369 1221.22 525.352
1615 0 107.227 14.7352 1580 51.3519 1221.62 527.821
1616 0 111.438 14.6809 1636 51.555 1221.77 524.083
1617 0 116.44 15.8537 1846 50.4577 1222.28 523.088
1618 1 62.2239 11.6354 724 53.837 1222.27 546.24
1619 0 64.3584 11.9953 772 52.3212 1221.46 546.65
1620 0 65.1852 11.3523 740 53.3905 1221.53 544.999
1621 0 71.2904 12.0353 858 52.8112 1221.92 546.411
1622 0 71.2049 12.8924 918 52.3377 1222.26 541.982
1623 0 73.2483 13.0515 956 52.4916 1222.75 542.692
1624 0 77.2109 14.3633 1109 50.5726 1223.14 540.558
1625 0 78.2136 13.6294 1066 51.7261 1223.75 538.417
1626 0 79.3874 12.6972 1008 52.2212 1223.16 539.336
1627 0 81.3282 13.6484 1110 52.064 1223.78 535.627
1628 0 85.5018 13.9763 1195 51.1456 1224.39 535.531
1629 0 89.4525 13.9851 1251 50.6211 1224.62 533.664
1630 0 91.2214 13.1548 1200 51.72 1223.94 532.068
1631 0 93.3055 14.3293 1337 50.6799 1223.57 532.236
1632 0 93.3055 14.3614 1340 162.766 1222.58 532.154
1633 0 97.1826 13.5209 1314 51.8866 1223.59 529.003
1634 0 101.245 14.7464 1493 50.9699 1223.83 526.776
1635 0 103.275 14.0595 1452 51.4291 1223.82 524.818
1636 0 103.275 14.0014 1446 157.557 1223.82 524.866
1637 1 61.2315 11.285 691 51.5586 1224.52 549.013
1638 0 62.1068 11.5124 715 52.3315 1224.43 547.845
1639 0 66.1551 12.1986 807 51.5675 1223.97 547.102
1640 0 66.1403 13.0329 862 51.732 1224.43 544.876
1641 0 67.1422 13.8065 927 50.4757 1225.22 545.212
1642 0 69.2483 13.4444 931 50.8335 1224.79 541.394
1643 0 72.2966 13.8181 999 50.6697 1224.47 542.604
1644 0 72.1242 13.144 948 51.9525 1224.74 540.117
1645 0 79.302 13.8836 1101 50.5767 1224.31 539.3
1646 0 80.285 13.4521 1080 51.562 1224.32 536.199
1647 0 84.2063 14.0251 1181 50.8103 1224.52 536.993
1648 0 85.3219 13.6776 1167 51.5227 1224.86 537.26
1649 0 88.3828 13.2605 1172 52.2517 1223.87 534.923
1650 0 92.207 14.2939 1318 51.4211 1223.84 533.917
1651 0 94.2144 14.4139 1358 51.4426 1223.36 534.17
1652 0 97.2532 14.5188 1412 51.5637 1224.12 531.831
1653 0 102.248 14.944 1528 51.2055 1223.8 530.497
1654 0 104.383 14.5139 1515 51.6858 1224.3 526.444
1655 0 106.213 14.0191 1489 52.724 1223.61 526.416
1656 0 106.213 13.9532 1482 159.047 1223.61 526.392
1657 0 114.21 14.9811 1711 51.5558 1223.09 522.27
1658 0 117.239 13.3574 1566 53.0875 1223 521.939
1659 0 124.285 15.5288 1930 50.1197 1222.64 521.654
1660 0 125.272 13.6903 1715 52.3743 1221.87 518.535
1661 1 72.4491 13.1541 953 52.0577 1221.97 544.57
1662 0 74.1273 13.4633 998 51.9238 1222.01 543.95
1663 0 75.1751 14.0472 1056 51.9195 1221.87 542.525
1664 0 78.237 13.4463 1052 52.6008 1222.38 539.289
1665 0 82.1382 13.9886 1149 52.208 1222.34 538.431
1666 0 86.2124 14.8123 1277 51.0039 1221.89 536.832
1667 0 88.2753 14.0243 1238 50.9822 1221.51 536.99
1668 0 89.1668 14.0411 1252 51.1893 1221.3 535.672
1669 0 94.3299 14.4069 1359 50.4106 1221.52 532.807
1670 0 98.2288 14.2321 1398 49.9843 1221.25 532.869
1671 0 100.132 14.1214 1414 50.3472 1221.09 530.784
1672 0 103.22 15.2005 1569 49.3187 1220.89 528.704
1673 0 106.39 14.7758 1572 49.9892 1220.87 530.453
1674 0 109.254 14.7088 1607 49.8531 1221.11 528.662
1675 0 109.219 13.9903 1528 51.2814 1220.59 525.724
1676 0 113.146 14.0968 1595 51.6395 1220.73 522.984
1677 0 123.203 16.8665 2078 47.9856 1221.3 522.539
1678 0 123.203 16.8746 2079 152.364 1222.31 522.643
1679 0 126.284 14.2378 1798 51.4027 1220.79 519.988
1680 1 71.078 11.7617 836 52.9342 1220.71 546.157
1681 0 74.218 12.881 956 52.7856 1220.25 544.855
1682 0 77.0995 13.3983 1033 53.0794 1220.19 542.744
1683 0 77.0995 13.3983 1033 173.289 1221.18 542.796
1684 0 82.1711 14.7984 1216 50.7352 1220.16 541.141
1685 0 84.1829 13.1737 1109 51.853 1219.38 541.069
1686 0 89.0748 14.7853 1317 50.5869 1219.75 539.173
1687 0 90.297 13.068 1180 52.9127 1219.22 534.136
1688 0 95.2503 14.0262 1336 51.732 1219.69 534.134
1689 0 96.2588 13.9624 1344 52.2381 1219.33 533.348
1690 0 102.152 14.0281 1433 51.9735 1219.41 531.179
1691 0 102.187 13.4166 1371 53.2648 1219.17 529.104
1692 0 108.323 13.8936 1505 52.7781 1219.33 527.202
1693 0 110.148 14.4169 1588 52.8035 1219.16 524.093
1694 0 114.095 13.9883 1596 53.1936 1219.06 521.397
1695 0 120.113 16.0682 1930 50.6969 1218.69 518.951
1696 0 123.252 15.018 1851 52.0859 1218.7 516.999
1697 1 69.129 11.9487 826 54.201 1218.04 543.77
1698 0 73.0483 12.6218 922 52.6508 1218.4 545.693
1699 0 74.2709 13.3834 994 52.7797 1218.32 543.216
1700 0 77.2415 13.3607 1032 52.7345 1217.96 540.918
1701 0 80.281 12.6057 1012 53.3735 1217.89 540.245
1702 0 83.153 14.768 1228 51.3892 1217.93 540.043
1703 0 86.0485 14.2362 1225 52.0931 1217.76 536.863
1704 0 89.1483 14.3132 1276 51.9859 1217.65 536.463
1705 0 89.1483 14.3132 1276 166.222 1218.64 536.37
1706 0 94.2055 13.6085 1282 53.4041 1217.97 532.571
1707 0 94.2055 13.6616 1287 164.788 1216.97 532.595
1708 0 100.298 13.2305 1327 53.5569 1217.71 529.813
1709 0 105.081 15.1502 1592 51.7814 1217.7 526.122
1710 0 107.061 13.9734 1496 52.9184 1217.52 526.613
1711 0 107.183 13.7895 1478 53.4269 1217.35 524.384
1712 0 114.119 14.1694 1617 52.5356 1217.49 524.759
1713 0 117.115 14.0802 1649 52.4427 1217.67 523.307
1714 0 119.092 14.1655 1687 53.2075 1217.79 517.424
1715 0 120.236 13.2572 1594 54.0696 1218.44 517.211
1716 0 127.308 13.9504 1776 53.3277 1218.24 516.218
1717 0 130.357 14.7288 1920 52.5224 1218.28 513.923
1718 0 135.154 15.0199 2030 51.8291 1218.66 508.852
1719 0 139.193 14.9145 2076 52.0202 1218.21 509.303
1720 0 145.197 14.2014 2062 52.9292 1218.31 506.337
1721 0 145.298 13.5377 1967 53.9492 1217.89 502.057
1722 0 152.214 13.7504 2093 53.7071 1218.05 500.246
1723 0 154.263 14.0734 2171 53.9226 1218.29 495.629
1724 1 88.2508 12.997 1147 51.4682 1218.68 536.484
1725 0 90.1066 11.5641 1042 53.072 1218.94 533.581
1726 0 94.1913 13.6 1281 51.4387 1219.3 533.61
1727 0 97.1299 12.159 1181 52.8349 1219.31 530.116
1728 0 102.253 13.3492 1365 51.833 1219.79 528.323
1729 0 104.211 12.2348 1275 52.0565 1220.35 527.311
1730 0 107.098 12.3812 1326 52.1184 1220.34 522.641
1731 0 109.336 13.71 1499 50.4123 1220.82 520.238
1732 0 115.126 13.2724 1528 50.0707 1220.8 520.424
1733 0 117.212 12.7205 1491 50.6687 1220.66 515.946
1734 0 122.29 14.0077 1713 49.568 1221.3 514.777
1735 0 126.304 13.61 1719 50.6393 1221.66 512.304
1736 0 130.22 13.6845 1782 51.8098 1221.71 510.396
1737 0 137.293 13.6351 1872 52.5043 1221.74 508.746
1738 0 139.401 13.271 1850 53.167 1221.59 507.573
1739 0 144.535 13.8859 2007 51.8859 1222.12 504.046
1740 0 147.371 13.4558 1983 52.0963 1222.35 500.891
1741 0 152.381 14.1422 2155 50.8306 1222.6 497.947
1742 0 159.337 13.8449 2206 52.1972 1223.14 494.673
1743 1 83.1102 12.2247 1016 50.5197 1222.75 531.93
1744 0 85.2692 11.0356 941 50.9384 1222.85 530.32
1745 0 89.121 12.0959 1078 49.8664 1223.66 526.488
1746 0 93.1544 12.9785 1209 48.8205 1223.59 525.404
1747 0 96.329 12.7895 1232 48.6802 1224.06 525.36
1748 0 98.3781 13.3363 1312 48.1814 1224.69 520.429
1749 0 100.24 13.7669 1380 48.2804 1224.48 519.458
1750 0 104.503 12.124 1267 49.2399 1224.27 516.127
1751 0 109.372 13.7513 1504 47.8677 1224.37 515.578
1752 0 113.385 13.8114 1566 47.7612 1224.72 516.082
1753 0 116.58 14.0333 1636 47.459 1224.55 514.642
1754 0 121.613 13.9706 1699 47.1931 1224.13 513.521
1755 0 126.428 14.0713 1779 47.1085 1224.68 513.922
1756 0 126.428 14.1187 1785 159.162 1224.68 513.965
1757 0 131.681 13.2517 1745 48.2069 1224.44 509.278
1758 0 134.423 14.2312 1913 47.6289 1224.1 507.211
1759 0 137.467 13.3341 1833 48.629 1224.08 503.675
1760 0 142.719 13.6141 1943 48.3598 1224.15 504.694
1761 1 85.4114 10.666 911 46.9989 1224.54 537.542
1762 0 86.406 12.3718 1069 157.145 1225.64 534.113
1763 0 86.2354 10.6105 915 48.4284 1224.16 531.117
1764 0 89.3947 11.8463 1059 47.3569 1224.35 531.734
1765 0 92.2342 12.9019 1190 47.158 1224.32 529.044
1766 0 94.2345 12.9889 1224 47.5662 1224.27 529.416
1767 0 98.4669 13.5172 1331 47.1247 1224.1 524.733
1768 0 103.412 13.9733 1445 46.4734 1224.48 523.213
1769 0 104.328 13.611 1420 46.9113 1224.33 521.409
1770 0 109.482 14.6783 1607 46.14 1223.7 520.507
1771 0 108.459 13.8209 1499 47.4943 1223.6 518.642
1772 0 116.415 14.8349 1727 46.7418 1223.81 520.455
1773 0 117.417 14.4016 1691 47.5795 1223.84 518.209
1774 0 120.301 13.3997 1612 49.2792 1223.5 513.755
1775 0 121.453 13.0421 1584 49.8182 1222.97 511.976
1776 0 125.533 13.3511 1676 48.4481 1223.45 510.441
1777 0 132.417 13.8879 1839 47.8728 1222.98 511.113
1778 0 135.367 14.7894 2002 47.6289 1223.4 507.545
1779 0 141.322 13.4586 1902 48.1835 1223.07 505.72
1780 1 81.2998 12.2386 995 47.9608 1223.15 533.955
1781 0 83.2564 12.3114 1025 47.2829 1222.86 533.397
1782 0 86.5645 13.0885 1133 46.1933 1222.8 533.052
1783 0 89.3206 12.5391 1120 46.9607 1222.23 530.638
1784 0 90.3267 13.4069 1211 46.2023 1222.07 530.626
1785 0 94.525 12.9807 1227 46.476 1221.58 529.007
1786 0 98.3276 13.5059 1328 45.9036 1222.08 526.366
1787 0 102.487 13.4944 1383 45.5452 1222.08 527.253
1788 0 104.304 13.8346 1443 45.9314 1222.26 520.428
1789 0 108.302 13.2408 1434 46.7378 1222 522.05
1790 0 111.365 13.3704 1489 46.5366 1221.52 522.032
1791 0 115.613 14.3323 1657 45.895 1221.84 520.005
1792 0 120.438 14.0404 1691 45.8634 1221.87 516.674
1793 0 122.236 13.3513 1632 46.6924 1221.47 514.694
1794 0 129.378 17.2827 2236 43.1762 1221.25 511.001
1795 0 130.285 13.5011 1759 46.7061 1221.14 509.963
1796 0 134.266 15.5661 2090 44.9435 1221.23 507.061
1797 0 135.424 12.6935 1719 47.8092 1221 510.424
1798 0 137.51 14.1735 1949 47.2022 1220.53 505.135
1799 0 145.181 14.5061 2106 46.462 1220.6 504.793
1800 0 150.186 13.9627 2097 46.9833 1220.86 504.538
1801 0 153.334 13.7413 2107 47.4466 1220.41 499.113
1802 0 159.334 14.1338 2252 46.9805 1220.85 497.821
1803 0 163.262 13.6284 2225 47.7231 1221 498.975
1804 0 168.209 14.2798 2402 47.622 1220.02 493.111
1805 0 174.323 15.041 2622 47.3284 1220 491.753
1806 0 182.38 14.4478 2635 47.4349 1219.82 490.64
1807 1 107.13 11.8454 1269 48.2522 1220.15 527.069
1808 0 111.21 12.0043 1335 48.3094 1220.05 523.627
1809 0 116.281 13.2007 1535 47.4169 1220.17 525.081
1810 0 114.245 13.2172 1510 47.4623 1220.01 516.115
1811 0 120.183 13.0135 1564 48.2372 1219.57 518.142
1812 0 121.336 12.8569 1560 48.3654 1219.39 510.12
1813 0 126.4 12.1914 1541 48.8417 1219.35 512.343
1814 0 132.389 13.0525 1728 48.4329 1219.3 508.915
1815 0 135.273 12.6707 1714 49.213 1218.71 508.499
1816 0 141.286 13.6531 1929 47.9673 1219.07 509.704
1817 0 140.288 12.4031 1740 49.1764 1219.47 501.588
1818 0 149.331 12.9712 1937 48.5591 1219.35 499.219
1819 0 152.219 13.6054 2071 48.2438 1219.66 498.976
1820 1 87.2419 10.5225 918 47.4619 1219.55 532.649
1821 0 89.2369 11.2509 1004 46.6872 1219.43 534.002
1822 0 93.2179 10.8348 1010 47.3802 1219.14 528.017
1823 0 95.2641 11.9562 1139 46.4241 1219.43 524.759
1824 0 100.138 12.1033 1212 45.981 1219.22 527.238
1825 0 104.287 12.83 1338 45.494 1219.52 523.984
1826 0 108.253 12.5446 1358 45.5847 1219.4 524.591
1827 0 110.599 12.0526 1333 46.4704 1219.58 522.946
1828 0 115.399 12.3311 1423 46.3633 1220.04 519.438
1829 0 117.434 12.705 1492 46.3184 1220.28 519.71
1830 0 122.712 13.3402 1637 46.0476 1220.38 518.15
1831 0 120.443 12.0306 1449 47.8944 1221.16 514.033
1832 0 128.487 12.6939 1631 46.8179 1221.07 516.766
1833 0 131.523 13.9823 1839 46.0446 1221.18 509.891
1834 0 131.523 13.9443 1834 151.85 1221.19 509.848
1835 0 137.604 13.3063 1831 47.0071 1221.06 508.214
1836 0 143.617 13.1043 1882 46.8613 1221.03 507.904
1837 0 146.527 12.9805 1902 46.8644 1221.6 507.003
1838 0 150.485 13.2239 1990 47.2744 1222.04 501.085
1839 1 88.5683 11.0423 978 46.4806 1222.37 535.684
1840 0 91.3627 10.5185 961 46.3132 1222.6 536.482
1841 0 92.1664 11.1971 1032 46.1027 1222.61 531.983
1842 0 97.298 12.0352 1171 45.6311 1223.46 528.82
1843 0 100.121 13.0642 1308 44.789 1223.71 527.783
1844 0 103.089 13.7648 1419 44.6949 1223.64 524.202
1845 0 102.284 11.8102 1208 46.5166 1223.68 524.8
1846 0 107.335 13.4718 1446 45.1784 1224.03 521.387
1847 0 110.271 12.3604 1363 46.2091 1223.76 519.011
1848 0 114.348 13.8175 1580 45.2139 1223.66 516.414
1849 0 117.425 13.2169 1552 45.328 1224.23 516.613
1850 0 120.416 12.8471 1547 46.0569 1224.34 513.838
1851 0 123.218 13.2854 1637 46.0513 1224.4 512.006
1852 0 126.421 12.9962 1643 46.5435 1224.49 511.705
1853 0 130.34 13.9251 1815 45.3669 1224.73 509.381
1854 0 137.409 14.5333 1997 44.7256 1224.92 504.784
1855 0 142.377 13.7873 1963 45.3505 1225.02 504.435
1856 0 142.58 12.7016 1811 46.9873 1224.85 499.347
1857 0 146.528 13.8745 2033 46.243 1224.13 496.865
1858 0 150.808 13.6664 2061 46.5483 1223.6 498.51
1859 0 154.862 13.8639 2147 46.6474 1223.47 494.989
1860 0 161.778 13.636 2206 46.9646 1223.65 492.181
1861 0 162.509 13.3654 2172 47.6671 1223.61 489.596
1862 0 170.836 14.5344 2483 46.7825 1223.21 486.824
1863 0 175.639 14.5469 2555 46.8842 1222.75 488.292
1864 0 179.288 14.2842 2561 47.5677 1222.89 484.82
1865 0 184.471 15.1514 2795 47.2286 1223.12 482.87
1866 0 189.554 13.843 2624 48.7245 1223.3 478.403
1867 0 197.478 14.118 2788 48.8852 1223.26 476.23
1868 0 202.491 15.0427 3046 48.5378 1223.44 471.05
1869 0 209.651 14.5671 3054 48.8235 1223.03 472.528
1870 0 215.266 14.6098 3145 49.137 1222.47 469.791
1871 0 222.438 14.1388 3145 49.1113 1222.18 467.48
1872 0 226.553 15.0649 3413 48.1257 1221.68 457.297
1873 0 233.483 16.0654 3751 47.3754 1221.42 457.442
1874 0 239.432 15.0523 3604 48.2539 1221.42 451.744
1875 0 248.397 16.3569 4063 46.9926 1221.3 450.4
1876 0 256.473 16.6138 4261 46.7881 1221.77 443.612
1877 0 267.716 15.9945 4282 47.1172 1221.29 443.18
1878 1 211.659 12.265 2596 49.5066 1221.36 477.903
1879 0 218.523 12.0674 2637 50.1559 1221.11 471.655
1880 0 226.632 13.1006 2969 49.4517 1221.57 469.745
1881 0 232.58 14.0253 3262 49.4939 1221.41 461.358
1882 0 240.856 14.2699 3437 49.5836 1221.53 456.99
1883 0 241.752 12.3184 2978 51.1807 1220.93 460.991
1884 0 252.634 15.0376 3799 49.099 1220.8 445.602
1885 0 252.634 15.0376 3799 158.119 1220.8 445.532
1886 0 254.819 11.5454 2942 52.2165 1220.53 455.11
1887 0 253.747 8.03951 2040 52.0417 1220.95 479.63
1888 0 254.598 9.28128 2363 51.2391 1220.91 474.887
1889 1 85.1561 10.4984 894 45.4541 1219.98 537.056
1890 0 89.2399 11.273 1006 45.0398 1219.03 536.838
1891 0 91.2216 11.0062 1004 47.1096 1220.26 534.852
1892 0 91.2262 11.7949 1076 46.3578 1219.86 526.934
1893 0 97.3416 12.1736 1185 46.8852 1220.36 530.306
1894 0 98.2826 11.9553 1175 47.6255 1220.13 528.487
1895 0 102.305 12.3845 1267 46.9747 1220.09 525.08
1896 0 103.299 11.6652 1205 47.6772 1220.1 523.828
1897 0 110.218 12.4209 1369 46.8524 1219.48 525.625
1898 0 111.322 12.8996 1436 46.8802 1219.72 521.107
1899 0 114.292 12.4156 1419 47.3263 1219.3 523.45
1900 0 116.189 13.0735 1519 46.946 1219.21 523.045
1901 0 121.353 13.9428 1692 45.5366 1218.67 517.759
1902 0 124.347 15.513 1929 44.3992 1219.14 516.398
1903 0 127.602 15.133 1931 45.1626 1219.17 512.359
1904 0 132.239 15.6459 2069 44.7182 1218.58 511.803
1905 0 135.332 14.8081 2004 46.0754 1218.04 511.319
1906 0 137.331 14.3376 1969 46.7014 1217.93 506.949
1907 0 142.25 15.4657 2200 45.7709 1218.02 507.445
1908 0 144.441 14.6358 2114 47.2351 1218.1 504.122
1909 0 146.529 14.5705 2135 47.1738 1217.96 498.776
1910 0 150.475 15.6172 2350 46.217 1217.52 495.862
1911 0 155.514 14.9054 2318 47.4331 1217.19 498.104
1912 0 160.731 15.7282 2528 46.9011 1217.6 493.441
1913 0 162.537 14.5444 2364 48.6489 1217.49 489.523
1914 0 168.669 15.2073 2565 48.4168 1217.15 489.29
1915 0 168.669 15.2073 2565 159.734 1217.15 489.29
1916 0 177.642 15.3961 2735 48.8428 1217.09 483.661
1917 0 184.505 15.6961 2896 48.5908 1217.27 480.582
1918 0 187.577 14.9485 2804 50.0289 1217.21 478.234
1919 0 194.538 14.8762 2894 50.8728 1217.19 473.727
1920 0 200.593 15.5688 3123 50.0865 1218.29 469.339
1921 0 206.58 14.7885 3055 51.3535 1217.54 469.533
1922 0 215.465 16.3414 3521 49.5848 1217.5 465.141
1923 0 217.417 15.192 3303 51.2458 1217.48 461.394
1924 0 223.86 15.5856 3489 50.9971 1217.36 461.689
1925 0 232.884 15.6 3633 50.9601 1217.25 453.913
1926 0 238.66 16.2909 3888 50.3179 1217.13 453.096
1927 0 244.774 16.0801 3936 50.6837 1216.79 452.839
1928 0 250.745 14.9555 3750 52.0683 1217.48 444.029
1929 0 258.738 15.5022 4011 51.6966 1217.8 442.729
1930 0 267.949 15.9321 4269 50.8349 1217.56 440.561
1931 1 70.1813 9.98842 701 49.2767 1216.37 541.712
1932 0 72.0479 9.86843 711 49.076 1216.19 540.022
1933 0 74.1952 10.095 749 49.0681 1215.8 540.356
1934 0 75.1459 10.7657 809 48.4438 1215.78 532.664
1935 0 79.2661 11.4803 910 47.956 1216.17 533.546
1936 0 80.1492 10.7425 861 47.9512 1216.53 539.807
1937 0 80.1776 11.3498 910 48.2275 1216.63 534.722
1938 0 85.2753 11.328 966 48.1594 1216.97 533.3
1939 0 89.2588 11.898 1062 47.1186 1217.46 533.929
1940 0 90.3377 10.7928 975 48.2718 1217.81 531.609
1941 0 107.823 19.1703 2067 39.5273 1217.75 516.864
1942 0 104.503 15.1479 1583 44 1217.55 523.546
1943 0 112.677 14.8832 1677 43.3232 1217.83 520.979
1944 0 114.809 17.2721 1983 40.4327 1217.79 517.585
1945 0 112.479 14.9184 1678 42.8528 1217.94 520.005
1946 1 61.4231 10.5172 646 45.1625 1218.12 544.96
1947 0 63.2251 10.945 692 45.2457 1218.26 543.129
1948 0 68.4678 12.4584 853 43.4209 1218.31 543.298
1949 0 67.2816 12.2768 826 44.5545 1218.68 545.815
1950 0 71.2008 12.2471 872 44.5562 1218.94 538.117
1951 0 76.0405 13.2692 1009 43.0505 1219.48 540.426
1952 0 77.5763 13.3546 1036 43.2529 1219.52 540.773
1953 0 78.675 12.0369 947 44.9778 1219.51 539.942
1954 0 79.6037 13.9064 1107 43.7733 1220.49 538.498
1955 0 79.5481 14.4441 1149 43.3647 1220.7 538.107
1956 0 82.3748 12.9894 1070 44.7271 1220.47 536.053
1957 0 84.7402 13.5119 1145 44.4314 1220.64 534.127
1958 0 87.6302 14.2531 1249 44.1313 1220.7 534.251
1959 0 88.5804 12.8697 1140 45.564 1220.23 532.955
1960 0 90.5214 13.7758 1247 44.9735 1220.67 529.261
1961 0 92.5281 13.8661 1283 45.1154 1221.49 532.496
1962 0 92.5281 13.8661 1283 162.423 1221.48 532.56
1963 0 95.4835 13.2902 1269 46.498 1221.08 529.479
1964 0 97.4435 13.5668 1322 46.7912 1222.11 526.865
1965 0 104.036 13.9087 1447 46.038 1222.83 525.618
1966 0 104.672 13.2891 1391 47.1316 1222.39 525.504
1967 0 108.764 13.6901 1489 46.7522 1222.53 525.734
1968 0 109.613 14.3505 1573 46.2238 1223.01 522.832
1969 0 112.661 14.2286 1603 46.713 1223.06 520.479
1970 0 116.958 14.3471 1678 46.9118 1223.02 517.461
1971 0 118.958 13.904 1654 47.6723 1222.98 518.311
1972 0 123.246 14.7996 1824 46.6069 1222.92 516.001
1973 0 125.722 13.7446 1728 47.8692 1223.11 513.071
1974 1 73.5002 11.6326 855 48.0433 1223.12 541.344
1975 0 76.353 12.678 968 47.5537 1223.31 538.738
1976 0 78.5362 13.0768 1027 47.0243 1223.92 537.776
1977 0 80.5578 12.55 1011 47.5945 1224.14 535.964
1978 0 81.5001 13.3619 1089 46.7668 1224.36 537.134
1979 0 85.7883 14.0812 1208 46.0695 1224.46 532.455
1980 0 88.6876 12.9894 1152 46.8898 1224.84 531.116
1981 0 88.6876 12.9556 1149 157.683 1224.83 531.051
1982 0 94.4514 13.4672 1272 46.4017 1225.3 528.297
1983 0 93.4685 13.9512 1304 46.1273 1225.18 525.906
1984 0 98.5082 13.3694 1317 46.4282 1225.08 525.781
1985 0 101.363 14.1176 1431 45.5297 1224.99 524.643
1986 0 104.464 13.6124 1422 45.7567 1225.25 523.158
1987 0 110.372 14.8679 1641 44.1542 1224.88 521.69
1988 0 113.446 14.1124 1601 44.7021 1225.1 521.766
1989 0 116.279 14.3104 1664 44.3996 1224.82 519.07
1990 0 117.256 14.8991 1747 43.9662 1225.1 515.586
1991 0 117.256 14.9332 1751 149.847 1226.11 515.623
1992 0 126.484 13.7805 1743 44.5095 1224.63 511.721
1993 0 127.198 14.104 1794 44.2525 1224.32 512.61
1994 0 132.449 12.0952 1602 44.9688 1224.14 513.721
1995 1 78.1484 11.4526 895 44.0972 1224.26 537.37
1996 0 82.2721 12.9205 1063 42.6717 1224.46 535.321
1997 0 83.1302 13.3766 1112 42.5944 1223.92 535.883
1998 0 84.1813 12.877 1084 42.75 1223.27 534.103
1999 0 86.2373 12.7555 1100 43.3091 1223.19 533.102
2000 0 91.2426 12.7682 1165 42.8292 1223.65 531.238
2001 0 92.1917 13.0164 1200 42.5367 1222.82 529.058
2002 0 94.2869 12.2074 1151 43.1512 1222.41 528.589
2003 0 94.2869 12.2286 1153 148.609 1222.41 528.452
2004 0 100.209 13.1425 1317 42.5338 1222.56 525.995
2005 0 101.201 11.6204 1176 43.6888 1222.53 523.285
2006 0 108.229 13.0926 1417 42.7452 1222.36 521.233
2007 0 109.206 11.3273 1237 43.5513 1222.35 523.682
2008 0 117.392 14.1747 1664 41.747 1222.77 519.841
2009 0 113.141 12.3385 1396 43.5265 1222.14 513.349
2010 0 121.383 12.1186 1471 43.3623 1221.91 513.401
2011 0 124.406 13.3997 1667 42.2837 1222.23 514.66
2012 0 129.493 12.1319 1571 42.9344 1221.4 509.673
2013 1 74.3501 11.3248 842 41.9181 1220.67 539.863
2014 0 77.3189 11.3685 879 42.0887 1220.75 538.498
2015 0 82.3574 14.2428 1173 40.2856 1221.33 535.734
2016 0 86.2314 12.8955 1112 40.5836 1221.87 536.654
2017 0 85.5234 11.1315 952 42.2447 1221.39 537.467
2018 0 87.5253 13.2419 1159 41.4478 1221.39 531.369
2019 0 92.3076 12.935 1194 41.4883 1221.22 532.445
2020 0 93.3527 12.3296 1151 42.1546 1221.18 532.075
2021 0 96.3806 13.7061 1321 41.2157 1221.05 530.061
2022 0 97.3328 13.5925 1323 41.9947 1220.74 527.254
2023 0 101.385 13.6509 1384 41.7269 1220.7 527.249
2024 0 102.345 12.4481 1274 43.0911 1220.66 522.545
2025 0 107.362 13.8038 1482 42.143 1220.5 523.32
2026 0 110.475 13.6592 1509 42.3784 1220.26 523.366
2027 0 114.336 14.4224 1649 41.9764 1220.83 519.791
2028 0 116.561 13.9326 1624 42.4926 1220.62 520.3
2029 0 122.411 15.4316 1889 41.369 1221.08 514.514
2030 0 123.449 13.6656 1687 42.5934 1220.71 517.289
2031 0 126.497 12.7276 1610 43.9186 1220.8 512.289
2032 0 126.497 12.6802 1604 154.7 1220.8 512.193
2033 0 135.295 14.1691 1917 43.506 1220.45 505.529
2034 1 75.3473 9.39649 708 44.4082 1220.2 543.626
2035 0 76.462 10.2665 785 44.8178 1219.61 542.855
2036 0 82.1855 13.798 1134 43.2046 1219.4 539.48
2037 0 84.2975 13.1202 1106 43.8816 1219.21 537.668
2038 0 87.3375 13.3162 1163 43.6062 1219.01 535.892
2039 0 86.3565 12.1589 1050 45.3952 1219.27 535.793
2040 0 90.2844 14.554 1314 43.6096 1220.18 535.266
2041 0 92.4659 13.6375 1261 44.6249 1220.13 535.014
2042 0 94.3974 13.03 1230 45.4252 1219.38 534.761
2043 0 97.281 13.425 1306 46.0268 1219.06 530.063
2044 0 101.334 13.8848 1407 45.5117 1219.19 528.862
2045 0 104.55 14.4046 1506 45.1766 1218.87 529.3
2046 0 106.174 13.7793 1463 46.1606 1219.12 526.682
2047 0 109.661 13.5508 1486 46.6736 1218.86 526.233
2048 0 112.4 14.2616 1603 46.2183 1218.51 519.145
2049 0 113.298 13.6631 1548 47.4477 1218.96 519.919
2050 0 117.435 13.2499 1556 47.7982 1218.86 516.321
2051 0 121.935 13.6384 1663 47.252 1218.77 518.553
2052 0 126.61 13.7193 1737 47.7087 1218.68 514.419
2053 0 129.732 13.8131 1792 47.9967 1218.92 511.541
2054 0 134.492 15.0567 2025 48.1111 1218.68 512.485
2055 0 135.542 14.3425 1944 48.9285 1218.24 507.63
2056 0 143.519 14.7507 2117 48.5598 1218.27 505.493
2057 0 144.55 14.0643 2033 49.906 1218.33 505.52
2058 0 152.705 14.5836 2227 49.4127 1218.37 502.97
2059 0 154.555 14.0209 2167 50.467 1218.44 501.014
2060 0 161.562 14.2298 2299 50.4454 1218.19 498.503
2061 0 170.366 15.3141 2609 49.4691 1217.98 498.65
2062 1 96.109 11.2893 1085 50.93 1217.72 534.804
2063 0 99.2516 12.8159 1272 50.537 1218.63 530.398
2064 0 103.23 12.2155 1261 51.3672 1217.84 528.474
2065 0 106.168 13.7988 1465 50.1297 1218.13 529.33
2066 0 111.214 14.5036 1613 49.6944 1218.38 528.73
2067 0 114.244 13.5674 1550 51.1097 1218.65 523.16
2068 0 116.146 13.7758 1600 51.2056 1218.23 523.868
2069 0 120.178 13.5715 1631 51.4776 1218.15 520.704
2070 0 124.162 13.5549 1683 51.9614 1218.55 517.886
2071 0 129.246 14.1359 1827 51.0328 1218.69 518.372
2072 0 127.255 12.6203 1606 54.038 1218.58 512.083
2073 1 80.0987 11.7855 944 51.0561 1218.91 542.75
2074 0 81.2267 11.708 951 51.5016 1219 542.26
2075 0 84.2696 13.5992 1146 50.7016 1219.37 539.93
2076 0 84.2596 11.3578 957 52.9174 1219.04 541.347
2077 0 87.2264 13.4707 1175 51.3898 1219.51 540.022
2078 0 88.2357 12.9199 1140 52.821 1219.81 536.975
2079 0 92.322 13.7345 1268 52.2752 1219.76 535.008
2080 0 94.3013 12.5767 1186 54.0826 1220.43 531.775
2081 0 97.2397 14.3357 1394 52.4663 1220.6 530.892
2082 0 97.2514 12.5859 1224 54.9248 1220.88 530.346
2083 0 97.2514 12.5654 1222 167.741 1221.88 530.363
2084 0 104.314 13.8141 1441 54.5552 1221.06 527.369
2085 0 109.207 14.2756 1559 53.6895 1221.15 526.622
2086 0 111.23 13.0361 1450 55.0324 1221.15 524.767
2087 0 114.436 13.0815 1497 55.8544 1221.19 522.207
2088 0 115.135 13.8272 1592 55.4604 1221.73 519.641
2089 0 117.284 13.6677 1603 55.6781 1222.1 517.996
2090 0 123.231 14.6229 1802 54.4895 1223.35 517.83
2091 0 129.312 14.6545 1895 54.1625 1223.16 516.513
2092 0 132.25 14.6767 1941 54.558 1223.4 514.15
2093 0 135.351 15.2122 2059 54.3497 1223.37 510.658
2094 0 140.255 14.4166 2022 54.728 1223.06 510.637
2095 0 145.352 14.1725 2060 54.9519 1222.88 506.568
2096 1 86.1787 12.2884 1059 54.966 1223.05 536.324
2097 0 88.2016 11.9612 1055 55.3877 1222.94 535.976
2098 0 91.1494 13.4724 1228 54.1914 1223.54 534.916
2099 0 94.1967 14.0451 1323 54.0076 1223.74 531.835
2100 0 96.1297 13.7731 1324 54.361 1223.56 530.856
2101 0 100.198 14.3516 1438 53.2775 1224.65 530.572
2102 0 101.13 13.8633 1402 54.3902 1224.22 528.656
2103 0 105.218 13.6954 1441 54.7072 1224.5 526.167
2104 0 109.212 14.5497 1589 53.8565 1224.72 525.393
2105 0 111.105 14.6348 1626 54.2632 1225.16 525.469
2106 0 115.137 14.131 1627 55.0123 1224.69 523.173
2107 0 118.355 14.9127 1765 54.3496 1225.17 521.989
2108 0 119.172 14.3826 1714 55.5397 1224.86 517.936
2109 0 123.211 14.7308 1815 55.1774 1224.64 517.207
2110 0 126.333 15.2929 1932 54.6801 1224.36 513.989
2111 0 130.257 14.8783 1938 55.16 1224.45 513.577
2112 0 135.286 15.3526 2077 54.4998 1224.84 510.384
2113 0 137.162 14.0636 1929 56.1058 1224.47 509.645
2114 0 137.162 14.1001 1934 174.252 1223.46 509.616
2115 0 147.263 15.3943 2267 54.8059 1224.77 503.735
2116 1 84.2824 11.5327 972 55.9146 1224.77 535.734
2117 0 87.5395 12.8628 1126 54.6119 1225.21 535.361
2118 0 92.3391 14.111 1303 53.8419 1225.19 532.607
2119 0 92.3508 13.9901 1292 54.9768 1225.03 530.251
2120 0 95.4752 13.6894 1307 55.2272 1224.41 528.085
2121 0 96.2926 13.0124 1253 56.0543 1224.16 525.852
2122 0 103.337 13.7318 1419 54.5187 1224.25 526.424
2123 0 105.419 14.1246 1489 54.2149 1223.87 527.893
2124 0 110.515 13.79 1524 54.79 1223.93 524.426
2125 0 111.441 13.7921 1537 54.4619 1223.2 523.288
2126 0 116.346 13.9669 1625 53.9434 1223.04 520.094
2127 0 119.584 14.45 1728 53.849 1222.8 517.815
2128 0 122.473 14.0766 1724 54.3045 1222.12 516.948
2129 0 126.515 14.4331 1826 53.5077 1222.5 514.423
2130 0 130.514 14.6421 1911 53.6651 1222.05 510.705
2131 0 134.347 13.8894 1866 54.216 1222.24 508.015
2132 0 140.486 14.7986 2079 53.2958 1222.47 506.193
2133 0 144.628 14.7551 2134 53.1949 1221.94 506.382
2134 0 146.43 15.1472 2218 53.6456 1221.97 503
2135 0 154.43 15.7611 2434 52.1208 1221.73 501.616
2136 0 160.353 14.7799 2370 53.4785 1221.84 497.704
2137 0 163.232 14.7214 2403 53.531 1221.89 495.641
2138 0 169.435 13.7693 2333 54.2649 1222 495.239
2139 0 176.368 15.4904 2732 52.6823 1221.86 489.966
2140 0 179.477 14.3918 2583 54.2036 1221.51 487.582
2141 1 107.36 12.6769 1361 53.2564 1220.84 526.118
2142 0 112.159 13.1688 1477 53.5877 1220.73 519.895
2143 0 115.194 12.4399 1433 54.2491 1220.57 521.385
2144 0 115.16 13.4074 1544 54.4236 1221.21 517.664
2145 0 121.239 14.1538 1716 53.4283 1220.99 515.46
2146 0 125.221 13.6878 1714 54.1499 1221.07 515.394
2147 0 129.307 13.2707 1716 54.2518 1220.85 513.067
2148 0 135.107 13.7002 1851 53.8768 1221.55 513.08
2149 0 140.189 14.0738 1973 53.4516 1221.15 510.433
2150 0 144.219 14.0758 2030 53.4601 1221.01 508.856
2151 0 149.435 14.3139 2139 53.8181 1221.13 504.691
2152 0 158.362 13.4312 2127 54.4532 1220.9 503.456
2153 0 158.302 14.4028 2280 53.8224 1220.59 501.898
2154 0 163.303 14.5252 2372 53.9886 1220.65 496.071
2155 0 169.399 14.0261 2376 54.2576 1220.64 495.729
2156 1 99.2288 11.0049 1092 55.1099 1220.07 530.075
2157 0 105.099 12.6548 1330 53.8895 1220.31 529.154
2158 0 109.376 13.6959 1498 52.6702 1220.07 529.156
2159 0 111.336 13.6255 1517 53.3125 1219.94 521.96
2160 0 116.181 13.9523 1621 52.5102 1219.74 522.308
2161 0 118.168 14.0055 1655 52.8556 1219.42 519.534
2162 0 122.245 13.154 1608 53.8619 1219.43 521.109
2163 0 126.168 13.7515 1735 53.3925 1219.11 517.529
2164 0 129.112 13.5387 1748 53.3913 1219.35 516.469
2165 0 135.205 13.8457 1872 53.2879 1218.99 513.167
2166 0 140.342 14.7283 2067 52.3135 1219.33 513.382
2167 0 141.313 14.1106 1994 53.4819 1219.3 511.743
2168 0 147.145 14.2988 2104 53.1454 1219.01 510.438
2169 0 150.139 14.1003 2117 53.8564 1219.16 509.219
2170 0 156.223 15.2346 2380 52.471 1218.68 507.708
2171 0 160.187 13.6153 2181 53.8074 1218.89 502.773
2172 0 163.299 14.2866 2333 53.5795 1218.65 501.283
2173 0 167.354 13.803 2310 54.4 1218.32 495.551
2174 0 160.257 13.2475 2123 54.4296 1218.24 473.139
2175 0 157.317 15.6626 2464 57.0142 1218.71 476.037
2176 0 164.156 17.5321 2878 53.4409 1218.4 474.031
2177 0 167.252 16.6695 2788 54.9957 1218.2 480.849
2178 0 169.253 15.2139 2575 57.0206 1218.17 482.404
2179 0 170.26 13.3032 2265 59.4366 1217.91 483.455
2180 0 175.301 15.5105 2719 57.3387 1217.58 481.402
2181 0 178.44 14.5987 2605 58.6012 1217.68 476.127
2182 0 185.51 14.0262 2602 58.5177 1217.64 474.277
2183 0 187.615 14.6097 2741 58.1481 1217.82 469.86
2184 0 194.455 14.1626 2754 58.126 1218.42 468.581
2185 0 199.529 14.5893 2911 57.145 1218.52 467.432
2186 0 207.712 15.7189 3265 55.6665 1218.39 459.33
2187 0 211.271 13.9679 2951 57.3057 1218.95 460.072
2188 0 222.762 15.8959 3541 54.6123 1219.2 457.203
2189 0 176.395 12.1262 2139 57.4638 1219.34 486.361
2190 0 177.53 13.5414 2404 56.6976 1219.05 481.688
2191 0 182.451 14.0476 2563 56.2462 1219.75 480.005
2192 0 186.647 14.4498 2697 56.607 1219.6 476.506
2193 0 188.545 14.6013 2753 56.9996 1219.68 472.634
2194 0 198.628 15.1792 3015 55.7094 1220.4 472.341
2195 0 205.609 15.403 3167 55.7073 1220.15 470.857
2196 0 210.455 15.6613 3296 55.2151 1220.5 461.661
2197 0 217.52 15.1434 3294 55.2878 1220.9 462.867
2198 0 223.821 14.8377 3321 56.1259 1220.83 454.909
2199 1 62.2141 11.4443 712 51.5154 1220.35 540.438
2200 0 62.2473 10.8278 674 52.276 1220.71 538.469
2201 0 63.3644 12.3887 785 50.4 1221.03 540.903
2202 0 64.2824 12.1184 779 51.3967 1221.37 542.006
2203 0 65.4068 13.2555 867 50.8339 1221.43 539.836
2204 0 68.3798 13.7321 939 50.77 1221.94 539.904
2205 0 68.3798 13.7614 941 158.806 1222.94 539.936
2206 0 72.4781 13.342 967 51.1138 1222.25 536.864
2207 0 76.2103 13.6727 1042 51.2457 1222.81 534.486
2208 0 79.2648 13.6504 1082 50.5906 1223.15 532.914
2209 0 81.2931 14.0479 1142 50.5946 1223.72 531.196
2210 0 84.3553 13.5617 1144 50.1696 1223.88 533.602
2211 0 86.6138 13.3582 1157 51.2221 1223.6 531.346
2212 0 87.5449 13.3988 1173 51.1731 1223.56 528.852
2213 0 89.8836 14.274 1283 50.947 1223.99 527.21
2214 0 95.3071 13.9444 1329 50.6667 1223.72 526.778
2215 0 95.2804 13.7174 1307 51.6771 1223.64 525.259
2216 0 96.3078 14.0695 1355 51.6428 1223.98 524.308
2217 0 100.301 13.7486 1379 51.9355 1223.93 522.512
2218 0 104.351 13.6079 1420 51.9697 1223.9 522.34
2219 0 105.146 14.3801 1512 51.8763 1224.29 521.008
2220 0 110.554 14.2103 1571 52.0586 1224.07 519.816
2221 0 111.47 14.237 1587 52.8021 1223.99 517.395
2222 0 116.334 15.361 1787 51.6794 1224.7 514.754
2223 0 119.313 14.6673 1750 53.0874 1224.45 510.038
2224 0 119.313 14.6254 1745 156.615 1223.45 509.985
2225 0 130.136 13.678 1780 53.85 1224.41 506.746
2226 1 56.2131 13.0574 734 49.8828 1224.36 543.084
2227 0 59.2524 13.2653 786 49.7328 1224.42 541.975
2228 0 60.4053 12.5155 756 50.6415 1224.19 542.017
2229 0 62.3509 12.574 784 51.8482 1224.4 540.441
2230 0 62.2439 12.8527 800 51.5875 1223.65 541.141
2231 0 63.4256 12.6132 800 52.5675 1223.61 541.189
2232 0 65.4738 12.1728 797 52.4429 1223.99 540.143
2233 0 66.6755 12.1784 812 52.5345 1223.68 539.995
2234 0 71.4386 13.5221 966 51.1988 1223.05 540.75
2235 0 70.3038 13.5981 956 52.2918 1223.37 538.23
2236 0 72.2238 13.1951 953 52.659 1223.34 534.322
2237 0 76.2684 13.8196 1054 52.0968 1223.11 534.599
2238 0 77.2139 13.4691 1040 52.6606 1223 530.82
2239 0 77.4687 13.7088 1062 52.7759 1222.65 528.811
2240 0 81.2459 14.0069 1138 52.5518 1223.46 529.958
2241 0 83.2412 12.9503 1078 53.3905 1222.89 527.814
2242 0 87.1748 14.1899 1237 51.8124 1222.91 528.406
2243 0 89.3181 13.7934 1232 52.4026 1223.13 525.547
2244 0 93.3792 13.14 1227 52.9682 1223.99 523.729
2245 0 97.2479 14.2625 1387 51.7404 1222.7 522.318
2246 0 100.182 14.8031 1483 51.2697 1222.14 523.728
2247 0 102.403 14.1695 1451 52.0682 1222.51 523.498
2248 0 105.443 13.9033 1466 52.6126 1222.57 519.802
2249 1 63.2104 11.4855 726 52.6088 1222.27 541.614
2250 0 66.3122 12.0038 796 51.9962 1222.5 541.72
2251 0 68.3823 12.3278 843 52.4033 1222.48 539.904
2252 0 69.1907 12.6029 872 52.4037 1222.75 538.438
2253 0 73.2651 13.2123 968 51.8605 1222.75 534.792
2254 0 74.3518 14.1086 1049 51.2908 1222.43 533.523
2255 0 77.4852 13.3832 1037 51.7676 1222.25 536.234
2256 0 79.2264 14.1872 1124 51.3087 1222.41 534.295
2257 0 79.3211 13.5777 1077 52.4132 1222.56 532.489
2258 0 82.4658 13.8724 1144 51.5149 1222.62 534.132
2259 0 83.2994 13.3975 1116 52.5556 1222.3 533.144
2260 0 87.1649 14.4209 1257 51.8934 1222.31 530.975
2261 0 90.3142 14.6156 1320 51.9462 1222.69 530.45
2262 0 92.2731 14.3162 1321 52.1628 1222.35 529.909
2263 0 97.1435 13.9999 1360 52.5802 1222.08 528.102
2264 0 98.0741 13.5714 1331 53.2878 1222.42 524.841
2265 0 99.2757 14.1827 1408 53.1967 1222.84 524.811
2266 0 103.27 14.0021 1446 53.3001 1223.16 523.024
2267 0 104.314 14.3701 1499 53.6658 1222.7 523.492
2268 0 110.169 14.7138 1621 53.0043 1222.85 522.01
2269 0 114.33 15.7264 1798 51.9805 1222.42 521.593
2270 0 114.283 15.4178 1762 53.1839 1222.53 519.932
2271 0 117.266 14.4117 1690 54.6337 1222.46 517.35
2272 0 121.218 14.8988 1806 54.4236 1222.59 516.308
2273 0 124.211 14.4673 1797 54.8063 1222.4 513.992
2274 0 128.156 15.7621 2020 53.6663 1222.7 512.771
2275 0 134.27 16.0944 2161 53.4651 1222.23 512.358
2276 0 136.366 14.9524 2039 54.7984 1222.13 510.777
2277 0 136.366 14.9158 2034 174.912 1222.13 510.839
2278 0 136.366 14.9011 2032 174.506 1222.12 510.822
2279 1 150.326 15.2535 2293 55.044 1222.13 504.915
2280 0 153.271 14.9604 2293 55.679 1221.82 500.211
2281 0 159.45 15.1897 2422 55.372 1221.19 500.215
2282 0 164.328 15.2865 2512 55.2759 1221.19 499.429
2283 0 170.318 15.7705 2686 55.0477 1221.35 492.447
2284 0 178.286 16.7371 2984 53.5972 1220.52 494.156
2285 0 182.335 15.0986 2753 55.9157 1220.45 488.115
2286 0 188.322 16.132 3038 54.8229 1220.44 482.748
2287 0 195.376 15.2168 2973 55.8766 1220.39 482.444
2288 0 200.38 15.6254 3131 55.3938 1220.14 483.344
2289 1 46.3095 11.9846 555 53.2396 1219.77 556.878
2290 0 46.1702 11.0028 508 53.5138 1219.88 556.366
2291 0 48.3848 12.814 620 51.8226 1219.84 556.669
2292 0 53.1874 13.5558 721 50.8433 1219.87 555.614
2293 0 55.1693 13.8664 765 50.7464 1220.5 551.017
2294 0 52.0675 11.8308 616 53.9318 1220.74 552.253
2295 0 55.3748 13.3815 741 52.3333 1219.88 552.575
2296 0 56.2776 13.1847 742 52.9124 1220.42 550.306
2297 0 60.4317 13.3705 808 52.7426 1220.19 548.948
2298 0 59.2961 13.1881 782 53.8338 1219.84 549.036
2299 0 63.053 13.3063 839 52.8653 1220.35 548.894
2300 0 64.2153 12.7228 817 53.6438 1219.43 548.694
2301 0 64.2647 12.5574 807 54.1413 1219.59 546.405
2302 0 68.1215 14.5035 988 52.0587 1219.68 544.145
2303 0 70.3077 13.5263 951 53.3228 1219.88 541.846
2304 0 70.4282 14.2273 1002 53.014 1219.92 543.161
2305 0 72.156 14.3162 1033 53.6196 1220.29 540.455
2306 0 74.7131 13.7727 1029 53.6433 1220.13 539.898
2307 0 75.2821 12.8184 965 55.1047 1220.42 540.705
2308 0 78.2737 13.325 1043 54.8274 1220.4 540.08
2309 0 82.2371 13.2665 1091 54.4775 1220.78 538.17
2310 0 85.4272 14.3046 1222 53.7766 1220.43 536.943
2311 0 85.1589 13.9504 1188 55.037 1220.49 535.147
2312 0 90.5134 14.3736 1301 54.1468 1220.46 533.564
2313 0 93.1941 13.6704 1274 55.2119 1220.42 531.897
2314 0 94.304 14.2624 1345 55.4275 1220.22 531.167
2315 1 56.0325 12.7426 714 55.6513 1219.8 552.605
2316 0 56.0886 12.5694 705 56.8128 1219.9 550.129
2317 0 61.129 14.2322 870 55.223 1220.06 548.601
2318 0 61.129 14.2485 871 173.466 1220.07 548.615
2319 0 63.2218 14.1565 895 56.886 1221.23 546.25
2320 0 64.3238 14.4581 930 56.9914 1220.83 544.019
2321 0 68.1444 14.484 987 55.8511 1221.66 543.856
2322 0 69.1288 14.5092 1003 56.335 1221.69 542.201
2323 0 69.3427 13.7145 951 58.2292 1221.81 541.26
2324 0 73.242 14.4589 1059 57.1171 1221.71 539.673
2325 0 74.227 14.294 1061 57.0914 1222.26 538.71
2326 0 78.2912 15.0975 1182 56.0432 1222.28 539.402
2327 0 80.3375 14.6756 1179 56.7786 1222.5 536.98
2328 0 83.4508 14.919 1245 56.6 1222.44 533.902
2329 0 85.5115 14.805 1266 56.8863 1222.48 533.07
2330 0 87.5836 13.5299 1185 58.1595 1222.26 533.586
2331 0 92.224 15.7876 1456 55.669 1222.58 528.299
2332 0 93.3493 14.4404 1348 57.4696 1223.21 529.432
2333 0 98.5794 15.1147 1490 56.2611 1222.99 527.03
2334 0 101.104 14.6186 1478 56.9208 1223.59 526.152
2335 0 104.48 14.2515 1489 57.094 1223.42 524.351
2336 0 108.718 14.3398 1559 56.9121 1223.3 522.588
2337 1 63.5985 13.1764 838 57.4451 1223.35 544.14
2338 0 60.5266 12.6391 765 58.0575 1224.09 546.146
2339 0 66.5348 13.1059 872 57.0424 1224.28 544.902
2340 0 65.2621 13.5454 884 57.4423 1224.41 543.889
2341 0 66.5915 14.3862 958 57.0741 1224.39 542.404
2342 0 69.7707 14.261 995 56.5819 1224.58 541.262
2343 0 72.4061 15.4269 1117 55.2005 1224.99 540.083
2344 0 74.3283 14.1938 1055 56.4123 1224.53 538.662
2345 0 78.31 15.2982 1198 54.9741 1224.73 537.413
2346 0 78.6159 14.4627 1137 56.1627 1224.39 537.121
2347 0 81.5939 14.278 1165 56.2318 1224.65 534.47
2348 0 84.3283 15.1669 1279 55.4777 1224.68 532.758
2349 0 88.7003 14.7801 1311 55.3135 1224.82 531.875
2350 0 91.5896 15.1218 1385 55.0679 1225.05 528.936
2351 0 93.58 15.1849 1421 55.2738 1224.65 526.988
2352 0 94.1754 15.2481 1436 55.9109 1225.32 526.311
2353 0 97.7047 14.9532 1461 56.2389 1225.03 525.319
2354 0 103.351 15.8005 1633 54.9565 1224.96 522.494
2355 0 104.305 15.0328 1568 55.7966 1225.22 521.392
2356 0 109.643 14.83 1626 55.9723 1224.89 519.346
2357 0 111.466 15.987 1782 54.6998 1224.99 517.861
2358 0 117.481 15.7557 1851 55.2064 1225.09 516.701
2359 0 120.522 15.408 1857 55.3888 1225.04 515.316
2360 0 124.512 15.4443 1923 55.7842 1225.04 510.853
2361 0 128.321 15.2898 1962 56.265 1224.65 509.905
2362 0 132.375 15.1766 2009 56.5714 1224.12 508.702
2363 0 134.325 15.2689 2051 56.1877 1224.42 506.036
2364 0 140.346 14.7707 2073 56.9469 1223.5 504.204
2365 0 144.243 14.9678 2159 56.7601 1223.87 503.028
2366 0 151.316 15.0678 2280 56.3921 1223.62 498.137
2367 0 155.122 15.5362 2410 56.5104 1223 496.436
2368 1 64.4367 11.4376 737 58.3202 1223.31 540.837
2369 0 68.1614 13.9668 952 55.8519 1223.23 540.196
2370 0 68.2265 14.1147 963 56.4164 1222.7 540.076
2371 0 71.2004 14.8875 1060 54.734 1222.73 537.939
2372 0 73.5306 14.2526 1048 55.7538 1222.91 536.72
2373 0 76.1568 13.6954 1043 56.6424 1222.73 535.927
2374 0 76.117 14.0048 1066 57.1998 1222.8 534.433
2375 0 79.0635 13.6726 1081 57.7419 1222.7 532.693
2376 0 81.1615 13.6025 1104 57.7618 1222.78 532.373
2377 0 86.1868 14.0277 1209 57.038 1222.71 530.921
2378 0 88.2765 14.1827 1252 57.0974 1223.02 529.943
2379 0 88.1987 14.1158 1245 57.2787 1223.34 527.68
2380 0 94.1384 14.0325 1321 56.7093 1222.86 527.444
2381 0 97.1582 15.2535 1482 54.9872 1223.22 526.733
2382 0 101.209 14.8109 1499 53.4109 1222.93 525.589
2383 1 60.0725 11.4528 688 55.0887 1223.07 544.762
2384 0 58.3023 11.7148 683 55.9649 1223.3 542.133
2385 0 64.2049 12.4601 800 54.295 1223.09 542.996
2386 0 63.125 13.8139 872 54.68 1222.8 541.577
2387 0 67.2164 13.8657 932 54.014 1222.83 540.735
2388 0 69.0513 14.3227 989 54.2993 1222.34 539.213
2389 0 73.2791 13.5646 994 54.337 1222.43 538.047
2390 0 73.2073 13.4003 981 55.3833 1222.63 535.771
2391 0 77.1207 14.2374 1098 54.1038 1222.61 536.411
2392 0 76.3394 13.7806 1052 55.3831 1222.32 536.458
2393 0 81.3076 15.1646 1233 53.708 1222.31 533.76
2394 0 82.2501 14.5532 1197 54.8212 1222.13 532.292
2395 0 86.1656 14.124 1217 54.9236 1222.53 530.851
2396 0 88.3131 14.0409 1240 55.3863 1222.25 528
2397 0 89.1337 14.5512 1297 55.7502 1222.53 527.578
2398 0 94.1051 15.0045 1412 54.8378 1222.75 527.825
2399 0 98.1723 15.0042 1473 55.165 1222.53 527.409
2400 0 100.285 15.4958 1554 54.9208 1221.77 526.88
2401 0 101.241 15.3595 1555 55.9325 1221.16 525.851
2402 0 106.187 15.3126 1626 55.6464 1221.21 523.459
2403 0 110.353 14.6983 1622 56.5314 1221.22 523.47
2404 0 112.119 14.7343 1652 57.2627 1220.83 520.696
2405 0 116.38 15.0628 1753 56.8466 1220.71 518.827
2406 0 118.404 14.6617 1736 57.837 1221.11 515.666
2407 0 122.274 15.3999 1883 57.1928 1220.93 516.19
2408 0 126.393 15.1749 1918 57.7539 1220.67 513.859
2409 0 129.393 14.7921 1914 58.5355 1220.63 510.251
2410 0 134.42 15.4665 2079 57.5055 1220.55 510.639
2411 0 139.622 15.9287 2224 57.1264 1220.09 507.87
2412 0 142.351 14.9209 2124 58.1643 1220.27 506.716
2413 0 148.332 14.9192 2213 58.7619 1219.98 503.579
2414 1 65.2162 11.4849 749 54.6996 1219.7 547.286
2415 0 70.3454 11.3725 800 55.31 1219.55 544.804
2416 0 70.1767 10.7158 752 56.1888 1219.56 543.278
2417 0 71.2721 10.6213 757 57.2893 1219.11 539.235
2418 0 74.1179 11.05 819 56.6203 1218.83 539.922
2419 0 77.116 11.5929 894 55.3915 1219.13 539.487
2420 0 81.1049 11.4296 927 55.452 1218.98 538.94
2421 0 80.264 10.8392 870 57.0195 1218.96 534.764
2422 0 85.1982 12.1482 1035 55.5111 1218.85 536.866
2423 0 85.3685 10.7885 921 56.1422 1218.83 539.082
2424 0 91.3376 12.0651 1102 55.4837 1219 533.303
2425 0 94.2524 12.6681 1194 54.5921 1219.31 531.936
2426 0 93.2269 10.6729 995 56.8322 1219.37 531.647
2427 0 97.1671 10.5488 1025 57.4946 1219.82 527.231
2428 0 103.496 13.1116 1357 54.154 1220.01 529.58
2429 0 101.124 10.7096 1083 57.0646 1219.54 524.925
2430 0 106.389 11.7964 1255 55.4582 1219.55 524.245
2431 0 110.429 10.2056 1127 56.9379 1219.45 522.203
2432 1 70.1684 9.976 700 52.3886 1218.92 546.846
2433 0 69.3134 9.5364 661 53.416 1219.02 543.793
2434 0 69.3134 9.39212 651 148.052 1219.03 543.724
2435 0 74.1916 9.85287 731 53.7155 1219.49 540.401
2436 0 76.2618 8.35281 637 55.4662 1219.7 537.13
2437 0 80.4243 10.3949 836 53.1591 1219.74 538.297
2438 0 84.4043 12.2861 1037 51.5535 1219.44 536.099
2439 0 85.5862 10.9247 935 53.2096 1219.25 535.601
2440 0 85.2761 10.2725 876 54.2374 1219.26 532.244
2441 0 91.469 10.8343 991 52.9798 1219.39 532.386
2442 0 95.3739 12.257 1169 51.4457 1219.49 531.673
2443 0 96.5028 11.9789 1156 52.3417 1219.42 531.231
2444 0 99.493 12.5939 1253 52.2905 1219.47 530.034
2445 0 95.3628 11.9963 1144 53.8077 1219.52 526.108
2446 0 105.726 12.2486 1295 52.5135 1219.24 528.131
2447 0 108.642 11.3584 1234 53.701 1219.77 521.66
2448 0 113.41 11.2689 1278 53.6471 1219.82 519.536
2449 0 114.301 11.6447 1331 53.4959 1220.32 516.558
2450 0 117.729 12.4779 1469 52.7686 1219.91 519.246
2451 0 118.569 12.8954 1529 52.9058 1220.43 516.392
2452 0 125.461 12.7768 1603 53.2963 1220.08 516.419
2453 1 74.4251 10.4266 776 52.6997 1220.84 540.107
2454 0 80.4519 10.7269 863 50.9687 1220.35 539.912
2455 0 81.5256 10.7206 874 50.4119 1220.39 539.094
2456 0 82.1954 11.3753 935 51.0118 1220.74 533.094
2457 0 85.3827 12.321 1052 50.2947 1220.58 533.427
2458 0 87.3152 12.8614 1123 49.7961 1220.71 534.78
2459 0 90.2279 12.8452 1159 50.83 1221.17 531.935
2460 0 93.3022 13.1079 1223 50.2543 1221.11 532.246
2461 0 95.3535 13.4762 1285 50.2467 1221.39 529.581
2462 0 98.5478 13.1916 1300 50.8508 1221.49 528.769
2463 0 100.441 13.0026 1306 51.1662 1221.91 527.704
2464 0 103.984 12.4635 1296 51.9707 1222.58 524.191
2465 0 104.461 13.2107 1380 51.4109 1222.35 524.447
2466 0 109.569 14.1829 1554 50.7876 1222.62 522.468
2467 0 111.242 13.8617 1542 51.7296 1223.46 519.336
2468 0 113.9 13.503 1538 52.1801 1223.98 519.694
2469 0 118.661 13.686 1624 51.9052 1223.66 517.482
2470 0 118.836 13.2704 1577 53.1465 1223.85 514.238
2471 0 122.726 13.5994 1669 52.7555 1224 511.532
2472 0 125.479 13.6357 1711 52.8977 1224.16 510.266
2473 0 129.752 13.31 1727 53.0452 1224.46 510.669
2474 0 135.583 14.5299 1970 52.1437 1224.5 507.178
2475 0 138.921 14.3535 1994 52.821 1224.56 502.936
2476 0 142.697 14.6674 2093 52.3942 1224.94 503.283
2477 0 148.922 14.4975 2159 52.9018 1225.14 501.512
2478 0 152.767 14.2374 2175 53.1646 1225.26 498.858
2479 0 158.122 14.2232 2249 53.209 1225.39 498.699
2480 0 162.843 14.8241 2414 52.7709 1225.32 495.316
2481 1 95.4381 11.6306 1110 53.8126 1225.08 528.22
2482 1 18.0675 8.35755 151 44.2914 1228.05 565.762
2483 0 18.049 9.08639 164 44.3537 1227.92 565.494
2484 0 17.0253 9.33905 159 44.8805 1227.92 564.61
2485 0 20.1714 8.77478 177 44.8023 1228.03 564.017
2486 0 17.0515 8.0345 137 45.1752 1227.81 564.752
2487 0 18.0444 9.36577 169 45.0888 1227.71 565.592
2488 0 20.0093 8.84591 177 43.9209 1227.01 565.842
2489 0 16.062 7.15976 115 46.8174 1227.4 565.052
2490 0 19.1374 8.51737 163 45.3558 1227.1 564.313
2491 0 19.065 8.65461 165 44.703 1226.87 564.473
2492 0 19.0651 9.70361 185 44.6216 1226.64 563.741
2493 0 20.0969 10.0016 201 44.4726 1226.19 563.398
2494 0 21.0507 10.6885 225 44.0667 1226.28 564.827
2495 0 23.1545 6.99648 162 46.179 1226.93 564.093
2496 0 21.178 7.93275 168 45.6905 1226.49 564.399
2497 0 19.0757 10.4321 199 44.0653 1226.05 563.714
2498 0 19.048 10.1848 194 45.268 1226.24 563.696
2499 0 19.2118 7.18309 138 46.2319 1226.85 564.804
2500 0 21.1204 7.62297 161 45.4783 1226.35 565.876
2501 0 21.0702 9.44463 199 44.3719 1225.87 564.191
2502 0 21.0583 8.54769 180 44.6833 1225.74 564.783
2503 0 21.1718 7.27381 154 45.3442 1225.54 565.396
2504 0 21.0395 8.74545 184 45.288 1225.59 564.315
2505 0 21.2471 10.4485 222 44.4775 1225.11 564.068
2506 0 21.1743 7.74523 164 45.8232 1225.03 565.994
2507 0 23.0766 10.6601 246 43.8293 1225.89 563.821
2508 0 22.1755 8.6582 192 44.8281 1225.64 564.682
2509 0 23.1195 10.3809 240 44.1042 1225.38 563.575
2510 0 19.0912 9.00938 172 45.0349 1225.6 564.314
2511 0 20.163 8.13371 164 45.0183 1225.61 565.744
2512 0 22.057 8.7954 194 45.3247 1224.81 564.67
2513 0 22.0993 8.41654 186 45.7043 1225.18 564.253
2514 0 24.1291 9.36629 226 44.7832 1224.89 564.248
2515 0 21.1072 9.14378 193 44.4197 1225.12 565.834
2516 0 22.0695 8.02012 177 45.5424 1225.45 564.927
2517 0 24.0709 8.51651 205 44.3122 1225.41 566.02
2518 0 23.0541 9.45603 218 44.0872 1225.31 564.739
2519 0 21.0809 10.5783 223 44.3318 1225.19 564.637
2520 0 23.1376 9.42188 218 45.3945 1225.18 563.908
2521 0 23.1075 8.52539 197 45.1066 1224.94 564.32
2522 0 24.1521 8.86052 214 44.0374 1224.78 565.238
2523 0 23.1934 8.06263 187 44.615 1225.01 565.23
2524 0 26.1094 8.77078 229 43.4585 1224.96 566.166
2525 0 24.0551 8.35583 201 45.01 1225.06 566.154
2526 0 27.0554 10.0165 271 42.7712 1224.23 565.303
2527 0 23.1069 8.91507 206 44.8786 1224.39 564.748
2528 0 24.0284 9.69686 233 44.8326 1223.49 564.794
2529 0 25.0812 10.167 255 44.2314 1224.11 564.141
2530 0 25.0654 8.69723 218 44.6972 1224.87 565.56
2531 0 27.0579 10.496 284 43.6268 1224.18 564.338
2532 0 25.0113 8.71607 218 44.711 1224.27 565.95
2533 0 23.008 8.25798 190 44.5 1223.94 567.6
2534 0 25.048 10.1804 255 42.851 1223.63 567.071
2535 0 24.0157 9.49379 228 43.9605 1223.3 565.886
2536 0 24.0643 9.47462 228 42.943 1222.79 566.886
2537 0 24.0643 9.43307 227 122.075 1221.77 566.846
2538 0 25.0706 8.49601 213 43.4131 1222.29 566.751
2539 0 23.0619 8.49888 196 45.3418 1220.62 563.582
2540 0 20.0512 8.47831 170 45.8824 1218.06 565.359
2541 0 23.0158 9.25451 213 43.277 1217.59 568.216
2542 0 23.0158 9.25451 213 118.85 1214.59 568.216
2543 0 24.0061 8.58114 206 44.267 1218.31 568.019
2544 0 24.0281 10.9871 264 43.3106 1218.29 567.841
2545 0 24.0791 8.55513 206 44.8155 1218.34 569.32
2546 0 24.1154 9.95213 240 43.9042 1218.15 567.583
2547 0 22.1184 8.04761 178 46.2753 1218.23 568.483
2548 0 26.1298 10.1034 264 42.9091 1217.29 570.186
2549 0 23.0285 11.247 259 43.5135 1217.41 569.371
2550 0 23.0187 8.68858 200 44.665 1217.31 569.51
2551 0 23.0452 10.8482 250 42.88 1218.12 568.56
2552 0 22.0165 9.12951 201 44.2587 1217.78 569.617
2553 0 23.0046 10.3457 238 42.4664 1217.68 570.954
2554 0 21.0039 8.95072 188 43.6489 1218.71 561.558
2555 0 22.0361 6.8524 151 43.9801 1218.66 567.391
2556 0 22.0207 9.89978 218 41.9771 1217.44 569.156
2557 0 23.028 10.0747 232 41.9698 1218.29 568.177
2558 0 22.0275 7.99001 176 44.0909 1218.95 570.199
2559 0 21.0323 7.17943 151 43.5166 1219.27 570.185
2560 0 24.0117 10.0368 241 40.8382 1219.23 569.29
2561 0 22.0405 9.98161 220 40.7318 1219.95 569.686
2562 0 22.0212 8.62804 190 41.8158 1219.92 569.49
2563 0 19.0261 8.09416 154 42.4805 1219.45 569.175
2564 0 23.0148 6.77824 156 42.7051 1219.42 569.801
2565 0 21.0019 9.90389 208 41.3413 1219.95 567.899
2566 0 19.0098 8.57451 163 42.908 1220.39 568.405
2567 0 19.0647 9.23171 176 42.5966 1219.65 568.057
2568 0 20.0699 9.66621 194 42.5979 1219.9 568.345
2569 0 21.0294 9.13009 192 43.651 1219.14 570.292
2570 0 23.0275 10.6829 246 42.3618 1218.75 571.699
2571 0 24.0621 7.68842 185 45.2703 1218.85 569.514
2572 0 23.0056 9.4325 217 44.2212 1219.18 570.682
2573 0 21.0074 10.1393 213 44.493 1218.74 569.357
2574 0 21.0334 10.1743 214 44.2664 1218.85 569.435
2575 0 22.0471 8.02828 177 46.2316 1218.43 570.729
2576 0 21.077 9.58391 202 44.8663 1218.46 570.168
2577 0 21.1377 9.88753 209 44.3158 1218.25 570.182
2578 0 21.0098 8.47225 178 44.8371 1218.14 569.742
2579 0 22.0113 10.3583 228 43.057 1218.9 569.259
2580 0 21.0395 9.4584 199 42.7588 1218.23 568.302
2581 0 19.0042 8.52441 162 43.6111 1218.86 568.901
2582 0 22.0399 7.71328 170 44.4529 1219.34 570.341
2583 0 23.0279 7.33891 169 44.2663 1218.73 570.266
2584 0 24.0637 9.59953 231 42.2511 1218.66 568.255
2585 0 22.0012 8.86316 195 43.8051 1219.57 566.4
2586 0 24.0502 10.686 257 41.7198 1219.06 568.537
2587 0 23.0276 9.59718 221 42.552 1218.59 567.629
2588 0 21.0175 8.89737 187 43.139 1218.15 568.904
2589 0 21.0061 8.71175 183 42.4809 1218.14 566.995
2590 0 20.08 7.51993 151 42.7285 1218.02 568.954
2591 0 21.0449 8.64819 182 42.0824 1217.93 567.989
2592 0 22.1312 6.91331 153 41.6928 1217.7 567.17
2593 0 21.0979 7.67848 162 41.4568 1216.81 568.414
2594 0 21.0284 8.4172 177 40.8362 1217.26 568.203
2595 0 22.1589 7.35595 163 42.0491 1217.79 565.607
2596 0 17.074 5.79828 99 42.7374 1217.2 567.111
2597 0 18.1536 5.83908 106 42.8208 1217.84 566.821
2598 0 21.0195 7.94501 167 40.6467 1217.77 567.964
2599 0 22.0057 8.63414 190 41.2158 1218.2 566.31
2600 0 21.0643 6.314 133 42.7293 1218.71 566.842
2601 0 23.0236 6.51506 150 42.3 1219.31 565.473
2602 0 23.0478 7.67968 177 40.6441 1219.16 568.616
2603 0 21.2307 6.4529 137 42.3869 1219.33 565.467
2604 0 21.1412 7.00056 148 42.6486 1219.5 564.804
2605 0 23.0723 6.54466 151 42.2517 1218.96 565.066
2606 0 25.277 9.29699 235 40.3021 1219.41 564.562
2607 0 21.096 7.82141 165 41.7152 1219.36 566.164
2608 0 22.052 8.34393 184 41.2554 1219.88 564.679
2609 0 25.0569 9.25893 232 41.1681 1220.11 564.694
2610 0 25.1117 8.36262 210 42.3238 1221 565.219
2611 0 26.0692 8.78431 229 41.5196 1221.25 564.568
2612 0 23.0052 8.04167 185 42.7784 1220.93 566.146
2613 0 25.0724 8.37574 210 42.5667 1221.7 564.848
2614 0 26.1854 9.77644 256 41.0664 1222.14 564.738
2615 0 25.1644 7.90799 199 40.99 1222.12 566.307
2616 0 14.0011 5.28528 74 41.7297 1221.7 571.216
2617 0 13.0003 6.30754 82 41.5488 1221.79 571.561
2618 0 12.0004 5.16649 62 41.9516 1222.32 570.903
2619 0 14.001 4.28539 60 42.2167 1222.2 571.367
2620 0 14.0006 6.78541 95 42 1222.05 571.168
2621 1 29.2481 8.92366 261 40.7816 1222.61 564.739
2622 0 34.0104 5.38071 183 43.4481 1222.76 565.563
2623 0 27.0856 8.82387 239 42.3222 1223.38 557.063
2624 0 28.0198 10.2071 286 41.8636 1222.35 560.182
2625 0 24.0527 8.77242 211 43.2559 1222.09 565.417
2626 0 26.0548 9.71031 253 41.4032 1223.22 563.451
2627 0 24.0264 7.94957 191 42.7068 1223.64 564.204
2628 0 25.133 7.67916 193 43.5959 1223.61 562.85
2629 0 25.1287 8.47638 213 42.939 1225.07 564.967
2630 0 25.0776 9.76967 245 42.1918 1225.02 563.747
2631 0 26.1455 9.21765 241 42.444 1225.32 564.739
2632 0 28.1237 8.6404 243 42.9095 1225.28 563.436
2633 0 26.1049 7.66139 200 44.1 1225.08 563.045
2634 0 26.1667 8.48405 222 43.3063 1224.29 563.108
2635 0 26.1662 9.55432 250 41.396 1222.09 561.756
2636 0 26.0983 11.2651 294 39.9694 1222.17 562.248
2637 0 25.0319 10.946 274 41.2591 1221.81 560.38
2638 0 26.0429 9.56116 249 42.5904 1221.27 559.237
2639 0 24.076 7.72553 186 43.328 1221.35 562.108
2640 0 26.0236 6.95523 181 43.9779 1221.39 559.746
2641 0 27.02 9.14139 247 43.0931 1221.38 558.372
2642 0 28.0136 9.85235 276 42.3152 1221.58 558.714
2643 0 28.0299 9.27582 260 42.9769 1221.77 560.512
2644 0 28.0104 9.38937 263 42.749 1221.86 559.836
2645 0 25.1078 9.00117 226 43.7832 1221.69 559.5
2646 0 27.0682 9.60538 260 42.7923 1221.78 560.019
2647 0 25.1761 9.69175 244 44.0656 1222.09 558.418
2648 0 26.0347 10.8701 283 42.3816 1222.16 559.488
2649 0 25.1283 8.35711 210 44.2429 1221.12 560.676
2650 0 29.0463 9.84634 286 41.479 1222.07 559.944
2651 0 29.0091 10.3761 301 40.8007 1222.41 560.046
2652 0 27.0421 9.31882 252 42.3175 1221.88 560.599
2653 0 27.0341 9.09963 246 42.2846 1221.58 560.577
2654 0 26.0634 9.97567 260 42.4731 1221.17 559.981
2655 0 27.0395 10.2073 276 40.9891 1220.33 561.801
2656 0 25.023 9.27145 232 42.2759 1221.03 561.935
2657 0 27.0194 10.696 289 41.2907 1220.65 561.017
2658 0 26.014 10.4175 271 42.0627 1221.05 560.915
2659 0 24.0158 9.07735 218 43.7752 1220.79 561.995
2660 0 28.0438 10.8759 305 40.9672 1220.09 562.531
2661 0 26.0708 8.36186 218 42.8761 1220.52 561.417
2662 0 25.1539 9.30275 234 43.1581 1220.32 561.705
2663 0 27.0458 10.7226 290 42.0655 1219.94 560.441
2664 0 25.0405 10.3033 258 43.4419 1220.44 558.837
2665 0 26.0327 8.83504 230 43.3652 1220.05 561.048
2666 0 26.0879 10.7713 281 42.8292 1220.36 559.648
2667 0 26.0175 10.4161 271 42.9188 1220.74 561.092
2668 0 25.0037 9.63858 241 44.0332 1220.73 561.261
2669 0 25.0074 10.357 259 44.0618 1220.56 560.71
2670 0 25.0094 9.91629 248 44.1774 1220.69 562.032
2671 0 24.1081 10.6603 257 43.463 1220.59 561.331
2672 0 25.0634 9.17671 230 43.9043 1220.91 563.187
2673 0 25.1258 10.4275 262 44.2672 1220.93 561.298
2674 0 25.0145 9.55447 239 43.7992 1220.58 562.728
2675 0 26.0563 9.82488 256 43.8789 1219.88 560.09
2676 0 25.1091 11.2708 283 44.1095 1220.05 560.219
2677 0 24.0545 10.5178 253 44.7115 1219.54 561.415
