time division length width area intensity CMx CMy
0 0 52.0479 12.892 671 64.5618 1059.35 568.407
1 0 52.0439 11.2981 588 67.8027 1059.11 566.745
2 0 54.0494 12.5256 677 66.0487 1058.79 566.7
3 0 55.0255 12.4306 684 67.807 1058.56 564.092
4 0 57.1948 12.9033 738 67.7683 1058.78 563.864
5 0 60.1157 12.0933 727 68.7923 1058.76 564.505
6 0 62.2175 12.4885 777 67.9176 1058.13 563.008
7 0 65.3193 13.013 850 66.6588 1058.04 562.547
8 0 67.3104 12.1527 818 68.8802 1058.6 562.586
9 0 70.1973 12.6358 887 68.2604 1057.97 561.006
10 0 72.2678 13.3531 965 68.2642 1058.49 558.254
11 0 74.3751 13.163 979 69.6016 1057.86 557.797
12 0 76.3297 12.9569 989 69.8028 1058.18 555.95
13 0 77.2547 12.9571 1001 69.2298 1057.89 554.896
14 1 41.3001 10.3148 426 69.2629 1058.68 574.3
15 0 42.214 10.6126 448 68.2522 1059.23 573.545
16 0 43.2578 10.9344 473 68.7674 1059.13 571.427
17 0 45.4243 10.567 480 68.0917 1058.45 569.054
18 0 47.315 11.2649 533 66.0638 1058.23 568.522
19 0 48.3667 11.6196 562 63.9555 1058.24 567.795
20 0 49.2455 11.6153 572 63.6189 1058.55 568.802
21 0 51.2384 11.9832 614 62.7671 1058.09 567.112
22 0 52.2695 12.2251 639 62.6338 1058.23 566.515
23 0 54.2533 12.1836 661 62.4977 1058.62 566.95
24 0 56.3082 11.9698 674 62.181 1058.52 566.365
25 0 58.1985 12.7151 740 61.3216 1058.9 563.689
26 0 58.2179 12.6593 737 61.7965 1059.45 564.075
27 0 62.1619 12.1296 754 62.6313 1059.14 560.041
28 0 64.3119 12.9059 830 61.6265 1059.18 560.414
29 0 65.2409 11.8177 771 63.6407 1059.49 560.834
30 0 66.4073 12.9203 858 63.373 1059.9 558.691
31 0 69.1356 12.7575 882 63.4875 1060.18 558.837
32 0 72.1583 12.6804 915 63.894 1060.11 558.209
33 0 73.2281 12.7274 932 64.2285 1060.56 556.323
34 0 77.2366 12.3775 956 64.9247 1060.23 554.962
35 0 78.2625 12.3431 966 65.3799 1059.96 554.09
36 0 80.2735 12.5695 1009 65.7384 1059.72 552.023
37 1 45.1801 10.5578 477 64.7652 1060.33 571.948
38 0 45.0881 11.0672 499 65.6212 1060.16 569.599
39 0 46.097 10.7816 497 66.0905 1059.76 569.354
40 0 49.1567 11.9821 589 63.6401 1060.43 569.902
41 0 50.0823 11.8804 595 64.5529 1060.41 567.793
42 0 50.123 11.9306 598 65.092 1060.57 566.612
43 0 52.1769 12.151 634 62.1435 1060.12 566.844
44 0 53.1879 11.4124 607 63.6211 1060.51 566.145
45 0 57.2073 12.7606 730 61.2315 1060.38 563.893
46 0 58.1382 12.3671 719 62.0709 1060.48 563.608
47 0 60.1261 12.2576 737 62.1615 1061.27 564.434
48 0 60.1441 12.5199 753 61.7384 1060.92 562.275
49 0 62.2436 12.5796 783 62.1175 1061.04 560.851
50 0 64.2819 13.4564 865 61.3746 1060.87 561.025
51 0 65.1994 13.221 862 62.2796 1061 561.183
52 0 68.1975 13.3289 909 61.3487 1061.3 560.084
53 0 70.1397 13.4018 940 62.0043 1061.23 559.279
54 0 70.1581 12.3863 869 63.5339 1060.46 558.199
55 0 74.2405 13.591 1009 55.4836 1061.01 556.788
56 0 75.2904 12.1795 917 57.3544 1061.43 554.627
57 0 79.26 12.8438 1018 57.2436 1061.57 552.738
58 0 81.3037 12.1766 990 58.0202 1060.99 553.104
59 0 88.3426 12.2931 1086 57.8214 1061.15 550.517
60 0 89.5099 12.5014 1119 58.4763 1061.39 550.081
61 0 91.4161 12.0657 1103 59.5558 1061.07 546.234
62 1 49.172 10.2497 504 59.1131 1060.79 568.284
63 0 48.2745 10.5439 509 59.9784 1060.59 566.676
64 0 50.2257 11.0899 557 59.3088 1060.48 566.589
65 0 52.3489 11.2132 587 59.0187 1060.68 565.269
66 0 54.2379 11.1546 605 59.595 1060.56 563.339
67 0 57.5752 12.3143 709 58.6065 1061.6 561.372
68 0 56.1749 11.66 655 60.8855 1061.58 561.34
69 0 60.1195 12.7579 767 59.2138 1061.75 559.179
70 0 61.3522 11.8333 726 60.4972 1061.07 559.944
71 0 63.3465 13.213 837 58.4683 1061.34 557.453
72 0 67.3439 12.3248 830 59.1602 1061.66 556.71
73 0 68.4496 12.9438 886 58.6479 1061.77 555.96
74 0 70.5196 13.2162 932 58.6127 1062.27 553.646
75 0 72.3492 12.2738 888 59.6959 1062.36 552.034
76 0 76.4193 13.6876 1046 58.2447 1062.77 551.176
77 0 78.3094 12.54 982 59.6976 1062.85 551.027
78 0 80.3679 13.5502 1089 58.4105 1062.92 549.903
79 0 79.3103 13.1887 1046 59.7055 1062.55 547.553
80 0 87.2773 13.6691 1193 58.8072 1063.09 545.197
81 0 89.3698 13.819 1235 59.2502 1062.46 541.335
82 0 94.4355 14.3696 1357 58.3125 1063.16 541.555
83 0 98.3543 13.9902 1376 59.0763 1063.18 540.543
84 0 101.246 13.8276 1400 59.8429 1063.8 539.191
85 1 53.2872 11.9916 639 59.6933 1064.58 559.613
86 0 54.2539 11.7595 638 60.1364 1064.95 559.127
87 0 55.2309 11.0445 610 60.7738 1065.05 558.17
88 0 57.1641 12.2105 698 58.5731 1064.76 555.936
89 0 60.1543 13.6981 824 54.9502 1065.01 555.534
90 0 62.1942 12.1876 758 56.7889 1064.97 555.704
91 0 64.1861 12.3859 795 62.7195 1065.67 553.533
92 0 64.178 12.7925 821 65.8283 1065.97 550.458
93 0 66.1919 11.3307 750 65.244 1066.51 548.663
94 0 68.3345 13.1998 902 62.8514 1066.29 548.911
95 0 71.1754 13.4597 958 59.7714 1066.02 547.601
96 0 73.281 13.6734 1002 58.6218 1066.79 546.017
97 0 76.3274 13.3242 1017 82.6126 1067.16 545.539
98 0 77.2559 14.3549 1109 57.3012 1066.45 545.088
99 0 80.1609 13.9968 1122 57.7959 1065.66 543.53
100 0 82.2122 13.6354 1121 59.62 1065.91 541.723
101 0 85.2644 12.8893 1099 63.404 1066.61 542.135
102 0 88.1292 14.0022 1234 62.2626 1066.65 540.302
103 0 90.2132 13.4681 1215 61.6584 1066.44 537.709
104 0 93.2261 13.6442 1272 61.6219 1066.56 536.304
105 0 96.3738 14.091 1358 60.5022 1066.43 533.666
106 0 98.2484 13.2827 1305 63.2146 1066.54 531.639
107 0 100.264 13.295 1333 64.4899 1066.6 532.465
108 0 103.22 12.6429 1305 66.6812 1066.54 530.249
109 0 107.175 12.4189 1331 63.7288 1066.46 529.831
110 1 59.09 9.76476 577 62.3847 1066.98 552.348
111 0 62.2154 11.2673 701 58.3552 1066.97 552.583
112 0 63.0189 10.9967 693 58.5743 1066.72 550.698
113 0 65.1165 10.5964 690 59.6623 1066.8 549.39
114 0 67.1581 11.6144 780 59.6462 1066.83 549.679
115 0 70.1729 11.9562 839 59.9654 1066.06 546.244
116 0 73.1609 12.4793 913 58.8488 1065.44 546.858
117 0 74.2221 13.1228 974 58.6366 1066.02 541.668
118 0 74.215 12.3156 914 59.6324 1065.97 543.565
119 0 76.259 13.9524 1064 57.1325 1065.82 544.171
120 0 77.2846 11.5288 891 59.4523 1065.38 543.585
121 0 86.3407 14.3733 1241 56.4601 1065.09 539.027
122 0 88.215 13.5124 1192 57.4992 1065.74 538.904
123 0 93.1122 12.8125 1193 58.1408 1065.52 536.179
124 0 92.1471 13.0661 1204 58.853 1065.31 533.362
125 1 50.1017 10.319 517 58.383 1064.89 557.636
126 0 49.0712 9.08882 446 59.5964 1064.47 557.821
127 0 50.125 10.1546 509 58.78 1064.51 557.487
128 0 54.2328 11.174 606 57.5314 1064.57 556.792
129 0 53.0903 11.8289 628 56.9984 1064.76 556.618
130 0 59.0743 13.3053 786 56.8995 1064.47 553.252
131 0 57.1002 11.5586 660 59.5576 1064.49 553.918
132 0 60.1131 13.458 809 58.576 1064.59 550.415
133 0 62.0911 12.6749 787 59.2668 1064.41 551.611
134 0 62.0706 12.8402 797 59.7039 1064.96 551.841
135 0 66.172 13.6312 902 58.602 1064.82 548.779
136 0 66.0583 13.155 869 59.84 1064.62 547.422
137 0 69.1501 13.5936 940 59.0489 1064.31 546.552
138 0 71.1838 13.8515 986 58.6116 1064.34 546.45
139 0 71.1903 12.7826 910 59.9736 1063.93 546.029
140 0 74.199 13.2347 982 59.0703 1064.5 543.983
141 0 77.1573 12.0403 929 60.8956 1064.07 541.564
142 0 81.2717 13.461 1094 58.7121 1064.12 541.953
143 0 81.1594 12.6418 1026 60.153 1064.39 541.327
144 0 84.193 13.1246 1105 60.2688 1064.35 537.009
145 0 88.199 14.3539 1266 58.9028 1063.9 536.82
146 0 91.3537 13.2781 1213 59.7181 1063.63 534.853
147 0 93.1846 14.1976 1323 58.8851 1064.24 532.24
148 0 97.1212 13.5089 1312 58.8498 1064.19 534.678
149 1 53.0512 10.2919 546 58.7454 1064.86 552.524
150 0 55.0971 12.4689 687 57.3886 1064.71 554.167
151 0 57.1975 12.2908 703 58.2233 1064.56 552.088
152 0 59.1408 12.5971 745 57.8926 1064.59 552.267
153 0 60.1942 12.7255 766 58.7441 1064.47 550.235
154 0 64.3146 13.6672 879 57.0455 1064.28 548.571
155 0 65.1858 12.7175 829 58.1749 1063.7 549.577
156 0 68.1039 14.1989 967 56.5626 1063.6 548.628
157 0 68.1621 12.7784 871 59.2595 1064.06 546.122
158 0 72.2377 12.9434 935 59.6289 1063.67 545.098
159 0 74.1141 13.9245 1032 58.9041 1063.65 543.376
160 0 75.1407 12.7627 959 60.8019 1063.61 544.589
161 0 80.067 16.1365 1292 56.6494 1063.25 542.982
162 0 83.2168 13.8313 1151 60.2546 1063.11 541.32
163 0 83.138 13.4716 1120 61.0357 1063.09 541.194
164 0 87.3293 13.3289 1164 61.7603 1063.81 539.116
165 0 91.1178 14.3111 1304 60.9732 1064.01 536.88
166 1 44.0136 10.5195 463 63.2765 1064.01 559.164
167 0 46.0764 10.7647 496 63.9657 1064.07 557.244
168 0 48.0652 10.9643 527 64.0778 1064.23 558.541
169 0 49.0348 11.2573 552 63.962 1064.61 558.025
170 0 50.0188 11.3357 567 64.3457 1065.25 555.464
171 0 51.0167 11.2316 573 65.1902 1065.26 553.417
172 0 52.2118 11.415 596 64.4211 1065.17 555.651
173 0 56.1759 12.0336 676 63.2604 1065.25 555.549
174 0 55.2318 12.1488 671 64.2057 1065.5 553.52
175 0 57.1827 12.7311 728 63.7967 1065.49 553.132
176 0 58.1168 13.3008 773 62.7193 1065.39 552.938
177 0 58.1656 12.3441 718 65.3106 1065.4 550.94
178 0 60.161 13.2478 797 63.8331 1065.63 549.726
179 0 62.1103 13.5887 844 63.4467 1065.86 549.023
180 0 63.1652 13.1243 829 64.2123 1066.42 548.674
181 0 66.1442 13.4252 888 63.7725 1066.57 547.654
182 0 66.1442 13.395 886 155.219 1066.58 547.644
183 0 66.1442 13.4101 887 154.803 1066.6 547.563
184 0 73.1568 12.1246 887 65.2311 1066.72 545.088
185 0 75.1556 12.5872 946 64.8753 1066.82 542.799
186 0 77.1836 12.7747 986 63.6207 1066.84 539.516
187 0 79.2286 13.7577 1090 62.4009 1067.31 539.436
188 0 82.1939 12.6895 1043 64.0853 1067.64 535.778
189 1 45.1673 10.1401 458 63.0131 1067.81 558.445
190 0 45.2402 10.7869 488 63.9488 1067.55 555.9
191 0 46.2153 11.4681 530 63.4302 1067.56 554.074
192 0 48.1812 11.8718 572 62.993 1068.51 554.872
193 0 49.2466 11.6759 575 62.4 1068.41 552.16
194 0 51.17 11.3739 582 60.8265 1068.49 553.196
195 0 52.2065 12.259 640 59.8969 1068.15 552.486
196 0 54.1174 12.5468 679 61.0928 1068.29 549.074
197 0 55.1797 10.8373 598 63.4582 1068.28 548.89
198 0 56.1368 12.6299 709 61.7645 1068.77 547.261
199 0 59.1772 13.299 787 59.9708 1068.84 547.288
200 0 61.2071 12.3515 756 60.8175 1069.34 547.786
201 0 61.2391 12.1818 746 60.9155 1069.22 546.936
202 0 62.1111 12.1878 757 61.568 1069.94 545.398
203 0 65.1565 13.1683 858 60.7179 1069.67 544.192
204 0 64.1042 12.4797 800 62.28 1069.88 543.102
205 0 68.1627 13.1157 894 60.962 1070.05 541.166
206 0 72.1364 13.0031 938 60.8539 1069.81 540.383
207 0 73.1433 13.8222 1011 60.1484 1069.89 538.595
208 0 77.1745 12.3875 956 61.4519 1070.16 539.73
209 0 80.2464 12.7358 1022 61.0245 1070.07 538.323
210 1 43.0912 10.5126 453 61.3951 1070.38 554.675
211 0 43.0912 10.5126 453 143.819 1070.36 554.506
212 0 47.2635 11.1926 529 60.8507 1070.23 552.62
213 0 47.181 11.4241 539 60.5603 1070.57 552.985
214 0 50.2098 11.5117 578 60.5657 1069.78 551.05
215 0 52.1392 11.5077 600 59.9617 1069.87 552.113
216 0 54.0962 12.2559 663 59.1267 1069.61 551.139
217 0 53.2121 12.1777 648 60.3056 1068.95 550.552
218 0 57.2029 13.1287 751 58.8948 1069.01 549.929
219 0 58.27 12.4936 728 60.2775 1068.5 549.122
220 0 61.1556 12.9342 791 59.2276 1068.52 549.882
221 0 65.2242 12.1274 791 59.8989 1067.95 547.843
222 0 65.2342 13.2139 862 59.7251 1067.74 546.442
223 0 65.2343 13.0759 853 60.1958 1067.54 546.14
224 0 69.1545 14.0266 970 59.2526 1067.17 543.413
225 0 70.1602 13.6687 959 60.3816 1067.39 542.546
226 0 72.1261 12.9079 931 61.2943 1068.02 542.774
227 0 74.2914 13.5143 1004 61.2042 1067.85 541.087
228 0 75.1929 12.5411 943 62.5716 1067.5 539.73
229 0 79.1717 13.5907 1076 61.2463 1067.44 538.693
230 0 81.2097 13.3358 1083 61.6353 1067.34 537.646
231 1 44.1655 10.4833 463 62.4341 1067.78 557.328
232 0 44.2362 10.0596 445 63 1067.64 558.092
233 0 46.2332 10.0361 464 63.0733 1067.84 557.716
234 0 46.196 12.1655 562 61.4786 1066.65 554.906
235 0 48.2557 11.066 534 61.515 1066.18 556.785
236 0 51.1641 12.9778 664 59.8178 1066.1 554.81
237 0 52.1476 12.0044 626 60.9633 1066.26 555.601
238 0 52.2038 11.2061 585 62.9368 1065.9 553.422
239 0 56.1644 11.9115 669 61.2407 1066.25 552.428
240 0 58.1977 12.3888 721 61.1026 1066.08 553.578
241 0 59.1046 11.6911 691 62.8973 1066.76 551.077
242 0 59.2095 11.2651 667 63.6417 1066.64 551.705
243 0 59.146 12.7312 753 62.5286 1065.76 550.502
244 0 61.0805 12.1807 744 63.1868 1065.89 549.73
245 0 63.0645 12.4 782 63.0243 1066.23 549.463
246 0 65.0821 13.4138 873 61.9633 1066.08 548.785
247 0 66.1229 12.9154 854 63.1628 1066.21 545.882
248 0 70.0849 13.5978 953 61.618 1065.73 545.062
249 0 70.0814 13.6698 958 62.0303 1065.63 544.919
250 0 74.0671 12.8667 953 62.8982 1065.96 543.275
251 0 78.0669 12.2843 959 63.4672 1065.85 540.983
252 0 80.1138 12.7568 1022 62.1703 1066.14 540.147
253 0 82.0308 14.1776 1163 61.1058 1065.89 538.68
254 0 86.0766 12.1984 1050 62.9619 1065.9 539.696
255 1 46.0289 10.211 470 63.3574 1066.19 557.326
256 0 49.0677 11.0664 543 61.698 1065.64 557.738
257 0 53.0186 12.5616 666 60.1216 1065.78 555.371
258 0 52.0178 13.3992 697 60.0689 1065.97 554.971
259 0 53.0266 12.1071 642 61.3816 1065.73 555.939
260 0 54.0582 11.6541 630 62.9079 1065.34 554.383
261 0 55.0393 11.7734 648 62.4583 1065.57 555.715
262 0 60.0674 13.2185 794 60.1272 1065.63 553.501
263 0 60.1537 13.4821 811 60.8619 1065 552.308
264 0 61.116 14.3661 878 60.0661 1065.19 551.874
265 0 63.1383 13.0665 825 61.5758 1064.69 550.527
266 0 64.1434 13.4386 862 62.1578 1064.92 551.358
267 0 66.1017 12.9497 856 62.9439 1064.81 550.002
268 0 69.1198 12.4422 860 63.764 1064.63 548.726
269 0 71.091 13.7429 977 62.2497 1065.49 547.703
270 0 71.0966 13.981 994 62.9054 1065.17 545.515
271 0 71.0966 14.0232 997 156.208 1065.15 545.577
272 0 79.1863 14.649 1160 61.7534 1065.3 542.466
273 0 83.1363 14.4582 1202 61.9351 1065.55 540.263
274 0 84.0877 13.4384 1130 63.4531 1065.17 539.635
275 1 42.0208 12.1368 510 63.7451 1065.46 559.375
276 0 46.0073 11.2156 516 64.7616 1065.46 558.888
277 0 48.0927 11.0828 533 65.2645 1065.58 558.657
278 0 47.0285 12.1628 572 65.0175 1065.91 556.524
279 0 49.1092 12.5638 617 65.3485 1065.46 554.925
280 0 51.0975 12.075 617 65.2464 1066.02 555.361
281 0 55.1916 13.3535 737 63.0801 1066.3 553.982
282 0 52.1539 11.1209 580 67.7224 1066.63 553.969
283 0 56.1164 12.4741 700 65.1857 1066.29 553.063
284 0 59.0905 13.4032 792 64.6869 1066.69 550.866
285 0 61.0949 13.078 799 64.9149 1067.33 550.61
286 0 62.0594 13.5676 842 64.3789 1066.94 550.044
287 0 63.0825 13.9658 881 63.9342 1067.12 549.343
288 0 66.0612 14.2898 944 63.6663 1067.81 548.036
289 0 67.0922 13.3548 896 65.1875 1067.34 547.558
290 0 70.1134 13.9774 980 64.5939 1067.55 546.701
291 0 70.1923 13.0071 913 66.5531 1067.92 544.465
292 0 73.1339 13.4548 984 65.7165 1068.27 544.306
293 0 77.1361 14.429 1113 64.7808 1068.4 542.365
294 0 77.1086 13.2411 1021 66.6543 1068.39 541.664
295 0 80.1145 13.9176 1115 65.7265 1068.74 540.987
296 0 81.1597 13.5659 1101 67.2407 1068.28 537.834
297 0 85.3718 13.5173 1154 67.2244 1068.1 536.705
298 0 89.2219 14.4695 1291 65.6677 1068.58 535.427
299 0 92.2774 14.0446 1296 66.716 1068.6 531.769
300 1 52.193 10.7486 561 69.0553 1069.28 550.795
301 0 52.1477 10.0676 525 69.5676 1069.2 552.421
302 0 56.1648 12.5524 705 67.7475 1069.49 549.433
303 0 58.209 12.1115 705 68.3121 1070.18 549.923
304 0 59.1361 12.987 768 68.1732 1070.2 547.828
305 0 62.1091 12.8001 795 67.7811 1069.95 546.696
306 0 64.221 12.2857 789 68.7757 1069.87 546.388
307 0 66.111 12.721 841 68.3258 1070.05 544.831
308 0 68.0849 13.0425 888 67.5563 1070.1 544.4
309 0 67.1002 12.1907 818 69.8056 1069.89 542.535
310 0 71.1933 12.6978 904 68.4513 1069.47 542.067
311 0 75.1725 13.0766 983 67.6653 1070.17 540.193
312 0 75.1725 13.1298 987 165.84 1070.17 540.257
313 0 78.1251 12.1472 949 69.0379 1070.81 538.599
314 1 41.2673 9.54752 394 66.2157 1071.04 558.038
315 0 42.1209 10.0188 422 65.0877 1071.13 558.474
316 0 44.1603 10.2354 452 66.1283 1070.16 555.905
317 0 46.1876 10.8687 502 65.9243 1070.25 554.151
318 0 48.1536 12.4601 600 62.695 1069.97 554.842
319 0 48.1223 12.4474 599 63.7429 1070.18 552.888
320 0 48.1965 11.1211 536 65.8713 1069.73 553.836
321 0 53.167 13.5422 720 62.4458 1069.14 552.456
322 0 51.203 11.0931 568 66.8785 1068.98 551.077
323 0 54.2197 12.0251 652 64.7776 1068.91 551.894
324 0 55.1513 11.8764 655 65.2351 1069.01 550.548
325 0 55.1204 12.4999 689 64.7329 1069.61 549.975
326 0 58.1814 11.8938 692 65.2558 1069.46 548.91
327 0 59.2089 12.1266 718 64.7953 1069.41 548.96
328 0 62.1609 13.1755 819 63.464 1069.43 546.383
329 0 66.1548 13.3777 885 62.1695 1069.1 546.405
330 0 64.1522 12.4392 798 64.3634 1068.6 544.207
331 0 68.1503 13.5583 924 62.3766 1069.07 543.887
332 0 69.0878 12.9545 895 62.962 1068.48 543.199
333 0 72.0682 12.6547 912 63.409 1068.07 540.223
334 0 77.1472 12.69 979 62.4883 1068 539.941
335 0 77.0459 13.3427 1028 61.8512 1067.67 538.5
336 0 78.0718 12.8215 1001 62.3736 1067.75 538.225
337 1 39.0566 9.19179 359 61.7716 1068.09 559.883
338 0 40.074 11.354 455 60.1209 1067.86 557.936
339 0 43.077 11.4446 493 59.5274 1067.94 556.72
340 0 44.062 13.2768 585 57.988 1067.9 555.79
341 0 44.0189 11.6995 515 60.3184 1067.73 555.75
342 0 46.2239 12.526 579 59.0276 1067.43 554.984
343 0 48.2239 11.0734 534 59.8708 1067.21 556.594
344 0 49.2385 12.4902 615 59.8195 1067.05 554.226
345 0 49.2 12.9471 637 59.6013 1066.64 553.336
346 0 51.1457 13.0216 666 58.7718 1066.63 553.548
347 0 53.1275 11.5947 616 60.3994 1067.03 552.205
348 0 54.1663 11.8339 641 60.2075 1066.94 553.14
349 0 56.1981 12.5805 707 59.0184 1066.09 552.291
350 0 56.1297 12.7384 715 59.6252 1066.27 551.706
351 0 60.2114 14.2166 856 57.4883 1065.44 549.165
352 0 60.167 12.2492 737 59.5265 1065.55 550.742
353 0 65.0988 13.2568 863 58.2908 1065.14 548.404
354 0 65.113 12.8239 835 58.8898 1064.2 548.303
355 0 65.113 12.8085 834 149.191 1062.21 548.327
356 0 71.1189 12.9783 923 58.1679 1064.75 547.998
357 0 71.1633 12.5064 890 59.3584 1064.9 545.522
358 0 74.0891 13.1733 976 58.5318 1064.98 544.655
359 0 77.1633 12.817 989 58.7846 1065.46 543.118
360 1 45.1168 10.8385 489 58.2434 1066.2 559.468
361 0 44.0726 10.9819 484 59.0785 1065.47 557.981
362 0 44.1056 11.6085 512 59.3086 1066.38 557.352
363 0 45.0561 10.5646 476 59.3046 1066.78 558.391
364 0 50.0891 12.2781 615 56.8846 1067.12 555.919
365 0 51.0954 13.191 674 56.3027 1067.09 555.754
366 0 52.1407 11.9868 625 58.3072 1066.28 555.496
367 0 53.159 12.3592 657 58.1096 1066.28 555.437
368 0 54.2125 11.6025 629 58.4118 1066.4 555.498
369 0 57.1537 13.5249 773 56.2083 1066.57 553.396
370 0 57.2193 12.5657 719 57.8192 1066.82 552.232
371 0 61.206 13.1523 805 56.8696 1067.58 550.612
372 0 64.2311 13.5293 869 55.7699 1067.57 549.818
373 0 65.2773 13.2512 865 56.7711 1067.01 546.193
374 0 68.2839 13.6196 930 56.086 1067.09 545.776
375 0 68.1357 13.1796 898 56.3085 1067.5 546.987
376 0 72.2187 12.7945 924 56.5108 1067.53 544.22
377 0 74.2301 12.4478 924 56.3442 1068.32 543.773
378 0 75.1433 12.8554 966 56.059 1068.53 543.622
379 0 73.1484 11.5929 848 147.037 1069.56 541.864
380 0 79.2153 11.3109 896 57.8092 1068.65 540.923
381 0 83.2128 13.5436 1127 55.6469 1069.21 537.295
382 1 46.303 11.6407 539 55.7811 1069.25 557.924
383 0 45.3156 10.5924 480 57.4104 1069.3 555.131
384 0 47.258 12.1461 574 55.3223 1069.6 554.704
385 0 48.136 10.8027 520 57.4442 1069.85 554.085
386 0 50.1391 13.0637 655 54.855 1069.7 552.365
387 0 53.1976 12.1622 647 55.051 1069.93 553.499
388 0 54.2321 12.594 683 54.9985 1070.08 553.389
389 0 56.1903 11.7636 661 56.1694 1070.41 551.017
390 0 59.235 12.29 728 55.2102 1070.13 550.57
391 0 61.2894 11.4865 704 55.3736 1070.2 549.385
392 0 62.1418 13.5818 844 53.9159 1070.83 547.431
393 0 62.1233 12.9098 802 55.0935 1070.83 544.385
394 0 62.1233 12.8776 800 136.704 1070.83 544.365
395 0 69.1491 11.9741 828 55.8877 1070.66 541.758
396 0 72.1914 12.4115 896 55.6518 1070.56 539.406
397 0 75.1778 11.546 868 56.0783 1070.46 540.493
398 0 79.2387 13.92 1103 53.204 1070.62 538.772
399 0 84.2065 11.6143 978 55.1922 1070.57 539.392
400 0 82.2068 12.2983 1011 55.0376 1070.53 536.452
401 1 43.1548 9.2226 398 56.2487 1071.29 556.46
402 0 47.1463 10.8386 511 54.6223 1071.08 557.037
403 0 46.2115 11.5123 532 55.047 1070.87 553.949
404 0 48.2708 11.2698 544 55.6673 1070.76 551.748
405 0 51.2023 10.9956 563 55.7353 1070.66 553.892
406 0 52.1561 12.4434 649 54.7381 1070.85 553.045
407 0 54.2204 11.7483 637 55.5385 1070.99 552.876
408 0 55.206 12.9153 713 55.4025 1070.8 549.066
409 0 57.2601 12.4869 715 55.6615 1071.04 547.208
410 0 57.2183 13.0727 748 55.373 1070.89 548.877
411 0 57.1298 11.6752 667 57.1124 1070.72 549.103
412 0 62.1594 14.125 878 53.9282 1070.94 547.38
413 0 62.2017 12.4595 775 56.5316 1070.19 546.328
414 0 64.1462 13.438 862 55.6659 1069.94 543.619
415 0 66.0843 11.9544 790 57.2203 1070.54 545.657
416 0 68.1338 12.4314 847 57.2113 1069.71 544.789
417 0 69.1189 12.1819 842 58.1686 1069.37 542.486
418 0 73.1181 12.4183 908 57.4626 1069.13 541.133
419 0 77.1186 12.0075 926 57.3834 1068.74 539.968
420 0 79.2865 13.6089 1079 56.0417 1068.94 538.024
421 0 83.1299 13.4729 1120 55.8563 1068.56 537.786
422 0 83.2671 13.3306 1110 56.6874 1068.19 537.148
423 0 85.1329 12.9915 1106 56.7911 1068.46 534.912
424 0 89.1124 12.6469 1127 56.9361 1068.81 537.463
425 0 93.1869 12.2335 1140 57.4526 1068.69 534.09
426 0 95.145 13.285 1264 56.7555 1068.3 533.371
427 0 97.2372 12.0016 1167 58.2648 1067.94 529.969
428 0 102.438 12.9346 1325 57.08 1067.4 529.465
429 1 55.5332 12.371 687 57.3421 1067.97 550.687
430 0 57.1958 12.3436 706 57.3867 1067.8 550.86
431 0 64.1895 11.0143 707 57.8628 1067.71 550.963
432 0 61.2004 12.0751 739 57.659 1066.7 546.696
433 0 63.2632 12.2346 774 58.1072 1066.89 545.067
434 0 65.1743 12.7504 831 56.8159 1066.44 547.576
435 0 69.1878 14.0776 974 55.5092 1066.7 545.133
436 0 69.1171 12.6886 877 57.7115 1066.29 541.456
437 0 72.2375 14.037 1014 55.6361 1066.05 541.884
438 0 73.2391 13.4355 984 57.0132 1066.32 541.714
439 0 74.2536 13.3731 993 57.4159 1066.5 541.216
440 0 78.2549 15.13 1184 55.1149 1066.01 540.436
441 0 78.1709 11.7051 915 58.8 1066.29 541.753
442 0 83.1464 13.5063 1123 56.6438 1066.7 539.378
443 0 86.3074 12.722 1098 57.3188 1066.48 537.903
444 0 89.14 13.6751 1219 56.4996 1067.01 535.643
445 0 94.2164 13.2461 1248 56.6546 1066.85 535.853
446 0 94.2095 14.6482 1380 55.9978 1066.81 526.142
447 1 50.2429 10.708 538 57.119 1066.4 551
448 0 51.135 10.971 561 57.4599 1066.63 550.699
449 0 52.1263 11.4338 596 58.5638 1067.15 546.413
450 0 54.0651 13.0213 704 56.9986 1066.7 546.526
451 0 55.1218 12.3363 680 57.7353 1067.08 546.138
452 0 57.1175 11.9753 684 57.4401 1067.23 542.962
453 0 60.1179 12.4256 747 56.407 1067.85 544.466
454 0 61.1202 12.5818 769 56.6632 1067.85 544.854
455 0 63.2137 12.9086 816 56.6544 1067.72 545.349
456 0 65.1156 13.8369 901 55.2042 1066.99 543.949
457 0 69.1507 13.5935 940 55.1245 1067.52 544.548
458 0 69.2632 13.3404 924 55.9048 1066.91 544.794
459 0 73.0932 13.1339 960 55.9177 1067.2 544.873
460 0 73.1757 13.2284 968 56.1271 1067.1 543.565
461 0 76.3907 12.8288 980 56.348 1066.98 542.663
462 0 80.2652 13.4429 1079 55.7053 1066.87 537.506
463 0 82.2599 11.9621 984 57.2276 1066.46 536.052
464 0 86.1699 13.6707 1178 55.2216 1066.29 536.12
465 0 88.2366 12.7498 1125 56.7004 1066.66 536.904
466 0 93.193 12.619 1176 56.5298 1066.94 534.338
467 0 95.2576 12.5869 1199 56.5746 1066.75 533.238
468 1 48.0498 11.051 531 57.3804 1066.76 555.678
469 0 52.0418 11.5484 601 55.604 1067.17 556.792
470 0 54.1258 11.695 633 55.049 1067.37 553.412
471 0 55.1036 13.3748 737 54.3853 1066.87 552.613
472 0 57.2705 13.0608 748 53.8757 1067.03 551.75
473 0 59.1949 13.8694 821 53.3983 1066.76 550.234
474 0 60.1542 12.8004 770 54.5195 1067.03 550.249
475 0 63.1948 12.7542 806 54.0223 1067.05 548.98
476 0 64.2379 13.3877 860 53.6198 1067.08 550.271
477 0 66.1444 12.9716 858 54.1317 1066.94 548.174
478 0 68.1685 12.1904 831 55.1191 1067.53 547.645
479 0 71.1597 13.3221 948 54.0327 1067.6 546.617
480 0 76.2302 13.0001 991 53.9556 1067.13 545.4
481 0 76.2026 14.2777 1088 53.5983 1067.43 545.969
482 0 77.1857 13.6554 1054 55.3321 1066.68 540.52
483 0 79.2382 13.5036 1070 55.9879 1066.92 539.664
484 0 82.2843 12.6148 1038 57.1166 1066.64 540.518
485 0 85.2614 14.004 1194 55.7856 1067.18 538.875
486 0 89.3338 13.5223 1208 56.5488 1067.04 537.938
487 0 91.2646 13.2362 1208 56.9172 1067.33 537.074
488 0 94.2444 13.8788 1308 56.8731 1067.33 533.823
489 1 49.1388 11.0096 541 57.1978 1067.9 557.712
490 0 51.1586 11.7282 600 57.3167 1067.75 555.833
491 0 52.2188 11.8923 621 56.7568 1067.71 557.121
492 0 55.1221 13.4066 739 55.5548 1068.46 553.713
493 0 58.2076 12.6959 739 56.3627 1068.34 552.889
494 0 58.1166 12.2857 714 57.2129 1069.25 552.363
495 0 60.0827 12.333 741 57.4426 1069.11 552.161
496 0 63.1565 12.7778 807 56.7559 1068.45 550.534
497 0 64.071 13.5319 867 56.2918 1068.8 547.819
498 0 64.1318 12.8018 821 57.9428 1068.61 545.96
499 0 67.1187 12.1874 818 57.7579 1068.29 548.045
500 0 69.1876 13.1815 912 56.9101 1068.24 545.888
501 0 72.1852 13.8117 997 56.0331 1068.12 543.753
502 0 74.155 12.9324 959 57.0991 1068.42 541.69
503 0 77.085 12.5316 966 57.5476 1068.58 540.697
504 0 81.0986 12.2074 990 57.2414 1068.75 542.824
505 1 46.0717 10.8309 499 55.8277 1068.88 559.088
506 0 43.0615 9.14971 394 58.3452 1068.93 558.635
507 0 44.1009 10.2946 454 57.2797 1068.89 556.866
508 0 49.0991 11.487 564 55.6809 1069.05 556.635
509 0 50.1044 12.6137 632 54.6203 1068.16 555.111
510 0 52.1965 12.4721 651 55.3164 1068.1 553.418
511 0 53.3263 12.9392 690 54.3739 1068.33 555.181
512 0 55.2539 11.963 661 56.2133 1068.18 551.688
513 0 56.1665 12.6054 708 56.2429 1068.76 551.377
514 0 56.1922 12.2971 691 56.5311 1068.63 550.858
515 0 59.1381 12.4454 736 56.1128 1068.41 550.696
516 0 60.1623 11.5687 696 57.5718 1068.42 548.757
517 0 63.1478 12.9221 816 54.6998 1068.36 548.661
518 0 65.1546 12.0636 786 55.6361 1068.79 547.8
519 0 66.144 13.0775 865 54.785 1068.98 546.223
520 0 69.2394 13.7205 950 53.8895 1069.46 544.5
521 0 70.1283 12.6625 888 55.0101 1068.93 544.72
522 0 71.2795 12.5141 892 55.5101 1069.06 544.09
523 0 74.2116 13.1516 976 55.377 1069.2 541.447
524 0 78.1087 13.6605 1067 54.3758 1068.9 541.366
525 0 78.1602 12.2569 958 56.6127 1068.92 541.613
526 0 81.1588 13.1347 1066 56.0544 1069.14 539.111
527 0 87.1967 14.4616 1261 54.2236 1068.44 536.657
528 0 87.2558 13.2255 1154 55.6421 1068.83 535.614
529 0 91.1043 13.6766 1246 55.1589 1068.89 531.693
530 0 91.1043 13.6766 1246 154.833 1068.9 531.704
531 1 51.0675 11.0834 566 56.0848 1068.02 552.788
532 0 51.0732 9.53533 487 56.4353 1068.26 554.567
533 0 54.0762 11.8351 640 54.7 1068.86 551.497
534 0 53.093 10.378 551 55.3176 1069.32 551.546
535 0 59.0984 11.8954 703 54.7482 1069.02 550.125
536 0 60.1245 12.2579 737 55.2863 1069.51 548.984
537 0 61.15 12.2486 749 55.2283 1069 547.781
538 0 63.1081 13.1203 828 54.3527 1069.03 545.159
539 0 64.128 12.9117 828 54.8611 1068.64 544.675
540 0 68.1617 12.6757 864 54.7419 1068.31 543.541
541 0 70.1766 13.352 937 54.6382 1068.17 543.451
542 0 71.048 14.075 1000 54.634 1068.13 541.355
543 0 73.2488 13.6657 1001 55.4296 1067.76 540.642
544 0 73.2493 12.3551 905 57.368 1067.71 540.607
545 0 78.1821 12.65 989 56.6633 1068 537.936
546 0 79.1615 13.2135 1046 56.3021 1067.83 537.149
547 0 84.3581 14.2132 1199 54.8315 1067.83 536.884
548 0 85.4513 13.3409 1140 55.9158 1067.66 534.266
549 0 88.2179 14.6456 1292 54.6943 1067.62 531.133
550 0 93.0858 15.0506 1401 54.1663 1067.86 531.522
551 0 91.2032 13.8811 1266 56.485 1068.15 531.005
552 0 96.2913 12.9607 1248 57.1042 1067.64 530.321
553 1 48.1409 9.5345 459 58.8105 1068.15 553.813
554 0 51.0442 11.7545 600 57.4867 1068.84 551.725
555 0 54.0216 12.0878 653 56.6263 1068.4 551.683
556 0 56.1568 12.8747 723 55.9793 1068.47 549.535
557 0 58.1766 12.3933 721 56.7004 1067.4 551.16
558 0 59.0404 11.9071 703 57.9104 1067.71 548.687
559 0 62.2464 13.318 829 56.4958 1067.52 546.796
560 0 64.1699 13.4331 862 56.529 1067.84 547.289
561 0 68.251 13.509 922 56.4664 1067.99 546.104
562 0 69.1547 13.853 958 56.1253 1068.17 544.787
563 0 69.1652 12.7954 885 58.0294 1067.42 545.959
564 0 72.1617 13.2203 954 58.196 1067.69 543.364
565 0 73.0705 13.6033 994 58.1107 1067.66 541.857
566 0 76.2117 15.7981 1204 55.6769 1067.51 540.846
567 0 77.2271 12.0424 930 60.5108 1067.9 541.446
568 0 80.1663 13.4221 1076 59.5994 1067.9 537.192
569 0 83.2382 13.9119 1158 58.6788 1067.78 535.62
570 0 87.2031 13.6348 1189 58.9706 1067.66 534.708
571 1 45.119 11.924 538 60.2138 1067.87 553.721
572 0 50.2575 10.8043 543 60.0295 1067.56 554.442
573 0 52.1353 9.64797 503 59.3241 1066.91 557.402
574 0 52.1661 11.5017 600 58.9767 1067.02 553.613
575 0 54.1573 11.2819 611 59.3372 1066.9 551.664
576 0 55.2343 13.3613 738 58.5163 1066.6 549.64
577 0 57.1987 12.6052 721 58.8363 1067.07 552.219
578 0 60.122 13.9882 841 57.2247 1066.39 550.776
579 0 60.1836 13.6914 824 58.4915 1066.32 548.573
580 0 61.2147 11.7946 722 61.1939 1066.13 549.328
581 0 63.184 12.1866 770 60.4792 1065.85 548.612
582 0 68.099 13.6419 929 58.6588 1065.77 546.042
583 0 70.1881 13.7203 963 58.8847 1065.57 545.617
584 0 69.2815 12.6729 878 60.5296 1065.68 545.1
585 0 74.2016 13.8676 1029 58.7017 1065.77 544.505
586 0 76.384 14.5056 1108 58.3917 1065.01 541.226
587 0 77.1903 14.3412 1107 59.393 1065.58 539.44
588 0 81.3616 14.6629 1193 59.2624 1065.16 539.107
589 0 82.1424 13.5983 1117 60.9902 1065.16 537.423
590 0 86.2102 13.3047 1147 61.1595 1065.16 539.861
591 0 90.3432 13.9357 1259 60.0675 1065.5 535.6
592 0 91.3993 14.1905 1297 60.229 1065.54 535.956
593 0 95.2924 13.5478 1291 60.8854 1064.97 534.581
594 0 99.3318 14.517 1442 58.9924 1065.4 533.239
595 0 102.267 14.2079 1453 59.0454 1065.18 529.121
596 0 105.183 13.8711 1459 58.8328 1065.02 529.223
597 0 109.33 14.7261 1610 57.6025 1064.96 527.341
598 0 112.302 14.8617 1669 56.8029 1065.35 528.188
599 0 116.152 13.8181 1605 58.5925 1064.98 522.127
600 0 121.092 15.0959 1828 57.1138 1064.5 522.351
601 1 65.1112 10.7969 703 57.6856 1064.66 550.083
602 0 67.2589 13.2771 893 56.0504 1065.01 548.174
603 0 70.0304 13.3085 932 55.2328 1064.23 548.442
604 0 70.2201 12.8453 902 55.5355 1064.09 547.366
605 0 72.0737 13.6249 982 54.9022 1064.41 544.578
606 0 75.2192 13.7332 1033 54.3766 1064.27 543.105
607 0 78.2312 12.6292 988 56.502 1064.99 543.021
608 0 80.1353 13.1527 1054 57.1101 1064.89 540.173
609 0 84.2312 12.8337 1081 57.79 1065.63 542.406
610 0 85.2715 12.2784 1047 59.3228 1065.7 541.269
611 0 89.1565 12.8762 1148 58.7474 1065.45 538.111
612 0 90.1688 13.6965 1235 58.6065 1065.51 536.511
613 0 95.1019 14.2689 1357 58.1061 1065.08 535.65
614 0 96.0937 13.6325 1310 59.8076 1065.37 532.871
615 0 99.2191 13.7675 1366 59.3441 1065.05 530.242
616 0 103.253 13.7816 1423 59.7667 1064.95 530.38
617 1 57.183 10.755 615 59.8439 1064.58 552.229
618 0 58.1555 11.5896 674 59.681 1065.32 551.975
619 0 61.2324 12.4444 762 57.832 1065.74 551.391
620 0 61.1186 11.7804 720 58.4583 1065.67 551.176
621 0 64.1254 13.2397 849 56.7479 1065.92 549.17
622 0 64.075 12.1108 776 59.0374 1065.31 548.256
623 0 69.2544 12.7068 880 57.0375 1065.92 548.369
624 0 72.3158 13.0815 946 56.852 1065.97 546.997
625 0 73.1722 13.3657 978 57.1033 1065.92 543.945
626 0 75.21 13.3759 1006 57.3131 1065.86 543.265
627 0 77.2748 13.2514 1024 58.0566 1065.83 542.406
628 0 81.2518 14.5227 1180 56.4034 1065.71 541.892
629 0 83.1007 14.3079 1189 57.5063 1065.98 538.796
630 0 85.1238 13.404 1141 57.7117 1065.7 537.932
631 0 90.2351 13.3429 1204 56.9111 1065.6 535.527
632 1 50.0361 11.092 555 55.7604 1065.96 557.532
633 0 49.103 9.73463 478 57.6674 1066.39 556.856
634 0 54.0493 11.0455 597 55.5595 1066.05 554.541
635 0 54.1689 11.7041 634 55.8438 1066.22 551.856
636 0 57.1172 12.5707 718 53.7939 1066.53 555.043
637 0 57.265 11.5603 662 55.9562 1067.35 550.527
638 0 60.0948 12.8297 771 53.9274 1066.87 550.366
639 0 62.0794 12.7578 792 53.779 1066.51 549.245
640 0 61.1563 10.6776 653 55.9939 1066.48 549.008
641 0 69.1125 13.3116 920 52.3152 1067.02 547.443
642 0 67.1279 12.1857 818 54.3729 1067.33 545.971
643 0 69.0681 12.1185 837 54.7431 1067.36 546.403
644 0 73.2454 13.052 956 53.3525 1067.3 544.031
645 0 76.2077 13.5026 1029 53.1263 1067.12 542.59
646 0 77.1072 12.8004 987 53.8227 1067.01 542.382
647 0 80.1463 14.2739 1144 52.799 1066.99 538.563
648 0 82.2555 12.7529 1049 54.2707 1066.9 539.408
649 0 86.3806 13.892 1200 52.9158 1066.75 538.736
650 1 46.1852 9.11548 421 55.5867 1066.59 557.729
651 0 49.1136 10.3026 506 54.8913 1067.43 556.043
652 0 49.1096 10.894 535 54.957 1067.97 555.202
653 0 52.2411 12.0786 631 53.8479 1068.05 553.49
654 0 51.0546 10.4202 532 54.8496 1068.88 551.878
655 0 53.1005 11.4312 607 53.6161 1068.6 551.036
656 0 56.0893 12.2661 688 54.4564 1068.34 549.688
657 0 58.1331 11.9553 695 54.5353 1068.92 548.873
658 0 61.1902 12.2078 747 53.5556 1068.59 548.981
659 0 60.0498 11.6237 698 55.0415 1068.77 546.302
660 0 65.1315 13.0198 848 53.8337 1068.62 544.882
661 0 62.191 11.529 717 55.6709 1068.31 546.344
662 0 68.0718 11.8404 806 54.706 1069.17 545.408
663 0 70.0852 13.9116 975 53.7077 1069.39 541.416
664 0 72.1588 11.835 854 55.3384 1069.65 541.45
665 0 74.2208 11.5466 857 55.5204 1069.38 541.126
666 0 78.0877 12.6909 991 54.9495 1069.67 540.378
667 0 80.1785 11.8735 952 55.9485 1069.61 538.575
668 0 82.1307 11.6643 958 56.2766 1069.63 535.667
669 0 85.1569 13.6219 1160 54.6466 1070.02 534.296
670 0 86.1389 12.1432 1046 56.8413 1069.45 533.315
671 0 91.2166 12.7499 1163 55.1513 1069.79 534.518
672 0 92.1796 11.3583 1047 56.2025 1069 531.282
673 0 95.4013 12.9139 1232 55.6786 1069.03 529.032
674 1 54.185 12.2728 665 55.4767 1070.09 548.713
675 0 53.2184 13.5667 722 53.9321 1070.88 550.453
676 0 57.075 13.8064 788 53.7525 1070.99 547.331
677 0 57.1561 11.3374 648 56.7531 1070.8 548.614
678 0 60.1618 13.2476 797 54.7917 1071.01 546.693
679 0 63.192 12.4858 789 55.2624 1070.54 547.27
680 0 62.1176 12.2349 760 56.2158 1071.49 545.696
681 0 66.1848 13.5681 898 54.5045 1071.16 544.832
682 0 71.2282 14.3202 1020 52.4657 1070.53 540.825
683 0 70.2185 12.8029 899 55.0311 1070.86 542.207
684 0 69.1826 13.0669 904 57.7478 1070.82 539.142
685 0 71.184 13.0226 927 58.1036 1070.7 538.728
686 0 75.1115 13.9127 1045 55.5215 1070.22 540.424
687 0 77.1584 12.2605 946 57.7252 1069.93 537.968
688 1 38.0679 10.1135 385 58.4987 1071.12 557.901
689 0 41.1436 10.6213 437 57.4233 1071.13 557.227
690 0 42.1696 10.7898 455 57.6659 1071.31 554.912
691 0 42.1338 11.7245 494 57.4737 1070.68 550.642
692 0 43.164 12.997 561 55.4777 1071.57 553.102
693 0 46.1437 12.3311 569 56.6643 1070.75 553.496
694 0 47.2851 12.0545 570 57.993 1070.9 553.284
695 0 47.1571 13.0203 614 57.6906 1070.26 551.005
696 0 49.1409 13.329 655 57.7344 1070.27 550.852
697 0 52.1733 13.7235 716 56.8254 1070.4 552.559
698 0 54.1772 14.2311 771 56.3463 1069.56 549.879
699 0 54.2649 12.5864 683 58.8433 1069.71 550.029
700 0 55.1522 13.1998 728 57.0192 1069.46 549.287
701 0 57.1638 12.6304 722 58.144 1069.38 546.63
702 0 59.1613 13.0998 775 57.809 1068.83 546.876
703 0 60.192 13.4403 809 57.9382 1068.35 545.833
704 0 63.0727 13.7143 865 57.9549 1069.16 546.067
705 0 62.1063 12.3659 768 60.112 1069.15 545.564
706 0 62.1063 12.3659 768 167.448 1069.15 545.564
707 0 67.1555 13.4166 901 59.1432 1068.49 543.659
708 0 68.1813 13.3174 908 58.7115 1068.67 544.238
709 0 72.1436 13.1405 948 58.2036 1068.9 539.994
710 0 71.1614 12.3803 881 59.8479 1068.25 538.365
711 0 77.1075 15.7832 1217 55.1545 1068.18 537.754
712 0 78.1637 14.1242 1104 57.2129 1067.64 537.486
713 1 39.1274 9.6863 379 58.4195 1068.68 558.153
714 0 41.0398 11.0868 455 57.2132 1068 558.305
715 0 44.03 10.1294 446 57.6771 1068.53 556.61
716 0 42.069 12.3844 521 58.0058 1066.48 548.056
717 0 46.0392 12.7934 589 57.3871 1066.46 551.789
718 0 47.1459 12.3446 582 57.4055 1067.12 555.184
719 0 47.0732 12.5124 589 56.961 1067.33 555.328
720 0 48.1622 13.2677 639 55.9014 1067.04 553.781
721 0 50.0852 13.3772 670 56.2851 1066.89 553.203
722 0 52.2214 13.347 697 55.4849 1066.78 554.482
723 0 51.0887 14.2302 727 55.4732 1067 554.389
724 0 55.1402 14.0913 777 54.2317 1066.62 552.174
725 0 55.0788 12.582 693 57.3911 1066.41 551.183
726 0 55.0925 13.0689 720 56.1486 1066.18 550.774
727 0 57.0698 13.1593 751 56.2943 1066.01 548.84
728 0 59.1461 12.9003 763 56.5727 1066.05 549
729 0 61.1114 14.0072 856 54.4369 1066.14 547.165
730 0 66.1573 15.4783 1024 51.502 1065.83 549.88
731 0 67.1571 13.595 913 53.8379 1065.28 546.79
732 0 68.0789 13.9103 947 53.2218 1066.12 548.082
733 0 75.103 11.5308 866 54.4596 1066.05 547.717
734 0 77.0623 14.8451 1144 51.5787 1066.5 546.983
735 0 73.0786 12.6987 928 54.7834 1065.69 542.985
736 0 75.3077 13.3452 1005 54.1095 1065.82 544.31
737 0 79.2332 11.3967 903 55.8283 1065.97 541.92
738 0 83.2355 11.2332 935 56.0321 1065.6 540.755
739 0 86.1818 14.7363 1270 52.5362 1065.55 538.983
740 1 44.1678 10.3469 457 54.7921 1066.18 558.392
741 0 48.349 11.3963 551 53.2849 1066.36 559.352
742 0 48.0752 11.9188 573 54.562 1065.87 555.705
743 0 48.1741 10.5036 506 55.8577 1065.8 556.686
744 0 52.3194 11.9267 624 54.2564 1065 556.426
745 0 51.1527 12.3552 632 54.3782 1064.82 556.464
746 0 56.2488 12.1958 686 54.0029 1064.65 555.318
747 0 58.1221 13.0071 756 53.4405 1064.62 554.731
748 0 57.0675 11.6529 665 55.3308 1064.97 551.299
749 0 60.2516 12.5806 758 54.0515 1064.06 552.677
750 0 58.2473 11.7774 686 55.4111 1063.94 552.78
751 0 64.3999 12.6398 814 54.3575 1063.81 550.146
752 0 65.2188 13.0637 852 54.6174 1064.11 550.577
753 0 67.2328 13.2078 888 56.1441 1064.03 548.57
754 0 71.0808 12.7883 909 55.6546 1064.21 549.307
755 0 73.3241 12.9834 952 55.4716 1064.34 549.082
756 0 75.2981 14.4492 1088 54.4228 1064.25 547.496
757 0 77.3457 12.6962 982 56.331 1063.67 546.046
758 0 81.2274 12.5573 1020 56.2059 1063.34 545.108
759 0 84.1853 15.2046 1280 53.7203 1063.74 543.32
760 1 44.0919 12.1338 535 55.5944 1063.75 561.916
761 0 46.1648 10.3975 480 56.8917 1063.8 560.869
762 0 48.1276 11.1163 535 57.4654 1063.54 560.15
763 0 50.0415 11.7303 587 57.1789 1063.98 560.094
764 0 52.0822 13.4211 699 55.7639 1064.17 560.064
765 0 51.0869 12.4494 636 57.9355 1064.53 557.291
766 0 55.1236 13.7146 756 55.9365 1063.87 558.083
767 0 58.1888 12.6141 734 56.5858 1064.49 556.911
768 0 58.048 13.3166 773 56.8409 1064.05 555.907
769 0 59.2347 13.6575 809 56.5859 1063.69 553.713
770 0 59.2345 12.8135 759 57.7668 1063.28 554.908
771 0 62.3604 13.0211 812 57.0887 1063.52 554.345
772 0 64.3856 12.9532 834 57.3753 1063.2 552.319
773 0 67.1475 14.7883 993 54.7412 1063.52 553.761
774 0 67.345 12.5176 843 57.5718 1063.05 551.435
775 0 72.3694 13.1824 954 55.4843 1063.21 551.656
776 0 74.407 13.2783 988 55.7895 1062.93 549.772
777 1 38.2152 10.5455 403 57.3002 1063.26 565.464
778 0 43.3125 11.4978 498 54.8474 1063.53 565.53
779 0 42.2275 11.367 480 55.9042 1063.78 564.581
780 0 43.1741 10.8398 468 56.6068 1063.96 563.382
781 0 44.1039 12.3572 545 55.3798 1064.1 562.064
782 0 44.1949 11.3135 500 57.194 1064.31 562.528
783 0 47.3754 11.9471 566 56.03 1064.16 561.037
784 0 51.3273 12.6249 648 55.0046 1064.3 561.012
785 0 52.2251 12.6759 662 55.858 1064.72 559.281
786 0 53.2075 12.6298 672 55.9092 1064.98 559.305
787 0 55.3143 12.5646 695 55.4835 1065.07 556.963
788 0 55.223 11.3721 628 57.4427 1065.15 556.713
789 0 56.1007 12.4419 698 56.7865 1064.97 554.109
790 0 59.1815 13.1122 776 55.8518 1065.16 553.854
791 0 61.1657 13.7332 840 55.1893 1065.64 552.846
792 0 62.0994 13.6555 848 55.9776 1065.98 550.066
793 0 64.1913 13.709 880 55.8227 1065.91 550.047
794 0 66.2435 12.5899 834 56.8753 1065.7 547.457
795 0 68.2294 12.839 876 55.8413 1065.65 549.046
796 0 69.1974 12.9629 897 56.6622 1066.47 545.57
797 0 73.1166 12.6784 927 55.657 1066.07 547.474
798 0 75.1238 13.2315 994 55.4235 1066.1 544.099
799 0 79.1351 13.3316 1055 55.0739 1066.68 542.383
800 0 80.135 11.9923 961 56.2164 1066.84 543.624
801 1 43.0984 9.95397 429 56.5431 1067.3 560.068
802 0 46.0405 11.4899 529 54.4972 1067.46 558.185
803 0 49.0243 11.4637 562 54.2847 1067.05 557.779
804 0 50.2202 12.724 639 54.0501 1066.75 554.23
805 0 52.2141 12.8126 669 54.5291 1066.66 553.942
806 0 55.093 12.5061 689 54.2482 1066.38 553.668
807 0 56.2567 14.4161 811 51.64 1066.35 552.332
808 0 57.2622 13.3072 762 52.9554 1066.82 550.845
809 0 59.2441 12.8789 763 52.6828 1066.61 553.198
810 0 62.11 13.7337 853 51.9015 1067.61 550.095
811 0 64.1139 13.1017 840 52.2583 1067.57 549.943
812 0 65.2294 13.5522 884 52.0995 1067.73 546.287
813 0 66.1207 12.7192 841 52.7753 1067.91 547.693
814 0 66.1879 12.1775 806 53.7134 1067.85 545.638
815 0 72.2481 13.8689 1002 50.6936 1067.83 545.646
816 0 73.0973 12.3671 904 52.2268 1068.07 543.579
817 0 76.1779 13.5341 1031 51.0941 1067.77 542.004
818 0 79.3425 14.3555 1139 50.2239 1067.92 542.015
819 0 79.1011 12.7811 1011 51.996 1068.32 539.587
820 0 83.0649 14.9762 1244 50.0997 1068.37 538.249
821 0 86.2253 14.6013 1259 50.56 1067.95 537.164
822 0 86.1761 12.6601 1091 52.0449 1067.97 537.28
823 0 91.1459 13.6923 1248 51.2708 1067.75 531.784
824 0 95.0953 14.3961 1369 50.3966 1067.95 533.356
825 0 96.1433 13.3655 1285 52.0374 1068.3 530.866
826 0 96.1077 10.8836 1046 54.3432 1068.08 532.223
827 1 50.0779 10.8231 542 52.3192 1068.04 555.705
828 0 53.1072 9.90449 526 53.6065 1068.28 552.831
829 0 52.1699 10.4466 545 53.6752 1068.22 551.761
830 0 57.1685 12.1745 696 52.217 1067.93 550.415
831 0 59.2 13.3615 791 50.9077 1067.15 548.101
832 0 61.1056 13.0594 798 51.3722 1067.05 548.34
833 0 61.1056 13.0757 799 134.79 1068.06 548.33
834 0 64.2235 12.4721 801 52.5993 1067.1 544.042
835 0 65.1451 11.9426 778 53.91 1066.42 544.722
836 0 67.2383 10.7379 722 53.9183 1066.6 545.88
837 0 71.2479 12.8004 912 52.2039 1066.55 544.447
838 0 72.1391 12.767 921 52.5972 1066.5 544.174
839 0 74.1357 12.3557 916 53.5022 1066.54 541.499
840 0 77.2171 13.0153 1005 53.1085 1066.59 539.236
841 0 79.2464 13.1993 1046 52.8308 1066.33 537.415
842 0 80.1827 12.5838 1009 53.8612 1066.08 536.272
843 0 86.29 13.0606 1127 53.0222 1066 534.695
844 0 87.199 12.9015 1125 53.2631 1066.87 534.5
845 0 92.259 12.8768 1188 53.4747 1066.34 534.903
846 0 94.2912 13.7659 1298 52.869 1066.19 533.832
847 1 49.1903 11.0794 545 53.8459 1066.34 555.048
848 0 50.2627 11.8577 596 54.1913 1066.67 554.242
849 0 53.0775 10.8521 576 54.1337 1066.48 555.325
850 0 54.1067 13.2701 718 53.1616 1066.75 552.935
851 0 55.1538 12.5286 691 54.0637 1066.56 554.291
852 0 56.1113 10.0515 564 57.094 1067.16 551.723
853 0 62.0963 12.2713 762 54.168 1067.26 549.951
854 0 64.2184 11.4297 734 54.8856 1066.78 548.444
855 0 65.114 12.9926 846 53.5225 1066.85 549.809
856 0 67.1829 13.0688 878 53.7107 1066.8 545.777
857 0 69.2106 12.9026 893 54.2912 1066.44 545.423
858 0 71.2017 12.9913 925 54.1622 1066.49 546.506
859 0 73.1695 13.2432 969 53.7792 1066.18 544.32
860 0 75.1792 13.1685 990 53.9737 1066.84 542
861 0 78.164 12.6273 987 54.8359 1066.71 542.174
862 0 80.0884 12.8983 1033 55.0958 1066.26 539.428
863 0 85.1336 13.7901 1174 54.0434 1066.28 539.945
864 0 88.1188 13.9811 1232 54.1104 1065.9 538.05
865 1 43.0723 11.4459 493 55.7546 1065.84 557.844
866 0 46.0357 11.3173 521 55.4242 1065.52 558.825
867 0 46.0384 12.5765 579 54.9568 1064.58 557.886
868 0 47.079 13.318 627 53.6045 1064.83 557.169
869 0 46.2503 10.9405 506 58.7885 1065.83 556.119
870 0 50.2765 13.4456 676 56.0355 1065.46 555.602
871 0 50.2377 12.0826 607 56.9951 1065.3 556.544
872 0 53.1492 14.9391 794 54.2834 1065.16 555.196
873 0 54.17 12.3316 668 56.9237 1065.68 554.984
874 0 56.2045 12.9171 726 56.6295 1065.68 552.366
875 0 57.1949 13.0956 749 56.3218 1065.07 552.397
876 0 56.0914 12.5153 702 57.7735 1064.8 553.12
877 0 61.1321 13.5608 829 56.0084 1065 551.563
878 0 63.2386 14.1053 892 55.0774 1065.58 548.716
879 0 65.1447 12.6334 823 57.0778 1065.19 550.125
880 0 68.1107 12.9936 885 57.1514 1065.12 547.991
881 0 69.1798 14.2238 984 55.4512 1065.37 547.802
882 0 70.1536 12.7007 891 57.3288 1065.07 546.388
883 0 75.0976 14.115 1060 55.3792 1065.71 546.645
884 0 75.0703 13.8137 1037 56.1022 1065.86 544.279
885 0 77.1922 13.9911 1080 55.9102 1065.69 542.208
886 0 80.1458 13.5129 1083 56.3878 1065.74 540.169
887 0 81.2229 12.0286 977 57.9632 1065.59 540.205
888 0 86.2422 13.091 1129 56.605 1065.39 537.831
889 0 90.226 13.2113 1192 56.6636 1065.32 534.825
890 0 90.1003 12.5416 1130 57.2779 1065.56 536.35
891 0 96.1617 14.2364 1369 54.3798 1065.69 532.907
892 0 100.314 14.2851 1433 61.2142 1065.15 529.546
893 0 103.337 13.8963 1436 55.6205 1066.09 530.08
894 0 105.404 13.5763 1431 53.2739 1066.57 527.797
895 0 111.414 14.4416 1609 52.1945 1067.13 526.001
896 0 113.365 14.5372 1648 52.3738 1066.93 523.306
897 0 113.226 12.2587 1388 54.4496 1067.39 526.31
898 0 113.167 12.6451 1431 54.3054 1067.12 524.107
899 1 58.1328 13.1595 765 52.2601 1067.15 548.788
900 0 64.1209 14.2855 916 50.6703 1067.67 547.735
901 0 64.0745 12.2514 785 53.0675 1067.56 547.255
902 0 67.0714 13.3589 896 51.6786 1067.98 545.084
903 0 67.1358 11.8268 794 52.8589 1067.42 545.188
904 0 68.1805 12.7162 867 52.7382 1067.25 543.411
905 0 70.1844 12.8804 904 53.2124 1066.72 542.215
906 0 73.1602 12.7528 933 53.1533 1067.2 540.792
907 0 75.2362 13.6636 1028 52.2179 1067.7 538.027
908 0 76.0984 12.8781 980 53.2878 1067.61 540.763
909 0 81.1389 14.6046 1185 51.6287 1068.22 538.137
910 0 80.2248 12.9386 1038 53.6551 1068.84 539.365
911 0 84.0708 13.0009 1093 53.645 1068.2 536.381
912 0 88.1914 13.0285 1149 53.8625 1068.6 535.077
913 0 90.1898 13.3607 1205 54.0988 1068.27 528.62
914 0 91.3552 13.0261 1190 55.1134 1068.15 527.569
915 0 95.3146 15.1393 1443 53.429 1068.78 523.601
916 0 97.2619 13.8903 1351 55.1762 1068.34 524.503
917 0 101.187 14.2409 1441 54.78 1068.71 524.777
918 0 104.221 13.1259 1368 56.0329 1068.95 527.621
919 0 106.21 14.2454 1513 55.2208 1069.22 527.862
920 0 111.107 14.0135 1557 56.0591 1069.31 520.453
921 0 115.389 14.2822 1648 55.8962 1069.12 518.488
922 0 118.262 13.4363 1589 56.7199 1069.52 518.475
923 1 65.058 11.0824 721 57.1859 1070.07 545.18
924 0 65.0636 12.2649 798 56.6541 1069.31 544.747
925 0 69.0357 12.8484 887 55.8038 1069.21 545.1
926 0 71.1788 12.1525 865 56.7861 1070.11 543.461
927 0 75.1291 13.2306 994 56.0402 1070.28 539.567
928 0 78.1294 13.0425 1019 56.2512 1070.15 540.764
929 0 81.1087 14.9799 1215 54.8313 1069.96 536.281
930 0 81.0868 12.5298 1016 57.8396 1070.1 536.813
931 0 87.1198 14.1185 1230 56.6846 1070.13 535.137
932 0 89.0996 14.871 1325 56.874 1069.81 533.44
933 0 89.0996 14.9047 1328 151.125 1069.81 533.426
934 0 95.0725 13.7369 1306 58.6761 1069.77 531.436
935 0 98.1301 14.8578 1458 57.3964 1069.68 529.207
936 0 101.154 14.1764 1434 58.1583 1069.3 530.58
937 0 104.066 14.4235 1501 58.1119 1069.46 528.095
938 0 104.121 13.8108 1438 58.7747 1069.39 527.986
939 0 111.066 15.6573 1739 56.7746 1069.97 522.905
940 0 115.181 14.1777 1633 58.0692 1069.54 524.274
941 0 118.203 13.6714 1616 58.5155 1069.57 523.495
942 0 123.223 14.6158 1801 57.4831 1069.07 520.282
943 0 127.101 14.6733 1865 57.6772 1068.51 514.678
944 1 65.0869 12.3066 801 60.9089 1068.35 545.834
945 0 67.2159 13.717 922 59.9772 1068.31 543.831
946 0 71.2316 15.3584 1094 57.7185 1067.54 544.755
947 0 73.1125 14.0605 1028 59.2072 1067.17 542.094
948 0 75.11 14.8848 1118 58.0394 1067.02 540.941
949 0 77.1075 12.943 998 60.2866 1067.26 542.012
950 0 81.2674 14.9506 1215 57.7531 1066.9 540.498
951 0 84.1945 13.0769 1101 59.99 1067.78 538.575
952 0 86.3298 14.5489 1256 58.7803 1067.3 537.722
953 0 89.2445 13.6591 1219 59.9943 1067.34 536.743
954 0 92.1729 13.8544 1277 59.8912 1067.68 533.701
955 0 97.2417 13.9652 1358 59.651 1067.77 532.091
956 0 98.2917 13.5718 1334 60.6859 1067.95 530.194
957 0 102.146 15.6834 1602 58.5886 1068.26 524.009
958 0 102.227 13.5385 1384 60.3808 1067.14 525.055
959 0 107.203 14.104 1512 59.7685 1067.3 522.923
960 1 53.0915 11.3012 600 61.42 1067.21 547.68
961 0 56.1112 12.2079 685 59.6905 1066.97 548.064
962 0 57.2397 11.4606 656 61.3171 1066.42 544.884
963 0 62.1184 13.5548 842 57.905 1067.26 545.118
964 0 60.2129 13.0703 787 59.5693 1066.79 543.778
965 0 64.1746 14.0866 904 58.4469 1066.82 539.388
966 0 67.2755 13.8238 930 58.8903 1066.75 541.368
967 0 70.1193 14.019 983 58.4252 1067.17 538.536
968 0 71.0966 13.0245 926 59.9719 1066.76 537.298
969 0 73.0905 14.1058 1031 59.0475 1066.92 535.979
970 0 77.3251 12.2341 946 61.5402 1067.1 535.034
971 0 79.2558 13.2356 1049 60.4643 1066.69 535.585
972 0 81.2411 13.0107 1057 61.5052 1066.73 533.346
973 0 84.3172 14.0541 1185 60.3949 1066.49 532.121
974 0 89.2103 13.5186 1206 60.8101 1066.35 530.008
975 1 44.065 11.8234 521 60.906 1065.6 552.434
976 0 48.2763 12.0763 583 60.952 1065.66 549.139
977 0 50.4281 12.3542 623 61.0016 1066.27 547.62
978 0 50.2012 12.8682 646 60.5851 1065.69 547.203
979 0 54.4942 12.6068 687 60.1863 1065.62 548.716
980 0 55.537 11.812 656 62.6677 1065.85 550.047
981 0 58.4358 13.0913 765 60.6013 1066.41 548.498
982 0 58.5231 13.2255 774 60.9005 1066.27 547.209
983 0 59.5294 14.1275 841 59.9774 1066.22 546.243
984 0 61.3373 13.1894 809 61.1743 1065.65 546.302
985 0 62.5937 13.7873 863 60.4913 1065.44 544.521
986 0 65.5843 13.3111 873 60.7606 1065.62 544.778
987 0 69.383 14.0669 976 59.9119 1065.62 543.159
988 0 69.383 14.0524 975 147.412 1065.64 543.21
989 0 71.3554 14.3927 1027 59.6543 1065.47 543.961
990 0 76.411 13.8593 1059 59.7394 1065.02 543.646
991 0 77.4635 13.8646 1074 59.6387 1065.72 540.048
992 0 82.3904 13.6059 1121 59.4781 1064.85 541.566
993 0 83.2581 12.5994 1049 61.0734 1065.53 539.605
994 1 41.0851 10.3444 425 62.0941 1065.32 559.762
995 0 46.3382 11.0708 513 60.0331 1065.37 559.324
996 0 45.2959 11.0164 499 60.2425 1065.35 559.072
997 0 47.268 12.2704 580 58.8966 1064.88 556.805
998 0 48.1463 12.1712 586 58.802 1064.9 555.422
999 0 50.133 11.8684 595 58.684 1065.04 555.506
1000 0 51.1879 12.1904 624 59.024 1065.39 553.838
1001 0 54.1519 12.705 688 57.484 1065.01 551.936
1002 0 56.1973 12.8476 722 58.0776 1065.53 552.168
1003 0 58.2527 13.9221 811 55.0937 1065.41 551.79
1004 0 59.2238 13.2379 784 56.3737 1065.24 550.352
1005 0 62.2791 12.8615 801 55.7665 1065.49 550.578
1006 0 62.2332 13.1923 821 56.1121 1065.5 548.966
1007 0 65.2594 13.7451 897 55.2018 1065.75 546.295
1008 0 65.3086 13.6429 891 55.7834 1065.94 545.327
1009 0 69.3869 13.5905 943 55.4592 1066.11 546.616
1010 0 72.284 13.9173 1006 55.3111 1065.65 544.001
1011 0 72.284 13.9173 1006 152.965 1065.65 544.001
1012 0 76.2413 14.7689 1126 55.2584 1065.5 544.579
1013 0 77.4065 14.3657 1112 56.5737 1065.74 542.051
1014 0 79.4562 14.0707 1118 56.9302 1066.15 540.6
1015 0 81.4134 12.7252 1036 57.9498 1065.94 540.309
1016 0 81.4134 12.6883 1033 167.955 1066.94 540.389
1017 0 88.41 14.5232 1284 55.4611 1065.86 538.796
1018 0 89.4083 12.8959 1153 57.6895 1066.17 537.494
1019 0 92.2625 14.1119 1302 56.427 1065.53 536.57
1020 1 48.2928 10.954 529 57.2306 1065.77 559.272
1021 0 50.3147 10.3151 519 57.9904 1065.96 557.622
1022 0 49.1405 11.579 569 57.6749 1065.84 556.151
1023 0 53.1058 13.8779 737 55.7924 1065.88 554.137
1024 0 55.1758 13.4298 741 56.2578 1066.27 551.668
1025 0 56.0986 12.175 683 57.3104 1066.56 552.044
1026 0 56.0986 12.2106 685 161.066 1066.56 551.968
1027 0 61.111 13.4836 824 56.8034 1067.12 549.363
1028 0 62.127 13.2471 823 57.3791 1067.33 550.487
1029 0 66.1019 14.1297 934 55.4293 1066.96 549.857
1030 0 66.2844 14.3171 949 55.7555 1067.02 548.734
1031 0 68.218 14.2484 972 57.0638 1067.12 546.509
1032 0 70.1706 13.3532 937 58.1708 1067.26 545.972
1033 0 70.1706 13.3532 937 164.7 1067.26 545.972
1034 0 76.1954 13.8722 1057 57.1561 1067.39 542.794
1035 0 78.1302 14.6038 1141 57.4198 1067.8 541.23
1036 0 81.279 14.075 1144 57.9222 1068.18 539.3
1037 0 83.2157 14.168 1179 57.6819 1068.31 539.601
1038 1 48.1605 10.8803 524 58.6851 1068.72 558.328
1039 0 50.1614 11.5427 579 58.3074 1068.67 556.965
1040 0 49.0359 11.5222 565 59.115 1068.73 556.545
1041 0 51.0921 12.2328 625 59.1472 1068.57 554.326
1042 0 50.0866 11.9593 599 60.015 1069.71 553.776
1043 0 53.113 12.4828 663 59.4992 1069.21 553.005
1044 0 56.1549 13.4449 755 58.4225 1069.5 552.956
1045 0 56.1256 12.0979 679 60.3476 1069.4 552.343
1046 0 58.2175 12.6766 738 59.9458 1069.68 549.346
1047 0 60.1598 12.5 752 58.746 1069.78 549.733
1048 0 63.1051 13.1051 827 58.1911 1070.11 549.189
1049 0 65.1924 12.6395 824 58.2354 1070.61 548.261
1050 0 66.1185 13.2489 876 57.8653 1070.93 547.017
1051 0 70.193 12.8075 899 58.2436 1070.51 545.656
1052 0 70.1729 13.0107 913 58.8226 1071.37 544.701
1053 0 72.2087 12.5054 903 59.2436 1070.54 543.523
1054 1 40.1579 9.91087 398 60.4397 1071.71 559
1055 0 42.1176 10.3282 435 59.6368 1071.5 559.869
1056 0 42.1153 10.1626 428 60.1893 1071.23 559.554
1057 0 42.054 11.1761 470 60.2957 1071.12 556.949
1058 0 47.0914 12.9111 608 57.0247 1071.03 555.538
1059 0 47.0802 13.1478 619 57 1069.76 556.914
1060 0 48.1188 12.0743 581 59.0448 1069.66 555.212
1061 0 49.0583 13.433 659 57.2807 1069.58 556.029
1062 0 50.1065 13.172 660 57.9758 1070.2 554.182
1063 0 51.1261 12.5376 641 58.4524 1070.35 554.927
1064 0 52.113 13.7586 717 57.9596 1070.05 553.573
1065 0 55.0929 13.8675 764 58.3312 1069.91 553.257
1066 0 56.116 13.6503 766 59.0065 1069.32 552.608
1067 0 56.0431 13.6324 764 58.9594 1068.94 552.664
1068 0 57.0495 12.6381 721 60.6144 1068.92 551.806
1069 0 59.0477 13.8701 819 59.4371 1068.26 549.331
1070 0 61.2272 13.3437 817 59.8188 1068.02 549.667
1071 0 63.0933 13.1393 829 60.2726 1067.87 548.276
1072 0 66.111 13.9614 923 59.0509 1068.37 546.527
1073 0 69.0908 14.5026 1002 58.2206 1068.62 546.151
1074 0 71.2779 13.9735 996 58.9127 1068.48 544.304
1075 0 74.0878 13.781 1021 59.0264 1068.77 545.192
1076 0 77.2523 13.5142 1044 59.3036 1068.73 542.881
1077 0 77.2262 13.9719 1079 59.3735 1067.89 542.673
1078 1 42.2092 10.2584 433 61.6028 1067.67 559.829
1079 0 43.2146 12.1718 526 60.8992 1067.39 556.665
1080 0 46.1123 12.4045 572 59.3077 1067.83 555.705
1081 0 46.1555 11.6996 540 59.5148 1067.43 557.746
1082 0 48.09 11.0834 533 60.5122 1067.19 556.659
1083 0 50.1322 11.6293 583 59.1955 1067.37 556.051
1084 0 50.1792 11.2796 566 60.6272 1067.12 554.915
1085 0 52.146 12.465 650 59.1077 1067.56 553.588
1086 0 54.0995 13.087 708 58.4929 1067.44 553.1
1087 0 54.033 12.3998 670 59.4851 1067.66 551.921
1088 0 61.0377 15.3184 935 53.6278 1067.43 549.067
1089 0 59.0869 13.2178 781 57.9962 1067.39 549.168
1090 0 67.0902 15.6804 1052 51.9335 1067.76 545.02
1091 0 75.0782 17.2886 1298 48.275 1067.53 540.996
1092 0 73.093 16.7732 1226 48.9543 1068.08 542.483
1093 0 77.2345 18.4762 1427 47.0596 1068.16 538.808
1094 0 74.058 16.4061 1215 50.7992 1067.46 541.071
1095 0 77.2022 16.5798 1280 50.8539 1067.86 540.337
1096 0 77.0761 14.9463 1152 53.5556 1067.76 540.93
1097 0 77.1582 16.5504 1277 52.6398 1067.74 540.16
1098 0 76.1922 12.9935 990 57.8333 1067.89 540.676
1099 0 76.1966 11.7066 892 60.7522 1067.72 541.404
1100 0 83.2235 14.2508 1186 58.4266 1066.95 541.21
1101 0 82.1644 12.2316 1005 61.6607 1067 538.381
1102 1 46.0411 10.5558 486 61.0556 1066.37 558.905
1103 0 46.0491 10.4237 480 62.7125 1065.96 557.504
1104 0 49.1357 11.4784 564 60.5106 1065.67 558.067
1105 0 50.061 12.4248 622 59.7685 1065.39 555.854
1106 0 53.0671 13.3039 706 57.5765 1065.58 553.881
1107 0 52.1534 12.5591 655 59.2458 1065.6 553.139
1108 0 55.1969 12.8993 712 59.8848 1065.96 555.833
1109 0 56.1419 13.8043 775 59.4503 1066.19 551.71
1110 0 59.0933 13.301 786 59.4542 1066.72 551.328
1111 0 61.1872 13.3688 818 59.5073 1066.9 551.139
1112 0 61.1568 13.0811 800 60.5988 1066.34 551.23
1113 0 66.2225 13.7265 909 58.78 1066.07 551.144
1114 0 68.1495 13.8372 943 58.7349 1065.84 548.275
1115 0 66.167 12.5591 831 61.3502 1065.99 546.059
1116 0 70.1478 13.1437 922 60.1432 1065.46 546.37
1117 0 74.2209 13.8101 1025 58.1502 1065.37 546.015
1118 0 75.2196 13.8794 1044 58.7787 1065.15 543.127
1119 0 79.2024 13.5728 1075 58.4326 1065.35 544.02
1120 0 81.2039 12.8565 1044 59.5345 1065.72 541.653
1121 0 82.2552 12.4491 1024 59.6504 1065.73 541.983
1122 0 88.2889 13.6371 1204 58.0274 1065.57 538.84
1123 1 42.3507 9.79912 415 60.9036 1064.95 559.564
1124 0 45.3488 10.6949 485 59.3299 1064.77 559.736
1125 0 45.2222 11.4767 519 59.0694 1064.82 557.162
1126 0 45.0445 11.4331 515 59.1029 1065.5 557.918
1127 0 51.1319 12.7513 652 58.0383 1065.25 557.655
1128 0 53.1802 12.9371 688 57.6235 1065.29 556.272
1129 0 54.1144 13.0095 704 58.0483 1065.55 554.8
1130 0 56.0628 13.467 755 57.1589 1065.69 554.732
1131 0 56.0747 12.733 714 58.1821 1066.12 553.363
1132 0 57.1341 11.3767 650 59.2446 1066.63 553.72
1133 0 59.1718 12.4552 737 58.2646 1067.15 551.499
1134 0 60.2226 11.8726 715 59.1762 1066.19 548.716
1135 0 62.212 13.0843 814 57.3403 1066.8 549.2
1136 0 66.1959 13.1579 871 56.5741 1066.59 548.406
1137 0 69.143 12.3657 855 57.4573 1066.77 547.132
1138 0 71.2497 12.7158 906 57.8543 1066.61 546.275
1139 0 73.2966 12.5381 919 57.494 1066.92 544.4
1140 0 74.117 12.8715 954 56.6373 1066.74 545.999
1141 0 76.3775 13.0798 999 56.7968 1067.31 542.223
1142 0 81.3658 11.8846 967 58.5843 1067.07 540.313
1143 1 42.1952 9.33756 394 58.7462 1067.36 559.678
1144 0 43.1872 10.0493 434 58.3756 1067.09 558.488
1145 0 45.3489 9.57023 434 57.735 1067.27 560.488
1146 0 48.1769 11.5408 556 56.1781 1067.09 557.667
1147 0 49.3687 11.2217 554 56.7996 1067.53 556.626
1148 0 51.2023 11.7963 604 55.8096 1067.46 554.838
1149 0 52.1803 11.786 615 55.678 1068.26 554.358
1150 0 56.0973 12.817 719 55.9833 1069.54 552.255
1151 0 56.0794 12.0365 675 57.3793 1069.69 551.913
1152 0 57.0819 12.4558 711 57.3446 1069.36 550.523
1153 0 59.0761 13.2033 780 54.2962 1069.33 549.983
1154 0 59.103 12.9774 767 55.0691 1069.4 548.82
1155 0 62.2086 13.8727 863 54.0197 1069.45 546.91
1156 0 63.1719 13.1704 832 55.3161 1069.97 548.02
1157 0 65.1746 12.643 824 55.7985 1070.04 547.112
1158 0 71.2906 14.7285 1050 52.1133 1070.42 543.273
1159 0 68.2404 12.8516 877 55.7697 1070.56 544.377
1160 0 72.1294 12.7964 923 57.1712 1070.37 541.465
1161 0 74.1781 13.3597 991 55.2059 1071.34 539.697
1162 0 77.2719 13.3295 1030 56.5553 1071.61 540.571
1163 0 80.2488 12.374 993 56.1692 1071.57 538.818
1164 0 80.19 12.3207 988 56.3725 1071.55 538.329
1165 0 86.2829 13.1196 1132 55.356 1071.89 534.258
1166 1 46.0389 8.66658 399 55.9774 1072.9 560.015
1167 0 49.0512 10.7235 526 56.3042 1071.83 554.848
1168 0 50.0266 11.214 561 55.2246 1071.95 554.05
1169 0 51.0596 10.5759 540 55.1537 1071.95 553.569
1170 0 52.0943 10.5962 552 55.558 1072.33 552.52
1171 0 54.0997 11.867 642 54.8832 1072.65 551.46
1172 0 55.1548 11.2411 620 57.1839 1071.99 551.152
1173 0 58.3567 12.0123 701 55.6434 1071.73 549.057
1174 0 59.326 12.2206 725 55.6497 1072.48 548.461
1175 0 68.3775 15.3706 1051 49.4215 1072 543.832
1176 0 69.4045 16.1805 1123 49.073 1071.9 541.785
1177 0 72.5071 16.0674 1165 48.8034 1071.63 540.18
1178 0 71.3923 15.2117 1086 51.4217 1071.34 542.054
1179 0 71.2533 15.6765 1117 51.4405 1070.84 538.816
1180 0 71.263 14.0325 1000 54.19 1071.58 541.97
1181 0 73.2774 12.7188 932 55.2682 1071.29 543.432
1182 0 73.3419 13.1167 962 55.8898 1071.09 541.072
1183 0 77.2325 12.676 979 56.808 1071.01 540.56
1184 0 78.2926 11.9168 933 58.3633 1071.43 540.725
1185 0 83.3475 13.5697 1131 56.3926 1071.59 536.368
1186 0 82.2998 12.3937 1020 58.4618 1071.3 535.78
1187 0 85.3178 12.471 1064 58.4474 1070.46 535.23
1188 0 90.2696 12.9944 1173 57.4672 1070.48 533.361
1189 0 93.3657 12.9705 1211 57.6119 1070.97 530.635
1190 1 49.092 10.8572 533 57.9212 1069.32 554.568
1191 0 49.0506 11.111 545 58.5725 1069.59 553.881
1192 0 50.1262 11.5908 581 58.5852 1069.27 553.117
1193 0 53.0957 11.3568 603 59.209 1069.65 550.861
1194 0 53.0395 11.9911 636 58.5849 1069.29 551.737
1195 0 55.0243 12.6126 694 56.1095 1068.98 550.242
1196 0 57.0486 12.5507 716 55.8282 1069.32 550.564
1197 0 61.0359 11.8127 721 55.8641 1069.56 550.211
1198 0 60.0574 11.539 693 56.5498 1069.27 550.492
1199 0 62.0323 11.7519 729 56.4403 1068.92 550.204
1200 0 64.1147 12.6804 813 55.6704 1068.46 544.344
1201 0 64.1147 12.7116 815 147.153 1068.46 544.342
1202 0 68.0678 12.6785 863 56.095 1068.44 543.907
1203 0 73.048 14.8122 1082 52.5647 1068.65 542.835
1204 0 75.0694 14.5732 1094 52.9881 1068.25 542.244
1205 0 74.081 12.3918 918 56.1743 1067.92 541.829
1206 0 77.0624 13.4177 1034 55.3501 1068.16 539.071
1207 0 77.0387 11.5656 891 57.5499 1068.34 540.938
1208 0 81.0936 13.3919 1086 55.5258 1068.58 537.876
1209 0 83.0654 12.123 1007 56.9484 1069 538.484
1210 1 47.0267 11.4403 538 55.5502 1068.81 557.812
1211 0 46.0404 12.0981 557 55.3968 1068.99 556.004
1212 0 50.0917 10.7403 538 54.1822 1068.03 556.342
1213 0 49.0353 10.3803 509 55.6916 1067.96 555.122
1214 0 53.0629 11.2508 597 54.9095 1068.01 554.375
1215 0 52.1903 12.3011 642 54.8676 1067.74 552.572
1216 0 55.1152 11.3036 623 54.5409 1067.6 554.541
1217 0 57.2465 12.2628 702 55.9886 1067.13 552.454
1218 0 58.0681 12.0204 698 54.745 1067.35 550.579
1219 0 65.1505 15.3184 998 49.6864 1067.56 546.907
1220 0 63.1196 14.7023 928 51.7144 1067.2 547.963
1221 0 61.1336 13.1188 802 54.1883 1067.45 548.747
1222 0 64.2235 13.4842 866 54.0497 1067.18 547.017
1223 0 67.187 13.3806 899 54.2492 1067.66 545.594
1224 0 68.1282 13.2251 901 53.7902 1067.22 548.283
1225 0 70.2046 13.9165 977 52.8393 1066.88 547.538
1226 0 72.1937 12.9928 938 54.467 1066.53 544.576
1227 0 74.142 12.5435 930 55.1538 1067.11 543.185
1228 0 76.1742 13.4691 1026 54.4493 1066.44 542.796
1229 0 79.2323 12.5202 992 54.9798 1066.86 542.646
1230 0 83.1887 12.9585 1078 54.1827 1066.65 539.773
1231 0 86.4085 13.7023 1184 53.7576 1066.76 538.23
1232 0 90.2864 13.3243 1203 53.3957 1066.85 538.388
1233 1 45.2031 10.5966 479 54.5449 1067.03 560.33
1234 0 45.2413 10.2119 462 54.9459 1067.79 559.277
1235 0 48.1365 11.6751 562 54.1068 1067.45 557.776
1236 0 49.1154 11.6053 570 54.486 1066.81 556.911
1237 0 52.0852 12.4988 651 53.6406 1066.44 555.22
1238 0 53.1474 12.4559 662 54.6133 1066.34 555.095
1239 0 55.1944 11.7222 647 53.7713 1066.14 552.913
1240 1 70.3218 13.9217 979 46.9234 1066.66 544.128
1241 0 69.2509 14.2092 984 48.1331 1067.11 548.322
1242 0 70.4879 17.847 1258 44.5048 1067.07 547.645
1243 0 74.473 19.0136 1416 43.0282 1067.12 542.955
1244 0 72.3123 16.733 1210 46.4388 1066.99 544.048
1245 0 72.1462 15.8706 1145 47.7886 1067.11 545.745
1246 0 71.1353 17.0801 1215 47.7547 1066.6 546.76
1247 0 75.1717 17.8392 1341 46.956 1066.89 544.881
1248 0 75.1126 14.5914 1096 52.4142 1067.1 546.536
1249 0 73.1439 14.6834 1074 54.2831 1067.05 544.062
1250 0 76.1369 15.3671 1170 54.4556 1066.85 542.635
1251 0 77.2319 12.4301 960 57.9885 1066.5 545.888
1252 0 78.3626 13.9735 1095 57.1717 1066.2 542.543
1253 0 80.1544 14.8838 1193 56.7494 1066.21 544.102
1254 0 83.2194 14.7922 1231 57.4232 1065.9 544.357
1255 0 85.2639 13.6635 1165 59.4506 1066.16 539.745
1256 0 89.3094 14.6681 1310 59.1672 1066.07 540.527
1257 1 45.2674 11.8849 538 63.4182 1066.37 560.061
1258 0 47.2342 13.1684 622 61.1672 1067.02 560.749
1259 0 47.129 11.5428 544 64.0165 1067.18 559.8
1260 0 48.1938 12.9062 622 63.7621 1067.22 557.545
1261 0 50.1264 13.1069 657 63.9528 1067.06 556.661
1262 0 53.2487 14.2727 760 62.1829 1067.28 554.645
1263 0 55.215 13.4565 743 63.4361 1067.25 554.26
1264 0 55.2717 13.7864 762 64.5696 1067.37 554.104
1265 0 56.1525 14.1579 795 64.7799 1067.58 553.351
1266 0 59.2177 13.3237 789 65.493 1067.6 552.646
1267 0 60.1448 14.1824 853 64.9449 1068.05 551.562
1268 0 62.1467 14.1279 878 65.2711 1068.44 549.951
1269 0 64.2413 14.1187 907 65.6582 1067.6 549.394
1270 0 64.195 13.2721 852 67.7077 1068.31 549.688
1271 0 67.3337 14.1831 955 66.4555 1068.65 546.443
1272 0 68.4173 13.8269 946 67.0338 1068.97 547.014
1273 0 69.1702 14.2258 984 66.7429 1069.24 540.072
1274 0 72.3296 14.3095 1035 66.1923 1069.15 538.581
1275 0 75.333 13.8054 1040 66.275 1069.26 539.265
1276 0 77.2928 14.4515 1117 65.4038 1069.41 538.301
1277 0 79.4844 14.0153 1114 66.3106 1070.14 534.722
1278 0 84.5265 14.6581 1239 64.2107 1070.57 533.665
1279 0 85.2585 14.0279 1196 65.7241 1070.97 532.579
1280 1 44.3416 12.5841 558 68.4032 1070.78 551.065
1281 0 45.3406 12.1745 552 69.4167 1071.46 550.667
1282 0 49.3691 12.8825 636 67.1682 1071.23 549.45
1283 0 50.5014 14.4748 731 64.881 1070.98 549.176
1284 0 52.277 14.6336 765 65.1242 1071.52 546.007
1285 0 57.5074 14.572 838 63.9511 1071.11 546.327
1286 0 57.4808 13.361 768 66.4141 1071.29 545.079
1287 0 60.5336 14.6035 884 64.414 1071.06 545.847
1288 0 61.2959 14.2424 873 65.3998 1071.12 544.306
1289 0 63.7039 14.7087 937 64.8058 1070.96 542.995
1290 0 64.3067 13.6067 875 66.3931 1071.27 541.689
1291 0 67.5997 13.8314 935 65.4941 1070.98 540.919
1292 0 70.7494 14.0072 991 65.226 1070.87 540.011
1293 0 70.4792 14.444 1018 65.7436 1070.63 537.485
1294 0 75.5621 15.3251 1158 63.1269 1070.75 537.209
1295 0 78.6606 15.5478 1223 62.9321 1071.17 536.149
1296 0 77.5861 14.5773 1131 66.2281 1071.43 533.552
1297 0 79.4347 14.6661 1165 67.2369 1071.59 533.33
1298 0 82.6543 14.8692 1229 67.096 1071.41 531.4
1299 0 86.6089 14.3981 1247 68.0561 1071.21 531.188
1300 0 90.6513 14.4841 1313 68.0114 1071.62 528.605
1301 0 92.3089 14.2565 1316 69.1451 1071.07 526.693
1302 0 95.6038 14.4241 1379 68.5975 1071.48 526.629
1303 1 48.3711 11.0397 534 71.5805 1070.48 549.942
1304 0 49.6913 12.4569 619 69.517 1070.8 549.748
1305 0 49.4287 11.6936 578 71.0311 1070.84 548.192
1306 0 50.3848 13.258 668 69.2201 1070.7 547.034
1307 0 53.4883 13.1618 704 68.669 1070.81 546.25
1308 0 56.4563 13.7806 778 67.0514 1070.05 545.572
1309 0 57.3784 13.7334 788 67.6688 1070.05 544.956
1310 0 59.4379 13.6781 813 67.1181 1069.81 543.476
1311 0 62.6339 14.0659 881 65.9739 1069.67 544.014
1312 0 62.6792 13.1782 826 68.2797 1069.54 542.197
1313 0 66.5498 14.0346 934 66.045 1069.15 541.864
1314 0 67.4382 14.5467 981 65.9062 1069.03 538.466
1315 0 67.524 13.5952 918 67.2168 1068.54 538.742
1316 0 72.5033 13.958 1012 65.5119 1068.82 543.293
1317 0 72.5305 15.2074 1103 65.0136 1068.88 537.644
1318 0 77.6811 13.5554 1053 66.5081 1068.58 536.728
1319 0 78.5969 13.3466 1049 66.673 1068.55 537.691
1320 0 82.498 13.8549 1143 65.5634 1067.72 533.941
1321 0 84.3294 14.0165 1182 66.1624 1067.87 532.016
1322 0 91.5624 13.9795 1280 65.0234 1067.5 530.853
1323 0 92.5003 14.0108 1296 65.5108 1068.4 529.049
1324 0 93.3099 13.3748 1248 66.3982 1067.96 527.298
1325 1 52.5593 11.3015 594 67.1886 1067.62 549.232
1326 0 55.4777 11.2478 624 66.5481 1067.64 549.652
1327 0 57.4818 12.7519 733 65.5362 1067.62 550.035
1328 0 59.4361 13.8804 825 63.1818 1068.26 551.161
1329 0 61.5976 13.0037 801 64.7815 1067.57 549.79
1330 0 61.5461 12.4135 764 65.5798 1067.2 550.501
1331 0 64.4628 12.7671 823 65.1191 1066.53 548.81
1332 0 67.4239 12.7403 859 64.709 1066.91 549.084
1333 0 68.3966 13.5241 925 64.0108 1067.08 546.866
1334 0 68.2368 13.0428 890 66.5348 1067.38 547.209
1335 0 70.2564 13.7781 968 65.53 1067.3 545.935
1336 0 74.3171 14.0614 1045 63.5962 1067.11 545.258
1337 0 76.4392 13.5663 1037 64.6471 1067.13 544.572
1338 0 77.1348 13.444 1037 64.9595 1066.92 543.752
1339 0 80.4706 13.8063 1111 64.0792 1066.78 542.914
1340 0 82.3119 13.6554 1124 64.1068 1066.77 539.194
1341 0 85.2716 13.8264 1179 63.1137 1067.85 540.993
1342 0 87.5836 13.5413 1186 62.7268 1067.71 539.529
1343 0 91.3475 13.6731 1249 62.3787 1067.28 537.051
1344 0 91.3475 13.6512 1247 163.661 1066.26 536.927
1345 1 48.1781 11.8934 573 62.6108 1067.31 555.736
1346 0 50.2489 8.87582 446 64.5336 1067.15 558.482
1347 0 54.5054 11.4484 624 62.3317 1066.91 556.268
1348 0 54.3966 12.3721 673 62.6018 1066.59 553.383
1349 0 56.2871 11.921 671 62.8361 1066.42 553.34
1350 0 59.2371 14.2478 844 59.5545 1065.84 553.224
1351 0 60.356 12.8902 778 62.3188 1065.56 552.699
1352 0 60.5407 11.9589 724 64.3826 1065.98 551.982
1353 0 63.3872 12.0056 761 63.9763 1065.74 551.389
1354 0 64.3935 12.9671 835 62.5868 1065.81 549.986
1355 0 68.6583 13.8366 950 61.2737 1066.02 546.563
1356 0 67.3619 13.4497 906 62.8267 1066.11 547.464
1357 0 70.3827 13.0856 921 62.5299 1065.61 546.098
1358 0 72.6843 12.5887 915 62.9454 1065.43 546.472
1359 0 72.5441 12.999 943 63.7094 1065.48 543.032
1360 0 76.621 13.3384 1022 63.3513 1065.11 542.186
1361 0 78.6544 13.1715 1036 63.5473 1064.92 542.825
1362 0 80.4934 13.6036 1095 63.7306 1065.16 540.034
1363 0 82.7049 13.0585 1080 64.2509 1064.94 537.892
1364 0 84.5355 13.1306 1110 64.5432 1064.89 537.965
1365 1 47.7644 10.6146 507 65.4221 1065.37 553.519
1366 0 51.8659 11.0092 571 64.8161 1064.49 553.622
1367 0 49.4656 10.9773 543 65.3812 1064.53 554.744
1368 0 52.5792 10.7647 566 65.4046 1064.6 551.643
1369 0 54.6695 12.0177 657 63.9467 1064.93 549.761
1370 0 55.8072 12.7582 712 63.8975 1064.96 550.529
1371 0 57.517 12.2225 703 63.441 1064.94 548.99
1372 0 57.5622 12.6472 728 64.033 1064.65 549.262
1373 0 60.6006 12.5081 758 63.9129 1064.55 547.36
1374 0 61.6256 13.1601 811 63.1134 1064.03 547.051
1375 0 61.7186 12.1519 750 65.128 1064.5 546.42
1376 0 65.8191 12.8534 846 63.6832 1064.28 545.11
1377 0 66.6699 13.7693 918 62.7593 1064.01 544.837
1378 0 68.7567 12.8278 882 64.1179 1064.2 543.565
1379 0 69.9104 12.6018 881 64.1056 1063.8 542.89
1380 0 73.8704 12.9281 955 62.9665 1063.75 543.463
1381 0 75.8888 13.2035 1002 61.997 1063.93 542.121
1382 0 78.7546 13.523 1065 58.723 1063.76 539.671
1383 0 80.0382 12.8939 1032 58.5581 1064.44 539.984
1384 0 82.7552 13.0626 1081 63.247 1064.38 538.912
1385 0 84.6907 13.8268 1171 60.7148 1064.44 537.175
1386 0 88.9804 14.2166 1265 60.966 1064.88 535.575
1387 0 90.7032 14.2002 1288 60.941 1065.3 535.865
1388 0 92.5684 14.1085 1306 61.4587 1065.44 532.23
1389 0 96.7007 14.2605 1379 61.0972 1065.46 532.806
1390 0 97.6741 13.6474 1333 62.6804 1065.84 532.394
1391 0 100.458 14.1851 1425 62.2204 1065.36 530.203
1392 0 103.734 14.5083 1505 61.8385 1065.79 526.282
1393 0 105.648 14.3117 1512 62.2731 1065.49 526.293
1394 0 112.623 14.0558 1583 61.9526 1065.59 525.903
1395 0 114.523 14.2329 1630 61.9681 1065.6 523.092
1396 0 117.75 14.0722 1657 61.7085 1066.34 522.477
1397 1 63.3838 11.8642 752 63.2101 1066.23 546.624
1398 0 67.6436 12.078 817 61.9045 1066.34 546.433
1399 0 70.5049 13.0913 923 61.1138 1066.95 543.927
1400 0 74.6539 12.3369 921 61.5733 1066.66 543.246
1401 0 75.4144 13.512 1019 60.0932 1067.21 542.69
1402 0 79.3944 13.3511 1060 59.9113 1067.55 541.892
1403 0 81.3093 12.8153 1042 60.6248 1067.81 538.842
1404 0 84.4387 13.5483 1144 59.6967 1068.51 536.635
1405 0 84.4775 13.4474 1136 59.8046 1068.27 534.971
1406 0 90.3584 13.701 1238 58.5977 1068.96 533.793
1407 0 93.3194 13.0627 1219 59.4569 1069.02 531.927
1408 0 96.2015 13.004 1251 59.5556 1069.15 530.291
1409 0 99.2293 13.3227 1322 59.2239 1068.92 529.589
1410 0 101.21 13.388 1355 59.2229 1069.43 527.518
1411 1 55.1832 11.942 659 59.0668 1069.64 550.384
1412 0 56.1212 11.4217 641 58.8721 1069.62 551.657
1413 0 58.0955 11.0336 641 59.454 1070.11 548.916
1414 0 60.0893 11.2832 678 58.7655 1070.12 548.506
1415 0 60.0925 12.4308 747 58.0884 1070.07 547.473
1416 0 60.0925 12.4308 747 157.724 1070.07 547.473
1417 0 66.309 13.3768 887 56.6392 1071.32 546.311
1418 0 68.167 13.0855 892 57.0863 1071 542.901
1419 0 71.0262 12.4039 881 57.3428 1070.78 540.669
1420 0 72.0711 13.3757 964 56.2656 1070.46 539.997
1421 0 76.1226 13.0185 991 56.332 1070.37 540.347
1422 0 75.2274 12.203 918 57.5577 1070.46 538.679
1423 0 78.3142 12.9095 1011 56.5173 1071.01 537
1424 0 82.1551 14.8013 1216 54.3224 1070.6 536.284
1425 0 85.1922 14.5788 1242 54.0048 1070.8 535.632
1426 0 87.2309 13.149 1147 55.7838 1070.96 533.07
1427 0 88.061 13.2408 1166 56.5609 1070.97 533.491
1428 0 91.2911 13.6267 1244 55.7613 1071.69 532.094
1429 0 96.1829 14.6596 1410 53.9929 1071.46 530.897
1430 0 99.2532 14.5184 1441 53.5101 1071.05 527.595
1431 0 101.26 13.3715 1354 54.466 1071.34 529.94
1432 0 105.42 13.8493 1460 54.3226 1071.53 528.262
1433 1 54.181 10.7602 583 55.0926 1071.32 552.986
1434 0 55.204 11.3941 629 55.3418 1071.21 552.362
1435 0 58.1344 12.4539 724 55.3798 1071.21 551.91
1436 0 59.184 11.9965 710 55.3704 1070.9 549.677
1437 0 61.3591 13.0706 802 54.7107 1070.56 548.835
1438 0 61.091 13.8646 847 54.8465 1070.97 549.046
1439 0 64.0805 14.3882 922 53.2158 1070.99 546.436
1440 0 66.0294 12.661 836 54.3337 1070.93 546.36
1441 0 69.0441 14.498 1001 52.1668 1071.03 545.759
1442 0 71.0391 13.7952 980 52.5959 1071.19 544.373
1443 0 70.0366 13.1074 918 53.7941 1070.62 543.866
1444 0 76.1946 13.7149 1045 52.5388 1071.07 542.345
1445 0 77.1006 13.6834 1055 53.0758 1069.79 539.831
1446 0 79.1283 14.3185 1133 52.0759 1069.91 539.131
1447 0 80.1027 13.9321 1116 53.0493 1069.03 539.337
1448 0 83.1533 13.4811 1121 53.3095 1069.08 537.119
1449 0 88.1129 13.3352 1175 53.166 1068.78 536.149
1450 0 91.0642 13.9791 1273 52.9945 1068.58 535.724
1451 0 96.1887 14.0557 1352 52.8262 1068.76 533.763
1452 0 98.2262 13.7132 1347 53.2955 1068.21 531.922
1453 1 52.1205 11.3199 590 54.139 1068.21 553.697
1454 0 57.0986 11.9618 683 53.2094 1068.39 555.359
1455 0 58.0606 12.4525 723 53.1093 1068.26 552.848
1456 0 61.0491 12.1705 743 53.3728 1068.31 552.241
1457 0 61.1747 12.2927 752 54.0532 1067.89 549.834
1458 0 61.1747 12.2273 748 153.924 1067.88 549.813
1459 0 65.1843 12.1502 792 54.5341 1067.13 547.136
1460 0 67.1482 13.1202 881 53.3916 1067.74 546.389
1461 0 69.2238 11.8456 820 53.7195 1067.29 547.526
1462 0 71.2028 11.9799 853 53.4502 1066.95 547.2
1463 0 76.2282 13.7351 1047 51.6867 1067.11 544.795
1464 0 76.1652 13.0768 996 52.6576 1067.06 544.036
1465 0 79.1637 11.8994 942 54.155 1066.73 544.049
1466 0 82.2487 13.8604 1140 52.2632 1066.89 542.526
1467 0 84.1556 14.2355 1198 51.8506 1066.89 541.03
1468 0 87.2777 12.7639 1114 52.6517 1066.51 539.101
1469 0 88.1932 11.9284 1052 53.4325 1066.69 539.337
1470 0 93.1891 13.038 1215 52.9975 1066.69 535.927
1471 0 94.2224 11.9186 1123 54.4898 1066.31 535.515
1472 0 99.1981 12.5305 1243 53.8294 1065.39 535.178
1473 0 97.3155 11.6117 1130 55.977 1065.2 534.004
1474 0 97.3155 11.5809 1127 153.309 1064.18 533.995
1475 1 58.1383 12.3155 716 54.338 1065.78 553.595
1476 0 59.2042 11.9417 707 54.6209 1065.9 553.728
1477 0 61.0975 13.3721 817 53.3696 1065.38 553.108
1478 0 61.0719 12.1824 744 55.4435 1065.08 551.634
1479 0 64.1047 13.01 834 54.5719 1064.88 551.247
1480 0 65.1649 12.6295 823 55.3305 1064.81 551.724
1481 0 67.1435 12.9573 870 55.6264 1064.67 549.194
1482 0 70.1429 13.5438 950 55.0758 1065.77 549.371
1483 0 71.1933 12.7961 911 56.7278 1066.28 545.171
1484 0 73.1584 13.5596 992 56.2893 1065.78 544.936
1485 0 73.1834 12.6395 925 58.1059 1064.8 545.161
1486 0 76.1051 12.6536 963 58.729 1064.76 543.332
1487 0 81.1215 13.7818 1118 57.1574 1065.69 539.648
1488 0 83.0666 13.3869 1112 57.9397 1065.2 540.213
1489 1 41.0713 11.1026 456 61.2281 1064.51 558.509
1490 0 44.3005 11.8057 523 59.2008 1065.13 560.011
1491 0 44.0612 10.8259 477 60.3208 1064.41 562.405
1492 0 47.1362 12.1563 573 59.3473 1064.69 558.705
1493 0 49.1155 12.1143 595 60.6555 1065.34 558.432
1494 0 50.1957 13.9454 700 58.0929 1065.84 556.496
1495 0 49.0392 12.8469 630 59.3492 1065.98 553.427
1496 0 51.0325 12.5802 642 60.1651 1065.94 553.768
1497 0 52.0385 13.663 711 59.1899 1065.83 552.301
1498 0 54.0519 14.0236 758 58.5726 1065.88 552.483
1499 0 56.0888 13.229 742 60.2156 1065.92 549.951
1500 0 59.0499 13.768 813 58.9902 1066.06 547.6
1501 0 59.081 14.2178 840 59.9155 1066.31 547.365
1502 0 61.2068 14.0017 857 60.0023 1066.32 547.313
1503 0 63.196 13.4819 852 60.858 1066.41 546.736
1504 0 65.0817 14.4895 943 60.0011 1066.85 543.827
1505 0 67.1829 14.5126 975 59.4492 1067.22 544.164
1506 0 70.2406 13.468 946 60.9873 1067.35 543.202
1507 0 74.1429 14.027 1040 60.2885 1067.41 539.029
1508 0 74.1365 13.3133 987 61.6363 1067.63 539.844
1509 0 76.1544 13.5908 1035 61.4937 1067.79 539.646
1510 1 39.1568 12.0541 472 62.3199 1067.78 556.761
1511 0 42.1482 11.8629 500 61.936 1068.43 556.428
1512 0 42.0286 12.0156 505 61.8337 1068.7 555.608
1513 0 44.078 12.3871 546 62.1832 1068.39 554.868
1514 0 46.0399 14.1834 653 59.807 1068.64 554.695
1515 0 51.0241 16.3648 835 55.594 1068.96 551.794
1516 0 53.0383 15.5548 825 56.8606 1068.98 551.279
1517 0 52.1537 13.4602 702 61.1026 1069.1 551.097
1518 0 52.0328 13.0687 680 61.6721 1069.35 550.156
1519 0 53.0631 14.8691 789 60.4144 1069.65 548.435
1520 0 55.0877 13.8143 761 61.2799 1069.57 548.861
1521 0 58.1472 14.3429 834 59.3909 1070.51 547.729
1522 0 59.0525 13.6827 808 60.5012 1070.74 546.864
1523 0 59.0301 14.2809 843 59.9763 1071.01 544.903
1524 0 63.102 14.8807 939 58.4324 1070.93 544.125
1525 0 64.1154 13.6473 875 60.0674 1070.82 542.855
1526 0 68.16 14.1432 964 58.7894 1070.71 542.88
1527 0 70.1809 13.5934 954 58.9665 1070.61 542.732
1528 0 71.2534 13.0941 933 59.9968 1070.67 541.673
1529 0 74.2808 13.7721 1023 59.4839 1070.76 539.527
1530 0 78.178 13.8274 1081 58.7327 1070.82 537.245
1531 1 40.083 13.1976 529 58.5198 1071.14 555.04
1532 0 42.0556 11.7226 493 60.0832 1070.88 555.426
1533 0 42.0196 11.2329 472 61.1186 1070.61 555.769
1534 0 44.0163 13.336 587 58.5213 1071.19 554.726
1535 0 45.1837 13.6332 616 58.9481 1071.19 553.422
1536 0 46.0256 13.3839 616 59.6088 1071.56 552.321
1537 0 47.1092 12.6302 595 60.2101 1071.3 552.417
1538 0 50.1583 13.6368 684 58.883 1071.79 550.167
1539 0 52.1405 12.6389 659 59.4234 1071.54 550.522
1540 0 53.0861 13.2238 702 59.5014 1071.13 549.84
1541 0 54.0891 13.6811 740 58.6297 1071.58 548.341
1542 0 56.1782 14.0802 791 57.9949 1071.21 547.985
1543 0 59.0849 13.4383 794 58.1448 1071.07 546.12
1544 0 61.2529 13.8443 848 57.7547 1070.85 542.91
1545 0 64.0658 13.2052 846 58.1785 1071.09 543.225
1546 0 66.1075 13.9016 919 57.1371 1070.76 541.287
1547 0 71.1652 13.6584 972 56.4938 1070.59 540.697
1548 0 72.1479 13.9159 1004 56.7102 1070.61 539.27
1549 0 78.1656 14.2134 1111 55.2871 1070.29 539.064
1550 0 80.1392 14.4499 1158 55.2634 1070.38 536.301
1551 0 83.1854 14.2212 1183 55.7363 1069.85 535.156
1552 0 84.2084 12.9797 1093 57.1995 1070.82 533.526
1553 0 89.1999 14.0471 1253 55.8843 1070.06 534.335
1554 1 49.2344 11.9226 587 56.6542 1069.9 553.773
1555 0 50.2317 13.5174 679 55.9264 1069.52 552.954
1556 0 51.3216 14.2435 731 55.2326 1069.76 550.517
1557 0 53.2224 12.6638 674 58.0727 1069.87 551.512
1558 0 53.2889 13.4174 715 57.6322 1069.95 551.08
1559 0 57.2489 13.1182 751 57.5939 1070.05 550.178
1560 0 58.2972 13.5513 790 57.5494 1069.36 549.976
1561 0 60.226 13.4659 811 57.3637 1069.74 550.097
1562 0 61.1755 13.731 840 57.2083 1069.36 549.535
1563 0 63.2553 13.817 874 57.3227 1069.49 547.808
1564 0 65.1845 13.1473 857 58.2649 1069.67 545.389
1565 0 68.2186 13.9258 950 57.4105 1068.9 544.749
1566 0 68.3105 13.5265 924 58.2922 1068.54 544.845
1567 0 71.3111 14.4438 1030 57.4544 1068.56 542.626
1568 0 73.1709 13.2293 968 59.0754 1068.71 543.317
1569 0 78.1389 15.2933 1195 56.1749 1069.15 542.01
1570 0 79.2022 13.2193 1047 59.1089 1068.99 541.655
1571 0 84.1203 13.873 1167 57.0857 1068.8 537.578
1572 0 86.2059 13.8274 1192 57.7701 1068.44 537.086
1573 1 45.081 11.0911 500 58.096 1068.48 556.716
1574 0 48.0667 11.38 547 56.9799 1068.1 558.029
1575 0 47.0686 10.7078 504 58.4802 1068.25 557.276
1576 0 50.0414 12.05 603 57.9668 1067.93 554.894
1577 0 50.0657 12.5835 630 57.246 1068.03 555.046
1578 0 50.2164 12.0279 604 60.6341 1067.69 556.561
1579 0 54.0772 12.7595 690 59.6899 1067.61 555.491
1580 0 55.1678 13.2505 731 59.3721 1067.41 554.367
1581 0 58.0998 12.9949 755 59.4119 1067.01 552.83
1582 0 60.1648 12.7816 769 59.6359 1067.12 552.257
1583 0 60.1068 12.7939 769 60.1886 1066.72 550.321
1584 0 65.1307 13.6802 891 57.8395 1066.84 548.808
1585 0 67.0828 12.7902 858 59.155 1066.63 547.565
1586 0 68.1664 13.1736 898 58.6013 1066.46 549.006
1587 0 72.099 13.745 991 58.2735 1066.18 545.746
1588 0 75.151 12.3485 928 59.3825 1065.64 545.922
1589 1 41.0271 11.0171 452 59.7788 1066.53 560.947
1590 0 42.0455 10.8216 455 59.8879 1066.04 560.943
1591 0 40.1302 10.9892 441 60.102 1065.78 561.145
1592 0 42.0893 12.2359 515 58.2078 1065.77 560.6
1593 0 44.1872 11.655 515 57.7417 1066.25 561.023
1594 0 45.077 12.645 570 57.3491 1066.11 558.516
1595 0 46.153 12.5236 578 57.7699 1066.39 558.28
1596 0 49.1372 12.577 618 57.0518 1066.14 559.081
1597 0 49.2257 12.9607 638 56.7147 1066.24 558.809
1598 0 51.169 12.234 626 58.0735 1065.71 557.072
1599 0 52.1244 12.662 660 57.6227 1065.85 555.661
1600 0 53.0399 12.4623 661 58.2012 1065.62 555.834
1601 0 55.0386 12.6457 696 57.8649 1065.8 554.714
1602 0 58.0429 13.4728 782 56.7532 1065.95 553.224
1603 0 60.1065 13.1766 792 57.3699 1066.4 551.413
1604 0 59.0331 13.0266 769 58.3069 1066.92 550.965
1605 0 63.131 13.274 838 57.3795 1066.54 549.434
1606 0 63.0482 13.5611 855 57.3368 1066.84 549.515
1607 0 66.1133 14.0214 927 56.2859 1067.81 547.683
1608 0 66.0607 12.0798 798 59.0589 1068 547.4
1609 1 36.0163 11.1616 402 59.0647 1067.96 564.127
1610 0 39.0726 12.1057 473 57.2051 1068.05 562.653
1611 0 38.0427 11.8025 449 58.0334 1068.34 562.53
1612 0 42.047 13.2947 559 55.0877 1067.8 563.002
1613 0 43.0392 13.0114 560 56.2839 1068.33 559.252
1614 0 44.0204 13.312 586 55.7287 1068.62 560.314
1615 0 44.0651 12.9127 569 57.2583 1069.06 559.673
1616 0 45.0792 14.1307 637 56.4662 1069.33 559.25
1617 0 47.0747 12.5545 591 58.8426 1069.65 557.663
1618 0 51.2001 14.2187 728 56.3613 1069.97 553.766
1619 0 53.1917 13.254 705 57.9149 1069.26 555.623
1620 0 54.1304 13.9478 755 57.7523 1069.45 554.679
1621 0 54.177 14.065 762 58.164 1069.7 552.648
1622 0 55.1693 14.5733 804 58.1007 1069.92 552.93
1623 0 58.239 15.299 891 57.0617 1070.41 550.611
1624 0 59.136 14.9148 882 57.2846 1070.58 551.661
1625 0 60.1347 14.85 893 57.8533 1071.29 549.592
1626 0 63.1277 14.6053 922 57.9458 1070.73 548.793
1627 0 64.1584 15.1344 971 57.8342 1071.31 546.748
1628 0 67.2261 14.4735 973 58.1737 1072.15 546.605
1629 0 72.2875 17.4719 1263 53.8139 1072.54 543.876
1630 1 34.1174 13.1311 448 61.3638 1070.87 560.326
1631 0 36.159 12.4174 449 61.6949 1070.6 562.058
1632 0 36.159 12.4174 449 173.78 1069.6 562.058
1633 0 38.2486 12.7325 487 62.692 1071.01 560.039
1634 0 40.2503 14.1614 570 61.2912 1071.25 558.419
1635 0 41.3524 14.4369 597 60.933 1071.17 558.633
1636 0 41.3524 14.4127 596 171.923 1070.18 558.725
1637 0 45.3492 14.8183 672 61.5685 1072.07 555.856
1638 0 46.3739 15.9141 738 60.6992 1072.6 555.15
1639 0 53.4688 16.1777 865 57.7954 1072.36 551.924
1640 0 55.3158 16.7945 929 56.9699 1072.83 552.309
1641 0 57.3634 16.2822 934 57.2912 1073.18 550.338
1642 0 57.4764 18.0596 1038 56.0019 1072.66 548.576
1643 0 58.3389 18.324 1069 56.5847 1072.41 550.818
1644 0 58.4839 17.15 1003 58.7627 1072.78 550.398
1645 0 59.2288 16.9006 1001 60.028 1072.2 548.629
1646 0 60.3058 16.0847 970 61.7031 1072 548.332
1647 0 61.3293 15.9467 978 62.8088 1072.29 550.014
1648 0 62.5396 16.1657 1011 62.8902 1072.71 548.482
1649 0 65.3287 17.1288 1119 61.5317 1071.71 549.408
1650 0 66.3479 15.6599 1039 63.8989 1071.54 548.15
1651 0 69.445 14.9471 1038 64.8882 1071.02 548.499
1652 0 70.4031 15.2976 1077 64.9499 1071.71 546.759
1653 0 73.4197 15.5816 1144 64.3628 1071.41 545.94
1654 0 77.3612 16.2226 1255 62.8064 1071.98 543.527
1655 0 78.6136 14.9592 1176 65.3291 1071.29 542.906
1656 0 78.6136 14.9338 1174 163.727 1070.28 542.826
1657 1 37.516 16.0731 603 64.9884 1070.13 562.182
1658 0 37.4901 15.6841 588 66.5816 1069.99 560.675
1659 0 38.4465 15.8922 611 66.7185 1069.68 560.092
1660 0 40.6163 16.7913 682 65.1554 1069.06 560.425
1661 0 40.4888 16.8936 684 66.2515 1069.41 558.675
1662 0 42.5845 16.7432 713 66.1711 1069.47 559.902
1663 0 44.5928 18.568 828 63.5362 1069.47 559.001
1664 0 44.5266 17.1583 764 66.0825 1070 557.852
1665 0 46.6647 16.2007 756 66.9722 1069.87 558.656
1666 0 47.6252 16.6298 792 67.1199 1069.54 555.534
1667 0 48.3797 16.6392 805 65.7342 1069.12 556.083
1668 0 51.8512 16.6823 865 64.6948 1069.18 554.005
1669 0 53.8328 15.994 861 64.8142 1069.14 554.055
1670 0 54.859 16.588 910 64.0363 1068.89 554.566
1671 0 58.688 17.2948 1015 62.4049 1068.86 552.994
1672 0 60.0634 16.8156 1010 62.6535 1068.63 553.367
1673 0 62.5344 17.5903 1100 61.3736 1068.66 552.608
1674 0 62.8624 16.6713 1048 63.1794 1068.81 550.763
1675 0 65.1052 17.2951 1126 62.1616 1068.48 550.79
1676 0 66.3092 17.3128 1148 62.6028 1068.39 549.79
1677 0 67.838 16.5394 1122 63.9706 1068.85 550.241
1678 0 68.586 16.9568 1163 64.4015 1068.88 548.992
1679 0 70.757 16.6344 1177 64.3976 1068.39 547.151
1680 0 73.7669 15.9015 1173 65.1517 1068.54 546.345
1681 0 76.9911 16.8591 1298 63.9723 1068.18 545.525
1682 1 33.0711 16.9634 561 66.6061 1067.88 565.07
1683 0 33.0711 16.8727 558 177.878 1067.9 565.111
1684 0 33.8704 17.1536 581 66.179 1067.47 564.165
1685 0 36.3598 17.3819 632 64.1013 1066.69 565.114
1686 0 36.9381 16.9743 627 65.8995 1067.08 563.177
1687 0 36.3276 16.2961 592 68.2162 1066.63 563.358
1688 0 37.1186 17.3498 644 67.2298 1067.02 563.104
1689 0 38.839 17.019 661 67.9516 1066.63 562.693
1690 0 39.8571 17.638 703 66.7383 1066.7 563.209
1691 0 40.2441 18.4375 742 67.0526 1066.55 562.174
1692 0 43.0401 18.2388 785 66.1631 1066.65 562.564
1693 0 44.3238 17.3496 769 68.264 1066.53 562.104
1694 0 43.3375 17.9752 779 68.62 1066.47 562.511
1695 0 45.4083 17.8822 812 69.2303 1066.06 559.34
1696 0 45.256 17.8319 807 69.8426 1066.14 559.862
1697 0 50.1917 17.9312 900 68.4478 1065.63 559.717
1698 0 51.3701 17.8508 917 68.6936 1065.91 559.152
1699 0 50.1884 17.6734 887 70.4825 1065.75 558.507
1700 0 52.6184 18.5106 974 68.7074 1065.54 559.182
1701 0 55.272 18.3999 1017 69.1377 1065.44 556.915
1702 0 56.6429 18.0252 1021 69.9471 1065.44 558.214
1703 0 58.2698 18.0883 1054 70.6992 1065.17 556.509
1704 0 60.412 17.8772 1080 71.1935 1065.15 554.728
1705 0 60.412 17.8607 1079 178.063 1065.14 554.696
1706 0 63.4925 18.0651 1147 71.6582 1065.52 555.051
1707 0 64.2304 17.9666 1154 72.5243 1065.26 553.464
1708 0 67.7707 18.1494 1230 71.5366 1065.32 553.88
1709 0 69.2583 18.2216 1262 72.0491 1065.4 551.856
1710 0 73.4319 18.6023 1366 70.5644 1065.18 550.436
1711 0 73.8104 17.1114 1263 73.0404 1065.02 549.146
1712 0 75.412 17.7425 1338 72.8513 1065.28 547.773
1713 0 79.4075 17.8825 1420 71.8577 1065.45 546.301
1714 0 80.6035 17.1581 1383 73.3037 1065.59 544.294
1715 1 37.1864 17.7215 659 69.7102 1066.1 566.259
1716 0 39.345 16.2409 639 72.2801 1066.16 564.612
1717 0 39.3208 17.4971 688 71.4419 1066.15 563.629
1718 0 40.5033 17.406 705 70.9007 1066.46 562.505
1719 0 43.5054 17.5151 762 70.1811 1066.01 562.419
1720 0 42.6669 16.664 711 72.5288 1066.1 561.526
1721 0 46.5644 17.8462 831 70.1841 1065.73 560.61
1722 0 48.2955 17.7863 859 69.9569 1065.82 559.746
1723 0 50.6212 17.7396 898 70.2606 1066.05 559.342
1724 0 49.9464 17.8191 890 70.8899 1066.41 557.188
1725 0 51.3463 18.0539 927 70.7357 1066.62 555.677
1726 0 54.7522 18.2641 1000 69.771 1067.08 557.345
1727 0 54.6521 16.9435 926 72.5205 1067.07 554.521
1728 0 57.5771 18.0975 1042 70.0777 1067.33 552.087
1729 0 61.8253 18.6979 1156 67.0986 1067.87 552.636
1730 0 62.4565 20.3181 1269 65.5343 1067.95 550.195
1731 0 63.7994 19.3889 1237 66.135 1068.38 549.568
1732 0 66.7994 19.3889 1237 66.135 1068.38 549.568
1733 0 68.7296 7.68227 528 87.1686 1066.23 417.176
1734 0 22.0255 12.3039 271 111.985 1064.85 394.443
1735 0 23.158 11.6158 269 120.606 1065.57 383.494
1736 0 21.0049 13.1398 276 128.533 1065.33 381.228
1737 0 22.0241 12.8041 282 133.741 1065.52 378.202
1738 0 20.0369 14.2737 286 136.402 1065.74 376.825
1739 0 24.0614 13.4656 324 133.102 1066.27 375.914
1740 0 22.0243 14.8926 328 133.777 1067.21 373.32
1741 0 22.3869 12.418 278 143.155 1067.26 324.076
1742 0 21.1792 13.551 287 149.028 1068.36 313.578
1743 0 23.3082 13.5575 316 144.272 1067.89 310.424
1744 0 22.2659 12.9795 289 148.612 1068.33 307.886
1745 0 23.7067 13.667 324 139.395 1069.31 304.312
1746 0 23.317 13.6381 318 146.547 1069.42 300.305
1747 0 23.3863 13.3839 313 146.665 1069.7 296.623
1748 0 25.2618 13.3403 337 138.801 1070.52 289.611
1749 0 26.2618 13.3403 337 138.801 1070.52 289.611
1750 0 27.0628 6.98377 189 70.1905 1072.67 540.132
1751 1 39.081 9.77458 382 68.3063 1072.74 546.683
1752 0 45.1177 12.5228 565 63.0496 1072.92 548.559
1753 0 46.1041 13.1225 605 62.3901 1072.65 546.554
1754 0 47.0351 12.0336 566 64.1148 1072.07 546.666
1755 0 50.1309 13.2254 663 61.638 1072.46 543.561
1756 0 50.1309 13.2254 663 155.487 1073.46 543.561
1757 0 54.0946 14.1973 768 59.6419 1072.36 531.229
1758 0 54.2913 13.2434 719 61.4367 1072.05 532.414
1759 0 55.1201 13.4252 740 61.9257 1072.08 530.899
1760 0 53.1819 12.7111 676 63.7855 1072.19 531.612
1761 0 54.0886 12.8863 697 63.198 1072.47 534.512
1762 0 54.0886 12.8678 696 153.21 1072.46 534.539
1763 0 59.0887 13.6574 807 61.6196 1072.26 534.923
1764 0 59.2856 12.6675 751 63.241 1072.3 534.848
1765 0 59.308 12.8145 760 62.9 1072.33 537.982
1766 0 62.3021 12.6159 786 62.7163 1072.13 539.905
1767 0 61.1575 12.5741 769 62.9155 1071.72 541.402
1768 0 67.2095 13.4207 902 61.092 1071.94 538.54
1769 0 68.3158 12.9253 883 61.3103 1071.97 539.238
1770 1 35.1356 11.1283 391 61.7033 1071.22 557.263
1771 0 37.0686 11.1955 415 61.4482 1071.11 557.077
1772 0 38.0426 10.4094 396 63.8737 1071.21 556.03
1773 0 38.1428 12.4794 476 61.8634 1071.29 555.372
1774 0 39.1949 10.5626 414 65.2609 1071.01 554.442
1775 0 42.1092 12.7051 535 61.8953 1070.95 553.682
1776 0 42.0329 13.2515 557 61.544 1070.82 554.451
1777 0 43.0561 13.2385 570 62.0351 1070.68 554.718
1778 0 42.1709 13.0659 551 64.0472 1071.32 554.599
1779 0 44.1261 12.6003 556 63.4424 1071.4 554.39
1780 0 47.0614 12.6643 596 63.1762 1071.22 554.012
1781 0 48.0956 12.9741 624 61.9984 1070.75 553.147
1782 0 49.0883 12.9766 637 62.5416 1070.56 551.76
1783 0 50.0866 14.2154 712 61.3596 1070.01 551.364
1784 0 50.0894 12.2381 613 63.9886 1069.79 551.152
1785 0 55.0613 13.7302 756 60.881 1069.27 551.029
1786 0 53.0734 11.55 613 64.4421 1069.86 550.075
1787 0 57.0618 13.3715 763 61.1809 1069.63 549.267
1788 0 58.1174 13.5416 787 61.3431 1069.89 547.274
1789 0 60.0548 13.5543 814 61.2297 1069.57 547.044
1790 0 60.1313 12.8386 772 62.5311 1068.91 547.532
1791 0 64.0744 13.4375 861 60.8688 1069.2 545.604
1792 0 64.1064 11.8085 757 63.0885 1069.29 543.535
1793 0 68.1159 12.9485 882 61.1315 1068.87 544.156
1794 0 70.1586 12.6855 890 61.4045 1068.36 541.72
1795 0 74.0812 12.8238 950 60.7821 1068.44 540.648
1796 1 41.0626 10.1065 415 62.6964 1068.75 556.036
1797 0 41.0987 11.3629 467 61.4968 1068.64 554.949
1798 0 46.1381 11.5306 532 61.1617 1068.4 553.82
1799 0 47.1107 12.1841 574 60.1568 1068.51 553.394
1800 0 47.0876 12.2113 575 60.6226 1068.67 552.884
1801 0 48.0593 12.3805 595 59.8958 1068.12 552.392
1802 0 50.0724 12.1025 606 60.2789 1068.37 551.5
1803 0 51.037 13.8135 705 58.7929 1068.51 552.468
1804 0 52.1243 12.9498 675 60.9437 1067.71 550.763
1805 0 54.0538 12.8761 696 60.6738 1067.71 550.662
1806 0 57.0754 13.7362 784 59.2003 1067.6 549.801
1807 0 58.0674 13.5877 789 59.1521 1068.12 550.146
1808 0 60.0745 13.683 822 59.2883 1068.07 547.725
1809 0 61.0814 13.0645 798 60.1779 1068.1 547.148
1810 0 64.0471 13.9897 896 58.5625 1067.34 546.977
1811 0 66.0355 14.2045 938 58.6098 1067.38 545.667
1812 0 69.0568 13.8437 956 58.9738 1066.93 544.545
1813 0 70.0491 14.2614 999 58.6707 1067.06 544.152
1814 0 71.0707 14.0705 1000 59.454 1067.29 542.608
1815 0 74.1141 13.5062 1001 59.9371 1066.92 541.48
1816 0 76.1224 13.8724 1056 60.0398 1067.08 538.263
1817 0 81.1679 14.3406 1164 58.7302 1067.03 538.583
1818 0 82.0801 13.036 1070 61.1888 1066.95 536.224
1819 1 41.048 9.93959 408 61.5686 1067.24 558.716
1820 0 44.1176 11.9227 526 59.9087 1066.79 556.333
1821 0 44.1341 12.2354 540 61.7537 1067.65 556.522
1822 0 46.0831 12.434 573 61.5497 1067.77 555.996
1823 0 49.0588 13.229 649 59.6579 1068.32 555.898
1824 0 50.0421 13.029 652 60.8926 1068.18 555.396
1825 0 50.0846 12.6187 632 61.962 1068.62 554.399
1826 0 54.0909 12.6269 683 61.2152 1068.28 553.9
1827 0 54.0763 13.3885 724 61.2901 1068.19 550.927
1828 0 58.1334 13.0218 757 61.5456 1068.58 550.408
1829 0 56.1018 13.2081 741 62.6343 1068.61 550.502
1830 0 62.1128 13.9102 864 60.2396 1068.7 550.718
1831 0 63.0904 14.186 895 60.133 1069.52 550.103
1832 0 63.0938 13.2818 838 62.2566 1069.21 547.233
1833 0 65.1282 13.8189 900 61.7122 1069.3 546.438
1834 0 65.1282 13.8803 904 165.525 1069.32 546.478
1835 0 69.0889 13.9965 967 61.9286 1069.15 543.553
1836 0 73.1586 13.1769 964 61.638 1069.13 544.407
1837 0 75.2158 13.3217 1002 61.4591 1069.47 543.341
1838 0 76.1336 14.1068 1074 61.2095 1069.93 541.842
1839 0 81.1484 14.1716 1150 60.4513 1070.16 541.716
1840 0 83.285 13.4478 1120 61.2759 1070.36 539.023
1841 0 86.1433 13.8026 1189 60.8713 1070.48 535.339
1842 1 49.0602 10.8438 532 61.4398 1071.37 556.712
1843 0 47.1158 10.8456 511 61.7828 1071.49 556.937
1844 0 51.1131 12.1691 622 60.8376 1071.44 554.182
1845 0 53.1112 12.5021 664 60.7831 1071.41 552.626
1846 0 56.1602 13.7286 771 58.5292 1072 552.899
1847 0 56.315 12.7142 716 60.2626 1071.82 550.404
1848 0 56.0824 12.9809 728 60.4574 1071.6 549.312
1849 0 60.2978 12.4051 748 59.6297 1072.3 548.17
1850 0 62.0468 13.5543 841 58.0999 1072.39 547.083
1851 0 63.1976 13.5606 857 58.3361 1072.5 545.859
1852 0 66.2025 12.6279 836 59.1543 1072.7 543.622
1853 0 69.1851 12.3292 853 57.7339 1072.87 542.741
1854 0 71.3618 13.0462 931 56.7111 1073.08 541.433
1855 0 73.11 13.1446 961 56.6139 1073.18 539.936
1856 0 75.2226 12.0177 904 57.7102 1073.18 539.498
1857 0 79.289 13.2175 1048 55.9208 1072.48 538.271
1858 0 81.1577 13.6155 1105 55.7222 1071.94 536.8
1859 0 84.1155 14.6109 1229 54.1953 1071.73 535.388
1860 0 87.2341 13.0568 1139 56.0738 1071.77 531.548
1861 1 43.1614 10.7272 463 56.73 1071.8 555.434
1862 0 44.1879 8.80332 389 58.2828 1071.33 555.352
1863 0 46.1522 11.7004 540 56.6 1070.77 553.365
1864 0 47.2178 12.1776 575 56.6417 1070.97 553.633
1865 0 49.2764 11.5268 568 57.7289 1071.18 552.754
1866 0 53.1758 13.051 694 55.7046 1071.43 549.828
1867 0 54.0862 12.7204 688 56.3794 1071.84 549.751
1868 0 55.179 13.6465 753 55.4927 1071.5 548.251
1869 0 56.0897 13.7637 772 55.4469 1071.4 547.904
1870 0 59.0428 12.9059 762 55.6758 1070.75 549.665
1871 0 61.1284 13.4962 825 54.4303 1070.57 548.629
1872 0 61.1865 13.4997 826 55.184 1070.02 545.155
1873 0 62.1822 13.2996 827 55.3096 1069.7 545.156
1874 0 66.088 12.9524 856 55.3808 1069.73 543.696
1875 0 69.134 13.7993 954 54.0985 1069.52 544.087
1876 0 71.1897 13.6537 972 54.2459 1069.8 543.919
1877 0 71.076 13.5067 960 55.1969 1069.31 541.959
1878 0 74.1182 13.6674 1013 55.1767 1069.74 542.225
1879 0 74.1837 13.48 1000 55.987 1069.34 540.965
1880 0 80.1311 13.6651 1095 55.5251 1069.98 541.299
1881 0 81.1923 15.765 1280 53.832 1069.74 537.619
1882 0 84.1366 13.8465 1165 56.2275 1069.6 536.361
1883 0 86.1847 12.8793 1110 57.9946 1068.85 535.468
1884 0 90.1139 13.4496 1212 56.7327 1068.51 535.919
1885 0 90.1139 13.4607 1213 169.792 1068.51 535.894
1886 1 50.2551 11.4018 573 57.9058 1068.21 556.497
1887 0 50.1281 13.1463 659 56.8179 1068.7 553.947
1888 0 52.0758 13.1731 686 56.1604 1068.56 553.27
1889 0 54.1376 13.4287 727 56.0908 1068.04 553.283
1890 0 55.0768 13.1271 723 57.2752 1067.06 550.322
1891 0 56.0666 12.1463 681 59.091 1068.04 550.78
1892 0 59.1479 13.424 794 57.2834 1067.57 549.063
1893 0 58.2069 14.1564 824 56.9235 1067.93 549.911
1894 0 62.2037 12.9414 805 57.8286 1067.49 548.65
1895 0 64.2264 12.8452 825 57.6691 1067.51 547.581
1896 0 66.2319 14.0718 932 56.4925 1067.48 546.662
1897 0 68.3856 12.7512 872 57.6846 1066.91 546.857
1898 0 70.2728 13.348 938 57.5266 1067.16 546.351
1899 0 72.2629 13.2156 955 57.5634 1066.9 545.504
1900 0 74.3182 13.9401 1036 56.8253 1066.79 544.96
1901 0 77.2251 14.7491 1139 55.2555 1066.21 542.807
1902 0 78.2618 12.7265 996 58.0572 1066.71 541.945
1903 0 82.3004 13.6694 1125 57.144 1066.74 540.09
1904 0 84.3152 13.8884 1171 56.7839 1066.11 538.907
1905 0 87.2142 13.6331 1189 57.1362 1066.29 536.207
1906 0 91.3577 13.9561 1275 56.2824 1066.1 536.544
1907 0 93.4183 14.0229 1310 56.4954 1066.11 534.425
1908 1 48.1059 11.1213 535 58.2056 1065.86 557.852
1909 0 50.166 10.7443 539 57.4583 1065.58 558.278
1910 0 50.0904 10.9801 550 57.3855 1065.68 557.009
1911 0 53.1969 13.1775 701 56.1041 1065.31 550.82
1912 0 56.0566 12.8977 723 55.8257 1065.66 549.968
1913 0 57.0699 12.2131 697 57.5796 1065.65 545.195
1914 0 58.0372 12.3197 715 57.8406 1065.43 547.345
1915 0 58.0372 12.268 712 171.93 1065.42 547.382
1916 0 62.0444 12.8134 795 57.4755 1065.29 541.975
1917 0 63.1243 12.4516 786 58.4058 1065.41 543.492
1918 0 66.0639 13.0934 865 57.6266 1065.3 543.193
1919 0 68.0284 12.6124 858 59.3986 1065.4 541.851
1920 0 70.0961 12.811 898 59.2695 1066.63 545.798
1921 0 69.0832 12.7093 878 60.098 1065.72 542.24
1922 0 76.2147 13.79 1051 57.7079 1065.69 545.757
1923 0 79.0674 13.7098 1084 58.0544 1065.74 543.255
1924 0 81.0633 13.1749 1068 59.22 1065.57 541.464
1925 0 84.1155 14.6346 1231 57.7141 1065.46 540.357
1926 1 44.201 9.68304 428 60.8201 1065.63 560.638
1927 0 47.0995 11.6349 548 58.7318 1065.31 560.093
1928 0 47.0752 10.5151 495 60.5778 1065.97 559.806
1929 0 49.2683 11.6099 572 59.7535 1066.14 557.671
1930 0 53.0631 12.1742 646 58.2477 1066.01 558.675
1931 0 54.1276 12.8216 694 57.755 1065.82 555.729
1932 0 54.1182 12.1586 658 58.8982 1065.69 554.985
1933 0 56.1307 13.7536 772 57.237 1065.38 552.294
1934 0 59.1194 12.6016 745 57.7329 1065.25 551.992
1935 0 59.1079 12.5364 741 58.4157 1065.52 550.914
1936 0 62.1852 12.4145 772 57.8666 1065.32 549.275
1937 0 64.1588 12.1885 782 58.1151 1065.42 549.857
1938 0 67.0879 12.8935 865 56.5364 1065.91 549.962
1939 0 69.1841 13.11 907 56.5259 1066.22 547.96
1940 0 68.1183 11.9645 815 58.5656 1066.64 545.539
1941 0 70.0883 12.7125 891 58.6139 1066.27 545.797
1942 0 74.1922 12.198 905 58.4287 1065.64 544.762
1943 0 78.1142 13.3522 1043 56.7239 1065.84 543.424
1944 0 80.1772 13.5824 1089 55.5179 1065.63 542.039
1945 0 82.2424 12.6091 1037 56.0636 1065.94 540.827
1946 1 46.1216 10.494 484 57.3182 1066.72 557.494
1947 0 48.1012 10.8313 521 56.8234 1066.54 556.944
1948 0 48.0797 10.857 522 56.5383 1066.19 556.142
1949 0 49.123 10.7689 529 57.4461 1066.39 556.673
1950 0 51.2614 12.1729 624 57.0849 1066.41 554.865
1951 0 54.1524 12.5756 681 55.8003 1067 553.186
1952 0 55.126 12.3172 679 56.0295 1066.85 554.426
1953 0 57.2628 13.7262 786 55.4758 1066.99 552.158
1954 0 58.1288 12.9368 752 55.8178 1067.64 550.279
1955 0 60.226 13.0675 787 55.7103 1067.96 548.858
1956 0 60.1469 12.935 778 56.5977 1067.86 546.693
1957 0 63.1455 12.78 807 56.2986 1068.04 544.779
1958 0 64.1327 12.8484 824 56.665 1068.04 547.575
1959 0 65.2075 13.5874 886 55.9932 1067.61 545.951
1960 0 68.1133 13.5216 921 56.0195 1068.2 543.956
1961 0 71.3904 13.4052 957 55.9969 1068.97 542.634
1962 0 71.3904 13.4192 958 160.897 1069.96 542.614
1963 0 77.0799 13.9855 1078 55.1772 1068.7 541.036
1964 0 78.2219 13.0654 1022 56.7388 1069.68 541.062
1965 0 79.1642 12.733 1008 57.2321 1070.37 537.174
1966 0 83.2566 13.4764 1122 55.6782 1070.02 538.899
1967 0 86.2196 13.8252 1192 55.0126 1070.07 537.664
1968 0 88.4428 12.9462 1145 56.3764 1070.66 533.472
1969 0 93.3655 13.3454 1246 55.2945 1070.48 532.945
1970 0 95.3296 13.9621 1331 55.0932 1070.59 529.572
1971 1 50.1895 11.7355 589 55.7946 1070.38 552.402
1972 0 53.1597 10.9858 584 55.5908 1070.12 552.897
1973 0 52.3398 12.2087 639 55.0751 1070.57 549.613
1974 0 54.1079 11.1998 606 56.6155 1070.9 548.066
1975 0 58.2379 12.6206 735 54.732 1070.91 549.067
1976 0 58.1805 12.2893 715 55.6657 1071.55 545.014
1977 0 61.1595 12.6391 773 55.5524 1071.59 546.384
1978 0 64.0396 12.2112 782 55.0921 1072.15 546.185
1979 0 63.1162 12.3898 782 54.6598 1072.38 544.825
1980 0 67.1025 12.7864 858 54.5245 1072.71 542.265
1981 0 69.2173 12.4969 865 54.6474 1073.37 542.384
1982 0 71.0997 13.2209 940 54.1106 1073.18 538.294
1983 0 73.22 12.2917 900 54.78 1072.97 540.662
1984 0 76.1881 13.9392 1062 52.7401 1072.74 539.781
1985 0 80.161 14.1465 1134 52.5247 1072.51 538.234
1986 0 82.1702 13.0583 1073 53.9478 1072.62 535.102
1987 0 83.2461 12.8895 1073 54.2945 1072.3 534.249
1988 0 88.124 13.3108 1173 53.48 1072.39 534.285
1989 1 47.0413 11.5218 542 53.4059 1071.89 554.417
1990 0 44.1238 11.785 520 53.9192 1072.13 554.681
1991 0 47.0994 10.7857 508 54.5709 1072.03 551.783
1992 0 50.1042 11.8753 595 53.4655 1072.45 551.842
1993 0 52.205 11.8763 620 53.2323 1072.3 550.736
1994 0 53.1087 12.5027 664 52.0467 1072.17 550.211
1995 0 54.0401 12.8053 692 53.013 1072.11 547.902
1996 0 55.1165 11.8295 652 53.3896 1072.41 549.364
1997 0 57.0528 11.9889 684 53.4927 1071.74 548.212
1998 0 57.045 12.7268 726 53.1832 1071.34 547.54
1999 0 60.0494 12.906 775 53.1897 1071.16 545.423
2000 0 64.1472 13.5002 866 51.9457 1071.72 543.616
2001 0 65.0866 13.3975 872 51.9748 1071.06 544.116
2002 0 67.0281 13.3228 893 51.9832 1070.75 543.296
2003 0 67.0281 13.278 890 144.053 1069.76 543.311
2004 0 72.2059 13.3923 967 51.4798 1070.83 541.834
2005 0 75.062 13.5888 1020 52.2539 1070.89 539.218
2006 0 76.0587 13.0951 996 52.4307 1070.87 538.837
2007 0 78.0391 13.3907 1045 52.1952 1070.59 535.483
2008 0 81.2695 13.4737 1095 51.9014 1071.03 536.007
2009 0 84.0782 13.0236 1095 52.4046 1070.42 536.493
2010 0 85.2576 12.257 1045 53.5311 1070.27 533.506
2011 1 43.0935 9.72304 419 53.5752 1070.9 555.902
2012 0 45.0785 10.0269 452 53.1482 1070.33 555.644
2013 0 47.086 8.60128 405 53.6123 1070.2 557.257
2014 0 48.0193 12.0993 581 51.3976 1069.63 555.203
2015 0 51.0729 12.9031 659 51.3657 1068.97 551.247
2016 0 51.122 10.6608 545 53.5376 1069.57 552.44
2017 0 53.1033 12.391 658 52.7644 1069.4 550.082
2018 0 54.0482 12.3038 665 52.7699 1068.94 550.283
2019 0 58.0897 12.5668 730 52.4452 1069.03 549.89
2020 0 60.0994 13.7938 829 50.8287 1069.04 548.515
2021 0 61.1321 13.5935 831 51.1504 1069 547.131
2022 0 64.1795 13.0104 835 52.1748 1068.59 546.565
2023 0 65.0843 13.7975 898 51.8953 1068.49 544.638
2024 0 68.1228 13.094 892 52.4327 1068.43 545.447
2025 0 69.0982 12.8802 890 53.2034 1068.29 543.601
2026 0 70.1049 12.6953 890 53.5303 1068.02 544.083
2027 0 73.1933 12.7607 934 53.0428 1068.52 542.412
2028 0 76.2053 13.5424 1032 52.5514 1068.29 541.977
2029 0 80.1912 13.5551 1087 52.356 1068.61 539.62
2030 0 83.3619 14.2151 1185 51.3857 1068.18 537.834
2031 1 44.2428 11.3691 503 53.0875 1067.93 557.511
2032 0 44.2428 11.3465 502 153.91 1067.95 557.492
2033 0 44.1829 10.2076 451 54.5455 1067.41 556.989
2034 0 45.214 9.7315 440 54.725 1066.79 557.832
2035 0 47.1494 10.6046 500 53.634 1066.64 558.466
2036 0 50.217 12.5256 629 52.8235 1067.07 554.889
2037 0 53.1013 12.994 690 52.0884 1066.88 554.828
2038 0 52.2256 11.9099 622 53.7379 1067.04 553.72
2039 0 54.0886 11.8509 641 53.7832 1067.06 554.103
2040 0 56.1001 13.3333 748 52.0388 1067.78 552.551
2041 0 58.1239 12.3701 719 53.0584 1067.99 552.847
2042 0 61.0924 13.0458 797 52.202 1067.32 550.824
2043 0 61.073 12.7716 780 53.268 1067.01 551.067
2044 0 64.0556 12.9263 828 52.8213 1067.27 549.047
2045 0 66.1156 14.0511 929 51.9171 1066.97 549.142
2046 0 69.0674 12.7701 882 52.8231 1067.02 548.094
2047 0 70.1973 13.0205 914 52.8621 1066.9 546.919
2048 0 71.0673 12.6218 897 53.4827 1066.56 545.873
2049 0 74.0962 12.6997 941 54.2104 1066.94 544.201
2050 0 75.0591 12.5768 944 54.035 1066.9 544.524
2051 0 80.1145 13.0688 1047 53.0229 1066.6 542.748
2052 0 83.0566 14.7128 1222 51.365 1066.68 540.301
2053 0 84.1454 12.9894 1093 53.7548 1066.88 539.351
2054 1 49.1071 11.3018 555 56.9279 1066.15 557.184
2055 0 51.3281 10.0725 517 57.2998 1065.91 558.215
2056 0 51.1518 10.7328 549 57.0765 1066.2 557.745
2057 0 53.1655 11.5865 616 56.7419 1065.88 554.333
2058 0 54.0842 11.9998 649 56.7642 1066.31 554.264
2059 0 57.216 11.5527 661 57.2557 1066.48 553.468
2060 0 57.1246 12.0964 691 57.4399 1066.44 551.784
2061 0 59.0436 12.8888 761 57.18 1066.16 549.318
2062 0 62.0369 12.2991 763 57.325 1066.39 538.587
2063 0 64.0456 12.616 808 57.3787 1067.07 531.775
2064 0 66.1146 12.191 806 58.1278 1066.45 534.576
2065 0 66.0429 12.0376 795 59.4981 1066.51 533.543
2066 0 69.0749 13.1162 906 57.915 1066.72 535.988
2067 0 71.0711 13.2403 941 58.6716 1066.93 534.746
2068 0 74.1335 13.0171 965 59.3938 1066.43 536.654
2069 0 74.1707 12.9836 963 59.7155 1066.24 539.463
2070 0 78.1558 13.6266 1065 59.4798 1066.54 540.068
2071 0 80.1272 13.6783 1096 60.0164 1066.87 539.726
2072 0 81.1234 12.5364 1017 62.9774 1066.76 538.787
2073 0 83.1313 13.6411 1134 61.328 1067.01 539.015
2074 0 86.1725 13.3337 1149 62.9661 1067 532.501
2075 0 90.1533 13.7987 1244 62.9518 1067.28 535.444
2076 1 49.0399 11.0318 541 63.3863 1067.29 560.446
2077 0 51.0811 10.9238 558 63.6523 1067.91 558.668
2078 0 53.1977 11.7486 625 63.6848 1068.2 555.723
2079 0 53.226 11.2727 600 63.745 1067.78 557.565
2080 0 54.175 12.515 678 64.1637 1068.55 552.941
2081 0 57.1119 12.3792 707 63.0552 1068.39 552.692
2082 0 57.0381 12.3952 707 64.1952 1068.83 552.051
2083 0 57.0381 12.3777 706 160.979 1069.82 552.098
2084 0 63.1119 13.3889 845 62.5775 1068.66 548.576
2085 0 63.1321 13.2104 834 63.1331 1068.61 548.608
2086 0 64.0625 13.0341 835 62.9581 1068.88 547.759
2087 0 67.1071 12.9644 870 62.7609 1068.76 547.267
2088 0 68.1799 12.5697 857 63.4259 1069.22 547.114
2089 0 69.2008 12.5432 868 63.5518 1069.58 544.296
2090 0 70.1768 12.9245 907 63.355 1070.72 542.581
2091 0 74.2013 13.6116 1010 61.4089 1070.56 543.187
2092 0 78.1249 13.2352 1034 62.06 1070.81 541.003
2093 0 77.1738 13.2947 1026 62.6706 1070.86 538.652
2094 0 79.1737 12.9462 1025 63.4244 1070.87 536.718
2095 0 83.1883 13.0187 1083 62.6297 1070.56 535.303
2096 0 86.2154 13.5127 1165 61.6043 1070.41 533.616
2097 0 89.0951 12.8514 1145 62.8201 1070.26 531.348
2098 1 45.0943 10.7774 486 63.1893 1070.76 552.874
2099 0 49.0301 12.1354 595 61.237 1070.88 551.008
2100 0 48.0605 12.2762 590 61.7203 1070.59 552.259
2101 0 52.1076 12.0712 629 62.0175 1071.81 553.157
2102 0 53.0495 12.9125 685 61.3635 1071.48 551.45
2103 0 52.1192 11.8191 616 63.5049 1071.73 550.765
2104 0 56.1676 13.709 770 60.0545 1072.13 550.921
2105 0 58.1166 13.0944 761 61.0499 1072.55 549.045
2106 0 58.035 12.9405 751 61.1438 1072.05 550.083
2107 0 62.1326 13.1815 819 60.1807 1072.68 548.266
2108 0 62.1561 13.4017 833 59.8079 1072.39 547.682
2109 0 64.2478 12.4829 802 61.1334 1072.28 546.458
2110 0 64.0463 12.1943 781 61.598 1072.06 544.91
2111 0 67.2594 13.7379 924 59.5768 1072.1 544.241
2112 0 68.2896 14.1164 964 58.7376 1072.52 543.497
2113 0 71.1337 13.5519 964 59.1764 1072.15 539.416
2114 0 71.1337 13.5519 964 149.502 1071.15 539.416
2115 0 78.1288 13.5033 1055 57.8635 1072.28 539.003
2116 0 78.1031 13.5846 1061 56.9755 1072.26 536.602
2117 0 80.2587 12.9581 1040 57.5221 1072.71 535.736
2118 0 85.1695 14.0778 1199 55.648 1072.71 536.651
2119 1 43.0671 9.98441 430 58.9395 1072.63 556.9
2120 0 47.1588 11.2386 530 57.6887 1071.85 553.949
2121 0 48.1389 11.9446 575 56.6504 1071.69 553.958
2122 0 52.2318 12.3488 645 56.0884 1071.73 551.239
2123 0 50.0435 11.45 573 57.3002 1071.53 554.014
2124 0 54.0556 12.6906 686 56.8003 1071.7 550.727
2125 0 52.0648 12.1771 634 57.7208 1070.96 552.707
2126 0 55.1084 13.0652 720 55.9264 1070.65 550.776
2127 0 57.0774 13.1926 753 55.9548 1070.36 549.376
2128 0 58.2582 13.1999 769 55.857 1069.82 548.116
2129 0 61.0458 13.4981 824 55.5922 1070 547.812
2130 0 64.1294 13.6911 878 55.4954 1069.46 544.825
2131 0 64.1443 12.9552 831 56.6956 1069.8 546.179
2132 0 68.1309 14.0171 955 55.912 1069.95 542.286
2133 0 69.2167 13.3638 925 56.9611 1069.54 542.693
2134 0 72.1943 14.461 1044 55.9866 1069.57 541.04
2135 0 75.2432 13.7022 1031 56.5276 1069.27 539.496
2136 0 79.1515 14.327 1134 55.8633 1069.55 540.597
2137 0 81.1655 13.3062 1080 56.5343 1069.53 540.351
2138 0 86.1664 15.2612 1315 54.5627 1070 536.91
2139 0 88.0738 14.8398 1307 55.365 1069.78 534.823
2140 1 45.0914 11.1551 503 59.0954 1068.67 555.346
2141 0 48.1314 12.1958 587 58.8722 1068.57 553.438
2142 0 52.1833 12.8585 671 57.9732 1068.42 551.523
2143 0 52.0679 11.6387 606 59.2046 1068.45 548.955
2144 0 55.11 13.5366 746 57.3096 1068.56 547.908
2145 0 55.1592 12.5636 693 58.6797 1068.4 550.996
2146 0 56.0739 12.4657 699 59.5393 1068.53 550.225
2147 0 58.0961 13.9424 810 57.5506 1068.44 547.382
2148 0 61.1078 12.8789 787 58.5972 1068.91 549.24
2149 0 62.1601 14.0122 871 58.1297 1068.5 546.412
2150 0 64.2157 13.112 842 59.69 1068.55 545.519
2151 0 67.3921 14.2747 962 59.1071 1068.56 544.189
2152 0 68.1297 14.1935 967 60.1148 1068.47 542.77
2153 0 70.1789 14.0783 988 60.2571 1068.18 543.358
2154 0 71.2553 13.2622 945 62.2529 1068.26 540.898
2155 0 74.3033 14.4274 1072 60.7062 1068.04 539.905
2157 0 76.4597 13.772 1053 61.9136 1067.15 538.099
2158 0 79.2311 14.1737 1123 61.3624 1067.42 538.791
2159 0 82.3387 13.8453 1140 62.2351 1067.32 536.156
2160 0 84.3054 13.4037 1130 63.6221 1067.61 534.869
2161 1 46.1669 12.3465 570 61.9702 1067.41 555.526
2162 0 44.0769 11.548 509 64.4067 1067.15 555.623
2163 0 50.1457 12.5833 631 63.5626 1067.36 554.658
2164 0 53.1229 13.9676 742 60.9555 1067.41 554.396
2165 0 53.1083 13.9903 743 63.4993 1066.85 553.887
2166 0 56.0625 13.5741 761 63.3876 1067.22 554.264
2167 0 55.1524 12.7284 702 66.188 1067.12 553.499
2168 0 59.1884 13.9217 824 62.875 1066.87 552.461
2169 0 60.033 13.8591 832 63.8065 1066.91 551.162
2170 0 63.0913 13.6152 859 63.5355 1066.45 550.46
2171 0 64.0363 13.5392 867 63.1557 1066.58 550.174
2172 0 67.0832 14.4298 968 61.8481 1066.62 548.855
2173 0 68.0801 14.7914 1007 61.6028 1066.43 547.346
2174 0 71.1291 14.0871 1002 62.1238 1066.11 546.38
2175 0 72.1019 13.7583 992 63.746 1066.85 545.451
2176 0 76.0575 13.9894 1064 61.4173 1066.44 543.318
2177 0 78.0624 14.2066 1109 61.6997 1066.46 542.882
2178 0 80.1722 13.708 1099 62.2393 1066.54 540.664
2179 0 82.0726 13.9267 1143 61.7043 1066.38 538.968
2180 1 41.0448 10.0622 413 64.138 1065.86 561.102
2181 0 42.2313 10.9161 461 63.0434 1065.41 560.143
2182 0 44.0827 10.934 482 62.8361 1065.37 558.647
2183 0 46.18 12.2997 568 60.7694 1065.3 556.982
2184 0 46.127 11.9886 553 61.6239 1065.88 555.047
2185 0 47.0462 11.9032 560 61.2679 1066.57 555.845
2186 0 52.0669 12.2919 640 60.2203 1066.27 554.856
2187 0 52.0772 13.5952 708 58.9378 1066.88 553.34
2188 0 54.0676 14.2414 770 58.1597 1067 552.444
2189 0 56.2427 14.9175 839 56.8808 1067.34 552.017
2190 0 59.09 13.3525 789 58.2345 1067.02 552
2191 0 59.1186 13.7182 811 58.2861 1067.64 550.169
2192 0 61.1037 13.5998 831 59.2166 1067.47 548.308
2193 0 64.2786 12.8814 828 59.3563 1067.49 549.966
2194 0 67.2068 14.2843 960 57.1823 1068.21 547.116
2195 0 68.1818 13.728 936 58.7778 1067.96 546.233
2196 0 68.2254 13.514 922 59.0488 1068.43 540.432
2197 0 72.2376 13.5248 977 58.4002 1068.69 540.697
2198 0 75.1828 13.8729 1043 58.4152 1068.68 539.14
2199 0 77.1567 14.1919 1095 57.6219 1068.66 539.092
2200 0 79.2608 13.0834 1037 59.4937 1069.03 536.022
2201 0 82.212 14.3167 1177 57.8071 1069.34 535.053
2202 0 84.0723 13.8928 1168 58.6738 1069.69 536.179
2203 0 87.1291 14.117 1230 58.6309 1070 534.08
2204 1 48.0855 11.5419 555 59.8396 1069.95 554.285
2205 0 48.033 11.1798 537 61.4562 1070.26 552.667
2206 0 50.0359 9.67306 484 62.1467 1070.36 554.124
2207 0 51.1804 11.3911 583 61.0978 1070.81 554.081
2208 0 55.0667 12.4395 685 59.1693 1071.22 549.669
2209 0 57.0457 13.5856 775 58.2219 1072.41 548.317
2210 0 59.1017 13.2483 783 58.4406 1072.57 549.637
2211 0 59.0896 12.9126 763 59.8178 1072.07 549.168
2212 0 63.1102 13.0882 826 58.5218 1072.06 546.268
2213 0 63.0956 11.332 715 61.2853 1072.29 547.123
2214 0 66.0844 12.9229 854 58.8817 1072.1 546.038
2215 0 70.0872 12.7413 893 59.2721 1071.9 544.542
2216 0 72.2376 12.8742 930 58.7011 1072.24 544.01
2217 0 74.1127 13.2906 985 57.9604 1072.53 541.201
2218 0 74.1077 12.0365 892 60.0482 1072.51 541.86
2219 1 41.04 10.1121 415 59.988 1072.11 557.704
2220 0 42.0145 10.5678 444 58.9234 1071.89 557.496
2221 0 44.1953 12.5126 553 57.9042 1071.7 555.448
2222 0 45.0934 12.1304 547 58.8154 1072.29 554.495
2223 0 47.1148 11.143 525 60.0476 1072.41 554.966
2224 0 50.0958 12.5959 631 57.6656 1073.21 554.301
2225 0 49.0486 12.1104 594 59.9933 1072.86 553.916
2226 0 52.1889 13.317 695 58.8604 1072.49 551.105
2227 0 54.1516 12.9821 703 59.0085 1072.54 551.669
2228 0 54.0917 12.0536 652 61.0537 1072.52 550.867
2229 0 57.1495 13.141 751 60.5233 1072.79 548.088
2230 0 58.0896 12.3258 716 62.4176 1072.24 547.616
2231 0 60.0915 12.9636 779 61.9089 1072.24 547.733
2232 0 63.1344 13.495 852 60.5622 1072.42 547.265
2233 0 63.1922 13.0871 827 61.8851 1072.42 545.475
2234 0 65.2224 13.2623 865 62.0532 1071.3 544.897
2235 0 67.1508 13.224 888 62.4144 1071.54 542.888
2236 0 68.285 11.8474 809 64.1422 1071.62 542.839
2237 0 73.1995 13.0192 953 62.0588 1071.3 540.444
2238 0 74.222 13.756 1021 61.1381 1070.95 538.364
2239 0 77.3954 13.0757 1012 61.917 1070.66 538.64
2240 0 80.2233 13.0885 1050 62.1238 1071.46 536.568
2241 1 41.1019 9.73192 400 63.095 1070.73 556.178
2242 0 42.1466 11.0804 467 62.045 1070.81 554.662
2243 0 45.1423 11.0761 500 61.178 1070.88 554.3
2244 0 47.2721 11.9944 567 59.7231 1071.37 552.543
2245 0 47.1825 11.8688 560 59.7946 1070.43 552.6
2246 0 50.1287 12.049 604 59.8444 1070.92 553.442
2247 0 52.1357 12.9086 673 58.8083 1071.43 553.162
2248 0 51.1681 12.9768 664 59.488 1071.39 551.762
2249 0 54.1248 13.6167 737 58.2836 1070.77 551.356
2250 0 55.0394 13.245 729 58.7229 1071.25 551.649
2251 0 55.1031 13.4838 743 58.9421 1071.04 550.051
2252 0 57.0724 14.0698 803 57.4533 1071.44 550.57
2253 0 59.1788 13.1973 781 58.2458 1071.52 548.339
2254 0 59.0833 13.371 790 58.3671 1070.88 548.416
2255 0 63.0843 13.8703 875 57.5051 1070.85 548.239
2256 0 62.1151 13.7487 854 58.1206 1070.87 547.174
2257 0 63.0859 13.3627 843 58.3606 1071 545.938
2258 0 67.1401 13.7027 920 57.225 1071.02 545.933
2259 0 69.0847 14.0986 974 56.3203 1070.52 545.532
2260 0 71.1201 14.1591 1007 56.5015 1070.52 543.44
2261 0 74.1387 15.0664 1117 55.3107 1070.94 543.177
2262 0 74.1877 14.0455 1042 56.9808 1070.57 542.14
2263 0 76.1128 13.2435 1008 58.0496 1070.21 540.976
2264 0 80.2836 13.826 1110 56.764 1070.68 540.595
2265 0 81.1332 13.8661 1125 57.1076 1070.91 537.37
2266 0 86.1897 14.5145 1251 55.9049 1071.29 537.554
2267 0 88.3619 14.9046 1317 55.5596 1070.84 535.218
2268 0 93.1986 14.2599 1329 55.3025 1071.16 536.452
2269 1 47.2307 10.9463 517 57.2998 1070.43 557.514
2270 0 51.27 11.9758 614 55.8892 1070.58 555.769
2271 0 52.1982 10.5942 553 57.6004 1070.43 555.76
2272 0 54.3187 11.8928 646 56.7585 1070.55 554.788
2273 0 57.3814 12.9659 744 55.996 1070.51 551.851
2274 0 58.2316 13.1029 763 56.2451 1070.59 548.792
2275 0 61.184 13.5656 830 56.594 1070.53 547.834
2276 0 63.2627 12.7089 804 56.9241 1070.44 549.016
2277 0 63.2627 12.7089 804 154.697 1070.44 549.016
2278 0 63.2627 12.7089 804 154.305 1070.44 549.016
2279 0 70.3184 14.221 1000 54.992 1070.37 544.882
2280 0 71.1747 14.1764 1009 55.2844 1070.07 544.161
2281 0 73.4443 14.0651 1033 55.7096 1069.36 544.019
2282 0 74.4968 13.4905 1005 56.5751 1069.38 544.902
2283 0 76.3781 12.8309 980 57.6918 1069.38 540.061
2284 0 81.3494 13.8169 1124 56.3034 1068.72 539.641
2285 0 84.3239 14.219 1199 55.558 1068.73 539.012
2286 0 88.5452 13.9477 1235 55.6024 1068.67 537.28
2287 0 91.6966 13.0975 1201 56.2506 1068.7 535.835
2288 0 93.3751 14.3828 1343 55.3321 1068.44 535.151
2289 1 47.2916 10.7207 507 56.3432 1068.5 560.016
2290 0 49.2531 11.2074 552 56.1794 1068.43 556.487
2291 0 48.1561 10.3829 500 58.004 1068.54 557.32
2292 0 54.2142 12.3215 668 54.8054 1068.54 556.527
2293 0 55.351 12.1407 672 55.314 1069.14 553.957
2294 0 55.1983 12.283 678 56.6018 1069.7 552.698
2295 0 58.2712 12.2874 716 56.0447 1068.88 553.078
2296 0 59.3994 12.3402 733 55.2428 1069.27 552.139
2297 0 64.1317 13.2072 847 54.1476 1069.15 551.976
2298 0 62.312 12.0202 749 56.5194 1068.64 551.348
2299 0 66.3314 12.1511 806 55.4553 1069.24 550.151
2300 0 67.4441 12.4696 841 55.1391 1068.22 547.29
2301 0 70.6586 12.0297 850 55.0447 1068.09 546.662
2302 0 72.2958 13.1543 951 53.8707 1068.27 545.877
2303 0 75.3987 12.666 955 54.3686 1068.12 543.318
2304 0 77.4077 12.0143 930 55.0204 1068.24 545.091
2305 0 79.257 12.5667 996 55.0643 1068.45 542.604
2306 0 85.4033 14.2969 1221 52.5266 1068.25 540.283
2307 0 86.2807 13.2127 1140 54.1368 1068.49 539.905
2308 0 87.3244 13.2494 1157 54.4062 1068.47 538.884
2309 0 92.4412 13.4464 1243 53.9107 1068.87 536.508
2310 1 50.4165 10.6711 538 55.0967 1068.49 557.019
2311 0 53.4906 11.03 590 54.8339 1068.48 556.627
2312 0 53.4548 11.7482 628 54.5064 1068.52 555.158
2313 0 53.1662 12.0565 641 54.273 1068.55 555.058
2314 0 58.3932 11.885 694 54.1974 1068.49 551.879
2315 0 58.2703 11.8414 690 54.5638 1068.66 552.765
2316 0 59.1949 11.3523 672 55.5521 1068.59 550.65
2317 0 61.3048 12.3481 757 54.0119 1068.76 548.974
2318 0 61.3048 12.3481 757 140.756 1069.76 548.974
2319 0 70.3671 11.3405 798 54.5602 1069.54 548.639
2320 0 69.5478 12.4087 863 54.1309 1069.12 546.502
2321 0 70.5451 12.8287 905 53.7934 1069.86 544.468
2322 0 71.4287 13.09 935 53.6749 1069.89 544.324
2323 0 73.7196 12.127 894 55.0917 1069.88 541.51
2324 0 75.4657 12.6548 955 54.9916 1069.82 540.375
2325 0 77.3948 12.6882 982 54.5458 1070.35 541.25
2326 0 79.4292 12.2247 971 55.4212 1070.31 538.415
2327 0 83.6229 13.0706 1093 54.9323 1070.63 535.522
2328 0 85.479 13.0207 1113 55.0988 1070.59 537.449
2329 0 88.4971 13.492 1194 55.0946 1070.48 533.106
2330 0 93.4121 13.6064 1271 54.7168 1070.22 533.208
2331 1 51.1833 12.0352 616 54.8539 1070.75 554.008
2332 0 51.237 11.437 586 56.9283 1071.39 552.812
2333 0 51.0865 11.6469 595 58.4571 1070.76 551.039
2334 0 55.1503 11.931 658 58.0699 1071.77 550.22
2335 0 56.0375 12.9735 727 57.5653 1071.54 549.224
2336 0 56.0969 11.7832 661 59.3752 1071.47 548.767
2337 0 58.1018 12.2716 713 58.8626 1071.48 548.797
2338 0 60.1418 13.0359 784 58.2232 1072.04 546.565
2339 0 62.0857 13.2881 825 58.1685 1072.47 545.533
2340 0 64.0449 12.663 811 58.7867 1072.64 546.983
2341 0 65.0577 12.6503 823 59.4301 1072.37 543.695
2342 0 68.06 13.973 951 57.6898 1072.47 543.056
2343 0 69.0649 12.3652 854 59.5972 1072.98 543.622
2344 0 72.1222 13.5049 974 58.3655 1072.45 539.766
2345 0 74.1423 12.8537 953 59.0021 1072.7 540.817
2346 0 77.134 13.5478 1045 58.1435 1072.43 538.247
2347 0 79.0752 13.1014 1036 58.8938 1072.72 536.385
2348 0 83.1555 13.2884 1105 58.1004 1072.82 535.761
2349 0 84.151 14.0937 1186 57.8305 1073.05 533.034
2350 1 45.0206 11.4614 516 57.469 1073.26 554.374
2351 0 45.0177 10.6403 479 58.7537 1072.92 554.952
2352 0 47.0518 11.5192 542 59.1827 1072.85 554.052
2353 0 49.1924 12.9085 635 58.4126 1072.24 551.685
2354 0 51.0907 12.6246 645 58.969 1072.42 550.94
2355 0 52.0226 13.3211 693 58.5455 1072.74 550.232
2356 0 54.0519 12.4325 672 59.4911 1072.38 549.162
2357 0 55.0894 12.8155 706 59.2096 1072.7 547.435
2358 0 58.0348 13.5608 787 58.4663 1072.57 548.133
2359 0 57.0433 12.8674 734 59.6158 1072.42 547.253
2360 0 58.0452 13.5412 786 59.3804 1072.67 546.77
2361 0 58.0426 13.2661 770 60.5896 1072.09 545.63
2362 0 61.102 13.4856 824 60.2366 1071.66 545.533
2363 0 64.2058 13.9084 893 58.2889 1072.05 545.152
2364 0 66.0508 12.8992 852 60.2617 1071.04 543.91
2365 0 66.0788 13.5444 895 59.9564 1071.4 543.423
2366 0 70.0413 14.1773 993 58.7875 1071.19 541.841
2367 0 70.0445 13.5771 951 60.5205 1070.47 540.549
2368 0 71.1826 12.8121 912 62.2621 1070.7 538.955
2369 0 75.159 13.1322 987 61.4559 1070.52 539.283
2370 0 75.0613 13.429 1008 62.2173 1070.18 538.964
2371 0 80.2277 13.9852 1122 60.484 1070.13 536.727
2372 0 82.1484 13.7313 1128 61.1472 1070.21 534.647
2373 0 86.1704 14.3089 1233 60.3982 1070.12 534.223
2374 0 88.1939 15.1824 1339 59.6064 1070.13 533.228
2375 0 91.0814 14.0424 1279 61.3245 1070.26 531.908
2376 0 94.1312 13.6405 1284 61.9844 1070.29 530.784
2377 1 52.0312 11.7622 612 62.9526 1070.37 551.94
2378 0 53.0193 12.7689 677 62.257 1070.73 550.177
2379 0 54.0689 12.9834 702 62.0598 1071.04 550.031
2380 0 56.0258 13.1903 739 61.5264 1070.5 550.62
2381 0 58.0595 14.4507 839 59.534 1070.96 548.211
2382 0 61.0716 13.9345 851 57.9577 1070.69 547.743
2383 0 61.0611 13.4292 820 58.6573 1070.55 546.323
2384 0 64.078 13.983 896 57.6138 1070.78 546.281
2385 0 67.1828 13.6493 917 57.9368 1070.69 544.784
2386 0 67.171 13.4135 901 58.5505 1070.39 545.248
2387 0 71.2947 12.7779 911 58.719 1070.36 545.245
2388 0 74.1566 13.7951 1023 57.5523 1070.02 543.291
2389 0 78.2371 14.5967 1142 55.6708 1070.07 542.616
2390 0 79.3339 14.0545 1115 57.0368 1070.31 539.784
2391 0 83.1805 13.3084 1107 57.2574 1070.37 537.728
2392 0 86.3574 14.1389 1221 56.62 1070.33 537.311
2393 0 87.1981 12.9246 1127 58.2263 1070.24 536.628
2394 1 45.1053 10.5087 474 57.8565 1070.39 556.673
2395 0 49.1695 11.7959 580 56.8 1070.84 554.017
2396 0 51.0866 12.469 637 55.5385 1070.86 554.849
2397 0 52.1702 12.2292 638 56.7884 1071.06 551.715
2398 0 54.0744 12.1499 657 56.414 1071.28 552.957
2399 0 56.0157 12.925 724 56.308 1070.89 552.467
2400 0 56.1368 11.5967 651 58.9032 1070.09 550.097
2401 0 58.0812 13.0679 759 57.0764 1069.72 551.362
2402 0 59.1375 12.4794 738 58.1762 1069.83 549.259
2403 0 62.069 13.0661 811 57.349 1069.71 549.194
2404 0 64.2614 13.8186 888 56.75 1069.32 547.294
2405 0 67.1781 13.293 893 57.5017 1069.21 546.515
2406 0 67.1976 13.0659 878 58.3724 1069.42 544.765
2407 0 69.182 13.862 959 57.8238 1069.36 545.521
2408 0 70.2494 13.5232 950 58.9874 1068.94 543.796
2409 0 75.3347 13.5396 1020 58.7216 1069.03 543.145
2410 0 76.382 13.8907 1061 58.623 1068.9 542.095
2411 0 80.2051 13.9891 1122 58.5829 1068.51 540.058
2412 0 82.2222 14.2419 1171 58.2058 1068.68 537.14
2413 0 84.2407 14.0312 1182 59.0931 1068.35 537.805
2414 0 87.3845 13.5379 1183 59.5452 1068.62 536.265
2415 0 91.2365 14.3145 1306 58.402 1068.32 536.073
2416 0 93.2575 14.09 1314 58.6986 1068.49 535.183
2417 0 95.2753 13.4872 1285 59.6226 1067.94 533.121
2418 0 99.2775 13.9407 1384 58.909 1067.65 531.85
2419 0 103.279 13.1391 1357 59.395 1067.92 530.954
2420 1 58.1777 11.8774 691 58.2316 1068.28 555.161
2421 0 57.1028 11.8033 674 59.9496 1068.19 552.877
2422 0 62.0144 12.6261 783 58.5492 1067.89 552.94
2423 0 61.0575 12.8731 786 58.9173 1067.81 551.463
2424 0 65.1319 13.3575 870 58.0437 1067.69 550.067
2425 0 68.038 13.5953 925 57.1665 1067.9 549.404
2426 0 68.0294 13.3178 906 58.5706 1068.04 548.818
2427 0 70.0986 13.5381 949 58.4362 1068.26 545.941
2428 0 73.1209 13.2931 972 58.5617 1068.61 546.07
2429 0 76.2479 13.1938 1006 57.9901 1068.1 545.313
2430 0 80.1688 14.1452 1134 56.2725 1068.27 543.279
2431 0 81.1483 14.2825 1159 56.2381 1068.14 542.623
2432 0 84.1005 14.0665 1183 56.4083 1068.39 541.223
2433 0 85.1275 13.1215 1117 57.1782 1068.15 540.753
2434 0 85.1275 13.1215 1117 168.72 1068.18 540.9
2435 0 92.2483 13.8322 1276 56.268 1068.22 536.315
2436 0 94.1681 13.7839 1298 56.4723 1068.45 535.476
2437 0 99.2381 14.8028 1469 54.9946 1068.52 534.222
2438 1 57.1182 10.6971 611 57.5679 1068.24 555.082
2439 0 59.1884 12.3673 732 55.9044 1067.94 554.686
2440 0 58.1152 12.0795 702 57.1638 1067.87 553.734
2441 0 61.3233 13.0293 799 56.378 1067.99 552.808
2442 0 63.1866 13.8162 873 55.7927 1067.87 550.566
2443 0 66.1997 12.4623 825 57.9855 1067.64 549.062
2444 0 67.1341 13.838 929 57.5727 1067.68 547.039
2445 0 69.1523 13.0726 904 57.8341 1067.79 547.611
2446 0 69.1523 13.0726 904 163.315 1067.79 547.611
2447 0 74.1383 13.4074 994 57.834 1067.97 545.403
2448 0 77.119 14.121 1089 56.7787 1067.95 544.852
2449 0 80.2744 13.6158 1093 57.5892 1068.06 543.152
2450 0 80.1482 14.598 1170 57.3624 1067.78 540.708
2451 0 80.1482 14.598 1170 166.786 1068.78 540.708
2452 0 87.1443 15.1817 1323 56.4263 1068.27 539.993
2453 0 88.1472 14.2376 1255 57.9673 1069.17 536.417
2454 0 90.1175 14.2037 1280 57.1102 1068.62 532.605
2455 0 96.4361 13.2212 1275 56.9459 1068.55 534.107
2456 0 97.2574 14.1069 1372 55.8243 1068.65 533.291
2457 0 102.137 14.9799 1530 54.9935 1068.83 530.881
2458 1 52.1172 11.5125 600 57.51 1069.28 553.333
2459 0 53.1395 8.9952 478 58.7741 1069.69 555.01
2460 0 59.1378 11.6677 690 56.4246 1069.76 552.923
2461 0 58.2106 11.7161 682 57.0308 1069.86 553.116
2462 0 60.071 12.8681 773 55.8629 1069.84 551.386
2463 0 61.1559 13.0813 800 56.12 1070.13 549.025
2464 0 63.1532 12.5568 793 56.3279 1070.82 549.202
2465 0 66.257 13.6137 902 55.112 1070.51 547.922
2466 0 68.1231 13.5784 925 55.4411 1070.71 547.231
2467 0 69.2277 12.6539 876 56.9292 1071.58 545.759
2468 0 71.3318 13.3741 954 56.131 1072.02 545.042
2469 0 73.1061 12.6255 923 56.8397 1071.66 543.393
2470 0 77.1612 13.1802 1017 56.5359 1071.82 540.741
2471 0 79.1892 14.3707 1138 55.109 1072.02 538.612
2472 0 80.2 13.2918 1066 55.9981 1072.3 539.028
2473 0 84.2254 13.262 1117 55.7887 1072.52 538.646
2474 0 88.1812 13.0186 1148 55.9834 1072.57 537.228
2475 0 91.1712 13.6227 1242 54.7947 1072.28 534.696
2476 0 92.3158 12.3814 1143 56.273 1072.82 534.695
2477 1 52.1543 12.3288 643 54.2333 1073.07 553.739
2478 0 53.0723 10.7212 569 55.3585 1073.25 553.924
2479 0 56.1483 12.4492 699 54.691 1073.23 551.843
2480 0 56.1578 12.4649 700 55.5429 1073.05 550.951
2481 0 59.0876 12.3545 730 55.0068 1073.06 549.994
2482 0 59.1345 12.3109 728 55.772 1073.38 549.166
2483 0 62.1082 13.9917 869 53.5247 1073.46 547.36
2484 0 64.0675 12.8458 823 55.3912 1073.12 545.627
2485 0 64.0703 13.2511 849 55.8398 1073.43 544.059
2486 0 68.1032 13.8173 941 55.0446 1073.11 543.256
2487 0 69.256 13.4429 931 55.3437 1073.05 543.222
2488 0 72.1586 13.8999 1003 54.9751 1072.35 541.347
2489 0 72.1444 13.168 950 56.5653 1072.55 541.268
2490 0 77.1153 14.1476 1091 54.6471 1072.68 540.204
2491 0 76.0983 12.2342 931 57.3706 1072.49 540.238
2492 0 83.2246 13.0731 1088 55.5432 1072.52 538.767
2493 0 84.1374 14.1673 1192 55.2383 1072.13 536.788
2494 0 87.2701 13.5212 1180 55.9314 1072.12 536.37
2495 0 89.2672 13.7116 1224 55.7908 1072.66 533.602
2496 0 93.1544 14.0305 1307 55.2594 1072.21 534.262
2497 1 49.1684 10.5149 517 57.2166 1072.08 554.089
2498 0 50.2089 11.97 601 57.0915 1071.58 552.238
2499 0 52.0974 12.6302 658 56.0213 1072.18 552.412
2500 0 55.2093 12.6428 698 55.788 1071.44 553.448
2501 0 55.2018 12.0829 667 56.7871 1071.26 551.147
2502 0 59.0954 13.9436 824 54.6177 1071.08 549.902
2503 0 60.1418 13.1356 790 56.0772 1070.95 549.713
2504 0 60.0764 13.5328 813 55.8315 1071.12 548.549
2505 0 61.0664 13.1496 803 56.8107 1071.02 547.796
2506 0 64.0475 12.116 776 57.6302 1070.63 549.205
2507 0 67.0522 13.5566 909 55.8196 1071.58 545.338
2508 0 67.0652 14.1952 952 54.9464 1071.07 545.63
2509 0 71.1062 14.4432 1027 55.4333 1070.92 543.413
2510 0 73.0713 14.3148 1046 56.0287 1070.97 542.513
2511 0 75.2102 14.2401 1071 56.3987 1071 541.369
2512 0 77.0611 14.1576 1091 56.2227 1070.39 540.549
2513 0 79.0782 14.2517 1127 56.528 1070.56 538.475
2514 0 81.088 13.9971 1135 57.1498 1070.57 538.907
2515 0 84.1606 14.3179 1205 56.522 1070.45 537.67
2516 0 87.0907 13.9854 1218 56.9286 1070.65 536.314
2517 0 87.0854 14.4341 1257 57.2864 1070.53 535.63
2518 0 92.1086 14.7978 1363 56.1284 1070.55 533.801
2519 0 92.1352 13.6538 1258 57.8172 1070.66 533.583
2520 0 97.1321 15.3708 1493 55.8071 1070.66 531.546
2521 0 97.1953 14.3011 1390 57.641 1070.15 530.466
2522 0 100.219 14.3585 1439 57.1216 1069.86 530.1
2523 0 105.243 14.5473 1531 56.6545 1070.08 529.422
2524 0 107.232 13.55 1453 58.0262 1070.11 529.134
2525 0 110.176 14.6946 1619 57.2014 1070.06 525.829
2526 0 115.141 14.8514 1710 56.7105 1069.69 521.79
2527 1 64.0617 11.9572 766 57.3277 1070.06 551.758
2528 0 63.0629 11.3696 717 59.5607 1069.62 549.877
2529 0 66.0524 12.914 853 57.4338 1069.76 548.252
2530 0 69.1053 12.7053 878 57.0649 1070.03 548.727
2531 0 72.0319 13.7856 993 56.2377 1069.81 546.103
2532 0 74.0569 14.0838 1043 56.4679 1069.67 542.6
2533 0 76.1264 13.1229 999 57.6036 1069.46 542.461
2534 0 79.0751 12.7221 1006 57.9294 1069.49 542.269
2535 0 82.0669 13.8789 1139 56.4759 1069.21 540.676
2536 0 86.1746 14.0993 1215 55.4058 1068.69 538.82
2537 0 86.1746 14.0413 1210 158.73 1067.67 538.788
2538 0 93.1282 14.2599 1328 55.9721 1068.79 535.275
2539 0 95.1645 13.7866 1312 57.439 1068.8 534.226
2540 0 100.169 14.6552 1468 55.7316 1069.03 532.524
2541 0 101.282 12.559 1272 58.3852 1068.78 532.375
2542 0 102.283 12.8662 1316 159.164 1068.75 531.366
2543 1 55.0511 14.0233 772 55.4508 1069.72 553.956
2544 0 57.0975 12.8727 735 56.8898 1069.5 553.784
2545 0 59.0656 13.375 790 56.4354 1069.66 553.032
2546 0 63.1099 12.9932 820 56.1878 1068.97 551.651
2547 0 63.085 13.0617 824 57.5582 1069.05 549.618
2548 0 67.2037 13.3772 899 56.0623 1068.33 549.913
2549 0 67.1603 12.6414 849 57.7385 1068.24 547.995
2550 0 70.1745 13.8939 975 56.2892 1068.39 546.752
2551 0 73.0568 12.9215 944 56.3856 1068.83 547.41
2552 0 75.171 13.5824 1021 56.0793 1068.52 546.134
2553 0 78.0498 12.7098 992 57.119 1068.05 543.627
2554 0 81.1136 13.0558 1059 55.8074 1067.87 544.026
2555 0 83.0409 13.1381 1091 56.0211 1068.17 542.332
2556 0 86.2156 14.3709 1239 54.9185 1067.93 540.781
2557 0 88.2894 13.9994 1236 55.25 1067.86 541.016
2558 0 91.3253 13.9063 1270 55.8354 1068.23 536.357
2559 0 93.2852 13.3998 1250 56.3624 1068 536.087
2560 0 97.3339 13.2431 1289 56.813 1068.01 533.555
2561 1 50.1576 11.5835 581 58.1773 1068.12 554.757
2562 0 51.3093 11.9277 612 57.0229 1068.66 556.861
2563 0 55.1637 12.8527 709 56.0733 1068.07 554.44
2564 0 57.4275 12.6943 729 56.1797 1067.99 552.739
2565 0 57.1707 13.2235 756 56.504 1067.95 550.348
2566 0 60.2819 13.4203 809 57.1496 1068.23 551.209
2567 0 63.2469 13.7082 867 56.5225 1067.8 550.559
2568 0 63.3338 12.442 788 59.0812 1068 549.22
2569 0 65.3336 12.5663 821 58.7016 1067.59 549.749
2570 0 70.3981 12.6992 894 58.4161 1067.54 547.112
2571 0 69.5056 12.4163 863 59.4021 1067.47 545.418
2572 0 74.4986 13.4768 1004 58.1374 1067.61 542.116
2573 0 76.4161 13.4527 1028 58.3677 1067.51 542.212
2574 0 79.4657 13.8424 1100 57.8755 1067.56 540.058
2575 0 81.415 13.3268 1085 58.6774 1067.43 537.732
2576 0 85.9867 13.3393 1147 58.3426 1067.47 538.119
2577 1 47.5574 10.3033 490 60.0837 1066.53 556.904
2578 0 50.6679 11.6642 591 58.8359 1066.77 555.662
2579 0 50.4609 11.3157 571 59.8074 1067.38 556.371
2580 0 52.5019 12.4186 652 58.773 1066.85 553.293
2581 0 52.3355 12.4963 654 60.4159 1067.53 550.346
2582 0 57.4477 12.8291 737 58.9267 1067.06 550.737
2583 0 60.403 13.9563 843 57.3428 1066.73 550.497
2584 0 59.2836 13.1571 780 58.3423 1066.33 547.087
2585 0 61.5337 13.9598 859 57.8661 1066.85 544.88
2586 0 63.4794 14.3511 911 57.0746 1066.84 544.276
2587 0 65.5022 13.6484 894 57.7975 1066.47 543.348
2588 0 68.3509 13.9428 953 56.9916 1066.44 540.837
2589 0 71.2653 13.569 967 57.0238 1066.61 538.873
2590 0 71.2907 13.452 959 57.2336 1067.05 541.071
2591 0 75.4564 13.6635 1031 56.7992 1067.16 538.991
2592 0 78.4762 12.9084 1013 58.1036 1067.21 538.072
2593 0 81.3618 14.0238 1141 56.865 1066.68 536.432
2594 0 81.535 13.7855 1124 58.1459 1067.47 534.312
2595 0 87.468 14.0051 1225 56.8776 1067.85 533.24
2596 0 90.4275 13.9117 1258 57.5032 1067.7 531.741
2597 0 91.575 14.6656 1343 57.0007 1067.95 531.06
2598 0 94.6686 14.2286 1347 58.1804 1068.11 529.615
2599 1 49.7322 12.4064 617 59.7536 1068.39 550.551
2600 0 50.5684 10.817 547 61.0567 1068.62 551.022
2601 0 51.4068 11.302 581 61.1824 1068.99 549.649
2602 0 54.2914 12.8197 696 60.1149 1069.16 548.681
2603 0 56.3531 11.8006 665 60.5579 1069.39 548.048
2604 0 57.5277 13.4892 776 59.5541 1069.18 547.309
2605 0 60.2376 13.48 812 59.0074 1069.24 544.555
2606 0 61.3855 13.8958 853 58.9766 1069.31 544.554
2607 0 64.4658 13.8368 892 58.5729 1069.28 543.823
2608 0 65.5715 13.207 866 59.5162 1069.9 542.433
2609 0 66.5896 14.5368 968 58.3926 1070 540.989
2610 0 69.2624 13.4128 929 59.5619 1070.44 540.765
2611 0 71.4721 13.4038 958 59.261 1070.65 539.678
2612 0 74.4262 13.3018 990 58.9434 1070.31 538.452
2613 0 77.4511 14.4091 1116 58.1192 1071.01 535.39
2614 0 79.2429 13.5154 1071 59.0906 1071.47 534.93
2615 0 82.3747 14.2884 1177 58.1691 1071.64 533.941
2616 0 86.4625 13.902 1202 58.5549 1071.83 531.567
2617 0 88.4495 14.1097 1248 57.9792 1071.63 533.014
2618 0 92.52 14.278 1321 57.626 1071.8 530.042
2619 0 94.3954 13.8566 1308 58.5596 1071.45 530.41
2620 0 97.3543 14.0312 1366 58.459 1071.8 525.548
2621 0 101.464 14.685 1490 57.4188 1072.24 525.425
2622 0 104.636 13.9722 1462 58.762 1072.12 525.375
2623 1 55.4448 10.7494 596 60.0956 1071.37 548.037
2624 0 57.3886 12.1975 700 59.3771 1071.84 545.59
2625 0 58.2482 11.8287 689 59.9811 1071.79 546.296
2626 0 61.3745 12.7089 780 58.4744 1071.67 544.394
2627 0 61.2941 12.6766 777 59.3501 1072.12 542.183
2628 0 62.1787 13.1878 820 58.8866 1071.97 541.137
2629 0 66.2764 13.9567 925 57.3016 1072.2 543.266
2630 0 67.3627 14.2364 959 57.2127 1072.45 539.068
2631 0 70.2578 13.0946 920 58.4576 1072.74 540.187
2632 0 73.3817 13.7773 1011 57.2641 1072.52 540.219
2633 0 73.0979 12.2028 892 59.4922 1072.4 538.004
2634 0 78.3173 13.9943 1096 56.6606 1072.21 537.348
2635 0 79.339 13.7259 1089 57.1488 1072.28 533.386
2636 0 83.2507 13.8738 1155 56.574 1072.39 533.508
2637 0 87.4137 13.5219 1182 56.4898 1072.18 531.935
2638 0 89.2663 13.8462 1236 55.8576 1071.61 530.45
2639 0 91.3628 12.4668 1139 57.1738 1071.66 529.824
2640 0 95.2753 13.7601 1311 55.8986 1071.65 527.165
2641 0 99.4779 14.0433 1397 55.224 1071.97 522.563
2642 1 57.2904 9.79221 561 55.8182 1071.65 547.866
2643 0 59.3922 10.7758 640 56.4391 1071.95 544.345
2644 0 61.2833 11.2755 691 55.3647 1071.96 544.972
2645 0 63.4061 11.592 735 54.8789 1071.84 541.812
2646 0 68.2715 12.3331 842 54.2173 1072.02 542.582
2647 0 68.3917 12.7355 871 54.4099 1071.86 541.722
2648 0 71.2456 12.3236 878 54.008 1071.73 540.776
2649 0 72.1282 11.7984 851 54.6968 1070.81 541.483
2650 0 76.2413 13.5753 1035 50.8464 1071.38 537.573
2651 0 76.1934 11.2214 855 53.6632 1071.8 535.248
2652 0 81.1417 13.0019 1055 51.3318 1071.44 537.386
2653 0 84.127 11.6372 979 53.0572 1071.3 535.336
2654 0 86.1041 13.2746 1143 51.9116 1070.75 533.706
2655 0 89.172 13.0198 1161 52.5805 1070.43 532.929
2656 0 93.1613 13.8684 1292 51.8692 1070.8 531.489
2657 0 96.1518 13.6763 1315 52.5209 1070.35 528.684
2658 0 97.1501 13.052 1268 53.5749 1070.6 527.728
2659 0 102.144 12.8935 1317 53.53 1070.37 528.8
2660 0 104.195 13.7723 1435 53.3122 1070.03 524.755
2661 1 56.1301 10.5113 590 54.3441 1069.9 547.186
2662 0 62.0824 10.5827 657 53.7306 1069.51 547.769
2663 0 60.051 10.6576 640 53.7141 1069.28 549.256
2664 0 62.1605 11.4381 711 53.3432 1069.61 546.263
2665 0 64.191 11.5437 741 53.8138 1069.96 544.502
2666 0 67.0525 11.6178 779 53.7664 1070.26 541.66
2667 0 69.1408 12.3516 854 54.0621 1070.64 542.453
2668 0 72.1214 14.1567 1021 51.7032 1070.72 541.731
2669 0 74.2585 12.645 939 53.7444 1070.13 540.808
2670 0 76.2105 12.5311 955 53.8471 1070.07 540.578
2671 0 80.1353 13.3275 1068 53.0272 1070.58 538.307
2672 0 81.1009 12.6879 1029 54.07 1071.05 538.262
2673 0 85.101 14.2772 1215 52.6527 1070.7 535.042
2674 0 86.1386 12.2129 1052 55.0637 1070.45 534.775
2675 0 89.1573 12.5284 1117 55.1782 1069.93 529.963
2676 0 94.1435 12.9696 1221 54.1572 1069.53 531.691
2677 0 94.1188 13.0473 1228 54.8836 1069.57 530.175
2678 0 95.1478 12.097 1151 56.1503 1069.52 527.798
2679 0 100.129 12.1344 1215 55.6601 1069.76 526.51
2680 0 103.123 11.8112 1218 56.9072 1070.04 526.625
2681 1 57.0758 10.1094 577 57.2686 1069.33 550.047
2682 0 59.26 10.8842 645 55.9922 1069.1 549.887
2683 0 58.0851 10.0026 581 57.9983 1069.6 548.349
2684 0 60.1915 11.0148 663 56.6078 1069.63 548.187
2685 0 61.1019 10.7198 655 57.9939 1068.98 546.037
2686 0 63.0639 11.0523 697 57.1593 1068.2 547.72
2687 0 65.0952 12.3358 803 56.4172 1069.34 544.973
2688 0 67.1431 11.4085 766 57.8264 1068.56 545.552
2689 0 70.2839 12.3926 871 57.0356 1068.94 545.048
2690 0 71.182 12.3065 876 57.3036 1068.17 540.766
2691 0 75.2162 12.9759 976 56.3484 1068.43 540.748
2692 0 75.3081 12.2298 921 57.5624 1069 539.813
2693 0 79.4283 12.4767 991 57.0505 1068.74 539.72
2694 0 81.2231 13.2105 1073 56.8882 1068.59 536.967
2695 0 84.2407 13.5089 1138 56.4104 1068.55 537.625
2696 0 89.3738 13.4939 1206 55.9668 1068.98 535.653
2697 0 91.366 13.0355 1191 56.6238 1068.66 533.056
2698 0 93.2657 14.2818 1332 55.8243 1068.1 533.835
2699 0 96.2873 13.4078 1291 57.1503 1067.83 532.541
2700 0 98.3092 12.6336 1242 58.2319 1067.64 529.024
2701 0 100.376 13.1405 1319 57.9302 1068.18 529.337
2702 0 105.506 12.5017 1319 58.7741 1067.77 526.096
2703 1 59.3855 11.0801 658 56.269 1068.2 553.998
2704 0 59.2887 10.9802 651 57.5223 1068.64 552.714
2705 0 60.2719 10.9172 658 58.1307 1068.07 550.489
2706 0 63.5324 12.3559 785 57.6217 1068.38 548.945
2707 0 64.5192 12.5699 811 57.6794 1068.86 547.102
2708 0 66.4337 13.6828 909 56.5126 1068.22 546.655
2709 0 66.4971 12.0607 802 59.2207 1067.96 546.499
2710 0 70.364 12.3927 872 58.3911 1067.84 545.986
2711 0 71.4624 12.9998 929 57.4532 1068.39 546.098
2712 0 74.498 12.497 931 57.7132 1067.89 545.094
2713 0 76.4835 12.7217 973 57.7112 1068.2 540.58
2714 0 78.5422 12.541 985 57.8051 1067.68 541.993
2715 0 81.3686 13.5802 1105 55.9059 1067.76 541.284
2716 0 82.5025 12.3633 1020 56.7696 1067.58 540.385
2717 0 84.3746 11.7571 992 57.1149 1067.64 539.904
2718 0 88.6004 13.1376 1164 55.4588 1067.74 535.747
2719 0 90.3366 12.2652 1108 56.713 1067.58 535.538
2720 0 93.4289 12.3088 1150 56.7461 1067.2 532.57
2721 0 95.3848 12.5701 1199 56.4304 1067.32 533.448
2722 1 50.4146 9.60039 484 56.5083 1067.17 557.306
2723 0 51.219 9.46914 485 57.4412 1067.59 555.318
2724 0 55.3992 11.0832 614 55.2671 1067.43 555.467
2725 0 57.3844 11.8673 681 54.9486 1067.6 552.624
2726 0 59.4006 11.9528 710 54.2056 1067.85 551.986
2727 0 60.2659 13.0256 785 54.7312 1068.68 551.926
2728 0 61.2362 12.1497 744 56.8804 1068.46 550.313
2729 0 62.2843 12.5553 782 55.578 1068.07 549.969
2730 0 66.3984 13.2985 883 54.6444 1068.51 547.963
2731 0 68.3928 13.1593 900 54.7956 1068.68 546.869
