time division length width area intensity CMx CMy
0 0 62.2261 14.3027 890 71.8124 906.399 538.561
1 0 63.0754 14.554 918 71.9401 906.147 540.868
2 0 63.1941 13.9412 881 72.8082 905.714 543.434
3 0 66.1913 13.9142 921 73.1607 905.493 545.683
4 0 69.1562 14.0262 970 73.2113 905.627 548.9
5 0 72.167 13.5519 978 74.5593 905.774 552.518
6 0 75.1364 13.349 1003 73.5095 905.259 554.092
7 0 76.361 14.366 1097 71.6253 904.961 554.935
8 0 78.3083 14.6855 1150 72.2556 905.53 553.11
9 0 83.2142 14.1923 1181 72.2616 905.072 551.653
10 0 85.2055 14.0249 1195 73.6845 905.721 548.959
11 0 87.2368 14.1454 1234 74.4692 905.082 548.694
12 0 92.5387 14.059 1301 73.6603 905.612 547.704
13 1 43.2197 10.9904 475 74.0337 905.598 569.194
14 0 46.292 12.6372 585 71.4171 905.557 568.67
15 0 46.233 12.1991 564 73.9663 906.011 566.75
16 0 49.128 12.4165 610 72.8361 905.984 566.238
17 0 50.2396 12.3011 618 73.1683 905.558 564.379
18 0 51.1616 12.2944 629 72.399 905.31 564.34
19 0 54.2261 13.5175 733 69.2565 905.345 562.596
20 0 56.1775 12.9055 725 70.3876 905.56 560.913
21 0 57.1791 13.6588 781 69.6556 905.277 559.842
22 0 60.2646 13.3412 804 69.3333 905.442 560.66
23 0 64.201 13.5979 873 68.3826 905.882 561.072
24 0 64.2553 13.5397 870 69.877 905.741 558.183
25 0 68.1447 13.8529 944 68.965 906.148 558.716
26 0 70.3287 14.2474 1002 69.3283 906.498 556.516
27 0 70.2875 12.6907 892 72.8173 906.345 554.367
28 0 73.2382 13.6404 999 71.97 906.256 553.361
29 0 78.2021 13.7848 1078 71.526 906.655 552.98
30 0 84.2059 12.5169 1054 73.148 906.686 551.792
31 0 84.2788 13.5621 1143 72.2476 907.241 550.611
32 0 84.1368 13.8584 1166 72.5437 907.254 550.9
33 1 45.2326 10.5013 475 71.8484 908.39 570.495
34 0 45.1059 12.4817 563 70.4618 908.073 568.387
35 0 47.0642 12.3236 580 71.1948 907.819 568.003
36 0 48.0449 11.1354 535 73.8093 907.654 567.985
37 0 49.0764 12.3073 604 72.596 907.954 566.702
38 0 52.1364 11.9494 623 72.5586 907.798 565.968
39 0 53.1287 11.9898 637 72.1476 907.389 565.447
40 0 53.0853 13.1675 699 72.0701 908.043 564.227
41 0 54.1509 12.4282 673 73.737 908.08 563.792
42 0 57.2099 12.7775 731 72.3447 908.1 563.301
43 0 58.1445 12.1594 707 73.6789 907.468 560.976
44 0 60.3238 12.35 745 73.3423 907.768 560.78
45 0 61.2133 12.9384 792 72.947 907.617 557.716
46 0 64.4446 13.112 845 71.9953 907.586 556.595
47 0 67.307 13.2527 892 71.5673 908.348 557.658
48 0 69.2085 13.5677 939 71.3557 908.116 554.448
49 0 72.188 12.7584 921 72.2899 908.326 555.242
50 0 73.3341 12.7226 933 73.0686 908.079 554.995
51 0 78.3777 13.2818 1041 71.5341 908.272 552.415
52 1 42.1164 10.2573 432 70.5232 909.292 570.685
53 0 42.1148 10.0915 425 72.1624 909.021 570.729
54 0 45.1392 9.59256 433 72.5935 908.3 569.975
55 0 46.063 10.7461 495 63.7293 908.919 568.18
56 0 47.0822 11.1932 527 64.1765 909.368 567.767
57 0 50.0106 12.0375 602 62.9801 909.613 566.309
58 0 49.0404 10.9298 536 65.3526 909.134 565.713
59 0 51.3702 11.2127 576 65.7083 908.865 564.304
60 0 54.1511 12.6867 687 63.8879 909.112 563.882
61 0 55.1572 11.0412 609 66.3645 908.713 562.714
62 0 57.2033 12.2196 699 65.1059 908.207 559.761
63 0 59.1551 12.6109 746 64.7105 908.082 558.677
64 0 60.155 12.1187 729 64.9698 908.136 559.294
65 0 63.2278 12.5894 796 63.2751 908.313 559.265
66 0 66.1331 12.1573 804 64.3346 908.216 557.245
67 0 67.1724 12.7284 855 63.6281 909.225 555.216
68 0 68.1224 12.5216 853 63.9426 909.195 555.618
69 0 70.2008 12.8346 901 63.7403 909.198 554.665
70 0 71.2433 12.5626 895 64.2313 908.472 552.899
71 0 74.1804 12.7123 943 63.877 908.676 551.689
72 0 76.29 12.9899 991 62.9768 909.031 551.414
73 0 78.2615 13.7488 1076 62.6803 909.122 548.512
74 0 81.3114 12.9994 1057 63.8827 909.489 545.904
75 1 44.1556 10.7801 476 63.105 909.973 564.147
76 0 45.11 10.6185 479 62.8831 910.418 564.47
77 0 47.1116 10.9527 516 62.3721 910.535 564.672
78 0 48.1056 11.0798 533 62.8255 910.296 561.533
79 0 49.0971 10.5709 519 63.3353 910.098 560.592
80 0 50.025 11.4942 575 62.3687 910.576 558.756
81 0 51.0549 11.6933 597 62.6097 910.072 558.025
82 0 53.2957 12.365 659 62.2003 910.304 556.951
83 0 53.0899 11.829 628 64.0191 910.368 557.884
84 0 54.1448 12.4296 673 64.058 910.946 556.681
85 0 57.1496 12.1786 696 63.8434 911.451 555.697
86 0 58.1422 12.8306 746 63.4772 911.607 553.028
87 0 60.0543 12.9549 778 62.2712 911.869 551.954
88 0 61.0952 12.4396 760 62.1079 911.543 549.825
89 0 70.1925 13.6054 955 57.4597 912.03 551.051
90 0 68.1172 14.0053 954 58.195 912.083 548.787
91 0 68.1756 13.2305 902 66.4623 912.854 548.72
92 0 69.1002 12.4023 857 70.5041 913.026 547.456
93 0 73.2334 13.4228 983 65.1709 913.664 546.368
94 1 36.1516 10.0687 364 68.0467 914.184 562.937
95 0 38.0774 10.3474 394 64.4797 913.675 562.305
96 0 42.1056 10.7349 452 62.469 914.219 560.252
97 0 45.1473 11.1192 502 85.9641 914.49 560.028
98 0 42.2326 10.9158 461 61.423 913.722 561.069
99 0 46.1931 12.6426 584 59.7123 912.938 560.202
100 0 47.2811 12.6055 596 61.7047 913.045 558.539
101 0 47.2826 12.2244 578 65.1471 913.704 557.107
102 0 49.2564 12.8714 634 65.0615 913.727 557.06
103 0 52.2006 13.1991 689 61.9448 913.478 555.612
104 0 52.1233 13.7175 715 62.6629 913.562 554.46
105 0 53.135 12.6094 670 63.8537 913.598 552.785
106 0 57.1901 13.289 760 64.146 913.579 552.599
107 0 57.0994 12.9599 740 66.7743 913.765 552.689
108 0 58.075 13.0176 756 68.6482 913.631 550.968
109 0 60.1524 13.1666 792 66.024 913.759 549.184
110 0 62.0911 13.5124 839 65.2026 913.881 548.405
111 0 65.2144 13.5246 882 63.2812 914.329 547.839
112 0 67.2811 14.2834 961 61.6087 914.288 545.975
113 0 69.1902 14.0627 973 62.1644 914.446 545.009
114 0 72.4299 13.9721 1012 62.3992 914.568 544.372
115 0 72.2453 14.1878 1025 62.7356 914.062 543.067
116 0 78.2056 14.1806 1109 61.5942 913.331 541.645
117 0 79.2901 13.7722 1092 61.8562 913.909 539.917
118 0 82.2853 13.7084 1128 62.1879 913.84 538.103
119 0 85.3922 13.9591 1192 61.3591 913.71 538.073
120 0 87.3003 14.4673 1263 60.7656 913.422 536.213
121 1 46.1024 10.4116 480 61.0625 913.733 557.917
122 0 44.0801 10.7078 472 61.267 914.134 556.303
123 0 47.1634 12.2977 580 59.3983 913.979 554.369
124 0 49.1612 14.1778 697 57.901 913.564 554.007
125 0 49.1221 11.9498 587 60.6661 913.302 553.971
126 0 53.3443 12.0163 641 59.7442 912.329 554.025
127 0 54.2705 12.7325 691 58.9059 912.64 553.398
128 0 56.1895 12.3155 692 59.7428 912.306 551.003
129 0 58.1232 13.4542 782 58.2033 912.909 551.552
130 0 59.1871 13.1448 778 59.6041 912.555 549.94
131 0 61.2519 12.9792 795 59.5786 912.389 548.855
132 0 63.2992 13.5547 858 58.8147 912.125 548.738
133 0 65.2979 13.8443 904 58.7323 911.968 547.294
134 0 67.4087 12.9508 873 59.7205 912.322 547.549
135 0 69.2403 13.9948 969 59.2157 912.329 545.265
136 0 69.3625 13.0474 905 61.0431 912.145 544.514
137 0 72.3692 13.6384 987 60.311 911.962 543.624
138 0 75.286 13.3757 1007 60.6246 911.992 542.724
139 0 78.1945 14.8476 1161 59.0198 911.578 540.522
140 0 83.1397 14.3253 1191 58.8413 912.208 540.741
141 0 83.3147 13.8871 1157 60.1772 911.686 540.199
142 0 85.3486 14.3881 1228 60.3086 911.819 536.428
143 0 89.2189 15.2995 1365 59.0982 912.054 535.543
144 0 91.2644 14.0361 1281 61.0086 911.984 535.043
145 0 94.3996 14.0678 1328 60.8622 911.401 533.89
146 0 97.2584 14.662 1426 60.629 911.206 531.374
147 1 50.2718 11.0798 557 61.5548 911.917 555.196
148 0 52.2463 11.3501 593 60.5211 911.884 556.211
149 0 52.2382 12.0984 632 61.5554 911.698 553.096
150 0 54.3548 12.4552 677 61.0266 911.47 552.993
151 0 56.1149 12.5813 706 60.7946 911.36 553.207
152 0 56.1604 12.767 717 61.2692 911.544 551.667
153 0 58.204 12.7139 740 61.6189 911.576 550.981
154 0 61.0926 13.8806 848 60.3196 911.507 548.783
155 0 63.1753 12.9798 820 60.9207 910.69 548.513
156 0 66.1438 13.4404 889 60.3071 910.764 548.044
157 0 67.3291 13.3969 902 60.6253 911.208 547.18
158 0 69.1154 13.2098 913 60.6922 910.909 547.279
159 0 71.1378 13.5933 967 60.7156 911.094 545.054
160 0 74.1555 13.5661 1006 60.662 910.997 543.326
161 0 77.2011 12.9661 1001 61.1239 910.681 542.739
162 0 79.241 13.2129 1047 61.299 910.904 540.833
163 0 82.223 13.3661 1099 61.0255 910.946 538.967
164 1 44.0591 11.2576 496 59.6109 912.202 558.194
165 0 45.136 9.34952 422 61.609 912.348 557.815
166 0 46.0595 11.0075 507 60.2189 912.312 557.191
167 0 48.0998 10.2911 495 60.6 912.271 556.772
168 0 51.0963 11.2141 573 60.2234 912.166 554.597
169 0 52.22 12.4856 652 59.5721 912.48 552.66
170 0 54.1493 10.9697 594 61.1919 912.446 552.259
171 0 56.1622 12.0366 676 59.7914 912.339 550.757
172 0 57.144 12.3897 708 60.1638 912.318 549.261
173 0 59.1043 12.4356 735 60.2245 912.505 550.199
174 0 58.1824 12.9936 756 60.3942 912.869 548.93
175 0 60.1826 12.4621 750 61.1427 912.924 547.853
176 0 63.1099 12.3594 780 61.1538 912.796 547
177 0 66.1827 12.7828 846 60.0225 912.955 546.628
178 0 66.1133 11.45 757 62.6394 913.007 544.1
179 0 69.1147 12.5299 866 61.806 913.242 541.913
180 0 72.2068 12.8104 925 61.8865 913.768 541.645
181 0 74.1915 12.8721 955 62.1634 914.08 541.566
182 0 74.1915 12.8991 957 151.569 915.079 541.544
183 0 74.1915 12.9395 960 151.002 916.085 541.459
184 1 42.0876 9.9079 417 62.1894 914.844 557.549
185 0 44.2022 10.4067 460 62.8435 914.78 556.744
186 0 46.2631 9.6189 445 62.4764 914.598 555.802
187 0 48.256 11.9571 577 60.9688 914.341 552.48
188 0 48.4688 10.9555 531 62.7006 914.795 552.311
189 0 51.6379 11.1352 575 62.8261 914.565 552.181
190 0 51.3597 10.923 561 63.9715 914.528 552.676
191 0 53.2571 12.2237 651 62.5561 914.594 551.128
192 0 53.1254 11.8587 630 64.2476 915.371 549.729
193 0 55.2482 12.0909 668 62.5689 915.492 548.585
194 0 55.1722 13.3944 739 59.9432 915.398 547.645
195 0 56.3828 11.688 659 61.824 915.411 548.53
196 0 58.1837 13.3027 774 61.1563 915.872 547.025
197 0 59.2274 12.6124 747 63.1888 915.73 545.872
198 0 61.1909 13.1392 804 62.5025 916.072 545.262
199 0 62.4175 12.2241 763 63.3604 916.042 543.927
200 0 63.2509 12.7903 809 62.6415 916.391 543.335
201 0 68.3834 13.0441 892 61.2074 916.464 543.468
202 0 68.2867 13.5458 925 61.3265 917.085 540.991
203 0 72.2332 13.7056 990 60.8869 916.878 539.911
204 0 73.1588 13.0675 956 62.455 916.661 538.013
205 0 75.2416 13.0114 979 62.1777 916.868 537.249
206 0 78.148 12.745 996 62.5211 916.652 538.45
207 0 80.1801 12.5842 1009 63.0654 916.952 535.647
208 0 83.1822 13.4764 1121 61.8528 917.278 536.484
209 0 84.2383 13.5805 1144 62.6757 917.187 533.958
210 0 86.2489 13.948 1203 62.9052 917.201 531.242
211 0 89.1547 13.9196 1241 62.8969 917.512 530.594
212 0 92.3706 14.6908 1357 61.9602 917.21 530.226
213 0 94.0855 12.7331 1198 64.4808 917.398 529.737
214 0 99.2517 13.8839 1378 62.7003 916.744 525.183
215 0 103.174 14.18 1463 62.1073 916.837 524.29
216 1 59.122 11.7553 695 62.6072 917.013 547.186
217 0 60.1038 11.9294 717 62.4003 916.742 547.689
218 0 60.0627 12.6201 758 61.9314 916.81 546.704
219 0 61.1771 12.5374 767 63.0039 915.937 545.506
220 0 63.2201 12.9073 816 61.9179 916.028 545.365
221 0 66.0884 13.3458 882 61.1565 915.213 542.97
222 0 67.2822 13.0495 878 61.7255 915.03 541.761
223 0 71.208 13.8046 983 60.1353 914.838 540.901
224 0 72.1048 13.4943 973 60.9373 914.491 540.334
225 0 74.2616 13.1293 975 61.6359 914.686 538.436
226 0 78.3614 13.2336 1037 60.6509 915.179 539.995
227 0 80.2245 13.5495 1087 60.7028 914.927 536.164
228 0 82.3342 12.7529 1050 61.5314 914.689 535.7
229 0 84.3789 13.309 1123 61.122 914.654 534.776
230 1 45.3037 10.1537 460 62.0783 914.824 555.204
231 0 46.2315 10.5988 490 61.7469 914.494 554.731
232 0 47.1285 11.9885 565 60.4867 914.446 555.303
233 0 48.2672 13.1145 633 60.0063 914.254 552.951
234 0 51.3439 13.4193 689 59.1596 913.486 552.197
235 0 52.1769 12.151 634 61.0568 913.003 552.476
236 0 52.2243 13.6335 712 60.0885 913.034 551.219
237 0 53.3374 12.6553 675 61.8741 913.015 549.507
238 0 54.1272 13.4867 730 60.7329 912.908 549.897
239 0 57.309 12.8776 738 61.0447 913.299 547.71
240 0 58.2057 12.7651 743 61.4092 913.151 549.376
241 0 62.308 13.674 852 59.9308 913.796 546.988
242 0 63.2452 13.9141 880 60.0341 913.622 547.042
243 0 64.109 13.2899 852 61.5094 912.825 545.606
244 0 65.3739 13.7823 901 61.3152 912.868 544.608
245 0 68.2562 13.42 916 61.7784 913.361 544.108
246 0 71.3303 13.4725 961 61.7586 913.273 543.555
247 0 73.4766 13.7867 1013 61.9625 913.281 540.649
248 0 76.2323 14.0885 1074 61.0782 912.942 539.119
249 0 79.2877 14.6177 1159 60.7058 912.839 537.856
250 0 81.3594 14.4052 1172 60.5597 913.241 539.379
251 0 86.2784 13.2478 1143 62.0796 913.142 537.346
252 0 87.3319 13.8552 1210 61.2587 913.454 536.035
253 0 91.2875 13.9559 1274 61.3257 913.093 534.215
254 0 95.2971 13.9144 1326 61.5505 913.226 533.61
255 1 50.1247 11.4115 572 62.2867 913.596 556.547
256 0 51.1698 12.6246 646 61.2337 912.955 554.389
257 0 53.1398 12.3072 654 62.0856 913.099 553.338
258 0 55.2412 13.0881 723 61.7815 913.088 551.473
259 0 57.1609 13.3483 763 61.3001 912.682 552.177
260 0 57.2233 13.4211 768 61.5365 912.372 550.624
261 0 61.1574 13.6042 832 61.1743 912.525 549.673
262 0 63.0914 12.8861 813 62.23 912.56 548.734
263 0 65.118 13.1147 854 62.1967 912.341 549.635
264 0 69.0444 14.7007 1015 60.0039 912.368 548.376
265 0 69.1846 13.4423 930 61.9043 911.936 547.839
266 0 72.1073 14.0901 1016 62.1132 912.073 545.511
267 0 73.1816 14.7168 1077 61.468 912.124 545.222
268 0 76.084 14.0108 1066 62.6698 911.968 543.999
269 0 78.1732 13.4701 1053 63.6809 912.717 542.417
270 0 79.1951 13.5614 1074 64.541 912.221 539.527
271 0 79.1951 13.5741 1075 176.577 912.213 539.532
272 0 83.2066 13.1961 1098 65.4171 912.484 537.621
273 0 88.2089 14.1029 1244 63.6624 912.633 535.842
274 1 47.1665 12.2757 579 63.3437 912.801 555.15
275 0 50.2589 10.6648 536 64.6828 912.793 554.632
276 0 50.1143 11.6534 584 64.1182 912.668 554.044
277 0 52.1138 11.6668 608 64.3487 912.867 553.936
278 0 55.2576 12.2879 679 62.9897 913.084 552.53
279 0 55.3901 12.9265 716 64.1159 912.911 550.025
280 0 58.2101 13.1077 763 63.4495 913.337 549.249
281 0 58.3412 13.6267 795 63.073 913.835 549.204
282 0 61.1856 13.2548 811 63.6128 914.155 548.639
283 0 62.3113 13.6091 848 63.0637 913.858 547.774
284 0 65.19 14.1433 922 62.82 914.285 545.378
285 0 65.1733 13.9321 908 63.3987 914.884 544.178
286 0 68.199 13.5046 921 63.7937 914.588 544.623
287 0 70.2019 14.1734 995 63.4362 914.749 541.787
288 0 73.1836 13.8556 1014 64.3008 915.243 541.339
289 0 74.2645 14.4888 1076 63.8411 914.902 540.857
290 0 77.173 14.5906 1126 64.278 915.089 540.617
291 0 81.2012 13.8298 1123 64.829 915.402 537.783
292 0 83.0987 14.1639 1177 65.0765 915.689 535.406
293 0 86.1418 13.9886 1205 65.6747 915.816 535.08
294 0 88.0671 14.3754 1266 65.5592 915.784 532.107
295 0 92.0776 15.0742 1388 64.835 916.225 530.202
296 0 95.1447 15.1348 1440 65.4486 915.759 527.633
297 0 98.1943 15.0111 1474 65.4274 915.534 528.41
298 0 101.181 14.8645 1504 66.121 915.942 522.657
299 0 106.198 15.1791 1612 65.1433 916.035 522.466
300 0 107.308 14.9103 1600 66.2138 916.518 521.122
301 1 57.0838 11.5795 661 66.9017 916.728 547.626
302 0 58.0753 12.4838 725 67.4703 917.16 545.074
303 0 60.0973 12.5297 753 66.1859 917.691 546.132
304 0 64.1063 12.9785 832 65.4375 917.623 543.245
305 0 66.128 12.3397 816 65.8909 917.368 543.001
306 0 67.3345 12.7869 861 65.3101 917.285 541.352
307 0 70.2086 13.2605 931 64.7368 917.452 539.27
308 0 71.2238 12.7907 911 64.9934 917.441 539.104
309 0 73.1314 12.7442 932 65.1234 917.296 537.288
310 0 76.199 13.386 1020 64.5951 916.768 535.257
311 0 79.1704 14.3993 1140 63.4921 917.489 533.568
312 0 79.1704 14.4246 1142 158.334 918.486 533.632
313 0 86.2785 13.3985 1156 64.3417 918.026 530.794
314 0 88.1444 14.272 1258 62.4452 917.958 531.157
315 0 91.1674 13.5684 1237 64.2005 917.698 528.871
316 0 94.3222 13.6341 1286 64.2869 917.25 527.631
317 0 95.2783 13.109 1249 65.1465 917.327 526.923
318 0 98.2304 13.6414 1340 64.7575 917.089 525.746
319 0 102.349 14.2161 1455 64.4914 917.298 521.364
320 0 105.216 13.9238 1465 64.8478 916.884 521.233
321 0 110.301 14.0072 1545 64.3819 916.348 520.662
322 1 59.0576 12.1407 717 62.5941 916.699 546.552
323 0 60.1288 11.5419 694 62.4625 915.997 542.865
324 0 61.1813 11.8337 724 62.3066 916.128 541.975
325 0 63.0907 11.856 748 62.3062 916.599 543.664
326 0 65.0936 11.9367 777 64.1017 916.86 543.041
327 0 69.1246 12.6728 876 62.5331 916.776 542.043
328 0 70.0852 12.1566 852 63.5962 916.834 540.717
329 0 72.104 12.1907 879 63.6803 916.44 538.928
330 0 74.1974 13.518 1003 62.2423 916.075 537.3
331 0 78.1614 13.1139 1025 62.641 916.336 536.092
332 0 79.1128 12.8045 1013 63.5123 915.596 535.108
333 0 83.2151 13.0505 1086 62.1354 915.078 531.918
334 0 85.2229 12.8135 1092 62.9103 915.018 532.3
335 0 89.1993 12.7019 1133 62.7282 914.685 531.166
336 0 92.2488 13.2576 1223 62.9771 914.64 529.497
337 0 96.1954 13.6909 1317 62.0995 914.412 528.595
338 0 99.1938 13.7004 1359 62.1707 914.521 527.467
339 0 102.251 13.3691 1367 61.8178 914.312 524.448
340 0 106.242 12.3962 1317 62.8626 914.455 521.98
341 0 108.303 13.1206 1421 62.0443 914.377 520.059
342 1 57.0896 9.93176 567 60.3263 914.593 547.531
343 0 57.0533 10.5515 602 61.4402 914.188 544.91
344 0 60.1008 11.1147 668 60.4027 914.078 544.828
345 0 62.1756 11.8213 735 59.7905 913.624 544.706
346 0 64.1628 12.9514 831 59.4272 913.704 543.413
347 0 66.1656 12.9523 857 59.1108 914.202 541.744
348 0 69.0455 12.7742 882 58.8537 913.999 541.322
349 0 69.0526 12.7005 877 59.2303 913.237 541.379
350 0 72.134 13.0036 938 58.8966 913.52 540.87
351 0 75.1622 11.5484 868 60.6705 912.931 540.135
352 0 79.1689 13.4017 1061 58.4251 912.913 537.708
353 0 81.0989 13.1568 1067 59.3814 912.543 535.172
354 0 83.2804 13.7127 1142 58.8643 911.61 535.834
355 0 83.2804 13.6286 1135 144.574 911.593 535.78
356 0 91.249 13.1837 1203 58.7814 912.102 534.916
357 0 93.1425 13.3344 1242 59.3486 912.183 530.04
358 0 97.2634 13.9415 1356 58.0878 912.426 530.874
359 0 99.2267 13.0711 1297 59.5204 912.836 529.023
360 1 53.097 9.86872 524 59.458 913.529 553.097
361 0 54.0972 10.9248 591 58.8528 912.87 552.519
362 0 56.0346 12.4923 700 57.74 913.733 551.01
363 0 58.0649 11.4355 664 58.6611 914.062 551.113
364 0 58.1793 12.8052 745 58.6846 913.415 547.196
365 0 61.3477 11.9483 733 59.4789 913.54 547.194
366 0 64.3039 13.0008 836 58.494 913.37 545.11
367 0 66.2906 12.9128 856 58.6729 913.196 546.724
368 0 69.2147 13.3353 923 58.0292 913.498 545.689
369 0 70.2904 13.3873 941 58.0468 913.498 543.909
370 0 71.1954 12.8098 912 58.9945 913.842 543.353
371 0 74.1947 13.3567 991 58.3199 914.689 541.647
372 0 77.2148 13.0286 1006 58.7783 914.816 541.491
373 0 80.3151 13.6462 1096 58.5803 914.362 538.424
374 0 83.2578 13.9326 1160 58.2716 914.375 536.234
375 1 45.1723 11.6 524 57.9733 915.672 555.637
376 0 44.1934 11.0197 487 58.8624 915.554 555.741
377 0 47.1987 10.9325 516 58.0271 915.936 555.521
378 0 49.2019 12.3166 606 57.2574 916.333 552.752
379 0 49.2019 12.2963 605 160.98 917.331 552.79
380 0 52.1337 12.0076 626 56.738 916.676 551.66
381 0 52.0852 11.9612 623 57.6003 916.992 550.457
382 0 54.3015 12.891 700 57.6743 916.294 551.36
383 0 56.2799 12.6866 714 58 916.552 549.328
384 0 59.2384 13.0152 771 57.642 916.673 547.16
385 0 60.2304 14.4279 869 56.1761 917.109 546.368
386 0 62.3691 13.837 863 56.5446 916.863 544.983
387 0 63.1885 13.4835 852 56.9002 916.9 545.501
388 0 64.2154 13.7973 886 57.3454 917.017 544.188
389 0 65.1088 13.7462 895 57.5732 917.451 543.626
390 0 67.1754 13.9337 936 57.7863 917.27 543.311
391 0 71.3022 13.9968 998 56.993 917.28 541.481
392 0 72.1965 14.8207 1070 57.0065 917.978 539.927
393 0 75.1501 15.8217 1189 55.7914 918.101 539.766
394 0 75.1501 15.8217 1189 160.589 919.101 539.766
395 0 79.1629 15.3102 1212 56.7896 917.929 536.238
396 0 83.163 14.3934 1197 57.2139 917.678 534.531
397 0 84.2504 15.0148 1265 56.8909 917.726 535.436
398 0 86.3532 14.7302 1272 57.6682 917.772 531.897
399 0 90.1999 14.7783 1333 57.5041 917.938 532.834
400 0 88.353 14.5326 1284 58.1098 917.934 532.149
401 1 49.1924 12.7459 627 59.1818 917.928 550.592
402 0 50.1896 11.8351 594 60.1953 918.111 550.806
403 0 53.1653 13.016 692 58.5217 917.926 549.37
404 0 55.1423 12.4768 688 59.5 917.676 547.956
405 0 56.1399 12.647 710 59.5732 917.741 547.289
406 0 59.2498 12.8777 763 58.6448 918.083 546.197
407 0 61.1504 13.9165 851 57.4254 918.098 545.704
408 0 61.0831 14.1938 867 58.0012 918.082 543.133
409 0 63.1829 13.9278 880 57.9182 918.36 542.574
410 0 65.1469 13.9838 911 58.0033 918.093 540.751
411 0 68.1243 14.224 969 57.0444 918.185 543.02
412 0 71.2646 14.818 1056 56.4224 918.41 539.539
413 0 72.1109 13.6872 987 58.151 917.707 538.654
414 0 76.2032 13.7658 1049 57.6787 917.53 536.274
415 0 78.0384 14.1212 1102 57.7278 918.109 535.723
416 0 83.1593 14.382 1196 57.0744 917.331 533.993
417 0 84.1255 14.1812 1193 57.7075 917.178 533.868
418 1 44.0929 10.2738 453 59.0154 917.327 551.715
419 0 48.0916 12.2475 589 56.3871 916.828 550.949
420 0 48.2511 12.1862 588 56.5374 916.862 549.624
421 0 49.2028 11.3205 557 56.7935 916.605 551.634
422 0 50.1707 12.0788 606 57.2822 916.246 549.518
423 0 53.1291 11.8203 628 57.2739 916.425 547.524
424 0 54.0945 12.1269 656 57.0122 916.957 550.002
425 0 56.1783 13.9022 781 54.7465 916.857 547.674
426 0 58.1009 13.597 790 55.4557 916.232 546.515
427 0 60.1488 14.1316 850 54.5965 915.927 546.008
428 0 61.1154 12.9918 794 55.8136 915.409 544.855
429 0 64.1652 13.4185 861 55.741 915.319 543.633
430 0 65.1862 12.8555 838 56.6181 915.278 542.4
431 0 67.2231 13.0312 876 56.9635 915.139 541.302
432 0 70.1834 13.3365 936 56.5171 914.229 540.513
433 0 70.1832 13.3793 939 56.426 914.67 541.106
434 0 75.1592 13.2519 996 56.3313 914.202 537.565
435 0 75.3476 13.3116 1003 56.6481 914.471 537.476
436 0 78.2152 13.1432 1028 56.8424 914.01 535.867
437 0 82.2002 13.5279 1112 56.3984 913.834 535.648
438 0 83.3975 13.3098 1110 56.6865 914.088 535.184
439 0 86.2483 13.0901 1129 57.3313 914.189 533.082
440 1 48.202 10.3108 497 55.5996 914.012 553.561
441 0 48.1552 11.0684 533 55.4559 914.298 553.666
442 0 49.2194 10.9307 538 55.2323 914.632 554.132
443 0 52.275 11.363 594 54.2593 914.357 552.377
444 0 52.3145 11.9661 626 54.401 914.764 550.698
445 0 54.1942 12.4368 674 54.549 914.559 549.491
446 0 55.24 12.2737 678 54.8555 914.721 549.204
447 0 59.3641 12.3475 733 53.9127 914.266 548.585
448 0 59.2884 12.3802 734 54.6676 914.522 547.703
449 0 62.1818 13.0102 809 53.8974 914.576 547.094
450 0 63.2373 11.7336 742 55.4811 914.819 545.336
451 0 66.205 13.3978 887 53.6234 915.107 544.218
452 0 67.1807 13.4414 903 53.9214 915.021 543.203
453 0 68.2564 12.4824 852 55.0974 915.692 542.46
454 0 72.1847 13.133 948 54.1044 915.634 541.938
455 0 74.1985 13.3426 990 54.0879 915.445 539.833
456 0 76.3065 12.6333 964 54.2842 914.601 539.693
457 0 79.2937 12.4726 989 54.3559 915.107 536.791
458 0 83.2918 13.1225 1093 53.849 914.449 534.452
459 0 86.567 12.7993 1108 54.1282 914.616 533.333
460 0 85.3977 12.4359 1062 54.5019 914.35 532.52
461 1 46.3085 10.8619 503 54.2604 914.167 553.511
462 0 48.257 12.3091 594 53.3249 914.475 552.823
463 0 50.2902 11.3342 570 54.0228 913.882 551.554
464 0 52.1945 13.2006 689 52.4253 913.742 552.37
465 0 52.208 12.3544 645 54.3519 914.031 550.574
466 0 53.2407 12.8098 682 54.5323 914.283 550.254
467 0 54.1145 12.5659 680 54.9176 914.885 549.116
468 0 57.2652 13.1144 751 54.3435 914.411 549.574
469 0 58.1861 13.1303 764 55.0733 914.666 547.89
470 0 60.1705 13.9105 837 54.2401 914.606 547.792
471 0 61.1512 13.7201 839 54.6734 914.199 547.266
472 0 62.1403 13.8075 858 55.3158 914.314 545.614
473 0 63.1917 13.467 851 56.3079 914.006 545.907
474 0 67.2822 13.5697 913 55.736 914.407 546.034
475 0 68.2698 14.1644 967 55.7735 914.246 543.935
476 0 70.2044 14.002 983 56.4741 914.198 543.096
477 0 72.2708 13.6293 985 56.8985 914.28 541.91
478 0 75.2007 16.0371 1206 54.1202 914.959 541.338
479 0 75.2734 14.3211 1078 56.5464 914.958 539.723
480 0 79.2863 14.7062 1166 55.7247 914.724 540.075
481 0 83.364 15.3903 1283 54.8854 914.747 538.088
482 0 84.3209 14.1839 1196 56.3637 914.336 536.647
483 0 84.1937 13.6471 1149 57.3934 914.511 534.218
484 0 90.1891 14.525 1310 55.8992 914.393 533.832
485 0 92.2602 13.6028 1255 56.8709 914.837 531.947
486 1 50.1911 12.9306 649 56.4129 915.091 552.579
487 0 50.0665 12.004 601 57.3744 914.953 553.378
488 0 54.2163 13.7228 744 55.0753 914.964 551.425
489 0 55.1828 13.6818 755 55.6305 915.327 550.102
490 0 56.1574 13.7471 772 55.4262 915.323 550.333
491 0 59.1848 13.3818 792 55.5215 914.996 549.645
492 0 62.2259 13.7242 854 55.3923 915.863 548.456
493 0 64.1271 13.4888 865 55.8717 915.747 546.732
494 0 66.111 14.2488 942 55.1104 916.139 545.78
495 0 68.2315 14.4948 989 54.9808 916.105 544.422
496 0 71.2212 14.3497 1022 55.2182 915.364 543.897
497 0 71.3954 13.5023 964 56.8402 915.742 542.312
498 0 73.3 13.4925 989 57.0142 915.562 541.898
499 1 40.1356 10.913 438 57.7854 915.89 558.126
500 0 41.1053 11.507 473 58.3911 915.727 556.488
501 0 42.1143 12.7748 538 57.2621 915.574 556.606
502 0 45.1113 12.8571 580 57.4328 915.798 554.933
503 0 47.2214 13.2991 628 57 915.5 554.67
504 0 48.2496 12.9742 626 58.5495 915.548 553.27
505 0 50.2989 13.221 665 58.3759 915.221 552.759
506 0 49.203 13.109 645 60.0558 915.372 551.566
507 0 53.2324 13.5256 720 58.7472 915.34 552.147
508 0 54.1981 13.709 743 59.1561 915.619 551.378
509 0 57.2571 13.1861 755 59.857 915.269 549.944
510 0 58.417 13.5235 790 59.8848 915.584 548.357
511 0 59.1985 13.4125 794 60.4874 915.723 548.399
512 0 59.2816 13.5961 806 61.593 915.574 545.685
513 0 63.3581 14.0156 888 60.3108 916.2 545.5
514 0 64.2302 13.9965 899 61.0623 915.854 543.864
515 0 68.3897 13.5839 929 61.2745 915.643 543.561
516 0 70.3003 14.6657 1031 60.1804 915.689 542.061
517 0 73.2751 14.3978 1055 59.1934 915.459 540.535
518 0 75.2668 13.8042 1039 60.1213 915.968 539.706
519 0 75.2155 13.7871 1037 60.7242 916.464 540.907
520 0 78.1912 14.5924 1141 60.057 916.722 536.8
521 0 80.2098 15.1727 1217 59.364 916.371 537.52
522 0 83.3616 13.9872 1166 61.0515 916.424 534.052
523 0 88.3526 14.1026 1246 60.1252 916.493 532.924
524 0 89.2304 14.3449 1280 60.1773 916.021 531.571
525 0 94.3653 14.073 1328 59.7688 916.1 530.715
526 1 47.3283 10.6701 505 59.9941 916.64 553.515
527 0 48.1715 12.1026 583 58.5386 916.264 553.024
528 0 52.1589 13.2288 690 56.6971 916.641 551.019
529 0 52.268 11.728 613 58.845 916.375 548.93
530 0 52.268 11.728 613 162.38 916.375 548.93
531 0 57.2413 13.0151 745 57.0671 916.231 548.334
532 0 57.1416 12.3903 708 58.315 916.144 547.128
533 0 60.2673 13.8881 837 56.1434 916.571 545.583
534 0 62.2403 12.4839 777 57.5238 916.646 544.758
535 0 63.1311 12.4978 789 57.6109 916.357 544.304
536 0 66.1733 13.3286 882 56.7483 917.118 542.934
537 0 68.2641 13.9019 949 55.8662 916.751 540.9
538 0 69.1694 13.3874 926 56.5432 916.555 541.097
539 0 71.0989 12.9397 920 57.6565 916.189 539.229
540 0 75.1669 12.8381 965 57.3482 915.907 536.892
541 1 40.1661 9.65989 388 58.4098 916.276 554.85
542 0 42.1507 10.1066 426 58.1268 916.552 554.12
543 0 45.0874 9.55921 431 58.8492 916.111 553.715
544 0 45.1417 11.6522 526 57.5228 915.943 551.097
545 0 47.0745 12.2572 577 55.87 915.96 549.705
546 0 48.1054 11.7658 566 56.371 916.007 551.445
547 0 48.1299 13.0065 626 56.2013 915.318 550.241
548 0 50.1657 11.9006 597 56.7018 915.054 550.31
549 0 52.1869 12.0912 631 56.3391 915.076 550.485
550 0 54.1809 11.4431 620 57.1226 915.297 548.336
551 0 54.1653 12.6649 686 56.5496 915.567 548.647
552 0 57.2356 12.4049 710 56.6239 915.093 546.783
553 0 58.1741 13.4424 782 55.9578 915.056 547.335
554 0 60.1764 13.8593 834 56.6811 915.691 545.201
555 0 63.3648 12.073 765 58.6157 915.332 543.979
556 0 63.2931 12.8924 816 58.1814 915.539 543.143
557 0 66.3344 12.5877 835 58.0024 915.135 543.574
558 0 69.5711 13.4395 935 56.6845 915.382 542.464
559 0 71.458 12.8047 915 57.1978 915.198 541.143
560 0 75.2939 12.5243 943 58.0106 915.34 539.944
561 0 77.3058 13.4401 1039 57.1954 915.707 537.784
562 0 80.427 12.9186 1039 57.5881 915.652 536.63
563 0 84.331 12.8185 1081 57.7317 915.111 537.711
564 1 46.3082 10.9268 506 56.2806 915.559 555.024
565 0 47.3247 10.3117 488 56.9447 915.381 554.316
566 0 48.2789 11.2057 541 56.634 915.257 553.425
567 0 49.249 11.919 587 57.1891 915.579 552.508
568 0 52.1727 12.0561 629 57.0763 916.259 551.013
569 0 53.1067 13.0869 695 55.5165 916.052 551.6
570 0 54.1834 12.5869 682 57.0938 915.853 549.507
571 0 55.1866 12.1044 668 58.006 915.663 547.858
572 0 58.1502 12.7601 742 56.3571 915.43 548.729
573 0 61.2786 12.8919 790 56.1076 915.001 547.986
574 0 60.2076 12.9386 779 56.7214 914.73 546.902
575 0 63.1837 12.8039 809 57.1125 914.47 545.085
576 0 62.1592 13.3367 829 57.7105 914.119 544.403
577 0 66.1478 13.3942 886 56.9842 914.799 544.438
578 0 69.2197 13.9989 969 56.4004 914.242 543.897
579 0 71.1594 13.5189 962 56.9179 914.153 542.235
580 0 72.1617 13.3589 964 57.8299 913.835 542.54
581 0 74.3505 13.1808 980 58.3663 913.672 540.869
582 0 78.2827 13.579 1063 57.7046 913.681 541.024
583 0 80.2353 12.9868 1042 58.5096 913.434 539.375
584 0 81.3689 13.6293 1109 58.1506 913.429 539.263
585 0 83.2554 13.9811 1164 58.951 913.511 534.787
586 0 87.1864 13.626 1188 59.0716 912.745 535.102
587 0 90.1819 13.6058 1227 59.4792 913.295 533.842
588 1 46.0669 10.3328 476 58.771 913.599 557.179
589 0 48.032 10.5346 506 58.666 913.52 555.86
590 0 51.1449 12.357 632 57.2658 913.502 556.283
591 0 51.059 12.887 658 57.6322 913.679 553.494
592 0 54.1145 13.2127 715 57.8755 913.096 552.971
593 0 55.197 13.1348 725 58.3062 912.579 552.913
594 0 56.1578 12.5005 702 58.7578 912.983 552.472
595 0 58.2463 12.9965 757 57.4201 912.775 550.435
596 0 59.1753 12.9615 767 57.1799 912.575 549.27
597 0 63.1612 13.5051 853 55.83 912.627 548.855
598 0 64.2345 13.0615 839 55.8772 913.087 548.597
599 0 66.1181 13.1734 871 56.5557 912.598 545.71
600 0 71.164 12.3939 882 56.5805 911.986 546.053
601 0 69.1669 12.5927 871 56.4236 911.877 544.511
602 0 74.1501 13.2839 985 55.9137 912.438 544.763
603 0 76.1364 13.6334 1038 55.0983 912.416 543.803
604 0 77.1858 13.8238 1067 54.7395 912.277 539.772
605 0 77.1019 13.2811 1024 54.7061 912.304 540.814
606 0 80.2375 13.5971 1091 54.6416 912.032 538.287
607 0 80.4872 13.0331 1049 56.2974 912.642 539.405
608 0 87.2476 13.3299 1163 56.4927 912.507 535.056
609 1 48.2571 11.4595 553 57.0506 913.25 555.21
610 0 47.1295 11.1607 526 57.8688 913.384 555.791
611 0 51.2195 11.7924 604 56.9156 912.801 554.298
612 0 51.0648 12.2002 623 57.3852 913.615 554.17
613 0 53.1053 12.1457 645 59.1612 913.55 551.848
614 0 55.1315 12.3886 683 58.8843 913.457 551.019
615 0 56.1144 11.9577 671 59.5007 913.055 550.298
616 0 59.2936 13.5765 805 57.7665 913.078 549.34
617 0 59.3753 11.9915 712 59.2542 912.952 549.92
618 0 61.4002 12.0032 737 59.2062 912.764 548.324
619 0 64.4505 13.4211 865 56.8728 913.161 547.872
620 0 65.4517 13.0325 853 56.8488 912.9 546.762
621 0 67.473 14.1242 953 55.7072 913.135 545.639
622 0 68.21 12.6961 866 58.3499 912.513 545.46
623 0 70.3309 13.5645 954 57.1792 913.076 544.477
624 0 73.5347 14.1974 1044 56.6619 913.21 542.326
625 0 75.4881 13.8697 1047 56.8959 913.287 541.76
626 0 77.2056 13.872 1071 57.4547 913.116 538.828
627 0 80.3171 13.235 1063 58.3095 913.201 538.848
628 0 82.2228 13.9864 1150 57.5704 913.293 538.166
629 0 86.3733 13.9279 1203 58.1895 913.515 535.349
630 0 88.3359 13.0638 1154 58.5771 913.264 534.555
631 0 91.2566 13.4346 1226 57.5563 913.224 532.771
632 0 94.3529 13.9794 1319 57.0667 913.365 532.135
633 0 100.31 13.6278 1367 57.0556 913.759 529.492
634 0 100.249 14.2146 1425 56.8077 913.638 528.619
635 0 104.362 13.7693 1437 57.1294 913.798 525.935
636 0 106.245 13.7983 1466 57.2722 914.184 526.371
637 0 111.257 15.1092 1681 55.6217 914.856 521.067
638 0 114.281 14.4381 1650 56.5327 914.331 520.107
639 0 117.189 14.2419 1669 56.4452 914.644 520.616
640 0 122.333 14.5831 1784 55.9624 914.503 516.782
641 0 126.459 14.7005 1859 55.858 914.438 515.349
642 1 66.1813 11.0454 731 58.5103 914.781 544.577
643 0 70.2025 12.7773 897 56.6254 914.764 544.358
644 0 70.069 13.501 946 56.797 914.932 542.151
645 0 73.1287 12.5122 915 58.1781 914.765 541.601
646 0 77.083 13.6995 1056 57.0407 914.815 538.09
647 0 79.2394 12.62 1000 58.034 914.987 537.653
648 0 80.1905 13.6051 1091 57.6966 914.817 533.865
649 0 86.2245 13.0821 1128 57.6746 914.713 534.766
650 0 88.1718 13.2242 1166 57.584 915.35 534.261
651 0 92.2239 12.9793 1197 57.9307 915.563 531.546
652 1 48.1119 10.1015 486 58.9012 916.214 551.623
653 0 53.16 11.2679 599 57.2905 916.112 549.998
654 0 52.1028 11.5349 601 56.9368 915.885 549.567
655 0 56.175 10.7165 602 58.0515 915.498 547.742
656 0 56.1821 10.8042 607 57.168 915.466 548.423
657 0 59.264 11.8622 703 56.6188 915.987 546.838
658 0 59.2082 10.7587 637 58.124 915.677 545.92
659 0 62.118 10.8664 675 57.7037 915.813 543.228
660 0 63.1857 11.9647 756 56.3651 915.545 543.271
661 0 64.245 12.1877 783 55.7535 915.451 541.322
662 0 69.2076 13.5101 935 54.4759 915.946 541.062
663 0 69.1856 12.5604 869 55.9379 916.278 540.433
664 0 72.1001 13.0374 940 55.8415 916.657 537.651
665 0 74.1484 12.5829 933 56.2465 916.315 538.597
666 0 77.2495 13.3593 1032 55.9671 916.792 536.202
667 0 80.3146 14.4681 1162 55.2186 916.779 534.083
668 0 82.3349 14.3074 1178 56.1341 916.754 531.047
669 0 84.2627 13.8139 1164 56.9064 916.986 530.454
670 0 88.2345 13.6795 1207 57.0265 916.597 530.141
671 0 89.3338 13.6454 1219 57.2838 916.865 527.826
672 0 94.3746 13.4464 1269 57.3192 916.635 527.461
673 0 96.3447 13.6489 1315 57.3293 916.812 526.528
674 0 99.3713 13.2332 1315 58.0084 916.972 524.051
675 0 103.403 13.9938 1447 57.3442 917.422 519.574
676 1 57.14 11.7256 670 56.5761 917.57 545.057
677 0 59.3703 11.6893 694 56.7205 917.467 545.765
678 0 59.1746 11.4069 675 57.5837 917.842 544.798
679 0 60.0499 12.3897 744 58.1425 918.194 543.473
680 0 62.1225 11.6222 722 58.5776 919.332 542.79
681 0 65.3108 12.2951 803 57.3051 918.788 542.966
682 0 64.0981 12.5589 805 57.8112 918.32 541.865
683 0 67.1475 12.0928 812 58.0456 918.563 540.816
684 0 70.0721 12.587 882 57.822 918.706 537.964
685 0 71.1849 12.9522 922 57.5358 918.456 538.367
686 0 73.3345 12.968 951 57.0473 917.823 537.227
687 0 75.2421 12.5993 948 57.3249 917.522 537.224
688 0 76.3078 13.5766 1036 56.6844 917.523 534.263
689 0 80.4105 12.7098 1022 57.725 917.882 533.41
690 0 82.3525 12.7015 1046 57.9206 918.103 531.402
691 0 83.2121 12.6544 1053 58.4501 917.43 529.664
692 0 89.3962 12.3831 1107 57.4715 918.35 529.11
693 1 45.0949 9.51328 429 57.338 918.921 550.326
694 0 47.0969 10.4041 490 57.2326 918.837 548.855
695 0 48.0421 10.6157 510 56.7471 918.035 548.51
696 0 51.1148 10.8383 554 56.7274 918.28 547.209
697 0 52.0402 11.0492 575 57.0713 918.261 548.019
698 0 53.1812 11.8651 631 56.2409 917.174 546.399
699 0 54.1047 11.2005 606 57.1799 917.335 546.899
700 0 56.1379 11.2936 634 57.0552 916.902 548.192
701 0 58.1071 12.0123 698 56.7364 916.842 545.797
702 0 58.106 12.047 700 57.2043 916.347 547.141
703 0 61.1864 12.9114 790 56.3405 915.894 544.685
704 0 61.2229 12.626 773 57.696 916.675 543.836
705 0 63.1199 12.6426 798 58.0514 916.724 543.346
706 0 63.1199 12.6584 799 154.191 916.716 543.314
707 0 68.1518 12.8243 874 58.3604 915.82 540.735
708 0 69.1097 12.907 892 58.6917 916.166 541.529
709 0 69.2323 12.9419 896 59.0379 916.393 539.941
710 0 72.1041 13.0644 942 58.7941 915.639 538.601
711 0 73.2094 12.9492 948 59.4905 915.334 538.245
712 0 79.2096 12.0819 957 59.4451 914.727 537.568
713 0 81.275 13.1775 1071 58.8534 914.92 536.114
714 0 82.3776 12.8797 1061 59.5137 914.325 534.184
715 1 46.2044 10.2371 473 56.8393 915.702 555.543
716 0 46.2222 10.2981 476 57.5609 914.849 554.097
717 0 46.2893 10.4344 483 58.0642 914.489 554.799
718 0 48.2315 11.5485 557 57.5099 914.318 551.309
719 0 48.1301 11.3858 548 57.885 914.602 552.445
720 0 51.2416 12.041 617 57.2123 914.185 552.005
721 0 52.2349 11.7929 616 58.0812 913.852 549.974
722 0 55.3568 12.8439 711 55.8664 913.968 551.696
723 0 57.3287 11.6695 669 57.586 914.082 550.861
724 0 57.1688 11.7372 671 57.7556 913.747 548.909
725 0 57.2012 11.9403 683 58.9693 913.785 547.471
726 0 62.1333 12.4571 774 56.323 913.687 546.876
727 0 64.296 12.5824 809 56.8888 913.535 545.963
728 0 63.2892 12.119 767 58.5489 913.632 546.061
729 0 66.219 12.9872 860 56.8058 913.82 545.037
730 0 69.3567 13.3369 925 56.2541 913.303 543.537
731 0 69.1958 12.2984 851 57.6275 913.014 545.584
732 0 70.3267 12.513 880 58.4136 913.684 543.392
733 0 72.2178 12.85 928 58.5431 913.566 542.268
734 0 75.3136 12.6139 950 59.2168 913.877 542.333
735 0 77.1172 12.9802 1001 59.006 913.4 540.79
736 0 81.3218 13.1699 1071 59.3343 913.352 538.27
737 1 45.2239 9.57457 433 60.6097 914.478 558.804
738 0 47.1362 10.6075 500 60.452 913.94 556.684
739 0 47.1285 11.649 549 60.3115 913.492 555.228
740 0 48.1748 12.2263 589 60.4312 914.003 554.803
741 0 50.2186 12.585 632 59.0965 913.404 554.581
742 0 48.1819 12.3905 597 60.5025 913.09 555.712
743 0 50.1794 11.0802 556 61.7626 913.581 554.732
744 0 51.1421 12.0644 617 61.6629 912.731 554.875
745 0 53.165 12.2073 649 61.9353 912.519 553.154
746 0 55.1327 11.5721 638 62.1458 912.45 554.431
747 0 58.163 12.3618 719 62.8331 912.274 551.908
748 0 59.1857 12.4861 739 62.9134 911.982 550.544
749 0 63.2047 12.9579 819 61.3223 911.455 549.968
750 0 62.0973 12.5448 779 62.3209 911.259 548.436
751 0 63.1286 13.1953 833 62.2233 911.149 547.753
752 0 66.1097 12.9028 853 63.7597 911.536 546.66
753 0 70.1296 13.5178 948 64.1371 911.477 545.404
754 0 70.1419 13.045 915 65.1563 911.71 543.888
755 0 72.12 12.7288 918 65.2843 911.83 544.786
756 0 76.1836 12.4436 948 65.3945 911.749 543.324
757 1 39.085 10.4644 409 64.6553 912.262 562.21
758 0 39.0174 10.5594 412 65.3738 912.015 561.534
759 0 40.0162 10.3708 415 65.7494 912.087 561.949
760 0 41.0597 10.7892 443 66.2167 911.959 560.424
761 0 43.1508 10.8225 467 65.3619 911.79 559.141
762 0 45.0794 11.2912 509 65.5422 911.587 557.474
763 0 45.0467 12.4315 560 64.5964 911.7 557.357
764 0 48.3321 11.6279 562 66.4875 911.073 557.258
765 0 49.2437 12.5498 618 65.377 911.633 555.225
766 0 50.207 12.9265 649 65.7365 910.935 555.864
767 0 51.309 12.6683 650 66.2462 911.605 554.378
768 0 51.3765 12.6906 652 66.1595 911.325 554.563
769 0 54.1868 13.5088 732 64.1298 910.956 552.868
770 0 53.2505 13.5398 721 65.4105 910.533 552.401
771 0 57.1587 12.684 725 65.4855 910.688 552.817
772 0 56.1512 13.2677 745 65.6993 910.489 551.898
773 0 58.3418 13.2152 771 65.7419 910.769 551.46
774 0 61.1562 13.2121 808 65.2859 910.494 551.255
775 0 61.226 13.638 835 65.4264 910.486 548.781
776 0 63.2402 13.3301 843 65.7319 910.342 550.508
777 0 66.2375 14.4027 954 64.6698 910.599 548.262
778 0 68.4595 14.1836 971 64.724 910.842 547.325
779 0 69.3654 13.883 963 64.9761 910.927 546.167
780 0 71.237 13.5884 968 65.3471 911.192 545.351
781 0 73.3215 12.8066 939 66.6805 911.261 543.886
782 0 76.4029 13.2848 1015 65.6394 911.542 543.515
783 0 78.2753 13.8613 1085 64.4424 911.398 541.205
784 0 80.2684 13.3054 1068 65.47 911.357 539.424
785 0 83.213 14.0243 1167 64.1123 911.911 538.479
786 1 46.1171 12.0129 554 65.2924 912.32 557.679
787 0 46.2387 12.9978 601 64.579 912.271 556.096
788 0 48.153 13.8517 667 63.5427 912.219 554.699
789 0 49.1551 14.3424 705 62.7135 912.226 554.638
790 0 50.0976 12.8749 645 65.1054 912.392 554.087
791 0 52.1318 13.3316 695 63.6446 912.85 554.281
792 0 52.1265 13.8509 722 63.9972 913.102 554.091
793 0 53.1379 13.5497 720 64.4569 913.11 552.835
794 0 56.1652 14.4217 810 62.9827 912.923 550.001
795 0 58.1341 14.3289 833 62.4946 912.791 549.19
796 0 59.1608 14.469 856 62.4159 913.716 547.957
797 0 60.1829 14.1236 850 62.72 913.352 547.607
798 0 63.1339 14.3663 907 61.538 913.462 547.174
799 0 66.1507 13.9681 924 61.8647 913.867 545.917
800 0 68.1129 14.2558 971 61.3306 914.179 544.674
801 0 70.1075 15.0768 1057 60.0833 914.45 544.876
802 0 69.1809 13.9634 966 61.7878 914.615 543.541
803 0 73.172 14.8007 1083 60.4321 914.055 541.244
804 0 77.2308 13.8675 1071 60.6769 913.837 539.362
805 0 79.1621 14.464 1145 59.8384 913.783 539.411
806 1 40.0682 11.7051 469 62.2303 913.71 555.765
807 0 44.1081 11.4265 504 59.5476 913.794 557.073
808 0 43.1109 11.3197 488 60.5758 914.248 555.254
809 0 47.1836 11.7202 553 59.9385 913.913 554.64
810 0 46.1413 11.6598 538 60.4777 914.751 553.394
811 0 50.2273 13.7774 692 56.854 914.626 552.903
812 0 51.105 13.756 703 56.8193 914.905 550.797
813 0 51.2688 12.9708 665 58.0301 914.941 551.023
814 0 55.178 14.4442 797 56.0577 914.923 549.418
815 0 55.1433 13.5828 749 56.729 915.037 548.101
816 0 57.1472 13.8064 789 56.2129 915.175 546.335
817 0 62.185 13.6528 849 56.1013 915.044 546.32
818 0 63.1776 14.5305 918 54.9401 915.202 545.92
819 0 66.1332 13.8206 914 56.0591 915.686 543.949
820 0 70.255 14.2196 999 54.992 915.59 542.87
821 0 70.1861 13.279 932 56.515 915.063 542.254
822 0 74.1167 14.2613 1057 55.7323 915.231 540.363
823 1 39.0136 11.7651 459 57.024 915.527 556.477
824 0 39.0553 11.01 430 58.0349 915.709 555.96
825 0 40.1037 10.7471 431 58.8329 916.151 556.06
826 0 41.0589 12.0072 493 58.0892 915.982 554.799
827 0 45.0507 12.5192 564 57.3759 915.902 554.938
828 0 47.0738 13.1071 617 56.3306 915.684 553.668
829 0 49.2098 12.4569 613 57.2496 915.352 551.308
830 0 47.1042 12.8863 607 57.9242 915.178 551.04
831 0 52.1349 13.0047 678 57.1386 914.761 551.015
832 0 51.1442 13.3739 684 57.8392 914.436 549.276
833 0 51.1442 13.413 686 164.723 913.445 549.206
834 0 56.1065 13.207 741 57.614 914.518 546.997
835 0 58.2163 13.5357 788 57.4657 913.678 545.966
836 0 60.0752 14.1822 852 55.8826 913.857 543.32
837 0 60.1308 12.9551 779 57.6688 913.852 543.659
838 0 63.2525 13.4224 849 56.9022 913.788 542.697
839 0 64.1525 13.9511 895 56.8827 913.974 541.933
840 0 68.1297 13.3128 907 57.9107 914.166 541.09
841 0 71.2225 14.5179 1034 56.2795 913.898 539.855
842 0 73.2175 14.4501 1058 56.5038 913.682 540.219
843 0 75.3208 13.6483 1028 57.5662 913.479 536.747
844 0 78.3141 14.5951 1143 56.3745 914.388 536.074
845 1 42.1803 9.7913 413 57.8281 913.736 554.978
846 0 44.2471 9.96675 441 56.4014 913.467 556.374
847 0 45.2419 11.2285 508 57.1909 913.39 552.213
848 0 47.3862 11.5645 548 56.3175 913.748 554.029
849 0 48.3056 12.897 623 55.5169 913.289 551.247
850 0 50.2867 12.4486 626 55.8978 913.855 552.698
851 0 52.2656 12.7235 665 55.7714 913.91 551.761
852 0 54.271 12.3823 672 56.2202 914.247 550.4
853 0 56.3162 12.4476 701 56.1997 914.417 549.575
854 0 58.2358 12.0373 701 56.9016 913.906 547.746
855 0 60.2169 12.6875 764 56.1558 913.897 549.263
856 0 62.5102 13.7098 857 55.0035 914.028 545.257
857 0 61.4659 12.9991 799 56.4906 913.737 545.706
858 0 63.5831 12.5033 795 57.0101 914.05 545.962
859 0 66.3586 13.8942 922 55.5249 913.717 542.91
860 0 67.5071 13.7171 926 55.6944 914.611 542.853
861 0 70.4199 13.1639 927 56.2492 914.531 541.518
862 0 70.5146 12.8909 909 57.3377 914.119 541.174
863 0 74.6044 12.6802 946 57.9429 914.072 539.203
864 0 76.6073 12.427 952 58.2815 913.727 539.937
865 0 77.5814 12.3225 956 59.114 914.049 537.34
866 0 81.7802 13.1205 1073 58.4809 913.777 535.524
867 1 41.6719 10.5107 438 58.3904 912.87 556.171
868 0 43.6497 9.43878 412 59.5146 912.837 554.279
869 0 46.6207 11.1539 520 58.625 913.433 554.038
870 0 47.4072 11.0743 525 60.2876 912.768 551.758
871 0 47.5185 11.2167 533 61.3133 912.505 551.632
872 0 51.3024 13.1573 675 58.6415 912.311 549.55
873 0 53.3075 12.3997 661 60.3328 912.98 550.464
874 0 55.372 13.021 721 59.7365 913.075 549.239
875 0 58.3856 13.034 761 59.3666 912.736 548.332
876 0 59.5667 12.826 764 60.1872 912.382 547.966
877 0 59.4643 12.6967 755 60.5033 912.379 547.2
878 0 61.4707 13.665 840 59.25 913.19 546.187
879 0 62.5113 12.5577 785 61.9414 912.648 544.127
880 0 63.4307 13.2901 843 61.4152 912.576 542.821
881 0 64.2058 14.251 915 60.4328 912.839 542.661
882 0 67.3541 13.7631 927 60.9169 912.466 540.83
883 0 68.3512 13.4745 921 61.5787 913.114 541.387
884 0 72.3675 13.7078 992 61.1492 913.307 540.206
885 0 74.5021 14.2144 1059 60.7658 913.135 537.46
886 0 79.5684 14.0257 1116 60.0869 913.208 538.567
887 0 79.4626 13.3396 1060 61.6745 913.081 536.87
888 0 81.4464 14.3162 1166 60.735 912.97 535.378
889 0 86.6653 14.2848 1238 60.2213 912.924 533.659
890 0 88.4638 14.164 1253 60.6752 913.122 531.427
891 0 90.5725 13.6796 1239 61.0218 913.286 530.592
892 0 95.6077 13.8796 1327 67.8433 913.314 528.983
893 0 99.5082 14.6822 1461 60.1821 913.906 526.161
894 1 50.495 11.0308 557 60.3896 914.691 551.325
895 0 53.4114 11.7016 625 59.9872 915.096 549.382
896 0 53.0636 12.1929 647 58.238 913.787 546.394
897 0 54.1503 12.5392 679 57.6259 914.426 545.191
898 0 60.1668 12.4986 752 58.8444 915.263 547.931
899 0 61.144 12.904 789 57.346 915.203 525.607
900 0 61.2078 12.3024 753 59.4037 915.826 523.652
901 0 66.2943 13.3043 882 57.5125 915.632 522.332
902 0 66.2943 13.2892 881 167.509 914.622 522.319
903 0 68.3272 14.05 960 57.0792 915.369 519.699
904 0 71.2704 13.3576 952 57.5305 914.915 521.882
905 0 74.157 14.6311 1085 55.8387 914.232 524.362
906 0 76.2298 13.3937 1021 57.7052 914.883 526.779
907 0 79.4364 13.5706 1078 57.1531 915.48 529.916
908 0 80.2887 13.4141 1077 57.702 915.23 529.996
909 0 80.2887 13.4141 1077 166.879 914.23 529.996
910 0 86.4097 13.4707 1164 57.5644 916.506 533.156
911 0 88.4445 14.5402 1286 56.8453 915.864 530.533
912 0 92.3928 13.9405 1288 57.8944 916.262 528.48
913 0 97.4885 15.6121 1522 55.3509 916.051 523.572
914 0 101.439 16.6208 1686 54.083 916.294 523.637
915 0 108.327 18.241 1976 51.2227 916.67 518.711
916 0 109.444 16.3828 1793 53.9928 916.284 519.048
917 0 109.231 14.6296 1598 56.6327 916.551 518.003
918 1 59.1054 11.4541 677 56.8257 917.319 546.653
919 0 59.0414 10.6874 631 57.5087 917.618 543.269
920 0 65.0586 11.8355 770 55.9779 917.739 542.745
921 0 66.0836 11.9697 791 56.5828 917.906 541.832
922 0 68.075 11.3992 776 56.558 918.325 542.345
923 0 69.165 12.5642 869 53.8377 918.097 540.389
924 0 72.1746 12.1649 878 54.2688 916.878 540.605
925 0 73.3268 11.401 836 54.8493 916.635 540.019
926 0 76.4322 12.7172 972 53.8837 917.054 536.743
927 0 79.4055 13.1603 1045 53.6507 917.337 536.926
928 0 80.2562 11.3761 913 56.8346 917.084 536.702
929 0 84.3938 13.2948 1122 55.0838 917.178 533.076
930 0 86.5416 13.4733 1166 54.5463 916.888 533.109
931 0 89.5396 13.145 1177 55.1096 917.222 529.808
932 0 92.5644 12.8667 1191 55.581 916.688 529.133
933 0 92.5644 12.8127 1186 144.858 916.672 529.191
934 0 98.6403 12.6115 1244 55.5715 916.959 525.784
935 0 101.888 12.5235 1276 55.7437 916.974 523.807
936 1 53.6364 10.0119 537 55.4767 916.665 547.529
937 0 58.1097 11.289 656 55.1631 916.841 545.386
938 0 60.915 12.7719 778 53.4319 916.952 544.207
939 0 61.7594 11.4477 707 55.0608 917.206 542.218
940 0 64.6484 12.1581 786 54.0114 917.137 542.447
941 0 65.5827 12.2441 803 54.3636 917.171 541.933
942 0 67.5516 12.1093 818 54.989 916.556 540.692
943 0 71.7873 11.8684 852 54.7535 916.102 537.752
944 0 71.6464 12.1988 874 54.6773 915.938 537.34
945 0 74.6913 12.7056 949 54.2908 915.618 538.351
946 0 75.637 12.441 941 55.3209 915.299 536.553
947 0 79.568 12.4799 993 55.0302 915.194 535.868
948 0 82.6502 13.5269 1118 53.9284 915.178 534.032
949 0 85.8192 13.0041 1116 54.4265 915.366 534.191
950 0 88.609 13.3846 1186 53.9056 915.034 533.156
951 0 89.834 13.4248 1206 54.3275 915.412 530.459
952 0 94.6615 13.6169 1289 54.1629 914.935 530.022
953 0 96.6697 13.1996 1276 55.5321 915.06 527.786
954 0 98.6901 12.747 1258 55.1995 915.405 526.704
955 0 102.596 14.0551 1442 53.8051 915.374 526.215
956 1 55.5396 10.407 578 55.2007 915.452 549.855
957 0 56.4018 11.1876 631 55.1173 915.346 547.493
958 0 61.2693 11.9799 734 53.7234 914.386 547.849
959 0 58.5795 11.4204 669 55.139 914.432 546.191
960 0 63.2904 12.7981 810 53.0593 914.438 546.058
961 0 64.5866 12.1233 783 53.8812 914.143 545.785
962 0 64.573 11.7696 760 54.9592 913.842 543.786
963 0 67.3174 12.6862 854 54.6639 914.658 543.32
964 0 77.7629 16.8075 1307 47.277 914.985 533.716
965 0 79.7825 14.3265 1143 50.3123 914.649 536.106
966 0 79.0687 14.7593 1167 50.8646 914.499 535.739
967 0 77.7923 13.8703 1079 52.7127 915.03 535.983
968 0 78.6846 13.5478 1066 53.1098 914.734 535.819
969 0 81.7796 14.5146 1187 51.7582 914.888 536.656
970 0 82.726 12.898 1067 54.6392 914.894 536.093
971 0 85.0398 13.3349 1134 54.4533 914.576 533.406
972 0 87.6866 13.3202 1168 54.8039 914.463 532.618
973 0 88.8296 13.1375 1167 55.2691 914.033 531.059
974 0 92.7726 13.3121 1235 55.2721 913.905 528.743
975 0 95.0077 12.4937 1187 56.5577 913.259 526.342
976 0 99.1827 12.3812 1228 56.5936 913.408 527.117
977 0 103.99 13.934 1449 55.3333 913.722 524.713
978 1 54.6302 10.3057 563 56.1616 913.131 547.439
979 0 57.5128 10.3803 597 55.7772 912.973 548.236
980 0 59.7312 10.7816 644 55.5062 912.863 547.436
981 0 62.7558 12.5725 789 54.0101 913.447 547.101
982 0 63.8025 11.661 744 55.7634 913.403 545.319
983 0 65.6674 12.2435 804 55.5771 913.344 543.741
984 0 68.5654 13.5491 929 53.8924 912.89 544.743
985 0 67.9471 12.7452 866 56.1074 912.651 542.34
986 0 70.571 13.079 923 55.9664 912.977 541.155
987 0 72.8046 12.5129 911 56.618 912.925 540.124
988 0 72.8046 12.4992 910 161.019 912.935 540.118
989 0 77.7581 14.0693 1094 55.0676 913.154 538.718
990 0 80.7922 13.9741 1129 55.4207 912.661 537.55
991 0 81.7202 13.7665 1125 55.7796 913.217 536.446
992 0 83.7271 13.2454 1109 57.0135 912.382 536.473
993 0 88.4042 13.7889 1219 56.0582 913.13 534.593
994 0 89.6618 14.5212 1302 55.5638 912.843 533.767
995 0 90.6692 13.6209 1235 56.8931 912.787 533.583
996 0 92.682 13.4978 1251 57.4644 912.604 532.452
997 0 96.4635 13.7876 1330 57.1602 912.296 531.473
998 0 97.5576 14.289 1394 57.0323 911.9 528.647
999 0 101.629 14.1102 1434 57.371 912.013 527.791
1000 0 105.512 14.6429 1545 57.0116 912.407 527.203
1001 0 106.349 14.1327 1503 57.9049 911.883 526.275
1002 0 111.31 15.066 1677 57.4413 912.38 524.642
1003 1 61.4409 11.5395 709 57.3963 912.375 547.684
1004 0 61.3168 11.1878 686 58.2303 912.322 548.802
1005 0 65.3634 12.224 799 57.1377 912.584 545.733
1006 0 68.2396 12.6173 861 57.1034 912.623 544.445
1007 0 70.3454 12.8509 904 56.5564 912.82 543.004
1008 0 74.127 12.6675 939 56.5229 913.053 541.793
1009 0 77.2735 13.9375 1077 55.4058 913.262 541.087
1010 0 79.3593 13.5964 1079 55.8554 912.808 539.298
1011 0 79.3593 13.5838 1078 160.426 912.802 539.297
1012 0 84.244 13.1285 1106 57.1935 912.59 538.442
1013 0 85.2757 12.5241 1068 58.7659 913.002 536.14
1014 0 89.2208 13.4386 1199 57.9816 913.153 536.053
1015 0 94.3194 13.1044 1236 57.3706 913.197 532.542
1016 0 94.3194 13.1044 1236 159.907 913.197 532.542
1017 0 99.1918 12.7127 1261 57.8977 912.95 529.55
1018 0 103.249 12.8524 1327 57.691 913.326 528.435
1019 0 105.264 13.3378 1404 57.849 912.653 525.184
1020 1 58.2908 11.2882 658 56.5456 912.795 551.266
1021 0 58.2908 11.2882 658 155.515 911.795 551.266
1022 0 62.0935 11.8853 738 56.1463 913.37 549.351
1023 0 64.3642 11.8544 763 57.4928 912.556 547.312
1024 0 66.3551 13.0359 865 56.659 913.065 546.606
1025 0 68.2581 12.0865 825 57.9709 913.316 545.221
1026 0 68.2581 12.0279 821 156.504 913.317 545.283
1027 0 72.3184 12.5832 910 58.2253 913.84 544.338
1028 0 75.3158 13.5032 1017 57.5752 914.056 543.922
1029 0 76.3724 13.5913 1038 57.8015 913.621 542.22
1030 0 79.5002 12.8679 1023 59.0098 913.84 540.309
1031 0 79.5852 11.9997 955 60.688 914.164 540.847
1032 0 82.5374 12.9396 1068 59.6077 914.274 537.168
1033 0 82.5374 12.9396 1068 163.879 914.274 537.168
1034 0 89.622 13.4677 1207 58.599 914.507 534.031
1035 0 92.7388 13.4679 1249 59.2978 914.935 531.726
1036 1 46.4196 10.6852 496 59.8085 915.593 554.609
1037 0 49.328 11.758 580 59.0948 915.864 553.943
1038 0 50.2315 12.9003 648 58.1728 916.347 552.943
1039 0 51.254 12.6624 649 59.0154 916.584 553.105
1040 0 52.1767 12.3618 645 59.9116 916.955 550.938
1041 0 57.3172 13.0676 749 58.1442 917.04 551.534
1042 0 57.1729 12.9432 740 59.1365 917.249 549.708
1043 0 58.2823 12.7483 743 59.5559 916.965 549.384
1044 0 60.3592 12.8895 778 59.509 917.085 548.674
1045 0 60.3119 12.6675 764 60.2134 916.98 547.533
1046 0 62.2191 14.5293 904 57.9502 917.299 546.509
1047 0 64.3026 13.2499 852 58.4401 917.311 545.736
1048 0 65.3657 12.606 824 59.8301 917.43 545.6
1049 0 68.3721 13.4119 917 58.9749 917.773 542.689
1050 0 70.5007 14.397 1015 57.9222 918.16 542.425
1051 0 72.4778 13.9905 1014 58.574 917.6 542.223
1052 0 75.4778 14.8918 1124 57.8327 918.444 540.838
1053 0 76.4556 13.8381 1058 59.4357 917.649 539.124
1054 0 79.6151 14.0049 1115 58.9839 918.142 537.368
1055 0 82.4826 13.712 1131 59.4792 917.828 538.152
1056 1 46.3152 11.832 548 60.3011 917.692 556.033
1057 0 46.3308 11.6769 541 60.292 917.59 556.401
1058 0 46.2762 11.6042 537 61.2328 917.479 554.575
1059 0 48.1909 11.8072 569 61.0738 917.64 553.981
1060 0 50.3216 12.3207 620 60.7532 917.021 552.613
1061 0 52.2187 13.5775 709 59.4302 917.31 552.338
1062 0 54.1584 13.5713 735 59.3823 917.573 551.531
1063 0 56.1092 13.0816 734 60.4332 917.869 549.59
1064 0 55.0381 13.3544 735 60.7769 917.597 550.442
1065 0 57.1048 13.7642 786 60.4593 917.454 549.548
1066 0 60.1713 14.3092 861 59.6725 917.014 548.48
1067 0 62.1828 13.1548 818 61.357 917.095 547.007
1068 0 63.0711 14.3489 905 60.2508 917.026 545.908
1069 0 65.195 13.8814 905 60.5713 916.417 544.755
1070 0 66.0646 13.9712 923 60.4388 916.229 545.147
1071 0 70.2652 14.3456 1008 59.7877 916.186 544.294
1072 0 73.2447 14.0761 1031 60.0941 916.511 543.355
1073 0 74.2306 14.5897 1083 59.8495 916.62 542.219
1074 0 76.1188 14.2803 1087 60.6127 916.411 539.13
1075 0 79.1436 14.9854 1186 59.5194 916.728 538.792
1076 0 82.1496 14.8023 1216 60.009 916.673 536.479
1077 0 84.1898 13.8021 1162 61.9423 915.865 537.179
1078 0 88.277 14.194 1253 61.0878 916.221 535.32
1079 0 90.328 13.5949 1228 62.0375 915.675 535.256
1080 0 93.0702 13.5382 1260 62.4151 915.654 533.086
1081 0 94.0773 14.031 1320 62.5311 915.646 531.308
1082 1 50.0667 11.285 565 62.5947 915.455 554.729
1083 0 50.0508 11.2486 563 64.0213 915.35 552.984
1084 0 53.0457 12.1593 645 63.0171 915.329 551.631
1085 0 56.1041 12.7976 718 61.9819 915.397 549.726
1086 0 56.1966 14.3603 807 60.6295 915.292 548.877
1087 0 61.1688 13.4709 824 60.5922 915.659 548.814
1088 0 61.172 13.8298 846 60.9066 915.267 546.962
1089 0 62.2007 12.9741 807 61.8724 915.183 546.659
1090 0 64.2318 14.2297 914 60.4059 915.284 545.204
1091 0 66.1376 13.8953 919 61.173 914.963 544.655
1092 0 68.2032 13.3571 911 61.4698 915.142 543.502
1093 0 69.2463 13.4159 929 62.2217 915.39 542.065
1094 0 75.1823 15.203 1143 58.5276 914.843 540.682
1095 0 78.3045 14.1499 1108 59.417 915.287 540.84
1096 0 78.1308 14.0661 1099 60.4076 915.258 539.232
1097 0 80.2034 13.6528 1095 61.4082 915.176 537.75
1098 0 82.3026 14.471 1191 59.9572 915.429 535.609
1099 0 86.1287 13.8978 1197 60.5313 915.119 533.491
1100 0 86.2438 14.3662 1239 60.8918 914.965 533.961
1101 0 91.1024 14.7307 1342 60.0604 914.923 531.076
1102 0 91.229 14.2389 1299 61.0639 914.85 530.709
1103 0 93.3035 13.9437 1301 61.9685 914.471 529.258
1104 0 98.1364 14.2251 1396 61.0817 914.145 529.395
1105 0 102.122 13.7189 1401 61.449 913.924 527.353
1106 0 105.164 13.7975 1451 61.2171 914.026 525.793
1107 0 110.324 13.0797 1443 61.9238 914.001 525.815
1108 0 110.375 13.7079 1513 61.2564 913.86 523.3
1109 0 118.217 14.1012 1667 60.1596 913.944 520.735
1110 1 66.1729 11.9686 792 60.8826 914.447 543.625
1111 0 67.1549 12.3744 831 60.7978 914.676 543.221
1112 0 70.262 12.6811 891 60.2548 914.118 542.928
1113 0 71.1823 13.2898 946 60.2939 913.699 542.925
1114 0 74.1041 12.442 922 60.5184 913.408 542.2
1115 0 75.2373 14.0489 1057 59.3018 913.55 538.772
1116 0 79.0952 13.6924 1083 59.4644 912.971 537.602
1117 0 82.0689 14.0248 1151 58.8844 913.086 536.931
1118 0 85.1569 13.8685 1181 58.9907 912.736 537.671
1119 0 86.0757 13.5462 1166 59.825 912.822 534.274
1120 0 91.1193 13.5866 1238 59.7205 913.171 532.082
1121 0 93.2083 14.194 1323 58.9546 913.055 532.343
1122 0 96.0994 14.485 1392 58.4864 912.867 530.01
1123 0 98.2546 14.0553 1381 59.5315 912.977 526.656
1124 0 101.168 14.1942 1436 58.8858 912.916 527.252
1125 0 104.292 14.2197 1483 58.3486 912.696 526.008
1126 0 108.298 14.774 1600 57.0131 913.279 524.038
1127 0 111.112 13.8148 1535 58.3218 913.065 523.433
1128 0 114.114 13.986 1596 58.2375 913.086 520.563
1129 0 117.199 14.1981 1664 57.6154 913.319 520.085
1130 0 123.283 13.7488 1695 57.9611 913.605 516.979
1131 1 71.0568 11.0756 787 56.338 913.936 542.868
1132 0 72.0932 11.4158 823 56.3111 913.797 543.423
1133 0 76.0808 12.237 931 55.899 914.555 541.509
1134 0 79.1846 11.7321 929 56.6179 913.085 540.792
1135 0 80.1807 11.6362 933 56.6774 913.496 540.138
1136 0 83.1793 12.1785 1013 56.6782 913.353 536.748
1137 0 85.093 11.9986 1021 56.9481 913.593 537.69
1138 0 90.1482 12.7679 1151 56.3675 913.451 536.196
1139 0 93.1015 13.3618 1244 55.7275 913.631 534.059
1140 0 94.1042 12.5393 1180 56.817 913.511 533.081
1141 0 98.1568 12.8162 1258 56.7687 914.18 530.901
1142 0 101.171 12.6618 1281 58.107 914.033 528.935
1143 0 104.076 12.2314 1273 58.5962 914.516 528.402
1144 0 108.109 13.1626 1423 58.0815 914.358 526.111
1145 0 109.25 13.0434 1425 58.7642 914.402 524.418
1146 0 112.133 13.5464 1519 58.8111 914.34 521.756
1147 0 116.14 13.742 1596 58.5821 914.85 521.934
1148 0 120.203 12.5537 1509 59.9828 914.653 517.728
1149 0 126.218 12.7557 1610 59.7509 915.381 515.83
1150 1 71.0627 9.86453 701 57.2368 916.354 546.148
1151 0 73.1806 10.7952 790 56.9177 916.32 544.147
1152 0 74.0994 11.0122 816 57.6691 916.075 541.691
1153 0 76.0832 11.172 850 58.9753 915.687 540.553
1154 0 78.1245 10.8545 848 59.7241 916.404 540.44
1155 0 83.2166 11.9928 998 58.513 916.415 537.481
1156 0 82.186 10.8291 890 60.273 916.891 538.584
1157 0 86.1816 12.0908 1042 59.2534 917.079 535.81
1158 0 89.217 12.1277 1082 58.8678 917.272 534.266
1159 0 93.1168 12.189 1135 58.8802 917.554 532.711
1160 0 94.1364 11.1965 1054 60.5408 917.47 529.525
1161 0 100.131 12.0043 1202 59.3894 918.514 529.676
1162 0 101.114 11.5711 1170 60.612 918.665 526.769
1163 0 107.229 12.9349 1387 58.6806 918.26 523.545
1164 0 110.298 12.3484 1362 59.2614 918.238 522.498
1165 1 59.1612 9.83753 582 59.4828 918.491 546.911
1166 0 62.2975 9.98435 622 59.6801 918.576 546.096
1167 0 65.2325 11.9572 780 57.5205 918.097 545.562
1168 0 66.1292 11.4473 757 58.4359 917.951 543.518
1169 0 67.1833 10.8807 731 59.1915 918.072 542.373
1170 0 68.1984 11.6278 793 59.372 919.064 541.337
1171 0 70.261 11.9697 841 59.3448 919.521 542.184
1172 0 71.1423 12.6929 903 58.2758 919.311 541.429
1173 0 74.2894 13.4339 998 57.4409 919.876 537.877
1174 0 76.1816 12.2077 930 58.9753 920.616 539.068
1175 0 77.2869 12.8741 995 58.6392 919.635 537.254
1176 0 80.1451 12.4025 994 60.4718 919.61 535.165
1177 0 83.4444 11.7084 977 61.2323 919.343 534.274
1178 0 89.211 13.3167 1188 59.0337 919.23 533.151
1179 0 91.1599 13.6354 1243 58.9992 919.075 531.62
1180 0 94.3154 13.052 1231 60.195 919.658 529.825
1181 0 97.1978 13.2102 1284 60.377 919.569 528.435
1182 0 100.248 13.0776 1311 60.7948 919.234 527.555
1183 0 104.224 13.5573 1413 60.4345 918.993 523.852
1184 1 59.2498 11.7975 699 58.9857 919.464 547.531
1185 0 59.1584 12.2214 723 59.6196 919.682 545.815
1186 0 64.1475 15.8541 1017 53.9174 919.477 543.64
1187 0 69.249 16.4912 1142 52.2574 918.722 543.501
1188 0 71.119 16.4794 1172 52.18 918.539 539.901
1189 0 73.1153 16.5082 1207 52.4979 919.109 538.997
1190 0 75.203 16.8211 1265 52.5755 918.185 538.94
1191 0 75.1627 15.4864 1164 55.3969 918.303 539.516
1192 0 77.1449 16.1514 1246 54.691 917.856 535.453
1193 0 73.0909 12.1629 889 62.3588 917.656 538.976
1194 0 77.1605 12.5842 971 61.3491 917.794 539.165
1195 0 77.1196 12.4352 959 62.4911 917.347 538.116
1196 0 81.1265 12.9921 1054 61.6015 917.76 538.406
1197 0 81.096 13.2436 1074 62.0521 917.772 537.016
1198 0 86.2775 14.2679 1231 60.528 917.311 535.066
1199 0 87.2563 13.5921 1186 62.4486 917.096 532.99
1200 0 87.2776 13.4055 1170 63.1017 916.562 531.268
1201 0 87.2776 13.4972 1178 166.874 915.544 531.249
1202 1 50.1211 11.552 579 61.5199 916.459 551.931
1203 0 49.0774 11.2679 553 63.358 917.136 550.676
1204 0 51.1002 12.6418 646 62.0898 916.478 551.372
1205 0 56.1916 13.0981 736 61.8804 916.617 550.747
1206 0 56.1742 12.9597 728 61.7857 916.608 549.957
1207 0 56.2376 12.625 710 63.107 916.959 550.008
1208 0 57.1656 12.1926 697 64.9225 916.89 547.633
1209 0 61.1591 12.5901 770 63.2364 917.121 546.753
1210 0 66.2239 15.9459 1056 55.9129 916.936 544.054
1211 0 69.2046 16.2995 1128 55.1667 917.098 543.051
1212 0 71.129 15.4508 1099 56.7006 916.238 543.326
1213 0 70.1169 15.4456 1083 57.6408 916.433 542.619
1214 0 66.2491 12.6643 839 63.0334 915.709 537.386
1215 0 69.2217 12.9295 895 63.4346 915.47 534.679
1216 0 72.1641 14.7303 1063 59.9652 915.204 536.158
1217 0 71.3741 13.0019 928 63.4946 914.589 536.816
1218 0 73.3047 13.9964 1026 62.8294 914.924 534.281
1219 0 77.1747 13.3723 1032 62.75 914.925 533.652
1220 0 79.4434 13.1792 1047 63.2407 914.654 531.926
1221 0 83.3049 14.0688 1172 62.099 915.052 531.142
1222 0 85.3254 13.888 1185 62.6211 914.583 530.162
1223 1 44.1237 11.1731 493 65.5598 914.978 549.779
1224 0 46.104 11.2788 520 65.6692 914.594 548.731
1225 0 48.0946 12.3507 594 64.6616 914.236 549.609
1226 0 50.0291 12.3328 617 64.7407 913.794 549.488
1227 0 50.0516 12.7269 637 64.27 914.436 550.301
1228 0 52.1527 12.4826 651 65.3564 913.797 549.846
1229 0 53.1369 12.7971 680 65.1412 914.246 551.619
1230 0 55.112 13.3728 737 64.1248 913.961 550.254
1231 0 56.172 13.7257 771 63.7977 913.933 551.027
1232 0 59.1167 13.5664 802 63.3928 913.963 548.551
1233 0 59.0914 14.486 856 62.9241 913.961 550.637
1234 0 61.1491 13.7696 842 63.5724 914.534 548.341
1235 0 62.0686 13.4045 832 64.7332 914.178 545.316
1236 0 67.0861 13.4305 901 63.4373 914.275 546.324
1237 0 69.0609 13.1912 911 63.9758 913.966 544.705
1238 0 72.06 14.3908 1037 61.864 913.922 544.001
1239 0 73.0739 13.4521 983 64.2299 913.661 543.418
1240 0 76.054 14.3451 1091 62.9276 913.761 541.703
1241 0 77.0863 14.6719 1131 63.3616 914.261 540.334
1242 0 81.1025 14.5248 1178 62.6214 914.017 540.857
1243 0 82.0905 13.4486 1104 64.5761 913.92 536.484
1244 0 88.1469 14.351 1265 62.7312 913.545 534.076
1245 0 88.0962 14.3366 1263 63.0966 913.329 534.336
1246 0 91.1922 14.6284 1334 63.1807 913.433 532.235
1247 0 95.1322 14.2013 1351 63.7254 913.62 531.232
1248 0 98.114 14.2895 1402 64.8752 913.694 531.429
1249 1 53.0581 11.3461 602 68.5365 914.033 550.744
1250 0 54.0562 11.2475 608 68.2615 913.803 552.217
1251 0 57.0471 11.6921 667 67.5008 913.628 550.271
1252 0 59.1212 13.1425 777 66.0592 913.458 551.243
1253 0 61.0915 13.9136 850 65.52 914.048 549.933
1254 0 61.1428 13.4439 822 66.7311 913.614 549.568
1255 0 64.1116 13.3673 857 66.6173 913.866 548.03
1256 0 66.1631 13.9504 923 65.6121 913.803 547.662
1257 0 68.19 13.2717 905 66.568 914.134 546.145
1258 0 71.1421 13.5644 965 66.0373 914.766 545.319
1259 0 73.1848 14.4566 1058 64.7051 914.939 544.141
1260 0 74.1454 14.1344 1048 64.9227 914.911 543.349
1261 0 76.2968 13.6179 1039 66.5833 914.95 541.742
1262 0 77.3388 13.6542 1056 66.4924 915.061 539.878
1263 0 80.4838 13.5679 1092 66.5266 915.24 537.648
1264 0 83.4012 14.1964 1184 65.8133 915.341 537.601
1265 0 88.1844 13.846 1221 66.0524 915.648 535.582
1266 0 90.1798 15.081 1360 64.2103 915.515 533.526
1267 0 93.2823 13.8612 1293 66.2428 915.985 531.065
1268 0 95.3783 13.609 1298 66.7935 916.415 530.149
1269 0 99.3349 13.1172 1303 67.6224 915.546 527.92
1270 1 51.2312 12.1605 623 67.9165 916.421 552.098
1271 0 54.3151 12.4643 677 67.4742 916.824 550.504
1272 0 57.2083 13.1799 754 66.7533 917.216 549.358
1273 0 57.3247 13.2753 761 67.2983 917.418 547.003
1274 0 59.3909 13.4196 797 67.0188 917.447 545.65
1275 0 61.3908 14.0086 860 66.2733 917.645 545.285
1276 0 63.2798 13.7801 872 66.1239 917.726 543.672
1277 0 65.2266 13.8594 904 66.7677 918.275 540.65
1278 0 69.5265 14.009 974 65.1427 918.687 539.587
1279 0 69.5229 13.2906 924 66.7684 919.03 539.726
1280 0 71.47 13.838 989 66.8655 919.086 538.09
1281 0 74.5177 14.6408 1091 65.9065 919.598 537.023
1282 0 78.4238 14.8169 1162 64.9251 919.479 535.921
1283 0 78.5574 14.4226 1133 65.8888 919.19 536.206
1284 0 83.523 14.2236 1188 65.6827 919.737 532.243
1285 0 82.5516 14.3425 1184 66.6723 919.477 531.235
1286 0 89.5922 13.6954 1227 66.0954 919.432 529.844
1287 0 93.5633 13.734 1285 66.084 919.313 530.395
1288 0 96.4576 14.5038 1399 65.0515 919.492 528.547
1289 1 52.2603 11.9976 627 67.0542 919.305 548.298
1290 0 54.3252 12.1306 659 66.2777 919.481 547.666
1291 0 56.3617 12.1536 685 64.619 919.385 549.147
1292 0 57.118 11.9752 684 65.579 918.905 547.598
1293 0 60.1443 13.584 817 63.0661 918.464 546.293
1294 0 61.0616 13.1998 806 62.7841 918.838 546.965
1295 0 64.105 13.9927 897 61.7692 919.28 544.915
1296 0 66.1905 14.3525 950 61.8126 919.438 541.93
1297 0 67.1744 13.3235 895 63.9352 919.665 540.945
1298 0 70.1574 13.0564 916 64.2664 919.413 540.716
1299 0 70.1758 13.4519 944 65.0561 919.193 540.494
1300 0 74.4694 13.482 1004 64.8128 919.574 537.886
1301 0 75.4258 13.8944 1048 65.1145 918.918 535.276
1302 0 78.5351 13.4971 1060 64.3849 919.219 536.46
1303 0 80.5923 13.3512 1076 65.1506 918.463 533.436
1304 1 45.4135 10.5916 481 65.5052 919.017 554.262
1305 0 45.3193 10.3708 470 64.7808 918.945 554.008
1306 0 48.4131 10.4104 504 64.875 918.885 552.772
1307 0 50.709 11.7336 595 63.4252 918.708 550.588
1308 0 51.3284 13.0142 668 62.0674 918.401 549.68
1309 0 50.2615 12.6339 635 63.3291 918.25 548.948
1310 0 55.4358 13.5111 749 61.3031 918.311 548.864
1311 0 57.3824 14.203 815 60.7607 918.452 547.784
1312 0 59.4779 13.3999 797 61.5521 918.112 547.438
1313 0 57.0735 12.5978 719 62.2198 917.039 544.382
1314 0 60.1848 13.1262 790 61.2291 916.842 542.38
1315 0 62.2228 12.7606 794 61.1222 916.364 541.592
1316 0 65.132 13.5724 884 59.1821 916.803 545.876
1317 0 66.145 13.3192 881 60.8127 916.736 541.629
1318 0 69.1931 13.2383 916 60.5044 916.533 540.005
1319 0 71.108 13.5709 965 60.5627 916.566 539.63
1320 0 74.1725 12.9698 962 60.6518 915.685 537.844
1321 0 75.2622 12.9414 974 61.8891 915.846 535.337
1322 0 78.3 13.2312 1036 60.8417 915.589 535.289
1323 0 82.2913 13.513 1112 60.4191 916.486 532.395
1324 0 82.3758 13.0864 1078 60.8998 915.947 532.304
1325 1 47.2041 9.91438 468 61.3504 915.511 552.218
1326 0 47.1014 10.8065 509 60.4617 915.972 550.381
1327 0 51.1232 11.9906 613 59.1256 915.45 548.483
1328 0 50.1479 11.4661 575 60.2783 915.95 548.409
1329 0 51.2079 11.4045 584 61.0959 915.447 548.808
1330 0 55.1406 12.7492 703 59.6287 914.74 550.293
1331 0 57.0881 12.4369 710 60.8084 914.299 552.669
1332 0 59.0744 13.373 790 60.0278 914.827 551.454
1333 0 60.0561 14.0036 841 59.1641 914.864 549.589
1334 0 61.0984 12.9463 791 61.8938 915.12 549.905
1335 0 62.1321 13.1655 818 61.7543 914.954 549.322
1336 0 64.1833 13.5705 871 60.2951 914.673 547.802
1337 0 65.227 13.522 882 60.5 914.875 546.799
1338 0 67.156 12.4933 839 61.4696 914.528 545.962
1339 0 69.2757 13.5545 939 59.8818 914.796 543.426
1340 0 72.24 13.4967 975 59.8431 914.449 542.268
1341 0 73.1951 13.6894 1002 59.6796 915.526 542.995
1342 0 75.1848 13.4602 1012 60.1512 915.389 540.031
1343 0 77.256 12.9699 1002 60.3383 914.959 539.415
1344 0 77.256 12.9051 997 158.581 913.956 539.396
1345 0 82.2646 13.6875 1126 59.8499 915.044 534.986
1346 0 84.3954 14.1714 1196 59.5301 914.735 535.198
1347 1 49.3384 11.1272 549 61.1439 914.954 554.688
1348 0 51.1954 11.0361 565 61.6124 914.54 554.251
1349 0 51.2129 12.1259 621 61.285 914.303 552.694
1350 0 51.062 11.4763 586 62.7457 913.592 552.836
1351 0 55.1955 12.4648 688 61.5174 913.012 550.215
1352 0 58.0996 12.5646 730 61.5918 913.303 550.704
1353 0 58.051 13.023 756 61.0595 912.872 552.456
1354 0 61.1021 13.7475 840 60.5988 913.054 550.202
1355 0 61.124 13.2354 809 61.8789 913.347 548.393
1356 0 63.183 13.6271 861 61.7642 913.446 548.206
1357 0 63.2525 12.6319 799 63.7447 912.921 548.024
1358 0 67.1515 13.343 896 62.3761 912.968 547.506
1359 0 67.1131 13.738 922 62.692 913.069 545.961
1360 0 69.2246 12.7267 881 64.1226 912.705 545.951
1361 0 72.166 13.8292 998 62.5762 912.579 545.059
1362 0 72.0883 13.2338 954 64.304 912.55 543.486
1363 0 78.0916 14.3677 1122 62.1337 912.502 542.898
1364 0 78.1154 12.8912 1007 64.8332 912.568 542.146
1365 0 78.1654 12.6143 986 65.6755 912.599 540.178
1366 0 82.3514 13.4667 1109 63.3995 912.038 539.387
1367 0 84.1583 13.8311 1164 63.207 912.083 537.989
1368 0 87.0972 13.1118 1142 64.3905 911.88 536.513
1369 1 47.0399 10.7993 508 63.9291 912.144 557.752
1370 0 48.1435 11.1749 538 62.8048 912.219 559.76
1371 0 49.0717 11.5138 565 62.7097 912.074 556.674
1372 0 48.0796 11.481 552 61.9438 911.978 556.37
1373 0 51.2148 12.1059 620 63 912.26 554.777
1374 0 54.0539 12.025 650 61.8631 911.689 555.582
1375 0 55.1056 12.6484 697 61.6083 912.132 554.275
1376 0 58.0592 12.4011 720 62.0222 912.019 552.462
1377 0 59.0723 12.8148 757 61.3461 911.664 553.699
1378 0 60.0685 13.2182 794 61.4836 911.858 551.276
1379 0 63.0692 12.3991 782 61.7097 911.674 550.427
1380 0 64.169 12.4047 796 62.3819 911.535 550.378
1381 0 65.0444 12.6375 822 62.0049 911.691 548.644
1382 0 66.0303 13.4332 887 58.4115 911.506 546.94
1383 0 71.097 14.0794 1001 56.2577 912.275 546.004
1384 0 72.1476 13.015 939 62.3333 911.956 544.566
1385 0 74.0908 13.6994 1015 60.0305 912.078 543.393
1386 0 77.0654 13.3782 1031 61.0087 912.536 543.633
1387 0 79.0512 13.7 1083 60.7941 913.5 541.981
1388 0 81.1198 12.8945 1046 61.5459 913.418 541.242
1389 0 82.0754 12.6591 1039 62.1809 913.692 537.968
1390 0 87.262 13.385 1168 61.2817 914.104 539.322
1391 0 88.169 14.3361 1264 60.765 913.701 535.612
1392 0 93.6509 13.2727 1243 61.4602 914.042 534.755
1393 0 94.4287 13.6081 1285 61.2833 913.713 531.616
1394 1 52.4806 10.7087 562 61.7295 913.601 553.422
1395 0 52.4525 11.2864 592 62.4459 913.368 550.731
1396 0 54.4641 11.0164 600 61.5683 914.04 551.315
1397 0 57.397 11.6034 666 59.524 914.137 550.062
1398 0 59.4445 11.6411 692 59.6763 914.301 548.149
1399 0 60.498 12.2483 741 59.0904 915.186 547.306
1400 0 63.4376 13.9507 885 57.6226 915.172 546.119
1401 0 65.2906 13.0034 849 58.9376 915.689 545.476
1402 0 67.4322 13.1836 889 58.667 915.928 543.652
1403 0 69.6046 13.3468 929 58.0667 916.127 543.437
1404 0 71.6614 13.7452 985 56.8792 916.84 542.489
1405 0 74.5622 13.4653 1004 57.0478 916.551 541.224
1406 0 76.6494 13.3987 1027 57.4761 917.191 539.339
1407 0 78.5714 12.9564 1018 57.9411 917.194 537.592
1408 0 81.8076 12.8228 1049 57.9094 917.222 536.058
1409 0 86.2647 12.8674 1110 57.4396 917.117 535.565
1410 0 88.5917 13.692 1213 56.465 917.533 533.473
1411 0 90.6565 13.0272 1181 57.4691 917.777 531.382
1412 1 51.6647 11.4779 593 55.5244 917.986 553.083
1413 0 50.5265 10.7864 545 57.1596 918.092 551.628
1414 0 54.5207 11.7937 643 55.9767 917.802 550.742
1415 0 56.1652 12.9261 726 54.2645 917.724 550.678
1416 0 55.1714 12.2527 676 157.697 917.67 549.7
1417 0 57.3209 12.6655 726 56.2879 918.478 547.884
1418 0 58.2935 12.7973 746 55.8472 918.839 546.796
1419 0 63.4807 13.0118 826 54.5278 918.755 547.335
1420 0 63.2982 12.8282 812 55.0874 918.549 546.01
1421 0 64.3684 14.3238 922 53.5792 918.486 543.806
1422 0 67.461 15.105 1019 52.1874 918.733 541.108
1423 0 71.4972 15.4691 1106 51.2712 919.322 538.715
1424 0 73.4114 14.5482 1068 52.2022 918.674 539.632
1425 0 73.7106 13.9464 1028 53.287 918.893 539.286
1426 0 73.6113 14.1418 1041 53.3679 919.154 538.468
1427 0 75.424 14.1334 1066 53.7158 918.94 538.537
1428 0 78.5398 14.0566 1104 53.4094 919.656 536.397
1429 0 80.4921 14.3617 1156 52.4542 919.371 537.349
1430 0 85.6966 14.353 1230 51.7008 918.992 536.18
1431 0 87.6728 14.0751 1234 52.0656 919.198 534.587
1432 0 91.3935 14.4321 1319 51.1319 919.482 532.849
1433 0 92.729 13.4909 1251 52.4932 919.197 531.104
1434 1 50.2883 11.9113 599 53.6995 918.783 551.486
1435 0 51.1234 11.6776 597 55.0017 919.07 550.868
1436 0 52.2098 11.4538 598 55.1154 918.562 551.64
1437 0 53.171 12.394 659 55.0652 918.199 550.627
1438 0 57.1396 12.8982 737 54.1099 918.071 549.811
1439 0 57.1014 13.5023 771 54.0662 917.995 547.708
1440 0 61.1778 13.518 827 53.1608 917.943 546.825
1441 0 63.3406 14.2089 900 51.8456 917.911 546.464
1442 0 64.1178 13.8495 888 52.4797 918.109 543.925
1443 0 66.3146 14.1296 937 51.6638 917.58 545.164
1444 0 69.1765 14.3979 996 51.6536 918.247 543.245
1445 0 70.3464 14.5707 1025 51.8341 917.453 543.82
1446 0 72.2304 14.1215 1020 52.0069 917.483 541.108
1447 0 73.2989 13.7519 1008 53.131 916.757 541.125
1448 0 77.3721 13.9197 1077 52.9499 916.683 539.641
1449 0 81.333 14.2132 1156 52.2344 916.49 537.856
1450 0 84.3443 14.3222 1208 51.9909 916.041 537.033
1451 0 87.2077 14.7579 1287 52.1632 916.286 534.395
1452 0 89.1392 13.6865 1220 53.2984 915.766 532.682
1453 0 95.0983 14.9319 1420 51.5084 915.616 531.861
1454 1 49.0293 11.6053 569 52.8225 915.302 556.047
1455 0 50.0536 12.2469 613 52.5514 915.181 554.387
1456 0 51.1199 12.5196 640 53.1391 915.542 553.958
1457 0 52.0606 13.5803 707 52.4427 915.09 551.474
1458 0 53.0523 13.006 690 53.2145 915.183 552.155
1459 0 56.0776 13.5348 759 52.7971 914.667 549.39
1460 0 58.065 14.3804 835 51.4419 915.169 549.481
1461 0 59.0286 13.9424 823 52.1786 914.785 549.341
1462 0 61.1253 14.5439 889 51.2047 914.255 547.58
1463 0 64.0719 13.8907 890 51.8719 914.44 546.143
1464 0 65.0612 13.7255 893 52.0638 914.536 546.067
1465 0 66.0277 12.9794 857 53.203 914.209 545.102
1466 0 68.1249 13.7101 934 52.8779 914.339 544.459
1467 0 72.1003 14.1608 1021 51.7189 914.406 545.07
1468 0 73.0906 13.8048 1009 52.7711 914.047 543.571
1469 0 76.0613 14.1991 1080 52.4944 914.236 540.657
1470 0 77.2076 13.6904 1057 53.2431 914.243 540.665
1471 0 82.3715 14.2646 1175 52.1745 913.9 538.729
1472 0 85.2076 14.1419 1205 52.1768 912.848 538.757
1473 0 86.1522 13.9404 1201 53.1998 912.699 536.451
1474 1 48.2301 12.1708 587 52.7036 913.293 555.629
1475 0 50.1119 10.9355 548 53.6004 913.215 556.254
1476 0 49.1019 11.9547 587 54.0937 913.141 554.62
1477 0 52.2374 13.1898 689 52.8244 913.103 553.769
1478 0 56.0813 13.3378 748 52.5989 912.521 552.382
1479 0 56.1097 13.5984 763 53.3028 912.253 552.004
1480 0 58.1229 13.6435 793 53.1034 912.385 551.008
1481 0 60.1066 12.9603 779 54.1014 912.248 551.743
1482 0 61.1538 12.5912 770 54.952 912.461 549.479
1483 0 65.1459 13.4621 877 53.3569 913.005 548.715
1484 0 65.0431 13.5602 882 54.2914 912.696 548.503
1485 0 69.1042 13.6171 941 54.4708 911.779 547.205
1486 0 68.0462 13.7113 933 55.9828 911.743 545.521
1487 0 73.2581 13.7732 1009 55.3677 912.485 544.812
1488 0 73.1685 14.3094 1047 55.5692 912.059 543.299
1489 0 77.1315 13.4835 1040 56.3673 911.809 543.434
1490 0 79.1085 13.6016 1076 56.9935 912.323 541.925
1491 0 83.0549 13.5814 1128 57.2101 911.8 539.997
1492 0 83.0858 13.48 1120 58.1259 911.911 539.588
1493 0 87.2568 12.8357 1120 58.542 912.773 538.612
1494 0 90.1153 13.4161 1209 58.67 912.88 535.883
1495 0 90.1326 13.347 1203 59.3524 913.011 534.427
1496 1 49.0864 10.125 497 59.9879 913.408 557.189
1497 0 52.1229 11.7415 612 60.0752 913.346 553.711
1498 0 54.1288 12.304 666 58.9955 913.213 553.5
1499 0 54.2268 12.8165 695 60.3827 913.181 551.879
1500 0 58.2469 12.9277 753 59.2908 913.141 552.259
1501 0 58.2313 12.7595 743 60.8506 913.419 550.945
1502 0 61.0885 13.7669 841 59.5303 913.492 550.43
1503 0 62.1895 13.7001 852 60.0704 913.475 549.268
1504 0 65.2359 14.1487 923 59.546 914.035 547.038
1505 0 67.2001 13.869 932 59.5064 914.328 546.487
1506 0 68.1108 13.5808 925 60.5416 914.403 545.263
1507 0 70.2032 13.5179 949 60.6438 914.47 543.507
1508 0 73.1038 13.9664 1021 59.6895 914.832 542.939
1509 0 74.0429 13.4517 996 61.0894 914.919 540.947
1510 0 79.1804 14.2838 1131 58.5897 915.051 540.247
1511 0 79.0854 14.3516 1135 59.7868 915.809 538.803
1512 0 83.1999 14.0625 1170 59.8145 916.074 537.708
1513 0 85.1024 14.6882 1250 59.9176 915.718 536.166
1514 0 87.1128 14.1426 1232 60.6713 915.973 534.819
1515 0 90.2018 14.5008 1308 60.5459 916.087 532.729
1516 0 93.1396 14.6017 1360 60.7552 916.02 531.508
1517 0 94.1848 14.238 1341 61.4631 916.3 531.819
1518 0 98.191 14.1255 1387 61.1089 916.389 531.058
1519 1 53.0239 11.7871 625 61.7008 916.614 552.518
1520 0 56.1237 11.6885 656 62.1113 916.662 551.13
1521 0 57.0982 12.7675 729 61.0823 917.513 549.311
1522 0 58.0719 12.9667 753 61.9402 917.818 548.416
1523 0 60.0594 13.3535 802 61.2968 918.187 547.666
1524 0 63.0908 14.2968 902 59.8149 918.12 546.242
1525 0 66.0597 13.8057 912 59.7138 917.939 545.116
1526 0 67.0628 13.7632 923 60.1961 917.774 545.213
1527 0 71.1322 13.5803 966 59.8551 917.88 543.968
1528 0 73.0859 14.093 1030 59.5961 918 540.908
1529 0 74.1117 13.4931 1000 60.946 918.024 539.809
1530 0 77.116 13.1231 1012 61.1107 918.072 539.417
1531 0 80.1655 13.8963 1114 60.0781 918.368 537.92
1532 0 83.1291 13.7136 1140 61.0877 918.132 536.85
1533 0 85.0761 13.6584 1162 61.6334 917.808 535.514
1534 0 88.0456 14.3221 1261 61.3307 918.258 533.57
1535 0 90.1828 14.3265 1292 61.4574 918.277 533.242
1536 0 94.1957 13.9178 1311 62.2311 918.526 530.368
1537 0 96.0451 13.8685 1332 62.1276 918.393 530.546
1538 0 100.17 14.8748 1490 61.3114 918.92 527.963
1539 0 101.21 13.724 1389 63.2822 918.537 527.465
1540 0 104.164 13.9299 1451 63.0055 918.075 527.047
1541 1 61.0272 11.2901 689 63.672 918.626 548.151
1542 0 63.182 12.646 799 62.159 918.109 546.577
1543 0 65.139 12.5731 819 62.2515 918.005 546.027
1544 0 68.1679 14.3909 981 60.1794 917.724 542.984
1545 0 70.2214 13.7992 969 61.194 917.825 542.552
1546 0 72.1437 13.5286 976 61.4334 917.543 541.918
1547 0 74.2398 14.103 1047 60.9026 917.363 539.457
1548 0 76.2096 13.476 1027 61.6417 917.522 537.962
1549 0 79.0985 13.9952 1107 60.8988 917.352 537.575
1550 0 79.2415 12.9225 1024 62.458 917.366 537.537
1551 0 86.1662 14.4604 1246 59.9735 916.739 534.559
1552 0 87.1702 14.1218 1231 60.9716 917.741 533.522
1553 0 89.1372 14.5169 1294 60.602 916.849 533.386
1554 0 94.292 14.6672 1383 59.9306 916.459 530.735
1555 0 98.2198 14.0705 1382 60.5586 916.3 530.733
1556 0 99.2888 14.1204 1402 60.8388 916.525 528.912
1557 0 103.268 14.4769 1495 60.3706 916.544 526.04
1558 0 105.37 13.5712 1430 62.1287 916.696 523.916
1559 0 108.331 14.6404 1586 61.1469 916.9 521.307
1560 0 111.568 13.6509 1523 62.3631 915.939 521.932
1561 1 62.1835 11.1927 696 61.1638 916.115 545.963
1562 0 62.1517 11.5524 718 61.3064 915.6 544.915
1563 0 65.1145 12.9618 844 60.3033 915.937 542.165
1564 0 64.2165 13.4233 862 61.2958 916.24 539.906
1565 0 70.1676 12.7552 895 60.9006 915.639 540.116
1566 0 72.312 12.6812 917 61.169 915.196 539.793
1567 0 75.415 12.5307 945 60.8529 915.201 539.459
1568 0 77.3003 13.7257 1061 60.3478 915.445 536.534
1569 0 76.1912 12.9936 990 61.8182 915.767 535.292
1570 0 77.1456 13.1569 1015 62.402 915.604 535.041
1571 0 82.2557 12.9961 1069 61.6314 915.626 532.701
1572 0 87.2673 12.9946 1134 61.44 915.099 532.31
1573 0 89.3808 13.4481 1202 61.3045 914.876 529.95
1574 0 91.2489 13.4248 1225 61.3739 914.636 528.329
1575 0 96.1977 13.493 1298 61.1009 914.764 528.399
1576 0 98.4189 13.5543 1334 61.437 915.136 527.067
1577 0 101.256 13.7869 1396 61.6454 914.814 524.029
1578 0 104.302 13.5856 1417 62.2004 914.494 522.795
1579 0 106.281 13.2761 1411 62.4996 914.42 522.512
1580 1 62.124 10.9619 681 62.8766 913.972 544.238
1581 0 62.0614 10.7796 669 63.3184 913.517 543.378
1582 0 63.1745 11.8561 749 62.2376 913.491 543.101
1583 0 67.1171 12.426 834 61.3441 913.219 542.086
1584 0 70.2668 12.851 903 60.3234 913.873 541.8
1585 0 73.1371 12.5244 916 61.9509 913.949 542.789
1586 0 75.2415 12.7988 963 61.3115 913.506 542.854
1587 0 79.0921 13.2757 1050 60.7476 913.276 540.653
1588 0 81.1381 12.9286 1049 61.1335 912.995 539.039
1589 0 84.1026 13.8521 1165 59.9408 913.313 538.785
1590 0 86.1135 14.1209 1216 59.5979 913.099 536.942
1591 0 87.2175 13.3115 1161 61.006 913.347 534.437
1592 0 92.1793 13.8643 1278 60.0634 913.347 533.522
1593 0 95.0915 13.7026 1303 60.2801 913.988 531.574
1594 0 98.1282 13.5231 1327 59.853 914.008 530.189
1595 0 101.284 13.1709 1334 60.3298 914.151 529.439
1596 1 57.0412 10.098 576 60.809 913.944 551.326
1597 0 59.1193 10.5042 621 59.9501 914.076 551.758
1598 0 62.0882 11.5159 715 59.8392 913.71 549.05
1599 0 61.0779 11.952 730 59.9027 914.04 548.594
1600 0 65.1368 11.637 758 59.7401 913.825 546.817
1601 0 67.183 11.9822 805 59.5689 914.037 545.837
1602 0 70.14 12.6319 886 58.8138 913.877 544.002
1603 0 71.0718 12.7617 907 58.28 914.034 542.858
1604 0 74.0769 13.432 995 57.4251 914.543 540.952
1605 0 75.0753 12.4941 938 58.5885 913.988 541.094
1606 0 78.0987 13.1244 1025 57.798 914.444 538.81
1607 0 79.0956 13.0854 1035 57.5942 915.039 537.428
1608 0 84.165 13.7112 1154 56.5728 914.984 536.36
1609 0 85.2739 13.2749 1132 57.2067 914.967 536.034
1610 0 86.1989 12.9932 1120 57.9196 915.214 533.235
1611 0 92.2331 13.39 1235 56.9296 915.468 533.573
1612 0 95.1131 13.4261 1277 57.5897 915.226 530.823
1613 0 97.3059 13.0824 1273 57.707 916.18 528.837
1614 0 100.306 13.9673 1401 57.3933 916.408 527.377
1615 0 104.159 13.681 1425 57.4996 916.792 525.822
1616 0 106.196 13.4657 1430 58.4776 916.994 523.752
1617 0 112.309 13.7211 1541 58.2557 917.404 522.081
1618 1 66.1191 11.1314 736 58.1114 917.812 544.891
1619 0 65.0482 10.5307 685 59.273 916.797 544.463
1620 0 68.266 11.9679 817 58.4602 916.733 542.116
1621 0 72.1194 13.0201 939 57.1683 917.309 541.02
1622 0 74.1702 13.2398 982 57.0163 917.35 539.773
1623 0 76.1025 12.5094 952 57.7311 917.805 538.918
1624 0 77.0946 12.543 967 57.3909 918.052 537.226
1625 0 81.1593 12.5556 1019 57.474 918.764 534.881
1626 0 83.1749 13.0809 1088 56.7105 918.138 534.989
1627 0 84.2335 13.427 1131 56.679 918.663 533.204
1628 0 88.2852 13.1053 1157 56.6871 919.453 531.793
1629 0 90.1981 12.1843 1099 57.4322 919.542 531.412
1630 0 95.2092 12.7929 1218 56.7808 918.947 526.572
1631 0 99.4103 12.8759 1280 56.7203 918.571 527.362
1632 0 99.4103 12.8759 1280 158.715 918.571 527.362
1633 1 57.0979 9.7902 559 56.7871 917.762 549.651
1634 0 58.0628 10.3336 600 56.5333 918.017 547.095
1635 0 61.0502 11.597 708 55.0014 918.292 546.377
1636 0 61.0502 10.7944 659 153.179 918.294 545.674
1637 0 63.1043 12.3288 778 55.6131 919.409 543.653
1638 0 67.1196 12.4405 835 55.9473 920.584 542.055
1639 0 68.0843 11.9411 813 57.0381 919.467 541.026
1640 0 71.0893 12.8008 910 56.0154 919.989 541.678
1641 0 71.196 13.1047 933 55.7706 920.324 539.708
1642 0 74.069 12.2723 909 56.7382 919.864 538.712
1643 0 75.1683 13.2769 998 56.3186 919.718 535.522
1644 0 77.2707 12.6827 980 57.35 919.976 536.274
1645 0 79.1448 12.6351 1000 57.846 919.534 534.942
1646 0 81.2254 13.1117 1065 57.4732 919.569 534.32
1647 0 83.1584 13.324 1108 58.1029 919.754 533.004
1648 0 86.1346 12.7127 1095 58.5014 920.138 533.033
1649 0 91.1182 13.905 1267 57.1121 919.039 531.234
1650 0 91.0945 13.744 1252 58.0535 919.07 529.076
1651 0 94.2848 13.7032 1292 57.9806 918.803 522.57
1652 0 98.1572 13.7738 1352 57.7234 919.411 524.209
1653 0 102.192 14.3749 1469 56.7713 918.797 524.164
1654 1 56.0936 10.322 579 58.8808 919.603 545.627
1655 0 60.0712 10.4709 629 58.4292 918.806 546.369
1656 0 60.0712 10.4876 630 163.13 918.813 546.338
1657 0 65.1854 11.6284 758 56.3232 918.478 543.611
1658 0 65.1578 12.0477 785 56.1325 918.177 541.017
1659 0 70.1508 13.1859 925 55.3254 917.265 540.617
1660 0 71.1077 12.4178 883 56.3567 916.396 540.271
1661 0 72.2366 11.9607 864 57.6389 916.936 539.604
1662 0 75.1607 13.0121 978 56.5337 916.823 538.383
1663 0 78.1132 12.93 1010 56.5119 916.826 538.178
1664 0 81.09 12.6403 1025 57.1346 917.516 537.607
1665 0 81.076 13.2715 1076 57.5065 917.353 534.56
1666 0 86.3129 13.1498 1135 56.7313 916.77 534.135
1667 0 87.1095 12.8344 1118 56.9383 916.613 534.363
1668 0 91.1661 13.6564 1245 55.6554 916.56 532.272
1669 0 95.1185 12.763 1214 56.0717 916.67 529.421
1670 0 97.2762 13.8266 1345 54.8974 916.468 527.471
1671 0 100.336 12.8069 1285 55.8654 916.412 528.025
1672 0 103.27 12.995 1342 55.8905 916.2 526.768
1673 0 107.302 13.0565 1401 55.9736 916.146 525.026
1674 0 111.343 14.1366 1574 54.3691 916.336 523.063
1675 0 112.319 13.4172 1507 55.3908 915.958 521.05
1676 0 116.389 13.936 1622 55.0228 915.84 517.881
1677 1 65.0852 10.1098 658 55.5912 915.833 544.927
1678 0 68.087 10.8685 740 55.0946 915.951 543.692
1679 0 70.2189 11.3502 797 54.2911 915.624 543.26
1680 0 74.1076 12.7517 945 52.6212 915.73 542.002
1681 0 75.0909 12.4116 932 54.1835 915.013 540.626
1682 0 77.2634 12.6192 975 53.7754 914.862 540.763
1683 0 77.2634 12.6451 977 156.698 914.852 540.754
1684 0 80.2272 12.8261 1029 53.0846 914.712 536.351
1685 0 82.2357 12.2331 1006 53.6968 913.966 537.554
1686 0 86.1346 13.2815 1144 52.3173 914.391 534.564
1687 0 90.0983 13.0524 1176 52.0323 913.913 534.067
1688 0 91.1318 13.1458 1198 52.3114 914.497 531.548
1689 0 95.1753 13.2913 1265 52.2941 914.23 529.4
1690 0 100.269 13.5137 1355 51.8184 914.439 528.863
1691 0 102.285 13.3255 1363 51.9853 914.261 527.138
1692 0 104.315 12.9512 1351 52.507 914.47 525.86
1693 0 109.277 13.7723 1505 51.5568 914.46 523.589
1694 0 111.315 13.2148 1471 52.5445 914.362 521.513
1695 1 65.3617 10.832 708 51.7203 914.151 546.586
1696 0 69.3759 11.4881 797 50.4253 914.294 545.498
1697 0 69.1073 12.2274 845 50.3503 913.995 541.902
1698 0 71.1469 12.2844 874 49.3181 914.036 538.334
1699 0 74.1866 12.6438 938 49.7463 913.438 539.846
1700 0 77.2692 12.2041 943 49.4571 913.14 541.92
1701 0 79.191 12.5267 992 49.3982 912.9 539.975
1702 0 81.2216 12.2504 995 49.6201 912.867 539.278
1703 0 83.1877 11.7566 978 50.3906 912.746 538.84
1704 0 87.0758 11.8173 1029 50.2449 912.665 537.698
1705 0 87.0758 11.8173 1029 154.661 912.665 537.698
1706 0 91.1527 12.9124 1177 49.9796 913.07 532.681
1707 0 95.2021 13.172 1254 49.6802 912.743 533.119
1708 0 97.2275 12.3216 1198 50.2546 912.824 532.643
1709 0 100.172 12.3687 1239 50.4786 912.814 531.067
1710 0 103.143 13.1468 1356 49.8119 912.554 528.442
1711 0 105.383 12.9717 1367 50.2092 912.486 527.125
1712 0 108.282 12.6614 1371 50.903 912.74 525.638
1713 0 112.28 11.9879 1346 51.1746 912.836 524.292
1714 0 117.186 12.7746 1497 50.1456 912.795 517.393
1715 1 67.1755 10.346 695 50.7755 913.656 543.594
1716 0 69.2991 11.6019 804 50.2177 913.554 541.228
1717 0 72.155 11.6 837 50.2007 913.416 541.613
1718 0 72.0856 10.7095 772 49.9365 913.154 540.093
1719 0 77.0351 11.6051 894 49.594 912.67 541.458
1720 0 77.0942 12.7895 986 50.2069 913.755 539.617
1721 0 82.0548 12.8329 1053 49.7407 913.192 538.554
1722 0 82.0711 13.2812 1090 49.7248 913.291 536.239
1723 0 85.114 12.8886 1097 50.464 913.612 535.265
1724 0 85.1037 12.8549 1094 50.8428 913.781 533.523
1725 0 90.1172 13.0053 1172 50.064 913.935 534.354
1726 0 90.1564 12.2676 1106 51.9846 914.333 533.435
1727 0 96.1886 13.5463 1303 50.6708 914.528 532.058
1728 0 97.0797 13.4838 1309 51.2613 914.775 528.144
1729 0 98.1816 13.3019 1306 50.9196 914.995 528.341
1730 0 105.131 14.0016 1472 49.6889 915.014 528.296
1731 0 107.113 13.1264 1406 50.3649 915.526 525.038
1732 0 111.097 13.8888 1543 49.5243 915.71 523.451
1733 0 113.25 14.6049 1654 49.0635 915.359 522.2
1734 0 116.226 14.3341 1666 49.509 915.955 521.013
1735 0 121.098 14.3768 1741 50.1298 916.238 520.081
1736 0 123.228 14.7045 1812 51.2368 916.561 513.114
1737 0 125.306 14.5882 1828 52.6931 916.902 511.849
1738 0 127.418 13.9306 1775 54.231 916.724 512.608
1739 0 132.389 14.4348 1911 53.2454 917.25 510.896
1740 0 135.545 15.2348 2065 52.245 917.675 508.546
1741 0 140.432 15.2956 2148 51.8906 917.705 503.452
1742 0 144.338 14.2374 2055 54.6112 918.235 504.124
1743 0 149.582 14.6675 2194 53.6212 918.038 499.196
1744 1 84.3698 11.8644 1001 53.5494 918.593 534.122
1745 0 88.3697 11.8819 1050 53.799 919.487 530.864
1746 0 90.2296 12.1246 1094 53.4397 919.422 529.794
1747 0 94.4388 13.0667 1234 52.0373 919.708 528.117
1748 0 95.3339 12.8496 1225 53.2767 920.552 522.304
1750 0 99.3867 12.9192 1284 53.2235 920.409 523.656
1751 0 103.636 13.8948 1440 52.1861 920.203 520.48
1752 0 107.336 13.4438 1443 53.1518 920.224 520.121
1753 0 110.274 13.2035 1456 54.0474 920.455 518.744
1754 0 114.454 14.722 1685 52.4498 920.395 515.789
1755 0 117.305 15.0378 1764 52.5482 919.765 513.293
1756 0 117.305 15.0634 1767 157.359 918.76 513.29
1757 0 127.235 13.6048 1731 54.6927 920.123 511.388
1758 0 131.509 13.8546 1822 54.461 919.851 509.27
1759 0 133.496 14.4125 1924 54.6315 919.85 505.909
1760 1 76.1279 10.2328 779 55.6868 919.75 536.743
1761 0 78.2622 10.7715 843 55.605 920.135 534.28
1762 0 82.2539 12.4493 1024 53.8506 920.417 535.126
1763 0 85.1704 12.4456 1060 54.9415 919.926 531.395
1764 0 87.2431 13.5942 1186 54.1256 919.918 528.469
1765 0 89.199 13.3185 1188 54.649 919.997 529.936
1766 0 92.3369 13.2558 1224 55.2132 919.798 526.098
1767 0 97.2544 14.3952 1400 53.37 919.504 523.671
1768 0 99.2778 13.9407 1384 53.9552 919.688 523.933
1769 0 104.567 13.9911 1463 53.5167 919.66 522.834
1770 0 105.347 13.821 1456 54.8338 918.929 520.183
1771 0 108.283 14.0189 1518 54.9223 918.862 519.121
1772 0 111.293 14.4034 1603 55.4067 918.918 518.371
1773 0 114.363 14.0167 1603 55.9507 918.896 515.633
1774 0 118.107 14.3514 1695 56.072 918.744 513.576
1775 0 122.197 14.1002 1723 56.058 918.269 512.706
1776 0 127.217 14.204 1807 55.0437 918.628 510.878
1777 0 129.269 13.7156 1773 55.5245 918.173 510.857
1778 0 134.138 13.9185 1867 55.9807 918.6 508.721
1779 0 138.287 13.8336 1913 55.7318 918.7 505.054
1780 1 81.1991 11.6381 945 55.218 918.54 537.315
1781 0 83.2788 12.4041 1033 54.2691 918.184 536.563
1782 0 85.2562 13.5122 1152 53.6389 917.931 531.409
1783 0 88.2861 13.4789 1190 53.7185 917.493 531.948
1784 0 90.171 13.3302 1202 54.3178 917.26 530.677
1785 0 94.1697 13.7836 1298 53.7904 916.753 529.79
1786 0 98.1832 13.0878 1285 54.0132 917.286 526.487
1787 0 101.49 13.6369 1384 53.2197 917.134 526.146
1788 0 105.315 14.1575 1491 52.8223 917.437 524.514
1789 0 106.315 13.7328 1460 53.8315 917.036 522.833
1790 0 109.329 14.0218 1533 53.623 916.542 522.088
1791 0 115.222 13.9817 1611 53.4525 916.776 519.585
1792 0 116.376 13.6798 1592 53.9554 916.746 517.761
1793 0 120.359 13.9583 1680 54.0649 916.404 516.208
1794 0 123.205 13.9443 1718 54.1292 916.016 516.239
1795 0 128.434 14.2564 1831 53.456 915.996 516.984
1796 0 133.29 15.4175 2055 52.1236 916.168 512.981
1797 0 137.222 13.868 1903 54.2822 915.895 510.891
1798 0 142.403 14.5221 2068 53.441 915.697 507.525
1799 1 79.1372 11.0568 875 53.8869 915.973 542.461
1800 0 78.1919 12.8146 1002 54.1617 916.179 538.348
1801 0 81.0939 11.9614 970 54.2938 915.693 540.471
1802 0 83.1485 12.7363 1059 54.1464 916.091 539.157
1803 0 86.1213 13.0978 1128 54.4211 916.17 537.013
1804 0 91.1709 13.6557 1245 53.5189 915.308 536.462
1805 0 93.3251 13.1154 1224 54.7598 915.386 532.952
1806 0 97.1916 13.5814 1320 54.0076 914.705 533.468
1807 0 100.151 14.1286 1415 53.742 915.235 529.756
1808 0 102.161 13.6256 1392 54.5417 915.299 528.165
1809 0 106.387 14.2874 1520 53.6757 915.2 528.141
1810 0 109.219 14.2008 1551 54.1522 914.489 526.4
1811 0 113.144 14.1943 1606 54.1606 914.42 524.465
1812 0 116.128 15.2419 1770 53.3966 914.102 522.396
1813 0 119.234 13.9389 1662 54.6787 914.149 523.178
1814 0 122.263 13.9617 1707 55.2695 914.414 518.894
1815 0 127.294 15.2796 1945 53.6607 914.216 516.84
1816 0 129.255 14.6609 1895 54.858 914.308 515.642
1817 0 136.365 14.8645 2027 54.3355 914.339 513.737
1818 1 75.1059 12.0497 905 56.5923 914.144 542.517
1819 0 78.1095 12.6489 988 56.3138 914.74 542.338
1820 0 82.18 14.1032 1159 54.9215 914.324 539.881
1821 0 84.0725 14.1663 1191 55.6138 914.521 538.174
1822 0 85.2628 13.6285 1162 56.6325 914.608 536.707
1823 0 89.2432 14.3316 1279 55.4269 914.826 534.747
1824 0 92.2396 15.0261 1386 55.2071 914.569 533.724
1825 0 96.2656 14.6885 1414 55.3083 914.916 531.636
1826 0 97.1733 14.8086 1439 55.4378 914.696 529.853
1827 0 102.139 14.7838 1510 55.249 914.706 528.854
1828 0 106.306 15.6435 1663 53.908 915.215 526.231
1829 0 108.177 14.9939 1622 55.3705 915.369 526.41
1830 0 111.265 14.4789 1611 55.6872 915.228 525.751
1831 0 115.301 15.0389 1734 55.3858 916.14 521.536
1832 0 116.274 14.4057 1675 56.4119 916.05 521.264
1833 0 123.346 15.639 1929 54.5702 916.01 517.858
1834 0 123.346 15.6471 1930 161.848 916.014 517.823
1835 0 131.246 14.6671 1925 55.7044 915.792 514.652
1836 1 74.1463 12.7046 942 57.5839 916.021 541.221
1837 0 77.2838 13.5087 1044 56.0287 916.541 540.728
1838 0 80.1263 13.4662 1079 56.8508 916.939 538.492
1839 0 82.1536 13.5965 1117 56.9257 917.339 536.987
1840 0 85.0839 14.2448 1212 55.9678 917.301 534.311
1841 0 90.1547 14.0869 1270 56.3118 917.367 534.237
1842 0 91.2417 14.0396 1281 57.1241 918.235 531.714
1843 0 96.1942 14.0341 1350 56.817 918.345 530.122
1844 0 101.232 15.1534 1534 55.4713 918.409 527.32
1845 0 103.167 14.8497 1532 56.2245 918.301 525.649
1846 0 106.173 14.3822 1527 57.0491 918.788 522.643
1847 0 110.21 13.9097 1533 57.2753 918.393 524.926
1848 1 62.172 12.8997 802 56.9663 918.373 547.075
1849 0 65.2292 12.4484 812 56.8177 918.895 545.692
1850 0 67.1691 14.1136 948 55.8977 918.921 544.499
1851 0 70.0898 13.3543 936 56.7073 918.984 543.152
1852 0 72.1784 14.1871 1024 55.9678 919.188 542.11
1853 0 74.4099 12.9687 965 56.2073 919.321 540.588
1854 0 75.1842 13.3539 1004 56.2988 919.739 538.813
1855 0 77.1554 13.557 1046 55.9178 919.887 538.496
1856 0 80.1257 13.0171 1043 56.7852 919.833 536.518
1857 0 85.1341 14.2364 1212 55.2286 919.185 534.435
1858 0 87.231 13.3209 1162 56.5465 918.835 535.36
1859 0 89.1911 13.7121 1223 56.5437 918.747 532.657
1860 0 93.1577 14.5774 1358 55.7695 918.882 530.364
1861 0 95.0838 14.8185 1409 55.7686 918.906 530.212
1862 0 98.4481 13.3674 1316 57.5699 918.463 528.557
1863 0 101.278 13.9418 1412 57.3137 917.96 527.557
1864 0 104.216 14.2589 1486 57.031 918.082 525.293
1865 0 107.424 14.5685 1565 57.0268 918.399 524.591
1866 0 110.215 14.3719 1584 57.4823 918.612 520.674
1867 0 114.315 13.7777 1575 57.9708 918.465 521.026
1868 0 119.361 15.0301 1794 56.5195 918.489 519.233
1869 0 121.196 14.522 1760 57.3614 918.115 517.888
1870 0 125.205 14.8956 1865 56.7555 917.621 516.613
1871 0 130.37 14.9037 1943 55.6994 917.398 513.046
1872 0 135.46 15.6504 2120 54.3755 916.886 511.696
1873 0 137.446 14.0637 1933 56.8189 916.52 510.102
1874 0 143.45 14.7439 2115 55.8184 916.554 506.515
1875 0 147.366 14.3792 2119 56.1784 916.176 506.073
1876 1 80.2021 12.6057 1011 57.0495 916.344 538.837
1877 0 84.4432 13.8199 1167 56.3051 915.967 537.077
1878 0 87.2608 14.4166 1258 55.5779 916.413 537.567
1879 0 90.304 14.5508 1314 55.6149 916.231 533
1880 0 95.4774 14.7155 1405 54.8676 916.718 533.288
1881 0 98.2714 14.9789 1472 55.2962 916.625 530.192
1882 0 102.328 14.4535 1479 56.1109 916.648 529.568
1883 0 103.516 14.5775 1509 56.6978 916.164 528.12
1884 0 107.385 14.4433 1551 56.4881 915.893 526.111
1885 0 107.385 14.4992 1557 165.565 915.892 526.133
1886 0 113.314 14.526 1646 57.5298 915.621 524.181
1887 0 117.439 14.7396 1731 57.294 916.032 519.243
1888 1 65.3599 11.7503 768 58.4505 915.816 549.229
1889 0 68.1419 13.0023 886 58.1591 915.639 545.344
1890 0 73.1817 12.9267 946 57.4725 914.571 544.458
1891 0 73.1682 13.4485 984 58.1626 915.473 543.596
1892 0 77.4903 14.234 1103 57.2384 915.055 541.61
1893 0 80.5311 14.9756 1206 56.2372 915.323 540.654
1894 0 83.3108 14.5599 1213 56.8574 915.071 539.234
1895 0 82.239 13.9836 1150 58.2652 915.104 538.331
1896 0 86.2712 14.8253 1279 57.2252 914.998 537.369
1897 0 90.1116 14.8261 1336 57.2073 914.531 536.616
1898 0 92.2011 14.7395 1359 57.4349 914.685 533.974
1899 0 97.273 14.6906 1429 57.0084 914.347 533.943
1900 0 99.1979 15.2927 1517 56.4812 914.252 532.878
1901 0 103.37 14.5787 1507 57.0226 913.607 530.017
1902 0 106.187 15.0019 1593 56.7395 914.084 529.223
1903 0 109.172 14.6374 1598 57.3035 914.148 527.083
1904 0 113.37 15.3216 1737 56.4508 913.585 525.757
1905 0 116.386 15.2768 1778 56.4865 913.535 524.735
1906 0 120.28 15.464 1860 56.364 913.521 521.86
1907 0 124.485 14.797 1842 56.7465 913.535 522.501
1908 0 129.13 15.2559 1970 56.1954 913.577 517.389
1909 1 71.1264 11.7115 833 58.8704 913.36 547.549
1910 0 74.2379 12.7832 949 58.3572 912.926 545.999
1911 0 76.249 13.8756 1058 57.5879 912.709 545.033
1912 0 80.4707 14.962 1204 55.7525 913.189 542.779
1913 0 81.1594 14.3545 1165 57.0798 913.211 540.984
1914 0 84.3293 14.728 1242 56.5878 912.997 539.245
1915 0 88.1252 14.7177 1297 56.1804 912.958 538.631
1916 0 89.3029 14.5124 1296 56.9475 912.915 536.68
1917 0 93.3289 14.315 1336 56.9671 913.017 534.551
1918 0 97.6864 14.6694 1433 56.6629 912.895 533.324
1919 0 99.2269 15.1169 1500 57.2093 912.918 531.581
1920 0 103.288 14.9291 1542 57.3132 914.072 528.94
1921 0 107.466 15.2141 1635 56.9107 913.221 528.028
1922 0 111.319 14.6516 1631 57.6272 913.021 526.915
1923 0 114.457 14.7304 1686 57.6625 913.126 523.855
1924 0 118.403 14.8983 1764 57.5533 912.96 522.38
1925 1 70.2313 11.6045 815 58.4515 912.742 547.432
1926 0 71.2736 11.1542 795 58.3459 912.594 547.843
1927 0 75.4342 12.8854 972 57.2984 912.389 545.071
1928 0 78.2893 13.6289 1067 56.2221 913.078 544.581
1929 0 79.1893 14.2317 1127 56.4392 912.954 540.642
1930 0 81.3519 13.6936 1114 57.0314 912.772 541.335
1931 0 85.3024 13.2822 1133 56.9965 912.75 540.193
1932 0 87.2427 13.7318 1198 56.9983 912.498 536.693
1933 0 90.1936 13.5708 1224 57.1307 912.173 536.422
1934 0 95.4577 13.9329 1330 56.3797 912.081 534.79
1935 0 98.1829 13.7295 1348 57.1202 912.285 531.266
1936 0 103.328 13.7136 1417 56.2823 912.213 533.375
1937 0 106.238 13.3285 1416 57.5297 912.369 530.893
1938 0 107.633 13.5088 1454 57.4601 912.699 529.907
1939 0 109.145 13.4317 1466 58.4898 913.005 527.13
1940 0 115.29 14.3811 1658 57.5531 913.446 523.858
1941 0 117.358 13.9402 1636 58.7243 913.12 523.224
1942 0 121.314 13.1395 1594 59.3814 912.615 521.13
1943 0 125.332 13.8512 1736 58.9332 912.949 518.454
1944 0 130.216 14.3685 1871 56.8578 912.848 518.365
1945 1 73.2029 11.2154 821 57.8977 913.261 545.214
1946 0 77.2448 13.386 1034 55.4826 913.694 542.474
1947 0 78.1519 13.4866 1054 56.2714 913.767 540.667
1948 0 81.2134 13.5446 1100 56.2873 913.395 540.018
1949 0 82.3773 14.0816 1160 56.0603 913.764 538.553
1950 0 84.3138 14.0902 1188 56.4697 913.961 538.66
1951 0 88.2254 13.8055 1218 56.3842 914.381 537.241
1952 0 92.1862 14.0802 1298 55.9522 914.366 535.017
1953 0 93.2943 13.9022 1297 57.0987 914.309 533.892
1954 0 97.1906 13.777 1339 57.3742 915.085 530.236
1955 0 100.248 13.7758 1381 56.8689 915.49 529.228
1956 0 102.218 13.1679 1346 58.0921 915.14 528.616
1957 0 106.326 14.0981 1499 57.1574 915.365 526.201
1958 0 110.294 14.3707 1585 57.2132 915.265 523.71
1959 0 112.244 13.9606 1567 57.5565 915.056 523.818
1960 0 117.229 13.6741 1603 58.0599 915.531 518.849
1961 0 121.391 14.7869 1795 56.824 916.261 518.365
1962 0 125.426 14.2873 1792 57.5999 916.028 515.612
1963 0 128.133 14.3288 1836 57.8742 916.065 515.96
1964 0 135.218 14.6578 1982 57.2144 917.18 513.669
1965 0 139.297 14.0132 1952 58.0102 917.78 508.991
1966 0 144.379 14.6005 2108 57.0432 917.442 508.812
1967 1 83.2626 11.77 980 57.7439 917.406 540.179
1968 0 85.3902 13.1163 1120 57.0134 917.888 536.579
1969 0 87.3653 13.6439 1192 56.797 917.919 534.774
1970 0 90.3829 14.0403 1269 56.9283 917.83 532.452
1971 0 94.3971 13.8458 1307 57.0842 917.877 531.664
1972 0 96.3132 14.0687 1355 57.0074 917.67 528.823
1973 0 100.64 14.527 1462 56.2982 918.042 527.369
1974 0 104.372 13.3464 1393 57.8047 918.278 526.001
1975 0 106.424 13.3711 1423 58.3359 918.596 524.521
1976 0 110.38 14.4501 1595 56.5705 919.051 522.217
1977 0 114.515 14.5833 1670 56.6683 919.159 520.991
1978 0 117.463 14.1577 1663 56.8755 919.241 519.849
1979 0 120.305 14.5879 1755 56.4621 919.361 516.573
1980 0 125.359 14.1194 1770 56.9966 919.797 514.342
1981 1 70.1581 11.3886 799 58.0864 920.232 542.84
1982 0 70.2992 11.9916 843 58.2669 920.178 539.858
1983 0 73.187 11.5458 845 57.8308 920.202 540.727
1984 0 76.2952 13.841 1056 56.0483 920.374 538.327
1985 0 80.3387 13.2439 1064 56.7406 919.778 538.077
1986 0 80.1668 13.3846 1073 57.1966 920.067 535.956
1987 0 82.3354 13.0928 1078 57.7189 919.6 534.951
1988 0 86.1627 14.0548 1211 56.6631 919.865 534.04
1989 0 88.1534 13.4765 1188 57.8822 919.531 532.456
1990 0 92.2689 13.4823 1244 58.2387 919.945 530.088
1991 0 95.3756 13.7457 1311 57.9733 919.603 529.47
1992 0 97.62 14.0852 1375 57.9178 919.684 528.412
1993 0 100.465 15.0103 1508 57.3627 919.47 525.428
1994 0 104.556 14.2507 1490 58.2564 919.369 523.353
1995 0 107.59 14.7505 1587 57.8796 919.593 522.15
1996 0 110.348 14.6446 1616 58.3267 919.907 520.256
1997 0 115.336 14.6269 1687 58.2905 919.259 519.715
1998 0 117.219 14.5795 1709 58.622 918.796 516.881
1999 0 122.231 14.6199 1787 58.6396 918.464 515.786
2000 1 70.5494 12.2609 865 59.6127 918.793 540.905
2001 0 72.2487 12.2909 888 59.8491 918.352 539.009
2002 0 74.5284 13.0688 974 59.5277 917.949 539.199
2003 0 74.5284 13.042 972 174.483 916.949 539.241
2004 0 78.1204 13.6072 1063 59.238 918.065 537.133
2005 0 79.1203 13.7007 1084 60.2804 918.03 536.178
2006 0 83.4102 14.0391 1171 59.4782 917.778 535.206
2007 0 85.378 13.8209 1180 60.0822 917.447 532.771
2008 0 90.3502 14.4881 1309 58.9396 917.738 531.739
2009 0 92.1986 14.0241 1293 59.71 917.25 529.295
2010 0 95.1567 13.7563 1309 60.1047 917.021 528.146
2011 0 98.2419 14.5864 1433 59.0628 917.386 526.692
2012 0 100.214 14.1098 1414 59.4512 916.598 525.962
2013 0 103.478 14.8728 1539 58.9656 916.172 524.973
2014 0 106.181 14.5317 1543 59.8574 916.25 523.979
2015 0 111.399 14.0397 1564 59.9047 916.283 522.427
2016 0 111.385 13.8708 1545 60.635 917.044 518.156
2017 0 115.255 14.3942 1659 60.12 916.543 516.995
2018 0 120.347 14.7241 1772 59.4543 916.426 515.282
2019 0 122.431 14.2202 1741 60.1074 916.345 514.843
2020 0 125.587 13.9983 1758 60.9289 916.425 512.566
2021 0 128.401 14.9532 1920 59.5766 916.305 510.801
2022 0 133.392 14.6861 1959 59.9872 915.941 508.629
2023 1 78.3529 10.7845 845 62.226 915.72 537.364
2024 0 80.4653 12.3904 997 60.6981 915.586 535.842
2025 0 83.3131 12.243 1020 60.6382 915.374 533.472
2026 0 86.2936 12.7819 1103 59.719 915.179 533.644
2027 0 87.2395 12.9185 1127 60.0266 915.736 531.818
2028 0 92.3993 13.236 1223 59.2911 915.585 530.172
2029 0 95.4078 13.458 1284 59.0491 915.886 529.366
2030 0 100.343 13.4139 1346 58.3299 915.581 527.413
2031 0 103.411 13.5092 1397 58.5855 915.787 524.921
2032 0 104.387 13.8618 1447 58.7208 915.879 521.717
2033 0 109.139 14.5686 1590 57.834 915.482 520.165
2034 0 112.425 13.7336 1544 58.445 915.037 519.332
2035 0 115.453 14.075 1625 58.4031 914.84 517.733
2036 0 117.426 13.566 1593 59.3647 914.892 515.538
2037 0 121.519 13.6769 1662 59.5168 914.707 514.813
2038 0 125.281 13.8568 1736 58.7425 914.584 511.649
2039 0 128.553 14.1576 1820 58.1863 914.879 510.831
2040 0 133.328 14.3856 1918 57.8754 915.592 505.808
2041 0 135.464 14.0554 1904 58.7799 915.658 504.973
2042 0 140.346 14.1934 1992 58.7691 914.896 502.625
2043 0 142.68 13.8632 1978 59.4009 914.564 500.478
2044 0 152.362 14.2818 2176 58.08 914.738 497.637
2045 0 158.335 14.8483 2351 57.3416 914.258 494.57
2046 1 90.1679 10.9684 989 59.0253 914.492 528.932
2047 0 92.1245 11.9512 1101 59.0672 914.317 527.15
2048 0 96.0785 12.4273 1194 58.1332 914 524.206
2049 0 98.1945 12.852 1262 58.3407 914.108 522.641
2050 0 103.347 13.4014 1385 57.5978 914.086 521.129
2051 0 106.288 12.8801 1369 58.2279 913.999 520.275
2052 0 108.441 13.3805 1451 58.0041 913.912 518.054
2053 0 111.389 13.188 1469 58.13 914.089 516.039
2054 0 116.504 14.1711 1651 58.9443 913.672 514.469
2055 0 118.307 13.6255 1612 59.7705 913.283 511.797
2056 0 123.45 13.9895 1727 59.3619 913.327 511.72
2057 0 127.558 14.072 1795 59.6786 913.486 508.361
2058 0 129.517 13.8978 1800 60.1644 913.563 506.729
2059 0 134.463 13.7584 1850 60.2778 913.727 506.172
2060 0 139.568 14.3084 1997 59.3736 913.7 503.254
2061 0 142.349 14.1272 2011 60.5062 913.552 498.897
2062 0 148.49 13.7854 2047 60.3654 913.525 500.369
2063 0 151.367 14.6729 2221 59.9968 914.427 493.835
2064 0 159.46 13.9659 2227 60.1886 913.692 494.424
2065 0 165.748 14.6065 2421 59.5089 913.742 491.096
2066 1 99.2594 10.8604 1078 61.448 913.779 524.132
2067 0 101.476 11.1061 1127 60.236 914.087 525.358
2068 0 106.375 10.8484 1154 61.7738 913.574 520.791
2069 0 109.452 12.389 1356 60.1681 913.509 519.082
2070 0 112.43 12.5501 1411 60.584 913.803 517.179
2071 0 117.502 12.0424 1415 61.3159 913.883 514.888
2072 0 121.425 12.8227 1557 61.5575 913.864 512.414
2073 0 123.385 13.4214 1656 60.9269 914.191 511.21
2074 0 129.459 13.1857 1707 61.42 914.329 508.037
2075 0 131.338 12.9818 1705 62.1707 914.741 506.323
2076 0 137.535 13.2767 1826 61.6501 914.435 505.38
2077 0 140.372 12.8872 1809 62.3101 914.796 502.763
2078 0 143.297 12.9312 1853 62.5316 915.237 499.729
2079 0 148.503 12.855 1909 62.791 914.964 497.112
2080 1 89.3611 10.4408 933 60.9561 915.686 530.274
2081 0 91.3099 11.2912 1031 60.5238 915.872 526.387
2082 0 95.2914 12.0683 1150 59.7548 916.181 525.316
2083 0 98.442 12.2001 1201 59.6062 915.8 523.951
2084 0 102.528 12.4942 1281 59.7065 915.974 524.099
2085 0 103.392 12.235 1265 60.5881 915.957 520.153
2086 0 107.53 12.3222 1325 60.3042 916.166 517.356
2087 0 112.377 12.734 1431 60.0531 916.136 516.031
2088 0 116.497 12.5583 1463 60.6446 916.543 514.83
2089 0 119.476 12.4042 1482 61.2942 916.881 512.919
2090 0 123.599 12.5001 1545 60.9605 918.012 511.338
2091 0 124.459 12.7352 1585 61.3186 917.804 510.839
2092 0 130.395 13.5818 1771 60.5726 917.948 507.16
2093 0 134.472 13.6682 1838 60.5669 917.959 506.273
2094 0 136.393 12.7059 1733 61.8523 917.987 503.76
2095 0 139.352 12.5509 1749 62.4094 917.883 502.999
2096 0 145.485 12.7573 1856 62.1013 917.818 499.449
2097 0 148.311 12.7974 1898 62.2708 917.727 498.366
2098 0 153.26 13.6696 2095 61.178 918.29 495.774
2099 0 158.285 14.1075 2233 60.8424 918.496 491.109
2100 0 163.432 13.706 2240 61.3263 918.339 491.033
2101 0 169.428 13.9292 2360 60.764 919.445 488.221
2102 0 173.366 13.4744 2336 61.7444 918.967 484.789
2103 0 178.41 13.8614 2473 61.277 919.185 481.618
2104 0 184.379 13.8465 2553 61.3819 919.413 476.589
2105 0 191.35 14.6747 2808 60.5516 919.764 473.312
2106 0 194.408 13.6311 2650 62.3792 919.273 473.385
2107 0 200.514 14.3282 2873 61.4459 920 469.518
2108 0 208.436 14.7623 3077 60.3432 919.744 467.753
2109 0 213.513 14.8375 3168 60.654 919.529 465.294
2110 0 222.403 15.5664 3462 59.2966 919.237 456.731
2111 0 225.549 14.4669 3263 61.0368 919.278 458.406
2112 0 230.592 15.3215 3533 59.5052 919.674 455.818
2113 0 235.604 15.4878 3649 59.5955 919.302 447.999
2114 0 235.604 15.4878 3649 166.626 919.302 447.999
2115 0 250.589 15.4476 3871 59.6952 919.614 440.268
2116 0 259.635 16.2536 4220 57.8225 919.618 439.497
2117 0 265.539 15.2972 4062 59.2949 920.104 434.088
2118 0 274.569 14.9216 4097 59.6124 920.057 430.621
2119 0 284.625 14.9214 4247 59.6906 919.938 422.78