time division length width area intensity CMx CMy
0 0 50.1326 12.8459 644 68.705 1139.09 569.564
1 0 51.3556 12.6374 649 69.5516 1138.81 569.501
2 0 52.1603 12.3849 646 70.13 1138.95 567.663
3 0 55.3021 12.4769 690 70.4986 1139.08 566.899
4 0 57.2638 13.4116 768 69.9896 1138.49 565.12
5 0 59.2488 13.2492 785 70.1108 1139.22 564.931
6 0 59.3075 12.4773 740 71.4932 1138.72 563.281
7 0 63.187 12.9773 820 70.4488 1138.44 562.795
8 0 65.1612 12.799 834 71.2278 1138.98 562.608
9 0 68.3207 12.8512 878 71.6333 1138.67 560.811
10 0 70.122 13.6762 959 71.3045 1138.74 560.35
11 0 73.2151 13.3989 981 72.6656 1138.85 558.887
12 0 73.1363 12.798 936 74.297 1139.08 557.715
13 0 77.1439 13.5591 1046 72.8174 1138.91 555.485
14 0 79.1707 13.3635 1058 73.6191 1139.27 554.559
15 0 82.0606 13.161 1080 74.6019 1139.35 553.706
16 1 41.0384 10.1856 418 74.811 1139.85 573.201
17 0 42.1041 10.6165 447 74.6711 1138.94 571.282
18 0 44.0466 11.4424 504 72.0119 1138.98 570.907
19 0 49.0256 11.6878 573 70.2304 1139.25 570.072
20 0 46.0263 11.2761 519 177.832 1139.18 568.988
21 0 49.2466 11.9602 589 70.8744 1138.53 569.129
22 0 51.152 12.3553 632 69.7278 1138.48 568.56
23 0 51.1993 12.0314 616 72.1006 1139.09 568.192
24 0 54.2483 12.111 657 70.7823 1138.71 567.906
25 0 55.117 13.0631 720 69.6583 1138.74 566.557
26 0 58.1244 12.37 719 70.5355 1139.24 566.862
27 0 59.1537 12.7126 752 70.4907 1139.13 564.229
28 0 61.0917 12.8004 782 70.2059 1139.05 562.501
29 0 63.1373 12.9876 820 70.3976 1139.97 561.585
30 0 65.1866 12.4412 811 70.6634 1139.72 562.908
31 0 68.1108 13.5074 920 69.6424 1140.13 559.759
32 0 68.1568 13.4983 920 70.2837 1139.7 559.957
33 0 71.0818 13.9557 992 69.6845 1140.34 557.867
34 0 72.1447 13.861 1000 69.78 1140.19 556.884
35 0 75.1509 13.1735 990 71.1727 1140.32 555.459
36 0 78.2062 13.0424 1020 71.2627 1140.73 553.676
37 0 79.1855 13.4747 1067 71.1903 1140.39 553.526
38 1 42.0087 10.0217 421 72.247 1140.89 571.463
39 0 43.0225 10.6456 458 70.9607 1140.9 571.723
40 0 45.0271 10.8157 487 69.4702 1141.09 571.834
41 0 45.1843 10.7781 487 71.2916 1140.66 569.392
42 0 48.0766 12.0641 580 68.1586 1140.61 569.329
43 0 49.128 11.8873 584 70.7637 1140.18 568.253
44 0 53.0663 12.1734 646 69.4458 1140.41 568.519
45 0 52.1151 12.741 664 69.7304 1140.6 567.148
46 0 55.108 12.7568 703 69.2048 1141.15 565.997
47 0 57.1267 12.9537 740 67.8473 1141.33 566.673
48 0 58.1267 12.6792 737 69.209 1140.85 564.395
49 0 59.115 12.8394 759 69.1515 1141.05 564.871
50 0 61.172 13.2414 810 67.9667 1141.21 564.68
51 0 63.1405 12.9236 816 68.6826 1141.33 562.026
52 0 65.1282 12.0992 788 69.3655 1141.57 560.962
53 0 66.0938 12.7243 841 69.0809 1141.48 560.687
54 0 70.2171 13.4867 947 67.2471 1140.47 559.245
55 0 73.1214 13.8263 1011 60.0791 1140.87 557.05
56 0 75.1177 12.9397 972 61.608 1140.7 556.641
57 0 79.1323 13.6228 1078 60.2607 1140.78 554.877
58 0 80.1332 12.9784 1040 60.9808 1140.54 554.179
59 1 42.11 10.0451 423 59.3688 1140.9 574.839
60 0 44.1538 10.3728 458 60.9738 1140.24 573.087
61 0 45.1489 10.4322 471 61.0764 1140.46 570.9
62 0 46.1091 11.0174 508 59.4744 1140.42 570.504
63 0 46.1311 11.6407 537 60.2328 1139.55 569.266
64 0 49.1315 11.8865 584 58.5908 1140.82 568.228
65 0 50.2483 11.483 577 59.279 1140.66 568.347
66 0 53.2516 11.9245 635 58.6268 1140.94 566.37
67 0 54.1915 11.9207 646 58.6517 1141.3 565.498
68 0 54.1915 11.8838 644 152.168 1142.31 565.491
69 0 57.1539 12.0552 689 58.2874 1141.6 564.784
70 0 58.1668 12.6705 737 57.8575 1140.86 563.033
71 0 59.1194 12.331 729 58.5624 1141.71 562.412
72 0 62.1269 13.07 812 57.6638 1141.92 560.193
73 0 65.1456 13.5542 883 56.8709 1142.29 560.388
74 0 66.202 12.477 826 58.7228 1141.88 559.23
75 0 66.167 12.408 821 59.8904 1142.53 558.395
76 0 72.2538 13.0927 946 58.3869 1143.29 557.334
77 0 70.2059 12.62 886 60.2404 1143.52 555.275
78 0 74.16 12.7292 944 59.9184 1143.03 553.593
79 0 77.2114 13.3141 1028 59.6673 1143.42 553.116
80 0 79.0804 13.1512 1040 60.5644 1143.91 550.767
81 1 43.0535 10.4289 449 62.4722 1144.14 568.699
82 0 45.1079 10.619 479 61.8664 1144.08 568.779
83 0 45.1667 11.0922 501 62.7206 1144.29 567.92
84 0 47.1625 12.7008 599 61.1703 1144.77 565.858
85 0 49.1628 12.2247 601 62.4309 1144.99 564.255
86 0 50.2503 11.8606 596 62.1007 1144.79 564.862
87 0 50.1732 12.5964 632 61.5759 1144.71 562.979
88 0 51.1648 12.4304 636 60.1887 1144.92 561.381
89 0 55.1568 13.1625 726 57.2796 1145.31 560.924
90 0 55.1568 13.1625 726 153.616 1146.31 560.924
91 0 57.2178 12.6709 725 62.8593 1145.8 559.225
92 0 57.2221 12.9321 740 65.9743 1145.97 557.276
93 0 57.2666 12.1188 694 65.2536 1146.04 558.278
94 0 61.3497 12.225 750 64.068 1146.4 557.835
95 0 62.2319 12.4373 774 61.823 1146.49 554.549
96 0 64.1593 11.9234 765 60.9739 1146.68 556.179
97 0 65.321 12.584 822 84.0572 1146.12 554.106
98 0 67.2698 13.2452 891 58.945 1145.64 552.67
99 0 68.2761 13.255 905 59.0044 1145.23 551.183
100 0 69.1835 12.2717 849 61.808 1145.53 550.747
101 0 74.2917 12.5048 929 63.0388 1146.21 547.666
102 0 76.1903 12.3507 941 61.7566 1145.57 546.582
103 0 78.2657 13.2242 1035 59.7749 1146.01 546.391
104 0 82.1878 12.8973 1060 60.6396 1146.34 545.3
105 0 84.2388 13.0819 1102 60.7822 1146.11 541.598
106 0 87.2359 13.7443 1199 60.2894 1146.65 541.277
107 1 47.1643 9.88035 466 62.8948 1146.41 561.378
108 0 47.1279 10.1426 478 64.5732 1146.27 560.939
109 0 46.2322 11.3125 523 61.2256 1146.71 558.335
110 0 48.1906 10.4585 504 61.0992 1146.31 559.008
111 0 52.2177 10.7243 560 58.8411 1146.79 559.25
112 0 54.1904 11.3673 616 58.3734 1146.85 556.555
113 0 53.261 10.8898 580 59.631 1147.12 555.881
114 0 57.2135 12.2524 701 57.9558 1146.84 556.78
115 0 57.3142 11.498 659 59.2322 1146.47 555.337
116 0 60.192 12.0448 725 59.0731 1146.59 553.4
117 0 62.132 10.9605 681 59.9604 1147.13 552.539
118 0 62.263 11.6442 725 58.6566 1146.74 552.818
119 0 65.2323 11.8653 774 58.4496 1146.53 552.174
120 0 68.1545 11.8701 809 58.2546 1146.44 549.719
121 0 70.1612 11.8727 833 58.2617 1146.39 549.821
122 0 72.1619 12.7768 922 57.2646 1146.23 547.607
123 0 72.1377 12.0325 868 58.0265 1145.79 546.87
124 0 77.281 13.108 1013 56.5745 1145.68 547.561
125 0 80.201 11.8951 954 58.153 1145.18 544.503
126 0 82.1109 12.0812 992 57.9274 1145.17 543.685
127 1 46.1538 10.8333 500 57.002 1146.18 562.788
128 0 45.2193 10.5707 478 58.7573 1146.3 561.542
129 0 48.3198 11.1134 537 57.8622 1145.72 560.078
130 0 48.2182 11.0747 534 58.6292 1145.08 560.363
131 0 51.2859 11.4651 588 58.0221 1145.41 559.201
132 0 50.2471 11.1051 558 59.7061 1145.21 559.83
133 0 52.2222 11.4702 599 59.4908 1145.58 559.649
134 0 53.1957 11.3167 602 60.0814 1145.78 558.04
135 0 53.2793 11.4866 612 60.732 1145.29 557.539
136 0 55.2254 12.0959 668 60.4177 1145.38 556.219
137 0 57.3028 11.9017 682 60.5543 1145.16 555.512
138 0 59.1517 11.4113 675 60.8859 1145.22 556.363
139 0 61.3944 12.4116 762 60.5919 1144.71 554.493
140 0 64.2596 12.5584 807 59.3941 1144.58 555.226
141 0 63.1903 12.0272 760 61.2421 1144.4 552.661
142 0 67.2654 12.5027 841 60.17 1144.5 553.264
143 0 67.1549 13.0445 876 60.6084 1144.01 549.529
144 0 71.1475 13.1558 936 59.1944 1143.85 550.112
145 0 70.1257 12.7628 895 60.2626 1143.9 547.465
146 0 74.2183 13.4603 999 59.0811 1144.03 546.071
147 0 76.1506 13.1187 999 59.8539 1143.87 545.526
148 0 79.0622 13.5083 1068 59.5534 1144.32 542.633
149 0 81.1398 12.9406 1050 60.821 1144.44 543.154
150 0 84.1632 13.3788 1126 60.5533 1144.83 539.728
151 0 88.2009 13.2312 1167 60.8141 1144.51 539.177
152 0 90.0789 13.0885 1179 61.2986 1144.23 539.182
153 1 45.0467 10.3226 465 58.5828 1144.56 564.071
154 0 46.1171 9.54094 440 60.8318 1144.89 559.341
155 0 49.0304 10.7892 529 60.1947 1144.53 560.467
156 0 52.0401 11.3374 590 59.5814 1144.47 560.853
157 0 52.1799 12.1311 633 61.6319 1144.46 559.907
158 0 52.2092 12.6989 663 61.8446 1143.55 559.265
159 0 55.1325 13.1139 723 60.3831 1143.9 558.498
160 0 56.1404 12.7003 713 61.6802 1143.85 557.602
161 0 58.197 11.6501 678 62.969 1143.82 558.388
162 0 59.232 11.7842 698 62.9054 1144.13 556.138
163 0 64.1604 13.3416 856 60.3014 1143.88 554.521
164 0 63.2032 12.9107 816 61.7696 1144.51 553.232
165 0 66.1061 13.4481 889 60.8155 1144.75 553.749
166 0 67.2443 13.5774 913 61.2103 1144.63 551.184
167 0 70.0858 13.2266 927 61.452 1144.45 552.412
168 0 70.1257 13.8038 968 61.7583 1144.78 549.518
169 0 73.1772 13.2008 966 62.0031 1145.17 548.391
170 0 74.2221 13.7829 1023 61.5875 1145.43 547.905
171 0 74.2221 13.8234 1026 165.185 1146.44 547.922
172 0 78.1405 13.143 1027 62.8111 1145.7 544.23
173 0 80.1918 13.1684 1056 62.91 1145.64 543.246
174 0 84.2647 13.0541 1100 62.6873 1145.47 544.585
175 0 85.1523 14.2685 1215 62.4321 1145.47 539.402
176 0 88.1556 13.4195 1183 63.1708 1145.94 538.663
177 0 91.1649 14.7206 1342 61.8279 1145.63 537.571
178 0 93.19 14.0251 1307 62.9893 1145.63 537.582
179 0 96.1414 14.0106 1347 63.6429 1145.81 534.61
180 1 50.1964 10.8374 544 64.1268 1146.92 557.756
181 0 51.2168 10.973 562 64.8345 1146.82 557.498
182 0 53.2039 11.954 636 64.327 1147.24 556.887
183 0 56.1719 12.2125 686 63.8265 1147.2 555.036
184 0 58.2632 12.1174 706 64.4221 1146.99 555.351
185 0 58.2299 12.3476 719 65.2225 1146.84 552.542
186 0 59.3939 13.2674 788 64.2792 1147.28 551.359
187 0 62.0774 13.0966 813 64.3198 1148 551.146
188 0 64.1673 13.4181 861 64.0941 1148.33 550.832
189 0 65.3113 13.2749 867 64.4429 1148.13 550.774
190 0 67.0909 12.7737 857 65.8915 1148.13 549.106
191 0 69.2992 12.9872 900 66.67 1147.93 546.672
192 0 72.1771 13.9657 1008 64.7569 1148.52 546.67
193 0 74.2191 13.2041 980 63.6653 1148.51 545.772
194 0 75.3028 13.2399 997 62.7864 1148.5 544.163
195 0 79.2872 12.7007 1007 62.5968 1148.53 543.489
196 0 80.4958 13.6032 1095 63.0694 1148.67 541.298
197 0 81.4127 12.4551 1014 66.1874 1148.8 539.205
198 0 84.2811 13.8584 1168 64.9854 1148.91 538.604
199 0 85.2215 12.7902 1090 66.5972 1148.86 535.189
200 0 89.2797 13.4521 1201 65.4346 1149.49 535.526
201 0 91.304 13.6029 1242 64.8655 1149.27 532.97
202 0 94.3127 13.9324 1314 63.8874 1149.39 533.745
203 0 99.4466 13.5952 1352 64.1494 1149.31 532.878
204 0 99.3584 12.8726 1279 66.2557 1149.73 529.848
205 0 105.364 13.5056 1423 64.2684 1149.96 529.862
206 1 56.2373 10.349 582 65.7766 1150.06 553.313
207 0 57.3217 10.3626 594 65.3535 1150.18 551.828
208 0 60.2013 10.8802 655 64.4779 1150 552.331
209 0 61.137 12.1694 744 63.1277 1150.12 548.874
210 0 64.1335 12.8794 826 61.7361 1149.91 548.472
211 0 66.1538 12.864 851 61.0905 1149.76 547.196
212 0 66.1531 11.8815 786 62.4669 1149.62 546.132
213 0 70.193 11.8815 834 61.5468 1149.23 546.001
214 0 71.1176 12.7676 908 60.8778 1149.4 543.648
215 0 74.2279 12.502 928 61.3093 1148.47 542.976
216 0 76.3413 12.2214 933 61.6935 1148.28 542.296
217 0 77.3789 12.3936 959 61.7716 1148.18 540.477
218 0 81.2285 13.185 1071 60.4071 1147.91 540.111
219 0 83.3377 12.7313 1061 61.6004 1147.83 539.101
220 0 85.2039 12.6872 1081 61.988 1147.5 536.829
221 0 90.2711 12.972 1171 61.0085 1147.12 536.687
222 0 91.3764 12.6181 1153 61.8248 1146.9 534.795
223 0 95.3357 13.8039 1316 60.19 1146.86 533.836
224 0 97.1582 13.1847 1281 61.3005 1146.67 531.382
225 1 53.2307 10.1821 542 61.0738 1147.27 555.354
226 0 56.1543 9.91909 557 62.0934 1146.83 553.176
227 0 56.0649 10.0776 565 60.8726 1147.34 555.448
228 0 59.1062 12.5029 739 58.6414 1147.26 551.95
229 0 59.0459 11.364 671 60.2802 1146.78 550.858
230 0 60.0799 11.8009 709 59.4795 1146.47 550.891
231 0 63.1227 12.8005 808 58.1572 1146.55 550.118
232 0 64.1682 12.327 791 59.5474 1146.8 548.819
233 0 65.1726 11.8915 775 59.9445 1146.7 548.129
234 0 69.1109 12.2701 848 59.5318 1146.34 546.064
235 0 69.1014 12.4889 863 59.6037 1146.26 545.966
236 0 72.0938 12.7889 922 59.4002 1146.2 545.932
237 0 75.1363 13.2825 998 59.3036 1146.13 543.583
238 0 76.1359 12.2675 934 61.1842 1145.66 542.718
239 0 78.2025 12.8129 1002 60.6886 1145.97 541.889
240 0 82.1238 13.2483 1088 59.7665 1145.92 539.365
241 0 83.1186 12.8491 1068 61.0524 1146.07 540.058
242 0 87.1218 12.7408 1110 61.2369 1145.45 538.861
243 0 91.1866 13.8946 1267 59.8698 1144.99 537.108
244 0 93.0901 13.7501 1280 60.0969 1145.77 536.976
245 0 95.1638 13.7447 1308 61.1162 1145.86 533.523
246 0 97.2305 13.7508 1337 61.4196 1145.79 530.696
247 0 102.115 13.6415 1393 61.6109 1145.94 529.552
248 0 105.155 13.561 1426 61.73 1145.5 529.698
249 1 58.0834 11.7417 682 61.7185 1145.84 552.053
250 0 61.0875 12.4575 761 60.0854 1146.29 551.47
251 0 60.1409 12.4707 750 61.588 1146.02 550.629
252 0 62.0949 12.2554 761 62.3469 1145.62 549.853
253 0 64.1307 12.8799 826 62.0775 1145.43 548.93
254 0 66.0724 12.0171 794 62.9899 1145.63 548.49
255 0 69.1086 12.7336 880 62.6011 1145.72 547.101
256 0 70.1173 13.4774 945 61.6942 1145.67 545.561
257 0 75.1731 13.1962 992 61.503 1145.63 545.748
258 0 77.097 14.6569 1130 60.354 1145.34 545.132
259 0 78.0926 13.484 1053 62.1567 1144.93 544.58
260 0 79.0586 12.9145 1021 63.3193 1144.77 542.863
261 0 82.1401 13.5257 1111 63.1044 1145.13 541.261
262 0 83.1197 12.5241 1041 65.0365 1145.19 540.248
263 0 88.1133 14.3111 1261 62.406 1144.81 539.085
264 0 92.2515 13.9618 1288 62.4814 1144.76 538.369
265 0 95.0786 14.5774 1386 62.0707 1144.57 535.364
266 0 98.1769 14.0359 1378 63.3527 1144.4 534.438
267 0 101.216 14.0393 1421 63.5658 1144.48 532.056
268 0 103.155 13.9984 1444 64.5762 1143.88 530.735
269 1 57.0835 10.7036 611 63.6399 1145.05 555.183
270 0 58.1486 11.1095 646 64.4118 1145.59 553.937
271 0 62.0429 12.2818 762 62.1155 1145.58 552.257
272 0 62.1568 11.9536 743 62.8627 1145.51 552.596
273 0 66.0557 11.5509 763 64.3853 1145.12 550.364
274 0 68.0825 11.5742 788 63.8388 1145.03 550.528
275 0 71.1376 12.272 873 63.3562 1145.53 549.147
276 0 74.1516 12.4744 925 63.1319 1145.38 546.628
277 0 76.0451 12.5583 955 63.3634 1145.1 546.106
278 0 78.2167 12.1841 953 64.0745 1145.1 544.059
279 0 80.2831 12.2815 986 65.1308 1145.08 542.361
280 0 84.2165 13.1209 1105 63.9059 1145.94 539.599
281 0 84.1119 11.8057 993 66.1712 1145.88 538.95
282 0 89.0945 13.8729 1236 63.2476 1145.97 536.706
283 0 93.1738 12.4391 1159 65.2157 1146.08 535.438
284 0 94.2314 12.3101 1160 66.6922 1146.12 533.392
285 0 100.105 12.8565 1287 64.3675 1145.81 533.643
286 0 102.184 13.3778 1367 64.2026 1146.21 529.83
287 1 55.0987 10.9077 601 63.1398 1146.91 554.987
288 0 55.1219 9.83276 542 64.4871 1146.66 554.758
289 0 58.0999 11.7212 681 62.9633 1147.1 551.728
290 0 58.1009 11.721 681 63.1615 1147.14 551.833
291 0 61.1955 11.4714 702 62.6795 1147.35 549.915
292 0 65.1176 11.5176 750 62.012 1147.87 549.031
293 0 64.1145 11.5574 741 62.3279 1147.74 549.186
294 0 68.0999 11.6006 790 62.0532 1147.84 546.187
295 0 71.1187 12.205 868 61.0265 1148.14 545.5
296 0 72.1028 12.2187 881 61.4393 1148 544.326
297 0 74.1475 12.0031 890 61.8157 1148.25 542.316
298 0 78.0455 12.0186 938 61.5896 1148.5 542.518
299 0 78.1145 11.2783 881 63.5312 1148.36 540.183
300 0 82.1192 12.9081 1060 61.2132 1148.38 537.84
301 0 84.1524 12.7388 1072 61.4506 1148.48 537.167
302 0 87.1637 12.4823 1088 61.7132 1148.12 536.931
303 0 89.1442 13.0238 1161 60.95 1149.01 535.261
304 0 89.2623 12.0992 1080 62.7759 1148.81 533.103
305 0 93.1271 12.7782 1190 61.758 1148.72 532.153
306 1 49.0921 9.02385 443 61.9752 1148.88 554.178
307 0 51.1713 10.2597 525 60.8495 1149.15 551.905
308 0 52.1185 9.40164 490 62.5347 1149.61 552.043
309 0 54.1052 10.3132 558 61.491 1149.07 550.713
310 0 56.1292 11.0638 621 59.1948 1148.77 552.502
311 0 58.0397 11.9056 691 59.4067 1148.88 547.873
312 0 60.165 11.3355 682 59.3607 1149.38 548.314
313 0 62.2523 10.843 675 60.0074 1149.77 549.047
314 0 63.0934 12.3785 781 58.8656 1149.62 546.886
315 0 66.1219 12.5072 827 58.7509 1149.23 545.674
316 0 66.1696 12.2262 809 59.8937 1149.32 544.159
317 0 69.2599 11.7817 816 60.4975 1149.43 544.384
318 0 69.0963 11.5202 796 62.2048 1149.44 542.467
319 0 73.0937 12.0941 884 61.6109 1149.76 542.225
320 0 76.1708 12.7083 968 61.4597 1149.26 540.799
321 0 78.0851 13.639 1065 60.4967 1149.35 539.346
322 0 80.073 13.0631 1046 62.2314 1149.04 538.171
323 0 84.1272 13.3013 1119 61.7408 1148.98 537.777
324 0 84.1757 12.2838 1034 64.0735 1149.25 536.172
325 0 87.0425 12.5915 1096 64.1104 1148.78 535.783
326 0 91.1198 13.2463 1207 63.5377 1149.22 533.901
327 0 92.1914 13.4611 1241 63.3674 1149.35 531.74
328 0 94.0727 13.0325 1226 64.8083 1149.39 531.626
329 0 97.1652 12.8235 1246 65.4751 1149.36 528.287
330 0 101.128 13.4186 1357 64.4009 1148.83 527.653
331 0 104.09 13.2289 1377 64.8003 1148.55 525.903
332 0 106.234 13.8374 1470 64.4286 1147.9 524.84
333 0 110.258 13.3143 1468 65.235 1147.85 522.857
334 0 111.175 13.5103 1502 65.5965 1147.87 521.052
335 0 116.118 13.5896 1578 65.0837 1147.68 520.946
336 0 118.241 13.058 1544 65.9054 1147.58 519.755
337 0 122.125 13.2569 1619 65.3984 1147.78 518.831
338 1 65.0901 11.63 757 63.2338 1147.48 546.863
339 0 68.0756 12.8093 872 61.219 1147.44 546.038
340 0 71.1292 12.3297 877 62.0205 1147.23 544.928
341 0 73.0666 12.6323 923 63.1018 1147.11 544.518
342 0 74.1435 12.5432 930 63.3882 1146.25 544.126
343 0 77.1797 13.2159 1020 62.7676 1145.99 543.696
344 0 80.2804 12.7802 1026 63.2066 1146.25 541.886
345 0 82.2104 13.4289 1104 63.1033 1145.22 541.723
346 0 85.2077 12.5693 1071 63.5005 1145.13 539.795
347 0 87.1598 12.1272 1057 64.1277 1145.5 538.377
348 0 91.164 12.8889 1175 63.2885 1144.98 537.9
349 0 94.4251 13.1427 1241 63.0467 1144.29 535.309
350 0 95.2422 12.673 1207 63.7017 1144.37 535.506
351 0 99.3327 13.5806 1349 62.5574 1143.15 532.888
352 1 53.224 10.2773 547 63.1718 1144.26 556.031
353 0 57.257 11.4222 654 61.6453 1143.47 555.489
354 0 59.2115 12.6834 751 60.502 1143.13 554.547
355 0 59.2232 11.8704 703 61.9531 1143.96 554.048
356 0 62.1639 11.9523 743 61.4455 1143.18 554.346
357 0 66.1618 12.5752 832 60.5998 1143.64 551.26
358 0 68.1838 12.305 839 61.3516 1143.56 552.215
359 0 68.2322 11.5781 790 62.9899 1143.72 548.584
360 0 73.2171 12.8112 938 60.097 1143.7 549.769
361 0 72.217 12.8779 930 61.8333 1144.22 546.811
362 0 76.1372 13.0817 996 61.7199 1144.8 546.453
363 0 77.2243 12.9493 1000 61.988 1145.12 545.543
364 0 80.1919 12.52 1004 62.4442 1145.34 543.511
365 0 81.1261 12.7826 1037 62.9971 1145.3 541.203
366 0 85.3406 13.0419 1113 62.407 1145.71 540.813
367 0 87.3012 12.875 1124 62.6192 1145.08 539.254
368 0 91.3391 13.1816 1204 62.0889 1145.4 537.588
369 0 94.3499 13.3227 1257 61.8934 1145.39 535.191
370 0 99.3857 13.2917 1321 61.3944 1146 535.368
371 1 53.2372 10.1809 542 62.2085 1146.37 556.821
372 0 55.2031 11.1407 615 61.2748 1147.04 555.657
373 0 56.2251 11.5607 650 60.5631 1146.73 554.974
374 0 59.2617 12.6895 752 59.6516 1146.79 553.282
375 0 60.2848 12.0428 726 61.2658 1146.8 552.343
376 0 62.2714 12.6703 789 59.4043 1146.75 551.762
377 0 64.3419 11.7342 755 60.1656 1147.28 551.048
378 0 64.2231 12.0206 772 60.4663 1147.55 548.43
379 0 66.212 12.5657 832 59.8702 1147.33 549.208
380 0 69.1826 13.2259 915 58.9279 1147.98 548.49
381 0 72.2354 13.6775 988 58.7085 1148.42 545.954
382 0 72.1798 12.6628 914 60.4223 1148.27 547.282
383 0 76.3176 13.1162 1001 59.7103 1148.51 543.772
384 0 78.3276 13.6989 1073 59.3784 1148.6 543.235
385 0 81.2426 13.5274 1099 60.0455 1148.66 541.684
386 0 82.2964 13.2205 1088 60.6498 1149.18 540.712
387 0 86.2737 13.6079 1174 60.6882 1149.16 538.202
388 0 89.3326 13.7352 1227 61.088 1149.27 536.121
389 0 91.274 13.3992 1223 61.9877 1148.94 535.784
390 0 92.206 13.7627 1269 62.3333 1149.65 533.63
391 1 51.2508 11.4145 585 62.2786 1149.61 555.904
392 0 53.27 11.0193 587 62.3526 1150.02 556.656
393 0 55.2957 12.0082 664 62.5527 1150.66 553.961
394 0 56.1415 11.6135 652 62.9969 1150.14 555.202
395 0 58.1297 12.8162 745 61.6309 1150.74 552.34
396 0 57.2541 12.2961 704 62.3281 1150.32 551.378
397 0 58.1081 12.8726 748 61.3021 1150.91 551.171
398 0 60.2029 13.6372 821 60.6468 1151.11 549.674
399 0 61.1621 12.5077 765 62.3242 1151.43 549.524
400 0 63.2405 13.678 865 60.9272 1151.2 547.746
401 0 66.1781 13.781 912 60.6404 1151.04 546.235
402 0 68.2036 13.3864 913 61.7722 1151.07 545.623
403 0 70.3264 13.6506 960 61.3115 1151.47 544.382
404 0 70.2003 13.4187 942 62.3344 1151.1 542.605
405 0 74.2048 12.762 947 62.8353 1150.86 542.403
406 0 76.237 13.7728 1050 61.6667 1151.1 539.87
407 0 76.3382 12.4053 947 64.057 1150.4 540.464
408 0 82.1866 13.1287 1079 62.3957 1150.45 539.348
409 0 85.3009 13.7044 1169 61.4363 1150.45 537.849
410 0 85.1224 13.3572 1137 62.3034 1150.09 536.084
411 0 88.1125 14.2432 1255 61.102 1150.26 535.137
412 0 89.2318 13.0223 1162 62.5904 1150.96 533.056
413 0 92.1179 13.1353 1210 62.1934 1150.13 532.564
414 0 96.1363 14.1258 1358 60.7916 1149.92 530.114
415 0 99.1808 13.9644 1385 61.3755 1150.3 528.417
416 0 102.117 13.2789 1356 61.5332 1149.96 527.726
417 0 106.116 14.7104 1561 59.5887 1149.65 526.377
418 1 61.0853 11.132 680 59.7838 1150.14 549.991
419 0 62.0879 10.8556 674 59.6988 1149.24 549.754
420 0 63.1118 12.1847 769 59.0104 1148.85 547.551
421 0 63.1665 11.6517 736 59.7283 1148.85 547.26
422 0 70.1421 13.0592 916 57.1616 1148.89 545.964
423 0 69.1388 11.6866 808 59.0631 1148.27 545.692
424 0 71.1429 12.9177 919 58.2144 1148.71 542.334
425 0 74.1094 12.8998 956 57.8933 1148.9 541.326
426 0 77.1863 11.5824 894 58.7852 1148.78 542.695
427 0 81.0662 12.3233 999 57.6066 1148.35 541.864
428 0 84.0829 13.3202 1120 57.1491 1148.33 536.904
429 0 86.1039 13.4373 1157 57.1348 1147.92 535.661
430 0 88.1644 13.0211 1148 57.2003 1147.67 535.939
431 0 92.2301 13.2712 1224 57.1871 1147.74 533.793
432 0 96.1803 13.4539 1294 56.3694 1146.43 532.624
433 0 97.2252 12.579 1223 57.1693 1147.1 531.96
434 0 101.194 12.6588 1281 56.4832 1147.18 531.546
435 0 104.173 12.2872 1280 56.7312 1147.36 527.705
436 1 58.1125 11.3057 657 55.5693 1147.14 551.551
437 0 59.1902 11.6404 689 54.6662 1147.55 551.599
438 0 63.3265 12.5382 794 53.5 1147.51 547.557
439 0 64.0794 12.2504 785 53.7745 1146.9 549.397
440 0 66.2988 11.5387 765 54.4471 1146.77 549.149
441 0 68.0774 11.6926 796 54.4623 1147.08 546.977
442 0 72.1909 12.3977 895 52.8704 1147.02 545.597
443 0 74.1223 12.4389 922 53.09 1147.01 545.144
444 0 76.2896 12.5443 957 53.4295 1147.15 542.687
445 0 81.0891 13.664 1108 52.3529 1147.28 543.912
446 0 83.3903 12.6753 1057 53.8023 1147.04 542.068
447 0 86.3294 13.8192 1193 52.8089 1147.08 539.821
448 0 90.491 13.272 1201 53.7435 1147.5 540.395
449 0 91.4333 13.0259 1191 54.7935 1147.12 537.872
450 0 96.4722 12.6876 1224 55.1593 1146.69 536.442
451 0 99.8354 12.751 1273 54.7636 1146.72 534.497
452 1 54.4226 10.8227 589 54.562 1146.44 556.672
453 0 56.4128 10.9018 615 55.0309 1146.3 555.67
454 0 55.2712 11.3803 629 55.1431 1147 555.008
455 0 58.166 11.9142 693 54.6595 1146.65 553.326
456 0 60.1906 12.5435 755 53.7351 1146.32 552.258
457 0 66.4695 12.5471 834 52.6499 1147.23 550.875
458 0 67.2736 12.8877 867 53.0727 1146.29 551.438
459 0 68.1901 12.9051 880 53.5489 1146.41 548.719
460 0 70.4004 13.267 934 52.712 1146.32 547.85
461 0 74.442 12.2914 915 53.6667 1145.72 548.119
462 0 76.3313 12.7995 977 53.7042 1145.89 545.553
463 0 77.2618 13.7067 1059 53.458 1146.67 544.937
464 0 77.2618 13.7067 1059 155.366 1146.65 545.008
465 0 81.2982 12.6325 1027 56.0925 1146.3 542.478
466 0 86.3786 13.4293 1160 55.1466 1146.37 540.397
467 0 88.4165 13.0745 1156 55.9464 1146.35 538.207
468 0 91.3296 13.1502 1201 56.2681 1146.14 539.825
469 0 95.37 13.7884 1315 55.6624 1146.04 537.497
470 1 48.2014 10.3939 501 57.6347 1146.36 561.319
471 0 48.1681 11.0239 531 58.0847 1146.4 558.844
472 0 53.2035 10.5256 560 58.5821 1146.24 557.945
473 0 53.1698 11.6043 617 57.5105 1145.7 558.173
474 0 55.1681 11.8547 654 57.4541 1146.23 557.673
475 0 55.2135 11.3197 625 56.9376 1145.98 555.168
476 0 57.2835 12.4992 716 55.6327 1146.66 557.176
477 0 58.3954 11.5249 673 57.1605 1146.8 554.85
478 0 61.4162 11.7721 723 56.509 1146.62 556.12
479 0 62.568 12.1628 761 56.4008 1146.84 554.744
480 0 64.2234 12.0205 772 56.7008 1146.62 554.095
481 0 67.175 14.5292 976 54.0605 1146.74 552.417
482 0 68.3659 11.9504 817 56.8984 1146.6 551.865
483 0 68.2201 11.8147 806 57.6067 1146.55 550.978
484 0 73.491 13.403 985 54.8731 1146.95 549.17
485 0 74.3995 12.8227 954 55.6646 1146.89 548.289
486 0 77.248 12.9453 1000 55.335 1146.94 548.01
487 0 77.2281 12.8321 991 56.2038 1146.57 546.641
488 0 81.3171 12.9001 1049 55.796 1147.41 543.989
489 0 85.2799 13.7313 1171 54.1759 1147.45 542.915
490 0 87.3889 13.4342 1174 54.7981 1146.94 543.207
491 0 88.3423 13.5722 1199 55.1193 1146.97 538.932
492 0 92.2912 12.5906 1162 56.0809 1147.31 538.442
493 1 52.269 11.1347 582 56.7423 1147.51 557.751
494 0 53.2866 10.8658 579 56.2953 1147.79 558.121
495 0 53.2141 10.7302 571 57.1664 1147.92 556.429
496 0 55.3243 12.4358 688 54.8328 1147.88 555.599
497 0 58.091 12.5148 727 54.4333 1147.94 554.417
498 0 57.2219 12.1807 697 55.5065 1147.92 552.978
499 0 60.1841 12.4119 747 55.3467 1147.94 551.363
500 0 62.2368 13.3844 833 54.102 1148.35 551.079
501 0 63.2208 12.7648 807 54.8278 1147.92 548.884
502 0 66.1237 13.5201 894 53.4832 1148 549.871
503 0 68.2606 13.9026 949 53.2824 1148.46 548.626
504 0 71.0968 13.6574 971 53.3934 1148.37 547.904
505 0 70.2955 12.6182 887 55.6065 1147.84 546.49
506 0 74.3894 13.8326 1029 54.447 1148.46 544.359
507 0 78.1896 13.1859 1031 55.322 1148.66 544.097
508 0 76.2285 13.1316 1001 56.3956 1148.01 542.889
509 0 76.2285 13.1578 1003 171.114 1147.01 542.898
510 0 82.1454 14.4256 1185 55.7274 1148.13 540.396
511 0 85.1587 14.3027 1218 56.1519 1147.83 538.855
512 0 85.2981 14.0214 1196 57.4523 1147.96 539.193
513 0 90.1644 14.2739 1287 57.2448 1148.18 537.869
514 0 93.1179 14.4441 1345 57.3918 1147.98 536.209
515 0 98.0969 14.8119 1453 57.1012 1147.68 535.756
516 0 100.13 14.9405 1496 57.6457 1147.96 532.303
517 0 104.166 15.1681 1580 56.3994 1147.57 531.332
518 0 107.143 15.2973 1639 56.4143 1147.64 529.61
519 1 58.0959 12.531 728 57.6415 1148.36 554.063
520 0 59.0505 12.9889 767 57.5319 1148.35 553.621
521 0 60.0855 12.1161 728 58.4684 1148.55 554.269
522 0 62.1621 13.497 839 57.5924 1148.95 549.908
523 0 64.1053 13.7742 883 57.607 1148.82 548.459
524 0 67.2271 13.8337 930 57.2968 1148.27 549.297
525 0 69.0816 13.0136 899 58.6707 1148.42 547.91
526 0 70.1619 13.2836 932 59.0204 1148.92 546.29
527 0 75.2372 13.69 1030 57.866 1148.61 545.973
528 0 77.239 14.6688 1133 57.1421 1148.77 544.512
529 0 79.0948 13.3511 1056 59.1705 1148.91 543.903
530 0 82.1162 14.1628 1163 58.0112 1148.78 541.749
531 0 84.1707 14.5656 1226 58.2447 1148.49 538.705
532 0 87.2237 14.5832 1272 58.0165 1148.67 538.094
533 0 92.3962 14.308 1322 57.7617 1148.91 537.25
534 0 95.3128 13.8282 1318 57.8323 1148.58 537.291
535 0 96.3012 14.4546 1392 57.9217 1148.77 533.231
536 0 99.4198 14.484 1440 57.8889 1148.96 532.731
537 0 103.413 14.0601 1454 57.9402 1149.2 530.268
538 1 56.5052 12.459 704 57.4034 1149.13 553.443
539 0 60.3198 12.2182 737 57.19 1149.29 552.796
540 0 59.3432 12.4024 736 58.3492 1148.83 550.333
541 0 64.5092 14.6026 942 55.0117 1148.96 549.824
542 0 64.3532 13.457 866 56.3557 1149.14 550.408
543 0 65.3838 12.6943 830 57.3458 1148.58 547.611
544 0 68.4436 13.018 891 56.4097 1148.44 545.558
545 0 72.4699 13.0399 945 55.7757 1148.34 546.161
546 0 77.4411 13.21 1023 55.3343 1148.34 544.945
547 0 78.4479 12.8875 1011 55.5678 1147.85 543.083
548 0 80.5573 12.7363 1026 55.8801 1148.37 541.77
549 0 82.4059 12.669 1044 56.4301 1148.24 539.993
550 0 86.4664 12.7217 1100 56.3409 1148.15 538.984
551 0 87.6298 12.2903 1077 57.1773 1148.62 537.051
552 0 90.4388 13.2576 1199 56.3661 1148.63 535.729
553 0 93.2648 13.1775 1229 56.1766 1148.34 538.52
554 0 97.3823 13.1749 1283 56.4716 1148.69 535.668
555 1 54.2496 10.7282 582 57.988 1148.45 555.466
556 0 57.3675 11.714 672 56.9851 1148.4 552.903
557 0 59.2346 12.6278 748 55.9759 1148.18 554.155
558 0 59.1641 13.1837 780 56 1148.4 552.463
559 0 62.2456 13.4307 836 56.1208 1148.74 550.514
560 0 63.2743 12.4063 785 57.3962 1148.23 549.921
561 0 65.4403 13.2029 864 57.1667 1148.12 549.103
562 0 68.3401 12.4817 853 57.5557 1148.44 547.043
563 0 69.3683 13.7239 952 57.0389 1147.81 546.879
564 0 72.3042 13.4709 974 58.0893 1147.59 545.925
565 0 74.2623 14.0044 1040 58.1183 1147.61 544.731
566 0 77.3083 14.4357 1116 57.3701 1147.12 545.983
567 0 78.3586 13.6935 1073 59.4445 1147.82 542.185
568 0 79.2591 13.8659 1099 60.061 1147.79 543.017
569 0 83.3184 13.4664 1122 60.5178 1147.48 540.903
570 0 84.3155 14.6829 1238 60.0307 1147.25 539.157
571 0 87.3801 14.4541 1263 60.5527 1147.2 539.933
572 0 90.3035 14.3405 1295 60.9228 1147.25 537.158
573 0 92.4821 14.2622 1319 61.5049 1147.47 536.599
574 0 93.4141 13.5312 1264 62.712 1146.54 535.565
575 0 100.325 14.3135 1436 61.2855 1146.74 535.126
576 0 100.261 14.0034 1404 63.1802 1146.64 533.086
577 0 104.213 14.4704 1508 61.8893 1146.42 532.334
578 0 107.557 14.7085 1582 62.4324 1146.54 528.936
579 0 110.173 14.1233 1556 62.7918 1146.36 526.738
580 0 115.101 14.9955 1726 61.3534 1145.95 524.619
581 0 117.274 14.2657 1673 62.5864 1146.11 522.458
582 0 122.317 13.5059 1652 62.6404 1145.91 521.182
583 0 126.287 14.57 1840 60.956 1145.47 517.264
584 1 70.115 12.3083 863 59.5226 1145.46 548.161
585 0 71.1695 12.3929 882 59.6769 1145.59 545.706
586 0 73.1123 11.8038 863 60.3395 1145.58 544.8
587 0 76.12 12.4146 945 59.6392 1145.45 544.941
588 0 79.1637 12.5436 993 59.8097 1145.24 543.872
589 0 82.2614 12.2779 1010 59.8921 1145.21 542.717
590 0 82.3626 12.5057 1030 60.0524 1144.92 541.198
591 0 86.2928 12.6778 1094 59.7093 1145.02 538.878
592 0 89.2472 13.3674 1193 58.4376 1145.67 539.389
593 0 91.2003 12.8728 1174 59.5656 1145.03 536.935
594 0 94.1986 13.8643 1306 57.9885 1145.22 537.332
595 0 99.2266 13.6657 1356 57.1652 1144.93 536.196
596 0 102.217 13.3931 1369 57.1578 1144.77 533.5
597 0 104.219 12.9439 1349 57.8013 1144.98 531.578
598 0 108.245 14.6704 1588 55.8766 1144.99 531.759
599 0 111.343 13.858 1543 57.2333 1144.87 530.159
600 0 115.296 14.1636 1633 57.2529 1144.66 525.818
601 0 119.222 13.3196 1588 56.8596 1143.91 525.895
602 0 121.257 13.327 1616 57.6126 1144.21 522.178
603 0 127.186 13.1619 1674 57.5938 1144.05 517.827
604 0 133.218 13.7744 1835 55.9787 1144.02 516.283
605 0 137.226 13.2628 1820 55.972 1144.05 517.559
606 1 79.1816 9.97707 790 54.2608 1144.46 544.519
607 0 83.118 10.6235 883 54.7939 1144.57 543.529
608 0 85.1312 11.3824 969 55.8576 1145.09 543.07
609 0 89.1315 12.3525 1101 55.6857 1145.42 540.023
610 0 89.2215 11.5107 1027 56.778 1145.74 539.004
611 0 95.1566 12.7474 1213 55.1385 1144.85 539.689
612 0 98.1341 12.1161 1189 56.159 1144.86 534.533
613 0 100.276 11.8374 1187 56.8644 1145.16 533.407
614 0 103.28 11.6964 1208 57.3634 1144.94 531.791
615 0 103.466 10.8344 1121 58.9884 1144.83 527.35
616 0 109.214 12.2512 1338 57.4148 1144.6 530.435
617 0 113.243 11.5416 1307 57.6656 1145.02 528.172
618 1 59.1132 9.50718 562 53.621 1145.24 558.806
619 0 60.2495 11.9503 720 52.1514 1145.36 555.115
620 0 60.148 11.2389 676 53.1346 1144.98 553.466
621 0 63.2009 10.6486 673 54.0832 1144.84 553.364
622 0 65.1358 10.7314 699 54.1745 1144.72 552.12
623 0 64.223 10.8528 697 54.4562 1144.72 550.3
624 0 68.1477 11.1816 762 54.0551 1144.67 549.934
625 0 69.1354 10.8917 753 54.2284 1145.15 549.42
626 0 73.1345 12.0873 884 52.379 1145 549.839
627 0 74.0847 12.0943 896 53.3873 1145.53 546.512
628 0 75.1041 11.1712 839 54.6055 1145.17 546.26
629 0 79.3973 11.8014 937 54.4386 1145.76 547.401
630 0 80.1682 11.9125 955 54.5906 1145.81 545.439
631 0 83.2076 11.1528 928 55.1595 1145.69 542.779
632 0 85.334 12.4335 1061 54.1989 1145.64 544.25
633 0 88.4236 12.9264 1143 53.4357 1145.73 541.888
634 0 90.619 12.4919 1132 53.9788 1145.85 539.548
635 1 49.1966 10.4682 515 53.9301 1146.36 561.173
636 0 52.1801 11.0579 577 52.6222 1146.51 560.118
637 0 53.2998 11.3134 603 52.1808 1146.54 558.444
638 0 55.15 11.0064 607 52.6573 1146.76 557.138
639 0 56.1314 11.2593 632 51.932 1147 556.035
640 0 54.1679 10.929 592 53.7534 1146.37 554.584
641 0 60.1534 11.3876 685 52.2599 1146.75 553.958
642 0 60.1754 11.5163 693 52.811 1146.29 551.814
643 0 63.1719 12.9646 819 51.105 1146.88 552.858
644 0 63.1074 11.6627 736 52.8655 1146.66 551.988
645 0 65.154 12.6623 825 52.0836 1146.87 550.924
646 0 66.1432 10.9611 725 54.0717 1147.24 550.934
647 0 69.2498 13.2275 916 52.1201 1147.52 547.43
648 0 70.1105 12.6087 884 53.0735 1147.9 546.521
649 0 71.1356 11.5976 825 54.2448 1147.96 546.581
650 0 74.2347 12.703 943 52.9692 1147.91 543.889
651 0 76.1399 12.6346 962 52.868 1147.77 543.344
652 0 76.1399 12.7528 971 135.862 1146.77 543.258
653 0 80.1537 11.977 960 53.0417 1147.32 541.6
654 0 82.0901 13.6435 1120 51.9973 1147.22 540.965
655 0 87.2623 13.3964 1169 52.2147 1147.37 537.925
656 0 89.1785 12.7273 1135 52.7982 1147.55 537.506
657 0 89.2044 12.6675 1130 53.0186 1147.54 536.773
658 1 50.0846 10.5222 527 52.5958 1147.31 557.038
659 0 51.0187 11.6036 592 52.201 1147.24 553.703
660 0 52.062 11.0061 573 52.3944 1147.65 553.48
661 0 55.1216 12.1368 669 51.2422 1147.95 553.453
662 0 56.0437 12.7758 716 51.5656 1149.17 551.408
663 0 58.0711 12.6397 734 51.7084 1148.98 550.252
664 0 60.0469 12.5235 752 51.4561 1148.67 551.406
665 0 62.0492 11.2491 698 52.6232 1149.12 549.02
666 0 64.084 12.0935 775 52.1045 1149.46 549.366
667 0 65.0967 12.2894 800 52.4912 1149.11 546.931
668 0 67.1032 12.6521 849 51.7173 1149.05 546.683
669 0 68.1848 11.7915 804 52.6729 1149.18 545.17
670 0 71.0777 12.7325 905 51.4928 1148.93 542.74
671 0 72.2344 12.321 890 52.1191 1149.27 542.021
672 0 77.3027 12.4446 962 51.6091 1149.13 540.428
673 0 79.2623 13.4238 1064 50.7434 1149.19 538.72
674 1 44.2122 10.6079 469 52.1087 1149.97 558.083
675 0 44.1618 10.5295 465 52.1204 1150.37 558.163
676 0 45.1387 10.9441 494 52.3603 1150.15 555.757
677 0 50.1497 11.6053 582 51.5447 1150.21 555.639
678 0 51.1477 11.6525 596 51.3221 1150.24 554.854
679 0 51.0681 11.8469 605 52.0033 1151.4 553.545
680 0 52.0303 11.3395 590 52.8339 1151.05 551.341
681 0 52.0187 11.3421 590 52.9864 1151.05 551.856
682 0 54.024 11.9021 643 52.8165 1151.34 549.911
683 0 58.089 12.894 749 51.5367 1151.13 549.737
684 0 57.0605 11.6543 665 53.6045 1151.34 549.137
685 0 60.0124 12.5141 751 52.5286 1150.85 548.606
686 0 60.0699 12.6353 759 52.9578 1150.64 547.638
687 0 64.1903 13.4132 861 51.8293 1150.51 544.362
688 0 66.0288 13.1458 868 51.5634 1150.75 546.289
689 0 68.0622 13.0616 889 52.1654 1150.48 544.723
690 0 70.0188 12.4395 871 52.7681 1150.3 544.835
691 0 73.0733 13.4249 981 51.8349 1150.57 542.995
692 0 75.1614 13.2515 996 52.505 1150.55 540.502
693 0 76.1422 13.1596 1002 53.2196 1150.32 539.877
694 0 78.1717 12.5749 983 54.1027 1149.57 539.702
695 0 82.3068 14.2759 1175 52.2774 1149.65 537.483
696 0 84.1817 13.7322 1156 52.724 1150.66 534.405
697 0 84.1817 13.7322 1156 147.035 1150.66 534.405
698 0 88.1326 12.3791 1091 54.6691 1149.61 531.034
699 1 45.0695 10.739 484 53.8409 1150.15 553.12
700 0 47.0213 10.6973 503 53.7256 1149.27 552.163
701 0 47.0792 12.3621 582 52.0842 1149.44 553.567
702 0 49.3025 13.2448 653 51.34 1148.14 551.732
703 0 51.2691 11.1178 570 53.8912 1148.21 551.891
704 0 50.2347 11.5458 580 54.9155 1148.28 550.053
705 0 53.1817 12.7487 678 53.1637 1147.79 550.195
706 0 54.1602 11.706 634 54.9322 1147.56 549.009
707 0 57.0619 12.3199 703 54.2703 1146.96 551.684
708 0 60.3155 12.9817 783 53.9617 1147.68 550.304
709 0 60.1742 12.3309 742 55.3585 1147.94 549.561
710 0 62.0805 12.3549 767 54.987 1147.27 551.763
711 0 64.1394 12.1766 781 55.6543 1147.39 548.577
712 0 65.1795 12.8721 839 55.4195 1147.79 547.987
713 0 67.2746 12.6942 854 55.452 1147.43 548.498
714 0 70.1758 13.1242 921 54.6754 1147.45 548.636
715 0 71.1363 13.5374 963 54.1506 1147.44 547.187
716 0 74.1757 13.495 1001 54.5435 1147.83 545.242
717 0 75.2147 12.7768 961 55.846 1147.2 543.648
718 0 76.2112 12.6622 965 55.9731 1146.89 544.079
719 0 79.1547 13.1641 1042 55.4971 1146.95 542.328
720 0 82.1358 13.7334 1128 54.5461 1146.96 540.268
721 0 84.3081 12.7864 1078 55.8479 1146.74 541.13
722 0 87.1931 13.8543 1208 54.3825 1146.09 540.178
723 0 91.2736 13.3335 1217 55.0986 1145.75 536.841
724 0 94.1469 13.5002 1271 54.5657 1146.58 535.81
725 1 51.1223 9.97607 510 55.351 1146.93 558.19
726 0 50.272 11.577 582 53.9656 1146.21 556.333
727 0 53.1492 10.7433 571 53.5552 1146.22 555.72
728 0 54.2044 11.2168 608 54.1118 1146.45 555.317
729 0 56.1713 12.0168 675 53.1911 1147.09 553.581
730 0 57.0384 12.6406 721 52.1595 1146.52 555.424
731 0 58.0768 13.5682 788 51.6459 1146.19 553.722
732 0 58.1737 12.7893 744 52.7527 1146.73 551.181
733 0 63.0916 12.8543 811 51.7078 1146.59 552.081
734 0 64.1082 13.2432 849 51.8598 1146.75 551.503
735 0 66.3555 12.9454 859 52.1292 1146.11 550.71
736 0 68.3154 12.779 873 53.1638 1145.79 548.756
737 0 69.2471 13.2424 917 53.1167 1145.76 547.045
738 0 70.2865 12.8901 906 53.4459 1145.83 547.883
739 0 76.1972 13.675 1042 52.1852 1145.37 545.335
740 0 76.2644 13.1647 1004 53.4502 1145.46 544.931
741 0 80.3143 12.9367 1039 53.5342 1145.16 543.025
742 0 82.3524 12.3858 1020 53.8451 1144.6 542.759
743 0 85.2043 13.0627 1113 53.504 1145.03 539.555
744 1 49.1178 10.6275 522 52.6782 1144.56 561.398
745 0 49.084 10.8793 534 52.4569 1144.45 560.118
746 0 50.1716 12.5968 632 50.9082 1144.61 558.472
747 0 52.0395 11.7219 610 52.3459 1144.33 556.779
748 0 54.0441 12.3048 665 50.9158 1144.14 557.805
749 0 54.0624 12.5041 676 51.7899 1144.53 556.544
750 0 57.1283 11.833 676 51.895 1144.08 555.277
751 0 59.1194 11.9419 706 52.2705 1144 554.721
752 0 59.1235 12.753 754 52.2851 1143.99 552.956
753 0 62.0469 12.5873 781 52.4699 1143.61 552.972
754 0 63.1195 13.3239 841 52.2342 1143.87 552.683
755 0 65.1798 12.6113 822 52.9404 1144 553.282
756 0 67.0644 13.3603 896 52.4933 1144.15 551.106
757 0 68.0641 12.7527 868 53.5922 1144.04 550.763
758 0 71.2776 13.2721 946 53.0201 1144.31 549.586
759 0 71.1124 13.6826 973 53.0411 1144.02 549.334
760 0 74.3044 12.866 956 54.2343 1143.88 547.668
761 0 76.289 13.0425 995 54.2613 1143.71 547.019
762 0 78.2393 13.088 1024 54.749 1143.48 544.697
763 0 81.1975 12.6728 1029 55.5986 1143.54 545.253
764 0 84.3546 12.4237 1048 55.8626 1143.68 543.839
765 1 47.1929 10.4465 493 55.8722 1143.58 561.98
766 0 46.27 10.2875 476 56.7395 1143.16 561.225
767 0 49.2501 10.7614 530 55.9755 1143.47 560.908
768 0 52.1899 11.7264 612 54.884 1143.58 561.209
769 0 52.5359 12.125 637 54.2904 1143.05 559.071
770 0 56.1409 12.7002 713 53.5849 1143.08 556.073
771 0 55.2372 12.8899 712 54.3076 1142.78 556.968
772 0 58.2132 13.107 763 54.0498 1143.26 557.986
773 0 59.2035 12.7695 756 54.9167 1143.26 555.804
774 0 62.231 12.9839 808 54.0087 1142.63 556.166
775 0 65.2298 14.1193 921 52.8534 1142.75 555.325
776 0 66.1835 14.3842 952 53.1376 1143.17 553.545
777 0 68.3319 13.2881 908 54.5914 1142.98 552.892
778 0 70.3589 13.9997 985 53.8975 1143.23 550.613
779 0 72.1706 13.2603 957 54.8401 1143.33 548.769
780 0 75.2134 13.9736 1051 53.9914 1143.37 549.052
781 0 77.3371 13.7709 1065 54.4695 1143.54 548.57
782 0 77.3371 13.7321 1062 171.903 1143.55 548.579
783 0 83.3308 13.9804 1165 54.3579 1144.34 546.19
784 0 83.3308 14.0164 1168 169.414 1145.34 546.209
785 0 87.4014 14.6108 1277 54.5693 1144.54 541.634
786 1 49.1183 11.7064 575 55.4678 1144.77 561.45
787 0 47.2316 10.3532 489 56.9141 1144.84 561.417
788 0 51.074 11.8651 606 55.8861 1144.65 558.244
789 0 52.1308 12.3344 643 54.7092 1144.79 558.473
790 0 52.1308 12.3727 645 160.817 1144.8 558.419
791 0 56.0876 11.9813 672 55.9777 1145.16 556.522
792 0 56.0956 13.1383 737 55.5658 1144.78 556.758
793 0 58.1264 12.7481 741 56.7112 1145.18 554.047
794 0 62.2216 12.7126 791 55.8925 1145.37 553.455
795 0 60.0409 13.3076 799 55.1765 1145.18 552.912
796 0 64.052 13.3017 852 54.6608 1145.45 552.785
797 0 66.1255 13.6105 900 54.5989 1145.28 551.624
798 0 66.1648 14.1918 939 54.5059 1145.8 550.234
799 0 68.0889 13.6586 930 55.2312 1145.92 550.545
800 0 71.071 14.0282 997 54.9097 1145.96 549.179
801 0 73.0697 13.1929 964 55.8755 1145.96 546.539
802 0 76.1559 13.7744 1049 54.8646 1146.31 545.928
803 0 76.1318 13.8181 1052 55.9087 1146.38 545.985
804 0 80.2021 13.5907 1090 56.0101 1146.02 542.368
805 0 83.0963 14.7179 1223 54.4612 1146 542.379
806 0 87.1722 13.8117 1204 55.353 1146.22 539.545
807 0 89.0747 14.3924 1282 53.8378 1145.82 540.729
808 0 89.1475 13.6852 1220 55.2516 1146.39 537.889
809 0 94.0464 13.7804 1296 54.6559 1146.24 537.605
810 1 49.2094 11.1971 551 54.5953 1146.98 560.187
811 0 51.0886 10.9222 558 54.9749 1147.06 558.177
812 0 53.0863 11.5096 611 54.9018 1147.26 556.809
813 0 56.0786 12.8748 722 52.7853 1146.96 556.506
814 0 56.1159 11.8683 666 54.0556 1147.29 555.923
815 0 57.0298 12.8705 734 53.2384 1147.69 554.752
816 0 59.0412 11.8053 697 54.0746 1147.51 553.011
817 0 61.0568 12.8733 786 52.8219 1147.45 552.574
818 0 63.2429 12.1278 767 53.6936 1147.6 551.57
819 0 64.276 12.7264 818 52.9511 1147.56 550.982
820 0 65.1925 13.5752 885 52.3571 1147.5 549.707
821 0 67.1253 12.7672 857 53.4644 1146.88 548.1
822 0 72.1688 13.898 1003 52.012 1146.76 547.458
823 0 70.0877 12.8839 903 53.4175 1146.27 546.375
824 0 72.2029 13.6283 984 53.2541 1146.66 545.684
825 0 73.2255 12.523 917 54.1788 1146.59 544.72
826 0 78.2028 13.043 1020 53.7333 1146.8 543.434
827 0 80.2283 12.5143 1004 54.0518 1146.75 542.696
828 0 81.1591 12.8636 1044 54.0546 1146.34 540.679
829 0 86.17 13.3341 1149 52.9852 1146.98 539.707
830 0 89.1217 13.3862 1193 53.2934 1146.54 538.217
831 0 90.1252 14.3467 1293 52.7262 1146.59 537.114
832 0 95.2173 13.884 1322 53.1921 1146.9 534.756
833 0 96.1366 13.1167 1261 54.5004 1146.95 531.318
834 0 96.1366 13.1167 1261 145.002 1146.95 531.318
835 1 52.1794 10.2531 535 55.3308 1146.73 556.232
836 0 55.1253 13.2607 731 53.4131 1146.48 552.094
837 0 58.1565 12.6039 733 53.9386 1146.08 552.701
838 0 58.1565 12.6039 733 151.431 1145.08 552.701
839 0 60.134 13.0043 782 54.1176 1145.41 552.573
840 0 63.0592 13.4001 845 53.7917 1145.69 550.775
841 0 63.0592 13.4001 845 162.501 1145.69 550.775
842 0 68.1391 13.6779 932 53.5858 1145.49 546.991
843 0 68.1347 12.3432 841 54.648 1145.97 546.218
844 0 70.087 12.7841 896 53.8013 1145.48 546.298
845 0 76.258 12.9036 984 53.6026 1145.52 544.543
846 0 78.0388 13.5445 1057 53.4314 1145.1 543.721
847 0 80.0959 12.3852 992 55.4234 1145.33 541.833
848 0 83.1592 12.6384 1051 55.3625 1145.82 541.553
849 0 88.1553 13.6577 1204 53.6836 1146.04 542.043
850 0 90.0422 13.527 1218 54.1954 1145.66 540.394
851 0 91.1709 12.7563 1163 55.6268 1145.24 537.586
852 1 50.0975 11.2381 563 54.2629 1145.95 559.515
853 0 50.0962 10.5198 527 54.7647 1146.34 560.053
854 0 54.1535 12.0398 652 53.954 1146.74 558.739
855 0 56.0683 13.1625 738 53.0461 1146.06 556.378
856 0 57.1542 10.8828 622 54.6672 1146 557.389
857 0 57.2293 11.8995 681 54.511 1146.02 554.559
858 0 59.0967 11.9296 705 54.5603 1146.26 555.611
859 0 61.1322 12.9392 791 54.3186 1145.75 552.233
860 0 64.1237 12.741 817 54.3231 1145.71 551.308
861 0 66.1719 13.1476 870 53.2 1145.91 552.24
862 0 67.1549 12.7764 858 54.1131 1145.55 549.322
863 0 68.1478 12.3555 842 55.171 1146.41 547.368
864 0 72.1047 12.8979 930 54.3462 1146.42 549.432
865 0 74.1847 13.0081 965 54.4632 1146.61 547.204
866 0 74.0278 12.6169 934 56.137 1146.11 545.476
867 0 79.1138 13.1456 1040 55.2404 1146.04 544.389
868 0 80.2404 12.8364 1030 55.933 1145.86 541.85
869 0 83.1665 12.986 1080 56.6111 1145.65 541.921
870 1 48.1762 10.4616 504 57.879 1145.57 560.77
871 0 52.0788 11.0602 576 58.3056 1145.3 558.606
872 0 54.1066 11.9764 648 56.7037 1144.81 559.573
873 0 55.4096 11.2616 624 57.6538 1145.12 557.861
874 0 56.3164 11.2578 634 57.4274 1144.54 558.558
875 0 57.1933 12.3616 707 56.6987 1144.71 556.994
876 0 59.3458 13.4129 796 55.7588 1145.27 555.515
877 0 59.1983 13.024 771 57.1167 1144.86 554.938
878 0 62.2343 13.0796 814 57.0405 1145.04 552.908
879 0 62.1476 13.0013 808 58.2562 1144.66 553.386
880 0 64.2617 13.2116 849 57.8257 1145.17 553.099
881 0 69.3243 13.2421 918 57.842 1144.97 551.005
882 0 71.3224 13.6984 977 57.0706 1144.38 551.354
883 0 72.3614 13.3497 966 58.8385 1144.99 547.771
884 0 75.2963 14.0379 1057 58.0331 1144.52 548.672
885 0 80.4095 13.8665 1115 58.1578 1144.8 548.004
886 0 81.4829 13.328 1086 59.3343 1145.09 545.417
887 0 82.3549 13.7575 1133 59.3981 1145.44 542.817
888 0 85.303 13.54 1155 60.1645 1145.23 541.268
889 0 86.4785 13.5641 1173 60.4288 1145.04 541.457
890 0 92.5855 13.9223 1289 59.9449 1145.02 538.527
891 0 96.4658 13.2793 1281 63.0008 1145.07 537.646
892 0 100.28 14.2999 1434 90.4379 1144.76 536.562
893 1 57.4328 12.3971 712 60.1896 1145.39 555.756
894 0 58.3392 12.873 751 60.3635 1145.77 555.269
895 0 58.5259 13.5837 795 59.7321 1146.03 553.545
896 0 59.3573 13.225 785 61.5516 1145.68 554.11
897 0 61.2767 13.8062 846 61.0851 1145.9 553.177
898 0 63.6507 13.2756 845 61.6414 1146.82 547.893
899 0 65.4096 13.469 881 60.9773 1146.93 546.026
900 0 67.2404 14.8571 999 59.5435 1147.13 546.703
901 0 67.369 13.8788 935 62.031 1147.16 546.694
902 0 70.45 13.2292 932 62.8444 1147.27 545.354
903 0 72.3785 13.4018 970 62.533 1147.31 545.098
904 0 74.436 13.7836 1026 62.1891 1147.29 544.754
905 0 75.5348 13.5567 1024 63.292 1147.11 544.322
906 0 78.3468 14.5507 1140 61.9904 1147.43 542.84
907 0 79.2663 12.7923 1014 65.0355 1147.33 540.417
908 0 81.5836 13.8263 1128 63.6082 1147.56 539.419
909 0 87.447 13.8026 1207 63.0307 1147.25 540.131
910 0 87.402 14.0729 1230 63.852 1147.6 536.651
911 0 92.2428 14.4835 1336 63.0284 1147.92 537.793
912 0 94.4263 14.6993 1388 63.7918 1148.12 533.808
913 0 97.2234 13.5358 1316 65.2371 1148.45 532.847
914 0 99.3098 13.7247 1363 65.215 1148.28 531.569
915 0 103.33 13.9262 1439 64.984 1148.64 529.803
916 0 107.444 14.5564 1564 64.1368 1148.73 529.079
917 1 59.2313 10.7882 639 65.9045 1149.17 552.211
918 0 60.1632 12.1004 728 64.7967 1148.98 551.056
919 0 62.1523 12.0189 747 64.6479 1149.42 550.627
920 0 64.1293 13.2701 851 63.7521 1149.37 549.135
921 0 66.2511 13.3734 886 63.3555 1149.28 548.21
922 0 68.0994 13.539 922 62.8731 1149.09 546.855
923 0 70.2064 13.3606 938 63.2697 1149.16 546.165
924 0 72.1492 13.7216 990 62.9646 1149.76 544.9
925 0 74.205 13.4223 996 63.007 1149.7 544.262
926 0 77.2111 13.8193 1067 62.8932 1149.37 541.653
927 0 79.2422 12.8593 1019 64.1766 1149.85 541.516
928 0 84.2385 14.3046 1205 61.971 1150.11 540.792
929 0 85.2517 13.4895 1150 63.5817 1149.65 538.425
930 0 88.2908 14.6221 1291 61.7165 1149.74 538.344
931 0 91.1458 12.9353 1179 64.6166 1150.02 535.587
932 0 93.1727 14.1565 1319 63.5246 1149.99 533.821
933 0 97.1975 14.4757 1407 63.0434 1149.76 533.614
934 0 100.29 13.7202 1376 63.8772 1149.26 531.864
935 0 103.239 14.2872 1475 62.8468 1148.8 529.856
936 0 106.233 14.1294 1501 63.2418 1149.22 528.499
937 0 111.094 14.8252 1647 62.1573 1148.86 526.233
938 0 113.454 13.6091 1544 63.785 1148.54 523.795
939 0 116.397 13.2735 1545 64.0414 1148.83 522.209
940 0 122.386 14.4053 1763 61.5508 1148.68 522.606
941 0 128.385 14.3163 1838 61.197 1148.54 518.402
942 0 130.25 14.0422 1829 61.9601 1148.33 516.353
943 1 78.0871 11.7689 919 60.481 1148.54 543.836
944 0 78.1776 11.6529 911 60.955 1148.38 542.663
945 0 78.1776 11.6402 910 170.829 1148.38 542.703
946 0 81.1936 11.8113 959 61.0865 1148.23 541.194
947 0 85.2754 13.732 1171 59.2852 1147.85 539.354
948 0 87.1994 13.4863 1176 59.1947 1147.36 536.371
949 0 90.2862 13.3132 1202 59.1672 1147.46 535.234
950 0 93.1411 14.2794 1330 57.8624 1147.16 533.721
951 0 95.2521 13.7845 1313 58.7159 1146.92 532.652
952 0 99.5551 13.1987 1314 58.8965 1146.58 533.253
953 0 100.292 13.0419 1308 59.9151 1146.84 530.088
954 0 103.326 13.5978 1405 59.0078 1146.81 530.464
955 0 106.227 12.398 1317 60.1792 1146.49 527.311
956 0 112.437 14.4614 1626 56.9945 1146.26 526.922
957 0 115.38 13.9713 1612 58.0645 1146.73 524.392
958 0 116.254 13.2039 1535 58.6052 1147.16 520.692
959 1 69.1292 9.47502 655 58.7878 1146.77 547.744
960 0 73.3153 10.8572 796 57.1545 1146.38 546.407
961 0 75.1545 10.6314 799 56.9787 1146.62 545.179
962 0 76.2044 11.6791 890 56.1371 1146.48 544.798
963 0 79.2054 12.0446 954 55.8438 1146.93 541.608
964 0 83.2881 13.0391 1086 55.0608 1146.41 540.373
965 0 85.278 13.2039 1126 55.8037 1146.24 536.489
966 0 88.4669 13.2027 1168 55.3459 1146.56 537.169
967 0 90.5294 12.7472 1154 56.1369 1146.45 534.997
968 0 93.2399 12.2802 1145 56.538 1146.41 532.362
969 0 98.3592 12.9424 1273 55.6245 1146.16 533.018
970 0 100.337 12.3384 1238 56.8401 1146.79 529.485
971 0 105.459 12.0236 1268 57.1932 1146.58 530.649
972 0 107.408 12.932 1389 56.8891 1146.37 526.194
973 0 112.471 13.399 1507 56.4094 1146.06 524.803
974 0 115.392 13.5278 1561 56.8533 1146.39 524.027
975 0 119.418 13.3816 1598 56.9656 1145.72 523.049
976 0 121.427 13.4978 1639 57.3752 1145.43 521.041
977 0 124.383 13.3459 1660 58.2741 1145.81 518.517
978 0 129.548 13.1998 1710 57.9708 1145.15 516.981
979 1 70.2831 11.3825 800 56.2475 1145.51 550.14
980 0 75.1551 11.4962 864 57.1678 1144.92 546.12
981 0 78.3893 11.7746 923 57.0845 1145.04 544.797
982 0 81.3791 12.0793 983 56.9847 1145.72 542.979
983 0 84.2243 12.0274 1013 57.3564 1145.38 539.183
984 0 87.3229 12.1389 1060 57.1208 1145.21 539.944
985 0 88.4708 11.9135 1054 57.8008 1145.43 537.985
986 0 93.3696 12.5094 1168 57.3622 1145.55 536.344
987 0 96.3373 13.0271 1255 57.3785 1145.48 534.606
988 0 98.2973 13.0217 1280 56.9305 1145.26 535.88
989 0 102.329 12.9289 1323 57.3001 1145.41 531.328
990 0 105.364 14.2743 1504 55.9156 1145.07 530.71
991 0 106.367 12.8705 1369 57.7195 1145.06 529.43
992 0 111.309 13.6107 1515 57.1531 1145.16 528.244
993 0 113.249 13.0244 1475 58.2569 1145.18 526.375
994 0 117.365 14.2802 1676 57.006 1144.91 526.218
995 0 121.337 13.8869 1685 57.6409 1145.25 524.699
996 1 63.25 10.4032 658 57.8754 1145.06 552.328
997 0 67.1933 10.8939 732 57.1858 1144.89 552.604
998 0 68.3129 11.3156 773 57.9146 1145.17 549.886
999 0 71.287 12.2322 872 56.7431 1144.72 548.608
1000 0 76.2241 13.1192 1000 55.125 1145.08 547.51
1001 0 75.137 11.8983 894 57.4922 1145.03 547.015
1002 0 75.2867 11.8879 895 59.0145 1144.88 544.558
1003 0 79.1271 13.3456 1056 55.8182 1145.25 543.971
1004 0 82.1709 12.474 1025 56.7737 1144.67 543.062
1005 0 82.1678 12.511 1028 56.7607 1145.54 541.389
1006 0 88.1559 12.4892 1101 56.2343 1145.34 540.955
1007 0 89.1864 12.7486 1137 56.1715 1145.81 537.758
1008 0 91.3642 13.1014 1197 56.2498 1145.64 535.504
1009 0 95.1855 12.9537 1233 56.3893 1146.02 535.499
1010 0 97.2749 12.3567 1202 56.7005 1145.71 534.006
1011 0 100.286 12.5541 1259 57.9825 1145.42 534.311
1012 0 104.228 13.2499 1381 57.0217 1145.39 533.29
1013 0 107.168 13.838 1483 56.646 1144.86 529.682
1014 0 112.27 13.0756 1468 57.0143 1145.35 529.459
1015 0 114.26 13.1717 1505 56.8571 1145.17 526.695
1016 0 118.279 13.2229 1564 56.7519 1145.11 525.754
1017 0 122.338 12.8497 1572 57.3003 1144.75 522.506
1018 1 68.1461 10.771 734 56.3965 1145.62 552.49
1019 0 68.1461 10.771 734 156.586 1145.62 552.49
1020 0 68.1461 10.771 734 156.184 1145.62 552.49
1021 0 72.093 11.9845 864 54.9421 1145.58 547.582
1022 0 73.0986 12.7089 929 54.042 1145.58 547.168
1023 0 74.1588 12.5137 928 56.2565 1146.1 547.098
1024 0 78.1732 13.355 1044 55.2433 1146.21 546.193
1025 0 80.1183 12.7686 1023 55.8348 1146.22 545.258
1026 0 83.1912 12.309 1024 56.3271 1146.01 543.801
1027 0 85.204 13.2271 1127 55.0701 1145.92 544.188
1028 0 88.3385 12.9842 1147 55.4525 1146.35 541.059
1029 0 90.295 13.3673 1207 55.1566 1146.4 539.809
1030 0 93.2432 13.1913 1230 55.8244 1146.67 538.129
1031 0 95.2162 13.0545 1243 56.004 1146.67 537.674
1032 0 97.2082 13.6923 1331 55.4696 1146.81 535.894
1033 0 100.231 13.8181 1385 54.9054 1146.2 535.479
1034 0 104.453 14.0159 1464 54.8928 1146.67 531.876
1035 0 106.31 13.8557 1473 55.2356 1146.84 529.285
1036 0 109.362 13.4782 1474 55.9355 1147.04 528.731
1037 0 111.468 13.7169 1529 55.4454 1147.36 528.178
1038 0 114.398 13.1471 1504 56.3624 1148.35 525.651
1039 0 119.499 13.9164 1663 55.0066 1148.07 524.569
1040 1 66.2926 11.3587 753 55.7968 1148.82 551.023
1041 0 67.3431 9.93421 669 57.0613 1149.01 552.635
1042 0 71.1894 12.0523 858 55.1364 1149.47 548.709
1043 0 70.2173 11.9771 841 55.566 1149.24 546.975
1044 0 74.2302 13.0944 972 53.7695 1149.18 547.106
1045 0 75.2748 13.5636 1021 53.9412 1149.21 545.204
1046 0 79.1549 13.3536 1057 53.2431 1149.76 544.277
1047 0 80.3329 12.249 984 54.9776 1149.8 541.921
1048 0 82.4478 12.6868 1046 54.5822 1149.72 542.01
1049 0 85.3572 12.641 1079 54.0593 1149.82 540.931
1050 0 89.2911 12.9016 1152 53.7891 1149.98 539.093
1051 0 90.2612 12.5192 1130 55.2504 1149.69 536.077
1052 0 92.3808 12.8706 1189 55.1581 1150.11 534.844
1053 0 94.2393 13.1474 1239 53.7038 1149.58 532.33
1054 0 97.3159 12.7215 1238 54.412 1150.21 531.916
1055 0 100.319 12.9288 1297 54.6369 1150.11 528.286
1056 0 106.277 13.3237 1416 53.6264 1149.81 531.637
1057 1 59.1994 9.96631 590 54.7712 1150.18 554.785
1058 0 61.123 11.485 702 55.3348 1150.78 550.765
1059 0 62.0798 12.6289 784 54.0306 1149.91 550.753
1060 0 63.2156 11.2789 713 54.9762 1149.47 550.502
1061 0 68.2435 13.4225 916 52.5011 1149.48 549.585
1062 0 69.1403 13.0315 901 53.6071 1149.64 547.907
1063 0 70.1515 12.4445 873 54.2268 1149.06 548.987
1064 0 70.0469 12.2489 858 54.4557 1149.85 546.347
1065 0 75.1296 13.7363 1032 52.656 1149.96 547.007
1066 0 77.2242 13.8687 1071 52.9748 1149.55 545.124
1067 0 77.0535 13.562 1045 54.2402 1149.05 543.054
1068 0 79.0507 13.3585 1056 54.625 1149.11 543.187
1069 0 83.1615 12.8665 1070 55.5907 1149.39 539.548
1070 0 84.1364 13.9179 1171 54.7746 1148.73 538.457
1071 0 88.0815 13.4761 1187 55.1685 1148.47 537.003
1072 0 91.1144 13.7519 1253 55.2514 1148.69 538.371
1073 0 93.12 13.5631 1263 55.7451 1148.85 534.132
1074 0 96.1002 13.2986 1278 56.4429 1148.69 532.372
1075 0 98.1831 13.872 1362 56.2599 1148.27 531.302
1076 0 101.304 14.3529 1454 55.8556 1148.11 530.827
1077 0 104.182 13.438 1400 57.435 1148 528.634
1078 0 107.105 14.117 1512 56.7381 1148.15 528.096
1079 0 111.2 14.5054 1613 56.5071 1147.74 525.312
1080 0 113.164 14.1299 1599 57.2877 1147.81 523.083
1081 0 115.23 14.1803 1634 57.3225 1147.37 524.917
1082 0 119.177 14.3736 1713 57.2248 1147.32 523.395
1083 0 124.232 15.4549 1920 56.3464 1147.32 518.746
1084 0 126.128 14.9293 1883 56.9596 1147.78 518.502
1085 0 131.182 14.3465 1882 58.127 1148.04 515.699
1086 1 73.1172 10.8593 794 59.6688 1148.05 545.189
1087 0 74.1143 10.4163 772 59.6412 1148.11 546.593
1088 0 79.0427 12.0315 951 58.5363 1148.21 543.325
1089 0 78.1019 12.4709 974 58.7423 1148.2 541.415
1090 0 83.1621 12.8785 1071 58.0028 1148.19 539.366
1091 0 88.1159 13.6979 1207 57.0696 1147.91 538.711
1092 0 88.0579 13.3889 1179 58.3325 1147.93 535.077
1093 0 92.1152 13.7545 1267 57.5154 1147.46 535.083
1094 0 96.3002 13.7487 1324 57.5378 1147.52 532.508
1095 0 100.153 13.709 1373 57.3846 1147.52 531.717
1096 0 103.141 14.3299 1478 56.6854 1147.39 530.226
1097 0 105.311 13.3509 1406 58.2838 1147.37 527.853
1098 0 108.193 14.5296 1572 56.5821 1147.97 525.595
1099 0 113.508 14.7391 1673 56.0658 1147.72 524.053
1100 0 115.465 14.5152 1676 56.7542 1147.2 521.142
1101 0 120.664 14.1965 1713 56.6025 1147.18 521.72
1102 1 66.146 10.1291 670 58.7313 1147.14 546.618
1103 0 69.33 10.9909 762 57.3635 1146.57 547.265
1104 0 72.3051 10.8568 785 57.1885 1146.49 547.389
1105 0 71.2991 10.9959 784 165.983 1145.49 547.438
1106 0 74.4422 13.4198 999 55.6206 1145.9 540.595
1107 0 78.4956 12.7013 997 55.6961 1146.49 543.491
1108 0 82.4323 13.4413 1108 54.4377 1146.37 543.022
1109 0 84.6521 13.9158 1178 54.6893 1146.59 539.469
1110 0 87.3478 13.0742 1142 55.7285 1146.26 536.559
1111 0 87.3836 12.6454 1105 56.5149 1146.6 537.769
1112 0 92.5393 12.8918 1193 55.7016 1147.16 538.086
1113 0 93.4463 12.5848 1176 56.4847 1146.96 535.37
1114 0 98.7077 14.0617 1388 54.5548 1147.11 535.79
1115 0 100.821 13.8067 1392 54.671 1146.67 530.924
1116 0 103.468 13.8304 1431 54.9972 1146.58 532.398
1117 0 107.518 13.6815 1471 54.809 1146.5 530.675
1118 0 109.716 13.5076 1482 55.3165 1146.21 526.561
1119 0 109.716 13.5076 1482 155.504 1146.21 526.561
1120 0 116.534 12.3827 1443 56.8309 1145.8 523.577
1121 1 65.425 11.1272 728 55.7363 1146.16 549.19
1122 0 69.3506 12.9487 898 53.1036 1145.99 549.83
1123 0 70.3774 12.0635 849 54.4181 1146.64 547.071
1124 0 75.4515 13.0945 988 53.2065 1145.98 547.298
1125 0 76.4784 12.9448 990 53.6586 1145.91 545.858
1126 0 79.4557 12.6863 1008 53.8175 1145.76 544.53
1127 0 81.4077 13.6965 1115 53.0619 1145.79 543.11
1128 0 81.5685 12.7745 1042 54.8109 1145.85 542.119
1129 0 85.5768 13.0409 1116 54.5125 1146.19 540.898
1130 0 90.5623 13.4824 1221 53.914 1145.92 540.373
1131 0 90.6828 13.1557 1193 55.0168 1146.08 538.655
1132 0 93.7007 13.6178 1276 55.0165 1145.74 538.078
1133 0 96.6098 12.949 1251 56.4788 1145.82 534.876
1134 0 100.546 13.3471 1342 56.2206 1145.63 535.316
1135 0 103.654 13.0434 1352 56.9815 1145.39 532.085
1136 0 105.47 13.0843 1380 57.5029 1146.11 530.287
1137 1 59.4292 10.3989 618 59.4482 1145.57 556.028
1138 0 59.3115 12.2573 727 58.0688 1145.76 555
1139 0 59.3312 11.3937 676 59.358 1146.26 555.071
1140 0 62.4725 12.1814 761 58.3049 1145.89 553.051
1141 0 64.3242 12.8257 825 58.0642 1146.86 551.138
1142 0 67.3352 14.0046 943 57.5398 1146.66 550.28
1143 0 69.368 12.8734 893 59.2587 1146.74 549.37
1144 0 71.2276 14.3343 1021 57.6925 1146.9 547.911
1145 0 72.2208 13.2787 959 59.5109 1146.96 548.06
1146 0 75.2085 13.4692 1013 59.5706 1146.79 545.938
1147 0 78.201 13.6443 1067 59.8932 1146.6 545.377
1148 0 81.3453 13.203 1074 60.9832 1146.68 543.078
1149 0 83.3056 12.8443 1070 61.671 1147.37 543.337
1150 0 87.236 13.8246 1206 60.1833 1147.78 542.097
1151 0 87.2652 13.7168 1197 61.4971 1147.65 540.654
1152 0 91.4088 14.2984 1307 60.2012 1147.95 539.799
1153 0 92.2204 13.2942 1226 61.6044 1148.17 537.726
1154 0 98.3551 13.9596 1373 60.2054 1148.13 535.446
1155 0 100.286 14.0798 1412 60.5673 1148.49 534.483
1156 0 103.209 13.7876 1423 60.5594 1149.17 534.431
1157 0 106.252 13.7879 1465 60.7611 1149.61 532.354
1158 1 55.1606 10.968 605 63.4331 1149.82 556.884
1159 0 58.1468 12.0213 699 62.2289 1149.87 554.67
1160 0 58.1468 11.9525 695 165.688 1149.89 554.658
1161 0 60.1299 12.5728 756 61.9405 1149.22 552.525
1162 0 64.1228 14.5034 930 59.5978 1150.04 551.351
1163 0 66.173 13.6763 905 60.705 1150.28 549.629
1164 0 68.1431 13.9853 953 60.0115 1151 548.146
1165 0 71.2801 14.6745 1046 58.6979 1150.93 546.613
1166 0 72.3124 13.7459 994 59.9799 1150.58 547.659
1167 0 74.1456 13.3656 991 60.5651 1151 544.851
1168 0 76.2558 13.7826 1051 60.3587 1148.34 543.238
1169 0 79.2711 13.1574 1043 60.838 1148.69 541.916
1170 0 83.222 13.7704 1146 59.9956 1149 541.302
1171 0 86.2033 13.7814 1188 60.0556 1149.27 539.964
1172 0 90.2714 14.257 1287 58.4701 1150.5 538.127
1173 0 91.0603 13.7711 1254 59.9043 1150.43 535.275
1174 0 91.2317 13.4712 1229 60.5313 1151.27 535.177
1175 1 53.0994 11.6197 617 61.2869 1151.2 557.509
1176 0 54.1309 12.0449 652 60.4325 1151.25 557.109
1177 0 55.0716 11.0765 610 62.4852 1151.27 556.544
1178 0 57.1949 12.5186 716 61.1229 1151.09 554.321
1179 0 57.0722 12.3002 702 61.4644 1150.8 554.588
1180 0 60.0905 13.4963 811 60.2133 1150.34 552.711
1181 0 63.161 13.7901 871 59.7899 1150.41 550.812
1182 0 67.1723 14.5596 978 58.4274 1150.34 550.172
1183 0 68.2104 13.3264 909 59.9296 1150.8 549.535
1184 0 71.1757 14.12 1005 59.0697 1150.54 547.19
1185 0 74.1407 14.8771 1103 58.2992 1150.57 545.909
1186 0 73.3216 14.6478 1074 59.3892 1150.69 542.417
1187 0 77.1169 14.1344 1090 59.6193 1150.21 545.052
1188 0 79.2195 13.9612 1106 59.8562 1150.08 542.885
1189 0 84.237 14.3999 1213 58.892 1150.16 541.158
1190 0 85.2403 14.0075 1194 59.6516 1150.21 538.812
1191 0 89.2765 14.9871 1338 58.2235 1150.6 538.611
1192 1 50.0849 12.0395 603 61.4942 1150.41 554.697
1193 0 49.2858 12.1942 601 61.5957 1150.83 555.606
1194 0 51.1203 13.1846 674 60.5148 1150.3 554.467
1195 0 54.3501 13.413 729 59.834 1149.27 553.962
1196 0 56.176 13.6179 765 59.3817 1149.41 553.426
1197 0 56.1552 13.9435 783 59.7612 1149.67 551.405
1198 0 60.2062 14.1348 851 58.7203 1149.55 552.2
1199 0 60.0452 13.773 827 60.0665 1149.54 549.739
1200 0 62.1408 14.0809 875 59.7189 1149.58 549.209
1201 0 67.1484 14.7881 993 58.0665 1148.85 547.984
1202 0 69.1658 13.6339 943 59.6903 1149.11 547.154
1203 0 70.1652 13.9243 977 59.5763 1148.95 545.021
1204 0 73.0824 14.2989 1045 59.4498 1148.69 544.555
1205 0 73.2004 13.7431 1006 60.8012 1148.49 543.343
1206 0 77.2075 13.1853 1018 61.0658 1148.33 543.574
1207 0 79.3499 14.1147 1120 60.6045 1148.76 541.778
1208 0 81.1879 13.7828 1119 60.8847 1148.47 542.161
1209 0 83.1791 14.2464 1185 60.7713 1148.19 540.441
1210 0 86.09 14.4848 1247 59.8589 1148.18 540.441
1211 0 89.1902 14.4971 1293 60.0603 1147.76 538.308
1212 0 91.4416 14.2167 1300 60.8077 1147.57 537.355
1213 0 95.3083 14.4479 1377 60.4924 1147.9 536.147
1214 0 99.2866 14.856 1475 60.1634 1147.77 535.062
1215 0 101.107 14.6874 1485 60.8599 1147.85 534.875
1216 1 53.0639 13.6251 723 61.9613 1148 554.38
1217 0 53.2041 11.9728 637 64.4568 1147.39 553.042
1218 0 57.1676 13.1718 753 63.1448 1147.56 553.444
1219 0 58.2475 12.1894 710 64.8183 1147.27 552.962
1220 0 62.1854 13.2989 827 63.1499 1146.82 551.07
1221 0 62.1017 14.122 877 62.309 1147.11 552.675
1222 0 68.0547 14.9879 1020 60.7931 1146.72 550.117
1223 0 68.0205 15.2307 1036 60.8514 1147.11 548.849
1224 0 72.0674 14.7501 1063 61.5259 1147.19 548.094
1225 0 73.0733 15.1492 1107 61.4878 1146.61 547.379
1226 0 78.06 14.5017 1132 62.1979 1146.51 548.186
1227 0 77.1418 14.8428 1145 62.7022 1146.65 546.15
1228 0 82.1689 15.1761 1247 62.3368 1146.11 545.087
1229 0 83.1152 15.0995 1255 63.2781 1146.36 541.627
1230 0 86.1614 15.204 1310 63.371 1146.02 540.685
1231 0 87.1346 15.2867 1332 64.0556 1145.89 542.21
1232 0 91.0881 14.5793 1328 64.9443 1146.07 539.706
1233 0 93.0523 14.4757 1347 65.1856 1145.46 539.385
1234 0 95.1941 14.7488 1404 65.5114 1145.71 537.29
1235 0 99.1351 15.0199 1489 65.5232 1145.83 534.87
1236 0 101.174 15.1323 1531 65.486 1145.59 533.393
1237 0 104.073 14.7204 1532 66.4987 1145.49 531.057
1238 0 108.153 14.5719 1576 65.9448 1145.14 530.195
1239 0 112.143 15.284 1714 65.1639 1145.52 529.443
1240 0 113.302 14.9424 1693 66.6491 1145.08 526.265
1241 0 118.322 16.1171 1907 64.5873 1145.56 524.242
1242 0 123.183 14.9696 1844 65.5922 1144.76 522.985
1243 0 126.15 15.2517 1924 65.4631 1145.67 521.093
1244 0 130.115 15.2173 1980 65.6818 1145.59 518.971
1245 0 133.114 14.8895 1982 66.3688 1145.84 516.745
1246 0 140.165 16.0168 2245 64.4739 1145.83 513.617
1247 0 144.4 15.2078 2196 66.0328 1145.97 513.304
1248 0 148.176 15.8123 2343 66.9633 1145.73 509.774
1249 0 151.373 15.0159 2273 68.9608 1145.99 508.588
1250 0 155.451 14.9951 2331 69.2677 1145.91 505.568
1251 0 162.219 15.2386 2472 68.7205 1145.69 503.608
1252 0 165.219 14.8167 2448 69.9861 1145.48 500.747
1253 0 170.483 15.0103 2559 70.0496 1145.77 497.56
1254 1 98.317 12.4597 1225 70.9984 1145.95 536.007
1255 0 101.218 13.0215 1318 70.4074 1145.86 533.805
1256 0 104.431 12.9368 1351 71.4648 1145.64 530.977
1257 0 108.171 13.0349 1410 70.9539 1146.27 529.67
1258 0 111.309 13.9342 1551 70.1522 1146.28 527.941
1259 0 114.333 13.4694 1540 70.611 1146.76 525.943
1260 0 119.218 13.9409 1662 69.7521 1146.17 522.102
1261 0 125.214 13.8483 1734 69.3506 1146.67 521.98
1262 0 128.304 14.2318 1826 68.9348 1146.12 519.317
1263 0 135.326 13.9663 1890 68.8942 1146.71 516.378
1264 0 139.35 14.7542 2056 67.3225 1146.61 514.313
1265 0 143.191 13.8626 1985 69.1048 1146.98 510.614
1266 0 146.303 14.1692 2073 68.7048 1146.93 509.354
1267 0 152.319 14.4565 2202 68.059 1146.87 506.268
1268 0 159.455 14.4304 2301 67.4854 1147.57 502.539
1269 0 162.529 14.1821 2305 68.1024 1147.53 497.125
1270 1 100.298 11.8646 1190 65.4849 1147.94 536.401
1271 0 103.107 11.8905 1226 66.5049 1148.12 531.954
1272 0 105.163 12.0575 1268 66.8809 1148.6 530.847
1273 0 109.284 13.3139 1455 65.4701 1149.02 527.016
1274 0 113.132 12.7727 1445 65.7495 1148.92 527.156
1275 0 114.282 13.2042 1509 65.8019 1147.87 525.279
1276 0 117.311 12.5649 1474 66.7714 1149.03 521.163
1277 0 122.262 12.6205 1543 66.3824 1149.56 519.192
1278 0 127.259 13.5 1718 64.6746 1149.62 518.807
1279 0 129.358 14.0927 1823 64.2331 1150.13 513.968
1280 0 135.239 13.4799 1823 64.9238 1150.27 513.949
1281 0 139.302 13.4959 1880 64.9011 1150.34 511.375
1282 0 144.266 13.5236 1951 64.4813 1149.42 508.793
1283 0 148.325 13.7199 2035 64.3735 1149.66 504.342
1284 1 68.2967 9.54658 652 61.0982 1151.12 547.232
1285 0 69.187 10.1464 702 60.5356 1150.71 549.319
1286 0 73.1874 11.1358 815 59.6123 1149.97 547.074
1287 0 73.1484 10.8273 792 60.7109 1150.12 545.913
1288 0 76.2484 11.2527 858 59.317 1150.42 545.96
1289 0 78.2261 11.0449 864 60.5347 1150.6 542.644
1290 0 80.3146 11.5172 925 60.7676 1150.78 541.136
1291 0 81.2554 11.9254 969 61.1971 1150.67 539.997
1292 0 85.4347 12.4305 1062 60.2194 1150.86 538.776
1293 0 86.433 11.4308 988 61.4049 1150.85 536.597
1294 0 91.3234 12.7678 1166 59.1141 1151.35 535.714
1295 0 92.2738 11.26 1039 60.9952 1151.39 533.981
1296 0 95.269 12.2075 1163 60.4772 1151.22 532.132
1297 0 96.399 11.9296 1150 61.2078 1151.28 530.52
1298 0 100.375 12.6426 1269 59.8534 1151.58 531.767
1299 0 104.361 12.5239 1307 59.7138 1151.23 528.924
1300 0 107.317 11.4241 1226 60.8532 1151.58 525.812
1301 0 112.377 12.725 1430 59.3622 1151.01 525.539
1302 0 114.496 12.4022 1420 60.5831 1151.24 520.909
1303 0 118.579 12.8016 1518 59.8274 1150.92 521.208
1304 1 71.2238 9.43505 672 59.744 1150.45 546.53
1305 0 73.4601 10.4683 769 58.1183 1150.69 545.356
1306 0 77.4351 11.1319 862 57.9965 1150.5 542.595
1307 0 79.4305 11.1418 885 58.096 1150.54 541.181
1308 0 82.2398 12.1231 997 57.2989 1150.07 540.124
1309 0 82.4561 11.8972 981 58.1509 1150.23 538.675
1310 0 85.7134 11.5501 990 58.1313 1150.24 539.287
1311 0 87.469 12.6102 1103 57.3336 1150.42 535.607
1312 0 88.5512 13.0433 1155 57.0563 1150.55 536.869
1313 0 91.5776 12.372 1133 57.6284 1149.96 535.717
1314 0 93.4144 12.4178 1160 58.1276 1149.45 535.884
1315 0 95.6376 11.9305 1141 58.7914 1148.88 532.835
1316 0 98.5345 12.7976 1261 57.9794 1148.18 534.01
1317 0 102.458 13.6544 1399 56.7884 1148.36 532.243
1318 0 104.609 12.9434 1354 58.0657 1148.33 529.56
1319 0 107.345 12.2781 1318 59.0023 1148.43 526.259
1320 0 109.533 13.1833 1444 58.3186 1147.76 525.974
1321 0 112.391 13.1238 1475 58.8305 1147.62 526.743
1322 0 114.268 13.7746 1574 57.8094 1147.73 524.836
1323 0 117.414 13.9422 1637 57.5699 1147.91 525.776
1324 0 119.423 13.8332 1652 57.7052 1147.84 523.249
1325 0 123.412 14.2125 1754 57.5405 1147.63 521.3
1326 0 127.342 14.4571 1841 56.9837 1147.41 520.093
1327 0 131.492 13.5293 1779 58.4688 1147.24 514.917
1328 0 131.492 13.5293 1779 163.323 1147.24 514.917
1329 0 139.498 14.0289 1957 57.7021 1147.12 515.029
1330 0 141.379 13.5168 1911 58.7138 1147.11 511.447
1331 0 147.53 14.7089 2170 56.9899 1147.02 507.876
1332 0 151.501 13.9735 2117 57.4662 1147.37 509.586
1333 0 154.469 14.1323 2183 57.9647 1146.82 504.475
1334 0 157.649 13.8219 2179 59.3736 1147.01 505.01
1335 1 31.0814 7.68949 239 51.6444 1147.58 569.092
1336 0 27.1432 6.92624 188 51.3617 1148.2 570.777
1337 0 27.3897 8.25127 226 49.8717 1147.42 571.81
1338 0 24.1575 7.16134 173 49.9711 1147.7 573.399
1339 0 29.3216 8.45794 248 49.0847 1147.48 570.629
1340 0 30.1528 9.4187 284 47.9472 1147.26 571.75
1341 0 28.1654 7.59798 214 49.0841 1147.25 571.925
1342 0 28.1991 8.29815 234 49.2607 1148.12 570.321
1343 0 30.4817 8.13604 248 48.6008 1147.41 569.722
1344 0 30.2636 6.80685 206 48.0825 1147.96 572.767
1345 0 29.2479 8.20572 240 48.85 1147.72 569.875
1346 0 27.2753 7.00268 191 49.5654 1147.94 571.099
1347 0 28.2192 8.39852 237 47.4008 1147.79 571.519
1348 0 29.1391 6.07431 177 48.5876 1147.43 574.186
1349 0 28.2197 8.43383 238 47.7521 1147.41 571.508
1350 0 29.1899 8.63313 252 48.8373 1146.23 570.647
1351 0 30.1401 9.58855 289 47.8374 1146.42 571.9
1352 0 29.4752 8.99062 265 48.4075 1145.8 570.049
1353 0 29.3463 6.61072 194 49.8969 1146.25 572.799
1354 0 30.2877 8.84847 268 48.0261 1145.92 571.787
1355 0 25.3722 8.86799 225 48.8311 1145.97 572.116
1356 0 33.1598 8.86615 294 48.5578 1146.02 569.935
1357 0 27.2335 5.72825 156 50.9038 1146.13 573.949
1358 0 31.2007 7.98058 249 48.7309 1145.55 571.896
1359 0 30.1381 8.46105 255 47.9137 1145.89 572.106
1360 0 30.1769 7.72114 233 49.6567 1145.78 570.893
1361 0 31.1213 6.52286 203 50.0443 1145.97 571.754
1362 0 34.2936 7.78572 267 49.9513 1145.19 570.895
1363 0 32.2216 9.24846 298 49.057 1145.82 571.738
1364 0 26.2902 7.37917 194 50.433 1146.61 574.366
1365 0 26.0644 9.01612 235 49.5447 1146.44 573.66
1366 0 24.3334 7.23285 176 51.5909 1145.48 574.153
1367 0 26.11 8.1961 214 50.3037 1146.06 574.121
1368 0 26.0165 8.57149 223 50.6951 1146.01 572.91
1369 0 25.0103 7.83676 196 51.1786 1146.31 573.724
1370 0 27.0289 8.28742 224 50.8705 1146.42 573.812
1371 0 25.0379 7.62843 191 50.445 1145.9 575.33
1372 0 27.0355 7.84153 212 50.8349 1146.05 573.453
1373 0 29.0177 8.89112 258 50.5388 1146.53 571.783
1374 1 87.4561 10.5996 927 54.2751 1144.7 539.694
1375 0 90.4305 10.7928 976 54.9652 1144.88 541.596
1376 0 90.5532 11.4187 1034 55.9729 1144.66 541.065
1377 0 91.5982 11.1028 1017 57.1475 1144.87 538.848
1378 0 97.5965 12.4902 1219 55.3552 1144.96 534.908
1379 0 97.4662 11.7887 1149 56.8103 1144.65 536.43
1380 0 100.388 12.103 1215 56.7794 1144.58 535.162
1381 0 102.444 12.3482 1265 54.8126 1144.19 536.371
1382 0 106.484 13.1569 1401 51.8458 1144.33 531.003
1383 0 111.438 14.3218 1596 50.4637 1144.88 530.079
1384 0 113.436 14.8101 1680 52.8315 1145.02 527.512
1385 0 113.237 13.6351 1544 53.3763 1144.93 529.011
1386 0 115.443 11.8673 1370 56.3752 1144.77 530.017
1387 1 63.3096 8.65588 548 55.2755 1145.92 557.383
1388 0 67.2141 9.96815 670 54.591 1146.02 553.964
1389 0 68.3302 10.4053 711 53.9648 1145.74 551.443
1390 0 72.5527 11.3159 821 53.0438 1145.85 549.441
1391 0 71.7543 11.414 819 52.9145 1146.01 544.801
1392 0 71.6975 11.5485 828 52.9686 1146.09 548.629
1393 0 73.4328 12.6102 926 52.0346 1146.2 547.853
1394 0 74.7993 11.8049 883 53.1065 1146.37 545.614
1395 0 77.4976 11.5229 893 55.2755 1146.47 544.512
1396 0 78.4491 12.5687 986 54.7495 1147.33 541.472
1397 0 80.7273 11.0991 896 55.0547 1146.56 540.921
1398 0 82.042 12.5789 1032 54.1521 1146.75 541.046
1399 0 84.6478 13.633 1154 53.1516 1146.96 540.268
1400 0 85.7338 11.1858 959 55.7633 1147.19 539.552
1401 0 88.9934 13.5516 1206 53.5307 1147.61 539.26
1402 0 90.9517 13.5896 1236 53.6804 1147.51 536.028
1403 0 91.6922 12.7274 1167 54.8646 1148 533.998
1404 0 95.6541 13.4861 1290 53.8574 1148.34 533.179
1405 0 100.774 13.6345 1374 53.1499 1148.71 533.731
1406 0 98.6172 13.0302 1285 54.5642 1148.88 529.749
1407 0 103.797 13.0929 1359 54.5173 1149.34 527.575
1408 0 105.936 13.2722 1406 54.6302 1149.13 525.952
1409 0 107.82 13.6431 1471 54.5432 1149.27 525.625
1410 1 63.3746 10.4143 660 54.9515 1149.62 549.695
1411 0 62.3546 9.78276 610 55.1557 1150.2 549.362
1412 0 65.4658 11.4716 751 53.8109 1150.63 547.125
1413 0 67.4227 11.6726 787 53.3215 1150.17 547.455
1414 0 68.5556 12.5737 862 52.9037 1150.76 544.012
1415 0 69.4729 12.4365 864 52.8611 1150.59 546.432
1416 0 72.3411 12.6761 917 52.5333 1150.68 545.673
1417 0 76.508 13.2927 1017 51.7906 1150.72 543.099
1418 0 77.573 12.427 964 53.2531 1151.04 541.99
1419 0 78.7714 12.0094 946 53.6427 1150.78 542.836
1420 0 81.6241 12.8516 1049 52.4957 1150.25 541.295
1421 0 83.5555 12.8298 1072 52.9729 1150.53 539.052
1422 0 86.4969 12.6594 1095 53.4667 1150.52 537.089
1423 0 88.5896 12.1911 1080 54.4157 1150.83 535.573
1424 0 91.4436 12.7729 1168 53.9392 1150.95 532.97
1425 0 94.4068 13.4736 1272 52.7508 1150.93 532.829
1426 0 96.4765 13.112 1265 53.3913 1150.7 531.977
1427 0 96.4765 12.9669 1251 153.262 1150.72 531.557
1428 0 100.52 12.694 1276 54.2719 1151.42 528.449
1429 0 104.459 14.8097 1547 51.7201 1151.33 527.802
1430 0 109.435 13.2773 1453 53.0895 1150.55 526.407
1431 0 110.408 12.961 1431 53.5947 1150.56 526.58
1432 0 114.439 14.6192 1673 52.0072 1150.4 524.069
1433 0 118.587 13.7705 1633 53.0337 1150.71 520.275
1434 0 122.396 13.4972 1652 53.7373 1150.47 518.679
1435 1 71.1843 10.3394 736 54.966 1151.1 545.963
1436 0 74.2305 10.8446 805 54.3714 1150.47 544.055
1437 0 76.2677 10.6336 811 55.3588 1150.4 544.628
1438 0 77.1761 11.9467 922 54.8959 1150.32 543.87
1439 0 81.1808 11.616 943 55.2269 1150.16 541.507
1440 0 82.2198 12.2842 1010 54.6881 1149.57 538.622
1441 0 86.2049 12.4935 1077 53.6416 1149.08 536.684
1442 0 86.3189 11.8746 1025 54.2049 1149.06 536.145
1443 0 89.4425 11.84 1059 54.1974 1148.67 534.843
1444 0 93.2673 12.8555 1199 53.3561 1149.27 533.925
1445 0 96.3251 12.001 1156 53.9542 1148.97 532.327
1446 0 101.46 13.2368 1343 52.8243 1148.78 528.049
1447 0 104.315 12.1842 1271 54.192 1148.41 527.871
1448 0 107.249 12.6061 1352 53.7345 1148.21 526.925
1449 0 109.204 13.2047 1442 53.5139 1148.02 526.532
1450 0 111.247 12.4768 1388 54.5389 1147.53 525.847
1451 0 115.249 11.5663 1333 55.7074 1147.4 523.235
1452 0 121.268 13.2599 1608 54.0274 1146.92 522.27
1453 0 124.362 13.5813 1689 54.2463 1146.77 521.285
1454 0 127.437 12.6729 1615 55.3467 1146.68 520.393
1455 0 126.191 13.4241 1694 55.8536 1146.64 514.361
1456 0 133.155 13.7509 1831 55.6887 1146.3 514.579
1457 0 137.196 13.0981 1797 56.8024 1146.95 512.321
1458 0 141.182 13.7836 1946 56.388 1146.36 513.59
1459 0 147.249 13.7794 2029 56.4933 1146.77 512.003
1460 0 148.298 13.9314 2066 57.1922 1146.49 507.977
1461 0 154.115 14.3529 2212 57.1637 1146.63 503.051
1462 1 90.0838 11.4449 1031 56.2706 1146.27 539.404
1463 0 92.2315 11.5037 1061 56.7135 1146.52 537.182
1464 0 96.0874 12.447 1196 56.0711 1146.03 536.219
1465 0 96.1072 12.5901 1210 57.3273 1146.46 535.208
1466 0 101.131 13.6259 1378 55.8737 1146.06 536.461
1467 0 104.32 12.6725 1322 57.1014 1145.88 534.033
1468 0 106.228 12.492 1327 57.9857 1145.86 532.164
1469 0 109.141 13.5879 1483 56.7336 1145.95 528.745
1470 0 114.159 13.4199 1532 56.7161 1145.48 528.959
1471 0 117.219 13.3511 1565 56.754 1145.73 523.882
1472 0 121.124 13.0693 1583 56.7492 1145.62 523.97
1473 0 126.234 13.4037 1692 56.5656 1144.91 521.96
1474 0 128.241 12.8196 1644 57.5438 1144.93 520.099
1475 0 132.326 13.4063 1774 56.8625 1144.88 517.923
1476 0 135.381 12.8379 1738 58.0207 1144.38 514.604
1477 0 140.417 13.0255 1829 57.5112 1144.34 512.202
1478 0 145.407 13.0324 1895 57.3066 1144.43 509.668
1479 1 81.2801 12.0325 978 55.2771 1143.94 545.008
1480 0 83.3177 11.9663 997 56.1805 1144.1 541.894
1481 0 85.0868 12.6929 1080 55.7352 1144.13 541.599
1482 0 90.4117 13.0293 1178 55.517 1144.3 541.469
1483 0 93.3812 11.9296 1114 56.8124 1144.81 538.124
1484 0 97.0923 12.689 1232 55.8271 1144.16 536.291
1485 0 97.211 12.1385 1180 57.0339 1144.26 533.724
1486 0 102.276 11.9382 1221 56.8837 1143.98 531.85
1487 0 105.085 12.9324 1359 55.9301 1144.09 531.065
1488 0 107.247 12.0004 1287 57.1709 1143.87 529.259
1489 0 111.327 13.3391 1485 55.6956 1143.86 526.593
1490 0 113.381 12.2684 1391 56.5715 1143.84 528.066
1491 0 118.458 13.4816 1597 55.4296 1144.04 524.874
1492 0 119.328 12.8386 1532 56.701 1143.85 522.172
1493 0 125.249 13.4532 1685 55.511 1144.16 520.462
1494 0 126.412 12.483 1578 56.4341 1144.21 519.47
1495 0 131.279 13.0105 1708 56.0082 1144.33 516.996
1496 0 136.311 13.792 1880 55.6266 1144.84 513.803
1497 0 140.397 12.6784 1780 56.577 1145.15 512.899
1498 1 79.1507 10.1705 805 55.9516 1145.41 542.363
1499 0 85.1667 10.7554 916 55.4541 1145.44 544.337
1500 0 85.1999 10.8568 925 56.5124 1145.42 541.041
1501 0 90.1095 12.3516 1113 55.4115 1145.69 538.541
1502 0 90.2784 13.1814 1190 55.8857 1146.15 537.094
1503 0 94.2878 13.6603 1288 54.2399 1146.24 532.86
1504 0 96.2699 13.3894 1289 55.5493 1146.32 533.784
1505 0 99.2346 14.0274 1392 54.704 1146.53 533.777
1506 0 100.265 12.6863 1272 56.8742 1146.53 531.094
1507 0 103.412 12.7452 1318 57.1783 1146.08 529.056
1508 0 107.207 12.9749 1391 56.7146 1146.3 529.485
1509 0 110.22 12.6565 1395 57.3677 1147.1 526.006
1510 0 111.172 13.4656 1497 56.6246 1147.37 525.283
1511 0 115.158 14.6321 1685 55.3733 1147.69 523.703
1512 0 118.26 13.5803 1606 56.4278 1147.45 521.564
1513 0 122.235 13.4904 1649 57.3511 1147.81 519.246
1514 0 124.184 13.0935 1626 58.7128 1148.22 517.415
1515 0 128.237 13.5686 1740 58.8799 1148.74 517.318
1516 0 133.163 13.1193 1747 59.3091 1149.07 515.872
1517 1 72.1031 9.4032 678 58.9336 1149.07 545.786
1518 0 76.0694 11.6341 885 55.8362 1149.27 544.997
1519 0 77.1491 11.8083 911 56.3952 1149.56 543.135
1520 0 79.2994 12.6357 1002 57.4052 1149.64 540.572
1521 0 82.2767 12.9563 1066 56.9662 1149.27 540.629
1522 0 85.1566 13.0583 1112 57.1448 1149.49 539.442
1523 0 88.2337 12.7842 1128 56.5071 1150.02 538.543
1524 0 90.1444 12.6464 1140 57.2228 1150.67 537.796
1525 0 92.2728 13.6335 1258 55.938 1151.02 535.843
1526 0 97.2211 12.7236 1237 56.2474 1150.79 535.729
1527 0 96.2072 12.5043 1203 56.7082 1150.85 533.865
1528 0 101.173 13.1754 1333 55.7374 1151.13 532.347
1529 0 103.301 13.8236 1428 55.3067 1151.07 531.762
1530 0 106.225 13.4149 1425 55.6561 1151.06 529.439
1531 0 106.277 13.0415 1386 56.7677 1151.03 527.328
1532 0 110.173 12.7617 1406 56.8243 1150.84 528.088
1533 0 115.337 13.8551 1598 55.3029 1150.47 523.084
1534 0 116.206 12.9941 1510 56.757 1150.73 522.575
1535 0 122.203 13.8868 1697 55.4319 1150.5 520.979
1536 0 123.152 13.5361 1667 55.6545 1150.37 518.636
1537 0 129.212 13.3657 1727 55.5559 1149.99 515.69
1538 1 75.0743 11.1889 840 55.631 1149.96 542.429
1539 0 77.1472 11.4845 886 55.579 1149.96 540.569
1540 0 81.1212 12.9189 1048 53.7758 1149.99 539.314
1541 0 81.1672 11.9014 966 55.2547 1150.22 537.978
1542 0 86.1349 12.9912 1119 53.5487 1149.82 538.39
1543 0 88.0783 12.6478 1114 53.6732 1149.43 538.28
1544 0 90.1308 13.5581 1222 53.3977 1149.64 535.065
1545 0 95.1606 13.8608 1319 52.7028 1149.75 534.08
1546 0 98.1709 13.7719 1352 52.5481 1149.79 534.032
1547 0 100.161 13.3784 1340 53.4634 1149.36 532.578
1548 0 102.129 13.5319 1382 53.4573 1149.67 531.421
1549 0 108.373 14.1641 1535 52.3107 1149.81 528.309
1550 0 110.298 13.8715 1530 53.0412 1149.64 525.373
1551 0 113.591 14.5346 1651 52.745 1149.38 526.334
1552 0 117.215 14.0596 1648 53.682 1149.08 522.954
1553 0 119.513 13.9567 1668 53.6829 1149.09 522.046
1554 0 124.87 13.9104 1737 53.928 1148.71 519.577
1555 1 67.5214 12.322 832 53.6538 1148.34 549.333
1556 0 69.5042 12.3302 857 53.7176 1148.46 546.862
1557 0 69.6851 12.6856 884 53.8077 1148.25 545.236
1558 0 71.4379 12.8083 915 54.118 1148.63 543.355
1559 0 73.4848 12.6149 927 54.904 1148.5 543.132
1560 0 76.3933 13.1687 1006 54.2227 1148.61 542.923
1561 0 78.2507 13.6484 1068 54.5131 1148.27 541.328
1562 0 78.6097 13.3953 1053 55.4084 1147.95 540.262
1563 0 81.5115 12.2927 1002 56.4651 1148.24 540.881
1564 0 87.7381 14.0304 1231 54.4842 1148.5 539.268
1565 0 88.8552 13.899 1235 55.5069 1147.59 535.301
1566 0 92.8183 14.092 1308 55.2057 1147.26 534.713
1567 0 95.9236 13.3752 1283 55.947 1147.33 532.265
1568 0 97.5958 14.1809 1384 55.2666 1147.42 533.522
1569 0 102.123 14.1888 1449 55.3561 1147.71 531.238
1570 0 102.52 14.7678 1514 55.5601 1147.31 527.694
1571 0 107.987 14.3257 1547 54.8571 1147.14 527.822
1572 0 110.814 13.8521 1535 56.0997 1147.08 524.134
1573 1 63.7148 12.2734 782 56.8184 1146.56 546.442
1574 0 65.1881 11.7966 769 56.4707 1146.96 548.726
1575 0 68.6319 11.3504 779 57.0205 1147.16 548.163
1576 0 69.1058 12.1987 843 57.2918 1147.09 546.349
1577 0 70.6882 13.4817 953 56.0766 1147.3 546.58
1578 0 72.7568 13.2771 966 56.3447 1146.75 544.796
1579 0 76.763 13.0792 1004 56.3765 1146.05 544.216
1580 0 78.8861 13.5892 1072 56.4114 1146.08 541.728
1581 0 81.0677 13.3222 1080 57.1972 1145.81 538.601
1582 0 84.9171 14.2727 1212 55.8449 1145.58 539.262
1583 0 90.7857 12.6231 1146 57.5113 1145.83 538.792
1584 0 88.8653 13.5598 1205 57.351 1145.41 536.665
1585 0 93.8395 13.96 1310 56.1412 1145.27 536.096
1586 0 96.1274 14.1271 1358 56.3218 1145.49 535.029
1587 0 99.9344 14.1193 1411 56.4543 1145.3 532.747
1588 0 100.876 13.8784 1400 57.2779 1145.17 531.566
1589 0 103.874 13.7378 1427 57.2074 1145.08 530.793
1590 0 105.72 13.9046 1470 57.7952 1144.87 527.922
1591 0 110.511 13.4375 1485 58.1246 1144.8 526.502
1592 0 114.041 13.4075 1529 58.465 1145.22 524.592
1593 1 65.7759 11.2199 738 58.9404 1145.22 549.165
1594 0 65.7759 11.1895 736 175.183 1146.21 549.027
1595 0 69.6669 12.6602 882 57.0125 1144.87 547.659
1596 0 71.5982 13.3663 957 56.4566 1145.07 545.031
1597 0 72.594 12.6732 920 57.8565 1145.14 545.095
1598 0 76.6106 13.301 1019 56.7144 1145.24 542.934
1599 0 78.6661 13.373 1052 56.9173 1145.8 540.729
1600 0 80.4234 13.0186 1047 57.4508 1145.26 540.957
1601 0 83.5643 12.6968 1061 58.032 1145.47 539.906
1602 0 85.6949 13.3147 1141 57.4803 1145.34 538.182
1603 0 88.6955 13.676 1213 56.9678 1145.82 538.232
1604 0 94.633 14.477 1370 55.7686 1146.09 533.818
1605 0 94.5763 13.5446 1281 57.5699 1146.37 532.341
1606 0 98.6238 14.0534 1386 56.7763 1146.38 532.088
1607 0 100.839 13.457 1357 57.8128 1146.6 530.956
1608 0 104.924 13.6003 1427 57.4667 1147.18 528.821
1609 0 105.493 13.6787 1443 58.2758 1147.41 527.483
1610 0 111.529 14.3281 1598 56.9706 1147.22 525.629
1611 0 114.57 14.2359 1631 56.6597 1147.6 523.456
1612 0 116.892 13.782 1611 58.1434 1147.51 520.354
1613 0 119.404 13.827 1651 57.8498 1147.98 520.076
1614 0 123.509 14.8977 1840 56.1848 1147.77 520.072
1615 0 127.578 14.6342 1867 56.9995 1148.02 517.665
1616 0 130.546 14.3627 1875 57.472 1148.23 514.796
1617 0 136.486 14.3678 1961 58.1953 1148.63 510.758
1618 0 139.574 14.3938 2009 58.4943 1149.53 507.923
1619 0 145.617 14.6686 2136 58.074 1149.55 506.702
1620 0 146.471 13.7228 2010 59.4726 1149.99 504.804
1621 1 88.4205 11.434 1011 59.8981 1149.25 535.777
1622 0 90.3843 11.44 1034 60.2476 1149.36 536.063
1623 0 91.3851 11.7087 1070 60.2944 1149.64 534.54
1624 0 93.3843 12.1755 1137 59.905 1149.88 531.775
1625 0 97.4081 13.2535 1291 58.3788 1150.18 531.598
1626 0 101.407 13.5001 1369 58.2206 1149.8 527.631
1627 0 103.398 12.8629 1330 58.8865 1149.81 524.491
1628 0 104.363 12.7152 1327 59.0286 1150.32 525.156
1629 0 108.39 12.9532 1404 58.7913 1150.96 524.059
1630 0 111.284 13.9823 1556 58.09 1151.04 519.672
1631 0 116.386 13.4896 1570 58.2943 1151.04 517.393
1632 0 118.342 13.3849 1584 58.7077 1151.17 516.45
1633 0 122.353 13.4692 1648 59.0316 1150.53 514.254
1634 0 125.371 12.7382 1597 59.9656 1151.03 512.373
1635 0 130.338 13.1964 1720 59.7488 1151.07 512.982
1636 0 136.39 13.7546 1876 58.3204 1151.37 507.314
1637 1 148.401 11.2061 1663 59.9435 1151.18 513.067
1638 0 149.27 12.9832 1938 59.4463 1151.69 506.049
1639 0 147.492 13.2482 1954 60.3721 1151.79 500.818
1640 0 154.566 14.641 2263 58.3243 1151.9 500.932
1641 0 156.593 13.9662 2187 59.2803 1152.46 498.327
1642 0 161.627 13.9704 2258 59.6674 1152.28 494.962
1643 0 166.689 13.6722 2279 60.0711 1151.86 493.131
1644 0 173.696 14.3527 2493 59.5399 1152.14 488
1645 0 179.564 14.6243 2626 59.5076 1151.7 485.018
1646 0 183.621 13.6096 2499 61.1501 1151.52 480.85
1647 0 188.445 13.6061 2564 61.4107 1151.7 479.857
1648 0 194.604 14.0233 2729 60.9685 1151.88 478.478
1649 0 200.755 15.5114 3114 59.7197 1151.91 473.559
1650 0 204.552 14.4707 2960 61.2497 1151.87 469.09
1651 0 212.594 14.0879 2995 61.6614 1151.25 467.97
1652 1 43.1232 7.8612 339 52.6814 1151.01 552.457
1653 0 50.1346 7.2804 365 51.5616 1150.95 556.137
1654 0 48.0447 6.84779 329 53.1429 1150.59 554.073
1655 0 48.042 8.70071 418 51.4737 1149.85 552.734
1656 0 50.1293 9.11642 457 50.3895 1149.65 553.136
1657 0 50.1324 9.11586 457 50.9891 1149.76 553.53
1658 0 52.059 9.12427 475 51.2716 1150.55 550.714
1659 0 54.074 9.32056 504 50.5714 1149.53 552.631
1660 0 54.085 10.2246 553 51.1212 1149.9 552.163
1661 0 56.1908 9.30757 523 52.4742 1150.56 552.488
1662 0 57.2124 9.75313 558 50.9767 1149.66 553.487
1663 0 56.2005 10.3202 580 50.4879 1149.8 552.797
1664 0 56.1546 8.33413 468 51.8782 1150.06 552.066
1665 0 58.1523 9.73305 566 49.2845 1150.6 554.009
1666 0 57.2071 9.1597 524 49.6069 1149.94 553.641
1667 0 59.1514 8.46979 501 48.1936 1150.16 552.224
1668 0 63.1411 8.61562 544 47.8952 1150.52 553.079
1669 1 44.0522 9.62494 424 47.8939 1151.22 559.314
1670 0 46.036 9.49258 437 48.1396 1151.16 559.494
1671 0 42.0415 9.39548 395 49.4835 1151.06 561.089
1672 0 43.068 9.10189 392 50.2551 1150.96 561.217
1673 0 45.0375 10.1027 455 49.3912 1150.51 561.088
1674 0 43.0833 9.81819 423 50.6619 1150.94 559.374
1675 0 45.0245 9.57257 431 51.1183 1150.53 559.35
1676 0 45.0872 10.3355 466 50.9485 1150.23 561.843
1677 0 45.0888 9.78069 441 52.9773 1150.52 559.859
1678 0 46.0194 10.3435 476 53.3761 1150.43 560.708
1679 0 47.0573 10.2641 483 53.2878 1150.3 560.393
1680 0 46.0097 10.2804 473 53.6998 1150.32 560.85
1681 0 45.0351 10.6139 478 54.2385 1150.13 559.814
1682 0 48.0625 10.8609 522 52.5364 1150.27 560.176
1683 0 48.082 11.314 544 53.0827 1149.86 559.281
1684 0 49.0524 10.6825 524 52.6927 1150.36 558.613
1685 0 51.0372 10.6001 541 53.0074 1149.53 558.506
1686 0 49.0925 10.1034 496 54.5766 1149.26 558.702
1687 0 50.0392 11.2512 563 53.373 1148.98 558.446
1688 0 51.0312 10.7189 547 53.8775 1149.46 558.673
1689 0 52.1129 12.4154 647 53.2767 1147.16 558.796
1690 0 52.2666 12.2641 641 54.1903 1146.68 559.573
1691 0 49.1563 11.8398 582 55.6735 1146.81 558.476
1692 0 51.2238 12.0061 615 54.9837 1146.69 558.992
1693 0 53.0772 11.9072 632 53.2753 1147 560.049
1694 0 51.1056 12.0339 615 52.852 1146.9 560.907
1695 0 52.0891 12.6898 661 52.2088 1145.89 560.95
1696 0 51.1892 12.405 635 52.8126 1146.19 560.477
1697 0 51.1617 11.9425 611 53.8347 1145.91 560.606
1698 0 53.1635 11.8126 628 53.1752 1145.93 559.245
1699 0 49.1281 11.012 541 55.6617 1146.15 561.303
1700 0 50.061 11.6458 583 54.9708 1145.72 561.724
1701 0 51.214 11.2079 574 55.0714 1144.93 561.817
1702 0 51.0758 11.4927 587 55.1295 1145.31 560.126
1703 0 51.1633 11.2385 575 55.2191 1145.02 561.174
1704 0 51.1594 11.7672 602 54.5797 1144.63 561.213
1705 0 50.1278 11.1714 560 56.5107 1144.38 560.207
1706 0 52.177 11.4993 600 55.5317 1145.63 561.058
1707 0 52.0727 11.2535 586 55.7918 1145.13 560.703
1708 0 51.1573 11.8654 607 55.5651 1144.98 560.043
1709 0 52.2034 11.551 603 55.0547 1145 559.934
1710 0 51.0972 12.0359 615 55.2455 1145.08 559.872
1711 0 50.1339 11.2499 564 56.1046 1145.2 560.199
1712 0 54.1172 11.6229 629 54.5692 1145.05 561.267
1713 0 52.1463 11.6403 607 54.9885 1145.25 560.231
1714 0 53.1027 11.2235 596 55.505 1145.68 559.503
1715 0 53.1989 11.4664 610 54.5246 1145.72 560.064
1716 0 51.1913 10.9784 562 55.6317 1145.93 560.014
1717 0 51.1076 11.3486 580 55.8621 1146 559.116
1718 0 53.1568 11.5695 615 54.3187 1146.07 559.909
1719 0 53.1327 11.2737 599 54.7462 1145.83 559.726
1720 0 52.1386 11.1242 580 55.0793 1146.3 559.122
1721 0 54.1632 11.2992 612 54.5294 1146.47 559.706
1722 0 53.193 10.6969 569 55.6098 1146.33 557.805
1723 0 54.1191 11.4377 619 54.6624 1146.38 559.577
1724 0 54.1543 11.3934 617 54.1118 1146.74 558.976
1725 0 54.1543 11.338 614 153.262 1146.73 558.919
1726 0 54.184 12.3653 670 53.9881 1147.19 556.815
1727 0 53.1728 11.7918 627 54.2105 1147.01 558.9
1728 0 54.166 11.5571 626 53.7923 1147.32 557.684
1729 0 55.2227 11.8067 652 52.3252 1147.5 559.144
1730 0 53.2019 11.447 609 53.0755 1147.67 559.302
1731 0 54.1231 12.4161 672 51.8616 1147.76 556.08
1732 0 53.1184 11.4273 607 52.71 1148.34 557.957
1733 0 56.1262 12.2403 687 50.4629 1148.48 557.224
1734 0 56.1456 11.7373 659 51.4446 1148.66 557.141
1735 0 56.1046 12.7797 717 51.5132 1148.93 557.835
1736 0 55.0962 11.3075 623 54.5008 1149.34 556.071
1737 0 56.1422 12.0231 675 53.5763 1149.44 556.142
1738 0 54.1166 11.1426 603 55.0779 1149.77 557.194
1739 0 54.157 11.042 598 54.7759 1149.74 556.167
1740 0 55.0648 11.2595 620 54.3032 1150.06 556.318
1741 0 57.1287 12.6031 720 51.9042 1150.19 556.101
