time division length width area intensity CMx CMy
0 0 37.0467 9.63648 357 61.7703 1366.99 574.65
1 0 41.0228 9.65316 396 62.0278 1366.68 573.533
2 0 44.0188 8.63267 380 61.9421 1366.92 574
3 0 44.02 11.2222 494 61.6802 1366.66 572.138
4 0 46.0939 11.6935 539 61.8219 1366.25 571.753
5 0 46.0267 11.4933 529 63.1871 1366.85 569.586
6 0 48.1523 11.6505 561 61.8467 1366.66 569.362
7 0 51.1391 11.6936 598 60.8829 1366.4 569.346
8 0 51.1783 11.8605 607 62.3245 1366.89 567.746
9 0 54.1075 12.4012 671 61.2772 1366.77 566.489
10 0 54.1452 11.8016 639 62.9249 1366.9 566.56
11 0 57.234 12.1606 696 62.1092 1367.23 565.892
12 0 58.264 11.7568 685 62.7124 1367.61 564.228
13 0 61.2593 12.4389 762 60.4396 1367.51 564.22
14 0 62.0994 12.6249 784 60.2334 1367.78 563.545
15 0 65.2099 12.2067 796 61.2299 1367.81 562.097
16 0 64.359 11.9486 769 62.2029 1368.07 561.987
17 0 69.3103 12.6532 877 60.4515 1367.13 559.729
18 0 72.4753 12.9423 938 60.08 1367.18 558.779
19 0 73.5207 12.2414 900 60.2344 1367.35 558.821
20 0 73.5207 12.2823 903 157.803 1367.36 558.725
21 0 79.4195 12.5536 997 59.8074 1367.03 555.237
22 0 81.563 13.2903 1084 58.8386 1366.99 552.772
23 0 82.6565 12.3039 1017 60.885 1367.71 554.117
24 0 86.5829 13.155 1139 59.7726 1367.47 551.212
25 0 91.723 13.4208 1231 59.182 1367.43 549.876
26 1 48.4466 11.3321 549 60.3734 1367.34 571.732
27 0 46.3051 10.474 485 62.4536 1367.23 569.979
28 0 50.5808 12.1983 617 60.1167 1367.5 567.561
29 0 51.4195 11.3965 586 61.413 1368.29 567.548
30 0 53.3187 11.5344 615 59.9171 1368.25 567.301
31 0 53.4577 12.2714 656 60.1341 1368.43 568.005
32 0 55.3221 12.8882 713 59.3885 1367.87 567.191
33 0 57.2403 12.2816 703 59.6771 1368.36 567.131
34 0 58.2834 11.4612 668 61.259 1368.26 564.737
35 0 60.1484 11.8374 712 60.4719 1368.15 563.76
36 0 62.3175 12.5005 779 59.8151 1368.74 562.82
37 0 65.1795 13.2097 861 58.403 1368.51 561.407
38 0 66.2118 12.5657 832 59.4351 1368.77 560.559
39 0 67.1497 13.7305 922 58.9013 1368.47 558.529
40 0 69.4525 12.4258 863 59.927 1368.76 559.593
41 0 72.44 12.8796 933 59.4373 1368.72 558.443
42 0 75.2891 12.9899 978 59.1513 1368.77 556.529
43 0 78.3321 13.2385 1037 58.7358 1368.48 554.401
44 0 79.2717 13.2077 1047 58.1452 1368.78 554.83
45 0 83.4208 13.4619 1123 57.4363 1368.95 552.247
46 0 86.3341 12.8454 1109 58.3625 1369.54 550.628
47 0 88.4103 12.8944 1140 58.4105 1369.54 550.323
48 0 90.3639 13.2132 1194 58.2504 1369.06 547.577
49 0 94.3073 13.2015 1245 57.9711 1369.33 547.16
50 0 99.485 13.5397 1347 57.1366 1369.4 546.624
51 0 101.382 13.0596 1324 58.3444 1369.62 542.944
52 1 52.1898 10.1552 530 58.9019 1369.3 568.091
53 0 54.319 12.1504 660 56.597 1369.15 568.77
54 0 54.1934 12.2524 664 57.5015 1368.16 566.476
55 0 55.1616 12.3093 679 51.4683 1368.92 564.81
56 0 59.2461 12.5409 743 52.4388 1368.58 565.822
57 0 59.2065 12.0257 712 53.2992 1368.71 565.902
58 0 62.1947 12.3805 770 52.926 1368.57 564.605
59 0 64.267 12.7593 820 52.5024 1368.67 564.128
60 0 66.2019 13.1718 872 53.2179 1368.65 562.251
61 0 68.3482 13.0801 894 54.0962 1369.18 559.874
62 0 71.1891 12.6002 897 54.5418 1369.06 559.485
63 0 73.3226 12.0972 887 55.5964 1368.3 558.746
64 0 76.4804 13.5983 1040 54.5096 1369 555.729
65 0 78.2564 12.3824 969 56.29 1368.82 554.493
66 0 80.3082 12.3773 994 56.9074 1369.12 552.04
67 0 83.441 12.6077 1052 56.8489 1369.58 551.32
68 0 87.4495 13.3105 1164 56.1761 1369.58 551.605
69 1 46.1791 9.98286 461 56.5683 1369.13 572.08
70 0 47.3 10.8668 514 56.1109 1368.56 571.508
71 0 47.2383 10.9022 515 57.5534 1369.37 569.647
72 0 50.2686 11.6972 588 56.3435 1369.66 569.912
73 0 51.2516 12.1362 622 56.9711 1370.27 567.404
74 0 53.2253 11.7425 625 57.448 1369.95 566.52
75 0 56.447 11.9758 676 56.6139 1370.56 566.124
76 0 57.4842 12.1599 699 56.8498 1371.46 564.755
77 0 58.3425 12.5466 732 56.6626 1371.69 562.881
78 0 60.4107 12.3488 746 56.8941 1371.24 562.442
79 0 60.4883 11.8535 717 58.0293 1371.6 560.399
80 0 63.3905 12.6202 800 57.4 1371.98 559.926
81 0 64.3871 11.493 740 58.727 1371.88 560.088
82 0 66.448 12.8672 855 58.0865 1372.05 557.316
83 0 68.4274 13.0503 893 57.981 1372.6 557.12
84 0 69.4822 12.8234 891 59.1582 1373.1 555.193
85 0 73.5053 13.0467 959 58.6882 1373.16 553.859
86 0 74.3862 12.8115 953 59.3914 1373.11 552.587
87 0 77.4968 12.7489 988 59.1356 1373.01 551.486
88 0 79.4758 12.0288 956 58.091 1373.28 551.884
89 0 83.3205 12.5299 1044 56.6715 1373.57 548.72
90 0 83.3205 12.6019 1050 167.635 1373.57 548.76
91 1 45.2088 9.97594 451 60.5344 1373.2 567.14
92 0 46.1884 10.9551 506 62.3617 1373.54 565.198
93 0 47.2633 11.2561 532 60.8008 1373.43 564.688
94 0 50.1838 11.0593 555 58.2468 1374.2 563.387
95 0 51.1263 11.4814 587 56.615 1374.02 562.155
96 0 52.1707 10.5998 553 56.5154 1374.14 562.183
97 0 55.1133 12.2294 674 78.9347 1373.86 560.073
98 0 55.1452 11.8777 655 54.7206 1373.29 560.221
99 0 57.0689 12.2133 697 54.1205 1372.9 561.007
100 0 58.1522 10.9712 638 57.1426 1373.17 558.063
101 0 60.1266 11.1099 668 59.5629 1373.82 555.783
102 0 63.1696 11.477 725 57.1779 1373.34 557.251
103 0 64.1573 12.2667 787 56.5197 1373.87 555.83
104 0 65.0946 12.382 806 57.6117 1374.29 551.666
105 0 68.2722 11.8496 809 58.33 1374.27 551.22
106 0 69.2637 11.9399 827 58.9565 1374.64 550.515
107 0 70.2297 11.6617 819 60.4151 1374.31 550.807
108 0 73.2307 12.6177 924 61.0812 1374.88 550.03
109 0 75.4567 12.0466 909 59.5831 1375.63 548.932
110 0 79.3423 12.402 984 58.1839 1375.13 547.038
111 0 81.4605 12.7424 1038 55.8834 1375.22 547.746
112 1 43.4554 10.7236 466 55.1288 1374.57 563.755
113 0 43.2008 10.0693 435 57.4759 1375.62 563.455
114 0 46.1502 11.0292 509 56.1611 1375.27 562.847
115 0 46.3715 10.5668 490 57.3265 1375.14 562.282
116 0 50.2838 11.972 602 57.2492 1374.84 560.894
117 0 50.3262 11.9024 599 57.2755 1375.48 558.745
118 0 54.4324 12.9519 705 55.0539 1375.07 559.105
119 0 55.3371 12.2522 678 56.3599 1375.35 557.423
120 0 56.2574 13.6515 768 55.1497 1375.32 556.156
121 0 57.3908 12.0577 692 56.2731 1375.17 556.883
122 0 59.0945 12.5223 740 55.7676 1374.71 554.378
123 0 60.3467 12.6436 763 55.4246 1373.98 554.936
124 0 62.3459 13.0402 813 55.1095 1373.84 553.886
125 0 62.4054 11.6817 729 56.2195 1373.3 554.874
126 0 63.3511 11.8861 753 56.5073 1373.43 552.543
127 0 65.3883 12.6628 828 55.4143 1373.62 552.901
128 0 66.5387 11.3768 757 56.7332 1374.08 552.408
129 0 68.4223 12.0867 827 56.2914 1373.62 551.218
130 0 69.5977 11.5665 805 57.3019 1372.93 549.317
131 0 73.6789 12.2287 901 56.3862 1373.51 546.788
132 0 77.5842 12.7217 987 55.5795 1373.47 544.779
133 0 79.4799 12.9592 1030 55.7515 1373.83 545.251
134 0 80.4529 12.6285 1016 56.1772 1374.27 541.681
135 1 41.255 10.5442 435 56.2575 1373.58 561.483
136 0 43.3151 10.112 438 56.9315 1373.97 559.66
137 0 44.1403 11.1236 491 55.947 1373.87 560.798
138 0 45.0448 10.323 465 57.3441 1373.86 560.331
139 0 50.099 11.9164 597 55.0469 1373.49 559.702
140 0 48.0424 11.4899 552 56.933 1373.25 560.342
141 0 51.1091 12.5614 642 55.7165 1373.13 558.907
142 0 51.1231 11.0909 567 57.5661 1373.06 558.783
143 0 53.1785 12.2042 649 57.4114 1372.36 556.225
144 0 54.2072 12.526 679 57.0869 1372.26 558.356
145 0 57.2189 12.356 707 57.0891 1372.37 556.675
146 0 57.1065 13.0983 748 57.1658 1372.4 555.88
147 0 59.1459 13.2385 783 57.3014 1372.18 555.244
148 0 61.2831 12.4667 764 58.3089 1372.77 553.092
149 0 63.2386 12.2236 773 58.4761 1372.83 554.647
150 0 68.2222 13.4414 917 57.4253 1373.14 550.914
151 0 68.2222 13.4853 920 150.087 1374.14 550.895
152 0 69.1884 13.1814 912 59.1469 1372.7 550.758
153 0 71.1669 13.5737 966 58.8634 1372.71 550.415
154 0 73.297 12.77 936 60.0726 1372.81 548.046
155 0 74.026 12.7793 946 60.8478 1372.6 547.21
156 0 79.2985 12.7871 1014 60.1874 1372.34 546.994
157 0 80.3571 13.2658 1066 60.318 1372.91 544.915
158 0 84.3333 13.2213 1115 60.0646 1371.95 543.313
159 0 87.3628 14.0449 1227 59.0041 1372.39 541.899
160 0 90.2315 13.7424 1240 59.7524 1372.55 539.657
161 0 91.3642 12.9482 1183 61.1344 1372.22 538.566
162 0 96.2271 13.0732 1258 60.5048 1372.62 538.688
163 0 99.2672 12.7635 1267 61.5249 1372.3 535.923
164 0 101.164 13.315 1347 61.6496 1373.05 532.428
165 1 53.0992 10.2261 543 62.4567 1373.3 555.72
166 0 55.0578 11.0066 606 60.6584 1373.05 557.285
167 0 59.1176 13.803 816 57.9375 1373.01 554.668
168 0 59.122 11.434 676 61.0858 1373.2 554.967
169 0 61.1252 12.6298 772 59.5091 1373.57 554.337
170 0 65.1428 12.5263 816 59.1164 1373.74 553.121
171 0 65.1428 12.5877 820 156.629 1373.74 553.127
172 0 69.1054 12.7776 883 59.564 1374.12 549.572
173 0 71.1441 12.5098 890 60.1 1374.01 547.325
174 0 73.2173 12.2649 898 60.6826 1373.87 545.889
175 0 76.1707 13.4435 1024 59.1699 1374 545.658
176 0 77.1145 12.9677 1000 60.313 1374.31 544.607
177 0 79.058 12.7628 1009 60.8771 1374.15 542.559
178 0 83.1135 12.14 1009 61.2527 1374.04 539.544
179 0 86.1614 12.8132 1104 60.3605 1374.25 538.285
180 0 90.0559 12.2702 1105 60.7611 1374.92 537.632
181 0 93.1589 12.5699 1171 60.6832 1374.8 536.962
182 0 97.1149 13.2729 1289 59.9876 1375.18 533.31
183 0 98.0415 12.4437 1220 61.1254 1375.34 532.451
184 1 53.0526 10.631 564 60.1277 1375.24 556.144
185 0 53.0526 10.5744 561 154.037 1375.25 556.105
186 0 57.0834 10.6161 606 60.0099 1375.51 551.47
187 0 58.1439 11.7467 683 59.1874 1375.8 550.884
188 0 61.0686 11.4461 699 59.3534 1376.23 549.28
189 0 62.1143 11.7686 731 59.1929 1375.91 546.964
190 0 67.1321 12.6467 849 57.5689 1375.96 547.608
191 0 67.0572 12.2731 823 59.4168 1375.75 546.118
192 0 70.0495 12.6054 883 58.6772 1376.47 543.905
193 0 71.1559 12.2126 869 57.7089 1376.46 544.419
194 0 72.1596 12.2922 887 56.7306 1376.62 541.649
195 0 77.069 12.2877 947 55.83 1376.54 541.384
196 0 76.0684 11.3713 865 58.6127 1376.55 540.269
197 0 82.1013 13.2641 1089 56.7071 1376.95 538.061
198 0 84.0899 12.5223 1053 57.8898 1377.15 536.143
199 0 88.075 12.3077 1084 57.5867 1377.05 535.036
200 0 90.1271 12.5489 1131 57.5897 1377.69 532.348
201 0 93.1595 12.3122 1147 57.5719 1377.48 529.352
202 1 48.0281 9.28623 446 56.8229 1377.16 552.397
203 0 49.064 9.82391 482 55.7344 1377.14 554.757
204 0 51.0892 10.648 544 55.6562 1377.77 555.053
205 0 55.0739 11.2758 621 54.8341 1378.09 551.932
206 0 56.0615 11.862 665 56.3564 1377.55 550.865
207 0 57.1094 10.5762 604 57.5166 1377.69 549.421
208 0 60.0757 10.7032 643 56.9969 1377.52 551.32
209 0 63.0496 12.625 796 54.8668 1377.72 550.028
210 0 64.0759 11.2523 721 57.2594 1377.52 546.198
211 0 66.0571 11.1116 734 56.7275 1377.48 546.696
212 0 69.0983 13.6906 946 54.5729 1377.32 544.416
213 0 70.1172 11.2811 791 57.8293 1377.18 543.082
214 0 71.0456 10.6411 756 58.623 1377.34 542.812
215 0 76.0722 12.3567 940 57.2968 1376.18 541.236
216 0 77.0649 11.9899 924 57.7727 1376.25 539.135
217 0 79.2761 11.9456 947 58.0982 1376.35 538.66
218 0 83.1963 11.7914 981 58.5831 1376.15 537.328
219 0 85.2675 11.5636 986 59.3682 1376.51 535.785
220 0 88.19 11.9741 1056 59.4062 1376.18 534.019
221 1 43.135 8.2068 354 60.6808 1375.41 555.102
222 0 46.0944 9.06835 418 59.0981 1375.05 556.801
223 0 48.1814 10.4605 504 58.1806 1374.99 554.81
224 0 49.0602 10.1508 498 58.1185 1374.4 554.9
225 0 52.0803 10.791 562 57.9324 1374.59 552.375
226 0 53.1454 12.5128 665 57.0602 1375.28 551.726
227 0 56.1923 11.9055 669 57.4858 1375.38 552.453
228 0 54.2316 10.9899 596 59.0084 1375.29 552.787
229 0 58.266 13.404 781 56.0935 1374.9 549.871
230 0 62.1188 13.1361 816 55.9093 1375.06 550.732
231 0 62.2278 12.2293 761 57.9054 1375.07 550.231
232 0 62.3788 12.1355 757 58.539 1375.48 549.543
233 0 68.3141 12.3401 843 57.1198 1375.54 549.476
234 0 66.2403 11.3979 755 59.7563 1375.51 546.42
235 0 69.2977 12.4391 862 58.8109 1375.27 546.555
236 0 71.1937 12.6416 900 58.8722 1375.09 545.166
237 0 73.173 12.081 884 59.6199 1375.08 544.655
238 0 76.2125 13.0294 993 59.0504 1374.65 543.363
239 0 79.2954 12.8507 1019 59.0412 1374.91 541.541
240 0 79.2828 13.0041 1031 59.7585 1374.98 539.208
241 0 82.1851 12.8977 1060 60.0245 1374.81 538.052
242 0 86.3534 12.9584 1119 60.588 1374.16 538.197
243 0 88.3459 12.1115 1070 61.3112 1373.78 539.445
244 0 92.3888 14.2117 1313 59.1538 1374.45 535.608
245 0 94.3764 13.87 1309 59.4072 1374.67 535.778
246 0 98.3508 13.462 1324 59.5929 1374.51 535.685
247 0 102.221 13.6077 1391 60.0079 1374.77 533.046
248 0 103.322 13.8983 1436 59.8155 1374.22 531.901
249 0 105.328 12.8741 1356 61.115 1374.49 530.139
250 1 59.1049 11.2004 662 58.2372 1374.67 554.663
251 0 62.3171 10.7996 673 59.1189 1374.34 553.297
252 0 63.2102 11.1691 706 59.3569 1374.31 551.541
253 0 63.1687 11.6513 736 59.197 1373.96 550.53
254 0 65.361 11.6277 760 58.9316 1374.15 550.036
255 0 72.1728 12.5393 905 58.9359 1374.2 549.912
256 0 72.2965 12.9744 938 58.5874 1373.93 550.53
257 0 72.2965 13.0435 943 157.493 1373.92 550.506
258 0 77.1701 13.3471 1030 58.868 1373.72 547.319
259 0 81.1192 12.5001 1014 59.6667 1373.28 544.877
260 0 83.1139 12.8859 1071 59.4725 1373.2 545.432
261 0 84.1555 12.5482 1056 60.5256 1373.49 543.468
262 0 86.146 12.6646 1091 61.1366 1373.53 540.899
263 0 90.1047 12.2635 1105 61.1077 1373.2 541.044
264 0 94.2027 13.1843 1242 60.529 1373.12 537.512
265 0 97.1828 12.9961 1263 60.2827 1372.94 537.337
266 0 99.1724 13.0682 1296 61.463 1372.83 534.56
267 0 101.253 12.8293 1299 62.2171 1372.85 533.474
268 0 103.086 12.6787 1307 62.8929 1372.12 532.894
269 0 107.148 13.7007 1468 61.8188 1372.98 530.324
270 1 58.0495 9.83643 571 63.2382 1373.07 555.089
271 0 59.0985 10.9986 650 62.3031 1373.5 552.825
272 0 62.098 12.0294 747 60.9023 1373.63 553.154
273 0 62.0782 12.3232 765 61.251 1373.09 553.529
274 0 62.096 12.0459 748 62.4332 1373.07 551.591
275 0 64.149 12.8451 824 61.8786 1373.61 550.345
276 0 68.1156 12.3173 839 62.0393 1373.32 548.84
277 0 70.1116 12.4801 875 61.7851 1373.26 546.106
278 0 74.1532 13.2563 983 60.1994 1373.43 546.31
279 0 74.0826 12.675 939 61.6752 1373.4 545.574
280 0 78.1906 12.9555 1013 61.6426 1374.35 542.347
281 0 79.0948 12.6178 998 62.4449 1374.29 541.226
282 0 82.1393 13.3067 1093 61.1464 1374.52 542.611
283 0 83.1346 13.1594 1094 62.5101 1374.63 537.675
284 0 87.0811 12.9764 1130 62.9566 1374.77 538.932
285 1 47.0361 10.6939 503 61.2644 1374.27 559.509
286 0 47.0466 10.3939 489 62.3579 1374.72 558.996
287 0 46.0585 11.0294 508 61.9921 1375.33 558.48
288 0 50.1126 11.7136 587 62.6405 1375.49 555.131
289 0 50.1173 11.6726 585 62.5966 1375.93 554.426
290 0 53.1394 12.9847 690 62.1304 1375.89 555.406
291 0 54.1518 11.9848 649 63.3991 1376.11 554.328
292 0 54.1078 12.5121 677 63.5569 1376.57 552.802
293 0 59.1326 12.3621 731 62.5513 1376.67 552.921
294 0 60.3162 12.5837 759 62.9223 1376.92 550.63
295 0 61.1296 12.907 789 63.0025 1377.24 549.243
296 0 62.179 12.3354 767 63.7275 1377.12 549.609
297 0 64.122 12.8505 824 63.2269 1377.31 548.175
298 0 64.1743 13.401 860 63.2047 1377.47 545.128
299 0 69.1867 13.0083 900 62.5933 1377.38 546.036
300 0 71.2848 13.2146 942 61.8747 1377.14 546.345
301 0 72.2532 13.2451 957 61.9822 1377.36 544.411
302 0 73.3155 13.1077 961 62.7378 1377.07 542.93
303 0 74.1527 12.7979 949 63.4679 1377.86 541.339
304 0 77.1543 13.985 1079 61.8536 1377.65 541.735
305 0 80.2456 13.3714 1073 62.8099 1377.34 537.932
306 0 82.2531 13.1424 1081 62.1018 1377.53 540.308
307 0 85.087 12.7399 1084 63.0055 1377.88 535.896
308 0 87.143 13.7475 1198 62.0492 1378.24 533.683
309 0 90.1532 13.466 1214 62.2183 1377.83 532.825
310 0 91.1974 12.5113 1141 63.6897 1377.61 532.979
311 1 48.0809 10.9607 527 61.5636 1377.38 554.812
312 0 46.0301 10.4714 482 62.0187 1377.62 555.205
313 0 48.1443 11.5071 554 60.9188 1378.51 551.597
314 0 50.1046 11.456 574 60.9355 1378.48 550.927
315 0 51.1377 12.0459 616 61.6169 1377.75 552.245
316 0 52.1604 11.5797 604 62.3924 1377.76 551.358
317 0 56.0869 12.6589 710 60.6197 1377.87 550.377
318 0 58.1617 13.2562 771 59.9313 1377.92 551.097
319 0 58.1127 12.5618 730 61.2767 1378.13 549.086
320 0 60.0973 13.2951 799 60.4393 1377.47 547.433
321 0 61.0596 13.7571 840 60.2798 1377.56 547.415
322 0 64.1869 13.3361 856 60.4895 1377.28 547.353
323 0 66.0771 12.667 837 61.8722 1377.36 545.133
324 0 68.0697 13.7506 936 60.6325 1377.69 545.241
325 0 71.099 13.9946 995 60.5307 1376.96 545.422
326 0 73.113 13.6775 1000 61.597 1377.48 542.535
327 0 77.14 12.9764 1001 62.033 1377.5 540.625
328 0 78.1098 13.5834 1061 61.9227 1377.62 540.669
329 0 84.0951 13.7107 1153 61.7398 1377.69 538.337
330 0 83.1357 13.8809 1154 62.4879 1377.14 537.577
331 0 85.0428 13.3815 1138 63.2302 1376.89 535.893
332 0 90.1229 14.2028 1280 62.2078 1376.32 533.009
333 0 91.1347 13.9464 1271 62.8214 1376.25 534.501
334 0 96.2103 14.697 1414 61.5636 1376.29 532.87
335 0 98.0919 13.783 1352 63.0666 1376.22 529.839
336 0 100.263 14.0829 1412 62.6048 1376.28 528.117
337 0 104.154 13.4128 1397 63.0243 1376.47 527.289
338 1 56.0756 11.1813 627 61.5694 1376 552.783
339 0 57.1453 10.3596 592 61.5811 1376 552.652
340 0 60.078 11.5184 692 60.5795 1375.79 550.435
341 0 61.0466 12.7116 776 59.8454 1375.65 549.081
342 0 64.2366 11.0685 711 61.1997 1374.73 548.113
343 0 63.0695 12.399 782 60.5882 1374.53 547.65
344 0 65.0913 12.7667 831 60.3574 1374.77 545.001
345 0 69.0994 12.6629 875 59.5874 1373.82 547.373
346 0 72.0943 12.7333 918 59.7364 1373.91 544.573
347 0 72.2011 12.4513 899 61.0056 1374.25 541.238
348 0 76.097 12.9046 982 59.7617 1373.8 542.755
349 0 79.1577 12.6835 1004 60.2181 1373.25 540.077
350 0 83.1436 12.4363 1034 59.794 1373.39 541.728
351 0 84.1721 13.1041 1103 60.0553 1372.09 538.252
352 0 87.1384 13.5761 1183 59.3939 1372.89 536.831
353 0 91.2109 13.562 1237 59.1108 1372.23 535.73
354 0 95.1696 13.5127 1286 59.2885 1371.84 535.116
355 0 98.2981 13.8558 1362 58.4332 1372.61 535.562
356 1 51.046 11.4994 587 57.8688 1371.53 556.768
357 0 53.0296 12.4836 662 57.2795 1371.98 554.612
358 0 55.076 11.2209 618 58.6181 1371.93 554.327
359 0 57.1467 12.1092 692 58.7052 1372.09 554.777
360 0 57.0918 11.1224 635 60.2646 1372.02 554.031
361 0 59.1028 11.6746 690 60.3768 1372.69 550.878
362 0 63.1118 13.072 825 57.9576 1373.25 551.628
363 0 66.1719 13.4951 893 57.5375 1373.58 549.305
364 0 66.0748 12.4858 825 58.8764 1373.62 548.148
365 0 67.0697 13.0461 875 58.6011 1373.61 548.613
366 0 68.0759 12.7358 867 60.331 1374.28 545.478
367 0 73.1371 12.8663 941 59.4846 1373.7 544.797
368 0 75.1232 12.1933 916 60.4072 1374.04 545.905
369 0 75.1382 13.2023 992 60.5817 1374.06 545.589
370 0 78.2801 12.813 1003 61.7228 1374.6 541.653
371 0 83.1226 13.823 1149 60.0827 1374.98 540.433
372 0 82.1777 12.838 1055 61.9251 1375.59 537.823
373 0 87.0863 12.7804 1113 61.4438 1375.32 538.553
374 0 89.143 12.2836 1095 62.0795 1375.39 538.721
375 1 48.0731 10.38 499 60.4609 1374.94 558.421
376 0 47.0419 9.75727 459 60.8214 1374.83 557.253
377 0 52.0328 10.724 558 58.5556 1375.54 555.884
378 0 51.0513 10.5776 540 59.1648 1376.34 553.394
379 0 55.1665 12.3263 680 56.8338 1376.16 554.154
380 0 54.079 12.4078 671 57.9359 1376.9 551.951
381 0 56.0692 11.9138 668 58.4596 1377.4 551.793
382 0 60.2196 12.1057 729 57.5761 1377.19 552.324
383 0 60.2333 11.5053 693 59.0289 1377.42 549.332
384 0 61.085 10.821 661 59.1831 1377.59 548.844
385 0 63.126 11.4691 724 58.9917 1377.73 546.497
386 0 67.1738 11.2693 757 57.782 1378.13 548.446
387 0 70.13 12.377 868 57.2869 1377.91 546.03
388 0 72.1592 12.708 917 57.4177 1378.04 544.234
389 0 73.0987 12.5447 917 57.5932 1377.74 543.08
390 0 75.0573 12.9901 975 57.4574 1378.54 540.751
391 0 77.1425 12.7427 983 57.3754 1378.01 541.963
392 0 80.1624 12.4871 1001 57.8372 1378.62 540.159
393 0 82.1235 11.7993 969 58.7348 1379.04 538.776
394 0 87.181 12.388 1080 57.8167 1378.62 537.356
395 0 87.1495 12.2204 1065 58.6854 1379.26 532.338
396 1 48.0276 9.8485 473 57.0888 1378.44 554.165
397 0 48.0458 9.80314 471 57.9703 1378.87 552.025
398 0 51.0554 11.1252 568 55.8433 1379.08 552.6
399 0 51.041 10.7952 551 56.3103 1379.31 551.935
400 0 53.0146 10.8838 577 56.3241 1379.27 551.109
401 0 54.1374 11.1937 606 56.7987 1379.56 550.003
402 0 59.129 12.2275 723 54.6888 1379.6 551.008
403 0 58.0972 11.2398 653 56.124 1380.01 550.686
404 0 60.2021 12.1757 733 55.8417 1379.51 548.357
405 0 63.2032 12.088 764 55.8063 1379.38 548.085
406 0 62.2506 11.9035 741 57.2659 1379.59 545.383
407 0 66.1806 12.7228 842 56.5071 1378.87 544.405
408 0 69.0877 12.39 856 56.4217 1378.79 544.869
409 0 72.2894 12.3808 895 56.7073 1378.66 544.069
410 0 71.0975 12.7993 910 57.4538 1378.41 541.521
411 0 74.0832 13.2284 980 57.1602 1378.64 540.612
412 0 77.239 13.1928 1019 57.3768 1379.36 536.848
413 0 81.1721 12.7507 1035 57.6783 1378.68 539.495
414 0 81.0941 11.8258 959 59.4046 1378.43 537.16
415 0 84.1762 12.3907 1043 59.4564 1378.76 536.686
416 0 88.3879 13.5991 1202 58.0907 1378.47 534.266
417 0 90.2158 12.2041 1101 60.0718 1378.14 532.566
418 0 95.2535 13.1649 1254 58.7097 1378.55 532.687
419 1 48.0905 9.00386 433 58.1801 1377.17 555.598
420 0 49.0448 10.1948 500 58.36 1377.09 554.16
421 0 49.1802 10.8987 536 57.4403 1377.01 553.918
422 0 52.0553 10.6425 554 58.1516 1377.08 552.98
423 0 55.0893 11.8353 652 56.3742 1377.43 553.41
424 0 55.1083 11.5409 636 58.173 1377.92 552.525
425 0 58.1193 11.8893 691 57.0564 1377.94 550.706
426 0 58.1584 11.2967 657 57.9756 1377.81 550.005
427 0 61.1751 12.2272 748 56.4051 1377.2 550.532
428 0 63.0532 13.0683 824 55.3277 1377.28 548.419
429 0 65.119 13.5137 880 55.6557 1376.47 547.92
430 0 66.2082 12.6722 839 56.6186 1376.13 547.857
431 0 69.0816 13.4623 930 55.9237 1376.29 545.544
432 0 71.1879 13.6119 969 55.4159 1374.96 547.558
433 0 73.117 12.8835 942 55.8163 1375.81 545.656
434 0 74.176 13.832 1026 55.0088 1375.85 543.205
435 1 39.0357 10.0933 394 55.7817 1375.48 561.34
436 0 39.0186 9.20074 359 56.8579 1375.31 559.281
437 0 44.0558 10.7364 473 54.5455 1375.79 559.63
438 0 45.0883 11.8878 536 53.6679 1375.97 557.946
439 0 46.1044 11.7559 542 53.9742 1375.4 559.264
440 0 47.0665 12.0043 565 55.5469 1375.44 558.453
441 0 48.1114 11.9722 576 55.1632 1375.64 557.679
442 0 50.1869 11.5568 580 56.1466 1375.73 556.488
443 0 52.2773 12.5102 654 54.8425 1375.85 556.133
444 0 51.1336 12.1838 623 56.3965 1375.96 554.613
445 0 55.1777 12.9219 713 54.8794 1376.21 555.938
446 0 57.1726 12.9782 742 54.9919 1375.96 554.823
447 0 57.2268 13.0883 749 55.1242 1376.21 554.154
448 0 59.1115 12.7555 754 55.805 1376.65 552.944
449 0 62.2476 12.5145 779 56.1438 1376.34 551.782
450 0 65.1285 13.9263 907 54.6913 1375.91 551.487
451 0 65.1924 13.5599 884 55.6414 1375.95 550.822
452 0 66.2744 12.8556 852 56.7711 1375.68 548.962
453 0 72.214 14.5678 1052 54.251 1375.63 548.781
454 0 71.2394 12.5492 894 57.1208 1376.33 547.953
455 0 76.4749 14.0177 1072 54.9058 1375.88 546.371
456 0 78.442 14.3673 1127 55.1544 1375.4 543.594
457 0 83.2567 14.0049 1166 56.3542 1375.86 543.434
458 1 42.1472 10.2498 432 58.6921 1374.14 563.975
459 0 44.1859 10.5916 468 56.3697 1374.15 563.895
460 0 44.0966 9.91006 437 57.4279 1374.37 561.238
461 0 45.0839 11.6228 524 55.5115 1374.02 559.651
462 0 48.0856 12.2074 587 54.9114 1374.04 560.796
463 0 49.0596 11.6389 571 55.7478 1374.57 559.056
464 0 49.0596 11.6389 571 155.641 1374.57 559.056
465 0 52.0626 11.5822 603 57.0498 1374.52 557.045
466 0 53.1261 11.9715 636 56.9953 1374.24 557.558
467 0 56.1112 12.6713 711 56.1266 1374.58 556.262
468 0 57.0242 11.8371 675 57.9052 1374.45 556.199
469 0 58.0707 12.1748 707 57.8614 1374.27 555.547
470 0 59.0824 11.5093 680 59.0912 1375.06 555.426
471 0 60.2072 12.2078 735 58.751 1375.73 554.365
472 0 62.3762 12.2643 765 59.298 1375.86 552.769
473 0 64.0953 13.948 894 57.3233 1375.14 553.808
474 0 65.0844 12.4915 813 60.0012 1375.55 551.801
475 0 65.1867 12.2418 798 61.0025 1375.54 550.633
476 0 68.2607 12.2032 833 61.0732 1375.64 551.574
477 0 71.3367 13.1489 938 59.8337 1375.87 550.176
478 0 72.125 13.5598 978 59.5992 1375.71 549.6
479 0 74.1688 13.0109 965 60.6808 1376 547.793
480 0 78.136 13.9244 1088 59.1002 1375.74 547.269
481 0 81.1286 13.608 1104 60.5281 1375.73 543.866
482 0 83.1015 12.9119 1073 61.37 1375.52 542.683
483 0 86.1031 13.6813 1178 60.4304 1375.62 540.592
484 0 89.1967 13.0386 1163 60.9011 1375.94 542.99
485 1 44.0227 10.9716 483 60.619 1375.2 561.749
486 0 42.0676 10.0552 423 63.2719 1375.27 561.898
487 0 47.0359 12.1184 570 59.6053 1375.2 562.123
488 0 47.172 11.7654 555 61.4108 1376.15 559.814
489 0 48.1121 11.5355 555 61.1171 1376.88 559.355
490 0 49.0376 12.154 596 61.5436 1376.36 558.874
491 0 51.1048 12.308 629 61.2766 1376.33 558.472
492 0 54.0642 12.0042 649 61.7519 1375.63 558.515
493 0 55.0703 13.2739 731 60.8509 1375.73 556.233
494 0 59.0899 12.4556 736 60.9226 1375.98 557.056
495 0 58.0655 12.6065 732 62.1257 1376.17 555.018
496 0 60.1628 13.8624 834 60.3405 1376.22 553.032
497 0 61.221 12.8551 787 62.0203 1376.31 551.629
498 0 63.089 12.8548 811 62.1751 1376.04 550.936
499 0 65.0624 13.9097 905 60.6597 1376.26 550.811
500 0 66.12 14.0956 932 61.0644 1376.87 550.579
501 0 67.2259 12.5547 844 63.6813 1376.55 549.135
502 0 73.3527 14.0145 1028 60.6449 1376.55 549.321
503 0 71.1673 13.0397 928 63.4375 1377.03 545.537
504 0 73.1021 12.9818 949 64.1307 1377.03 544.229
505 0 76.152 13.1316 1000 64.124 1376.57 543.064
506 0 78.1257 12.7103 993 64.6687 1377.2 542.318
507 0 82.3125 13.6067 1120 63.675 1377.29 540.033
508 0 84.2384 13.5924 1145 63.31 1376.53 541.797
509 0 84.2384 13.5568 1142 167.169 1375.53 541.711
510 1 46.2079 11.9244 551 62.7096 1376.75 560.555
511 0 45.045 11.6772 526 64.3574 1376.66 556.603
512 0 46.0624 11.9186 549 63.98 1376.69 557.876
513 0 49.0813 11.6541 572 64.3042 1376.86 557.101
514 0 52.0536 12.8521 669 61.6353 1376.56 557.846
515 0 54.092 12.0535 652 62.9862 1376.31 556.334
516 0 56.1092 13.1173 736 61.9389 1376.59 553.91
517 0 59.1158 12.7546 754 60.443 1376.31 554.052
518 0 59.1031 12.8081 757 60.7226 1376.33 552.638
519 0 60.0669 12.3196 740 62.1297 1376.65 551.445
520 0 63.041 12.8964 813 61.4662 1376.59 549.999
521 0 65.1521 12.6934 827 61.5998 1376.92 551.43
522 0 67.0945 13.25 889 61.4893 1377.31 548.188
523 0 71.2116 13.9724 995 59.9186 1377.22 545.932
524 0 72.2948 13.3343 964 61.4544 1376.61 545.106
525 0 74.2964 11.8444 880 63.2761 1376.96 544.282
526 0 78.2412 12.7171 995 62.0734 1377.47 542.637
527 0 79.1758 12.8448 1017 62.4789 1376.93 541.428
528 1 42.1504 10.1304 427 61.5995 1376.58 559.885
529 0 43.1058 10.8106 466 61.7189 1376.43 559.803
530 0 46.1474 10.9215 504 61.3056 1375.98 559.492
531 0 47.0804 11.8945 560 60.8214 1376.03 558.461
532 0 49.1374 12.4752 613 60.3834 1376.25 556.799
533 0 50.139 11.5878 581 61.3632 1376.81 555.539
534 0 53.1889 11.8258 629 59.8569 1376.78 555.917
535 0 55.2679 12.6656 700 58.8643 1376.94 554.26
536 0 54.1076 12.2164 661 59.5174 1377.34 553.068
537 0 54.0474 10.9719 593 60.4503 1377.64 551.634
538 0 61.0922 11.6218 710 58.4437 1377.47 551.58
539 0 58.1107 11.8739 690 59.6797 1377.56 547.849
540 0 61.1052 11.292 690 59.4957 1377.16 549.667
541 0 62.0852 11.2426 698 60.4857 1377.16 547.415
542 0 66.1864 12.1928 807 59.6332 1377.43 544.58
543 0 67.1146 12.2924 825 59.6982 1376.83 544.937
544 0 70.1099 13.6215 955 58.0649 1376.81 543.864
545 0 74.162 13.066 969 58.8442 1376.5 544.992
546 0 74.1533 13.3642 991 58.9233 1376.58 543.601
547 0 76.0949 12.8655 979 59.9704 1376.14 540.961
548 0 77.1371 12.3806 955 60.8021 1376.57 539.854
549 0 80.1324 12.1174 971 61.2812 1376.5 539.729
550 0 82.1086 13.2751 1090 60.7936 1376.37 539.209
551 0 85.1872 14.0749 1199 60.1426 1376.94 537.592
552 0 86.1428 12.3516 1064 62.7199 1376.91 538.341
553 0 90.1108 13.4723 1214 61.5395 1376.52 538.467
554 0 91.1361 13.3646 1218 62.6437 1376.91 536.133
555 0 94.1132 13.3031 1252 63.5647 1376.47 533.225
556 0 97.1146 13.6437 1325 63.4536 1376.34 531.464
557 0 101.141 13.5948 1375 63.5549 1376.1 531.481
558 0 103.136 13.8846 1432 63.4679 1376.52 529.855
559 1 58.1546 10.5065 611 64.0164 1376.32 554.151
560 0 59.0764 10.7657 636 64.011 1376.17 551.814
561 0 61.1143 12.8121 783 62.2733 1376.25 549.644
562 0 65.2348 11.5889 756 62.463 1376.46 549.661
563 0 66.1395 12.0956 800 61.9937 1375.85 549.636
564 0 71.1216 13.0903 931 60.7304 1375.69 546.199
565 0 72.169 13.4545 971 60.5994 1375.66 545.602
566 0 73.1875 11.8463 867 62.8397 1375.36 545.294
567 0 78.1741 12.8687 1006 61.0099 1376.07 543.808
568 0 80.216 13.0024 1043 60.837 1375.98 542.709
569 0 86.1748 12.0801 1041 60.6225 1375.42 541.856
570 1 44.047 9.28553 409 60.4059 1374.93 560.323
571 0 43.0684 9.51975 410 60.8415 1374.95 559.451
572 0 45.0612 11.2958 509 58.5403 1374.85 559.925
573 0 47.1248 11.9046 561 58.0588 1375.16 557.936
574 0 49.2303 12.6345 622 58.8489 1374.4 558.912
575 0 51.1332 12.2817 628 59.3583 1374.5 558.441
576 0 52.1215 12.1063 631 60.3217 1374.54 556.686
577 0 54.2334 12.6859 688 58.6221 1374.24 555.972
578 0 54.0787 11.2799 610 60.0656 1374.56 555.793
579 0 58.1698 12.7214 740 57.8338 1374.48 554.314
580 0 60.1841 13.3258 802 57.4913 1374.11 553.815
581 0 61.1128 13.696 837 57.2007 1374.3 552.795
582 0 63.1748 13.4864 852 57.4354 1374.25 551.671
583 0 65.1787 12.3046 802 58.8254 1373.72 552.69
584 0 67.2011 12.4849 839 58.7509 1373.62 550.33
585 0 70.4668 13.5241 953 57.914 1373.54 549.242
586 0 71.216 13.3678 952 58.5158 1373.6 549.257
587 0 73.4848 13.4313 987 58.6403 1373.45 547.475
588 0 76.3642 14.0511 1073 57.8919 1373.24 546.869
589 0 79.2439 13.3512 1058 58.6938 1373.3 545.892
590 0 81.2832 13.9881 1137 57.9701 1373.07 544.963
591 0 83.3938 12.7468 1063 59.556 1373.3 544.873
592 0 87.3704 13.3226 1164 58.9141 1373.9 541.93
593 0 88.4727 13.4392 1189 59.2161 1373.38 541.538
594 0 93.2979 13.5266 1262 58.2029 1373.49 541.97
595 1 46.1453 12.0706 557 57.4075 1372.58 563.806
596 0 50.2031 11.8519 595 56.8672 1372.38 561.729
597 0 52.4136 12.9547 679 56.2739 1373.33 559.898
598 0 54.3426 13.7093 745 55.6161 1373.38 559.883
599 0 55.1998 12.8805 711 57.1913 1373.19 559.733
600 0 55.1138 12.5195 690 57.8246 1373.18 558.446
601 0 57.2052 13.2156 756 56.0212 1372.54 558.224
602 0 62.1793 13.5736 844 55.577 1372.76 556.507
603 0 61.2023 12.5649 769 56.6918 1372.8 556.285
604 0 64.1815 13.2281 849 55.2214 1372.81 554.996
605 0 66.2868 13.9545 925 54.453 1372.93 555.238
606 0 66.3051 12.714 843 56.3321 1373.11 553.268
607 0 71.1255 12.9208 919 56.84 1373.46 552.197
608 0 73.2643 13.5127 990 57.0354 1373.27 551.162
609 0 73.144 13.3025 973 58.555 1373.65 549.07
610 0 75.1279 13.2042 992 58.4335 1373.57 548.684
611 0 76.1442 12.7653 972 59.9187 1372.76 546.796
612 0 82.1529 14.4852 1190 56.8101 1373.23 545.895
613 0 83.0952 13.8997 1155 58.8069 1373.63 543.668
614 1 40.1297 10.8149 434 59.6959 1373.16 564.878
615 0 41.1331 11.4506 471 58.9448 1373.47 564.512
616 0 43.1551 12.0032 518 58.7915 1373.39 564.515
617 0 45.2172 12.3626 559 57.8676 1373.95 562.868
618 0 45.1243 12.0777 545 58.556 1373.52 563.442
619 0 47.0643 11.3462 534 59.4944 1373.65 562.032
620 0 49.1325 13.1278 645 56.9349 1373.4 561.149
621 0 49.1393 12.0677 593 59.0556 1373.3 560.934
622 0 47.1971 13.2211 624 58.9231 1373.42 560.62
623 0 51.1185 12.1091 619 59.4927 1373.43 559.885
624 0 54.0995 13.8633 750 57.7107 1373.51 558.364
625 0 54.1569 12.4269 673 60.1278 1373.82 557.578
626 0 58.1569 13.3604 777 58.0322 1373.71 556.394
627 0 58.1617 13.5828 790 58.9114 1374.2 556.661
628 0 62.2022 14.0188 872 58.07 1373.93 554.953
629 0 61.0829 13.1461 803 60.33 1374.1 555.189
630 0 66.163 13.0284 862 59.8364 1374.2 553.573
631 0 67.1004 12.444 835 60.1126 1374.1 552.328
632 0 68.1126 13.7713 938 58.7377 1374.23 551.994
633 0 72.1165 13.6862 987 58.8825 1374.3 550.454
634 0 75.1385 13.362 1004 59.1494 1374.59 548.026
635 0 76.2607 13.5456 1033 58.6989 1374.71 547.264
636 1 43.1892 11.4612 495 59.2263 1374.57 564.651
637 0 43.1854 12.2727 530 58.7849 1374.82 563.498
638 0 44.0968 11.7242 517 59.0039 1375.24 563.507
639 0 46.124 12.2062 563 59.1226 1375.46 561.361
640 0 46.2337 12.3503 571 59.0018 1374.98 561.937
641 0 47.0751 12.7243 599 58.9199 1375.24 560.117
642 0 50.2631 13.111 659 57.651 1375.07 561.05
643 0 51.1843 13.2072 676 58.8861 1375.48 557.41
644 0 54.08 12.9808 702 58.1097 1375.44 558.446
645 0 56.0484 13.3991 751 58.2956 1375.7 556.973
646 0 57.0867 13.2605 757 58.6605 1376.02 555.354
647 0 60.1369 13.9016 836 57.805 1375.64 555.048
648 0 60.1313 13.4871 811 58.6326 1375.88 551.996
649 0 63.0431 13.8635 874 57.8513 1375.81 553.292
650 0 64.1306 14.143 907 58.2613 1375.78 550.982
651 0 67.1345 13.9571 937 58.1451 1375.75 550.369
652 0 67.1345 14.0613 944 167.089 1375.73 550.375
653 0 71.1154 13.5414 963 59.2015 1375.96 548.729
654 0 74.1065 13.602 1008 59.1726 1375.81 545.666
655 0 78.1878 13.6083 1064 58.9812 1376.43 544.778
656 1 38.0583 11.062 421 62.3373 1376.23 561.686
657 0 41.073 11.9056 489 60.6053 1376.23 561.599
658 0 42.0245 12.9924 546 59.5842 1376.37 560.63
659 0 44.0544 13.6422 601 58.4393 1376.47 560.097
660 0 42.1002 12.0189 506 61.9842 1376.61 558.026
661 0 45.0296 13.0359 587 59.9353 1376.94 557.596
662 0 50.076 13.4595 674 58.2626 1376.79 556.653
663 0 49.1285 13.3731 657 59.4216 1376.82 554.388
664 0 48.1585 13.1649 634 60.2476 1376.82 554.653
665 0 54.0771 12.6301 683 59.836 1377.32 552.587
666 0 57.3182 13.8525 794 57.7217 1377.63 552.584
667 0 55.1867 13.2278 730 59.2795 1377.51 551.189
668 0 58.1289 13.1088 762 59.7323 1377.54 550.109
669 0 61.1084 12.4042 758 59.6069 1377.75 550.264
670 0 61.3382 13.2055 810 59.5901 1377.58 547.423
671 0 65.2694 12.977 847 59.6281 1377.98 545.803
672 0 67.1305 12.8854 865 59.8936 1378.03 543.775
673 0 71.1322 14.1567 1007 57.9881 1378.08 542.253
674 0 73.1703 13.8444 1013 59.3929 1378.5 540.154
675 0 76.1413 13.4093 1021 59.763 1378.81 540.107
676 0 82.1638 12.9741 1066 59.5375 1378.7 538.607
677 0 82.1924 13.3102 1094 59.5293 1378.69 538.743
678 1 42.0597 10.7228 451 59.612 1378.62 558.503
679 0 42.0436 11.4881 483 60.3313 1379.13 556.828
680 0 42.0798 12.1674 512 60.1738 1378.77 554.182
681 0 47.0889 12.6994 598 58.413 1379.18 554.247
682 0 49.1801 12.8711 633 58.4566 1379.8 552.009
683 0 50.1744 13.2338 664 58.2093 1379.71 552.627
684 0 48.3644 12.7987 619 60.4313 1379.91 550.097
685 0 53.2454 12.865 685 59.2204 1379.53 551.375
686 0 56.1917 14.7887 831 56.8773 1379.64 549.656
687 0 55.478 14.4201 800 57.7062 1379.41 550.43
688 0 57.6137 13.3649 770 59.1597 1379.61 548.643
689 0 58.3286 12.8925 752 60.8165 1379.45 546.406
690 0 61.4185 12.8789 791 60.665 1379.34 545.502
691 0 63.3373 13.5307 857 59.6079 1379.67 545.349
692 0 65.3148 13.8254 903 59.9934 1379.66 541.494
693 0 70.5037 15.5027 1093 57.3751 1379.8 541.023
694 0 68.4111 13.6089 931 61.1053 1378.85 539.281
695 0 73.2241 14.4625 1059 59.3541 1379.23 540.031
696 0 74.2346 14.2925 1061 59.9369 1379.74 539.257
697 0 74.2346 14.2925 1061 164.048 1380.74 539.257
698 0 82.3114 14.0321 1155 59.7403 1378.86 535.329
699 0 82.3258 13.568 1117 61.3035 1378.94 532.912
700 0 86.296 14.3576 1239 59.9233 1378.55 532.242
701 0 89.3106 13.6154 1216 60.676 1378.03 532.725
702 0 89.375 13.0909 1170 62.4171 1377.88 530.593
703 0 93.3825 13.9426 1302 60.7911 1378.04 531.045
704 0 97.3195 14.8583 1446 60.175 1378.05 527.284
705 0 98.1993 14.1345 1388 60.9993 1377.78 528.165
706 0 103.404 13.839 1431 61.3592 1377.4 523.111
707 0 106.3 14.6849 1561 59.8507 1377.01 525.856
708 0 109.288 13.7343 1501 61.4211 1376.84 520.689
709 0 114.121 13.9413 1591 60.2772 1376.97 523.449
710 0 118.473 14.2564 1689 60.0752 1376.04 518.601
711 1 62.0967 10.2904 639 61.3161 1376.58 545.43
712 0 66.0755 11.6533 770 59.7468 1376.7 545.145
713 0 66.0448 11.3862 752 60.4269 1376.59 544.926
714 0 67.1253 11.635 781 60.6761 1376.45 542.995
715 0 69.0857 10.8127 747 61.3748 1376.54 541.946
716 0 72.1314 11.895 858 60.148 1376.87 540.333
717 0 75.1436 11.6976 879 60.3538 1376.48 538.534
718 0 75.1072 11.0908 833 60.9184 1376.01 538.951
719 0 80.2117 11.8187 948 59.9251 1376.1 537.979
720 0 83.0718 11.9776 995 59.2513 1376.16 536.542
721 0 85.1718 11.5883 987 60.0193 1375.94 536.933
722 0 89.1123 12.8153 1142 58.7084 1375.21 534.704
723 0 89.1476 12.5298 1117 59.6876 1375.16 536.017
724 0 93.0517 12.1653 1132 59.9426 1375.81 533.737
725 0 94.2172 12.2165 1151 61.5074 1375.58 529.247
726 0 98.14 12.9713 1273 59.022 1375.21 530.39
727 0 102.182 13.0551 1334 58.6709 1375.46 530.537
728 0 106.2 12.919 1372 59.879 1375.45 526.494
729 0 108.149 13.8513 1498 58.5594 1375.25 525.289
730 0 113.086 12.6453 1430 59.5084 1374.77 525.043
731 0 117.18 12.9202 1514 59.4762 1374.5 522.482
732 0 119.243 13.418 1600 58.8419 1375.01 519.381
733 0 124.181 13.3756 1661 58.3757 1374.85 517.724
734 1 67.1104 10.2518 688 56.25 1374.25 547.935
735 0 70.0919 10.6146 744 56.0349 1373.43 544.222
736 0 74.0429 12.4117 919 54.6953 1373.25 543.395
737 0 75.1989 11.197 842 55.8694 1374.24 545.833
738 0 77.3354 11.4566 886 56.079 1374.89 543.393
739 0 81.3295 11.9022 968 55.25 1374.29 539.747
740 0 84.3933 11.2094 946 55.4545 1374.58 541.892
741 0 90.2827 10.8548 980 55.5806 1374.35 540.726
742 0 89.3358 11.0594 988 55.9322 1373.71 537.905
743 0 92.3448 11.8252 1092 55.3919 1374.06 534.867
744 0 97.3222 10.3368 1006 55.9414 1373.46 537.888
745 1 51.2158 9.31354 477 54.9434 1373.38 556.568
746 0 51.1942 10.0011 512 53.7305 1373.2 557.816
747 0 52.1912 10.3849 542 54.6421 1372.85 554.568
748 0 54.2484 11.0049 597 54.4858 1371.09 558.637
749 0 56.2594 10.3805 584 55.4658 1371.6 556.872
750 0 58.2088 10.7029 623 54.3997 1371.05 557.091
751 0 58.1849 10.8276 630 55.0889 1371.18 555.616
752 0 62.2093 11.7346 730 54.3137 1371.3 553.649
753 0 64.2087 10.8085 694 55.6772 1370.81 553.733
754 0 65.2067 10.6584 695 56.7928 1371.19 551.137
755 0 68.1453 11.4608 781 55.7657 1371.39 550.84
756 0 68.2237 11.0519 754 56.4721 1371.52 551.398
757 0 69.1748 10.4951 726 57.5262 1371.52 551.964
758 0 74.158 11.2058 831 56.5247 1372.04 547.96
759 0 76.2397 11.2802 860 56.3244 1371.65 548.536
760 0 82.1053 11.7532 965 55.2684 1371.46 544.369
761 0 85.1156 12.5124 1065 53.338 1371.63 542.834
762 0 88.0954 11.8621 1045 53.9215 1372.15 540.81
763 1 47.0826 9.409 443 52.4921 1372.1 562.007
764 0 48.0917 9.60664 462 52.9264 1372.23 561.775
765 0 49.1502 9.66425 475 53.3158 1371.93 560.935
766 0 53.1778 11.076 589 53.4329 1371.17 560.907
767 0 51.1507 11.1045 568 55.8908 1371.52 559.694
768 0 55.3381 12.3423 683 53.7526 1371.53 560.572
769 0 55.2915 11.4846 635 55.0724 1371.26 558.687
770 0 59.2457 11.984 710 53.9831 1371.4 558.668
771 0 60.3002 12.4378 750 54.1053 1371.05 556.865
772 0 61.1876 13.1072 802 53.9264 1371.32 557.089
773 0 63.2194 11.0251 697 56.1564 1371.13 557.505
774 0 62.199 11.6079 722 56.1745 1370.77 556.942
775 0 64.2335 11.8941 764 56.0838 1370.87 555.834
776 0 66.2882 12.9737 860 55.6488 1371.44 554.433
777 0 68.2016 11.3487 774 57.8734 1371.28 555.234
778 0 70.2742 12.7358 895 56.7073 1371.66 552.391
779 0 70.2091 12.42 872 57.9713 1371.95 551.351
780 0 73.2201 12.5785 921 57.9902 1372.03 549.417
781 1 35.1562 8.90313 313 62.1406 1370.63 568.626
782 0 35.1562 8.96002 315 182.222 1370.56 568.746
783 0 42.0738 10.03 422 58.6303 1371.46 568.164
784 0 42.0738 10.0538 423 172.421 1372.43 568.028
785 0 43.103 10.7417 463 59.676 1371.78 565.598
786 0 42.1007 10.7124 451 61.357 1371.95 565.146
787 0 44.1708 11.0933 490 62.7245 1372.87 562.243
788 0 46.1675 12.4113 573 59.9337 1372.87 563.22
789 0 47.3814 12.1989 578 60.5225 1372.57 560.77
790 0 47.3814 12.1989 578 173.087 1372.57 560.77
791 0 49.4145 12.7898 632 60.663 1373.65 560.097
792 0 53.2586 12.3736 659 60.4568 1373.19 560.325
793 0 55.3712 13.0393 722 59.7202 1373.6 557.193
794 0 58.361 14.4274 842 56.8919 1373.87 554.416
795 0 60.3341 14.5357 877 56.6967 1373.53 554.414
796 0 59.4303 14.2688 848 58.6215 1373.66 553.812
797 0 62.3422 14.645 913 56.7448 1373.76 552.508
798 0 61.2765 13.4472 824 59.9078 1374.25 552.055
799 0 63.3251 13.3596 846 60.0544 1374.33 552.882
800 0 63.1609 12.7611 806 61.3424 1374.39 552.62
801 0 66.2343 13.2711 879 59.0512 1374.61 550.432
802 0 66.1325 13.6544 903 58.4131 1374.71 550.832
803 0 70.245 14.0651 988 57.4727 1374.56 550.675
804 0 70.116 13.0641 916 58.8712 1374.33 548.805
805 0 73.162 12.8345 939 58.7881 1374.34 547.707
806 0 75.1865 12.9411 973 58.6485 1374.47 547.29
807 0 76.3579 12.7819 976 57.8945 1374.07 546.951
808 0 78.0807 13.3452 1042 57.4674 1374.72 543.34
809 0 83.1795 13.0801 1088 57.3575 1374.79 544.514
810 0 84.146 12.609 1061 58.3299 1375.45 543.083
811 0 84.1882 12.6502 1065 58.7286 1375.89 541.174
812 1 43.0919 10.2107 440 60.0477 1375.91 560.932
813 0 45.0946 10.1121 456 59.8487 1376.05 560.711
814 0 47.1129 11.292 532 59.235 1376.28 558.979
815 0 47.2339 10.9879 519 59.9268 1375.57 556.83
816 0 50.2546 10.9841 552 58.4764 1375.2 557.844
817 0 52.0484 12.2578 638 56.9749 1376 556.752
818 0 54.0465 11.8417 640 57.1 1375.38 556.683
819 0 56.0653 12.5211 702 56.4373 1375.55 555.648
820 0 58.0653 11.8487 688 57.1366 1375.79 554.983
821 0 57.1378 12.8286 733 55.4679 1374.93 555.801
822 0 62.0673 12.9537 804 54.9602 1374.74 554.345
823 0 63.0202 12.615 795 55.5509 1374.34 552.39
824 0 68.0966 10.632 724 56.5014 1374.75 553.351
825 0 70.1842 13.3363 936 53.6357 1374.77 551.809
826 0 71.0599 12.6795 901 55.0011 1374.94 550.05
827 0 71.0349 13.2611 942 54.638 1374.99 549.535
828 0 74.0974 11.8493 878 56.2027 1374.55 547.048
829 0 77.1858 12.7873 987 55.306 1375.29 546.063
830 0 79.2124 12.7 1006 55.4632 1374.88 544.269
831 0 84.3088 12.7982 1079 55.405 1375.23 543.434
832 0 86.1862 13.3316 1149 55.114 1375.29 543.601
833 0 85.1585 11.8485 1009 57.1516 1375.21 541.263
834 0 85.1585 11.825 1007 163.272 1375.2 541.263
835 1 47.0719 10.6858 503 55.9662 1374.15 560.37
836 0 49.0357 11.4203 560 54.0768 1373.96 559.562
837 0 50.2233 11.7077 588 53.5935 1373.45 560.794
838 0 50.2233 11.6878 587 159.98 1372.48 560.804
839 0 52.1031 12.6864 661 54.3676 1373.05 557.595
840 0 55.3181 13.1241 726 53.314 1373.56 557.183
841 0 55.3181 13.0879 724 159.347 1374.53 557.177
842 0 59.1771 11.8965 704 53.8224 1373.15 558.139
843 0 60.0989 11.4644 689 54.688 1373.81 556.122
844 0 62.0951 12.1749 756 54.1429 1373.46 554.251
845 0 64.1315 11.3361 727 55.205 1373.44 552.82
846 0 66.1381 12.9577 857 53.6569 1373.21 552.707
847 0 68.1054 12.5394 854 54.7728 1373.33 550.273
848 0 70.0721 12.587 882 54.7585 1373.61 549.659
849 0 73.1648 12.465 912 54.5625 1373.86 551.552
850 0 74.2851 12.3578 918 55.3551 1373.83 549.532
851 0 78.2306 12.7827 1000 54.703 1373.23 548.833
852 1 40.0716 10.5062 421 55.5653 1373.56 567.169
853 0 41.0866 11.6583 479 56.3027 1374.23 564.645
854 0 44.5492 11.4929 512 56.2793 1375.1 564.521
855 0 46.3314 11.5257 534 56.2266 1374.62 564.034
856 0 46.2904 12.0327 557 56.2226 1375.04 562.752
857 0 48.2705 11.7256 566 57.0565 1374.51 561.576
858 0 51.3017 11.7735 604 56.8924 1374.41 561.679
859 0 52.3123 12.4254 650 55.8831 1374 560.554
860 0 53.3204 11.8341 631 56.6482 1374.04 560.556
861 0 55.3519 11.4359 633 57.5134 1374.22 558.962
862 0 55.1476 11.6959 645 58.0791 1373.73 558.422
863 0 56.1962 12.6877 713 57.8934 1374.12 557.661
864 0 58.2653 13.7475 801 56.9738 1374.23 556.547
865 0 60.1848 11.9465 719 59.3908 1374.4 555.704
866 0 61.2392 11.5939 710 60.2423 1373.83 555.738
867 0 63.1634 12.9189 816 59.1299 1374.04 552.942
868 0 66.4469 12.6417 840 58.7179 1374.28 554.173
869 0 67.2287 12.7327 856 60.4509 1374.57 550.807
870 0 69.5039 12.3878 861 60.7967 1373.49 551.519
871 0 72.3949 12.5561 909 60.538 1373.35 551.857
872 0 73.6737 12.6097 929 61.5576 1372.64 547.738
873 0 76.379 12.7391 973 61.1326 1373.17 546.439
874 1 41.5393 9.67758 402 62.204 1372.89 563.781
875 0 41.5799 10.6061 441 61.771 1373.32 563.222
876 0 41.6176 10.6686 444 62.0135 1373.25 561.75
877 0 43.8079 10.683 468 60.9594 1372.76 560.261
878 0 41.2327 10.8894 449 61.5791 1373.12 559.706
879 0 43.3453 11.0739 480 61.2792 1372.28 560.892
880 0 45.0998 12.1065 546 60.0842 1373.26 560.956
881 0 45.0866 12.9307 583 59.3859 1373.32 560.628
882 0 46.0746 11.8938 548 60.3905 1372.82 560.276
883 0 47.1763 11.6796 551 61.0817 1373.28 559.817
884 0 48.1152 10.6827 514 61.2257 1372.97 558.765
885 0 50.0462 11.4894 575 60.4209 1373.28 558.459
886 0 50.0532 11.7875 590 60.6339 1374.34 556.624
887 0 53.1949 12.52 666 59.3348 1375.09 555.36
888 0 55.0439 12.6445 696 59.5187 1374.77 555.175
889 0 56.0895 12.177 683 60.5432 1374.51 554.081
890 0 57.321 13.8169 792 58.452 1374.32 552.154
891 0 60.129 13.8037 830 60.2759 1374.62 550.899
892 0 64.0849 13.1388 842 84.6295 1373.77 552.994
893 0 63.1557 13.6171 860 58.2279 1374.75 547.795
894 0 64.2174 12.9093 829 59.8697 1374.77 550.068
895 0 66.1913 12.4185 822 61.438 1375.13 548.401
896 0 68.1873 13.2429 903 60.2957 1375.03 546.204
897 0 70.4136 13.3497 940 59.7511 1375.19 546.383
898 0 73.1158 12.3776 905 61.3901 1375.88 542.278
899 0 77.1223 13.8092 1065 58.5249 1375.92 542.727
900 0 79.3213 13.3381 1058 59.0813 1376.1 540.655
901 0 80.3355 13.3316 1071 59.8506 1376.09 539.018
902 0 77.222 12.3022 950 61.6684 1376.13 540.413
903 0 78.1615 11.0412 863 63.2375 1376.12 540.48
904 1 47.2127 10.6751 504 60.3294 1376.14 557.313
905 0 47.1828 11.6568 550 60.5545 1376.03 556.045
906 0 49.1203 12.9274 635 59.1071 1376.01 554.861
907 0 50.1139 11.7532 589 60.3922 1375.84 555.163
908 0 54.2446 11.6878 634 59.4432 1376.05 554.522
909 0 56.1046 12.8332 720 58.3694 1375.76 553.329
910 0 56.1696 11.9638 672 59.6979 1375.68 554.446
911 0 56.0583 13.5395 759 58.776 1375.96 553.611
912 0 59.2879 11.5707 686 60.9534 1376.04 553.569
913 0 59.154 12.0195 711 60.8172 1376.39 552.28
914 0 60.0408 13.0078 781 60.1447 1376.23 550.229
915 0 61.101 10.9818 671 62.9314 1376.7 546.779
916 0 63.2067 12.6094 797 60.8294 1376.89 548.296
917 0 67.1692 13.131 882 59.4399 1377.16 547.44
918 0 68.0922 12.3656 842 60.8931 1377.1 546.291
919 0 70.0646 11.5893 812 61.7377 1377.35 545.571
920 0 72.1136 12.2723 885 61.2825 1377.59 542.229
921 0 76.0768 12.8686 979 60.3596 1377.45 540.312
922 0 79.0816 12.759 1009 60.0387 1377.91 538.827
923 0 81.1322 12.683 1029 59.6919 1377.8 539.253
924 1 44.0445 10.5121 463 57.9114 1378.48 557.829
925 0 46.0402 9.83924 453 57.8366 1378.29 558.082
926 0 48.0655 10.1736 489 57.1309 1377.78 560.027
927 0 49.1593 10.5168 517 59.8317 1378.12 558.083
928 0 51.1755 11.0209 564 58.6401 1378.5 556.651
929 0 53.4624 11.7466 628 58.5382 1377.77 553.072
930 0 53.2913 11.2026 597 59.0385 1376.97 553.802
931 0 56.1003 11.3012 634 57.4842 1377.56 556.636
932 0 58.0682 12.0031 697 57.8637 1377.75 552.699
933 0 58.0942 10.8272 629 58.8029 1377.44 554.86
934 0 61.1532 12.9674 793 56.691 1377.37 551.028
935 0 62.3938 11.7159 731 57.4952 1376.92 552.048
936 0 61.204 11.5515 707 58.2942 1377.32 551.703
937 0 65.2241 12.8174 836 57.3349 1377.28 548.708
938 0 66.1894 12.2829 813 58.4809 1377.08 546.601
939 0 67.1681 12.3868 832 58.5805 1377.47 547.177
940 0 70.1659 10.8172 759 59.4585 1377.08 548.091
941 0 72.14 12.0737 871 58.1332 1377.14 545.315
942 0 73.3081 12.6043 924 57.6667 1377.19 545.938
943 0 76.2018 12.5063 953 57.9056 1376.97 541.086
944 0 79.1481 13.1905 1044 56.8573 1376.98 542.645
945 0 79.1481 13.1905 1044 154.429 1375.98 542.645
946 0 82.3556 11.3896 938 59.0128 1376.71 540.881
947 0 87.3884 13.1825 1152 57.0651 1376.35 538.16
948 0 88.3667 12.5047 1105 57.5665 1376.03 537.909
949 0 91.1729 12.7999 1167 57.3033 1376.16 536.34
950 0 94.672 12.3056 1165 58.0884 1375.91 534.729
951 0 98.3993 12.5407 1234 57.4846 1375.64 533.708
952 0 100.462 11.9448 1200 58.7658 1375.33 532.35
953 0 103.391 13.3571 1381 57.1202 1375.52 533.243
954 0 104.39 12.4246 1297 58.9221 1375.63 528.786
955 0 109.524 12.3352 1351 58.487 1375.37 528.153
956 0 113.364 13.0641 1481 57.5537 1375.23 525.689
957 1 59.1974 10.0342 594 58.0892 1375.52 554.48
958 0 61.2308 10.7462 658 55.7888 1376.08 555.257
959 0 62.1223 10.431 648 57.7377 1375.68 552.275
960 0 62.2622 10.9858 684 56.4722 1375.61 553.303
961 0 66.1174 10.8443 717 56.159 1375.45 551.374
962 0 70.379 12.0064 845 54.0462 1374.73 550.025
963 0 74.3404 12.2948 914 52.244 1375.27 546.953
964 0 77.2579 12.3612 955 51.7539 1375.1 544.984
965 0 78.2656 11.3971 892 53.2298 1374.4 543.414
966 0 82.1468 12.3316 1013 51.5558 1374.62 544.598
967 0 84.2622 11.9152 1004 51.8068 1374.98 542.916
968 0 86.526 11.7075 1013 53.1037 1375.54 539.159
969 0 91.334 11.9671 1093 51.5828 1375.1 540.081
970 0 91.5605 11.6644 1068 52.2547 1375.82 539.117
971 0 96.3457 11.7286 1130 52.4062 1375.78 538.303
972 1 51.351 10.8664 558 52.2832 1375.6 559.342
973 0 49.2562 10.2525 505 53.497 1375.49 558.261
974 0 49.0418 11.3169 555 50.9532 1376.17 555.914
975 0 52.1161 11.7622 613 51.3295 1374.31 555.581
976 0 54.0314 12.1966 659 50.1836 1373.71 556.182
977 0 56.0928 11.998 673 50.9643 1374.45 553.339
978 0 57.2167 12.4789 714 48.2171 1374.44 552.239
979 0 58.34 11.3987 665 50.4451 1374.6 551.982
980 0 59.1727 12.1847 721 50.0749 1374.2 551.922
981 0 65.0819 12.999 846 48.5485 1374.19 551.194
982 0 64.3061 11.6785 751 50.3063 1374.66 550.011
983 0 67.2552 12.1478 817 49.8409 1374.28 548.775
984 0 70.2308 12.4589 875 49.4011 1374.04 549.067
985 0 71.0608 11.6661 829 51.2738 1373.14 549.156
986 0 71.1755 12.4341 885 51.0972 1373.37 546.298
987 0 75.2265 11.9506 899 51.5951 1373.33 546.828
988 0 77.1826 12.0364 929 51.564 1373.06 546.521
989 0 80.171 12.4609 999 51.2142 1374.17 545.264
990 0 83.2867 13.1594 1096 50.3476 1373.67 545.693
991 0 84.1526 12.6081 1061 51.2724 1373.97 542.177
992 0 89.1644 13.3798 1193 50.6832 1374.11 540.801
993 0 91.2252 13.1214 1197 51.1779 1374.21 540.64
994 0 92.2258 12.4477 1148 52.4643 1373.82 540.212
995 1 50.0998 10.8184 542 52.8672 1373.15 561.077
996 0 51.0935 10.5297 538 53.0186 1373.04 559.946
997 0 52.2299 11.6408 608 52.9178 1373.19 558.395
998 0 57.5194 12.361 711 52.5556 1373.53 553.878
999 0 58.2078 12.4038 722 53.3047 1373.39 551.602
1000 0 61.241 13.0795 801 52.4719 1373.67 547.738
1001 0 62.3381 13.2664 827 53.2297 1373.68 550.005
1002 0 62.3751 13.4349 838 54.2124 1373.32 552.086
1003 0 65.119 13.2987 866 52.1824 1373.04 544.771
1004 0 67.2035 12.7374 856 53.1519 1372.37 550.146
1005 0 66.4002 12.4096 824 54.3532 1373.26 549.131
1006 0 71.2642 14.4954 1033 51.514 1373.93 551.016
1007 0 71.5272 13.6591 977 52.7093 1374.38 549.181
1008 0 74.7023 13.9889 1045 52.8727 1374.19 547.078
1009 0 76.2951 12.8318 979 54.3044 1374.5 547.241
1010 0 77.5165 13.0166 1009 54.0575 1374.16 546.872
1011 0 79.6677 12.1254 966 56.6118 1373.75 543.677
1012 0 81.5138 13.1389 1071 55.3744 1373.63 543.188
1013 0 85.5358 13.2108 1130 55.1469 1373.23 542.336
1014 0 89.3337 12.7388 1138 55.6538 1373.59 541.632
1015 1 44.3482 11.8832 527 54.1935 1373.69 560.531
1016 0 44.1098 12.3102 543 55.0534 1373.56 561.777
1017 0 46.1603 11.8067 545 54.7284 1373.4 559.884
1018 0 47.1648 11.746 554 55.2094 1373.73 560.404
1019 0 47.1648 11.7672 555 160.189 1374.74 560.416
1020 0 47.1648 11.9157 562 158.888 1375.72 560.477
1021 0 51.1112 12.8152 655 54.4641 1373.82 556.603
1022 0 53.1924 12.5394 667 53.946 1373.94 556.6
1023 0 54.1385 12.191 660 55.0758 1374.33 557.202
1024 0 53.2233 11.6866 622 56.5643 1374.49 555.442
1025 0 58.3769 12.6249 737 54.4803 1374.47 555.984
1026 0 57.2269 13.3678 765 53.7451 1375.05 555.167
1027 0 58.0565 11.8333 687 55.6914 1375.01 552.201
1028 0 59.1537 12.3746 732 55.2281 1375.48 552.268
1029 0 62.1547 12.4367 773 55.3118 1375.59 550.734
1030 0 65.1361 12.4201 809 55.2682 1375.78 548.303
1031 0 65.1565 12.0326 784 55.9401 1375.72 548.86
1032 0 67.2427 13.2505 891 54.8956 1375.94 546.571
1033 0 71.151 12.7335 906 55.2804 1375.21 545.896
1034 0 74.2334 12.7975 950 55.4095 1375.85 544.131
1035 0 76.1745 12.8389 978 55.8937 1375.97 543.061
1036 0 76.1745 12.8389 978 151.241 1376.97 543.061
1037 0 82.1566 13.6568 1122 55.6471 1376.54 541.261
1038 0 85.173 13.678 1165 55.9339 1377.5 538.953
1039 0 86.2651 11.5806 999 58.6697 1377.17 538.458
1040 1 44.1479 10.1703 449 57.5056 1377.82 558.403
1041 0 47.1563 9.776 461 57.9653 1377.98 558.245
1042 0 47.1462 9.96898 470 58.7766 1378.23 556.479
1043 0 51.0956 11.7231 599 56.0083 1377.65 556.476
1044 0 51.0497 11.6749 596 57.0856 1377.58 556.094
1045 0 53.1319 11.6314 618 56.5178 1377.57 556.939
1046 0 55.136 11.7165 646 55.6269 1378.15 554.636
1047 0 56.1872 10.643 598 56.8913 1378.31 553.737
1048 0 59.2056 12.8366 760 55.1697 1378.28 552.139
1049 0 63.1732 12.8377 811 54.6424 1378.44 552.211
1050 0 62.0804 12.9187 802 55.283 1378.71 551.872
1051 0 67.1804 12.9502 870 55.1816 1378.44 549.154
1052 0 67.1862 12.8598 864 56.2234 1378.82 548.477
1053 0 71.3963 12.1015 864 57.0081 1378.6 548.293
1054 0 74.4988 13.1814 982 55.8289 1379.11 547.207
1055 0 77.2819 13.6254 1053 55.868 1378.8 545.704
1056 0 78.3389 12.3438 967 58.0414 1378.52 544.297
1057 0 82.4178 13.6864 1128 56.5044 1378.76 542.301
1058 0 84.2995 13.0487 1100 57.3527 1378.44 540.458
1059 0 85.24 12.764 1088 58.6544 1378.57 539.197
1060 0 89.4451 12.6782 1134 57.8774 1377.76 537.236
1061 0 93.2395 13.6959 1277 56.6132 1377.61 536.75
1062 0 95.6104 13.2726 1269 57.1418 1377.84 535.449
1063 1 52.084 10.9631 571 58.0088 1376.57 557.105
1064 0 56.1714 11.8922 668 59.3488 1377.2 555.985
1065 0 56.1153 11.5833 650 59.2138 1378.83 553.334
1066 0 59.093 12.7934 756 58.2844 1377.4 555.116
1067 0 61.0892 12.228 747 59.506 1376.93 553.414
1068 0 62.1135 12.0103 746 59.5724 1376.97 553.684
1069 0 64.0758 12.6101 808 59.1931 1377.36 551.855
1070 0 66.0838 13.271 877 58.2725 1376.7 552.762
1071 0 69.1928 13.643 944 58.1398 1376.49 550.317
1072 0 70.1317 13.3035 933 59.1458 1376.61 549.991
1073 0 71.059 12.8626 914 59.5897 1376.76 548.935
1074 0 73.1301 12.7718 934 59.7034 1376.56 546.118
1075 0 74.19 11.484 852 61.0634 1376.33 544.419
1076 1 41.1002 9.19703 378 58.8704 1376.24 563.717
1077 0 40.0623 10.2091 409 59.2029 1375.37 564.787
1078 0 42.0812 9.50543 400 59.6675 1376.1 562.582
1079 0 44.1654 9.75876 431 57.7077 1377.21 559.865
1080 0 44.205 10.7906 477 57.1698 1377.22 558.451
1081 0 46.0527 11.5954 534 58.882 1375.01 559.333
1082 0 46.058 10.921 503 60.1968 1375.09 560.837
1083 0 48.0194 11.9327 573 59.1832 1374.78 558.349
1084 0 50.0393 11.7108 586 59.1672 1375.29 556.534
1085 0 49.0524 10.132 497 61.8592 1375.48 557.396
1086 0 52.0569 12.0637 628 59.2914 1375.37 557.518
1087 0 53.1765 11.5276 613 60.0082 1375.56 556.767
1088 0 57.1163 11.6254 664 59.5211 1375.42 555.502
1089 0 59.1108 12.8234 758 57.5726 1375.46 553.73
1090 0 60.2193 12.2552 738 59.2154 1376.58 553.58
1091 0 62.1898 13.2176 822 58.601 1376.59 551.398
1092 0 64.2844 12.1958 784 59.9069 1376.92 551.292
1093 0 66.3768 13.0166 864 58.9479 1376.33 550.632
1094 0 65.2789 12.1326 792 60.5366 1376.46 551.28
1095 0 68.2901 12.6373 863 60.2375 1376.23 548.535
1096 0 70.3778 11.9214 839 60.7735 1376.05 547.304
1097 1 37.2231 10.3699 386 59.4508 1375.9 564.933
1098 0 38.1319 10.3325 394 59.4772 1376.9 563.165
1099 0 36.2098 10.0525 364 60.1484 1376.9 563.533
1100 0 40.2189 10.6915 430 59.193 1376.48 563.305
1101 0 43.1053 11.3907 491 56.4807 1375.84 563.676
1102 0 42.0457 11.0832 466 55.8562 1376.58 559.891
1103 0 43.3444 12.3199 534 58.133 1375.07 561.663
1104 0 45.122 12.4994 564 57.6649 1374.78 562.663
1105 0 45.122 11.6351 525 150.67 1374.8 561.975
1106 0 47.1089 12.3331 581 56.5749 1374.24 560.57
1107 0 49.0495 12.0898 593 57.0422 1374.83 559.779
1108 0 48.1071 13.0542 628 56.3997 1374.82 560.185
1109 0 52.1121 12.665 660 56.9212 1375.13 559.144
1110 0 52.1367 13.1769 687 56.7686 1374.84 557.224
1111 0 55.1622 13.2156 729 56.2661 1375.27 557.163
1112 0 56.1225 13.4349 754 55.992 1375.82 557.882
1113 0 58.0866 13.6692 794 56.1398 1375.67 555.825
1114 0 60.1364 13.2199 795 56.3874 1375.86 556.474
1115 0 60.1251 12.6403 760 56.8118 1375.27 556.025
1116 0 63.1965 12.295 777 57.3024 1375.32 555.835
1117 0 63.1222 13.3392 842 56.5368 1375.34 554.401
1118 0 63.1271 12.8629 812 57.3879 1374.96 552.791
1119 0 63.1271 12.8471 811 160.058 1374.97 552.799
1120 0 68.1846 13.2728 905 56.7105 1374.64 552.657
1121 0 71.0894 13.5604 964 56.4876 1374.77 551.888
1122 0 72.1732 13.9525 1007 56.853 1374.68 549.615
1123 0 74.1791 14.3706 1066 55.591 1375.17 549.189
1124 0 76.1581 13.2488 1009 57.3419 1374.89 547.2
1125 0 79.2008 13.8256 1095 56.2146 1374.89 547.124
1126 0 80.0683 13.9131 1114 56.5126 1374.8 545.392
1127 1 43.3603 10.3781 450 58.2467 1374.34 566.169
1128 0 44.0649 11.5058 507 58.8442 1374.92 562.864
1129 0 44.0682 11.9134 525 58.421 1375.32 563.943
1130 0 46.1192 11.3835 525 58.819 1375.13 564.145
1131 0 48.161 12.3129 593 57.7319 1375.31 561.619
1132 0 49.0505 12.8439 630 58.3825 1374.53 562.487
1133 0 53.1487 12.9072 686 58.2041 1375.2 560.911
1134 0 54.186 13.5644 735 57.8286 1374.99 559.097
1135 0 54.09 12.5162 677 59.353 1374.7 559.322
1136 0 56.0802 13.445 754 58.0809 1375.35 557.452
1137 0 56.1126 13.4907 757 58.7556 1374.76 557.16
1138 0 61.2031 13.398 820 57.9378 1374.87 556.261
1139 0 61.248 13.5678 831 58.0927 1375.01 555.034
1140 0 63.2149 13.0033 822 58.4307 1374.54 555.461
1141 0 64.3478 13.1628 847 59.3022 1375.48 552.433
1142 0 67.2073 13.808 928 59.0647 1375.23 552.869
1143 0 69.3784 13.3471 926 60.4341 1375.29 550.172
1144 0 70.3392 13.6339 959 60.0344 1375.53 551.027
1145 0 73.3903 14.3752 1055 59.1763 1375.64 549.148
1146 0 74.3114 13.43 998 61.1874 1375.51 545.378
1147 0 76.582 13.4366 1029 60.9339 1375.55 545.074
1148 0 79.547 14.3563 1142 59.972 1375.57 542.215
1149 0 82.472 13.9441 1150 60.1139 1376.31 540.563
1150 0 84.5852 13.6194 1152 60.4062 1376.63 539.301
1151 0 88.5364 12.9325 1145 61.1598 1376.53 539.482
1152 0 92.4304 13.9348 1288 59.4161 1376.8 537.657
1153 1 46.2348 12.5447 580 60.2759 1376.95 558.202
1154 0 50.3832 11.1744 563 60.0817 1376.79 557.462
1155 0 48.2405 11.0074 531 61.8117 1377.24 555.121
1156 0 52.3784 12.8106 671 58.6215 1377.89 555.297
1157 0 53.4394 13.0615 698 58.7865 1378.3 553.142
1158 0 55.2936 13.0937 724 58.2072 1378.33 552.831
1159 0 57.3294 13.1346 753 57.3612 1378.28 552.874
1160 0 57.3294 13.0823 750 165.461 1379.29 552.949
1161 0 59.324 12.4739 740 59.123 1377.65 549.481
1162 0 63.2843 13.3208 843 57.79 1378.67 548.227
1163 0 64.4109 12.5755 810 58.3358 1379.28 547.409
1164 0 67.3698 12.8396 865 57.9156 1379.86 545.055
1165 0 68.2156 13.4866 920 57.6489 1380.03 546.445
1166 0 73.1767 13.6929 1002 56.7555 1379.67 546.066
1167 0 75.2804 13.204 994 57.2757 1380.01 544.486
1168 0 76.2366 13.3794 1020 57.5765 1377.39 542.498
1169 0 80.4189 13.4048 1078 57.256 1377.59 540.053
1170 0 81.1665 12.9733 1053 58.2564 1378.07 538.468
1171 1 40.1283 10.3667 416 57.8053 1378.05 560.601
1172 0 39.049 10.4484 408 58.7132 1379.55 557.922
1173 0 45.1478 12.2265 552 55.6793 1379.54 557.098
1174 0 46.0626 12.331 568 55.4789 1380.24 557.701
1175 0 46.1135 11.6452 537 56.9739 1379.88 557.205
1176 0 48.0635 12.5043 601 56.1131 1379.94 556.719
1177 0 51.2702 12.5024 641 55.8908 1379.79 556.992
1178 0 52.0273 12.3973 645 56.8062 1379.92 554.808
1179 0 54.0202 11.7363 634 56.4243 1379.65 554.692
1180 0 56.1853 12.8147 720 55.1931 1379.21 554.469
1181 0 58.1612 12.8092 745 55.0604 1379.4 551.502
1182 0 59.0291 12.3668 730 55.7781 1379.39 552.19
1183 0 60.2207 12.8361 773 55.4787 1379.84 549.602
1184 0 62.2088 11.9919 746 56.5992 1379.53 547.512
1185 0 63.3169 12.9507 820 55.6659 1379.59 548.32
1186 0 67.4635 12.7625 861 55.7329 1379.73 545.98
1187 0 68.3829 13.2782 908 55.5914 1379.33 545.394
1188 0 72.5702 13.1597 955 55.6283 1379.3 543.001
1189 0 73.371 12.6617 929 56.817 1379.11 541.889
1190 1 40.2144 9.89694 398 55.6256 1379.3 559.058
1191 0 41.1994 9.46615 390 56.9949 1379.74 559.09
1192 0 44.2996 9.8195 435 57.6115 1378.92 555.522
1193 0 44.1167 10.9256 482 55.8921 1379.06 558.029
1194 0 46.051 11.7044 539 55.6531 1378.5 558.586
1195 0 48.1217 11.3047 544 56.4816 1377.38 559.164
1196 0 52.1761 11.7103 611 56.3666 1377.64 558.638
1197 0 51.0903 11.7243 599 56.4624 1377.78 557.975
1198 0 52.1654 11.8278 617 57.1864 1377.62 556.524
1199 0 54.0755 11.7059 633 57.3807 1377.58 556.686
1200 0 55.1741 12.1253 669 56.9985 1377.81 555.265
1201 0 58.0622 12.211 709 56.9492 1376.84 554.605
1202 0 61.0932 12.8656 786 56.0038 1377.35 551.915
1203 0 61.1123 12.6325 772 56.7422 1377.32 552.158
1204 0 63.1054 12.1226 765 57.7922 1376.99 551.809
1205 0 63.2427 12.2228 773 58.5705 1376.95 549.613
1206 0 67.1764 12.0578 810 58.2296 1376.93 548.826
1207 0 68.1696 13.173 898 57.686 1377.35 547.33
1208 0 69.317 11.9307 827 59.0931 1376.78 548.368
1209 0 74.3697 11.9672 890 58.8079 1377.16 543.579
1210 0 75.1868 13.114 986 57.1004 1377.31 543.319
1211 0 78.218 12.3373 965 58.0684 1376.82 541.473
1212 0 81.2229 12.8412 1043 57.1611 1376.64 541.025
1213 1 45.069 10.7391 484 57.1612 1377.35 558.975
1214 0 43.0457 10.4075 448 57.6406 1377.29 561.121
1215 0 46.1518 10.8772 502 57.9861 1376.77 561.181
1216 0 46.1377 11.8342 546 56.4652 1376.61 559.465
1217 0 48.1384 12.2148 588 57.5221 1376.2 558.968
1218 0 51.1445 12.4549 637 55.8289 1375.83 560.298
1219 0 52.2173 11.5096 601 57.4692 1375.48 559.196
1220 0 53.1976 11.7675 626 57.3243 1375.07 557.561
1221 0 57.1197 12.5351 716 55.4022 1375.44 558.282
1222 0 56.1126 11.9403 670 56.9657 1375.19 554.894
1223 0 59.2066 12.3804 733 55.7203 1375.65 554.501
1224 0 62.1258 12.362 768 55.7565 1375.78 553.573
1225 0 62.201 11.8808 739 56.4114 1375.23 552.723
1226 0 65.1782 12.4275 810 55.6852 1375.12 552.114
1227 0 67.1296 12.7366 855 55.1298 1375.2 551.081
1228 0 68.2142 12.2702 837 55.9654 1374.69 550.142
1229 0 71.2302 12.6632 902 55.2639 1375.06 547.436
1230 0 71.2594 12.2791 875 55.888 1374.67 548.939
1231 0 75.1411 12.949 973 55.5057 1374.57 547.645
1232 0 75.4879 12.2934 928 56.0603 1375.28 542.664
1233 0 79.5468 12.7472 1014 55.4803 1374.72 543.384
1234 0 82.3748 13.0744 1077 55.844 1374.87 540.307
1235 0 84.4113 11.9889 1012 57.5375 1375.01 539.591
1236 1 44.2253 10.7631 476 55.7038 1375.3 560.494
1237 0 47.2122 10.1245 478 56.2134 1375.2 559.891
1238 0 48.3406 10.095 488 56.7889 1374.68 558.912
1239 0 50.2742 10.8605 546 56.5513 1374.88 556.824
1240 0 51.1614 11.5126 589 55.2818 1373.99 558.131
1241 0 54.0848 11.7223 634 54.9259 1374.66 556.536
1242 0 55.1066 12.4486 686 55.605 1373.17 559.115
1243 0 58.1292 11.9217 693 55.6522 1374.01 557.391
1244 0 60.1008 12.9615 779 54.4506 1374.02 555.977
1245 0 63.1719 13.5662 857 53.5274 1374.45 555.876
1246 0 63.2156 12.402 784 55.0293 1374.38 555.3
1247 0 67.276 12.8723 866 54.5346 1374.56 554.779
1248 0 68.1744 12.732 868 55.4908 1374.29 553.63
1249 0 68.069 12.4286 846 57.1312 1374.54 553.044
1250 0 72.2386 13.2893 960 55.5885 1374.38 552.049
1251 0 74.1896 13.169 977 56.1075 1374.38 549.607
1252 0 76.2296 13.3806 1020 56.2755 1374.22 549.617
1253 0 78.1137 13.0707 1021 57.2351 1374.31 548.496
1254 1 40.2233 10.5411 424 56.1274 1375.96 561.255
1255 0 43.1672 9.38212 405 56.442 1375.41 560.758
1256 0 46.2164 9.45552 437 59.0824 1375.13 560.4
1257 0 47.2204 10.2922 486 58.3724 1375.75 558.623
1258 0 48.1075 11.8485 570 56.8456 1376.07 558.989
1259 0 50.2095 12.0893 607 57.1351 1376.51 558.25
1260 0 49.0889 11.856 582 55.4588 1375.45 556.216
1261 0 50.2123 11.3717 571 57.7828 1375.65 557.221
1262 0 53.1992 11.7859 627 56.5789 1375.41 557.191
1263 0 51.1532 11.143 570 58.9561 1375.89 555.142
1264 0 55.2163 11.2648 622 58.0691 1375.92 554.743
1265 0 58.1208 11.5449 671 58.0522 1376.27 552.666
1266 0 60.1159 11.4113 686 58.1589 1376.29 553.558
1267 0 63.0515 12.3233 777 57.3835 1376.12 551.726
1268 0 64.0964 12.1224 777 57.6113 1376.8 551.956
1269 0 65.0501 12.8824 838 57.2828 1376.53 549.463
1270 0 68.1617 11.5167 785 58.6611 1376.62 548.389
1271 0 71.1745 11.8863 846 57.9846 1376.89 547.277
1272 0 72.1067 11.691 843 58.6382 1377.39 546.751
1273 0 73.1489 12.1806 891 58.651 1377.87 542.529
1274 0 79.154 12.8863 1020 56.8814 1378.07 544.261
1275 0 81.1405 12.4722 1012 58.0731 1376.97 542.03
1276 0 82.1217 12.4084 1019 58.6163 1378.25 539.887
1277 0 87.0917 12.2629 1068 58.0955 1378.71 539.699
1278 0 90.0929 12.7979 1153 59.1552 1378.29 539.222
1279 0 93.1114 13.2529 1234 58.2091 1378.49 539.032
1280 0 95.1153 11.6595 1109 60.3598 1378.67 536.716
1281 1 51.0511 9.98999 510 58.6392 1378.51 557.065
1282 0 52.1365 11.2589 587 56.7223 1378.52 555.429
1283 0 54.1087 12.0683 653 55.8652 1379.46 554.368
1284 0 57.0489 12.6733 723 56.0982 1379.1 554.347
1285 0 57.0234 12.1704 694 57.7147 1378.61 554.321
1286 0 59.0925 12.1504 718 57.5794 1378.27 553.954
1287 0 61.1083 11.8642 725 57.6345 1378.95 554.519
1288 0 62.0826 12.7411 791 56.9912 1379.17 552.248
1289 0 64.2034 12.5694 807 57.8079 1379.39 550.968
1290 0 66.1439 12.6845 839 57.4744 1379.63 550.795
1291 0 69.0879 13.244 915 56.7661 1379.53 549.682
1292 0 69.1175 12.2256 845 58.9231 1379.89 547.359
1293 0 71.0944 12.7296 905 58.158 1379.68 548.897
1294 0 74.1722 13.6304 1011 56.7478 1380.04 546.186
1295 0 76.1585 12.7497 971 57.862 1380.04 545.177
1296 0 78.1871 13.1991 1032 58.0843 1379.87 543.033
1297 0 79.1897 12.5648 995 59.1397 1380.16 541.481
1298 0 81.1698 12.6402 1026 58.6501 1380.68 542.076
1299 0 86.2116 13.4437 1159 57.5962 1380.3 539.877
1300 0 88.2763 13.2085 1166 58.0566 1380.73 536.867
1301 1 50.1979 11.0761 556 58.7554 1380.4 556.237
1302 0 51.303 9.99942 513 60.306 1380.65 557.694
1303 0 52.2458 10.6229 555 60.2667 1380.11 555.856
1304 0 55.1142 11.449 631 59.4501 1379.68 556.366
1305 0 56.0541 12.1311 680 58.9515 1380.19 554.39
1306 0 58.0694 12.4162 721 58.785 1379.56 555.406
1307 0 59.1547 12.8477 760 58.7987 1379.58 554.183
1308 0 61.1502 12.4775 763 58.9528 1379.14 554.107
1309 0 63.1667 12.8707 813 58.3173 1379.31 552.531
1310 0 67.1085 14.3499 963 56.0384 1379.48 550.886
1311 0 67.1501 12.6582 850 58.3176 1379.39 550.832
1312 0 69.1116 13.1526 909 57.8482 1379.48 549.846
1313 0 71.1304 12.9621 922 57.8286 1378.98 548.142
1314 0 73.2225 13.1927 966 57.5062 1378.46 547.565
1315 0 75.1285 12.9911 976 57.8904 1377.86 546.648
1316 0 78.2882 13.7952 1080 56.9657 1377.17 548.41
1317 0 80.1986 13.6786 1097 57.0611 1377.21 546.961
1318 0 84.1347 13.8587 1166 56.9537 1377.32 543.601
1319 1 41.046 10.5979 435 58.2805 1376.57 565.395
1320 0 43.0198 11.762 506 57.0632 1376.04 563.524
1321 0 45.0792 11.0029 496 58.2782 1375.98 563.48
1322 0 46.0253 11.7544 541 57.0166 1375.87 561.072
1323 0 48.0714 11.9614 575 57.0209 1376.23 560.463
1324 0 49.048 11.5601 567 57.455 1376.22 559.187
1325 0 50.0894 11.4795 575 57.1757 1376.17 561.009
1326 0 54.0465 11.4901 621 56.6312 1376.08 558.694
1327 0 54.1607 12.8137 694 55.0764 1375.73 556.944
1328 0 54.1607 12.8137 694 141.019 1375.73 556.944
1329 0 56.0337 12.6888 711 55.4557 1375.37 556.795
1330 0 59.0838 12.9308 764 54.6584 1375.54 555.616
1331 0 59.0236 12.4696 736 55.4973 1375.56 556.234
1332 0 62.172 12.8836 801 54.7104 1376.06 553.326
1333 0 62.0478 13.2962 825 54.2 1375.91 553.081
1334 0 64.0663 12.6588 811 55.688 1376.23 553.205
1335 0 68.1494 12.8835 878 54.9795 1375.72 552.555
1336 0 69.136 12.6128 872 54.9541 1376.03 551.389
1337 0 71.1177 12.88 916 54.8079 1375.31 549.682
1338 0 73.2432 12.7794 936 54.7949 1375.6 547.691
1339 0 77.1624 13.2578 1023 53.7263 1375.82 548.616
1340 1 40.0097 10.1226 405 55.7481 1375.49 566.257
1341 0 41.0884 10.5869 435 55.0276 1375.37 565.839
1342 0 42.0151 10.7104 450 54.5689 1376.29 564.558
1343 0 45.1188 10.9932 496 54.1714 1375.74 564.655
1344 0 48.068 12.836 617 51.6013 1376.27 563.105
1345 0 48.0507 12.1538 584 52.3408 1375.54 561.466
1346 0 49.0177 11.1796 548 53.6989 1375.43 560.845
1347 0 49.0256 11.3818 558 53.6774 1375.56 560.962
1348 0 52.1301 12.3345 643 52.4572 1374.68 560.344
1349 0 53.183 11.7143 623 53.5538 1375.12 559.612
1350 0 55.1425 12.7488 703 52.5391 1374.37 560.22
1351 0 56.1068 12.601 707 53.116 1374.43 559.013
1352 0 58.4061 11.8138 690 53.4638 1374.12 557.788
1353 0 60.1567 12.4342 748 53.2567 1374.11 557.007
1354 0 61.1381 12.251 749 53.9746 1373.99 556.24
1355 0 64.1105 12.5252 803 53.7858 1373.93 556.604
1356 0 65.1403 13.2483 863 53.664 1374.21 553.695
1357 0 69.1661 12.6218 873 54.1283 1373.65 554.944
1358 0 70.2033 13.4324 943 54.0403 1373.33 551.83
1359 0 71.2367 12.5638 895 54.7698 1372.94 549.547
1360 0 73.0768 12.8632 940 55.2245 1373.28 548.467
1361 0 77.2254 12.975 1002 55.4531 1372.97 546.339
1362 0 78.226 12.5406 981 56.9704 1372.67 546.666
1363 1 42.4895 9.97893 424 57.1132 1373.3 567.752
1364 0 44.3354 10.5108 466 57.4356 1373.58 566.339
1365 0 47.1743 11.2137 529 56.7732 1373.53 565.136
1366 0 45.5389 11.9897 546 57.5861 1372.92 560.579
1367 0 48.6254 11.8662 577 57.5719 1373.11 561.927
1368 0 49.0978 12.0168 590 58.4508 1373.11 562.108
1369 0 50.2962 12.9433 651 57.3656 1372.33 557.997
1370 0 51.3204 12.042 618 59.1052 1372.48 559.511
1371 0 55.3803 12.0259 666 58.2883 1372.16 558.495
1372 0 57.4561 12.7576 733 57.9072 1372.53 557.551
1373 0 57.2035 12.9538 741 58.8192 1372.84 556.941
1374 0 61.2415 12.4589 763 58.7693 1372.88 551.317
1375 0 60.393 12.8657 777 59.4646 1373.19 552.281
1376 0 63.3796 12.6855 804 59.8296 1372.8 552.165
1377 0 65.3712 13.0333 852 60.0751 1373.16 552.655
1378 0 67.4662 13.592 917 60.0752 1373.38 553.791
1379 0 68.4849 12.7327 872 61.9117 1373.14 553.518
1380 0 70.4193 13.4906 950 61.3505 1372.97 550.624
1381 0 73.5711 12.6816 933 60.821 1372.74 549.824
1382 0 74.4306 13.4353 1000 57.593 1372.65 547.872
1383 0 78.3611 13.3102 1043 57.7632 1373.18 546.989
1384 0 80.4651 13.4592 1083 60.6842 1373.29 546.078
1385 0 83.3686 13.1824 1099 59.6005 1373.48 543.964
1386 1 44.5379 11.3162 504 60.0357 1372.86 564.151
1387 0 44.2953 12.0329 533 60.1144 1373.62 562.499
1388 0 46.2443 10.877 503 61.6799 1373.98 561.392
1389 0 48.1523 11.2767 543 61.5654 1373.97 560.232
1390 0 48.3054 10.4957 507 62.503 1374.18 561.077
1391 0 53.2962 11.7832 628 60.5685 1373.88 558.645
1392 0 54.2785 12.2885 667 60.1664 1374.25 559.373
1393 0 55.1831 12.9931 717 59.9386 1373.66 557.904
1394 0 57.4408 12.6217 725 60.7007 1373.74 556.286
1395 0 58.1107 12.872 748 60.8463 1373.78 556.126
1396 0 61.2931 13.4925 827 59.9299 1374.68 554.493
1397 0 62.3083 13.7381 856 58.979 1374.78 552.112
1398 0 64.4874 13.1343 847 60.1488 1374.84 552.34
1399 0 65.3037 13.5827 887 60.2807 1375.43 550.432
1400 0 68.2321 13.4834 920 58.6652 1375.93 548.557
1401 0 67.2326 12.7319 856 59.9755 1376.63 550.709
1402 0 72.2289 13.9279 1006 58.1272 1376.31 546.993
1403 0 71.1748 12.9962 925 60.4141 1376.68 544.596
1404 0 74.3395 12.6312 939 60.2013 1377.23 543.801
1405 0 78.4724 13.7373 1078 58.0028 1377.56 542.304
1406 0 81.2802 13.8779 1128 57.7447 1377.66 538.566
1407 0 86.3271 14.503 1252 55.7859 1378.32 537.613
1408 1 45.3111 11.5204 522 57.9138 1377.74 557.987
1409 0 46.1389 11.292 521 58.3877 1377.93 558.378
1410 0 48.1518 10.903 525 58.9029 1378.23 555.762
1411 0 50.0476 11.2892 565 57.285 1378.89 556.375
1412 0 52.1497 12.0998 631 55.5658 1378.67 555.746
1413 0 53.2723 12.2766 654 55.4495 1378.56 554.231
1414 0 55.286 11.9922 663 55.1523 1379.11 553.738
1415 0 57.0443 11.0616 631 56.0222 1378.96 552.575
1416 0 59.0962 12.5558 742 54.2871 1379.54 552.096
1417 0 60.1401 11.7559 707 55.7567 1379.41 540.815
1418 0 57.1026 12.2411 699 56.073 1379.64 539.401
1419 0 65.1192 11.9013 775 54.5252 1379.56 538.022
1420 0 67.1669 12 806 54.2655 1379.21 537.467
1421 0 70.1165 13.2209 927 52.4186 1379.48 544.82
1422 0 72.1749 13.1348 948 53.9789 1379.58 547.455
1423 0 73.0921 12.8742 941 54.8555 1379.77 541.481
1424 0 79.2505 13.5898 1077 53.4513 1379.91 537.536
1425 0 81.1722 13.4282 1090 53.4431 1379.97 537.925
1426 0 80.3275 13.1088 1053 54.4473 1379.85 537.327
1427 0 80.3275 13.1088 1053 152.706 1378.85 537.327
1428 1 44.0653 9.66748 426 55.2559 1379.89 558.617
1429 0 45.0739 10.0723 454 53.2445 1379.97 559.383
1430 0 45.086 10.5132 474 51.73 1379.36 558.703
1431 0 49.0767 11.6145 570 50.2105 1379.6 557.812
1432 0 50.1481 12.2836 616 49.7208 1379.98 555.779
1433 0 50.1126 11.9132 597 50.0637 1380.27 556.973
1434 0 51.2289 11.8683 608 51.4605 1379.97 555.431
1435 0 54.2511 11.0044 597 52.1893 1380.46 556.06
1436 0 57.2947 12.7411 730 50.0616 1379.8 554.944
1437 0 59.2603 12.7404 755 51.0146 1379.65 552.416
1438 0 59.2348 11.3784 674 53.1751 1379.45 553.801
1439 0 60.1179 11.2446 676 53.9778 1378.93 552.006
1440 0 60.1783 12.1472 731 53.4008 1378.34 549.219
1441 0 63.127 11.9759 756 54.7368 1377.93 551.948
1442 0 66.1396 12.4585 824 53.3362 1377.98 550.561
1443 0 69.1177 12.9923 898 52.2918 1377.73 550.001
1444 0 70.1668 12.285 862 53.7053 1378.53 548.422
1445 0 71.0723 11.8471 842 54.3587 1378.14 547.475
1446 0 76.147 13.0274 992 52.2016 1377.92 545.701
1447 0 76.3118 12.9338 987 52.8845 1377.47 544.721
1448 0 80.1338 12.0798 968 53.2262 1377.43 545.24
1449 0 84.0482 12.8498 1080 52.4815 1377.21 543.518
1450 0 86.24 13.416 1157 52.1538 1376.73 540.998
1451 0 88.0925 12.9069 1137 53.117 1376.63 538.682
1452 0 91.1731 13.8637 1264 52.0079 1376.41 538.233
1453 0 93.098 13.0937 1219 53.1444 1376.54 537.532
1454 1 50.0473 10.6699 534 53.1423 1376.53 559.65
1455 0 52.2313 9.20904 481 54.711 1376.65 559.597
1456 0 52.073 10.3124 537 54.6741 1376.18 557.674
1457 0 55.123 10.1228 558 54.1756 1376.56 557.079
1458 0 57.0494 11.4988 656 53.0579 1375.28 556.373
1459 0 58.1028 11.4452 665 52.3474 1376.9 555.417
1460 0 58.0873 10.8974 633 54.3886 1376.33 552.768
1461 0 61.0826 11.1325 680 54.5529 1375.32 552.669
1462 0 64.2178 12.3797 795 52.0302 1375.32 553.164
1463 0 62.1207 11.0752 688 54.2762 1374.94 554.208
1464 0 66.1529 10.8536 718 54.1017 1374.65 552.794
1465 0 69.1959 12.1539 841 53.0404 1374.86 550.523
1466 0 69.1446 11.6278 804 53.2711 1374.18 552.047
1467 0 73.1889 11.7231 858 52.5979 1374.13 550.442
1468 0 73.1878 11.9009 871 52.9552 1374.18 549.41
1469 0 77.1669 12.2721 947 52.0264 1374.52 547.106
1470 0 78.2066 11.6231 909 53.5523 1374.04 545.751
1471 0 81.1442 12.4593 1011 52.5638 1374.29 546.061
1472 0 84.2528 13.4239 1131 51.4111 1374.36 542.687
1473 0 85.1963 12.301 1048 53.063 1373.78 541.661
1474 0 89.2105 12.8124 1143 52.2677 1374.07 540.466
1475 0 89.272 11.8962 1062 53.4623 1374.22 539.636
1476 0 94.3006 12.7147 1199 51.9541 1373.93 539.099
1477 0 94.455 12.5139 1182 52.8511 1373.96 535.409
1478 0 95.3286 11.9901 1143 53.3185 1374 533.704
1479 0 99.2742 12.2187 1213 52.8763 1373.45 533.768
1480 0 103.395 13.0084 1345 51.8558 1373.59 533.765
1481 0 105.252 12.0758 1271 53.1227 1373.69 532.46
1482 0 107.27 12.8834 1382 52.8343 1373.72 527.959
1483 0 109.433 12.9577 1418 53.0423 1374.26 525.355
1484 0 114.504 11.7289 1343 54.1452 1373.67 525.485
1485 0 117.272 12.0574 1414 54.0446 1373.7 521.984
1486 1 61.0993 9.11631 557 54.8133 1374.32 549.442
1487 0 66.1467 10.2499 678 54.2611 1374.52 548.938
1488 0 68.0394 11.4199 777 53.2239 1374.23 550.055
1489 0 71.0687 12.101 860 53.2988 1374.27 550.54
1490 0 76.1275 13.1621 1002 51.7894 1374.36 549.171
1491 0 76.1618 12.0664 919 53.6213 1374.29 549.102
1492 0 77.138 12.5619 969 53.419 1374.09 547.666
1493 0 82.2424 12.4388 1023 54.4311 1373.15 546.098
1494 0 84.0911 12.1892 1025 54.0839 1372.65 545.71
1495 0 85.1055 13.0896 1114 54.1984 1372.79 543.901
1496 0 87.0505 11.8782 1034 56.06 1373.19 543.218
1497 0 90.1483 12.0912 1090 55.0018 1373.7 541.687
1498 0 94.0751 13.2554 1247 54.2165 1373.77 537.36
1499 0 98.1092 12.588 1235 56.4769 1373.89 537.862
1500 0 99.0867 12.7565 1264 56.2935 1374.01 537.163
1501 0 102.101 14.7403 1505 54.3821 1374.25 532.906
1502 0 103.093 13.8031 1423 55.9255 1374.18 533.473
1503 0 104.076 12.5582 1307 57.9725 1374.29 531.142
1504 0 109.298 13.4678 1472 56.9749 1374.52 530.326
1505 0 113.138 12.8781 1457 57.5553 1374.85 528.349
1506 1 64.0641 11.2856 723 56.4952 1374.97 555.122
1507 0 66.2523 11.9241 790 58.0266 1375.45 550.508
1508 0 68.1898 12.3479 842 57.3658 1375.61 546.464
1509 0 69.1574 12.1317 839 57.4303 1376.2 545.162
1510 0 72.1547 12.3069 888 56.1588 1376.89 547.462
1511 0 74.153 13.2429 982 55.8208 1377.22 546.152
1512 0 76.1038 12.1807 927 56.9482 1377.09 545.666
1513 0 77.1801 12.6587 977 56.3408 1377.01 543.948
1514 0 80.2006 12.8054 1027 57.2055 1377.84 542.418
1515 0 83.1569 12.3862 1030 57.9835 1378.14 537.564
1516 0 86.3443 12.9829 1121 57.4621 1378.44 533.752
1517 1 46.0283 10.1676 468 58.0919 1379.22 561
1518 0 47.0784 10.3869 489 57.816 1379.16 560.346
1519 0 48.1433 10.7388 517 58.8839 1377.71 558.7
1520 0 52.0474 10.7594 560 57.8232 1377.82 560.396
1521 0 53.1208 11.7468 624 57.6426 1378.2 555.873
1522 0 54.1944 11.8093 640 57.3297 1378.16 555.062
1523 0 57.18 12.1546 695 57.5583 1377.48 556.227
1524 0 59.222 12.9006 764 55.856 1377.96 555.217
1525 0 59.1669 11.2563 666 57.6426 1378.13 555.611
1526 0 62.1723 13.7038 852 54.4859 1378.23 551.136
1527 0 62.2017 11.0286 686 57.2216 1378.5 551.423
1528 0 64.2971 12.5356 806 55.964 1378.66 551.007
1529 0 66.1918 12.2221 809 56.4376 1378.76 551.006
1530 0 67.1532 12.6278 848 56.0425 1378.87 550.94
1531 0 68.1419 12.2685 836 55.9246 1378.83 548.975
1532 0 69.2304 11.5123 797 57.8306 1378.56 548.236
1533 0 73.1065 12.3245 901 55.96 1378.49 548.555
1534 0 73.0557 13.0038 950 55.3968 1378.83 546.912
1535 0 76.0518 12.6098 959 56.2951 1378.65 544.826
1536 0 78.1844 13.0077 1017 55.8397 1378.72 544.925
1537 0 79.0738 12.305 973 56.591 1378.32 543.572
1538 0 84.1399 13.8222 1163 54.4359 1378.44 539.549
1539 0 84.3791 12.2542 1034 56.0696 1379.39 542.01
1540 1 43.2239 9.64743 417 55.3141 1379.6 561.604
1541 0 43.2439 10.1286 438 54.8219 1379 557.502
1542 0 44.1891 9.52724 421 55.0404 1379.32 559.133
1543 0 44.0456 10.8297 477 54.9979 1378.82 557.543
1544 0 49.14 12.2304 601 55.1431 1379.82 557.268
1545 0 51.0507 11.753 600 56.2133 1379.31 559.26
1546 0 53.1341 12.4026 659 54.6874 1379.5 558.135
1547 0 53.0529 13.0436 692 54.8338 1379.09 556.315
1548 0 54.0203 12.4028 670 55.1 1379.59 556.263
1549 0 56.0648 12.2537 687 55.3508 1378.54 554.568
1550 0 58.079 12.8618 747 53.9398 1377.91 554.833
1551 0 59.046 12.16 718 55.0613 1377.6 554.146
1552 0 61.0944 13.3564 816 53.6225 1377.48 552.403
1553 0 60.076 11.6852 702 56.1011 1378.23 552.593
1554 0 66.1826 13.6894 906 52.5982 1378.04 551.128
1555 0 66.1918 13.8688 918 52.9466 1378 550.103
1556 0 69.1005 13.1403 908 53.6971 1377.87 548.148
1557 0 71.1148 12.9368 920 53.4587 1377.77 547.839
1558 0 75.1526 13.3462 1003 53.0857 1377.88 546.131
1559 0 75.1733 13.0232 979 53.9367 1377.7 545.03
1560 0 79.1813 12.8566 1018 53.8585 1377.84 543.941
1561 0 81.0641 13.1378 1065 53.584 1377.11 542.613
1562 1 48.056 10.904 524 54.1088 1377.34 560.538
1563 0 48.1413 11.1547 537 53.7281 1377.95 561.143
1564 0 48.0963 11.1443 536 54.0373 1378.15 559.759
1565 0 50.289 12.1697 612 52.5801 1377.12 558.907
1566 0 51.3696 11.1155 571 53.6252 1375.69 556.002
1567 0 53.2187 11.5749 616 52.9302 1376.64 553.909
1568 0 54.048 12.1374 656 53.5305 1376.36 556.793
1569 0 57.0962 11.8922 679 53.1782 1376.51 556.054
1570 0 57.0645 10.935 624 54.6154 1375.84 555.819
1571 0 58.149 12.9323 752 52.5851 1376.08 553.375
1572 0 61.0538 12.3825 756 52.6138 1376.26 554.434
1573 0 64.0736 12.2671 786 52.673 1375.9 553.676
1574 0 66.1307 13.2767 878 51.5125 1376.24 552.178
1575 0 68.1942 11.9805 817 52.2534 1376.34 553.07
1576 0 68.1411 13.0611 890 52.3337 1376.14 550.684
1577 0 73.2238 12.6325 925 52.6086 1376.32 550.385
1578 0 74.2806 12.3182 915 53.2623 1375.73 548.85
1579 0 75.3011 12.8816 970 53.1938 1375.34 547.54
1580 0 77.2939 12.4719 964 53.8807 1375.3 545.12
1581 0 80.3946 12.4138 998 54.513 1375.04 544.132
1582 0 85.3793 12.708 1085 54.0092 1374.95 541.309
1583 0 86.4657 12.3864 1071 54.4958 1374.9 541.389
1584 0 90.5717 13.0725 1184 53.473 1374.37 538.545
1585 1 46.3463 11.9751 555 53.3081 1373.77 560.205
1586 0 47.2438 10.1177 478 55.7427 1374.27 557.527
1587 0 48.1312 11.2193 540 54.6426 1374.34 557.472
1588 0 50.0577 11.287 565 54.2159 1374.43 557.726
1589 0 49.1436 10.9272 537 55.1955 1374.45 555.965
1590 0 53.2621 12.1287 646 53.5217 1373.96 556.183
1591 0 54.1639 13.4961 731 53.6129 1374.41 556.103
1592 0 56.148 12.5739 706 54.1969 1374.92 556.337
1593 0 60.1646 12.7982 770 52.8649 1374.74 549.122
1594 0 60.1646 12.7982 770 155.417 1374.74 549.122
1595 0 61.1653 13.0139 796 53.5 1374.57 550.359
1596 0 61.1866 12.5354 767 54.6284 1375.05 549.837
1597 0 63.0819 12.3966 782 54.9834 1375.05 549.758
1598 0 66.0664 12.7599 843 54.1673 1375.07 548.102
1599 0 67.1663 13.3102 894 53.7685 1375.62 548.961
1600 0 71.0807 13.5058 960 52.8479 1374.7 547.714
1601 0 73.1904 14.1412 1035 52.5111 1375.06 545.77
1602 0 73.155 13.6969 1002 53.6607 1374.92 542.921
1603 0 80.4843 14.4749 1165 51.6584 1375.95 544.524
1604 0 82.3778 13.4745 1110 52.8036 1376.18 541.823
1605 0 84.3391 13.09 1104 53.2627 1376.42 539.337
1606 0 84.3388 13.2086 1114 53.4255 1376.32 537.303
1607 0 90.3114 13.7413 1241 52.2409 1376.58 536.44
1608 0 93.3789 13.5791 1268 52.2279 1377.18 535.104
1609 0 98.2704 14.338 1409 51.5735 1377.57 533.312
1610 1 52.336 11.5599 605 51.8083 1377.25 555.468
1611 0 53.1482 11.0634 588 52.6088 1377.44 553.335
1612 0 55.0842 11.8001 650 52.2108 1377.4 556.183
1613 0 58.2648 11.6194 677 53.6012 1377.9 551.198
1614 0 60.2019 13.7205 826 51.5581 1377.87 551.347
1615 0 61.3512 13.3005 816 52.3775 1378.07 550.718
1616 0 63.4702 12.4941 793 53.377 1378.34 550.755
1617 0 65.4015 14.1587 926 52.0918 1378.63 549.638
1618 0 66.4614 13.2859 883 53.0193 1379.35 548.106
1619 0 69.3208 13.5024 936 52.8451 1379.37 545.915
1620 0 71.3848 13.5743 969 52.9587 1379.83 544.39
1621 0 73.38 12.9599 951 53.8665 1379.52 544.28
1622 0 76.3583 13.489 1030 53.233 1379.62 544.025
1623 0 75.365 13.7597 1037 53.9421 1379.78 541.158
1624 0 81.3565 12.8447 1045 54.2651 1379.99 541.053
1625 0 83.3264 13.5491 1129 53.5013 1380.14 539.523
1626 0 87.4331 13.6333 1192 53.8112 1379.76 533.861
1627 1 49.1546 10.3958 511 54.4403 1380.07 555.519
1628 0 48.0976 9.25202 445 54.9393 1380.44 556.975
1629 0 51.1899 11.6234 595 52.2992 1380.95 555.664
1630 0 52.1013 11.4009 594 52.5673 1380.92 554.97
1631 0 54.1055 10.3132 558 53.4767 1380.57 555.296
1632 0 56.0743 12.8044 718 53.6838 1379.88 552.492
1633 0 58.069 11.1591 648 55.0895 1379.34 553.718
1634 0 60.1341 12.389 745 54.1812 1379.8 551.882
1635 0 63.1235 13.6716 863 52.5979 1379.87 551.26
1636 0 62.1194 12.5565 780 54.3769 1379.97 549.364
1637 0 68.2123 13.2821 906 52.8698 1380.11 549.897
1638 0 69.2136 13.4511 931 53.1407 1380.75 547.886
1639 0 71.0511 13.9196 989 52.7209 1380.74 544.58
1640 0 75.0757 13.16 988 52.8755 1380.93 546.945
1641 0 77.0964 12.6854 978 53.3906 1381.51 543.846
1642 0 79.1967 14.1925 1124 52.0721 1381.35 543.034
1643 0 82.0676 12.7943 1050 53.279 1380.92 543.228
1644 0 82.2646 12.8731 1059 53.9141 1381.08 540.401
1645 0 85.2689 12.9238 1102 54 1380.67 538.818
1646 0 90.259 13.3062 1201 53.9076 1380.4 536.37
1647 1 50.1682 10.8635 545 54.9028 1380.67 557.297
1648 0 51.2289 11.0094 564 55.0426 1380.96 557.025
1649 0 53.2035 11.3714 605 55.2248 1380.99 555.362
1650 0 55.0631 12.0771 665 54.4211 1381.15 555.033
1651 0 55.1539 13.7434 758 52.6741 1380.4 554.136
1652 0 57.0607 12.881 735 53.4952 1380.19 554.997
1653 0 57.0492 11.3586 648 56.5108 1380.16 554.025
1654 0 60.0856 13.2311 795 54.3648 1379.98 550.181
1655 0 63.1401 12.1634 768 55.849 1379.89 550.453
1656 0 64.0887 12.8884 826 54.8801 1379.76 550.626
1657 0 65.1328 12.0216 783 55.9706 1380.21 549.453
1658 0 68.0832 12.1469 827 55.4631 1379.52 547.952
1659 0 72.0892 12.7897 922 54.6974 1378.93 547.281
1660 0 73.3002 13.2878 974 54.4353 1378.8 546.556
1661 0 75.1432 12.576 945 55.5016 1379.3 545.369
1662 0 77.1147 13.4216 1035 55.3285 1378.58 543.055
1663 0 80.3291 12.3492 992 56.62 1378.73 543.316
1664 0 84.2266 13.1312 1106 55.6944 1378.57 538.851
1665 0 86.2977 12.3758 1068 57.0946 1378.79 538.919
1666 0 90.253 13.1741 1189 55.9327 1378.31 538.833
1667 0 90.3332 11.6236 1050 57.2943 1378.26 535.964
1668 1 50.2433 10.7477 540 55.25 1377.65 557.596
1669 0 50.2046 11.6922 587 55.0494 1377.54 557.068
1670 0 51.0853 11.1382 569 54.4218 1378.49 558.522
1671 0 54.0694 11.4483 619 54.1405 1378.61 557.384
1672 0 54.0334 10.8266 585 56.0291 1377.79 554.882
1673 0 58.0777 12.38 719 53.4395 1377.37 556.14
1674 0 57.1043 11.2951 645 55.0992 1377.81 553.634
1675 0 61.0876 11.8682 725 54.2855 1377.47 553.251
1676 0 62.1971 13.5215 841 52.8288 1377.3 552.241
1677 0 64.0459 12.6003 807 54.5527 1377.6 551.227
1678 0 67.0507 12.5875 844 54.737 1377.73 552.871
1679 0 68.1486 11.8858 810 55.9346 1377.59 551.312
1680 0 69.0748 11.7264 810 56.4346 1377.65 549.463
1681 0 71.0917 12.505 889 55.9584 1377.27 548.531
1682 0 73.0515 12.1695 889 56.3352 1377.61 547.903
1683 0 77.1189 13.2912 1025 54.3668 1377.07 547.387
1684 0 77.1082 12.9169 996 54.7841 1377.65 546.27
1685 0 81.1488 13.5923 1103 53.6292 1377 545.681
1686 0 82.2428 13.4601 1107 54.0099 1376.87 541.687
1687 0 86.3187 12.8477 1109 54.385 1376.69 542.231
1688 0 86.204 12.8996 1112 54.7923 1376.79 542.243
1689 0 89.4098 12.2358 1094 56.1856 1376.64 541.523
1690 0 92.3675 12.6776 1171 56.3211 1375.83 538.958
1691 0 97.3951 13.7379 1338 54.9327 1375.75 538.152
1692 1 53.2225 11.4801 611 56.7463 1375.3 558.247
1693 0 56.1303 11.3842 639 56.3474 1375.9 560.282
1694 0 58.1104 11.7535 683 56.4261 1375.35 557.858
1695 0 59.1213 12.3982 733 56.3752 1374.7 556.689
1696 0 62.0437 13.4099 832 55.762 1374.6 554.067
1697 0 63.0982 12.8688 812 56.5283 1374.58 554.691
1698 0 64.1843 12.1992 783 57.5785 1375.24 553.513
1699 0 66.0619 12.9575 856 56.6811 1375.52 552.376
1700 0 69.0924 13.5616 937 55.6841 1374.96 553.699
1701 0 68.2308 12.8828 879 57.5575 1373.87 552.149
1702 0 71.261 13.233 943 57.088 1374.16 551.29
1703 0 73.0791 12.5207 915 58.1497 1373.76 551.668
1704 0 75.1623 13.1848 991 57.9576 1373.36 549.85
1705 0 77.168 13.3345 1029 58.0243 1373.21 546.778
1706 0 78.2639 12.8156 1003 58.676 1374.27 547.951
1707 0 81.1491 12.8159 1040 58.6308 1373.86 546.144
1708 0 86.4099 14.6164 1263 56.5447 1373.9 542.275
1709 0 87.2316 13.3438 1164 58.1314 1373.86 542.711
1710 0 88.3763 13.2049 1167 58.9374 1373.89 541.89
1711 0 92.3519 13.0046 1201 58.5895 1374.1 540.1
1712 1 51.2295 11.2435 576 59.184 1373.6 561.795
1713 0 51.1754 11.8025 604 57.7036 1373.98 560.962
1714 0 52.1934 12.5112 653 57.6631 1374.37 560.031
1715 0 53.2013 12.5937 670 57.2463 1374.58 559.064
1716 0 56.0416 13.258 743 56.428 1375.27 558.001
1717 0 56.0911 13.1393 737 57.8657 1374.89 556.995
1718 0 57.0374 12.8688 734 58.0177 1375 556.639
1719 0 60.0725 13.7334 825 56.7006 1374.8 555.113
1720 0 61.0281 13.7478 839 57.0322 1375.17 555.07
1721 0 63.1159 14.1803 895 56.6112 1375.42 553.463
1722 0 64.1219 12.8037 821 58.1693 1375.33 552.095
1723 0 66.2481 13.0721 866 58.3129 1375.23 551.537
1724 0 70.1493 13.6708 959 56.2628 1376.07 549.979
1725 0 70.1493 13.6423 957 169.323 1376.05 550.004
1726 0 75.1008 13.4086 1007 57.1867 1376.45 548.764
1727 0 76.1239 14.0035 1066 57.228 1376.35 547.325
1728 0 77.093 13.9701 1077 57.5237 1376.72 544.643
1729 0 81.1381 14.198 1152 56.2769 1376.48 544.767
1730 0 84.1916 13.98 1177 56.0629 1376.58 542.268
1731 1 44.032 10.4924 462 57.4307 1376.38 561.643
1732 0 46.0645 11.2017 516 56.3275 1376.85 561.403
1733 0 47.0346 11.0982 522 54.7912 1376.98 560.682
1734 0 49.137 12.0887 594 54.8451 1377.18 559.276
1735 0 51.035 11.6979 597 56.8928 1377.53 557.588
1736 0 52.0422 12.5859 655 58.7756 1378.26 557.174
1737 0 53.2121 12.8354 683 58.47 1378.32 556.624
1738 0 55.0739 12.9462 713 57.9593 1378.62 557.244
1739 0 57.0701 12.7212 726 58.1405 1378.68 556.226
1740 0 58.1327 13.8648 806 56.9156 1378.9 553.945
1741 0 62.132 13.9381 866 56.2667 1379.08 553.649
1742 0 64.1601 14.682 942 55.3408 1379.55 552.094
1743 0 65.1472 13.2623 864 57.3495 1379.67 549.715
1744 0 65.0961 13.0883 852 57.7359 1380.09 549.242
1745 0 67.1537 13.3723 898 57.8151 1380.46 547.568
1746 0 72.1356 13.5301 976 56.1742 1380.83 546.28
1747 0 74.3649 13.7699 1024 55.5791 1380.72 545.614
1748 0 75.1281 13.8563 1041 56.2469 1381.14 545.439
1749 0 78.1967 13.9648 1092 56.0934 1381.29 542.396
1750 0 81.2044 13.9278 1131 55.7312 1381.2 540.541
1751 0 83.2449 14.0069 1166 56.5172 1381.18 539.545
1752 0 87.3417 14.1284 1234 56.1483 1381.21 537.628
1753 1 46.1953 10.2175 472 57.7097 1381.17 560.311
1754 0 48.1393 11.6121 559 56.6744 1380.68 557.877
1755 0 50.2861 11.355 571 56.3555 1381.04 556.715
1756 0 50.2648 12.9713 652 55.1135 1380.78 556.873
1757 0 51.2692 12.054 618 55.6942 1380.71 555.248
1758 0 54.0988 12.1444 657 55.1857 1380.48 556.837
1759 0 55.0823 13.1258 723 54.1812 1380.89 554.971
1760 0 56.0489 12.4356 697 54.9627 1380.75 553.561
1761 0 58.1481 12.6745 737 54.2049 1381.02 553.54
1762 0 58.0818 12.8956 749 55.6903 1381.39 549.031
1763 0 63.0289 12.7085 801 54.5605 1381.08 549.61
1764 0 64.1711 12.4667 800 54.5862 1381.01 549.004
1765 0 68.0877 13.5854 925 53.6854 1381.25 546.665
1766 0 70.0459 12.9772 909 54.3685 1381.02 546.734
1767 0 72.1014 12.4824 900 54.6556 1380.82 546.518
1768 0 72.0876 12.3322 889 55.0967 1381.01 544.458
1769 0 75.0954 13.5428 1017 53.4975 1381.18 543.906
1770 0 79.1323 12.9151 1022 54.1477 1380.77 544.072
1771 0 81.2092 13.5453 1100 53.4136 1381.02 542.232
1772 1 43.0374 10.0145 431 56.0487 1380.57 560.29
1773 0 44.03 9.58437 422 56.7322 1380.32 560.671
1774 0 43.0812 10.6079 457 56.6696 1379.99 558.516
1775 0 46.0293 10.8844 501 56.4092 1379.64 558.619
1776 0 48.1041 11.6622 561 53.6025 1379.7 558.758
1777 0 48.1412 11.3001 544 54.9412 1379.95 558.969
1778 0 50.1039 11.4961 576 54.9965 1379.96 558.267
1779 0 53.1541 11.9276 634 54.082 1379.54 556.607
1780 0 53.098 11.4882 610 55.5295 1379.03 556.787
1781 0 54.1197 11.8256 640 55.0016 1379.26 554.764
1782 0 58.1068 11.6854 679 54.6465 1379.57 554.256
1783 0 59.0477 11.8718 701 55.1726 1379.01 552.802
1784 0 60.1277 12.4236 747 54.3976 1378.78 553.359
1785 0 64.033 14.7736 946 51.5211 1378.8 552.582
1786 0 63.1336 13.0517 824 53.7233 1378.92 550.808
1787 0 66.175 13.1772 872 53.3842 1378.96 551.401
1788 0 68.1354 13.7373 936 53.2543 1378.96 548.495
1789 0 70.2293 13.8973 976 53.1947 1378.51 548.848
1790 0 71.2379 13.0689 931 54.4941 1378.17 546.308
1791 0 74.1883 13.5466 1005 54.205 1377.96 546.428
1792 0 76.2012 14.2124 1083 53.2862 1378.4 544.95
1793 0 77.1431 13.4296 1036 55.0203 1377.93 542.911
1794 0 82.1816 13.8109 1135 53.5736 1378.1 543.345
1795 0 82.1749 13.7998 1134 54.1455 1378.03 542.716
1796 0 84.2232 12.5619 1058 55.4527 1377.95 541.943
1797 0 88.2282 13.7031 1209 54.5616 1377.74 539.739
1798 0 90.3654 13.4233 1213 54.7238 1377.4 537.026
1799 0 92.1769 13.9297 1284 55.06 1377.46 535.932
1800 0 96.2754 14.2092 1368 54.3421 1377.31 535.178
1801 0 99.2466 13.27 1317 55.2377 1377.1 536.832
1802 1 50.029 11.2335 562 56.3523 1376.99 558.343
1803 0 51.144 11.2623 576 55.5104 1376.97 556.899
1804 0 52.1934 12.6261 659 54.3202 1376.37 558.328
1805 0 55.1479 11.6777 644 56.927 1376.38 556.12
1806 0 56.2361 12.5364 705 56.0128 1376.81 557.343
1807 0 58.1097 12.5969 732 55.3948 1377.21 555.033
1808 0 60.0884 13.0142 782 55.1547 1376.88 553.917
1809 0 62.0328 12.8158 795 54.8956 1376.59 554.278
1810 0 64.1392 13.0653 838 54.9988 1376.72 552.504
1811 0 64.1392 13.0342 836 168.111 1376.72 552.545
1812 0 67.108 12.9046 866 55.1732 1376.09 550.371
1813 0 70.0939 12.6687 888 54.5822 1376.43 551.511
1814 0 73.0986 12.8593 940 54.8128 1376.39 548.83
1815 0 73.1504 13.2467 969 54.8462 1376.13 548.001
1816 0 77.2634 12.6321 976 55.1742 1375.82 546.206
1817 0 79.2289 14.01 1110 53.5324 1375.61 545.984
1818 0 82.2052 13.6974 1126 53.9654 1375.54 542.136
1819 0 83.2145 12.8463 1069 55.1338 1375.54 542.956
1820 0 86.2982 13.9632 1205 53.8448 1376.06 539.681
1821 0 88.2674 12.4735 1101 55.2734 1376.28 539.896
1822 0 93.1511 13.4083 1249 53.9736 1375.9 538.378
1823 0 95.2735 13.2251 1260 54.0722 1376.84 536.336
1824 0 99.5847 13.978 1392 53.1228 1376.59 533.958
1825 1 49.0347 11.2981 554 51.6751 1376.37 559.819
1826 0 53.1567 10.2339 544 53.182 1376.15 558.601
1827 0 52.0708 11.5228 600 52.88 1377.16 557.112
1828 0 56.1057 11.8526 665 51.6376 1377.38 556.477
1829 0 57.19 12.677 725 50.5559 1377.81 554.297
1830 0 58.1965 12.3031 716 50.7905 1377.8 554.624
1831 0 60.1565 12.8498 773 50.3868 1378.02 551.877
1832 0 62.1605 11.4542 712 51.5702 1378.67 550.574
1833 0 65.3563 12.6996 830 50.0072 1378.25 550.63
1834 0 67.1935 12.531 842 50.8492 1378.6 549.382
1835 0 69.2687 12.6753 878 51.0706 1378.37 548.117
1836 0 71.2508 12.0981 862 51.0661 1378.32 549.32
1837 0 71.1391 12.7356 906 51.4393 1379.11 545.362
1838 0 76.172 12.8525 979 50.9867 1379.46 546.058
1839 0 76.172 12.8131 976 142.732 1380.45 546.058
1840 0 81.2165 13.6302 1107 50.1427 1380.32 543.166
1841 0 84.3239 13.3651 1127 50.3203 1380.39 539.81
1842 1 46.1292 10.6224 490 51.2755 1379.82 558.71
1843 0 47.0965 10.8288 510 50.5255 1379.7 558.759
1844 0 50.1927 10.4398 524 49.5954 1380.65 558.601
1845 0 50.192 11.3365 569 49.0316 1380.5 557.724
1846 0 50.1749 10.862 545 49.9633 1381.13 558.017
1847 0 52.2255 11.795 616 49.1964 1381.06 556.235
1848 0 55.2034 11.6116 641 49.2964 1381.05 556.187
1849 0 55.1535 12.2748 677 49.2142 1381.32 555.21
1850 0 57.2218 12.1632 696 49.6178 1381.59 553.56
1851 0 59.1552 12.4249 735 48.9184 1381.74 551.933
1852 0 60.2109 12.6555 762 49.2717 1381.87 552.559
1853 0 62.0778 13.8214 858 47.4452 1381.44 551.008
1854 0 64.0901 13.1534 843 48.0463 1381.75 548.578
1855 0 64.1285 12.1007 776 49.1134 1381.92 550.075
1856 0 69.2507 12.5919 872 47.8486 1381.46 550.702
1857 0 70.0989 12.9817 910 48.0989 1381.73 547.6
1858 0 72.2458 12.4298 898 48.6336 1381.41 547.612
1859 0 73.2186 13.1524 963 48.3188 1381.43 544.252
1860 1 41.0334 10.6011 435 48 1380.82 562.733
1861 0 42.1666 10.5297 444 48.25 1380.82 562.331
1862 0 42.0274 9.8983 416 49.3221 1380.31 561.192
1863 0 44.0644 11.5513 509 48.112 1380.24 560.992
1864 0 42.0543 10.8907 458 49.3188 1380.01 559.893
1865 0 46.011 10.6714 491 49.1385 1380.13 559.191
1866 0 47.1678 11.8725 560 49.4982 1380.24 557.443
1867 0 49.2155 10.8503 534 50.4345 1380.29 555.406
1868 0 49.1764 11.4689 564 50.3156 1380.86 557.672
1869 0 51.1984 11.6996 599 49.6628 1380.92 557.316
1870 0 51.1915 11.2519 576 50.6858 1380.17 555.71
1871 0 55.1919 12.4837 689 48.4427 1379.58 554.826
1872 0 53.1602 12.0579 641 49.7738 1380.04 552.989
1873 0 57.0786 12.5091 714 48.8095 1379.15 551.937
1874 0 57.0438 12.8147 731 48.6265 1379.48 553.732
1875 0 61.0992 13.0607 798 49.0702 1379.05 551.867
1876 0 62.0977 13.1567 817 48.3464 1379.36 552.222
1877 0 63.1444 13.1761 832 48.5673 1379.04 550.7
1878 0 64.1129 13.601 872 48.8933 1378.75 550.062
1879 0 66.1288 12.8537 850 49.3612 1379.29 551.116
1880 0 69.0725 13.6089 940 49.0777 1378.96 550.097
1881 0 69.0982 14.0669 972 49.2037 1378.69 549.35
1882 0 72.1233 14.2672 1029 49.3576 1378.59 548.146
1883 0 74.0336 13.5344 1002 49.991 1378.79 547.278
1884 1 38.0293 10.4919 399 52.3208 1378.92 564.454
1885 0 39.0357 11.4767 448 51.2701 1378.37 564.094
1886 0 42.0141 10.8059 454 51.8238 1378.17 563.359
1887 0 42.0435 11.2027 471 52.1338 1378.06 562.611
1888 0 43.0487 11.7541 506 51.504 1377.57 562.905
1889 0 45.1052 12.7036 573 49.1222 1377.8 561.707
1890 0 47.1079 13.2887 626 49.5671 1377.57 560.797
1891 0 47.1415 12.3034 580 51.4569 1376.95 560.29
1892 0 49.2684 13.7411 677 50.4609 1377.96 560.359
1893 0 52.1672 12.9583 676 50.4749 1377.74 560.709
1894 0 51.0673 13.727 701 50.9258 1377.78 559.71
1895 0 50.0419 12.7893 640 53.0375 1377.68 558.039
1896 0 56.1571 13.4979 758 51.438 1377.8 557.933
1897 0 60.0793 14.5641 875 49.6766 1377.37 555.455
1898 0 66.0602 17.5295 1158 45.272 1377.86 551.199
1899 0 67.177 16.3895 1101 46.6013 1376.75 551.981
1900 0 67.0989 16.8259 1129 47.0779 1376.87 552.779
1901 0 64.0664 14.6567 939 51.0841 1376.42 553.7
1902 0 66.0694 14.7875 977 51.2395 1376.58 553.376
1903 0 66.0974 14.3273 947 52.604 1375.67 552.718
1904 0 67.199 13.1698 885 54.1774 1376.24 552.923
1905 0 71.1541 14.2789 1016 53.1821 1375.99 552.155
1906 0 73.0634 14.4669 1057 53.2204 1375.74 549.99
1907 0 75.1038 14.6198 1098 53.4007 1375.77 550.204
1908 0 78.0748 14.0891 1100 54.2473 1375.68 548.107
1909 0 80.239 14.3322 1150 53.933 1375.52 547.927
1910 0 82.1993 14.5135 1193 54.0369 1375.39 547.479
1911 0 84.0707 14.6068 1228 54.2443 1374.88 546.985
1912 0 86.0916 14.1129 1215 55.5481 1374.83 543.635
1913 0 89.1443 15.0094 1338 54.5972 1374.98 541.318
1914 1 48.0947 10.1674 489 57.8323 1374.99 563.98
1915 0 49.1325 12.1508 597 56.5209 1374.66 562.164
1916 0 49.1023 11.3844 559 57.6333 1374.25 562.304
1917 0 52.1037 12.1297 632 56.1139 1373.86 562.639
1918 0 53.0688 13.4542 714 56.6541 1374.15 559.839
1919 0 56.0379 13.2232 741 56.9312 1374.21 560.119
1920 0 58.157 13.7559 800 55.8 1375.6 557.84
1921 0 58.1012 13.4937 784 56.852 1375.21 558.885
1922 0 60.0656 12.6029 757 57.8679 1374.64 556.774
1923 0 62.0924 13.5282 840 56.7548 1375.14 555.72
1924 0 66.0665 13.3048 879 56.4937 1374.39 555.893
1925 0 68.1695 13.7451 937 56.3138 1374.05 553.602
1926 0 69.0688 13.7834 952 56.2195 1373.82 553.165
1927 0 72.0705 13.126 946 57.0433 1373.35 551.801
1928 0 73.0477 13.279 970 56.8608 1373.37 550.891
1929 0 75.1235 13.5776 1020 57.0431 1373.76 547.895
1930 0 79.0921 13.9458 1103 56.5567 1373.52 546.9
1931 0 81.1032 13.452 1091 56.8213 1374.14 546.522
1932 0 85.2031 14.0136 1194 56.0084 1373.88 545.59
1933 0 87.0915 13.3653 1164 57.384 1374.28 544.043
1934 0 92.0433 13.863 1276 56.5815 1374.02 542.241
1935 0 94.182 13.75 1295 57.0548 1374.04 540.576
1936 0 97.1084 13.6857 1329 57.1076 1373.54 539.457
1937 1 49.0565 11.9658 587 58.3731 1373.86 562.412
1938 0 53.0636 12.7583 677 56.901 1374.14 560.236
1939 0 54.072 13.667 739 56.6062 1373.91 558.836
1940 0 57.0428 13.3759 763 56.5649 1373.96 558.212
1941 0 59.1392 12.5636 743 57.7941 1374.23 558.447
1942 0 61.1176 13.8422 846 56.4267 1374.36 555.382
1943 0 62.1348 13.3741 831 56.8929 1374.55 555.427
1944 0 65.2042 14.3702 937 54.8047 1374.82 552.884
1945 0 68.1096 13.6985 933 54.9218 1375.13 552.524
1946 0 69.0739 13.652 943 55.0201 1375.32 552.15
1947 0 71.1869 13.6261 970 55.5402 1375.09 549.378
1948 0 74.0662 14.109 1045 54.9206 1375.04 549.199
1949 0 76.1652 14.3635 1094 54.6435 1374.92 547.847
1950 0 78.1851 14.2866 1117 54.829 1375.9 546.423
1951 0 81.144 13.8766 1126 55.5382 1375.94 545.019
1952 0 85.1625 14.4665 1232 54.3718 1375.95 544.254
1953 0 86.2026 14.1643 1221 55.4865 1375.76 540.471
1954 0 91.2114 14.5925 1331 54.6619 1376.66 538.689
1955 0 94.2199 14.5298 1369 54.5172 1376.93 537.48
1956 0 96.1504 14.3213 1377 54.8192 1377.27 536.67
1957 0 98.3045 14.6789 1443 54.4615 1377.51 533.809
1958 1 55.0686 11.5129 634 55.4416 1377.39 557.249
1959 0 55.0962 11.8338 652 55.4018 1377.46 554.853
1960 0 57.0626 11.6889 667 56.3658 1377.55 553.102
1961 0 62.0557 13.2623 823 53.5626 1378.24 553.541
1962 0 63.2082 12.1029 765 55.5712 1378.05 553.45
1963 0 64.1857 12.9624 832 55.0024 1377.83 551.222
1964 0 66.1646 13.013 861 54.7747 1378.2 551.065
1965 0 70.1318 13.8596 972 53.1533 1378.88 550.632
1966 0 71.1881 13.078 931 54.5994 1378.16 547.327
1967 0 75.1639 13.2643 997 53.9589 1378.86 547.395
1968 0 77.3919 13.7611 1065 52.5822 1379.05 546.64
1969 0 80.2237 13.4624 1080 53.3537 1379.63 542.531
1970 0 83.2121 13.4596 1120 53.6938 1379.44 541.242
1971 0 85.1768 13.9944 1192 53.8456 1379.43 538.013
1972 0 89.2499 13.5462 1209 53.7527 1379.64 539.68
1973 0 91.1734 13.7101 1250 54.1896 1379.84 536.575
1974 0 94.2948 13.9668 1317 53.9719 1380.24 534.789
1975 0 97.27 13.3649 1300 54.9192 1380.23 533.868
1976 0 101.286 13.0028 1317 55.1169 1380.25 531.476
1977 1 53.124 10.4284 554 55.4765 1380.54 556.59
1978 0 58.0833 11.3802 661 54.3207 1380.18 555.148
1979 0 59.0778 12.3397 729 54.4499 1380.37 550.964
1980 0 59.0442 11.6862 690 55.4971 1381.19 551.429
1981 0 61.1421 13.117 802 53.4052 1381.18 553.029
1982 0 62.1638 11.7914 733 55.4188 1381.57 551.106
1983 0 66.1326 12.233 809 54.6984 1381.5 551.177
1984 0 67.181 13.0245 875 54.3794 1381.44 549.184
1985 0 71.0813 13.2946 945 54.0328 1381.59 548.521
1986 0 73.1357 13.3177 974 54.0205 1381.63 544.235
1987 0 74.2285 12.704 943 54.8218 1381.08 545.312
1988 0 78.1431 13.4625 1052 53.8555 1381.07 544.715
1989 0 80.3957 12.3017 989 55.3873 1381.5 543.369
1990 0 82.136 13.5994 1117 54.3348 1381.33 541.218
1991 0 85.3298 14.3326 1223 53.1619 1381.14 539.459
1992 0 87.2572 12.5147 1092 54.7335 1380.9 542.214
1993 0 92.4943 13.9468 1290 53.5225 1381.04 535.95
1994 0 92.1081 13.0825 1205 55.0705 1380.57 533.752
1995 0 97.605 14.2411 1390 53.4871 1380.84 533.387
1996 0 100.409 13.4849 1354 54.4114 1381.18 532.996
1997 0 102.564 14.5177 1489 53.5393 1380.75 529.664
1998 0 106.667 13.35 1424 54.519 1380.5 529.643
1999 1 55.3613 11.0727 613 54.9772 1380.56 553.713
2000 0 58.1244 11.6302 676 54.7737 1380.94 553.018
2001 0 59.3804 12.4452 739 53.4844 1380.5 552.003
2002 0 61.3209 12.72 780 52.859 1380.55 550.278
2003 0 64.4001 13.09 843 51.8031 1380.31 549.716
2004 0 64.4464 12.5686 810 53.0395 1379.9 548.272
2005 0 65.1988 12.9604 845 53.8852 1379.67 545.56
2006 0 66.3762 12.5497 833 54.2893 1378.74 545.414
2007 0 69.4757 12.7383 885 53.6068 1378.59 544.516
2008 0 72.2948 13.2375 957 53.2989 1379.05 541.389
2009 0 74.3653 13.6354 1014 53.0582 1378.68 542.179
2010 0 75.5312 13.0542 986 54.0081 1378.6 540.035
2011 0 75.4228 13.1658 993 54.5196 1378.91 539.252
2012 0 79.6018 13.3414 1062 53.7637 1378.45 537.277
2013 0 83.6119 13.0843 1094 54.0018 1377.99 537.432
2014 0 83.5748 13.4012 1120 54.0884 1378.33 534.045
2015 0 86.656 12.4054 1075 54.5981 1378.31 535.137
2016 0 90.359 13.5238 1222 53.1948 1378.13 532.314
2017 1 48.269 9.4885 458 55.214 1378.05 553.635
2018 0 50.2231 10.1348 509 54.3438 1377.65 552.949
2019 0 53.2658 10.9639 584 53.7175 1378.01 551.457
2020 0 54.0137 11.2009 605 53.8744 1377.51 553.775
2021 0 59.3195 12.5928 747 51.9076 1378.62 554.246
2022 0 58.2229 13.4311 782 51.4693 1378.39 555.043
2023 0 60.2252 12.9348 779 53.1438 1377.89 550.178
2024 0 62.3799 12.2475 764 53.6531 1378.13 550.271
2025 0 67.176 13.5465 910 51.7176 1377.72 550.941
2026 0 66.1315 12.7473 843 53.2776 1377.53 550.033
2027 0 67.3273 12.8625 866 53.3614 1377.54 547.478
2028 0 71.0834 13.7303 976 52.3996 1377.36 547.663
2029 0 74.3224 12.54 932 53.1888 1377.32 547.749
2030 0 76.4051 13.5855 1038 52.052 1377.37 546.465
2031 0 78.5069 12.967 1018 53.3173 1377.71 544.503
2032 0 80.2895 13.6132 1093 53.3952 1377.7 542.256
2033 0 81.3258 12.37 1006 55.2694 1377.3 541.777
2034 0 87.4515 13.4017 1172 53.2713 1377.54 540.567
2035 0 89.4118 13.2533 1185 53.7333 1376.87 541.306
2036 1 51.1568 12.061 617 51.8395 1377.63 560.869
2037 0 50.0716 12.4821 625 52.7472 1377.48 559.466
2038 0 51.1881 11.4675 587 54.0511 1376.31 557.445
2039 0 53.0852 11.7358 623 53.6934 1376.55 557.475
2040 0 56.0783 12.3221 691 52.644 1376.69 558.062
2041 0 57.0547 11.8833 678 53.944 1377.52 556.322
2042 0 58.0456 12.2662 712 54.1461 1377.06 555.166
2043 0 59.1027 11.9961 709 54.5416 1376.88 555.083
2044 0 60.1219 12.5246 753 54.7105 1376.85 554.041
2045 0 63.0699 12.3514 779 54.6958 1376.64 554.032
2046 0 64.1276 12.6622 812 54.5961 1377.08 551.933
2047 0 67.0944 12.8028 859 54.9721 1376.53 552.027
2048 0 70.1827 13.3224 935 54.1465 1376.04 551.035
2049 0 73.1083 13.0902 957 54.581 1375.69 549.264
2050 0 75.0647 13.2552 995 54.803 1375.92 548.412
2051 0 78.1299 12.0952 945 56.3598 1375.62 547.186
2052 0 80.3232 12.4995 1004 56.1145 1375.92 546.968
2053 0 82.3829 12.976 1069 56.4574 1375.71 545.412
2054 0 86.1122 13.1456 1132 57.8428 1375.87 545.566
2055 1 49.0299 11.1768 548 56.9854 1376.04 563.522
2056 0 47.0368 10.5449 496 59.7036 1375.32 560.871
2057 0 50.0743 11.6826 585 58.0188 1374.54 560.263
2058 0 51.0463 12.4005 633 57.3586 1375.74 560.66
2059 0 51.0202 11.4856 586 59.7116 1375.97 560.312
2060 0 55.0411 12.4452 685 57.546 1375.47 560.467
2061 0 56.1289 12.0437 676 59.3476 1374.68 558.232
2062 0 57.0911 12.6114 720 58.5639 1375.3 556.985
2063 0 59.1064 12.1307 717 59.0907 1375.5 556.835
2064 0 60.1274 12.7562 767 58.4524 1375.08 554.3
2065 0 62.1461 12.3902 770 58.7104 1375.19 556.461
2066 0 64.2557 12.9016 829 58.1291 1374.95 554.248
2067 0 65.0865 12.6908 826 58.4007 1375.64 554.1
2068 0 67.1942 12.9773 872 58.3888 1375.32 553.71
2069 0 69.1823 12.9513 896 58.8917 1375.55 552.133
2070 0 70.2262 12.7445 895 58.8782 1375.65 551.226
2071 0 73.2246 12.9192 946 58.6385 1375.03 549.666
2072 0 75.2713 13.1391 989 58.9848 1375.45 549.759
2073 0 76.3353 13.9385 1064 57.9859 1375.66 548.935
2074 0 79.2692 12.7792 1013 59.2468 1375.36 547.966
2075 0 83.085 13.1311 1091 58.4345 1376.01 546.049
2076 0 85.3338 13.664 1166 58.0575 1375.74 543.195
2077 1 45.1378 11.0107 497 58.3763 1375.41 563.658
2078 0 46.3497 10.3776 481 58.8046 1375.88 560.503
2079 0 46.3873 11.4255 530 57.117 1376.37 559.045
2080 0 48.2421 11.691 564 56.3652 1376.3 557.64
2081 0 49.2205 12.1697 599 55.5659 1376.96 556.18
2082 0 49.1024 12.6674 622 54.6206 1377.46 559.441
2083 0 50.0245 11.5543 578 56.2266 1377.22 556.097
2084 0 52.1567 11.6764 609 56.1018 1377.66 556.612
2085 0 54.1183 12.1031 655 55.8351 1377.33 556.232
2086 0 55.3132 12.6914 702 54.6952 1377.67 555.816
2087 0 57.2246 12.7917 732 56.4658 1377.65 554.482
2088 0 59.168 13.6222 806 55.3548 1377.98 554.525
2089 0 59.1592 13.0157 770 56.5039 1378.23 553.525
2090 0 62.2358 12.8865 802 56.5835 1378.31 551.792
2091 0 64.4442 12.6621 816 56.4877 1378.46 551.609
2092 0 65.2415 13.1205 856 56.5759 1379.1 549.71
2093 0 67.3927 13.1617 887 56.0586 1378.81 548.908
2094 0 70.4425 13.5855 957 55.0773 1379.13 547.1
2095 0 71.2581 12.2091 870 56.7471 1379.29 545.891
2096 0 75.2908 13.5608 1021 55.0509 1379.81 543.856
2097 0 79.255 13.2988 1054 54.7144 1379.7 542.715
2098 0 81.1466 13.7159 1113 54.6325 1379.96 540.695
2099 0 84.2712 13.5515 1142 54.4799 1380.12 538.89
2100 1 46.275 10.5889 490 55.998 1379.31 558.69
2101 0 46.2291 11.5728 535 55.1701 1379.87 557.264
2102 0 48.184 11.8712 572 55.4283 1380.09 555.1
2103 0 51.147 12.8649 658 53.9164 1380.07 556.704
2104 0 51.3117 12.5702 645 54.9364 1380.48 556.515
2105 0 53.2183 13.0782 696 54.8807 1380.89 554.772
2106 0 54.1 12.3475 668 55.7889 1380.79 554.641
2107 0 57.0765 12.1416 693 55.3434 1380.7 554.649
2108 0 60.2441 14.2255 857 53.2322 1380.79 552.38
2109 0 61.1326 12.6446 773 55.2393 1380.75 552.521
2110 0 62.2559 12.5771 783 55.9183 1380.73 551.553
2111 0 64.3293 14.3325 922 54.09 1380.54 549.997
2112 0 64.1473 12.9234 829 56.1858 1380.41 548.007
2113 0 65.505 12.8998 845 56.3314 1380.5 547.394
2114 0 69.3588 13.7834 956 54.7584 1380.55 546.748
2115 0 70.1111 13.6355 956 54.7793 1380.47 547.153
2116 0 73.3174 14.0212 1028 54.0681 1380.43 543.812
2117 0 73.3693 13.1526 965 55.4466 1380.25 542.013
2118 0 76.3877 13.942 1065 54.5531 1380.3 541.513
2119 0 78.2887 13.3097 1042 55.1919 1380.13 539.959
2120 0 83.4313 13.8797 1158 54.4568 1380 539.197
2121 0 85.6005 14.5093 1242 53.9155 1380.49 535.815
2122 0 87.2245 14.2391 1242 54.4911 1380.69 537.002
2123 0 88.4208 13.2887 1175 55.566 1380.56 537.26
2124 0 92.3818 13.1303 1213 56.0923 1380.21 534.826
2125 0 94.3857 13.6779 1291 55.6538 1379.75 533.053
2126 1 51.3148 11.1664 573 56.2216 1378.68 558.279
2127 0 53.1276 12.1782 647 55.7125 1379.09 555.747
2128 0 55.243 13.2868 734 54.3379 1378.61 555.353
2129 0 57.1213 12.7098 726 54.8375 1378.8 556.003
2130 0 57.1097 12.5373 716 55.6173 1378.91 552.898
2131 0 58.0914 12.6697 736 55.6807 1378.89 554.803
2132 0 61.0999 13.3716 817 55.0771 1379.12 553.493
2133 0 64.0543 12.5675 805 55.4422 1378.25 553.024
2134 0 65.0643 12.9872 845 55.271 1378.98 551.993
2135 0 68.3306 13.0103 889 55.2047 1378.67 551.3
2136 0 70.1726 13.31 934 54.9261 1378.13 549.959
2137 0 72.2678 14.0727 1017 54.1731 1378.56 547.521
2138 0 72.1968 12.7984 924 56.513 1378.4 547.969
2139 0 76.1841 13.1786 1004 55.991 1377.81 546.096
2140 0 79.1374 14.2284 1126 54.5 1377.91 544.957
2141 0 81.1871 13.7091 1113 55.6685 1377.24 544.821
2142 0 84.4525 13.404 1132 56.3357 1377.21 542.057
2143 0 87.4385 14.6274 1279 54.8655 1376.63 541.808
2144 0 88.3327 13.6077 1202 56.6206 1377.13 541.411
2145 0 93.4685 13.3735 1250 56.6152 1377.02 541.205
2146 0 95.3001 13.5152 1288 56.8517 1376.93 539.723
2147 1 49.1374 11.2338 552 58.7428 1376.6 561.181
2148 0 53.1683 11.6611 620 58.4661 1376.83 559.671
2149 0 54.2098 12.5623 681 58.0308 1376.94 558.009
2150 0 57.0825 13.5768 775 56.8245 1377.25 557.028
2151 0 56.0666 12.9311 725 58.9503 1377.26 557.382
2152 0 61.0786 13.6873 836 57.3792 1378.12 555.053
2153 0 62.0996 13.9453 866 57.3614 1377.18 555.993
2154 0 66.0849 14.1333 934 56.364 1377.01 554.032
2155 0 65.071 13.2624 863 58.3152 1377.01 552.657
2156 0 71.0962 14.0514 999 56.1191 1376.61 550.081
2157 0 72.0886 13.7747 993 56.9517 1376.28 549.609
2158 0 76.1486 13.9202 1060 56.5594 1376.33 548.525
2159 0 77.08 13.22 1019 57.7056 1376.28 547.469
2160 0 80.1958 13.3922 1074 57.1639 1376.73 545.657
2161 0 83.068 14.2895 1187 56.3934 1376.52 545.493
2162 0 87.1399 14.3677 1252 56.1214 1376.99 543.377
2163 0 91.1518 14.997 1367 55.2516 1376.68 542.914
2164 0 93.0635 14.4203 1342 56.2086 1376.3 540.829
2165 0 95.2055 14.2009 1352 56.7293 1375.9 540.605
2166 0 99.1146 14.3369 1421 56.7551 1376.4 540.066
2167 1 53.0774 11.7187 622 59.7251 1376.84 560.977
2168 0 56.1145 12.5636 705 59.5234 1376.4 560.332
2169 0 58.0547 12.2815 713 59.7405 1376.53 560.569
2170 0 59.0802 12.9146 763 59.3788 1376.29 560.742
2171 0 58.0545 13.7974 801 59.0762 1375.64 556.875
2172 0 62.0558 14.213 882 58.5317 1375.97 555.391
2173 0 64.086 14.2621 914 58.0274 1375.17 555.598
2174 0 65.0456 13.6366 887 59.3303 1374.72 553.681
2175 0 68.1373 14.4561 985 58.7259 1375.41 553.308
2176 0 71.1572 14.5312 1034 58.5696 1375.25 551.223
2177 0 73.1159 13.8274 1011 60.0574 1374.95 550.745
2178 0 76.1408 15.4713 1178 58.2182 1375.54 550.028
2179 0 76.1869 13.8344 1054 60.5294 1374.99 549.897
2180 0 79.2839 14.8328 1176 60.3444 1375.1 546.975
2181 0 82.1645 14.0815 1157 61.3181 1375.42 547.501
2182 0 86.198 15.2672 1316 60.1634 1375.3 544.992
2183 0 88.1151 13.9704 1231 62.2965 1374.87 543.618
2184 0 92.284 14.5637 1344 61.5223 1375.27 541.91
2185 0 95.135 15.1994 1446 60.9205 1375.16 538.864
2186 0 96.0975 14.3396 1378 62.5646 1375.31 538.696
2187 1 50.0466 12.928 647 63.8083 1375.83 560.21
2188 0 53.038 12.4251 659 64.3945 1376.31 559.742
2189 0 54.0429 13.2487 716 63.817 1376.22 558.465
2190 0 55.0125 14.1422 778 63.4344 1376.45 557.668
2191 0 57.1153 13.7616 786 63.9046 1376.84 556.92
2192 0 58.0837 13.9626 811 64.6313 1376.62 554.628
2193 0 62.1499 14.9156 927 62.5491 1376.83 553.51
2194 0 63.065 14.3503 905 63.1326 1377.39 551.414
2195 0 65.1062 14.1308 920 63.4109 1377.5 551.876
2196 0 66.0479 14.5803 963 63.4174 1377.45 548.641
2197 0 68.0768 14.8068 1008 62.2887 1377.85 549.314
2198 0 72.1611 14.5092 1047 62.7154 1377.96 547.006
2199 0 74.1026 14.6958 1089 62.8154 1378.26 546.046
2200 0 77.1496 15.3079 1181 61.0186 1378.65 545.33
2201 0 79.0995 14.2858 1130 62.3283 1378.53 542.61
2202 0 81.1714 14.2168 1154 62.6196 1378.81 543.11
2203 0 85.1357 14.1304 1203 63.2993 1378.62 539.507
2204 0 87.1405 14.6201 1274 62.5911 1379.12 538.287
2205 0 92.0735 14.6188 1346 62.6597 1379.23 537.007
2206 0 95.1975 14.7378 1403 61.489 1379.57 536.963
2207 1 50.2179 11.5497 580 63.8966 1379.53 557.259
2208 0 51.1877 12.6202 646 62.4814 1379.52 557.91
2209 0 52.1707 13.2067 689 62.82 1379.71 554.299
2210 0 56.1358 12.8795 723 61.9239 1379.63 554.08
2211 0 57.1989 13.3919 766 61.2167 1380.03 553.397
2212 0 63.0722 13.3974 845 59.0142 1380.53 551.756
2213 0 62.2121 12.9396 805 60.2981 1380.71 551.798
2214 0 66.2253 12.9407 857 59.5321 1380.73 550.273
2215 0 67.1148 12.5606 843 60.6785 1380.65 547.934
2216 0 70.1209 13.0631 916 59.8122 1380.73 547.57
2217 0 71.1892 13.7942 982 58.6354 1380.66 545.969
2218 0 74.0896 13.0113 964 58.9627 1381.2 543.249
2219 0 76.2196 13.6448 1040 58.5202 1381.09 544.183
2220 0 81.116 13.1787 1069 58.9991 1381.21 542.037
2221 0 82.1397 13.4283 1103 58.7679 1381.13 541.625
2222 0 86.126 13.0855 1127 58.7933 1381.27 541.161
2223 0 89.1489 12.4062 1106 59.4765 1380.86 538.924
2224 0 93.1713 14.6075 1361 57.2381 1381.69 536.937
2225 1 51.0376 9.75752 498 60.0141 1380.66 554.98
2226 0 54.2195 11.103 602 57.201 1381.26 555.761
2227 0 53.0669 10.8165 574 58.2108 1381.37 555.369
2228 0 53.1565 12.5102 665 56.7609 1380.98 553.911
2229 0 58.0916 13.2377 769 56.8453 1381.18 552.172
2230 0 58.1 12.0998 703 57.7994 1380.79 550.691
2231 0 62.0807 12.1616 755 57.0146 1380.85 551.143
2232 0 64.1183 13.1476 843 55.6145 1380.92 548.819
2233 0 64.1034 12.6514 811 56.4402 1380.76 547.904
2234 0 68.1907 12.4944 852 56.3709 1380.43 546.412
2235 0 70.1069 12.9659 909 55.8581 1380.23 546.506
2236 0 73.0591 12.7157 929 55.6663 1380.07 546.15
2237 0 75.1058 12.782 960 55.9542 1379.61 542.418
2238 0 76.217 12.0052 915 57.0754 1379.29 540.933
2239 0 80.228 12.8633 1032 55.5329 1379.07 540.342
2240 0 83.3008 12.9771 1081 56.0703 1379.49 537.14
2241 0 86.2606 13.2737 1145 55.593 1379.16 535.572
2242 1 48.1381 9.84668 474 56.4219 1379.19 558.46
2243 0 51.196 11.2313 575 55.2209 1379.36 555.743
2244 0 52.1986 11.1114 580 56.0586 1380.22 554.041
2245 0 54.2477 10.8392 588 55.8997 1379.07 555.18
2246 0 55.1582 11.5123 635 56.2441 1379.11 554.849
2247 0 55.1166 11.2489 620 56.9371 1379.13 553.745
2248 0 59.3386 12.2517 727 55.707 1378.53 552.399
2249 0 61.3058 12.8536 788 55.5102 1377.98 550.51
2250 0 61.3058 12.8699 789 161.512 1377.98 550.531
2251 0 65.3235 12.4151 811 55.8286 1377.98 551.564
2252 0 66.2722 12.4487 825 56.5236 1378.85 549.325
2253 0 67.482 13.5592 915 55.6022 1378.87 548.197
2254 0 72.6194 13.6189 989 55.2649 1378.52 546.685
2255 0 72.3121 13.262 959 56.4536 1378.42 547.436
2256 0 74.3897 13.7385 1022 56.3601 1378.62 545.636
2257 0 78.3833 12.8982 1011 56.7141 1378.5 544.45
2258 1 42.2805 10.6195 449 55.9354 1378.73 563.374
2259 0 42.2758 10.7863 456 56.7632 1378.88 563.057
2260 0 43.4663 11.6412 506 56.7115 1379.18 562.976
2261 0 45.276 12.5674 569 56.4095 1379.2 559.568
2262 0 47.1775 12.2728 579 56.5164 1379.39 559.066
2263 0 50.3388 12.2768 618 56.0631 1379.14 558.825
2264 0 51.1182 12.0505 616 57.401 1378.96 558.317
2265 0 52.2191 12.6582 661 56.7595 1379.15 557.21
2266 0 53.1398 12.5142 665 57.4737 1379.52 558.158
2267 0 53.2398 13.2232 704 57.1122 1379.66 557.544
2268 0 55.1594 12.0741 666 58.4144 1379.83 555.643
2269 0 57.1561 12.702 726 57.5165 1379.54 552.908
2270 0 60.2946 13.5667 818 56.3386 1379.91 553.531
2271 0 60.4543 13.0512 789 57.7681 1379.81 552.42
2272 0 62.2357 12.5973 784 58.1658 1379.61 553.017
2273 0 63.2718 13.0864 828 57.6932 1379.36 552.01
2274 0 64.3741 12.94 833 58.1044 1379.33 549.641
2275 0 66.4324 13.5627 901 57.0277 1378.81 549.077
2276 0 69.3914 13.7193 952 56.5242 1378.84 549.517
2277 0 71.3937 13.7407 981 56.8481 1378.78 548.04
2278 0 71.4018 13.221 944 57.8305 1378.7 546.746
2279 0 76.36 13.3054 1016 56.7864 1378.43 545.606
2280 0 76.3372 13.2177 1009 57.5788 1378.44 544.208
2281 0 80.3475 13.2176 1062 57.2571 1378.46 544.113
2282 0 80.2147 12.8779 1033 58.2052 1377.91 540.996
2283 1 45.3095 10.5717 479 56.8706 1377.77 561.357
2284 0 45.234 11.2084 507 56.4162 1377.57 558.477
2285 0 47.134 11.1597 526 56.3935 1377.55 559.152
2286 0 49.0623 11.3733 558 55.4229 1378.01 559.518
2287 0 51.0596 12.3777 632 54.4241 1377.86 559.04
2288 0 53.0504 13.4966 716 53.8268 1377.56 560.721
2289 0 53.1184 12.3498 656 56.3506 1377.77 557.614
2290 0 55.1939 12.284 678 55.2832 1377.71 555.85
2291 0 56.1594 12.5535 705 55.2454 1377.52 555.996
2292 0 59.1485 13.035 771 54.4228 1377.34 556.359
2293 0 61.0924 13.0622 798 54.6842 1377.41 554.67
2294 0 61.1352 12.7913 782 55.7634 1378.3 552.081
2295 0 62.0957 11.9976 745 56.5007 1377.88 553.401
2296 0 66.2558 12.3008 815 55.7816 1377.98 552.27
2297 0 68.1766 12.3503 842 55.6865 1377.6 550.834
2298 0 70.2902 13.615 957 55.1944 1377.3 549.213
2299 0 73.1329 13.5097 988 54.3887 1377.84 549.267
2300 0 75.3847 13.6367 1028 53.9708 1377.33 548.142
2301 0 77.2153 13.6502 1054 54.0123 1377.16 544.462
2302 0 79.2356 13.6302 1080 54.2481 1376.86 541.113
2303 0 85.348 13.6617 1166 53.0961 1376.87 540.791
2304 0 85.3197 13.1857 1125 53.9049 1376.83 538.239
2305 1 47.213 10.8445 512 53.1133 1376.52 559.031
2306 0 47.1628 11.2801 532 53.0244 1376.99 558.852
2307 0 50.2134 11.5308 579 52.5872 1377.29 560.378
2308 0 50.1223 11.4719 575 53.3461 1376.72 559.777
2309 0 54.1343 12.0441 652 52.1702 1376.89 561.221
2310 0 54.1248 12.1017 655 53.3145 1377.01 559.818
2311 0 56.0581 12.273 688 53.577 1376.98 558.994
2312 0 57.1111 12.8521 734 52.8937 1377.22 559.03
2313 0 57.0894 12.1914 696 54.0675 1377 553.858
2314 0 59.1517 13.1188 776 53.3196 1377.57 554.358
2315 0 61.0685 12.6416 772 53.7267 1377 554.592
2316 0 63.0744 12.2871 775 54.5213 1376.85 554.592
2317 0 65.0898 13.443 875 53.2766 1377.42 552.592
2318 0 66.1067 12.268 811 54.6424 1377.4 552.084
2319 0 68.2302 12.8829 879 54.7247 1377.98 549.841
2320 0 72.1072 13.9515 1006 53.5616 1378.34 550.164
2321 0 71.1906 13.204 940 55.1755 1377.85 550.649
2322 0 75.1597 13.5844 1021 54.3908 1378.09 547.855
2323 0 77.2254 13.0786 1010 55.3475 1378.13 546.827
2324 0 79.1168 13.0061 1029 55.6667 1378.28 543.81
2325 0 81.1061 12.4652 1011 56.2216 1379.12 541.835
2326 0 84.2538 13.4356 1132 55.0777 1379.41 541.936
2327 1 47.1303 9.548 450 56.8356 1379.96 559.871
2328 0 49.1751 11.0218 542 55.1937 1379.94 558.465
2329 0 52.2501 11.043 577 55.2825 1379.94 556.191
2330 0 53.1624 11.2486 598 55.6104 1379.82 555.431
2331 0 53.1728 12.1867 648 55.0432 1380.19 556.449
2332 0 55.1407 12.0238 663 55.4585 1380.47 555.456
2333 0 58.099 11.5837 673 56.003 1380.08 554.694
2334 0 62.1582 13.4174 834 53.9784 1380.53 552.728
2335 0 62.2506 13.9918 871 53.7302 1380.59 550.956
2336 0 64.1082 13.68 877 54.333 1380.52 551.641
2337 0 66.1376 12.731 842 55.6449 1380.28 552.214
2338 0 67.0897 13.4149 900 55.3322 1380.67 549.017
2339 0 69.1888 12.2708 849 56.4405 1381.15 550.101
2340 0 72.111 12.6194 910 56.4879 1381.29 548.748
2341 0 71.264 13.471 960 56.2792 1381.58 547.936
2342 0 76.1477 13.6971 1043 55.9866 1381.11 547.859
2343 0 74.049 13.437 995 56.8171 1381.33 543.71
2344 0 78.0746 12.9748 1013 57.4057 1381.78 540.588
2345 0 81.2345 13.7626 1118 56.3596 1381.67 540.347
2346 0 84.2972 14.01 1181 56.1202 1381.55 539.367
2347 0 86.0923 13.4391 1157 56.7822 1381.98 538.983
2348 0 89.3238 12.9641 1158 57.4836 1382.07 535.788
2349 0 92.2042 13.2857 1225 56.7853 1382.25 537.29
2350 0 95.116 13.4678 1281 57.0125 1382.01 534.009
2351 0 96.1381 14.6144 1405 55.9879 1381.53 533.435
2352 0 98.282 13.2476 1302 58.374 1381.9 531.399
2353 0 101.274 13.8041 1398 57.8054 1381.54 529.907
2354 0 105.368 13.9511 1470 57.4068 1381.74 527.165
2355 0 108.246 14.6702 1588 56.2809 1381.59 526.675
2356 0 112.411 15.1676 1705 55.7484 1381.62 524.1
2357 0 113.317 13.6784 1550 57.8277 1381.8 523.205
2358 0 121.164 14.1131 1710 57.2953 1381.56 520.606
2359 1 66.1092 11.3751 752 58.4641 1381.23 547.036
2360 0 70.1177 12.2081 856 57.9871 1381.61 545.369
2361 0 72.1146 12.3692 892 57.9137 1381.28 544.802
2362 0 75.1799 12.9024 970 57.2753 1381.01 542.929
2363 0 74.1786 12.2272 907 58.3319 1380.96 540.281
2364 0 80.1666 12.1996 978 57.8436 1380.66 541.987
2365 0 79.3528 12.665 1005 57.7005 1380.58 540.373
2366 0 83.4911 11.8096 986 58.0984 1380.2 537.233
2367 0 85.4283 12.6773 1083 57.6371 1380.33 535.63
2368 0 89.4419 14.4787 1295 55.7506 1379.86 534.622
2369 0 91.3602 13.7478 1256 56.711 1379.73 533.717
2370 0 94.7087 13.0611 1237 57.7146 1379.62 531.773
2371 0 98.9192 13.8194 1367 56.2334 1379.34 530.627
2372 0 100.438 13.5606 1362 57.5162 1379.22 526.908
2373 0 102.396 13.3501 1367 57.9298 1378.92 525.721
2374 0 107.432 13.0221 1399 58.133 1378.88 525.079
2375 0 110.387 13.3802 1477 57.6486 1378.86 522.178
2376 0 110.387 13.3802 1477 162.557 1378.86 522.178
2377 0 117.391 13.3741 1570 57.9019 1378.8 518.348
2378 1 63.3101 11.7991 747 56.7938 1378.95 547.316
2379 0 64.3776 11.4947 740 56.2405 1379.64 548.547
2380 0 67.435 11.9671 807 55.4064 1378.84 547.743
2381 0 68.3959 12.2083 835 53.7257 1379.08 543.183
2382 0 71.3442 12.671 904 53.1914 1379.11 543.316
2383 0 73.2474 12.5602 920 52.6641 1378.72 545.132
2384 0 76.3188 12.5919 961 52.8512 1379.11 542.114
2385 0 77.3671 12.7444 986 53.0538 1379.04 540.824
2386 0 81.4359 11.9235 971 53.8538 1379.23 540.921
2387 0 84.3521 13.4911 1138 52.1942 1378.92 538.307
2388 0 85.3456 12.8771 1099 53.4286 1379.13 537.266
2389 0 89.3522 13.5755 1213 52.1434 1379.23 537.88
2390 0 92.241 12.2939 1134 53.5414 1379.73 536.268
2391 0 95.2441 13.7226 1307 52.2387 1379.52 533.023
2392 0 98.2366 13.1825 1295 52.7027 1379.27 533.695
2393 0 101.363 13.0521 1323 52.8828 1378.8 531.92
2394 0 106.268 13.466 1431 52.0147 1378.73 529.343
2395 0 107.259 12.8101 1374 52.9287 1379.1 525.925
2396 1 59.1004 10.1691 601 53.7022 1378.91 553.198
2397 0 62.1146 9.98155 620 53.0532 1379.22 555.202
2398 0 64.1057 12.8694 825 51.3915 1379.13 550.802
2399 0 65.0879 11.7994 768 52.487 1379.68 549.931
2400 0 69.1148 12.4865 863 51.6049 1378.96 551.441
2401 0 70.1057 13.5795 952 51.2983 1378.79 548.688
2402 0 72.1872 13.1879 952 52.3887 1378.6 548.122
2403 0 75.1034 13.3815 1005 52.0219 1378.49 549.824
2404 0 74.0959 13.55 1004 52.988 1377.8 548.554
2405 0 79.2043 13.2063 1046 52.8604 1377.9 545.514
2406 0 82.1888 12.3374 1014 54.0651 1377.9 544.116
2407 0 84.1302 13.6217 1146 52.9075 1377.78 543.559
2408 0 87.1382 13.4843 1175 53.3532 1377.51 543.164
2409 0 90.1675 14.1514 1276 52.953 1377.25 541.101
2410 0 93.231 13.8795 1294 53.5742 1377.55 537.891
2411 0 96.1323 13.2318 1272 54.2649 1376.63 539.09
2412 0 97.2073 13.9599 1357 53.8305 1376.73 537.718
2413 1 50.0719 10.3451 518 55.2819 1376.44 562.479
2414 0 53.1057 12.2586 651 54.5853 1376.53 561.233
2415 0 54.1208 12.4352 673 55.1694 1377.11 560.311
2416 0 57.1066 12.8356 733 54.0737 1376.78 560.224
2417 0 58.0721 12.209 709 55.2807 1376.61 557.244
2418 0 61.0564 13.5776 829 53.4439 1377.02 557.259
2419 0 61.1028 13.3709 817 53.9119 1377.11 557.316
2420 0 63.166 13.5041 853 54.0844 1377.09 554.866
2421 0 65.0705 13.9387 907 53.796 1376.73 555.59
2422 0 68.1256 14.0623 958 53.4144 1376.55 555.425
2423 0 68.1176 13.4326 915 54.8568 1376.51 553.41
2424 0 72.0741 13.9024 1002 54.1467 1376.03 551.368
2425 0 73.0728 14.1913 1037 54.0492 1376.04 552.247
2426 0 76.1496 14.6028 1112 53.1457 1376.61 550.261
2427 0 77.0826 14.452 1114 54.2289 1376.23 548.951
2428 0 80.1796 13.5072 1083 54.7147 1376.3 546.872
2429 0 84.1031 14.1136 1187 53.1398 1376.46 546.997
2430 0 86.1219 14.1427 1218 53.2373 1376.08 545.209
2431 0 88.0691 14.3524 1264 53.1345 1375.8 543.163
2432 0 92.0835 14.8887 1371 52.2626 1375.88 542.33
2433 0 92.0835 14.8561 1368 171.01 1375.89 542.29
2434 0 98.1992 14.0734 1382 52.665 1376.07 539.037
2435 0 101.27 14.3774 1456 52.0378 1376.5 539.254
2436 0 101.16 14.6698 1484 52.3794 1377.1 536.342
2437 0 107.087 14.7731 1582 52.3357 1376.57 534.296
2438 0 108.296 14.4512 1565 52.4594 1376.91 532.089
2439 0 111.447 14.2669 1590 52.4403 1376.86 530.787
2440 0 118.242 15.13 1789 51.133 1377.03 528.999
2441 0 120.205 14.7415 1772 51.8933 1377.08 527.091
2442 0 122.247 14.847 1815 52.2799 1376.88 525.255
2443 0 127.46 14.5615 1856 52.9186 1377.03 523.294
2444 0 131.238 14.8509 1949 52.726 1377.12 520.715
2445 0 136.326 15.4482 2106 52.0674 1376.94 517.631
2446 1 76.0953 12.2609 933 53.1061 1376.65 549.676
2447 0 76.0953 12.2215 930 171.906 1376.66 549.62
2448 0 82.2509 13.7263 1129 52.4482 1377.15 544.814
2449 0 85.1703 13.925 1186 52.4022 1377.19 543.373
2450 0 87.1355 14.7816 1288 51.5256 1377.03 542.092
2451 0 90.3212 13.8727 1253 53.1093 1377.55 538.52
2452 0 94.3644 13.4691 1271 53.5445 1377.8 538.945
2453 0 98.4768 14.1556 1394 52.6923 1378.29 537.79
2454 0 100.285 13.5812 1362 52.9361 1377.88 534.347
2455 0 103.265 14.1964 1466 51.8076 1377.77 534.738
2456 0 108.317 13.9776 1514 51.93 1377.92 533.433
2457 0 111.378 13.6922 1525 52.5469 1377.89 532.343
2458 0 114.457 13.4287 1537 53.0729 1378.63 528.885
2459 1 61.2209 11.434 700 53.89 1378.62 554.373
2460 0 66.1218 12.3409 816 52.3848 1379 551.826
2461 0 67.4047 13.6637 921 52.2258 1379.08 549.908
2462 0 70.293 13.3584 939 52.5612 1378.77 549.324
2463 0 72.1939 13.3668 965 52.628 1379.42 548.401
2464 0 74.4477 13.8755 1033 52.3088 1379.69 544.715
2465 0 76.2318 13.3934 1021 52.7767 1380.45 545.333
2466 0 81.3185 14.7199 1197 51.3241 1380.56 543.878
2467 0 81.26 13.1061 1065 53.2845 1381.1 542.884
2468 0 84.1745 13.9116 1171 52.6883 1381.21 539.495
2469 0 87.2565 12.4002 1082 53.9797 1381.41 539.561
2470 0 91.3825 14.587 1333 52.183 1381.63 535.566
2471 0 92.2508 13.4525 1241 53.3288 1381.85 532.845
2472 0 97.2379 13.7498 1337 52.5894 1381.85 529.74
2473 0 98.3935 13.2427 1303 53.2095 1382.1 529.27
2474 0 102.474 13.945 1429 52.6816 1381.95 529.059
2475 0 104.388 13.0091 1358 53.5236 1381.53 529.056
2476 0 111.299 15.0945 1680 50.9554 1382.1 525.665
2477 1 61.1306 11.2219 686 51.812 1382.07 554.095
2478 0 63.1735 12.6002 796 51.8518 1382.07 548.882
2479 0 65.1254 13.451 876 50.7888 1381.96 548.886
2480 0 67.1345 12.542 842 51.7981 1381.88 548.019
2481 0 67.0986 13.3833 898 51.1147 1381.95 546.562
2482 0 72.2798 15.7305 1137 48.27 1381.82 547.794
2483 0 73.2806 13.9191 1020 50.201 1382.01 546.705
2484 0 77.1508 13.6356 1052 50.7766 1381.51 543.28
2485 0 78.1161 14.376 1123 50.4043 1382.2 541.618
2486 0 80.1015 14.2569 1142 50.7469 1381.94 540.861
2487 0 82.1442 13.9146 1143 51.2563 1381.7 539.842
2488 0 84.1805 13.5067 1137 51.7388 1381.39 539.599
2489 0 85.0915 13.4679 1146 52.2452 1381.4 536.31
2490 0 91.1655 15.0605 1373 50.5215 1381.39 533.62
2491 0 93.2556 14.2297 1327 50.9774 1381.28 535.593
2492 0 97.2011 15.2879 1486 50.0437 1380.7 532.792
2493 0 99.2723 16.1475 1603 49.8035 1381.1 532.571
2494 0 102.196 15.0202 1535 51.2085 1380.56 531.464
2495 0 105.277 14.666 1544 51.7183 1380.94 528.733
2496 1 57.0646 11.8287 675 53.0267 1381.36 553.287
2497 0 58.0842 10.743 624 53.2965 1381.27 555.407
2498 0 61.1348 12.0717 738 52.519 1381.03 553.118
2499 0 62.0496 12.7318 790 51.9266 1380.64 552.346
2500 0 65.4156 12.8715 842 52.2993 1380.02 550.77
2501 0 67.1171 14.5566 977 51.0338 1380.11 549.718
2502 0 71.1178 14.0612 1000 51.525 1379.85 548.858
2503 0 71.1379 14.9569 1064 51.7002 1379.77 546.148
2504 0 73.1997 13.7842 1009 52.8315 1379.65 545.431
2505 0 76.0542 13.9506 1061 52.721 1379.91 545.404
2506 0 79.1168 13.8908 1099 52.5805 1379.94 543.962
2507 0 83.1884 13.3672 1112 53.3606 1380.2 543.569
2508 0 85.1827 13.7 1167 52.8372 1379.75 541.089
2509 0 90.15 13.8325 1247 53.1403 1379.75 540.829
2510 0 92.1917 14.2963 1318 52.6039 1379.56 539.918
2511 0 96.1786 13.9428 1341 53.3393 1379.68 538.887
2512 0 97.1571 13.9362 1354 53.8988 1379.26 536.646
2513 0 100.1 15.4046 1542 52.4994 1379.26 534.4
2514 0 103.256 13.9265 1438 54.0403 1379.16 534.465
2515 1 55.1043 12.6487 697 53.9813 1379.23 556.422
2516 0 58.1268 13.6254 792 53.3826 1378.88 555.246
2517 0 62.1252 12.2656 762 54.3255 1378.77 554.845
2518 0 65.0708 14.6149 951 51.4385 1378.47 554.474
2519 0 68.108 13.9044 947 51.9007 1379.17 553.873
2520 0 67.0762 13.6412 915 52.976 1379.52 551.631
2521 0 69.1882 14.3088 990 52.4939 1379.21 550.704
2522 0 71.2151 13.9858 996 52.6074 1379.11 550.619
2523 0 77.1788 15.4187 1190 50.2277 1379.51 550.766
2524 0 78.2026 14.552 1138 51.9824 1379.28 547.562
2525 0 82.1561 14.862 1221 51.2416 1379.41 546.943
2526 0 82.0764 14.1941 1165 52.6395 1379 544.228
2527 0 87.2533 14.5439 1269 51.7652 1378.57 545.069
2528 0 88.2529 14.3905 1270 52.3984 1378.57 542.433
2529 0 90.0718 14.444 1301 52.299 1378.58 541.33
2530 0 95.3986 14.5495 1388 52.438 1378.41 540.394
2531 0 98.3687 14.8421 1460 51.3541 1378.76 539.992
2532 0 100.137 15.1193 1514 51.8203 1378.57 533.526
2533 0 104.216 14.3548 1496 52.2801 1378.37 532.995
2534 1 57.1443 12.6872 725 53.4262 1378.54 557.105
2535 0 58.1816 12.7016 739 53.2043 1378.53 556.71
2536 0 62.0742 12.6623 786 53.2443 1378.16 554.891
2537 0 63.2836 13.3052 842 53.4204 1377.75 553.584
2538 0 66.0812 14.5578 962 53 1377.88 553.179
2539 0 70.472 13.7502 969 53.6842 1377.58 551.12
2540 0 71.1887 14.3703 1023 52.9814 1376.82 550.066
2541 0 74.1788 14.4785 1074 52.9125 1376.81 548.83
2542 0 75.2966 13.573 1022 54.3395 1376.79 546.846
2543 0 78.3739 13.8056 1082 54.1996 1377.3 546.24
2544 0 84.3578 14.2014 1198 53.6043 1376.97 544.908
2545 0 83.5432 14.0646 1175 54.3881 1377.86 542.86
2546 0 85.4201 14.1419 1208 54.4528 1377.47 542.173
2547 0 91.1842 15.3316 1398 52.9428 1377.01 540.559
2548 0 92.404 14.4258 1333 54.5251 1376.68 537.038
2549 0 95.7424 13.4423 1287 55.5952 1376.79 538.51
2550 1 51.5749 12.1765 628 56.4124 1376.68 559.432
2551 0 54.6424 13.1583 719 54.4659 1375.92 560.313
2552 0 57.2465 13.2934 761 55.1537 1376.06 559.189
2553 0 57.5909 13.1618 758 55.5158 1376.19 558.748
2554 0 57.7733 13.4491 777 55.6795 1375.97 556.219
2555 0 60.4996 14.1819 858 54.5408 1376.3 554.756
2556 0 62.2951 14.7363 918 54.6667 1376 553.491
2557 0 64.4426 13.9659 900 55.06 1376.4 553.327
2558 0 66.3258 14.3082 949 54.981 1376.53 551.537
2559 0 70.7307 14.0533 994 54.1569 1376.54 550.846
2560 0 71.6459 14.9206 1069 53.6389 1376.89 551.004
2561 0 73.7853 14.6913 1084 54.2085 1377 549.168
2562 0 76.632 14.7588 1131 53.7648 1376.6 547.797
2563 0 77.8287 15.0972 1175 53.1038 1376.32 546.287
2564 0 79.6499 13.7225 1093 54.5087 1376.54 544.42
2565 0 83.874 14.7602 1238 53.3691 1376.11 543.245
2566 0 86.3677 15.3414 1325 54.0264 1376.86 544.181
2567 0 89.4307 14.6482 1310 55.2237 1376.37 539.103
2568 0 93.6467 15.9322 1492 53.3981 1376.4 539.916
2569 0 96.4485 14.6814 1416 54.4273 1376.07 539.846
2570 0 99.5004 14.1205 1405 55.1907 1375.78 537.19
2571 0 102.555 14.7725 1515 54.3479 1375.59 536.035
2572 0 105.353 14.1144 1487 54.9731 1375.86 533.668
2573 0 105.353 14.0765 1483 166.51 1375.85 533.653
2574 1 56.3811 11.9721 675 56.0133 1375.91 556.142
2575 0 59.2152 13.0879 775 54.831 1375.62 556.173
2576 0 60.4042 13.4262 811 54.3588 1375.68 555.047
2577 0 62.2767 14.5159 904 52.9248 1375.45 555.424
2578 0 63.3139 13.82 875 53.7234 1375.22 554.393
2579 0 66.3448 14.0478 932 53.4828 1375.14 553.414
2580 0 69.3131 13.8791 962 53.0582 1375.45 552.924
2581 0 72.3923 14.8496 1075 52.2642 1375.66 550.738
2582 0 73.1893 14.7289 1078 52.6642 1375.78 550.895
2583 0 75.3428 13.5116 1018 53.9627 1375.09 548.601
2584 0 78.3628 13.8331 1084 53.143 1375.6 545.995
2585 0 78.1425 13.1938 1031 54.3453 1375.84 543.135
2586 0 83.1771 14.1505 1177 53.1878 1375.85 542.113
2587 0 86.1396 14.047 1210 53.1074 1375.97 542.999
2588 0 90.2552 14.0047 1264 52.6171 1375.91 542.402
2589 0 91.2857 14.3286 1308 52.8096 1376.09 539.24
2590 0 94.3291 14.6296 1380 52.721 1376.18 538.678
2591 0 99.1301 14.9702 1484 52.2035 1376.35 537.175
2592 0 100.174 14.7643 1479 52.7397 1376.98 534.557
2593 0 104.251 14.1965 1480 53.1547 1376.55 534.732
2594 1 56.1102 12.119 680 55.2338 1376.91 555.857
2595 0 60.1479 13.7162 825 53.4218 1376.83 555.01
2596 0 60.1807 13.4262 808 54.2673 1377.03 555.433
2597 0 63.1644 13.9002 878 54.1424 1377.51 552.705
2598 0 64.1366 13.5336 868 55.2638 1377.23 553.028
2599 0 67.051 13.7656 923 54.7811 1377.71 551.438
2600 0 71.3543 14.7994 1056 53.6733 1377.93 550.179
2601 0 73.1542 14.7087 1076 54.6543 1378.48 548.128
2602 0 75.2429 14.3004 1076 54.9061 1378.77 547.507
2603 0 77.0587 13.7817 1062 55.5537 1379.05 547.146
2604 0 78.144 13.7439 1074 56.1499 1378.71 545.807
2605 0 82.1226 14.7341 1210 55.0876 1379.24 543.639
2606 0 85.1733 14.2063 1210 55.4769 1379.1 543.342
2607 0 89.2449 14.0064 1250 55.8136 1379.61 542.052
2608 0 93.1723 14.8435 1383 54.6956 1380.23 539.497
2609 0 93.3276 13.8008 1288 57.0575 1379.72 536.272
2610 0 97.134 14.4131 1400 55.9414 1380.28 535.766
2611 0 100.145 14.0595 1408 56.5206 1380.94 534.288
2612 0 104.16 14.6601 1527 56.0747 1380.22 532.296
2613 0 108.232 15.3097 1657 55.7151 1380.74 528.412
2614 1 60.0811 12.1669 731 56.6512 1380.21 555.982
2615 0 61.0771 12.4924 763 57.2412 1381.19 554.541
2616 0 64.0585 13.675 876 55.8573 1381.34 551.252
2617 0 65.1226 12.4381 810 56.4247 1380.9 551.59
2618 0 70.0465 13.5339 948 55.0327 1381.04 548.41
2619 0 69.1114 14.0787 973 55.3165 1381.26 547.341
2620 0 72.0875 13.7333 990 55.5505 1381.42 546.157
2621 0 75.076 13.0135 977 56.0225 1381.08 545.44
2622 0 80.0971 14.8944 1193 53.7561 1381.34 542.952
2623 0 82.0876 13.181 1082 55.8817 1381.52 542.131
2624 0 84.1491 14.0584 1183 55.2316 1381.67 540.239
2625 0 87.0923 13.5259 1178 55.7699 1381.52 537.257
2626 0 92.0802 15.0738 1388 53.7968 1381.45 536.666
2627 0 93.0803 14.192 1321 54.6752 1381.83 535.5
2628 0 98.3424 14.9681 1472 53.231 1381.38 535.258
2629 0 101.09 14.6898 1485 53.571 1381.06 533.929
2630 0 102.15 14.2829 1459 53.9966 1381.13 530.578
2631 0 108.107 14.6429 1583 53.2173 1380.79 529.759
2632 0 111.156 14.709 1635 53.3456 1380.97 526.783
2633 1 63.0532 12.656 798 54.2018 1381.03 550.905
2634 0 66.0272 13.4944 891 53.4691 1381.03 548.058
2635 0 66.1421 13.093 866 54.291 1381.02 548.097
2636 0 71.0645 13.537 962 53.0229 1381.21 546.918
2637 0 71.0645 13.5088 960 158.021 1381.21 546.929
2638 0 75.1079 13.9533 1048 52.6183 1380.76 545.417
2639 0 79.1044 14.1712 1121 52.3711 1380.94 543.3
2640 0 81.0951 14.7481 1196 52.1355 1381.03 540.757
2641 0 81.0377 13.4382 1089 54.0716 1380.58 540.556
2642 0 87.0992 15.4536 1346 51.1865 1380.61 539.697
2643 0 91.2111 14.6693 1338 52.2212 1380.37 535.593
2644 0 94.2821 15.0824 1422 51.9142 1381.28 535.132
2645 0 95.0739 13.926 1324 53.463 1381.06 533.78
2646 0 99.1849 14.0949 1398 53.1366 1380.79 529.936
2647 0 102.162 14.1148 1442 53.4154 1380.57 529.169
2648 0 107.142 15.4467 1655 52.0562 1380.33 527.474
2649 0 109.188 14.8368 1620 52.5562 1379.78 526.831
2650 1 62.1012 12.7212 790 51.0582 1379.8 553.013
2651 0 62.1144 12.5575 780 52.141 1380.44 550.74
2652 0 63.2392 13.9312 881 51.2259 1380.91 549.328
2653 0 67.2739 13.0363 877 51.4436 1380.7 548.904
2654 0 68.2115 13.678 933 51.0182 1380.58 546.386
2655 0 70.1975 13.7612 966 51.1988 1380.23 545.476
2656 0 73.3124 13.8039 1012 51.5138 1379.97 544.337
2657 0 75.3028 15.285 1151 50.0356 1380.34 543.742
2658 0 79.3677 14.8423 1178 50.2835 1380.1 541.55
2659 0 82.256 15.1478 1246 49.8162 1380.14 543.555
2660 0 83.3146 14.5593 1213 50.8425 1379.41 541.197
2661 0 86.1439 13.965 1203 51.5362 1379.82 540.232
2662 0 89.2294 14.5356 1297 51.1804 1379.56 537.992
2663 0 93.2426 14.1673 1321 51.6086 1379.04 536.103
2664 0 96.2738 14.4276 1389 51.2037 1379.33 536.719
2665 0 99.4291 14.8548 1477 50.9072 1379.53 534.572
2666 1 51.0963 13.5626 693 51.7388 1379.25 556.846
2667 0 55.2221 13.3461 737 51.8657 1379.48 555.186
2668 0 56.4613 14.3284 809 50.9963 1379.88 556.355
2669 0 57.3376 13.0281 747 52.7697 1379.3 553.829
2670 0 60.2788 14.2339 858 51.2681 1379.94 553.577
2671 0 65.4891 13.9412 913 50.7908 1379.81 551.736
2672 0 66.2791 13.4431 891 51.807 1380 548.591
2673 0 69.2094 14.0443 972 51.2881 1380.08 547.698
2674 0 70.819 13.7393 973 51.779 1380.1 547.087
2675 0 71.1686 14.4867 1031 51.0378 1379.76 547.888
2676 0 74.4068 14.4879 1078 51.2588 1379.42 546.437
2677 0 77.1451 14.4792 1117 51.547 1379.17 545.911
2678 0 80.4003 14.5895 1173 51.2813 1379.39 544.008
2679 0 82.3709 13.9005 1145 51.8742 1379.13 543.511
2680 0 86.1999 14.7216 1269 51.1277 1378.94 541.778
2681 0 87.2161 13.7245 1197 52.5748 1378.92 539.587
2682 0 91.319 14.4329 1318 51.9074 1378.86 540.189
2683 0 94.2926 14.3383 1352 52.4157 1379.11 537.399
2684 0 97.411 14.2386 1387 52.8335 1378.84 536.965
2685 0 99.41 14.0932 1401 53.1292 1378.04 536.09
2686 0 102.282 14.7045 1504 53.1915 1378.5 532.594
2687 0 105.456 14.6981 1550 53.4606 1378.17 531.549
2688 1 62.2499 12.4659 776 55.6005 1378.54 553.809
2689 0 65.2906 13.6926 894 55.1376 1378.72 552.299
2690 0 68.1139 13.6976 933 55.0032 1378.42 549.884
2691 0 71.1368 14.6759 1044 54.2251 1378.71 547.94
2692 0 74.1828 15.8123 1173 52.6121 1378.78 548.866
2693 0 76.5385 14.6462 1121 54.3506 1378.53 546.506
2694 0 79.2231 15.1597 1201 54.1157 1378.16 547.704
2695 0 81.2083 14.5675 1183 54.7751 1378.05 546.35
2696 0 83.1107 14.1257 1174 55.6457 1378.5 543.45
2697 0 89.2705 16.0747 1435 53.154 1377.83 542.001
2698 0 91.1458 15.1954 1385 54.5502 1377.66 540.25
2699 0 94.3642 14.4864 1367 55.7403 1377.24 540.237
2700 1 48.0971 12.1629 585 58.2462 1377.39 560.834
2701 0 52.0853 12.6523 659 57.8164 1377.62 560.771
2702 0 51.0993 13.1313 671 58.3383 1377.54 559.042
2703 0 55.1455 14.3801 793 57.2396 1377.61 557.936
2704 0 56.1994 14.0215 788 57.868 1377.55 557.132
2705 0 52.0686 12.3683 644 61.5481 1376.65 553.884
2706 0 62.2199 15.7506 980 55.5643 1377.67 555.287
2707 0 64.1504 14.3881 923 57.4984 1377.54 555.701
2708 0 67.1516 14.7725 992 57.126 1377.39 554.248
2709 0 68.05 14.5334 989 57.5662 1377.47 553.727
2710 0 72.1604 15.036 1085 56.8737 1377.26 551.779
2711 0 72.1549 15.1757 1095 57.7479 1377.23 549.682
2712 0 76.2432 14.8866 1135 58.0256 1377.26 548.43
2713 0 78.184 14.5682 1139 58.5759 1377.38 547.126
2714 0 81.3269 14.8045 1204 58.5457 1377.55 545.094
2715 0 84.1957 14.7989 1246 58.5281 1377.66 543.961
2716 0 88.1197 15.5697 1372 56.7493 1377.44 541.857
2717 0 90.1598 15.7609 1421 56.5531 1377.5 541.825
2718 0 93.3031 15.0585 1405 57.679 1377 538.986
2719 1 48.0962 12.2879 591 58.4585 1376.93 561.773
2720 0 50.0938 12.257 614 58.4772 1376.87 562.292
2721 0 52.1222 13.1038 683 57.5608 1376.58 561.373
2722 0 54.0918 13.588 735 57.4422 1376.73 560.071
2723 0 53.1165 12.8962 685 59.1679 1377.43 559.761
2724 0 55.1067 12.7389 702 59.2009 1376.71 558.56
2725 0 58.076 12.8624 747 58.6519 1376.62 556.715
2726 0 58.0869 13.1011 761 58.5125 1376.97 556.332
2727 0 63.0741 13.175 831 57.0265 1377.5 556.625
2728 0 63.0372 12.9765 818 58.4364 1376.84 554.7
2729 0 66.1658 12.7558 844 58.2524 1377 554.274
2730 0 69.0901 12.3462 853 58.034 1377.46 553.26
2731 0 71.1904 14.0749 1002 56.0719 1377.81 552.338
