time division length width area intensity CMx CMy
0 0 48.0554 12.9226 621 73.9501 1061.4 575.58
1 0 50.0208 13.4144 671 74.4083 1061.35 573.849
2 0 52.1139 13.7391 716 72.8897 1061.58 573.297
3 0 52.1112 13.6055 709 74.9887 1061.52 571.185
4 0 53.0692 13.7179 728 75.2651 1061.13 570.724
5 0 55.0702 12.5295 690 76.7681 1061.66 569.836
6 0 58.1304 13.0569 759 74.7233 1061.44 568.758
7 0 60.0397 13.2912 798 73.8822 1061.15 567.669
8 0 62.1233 13.2639 824 74.2816 1061.65 567.317
9 0 63.1808 13.6592 863 74.4102 1061.48 566.059
10 0 68.15 13.6757 932 74.2328 1061.48 564.519
11 0 68.0745 13.4852 918 76.0817 1061.65 562.834
12 0 70.1217 13.006 912 76.4298 1061.98 561.538
13 0 74.1607 13.4033 994 75.0624 1061.89 559.496
14 0 75.1768 13.5015 1015 75.2049 1062.21 559.057
15 1 36.0575 11.2875 407 76.4152 1061.95 578.457
16 0 36.0093 10.1363 365 77.2795 1062.01 579.047
17 0 39.044 10.962 428 75.1028 1061.33 576.715
18 0 41.0372 11.2824 463 73.0583 1061.22 576.948
19 0 43.0092 12.1602 523 71.5411 1061.75 574.451
20 0 43.0092 12.2532 527 147.994 1062.76 574.398
21 0 47.0787 12.511 589 70.5263 1061.58 573.64
22 0 47.0631 12.6851 597 70.1658 1061.43 572.938
23 0 48.0377 13.6351 655 68.9496 1062.27 573.739
24 0 51.0988 13.9534 713 68.1837 1061.96 572.397
25 0 51.0618 13.1997 674 69.7389 1061.95 571.28
26 0 53.138 13.6061 723 68.7773 1062.39 571.337
27 0 55.0545 13.3504 735 69.1088 1062.27 569.317
28 0 57.0336 12.7995 730 69.8096 1062.19 567.747
29 0 59.083 12.8463 759 70.166 1063.19 566.253
30 0 61.0934 13.553 828 68.5556 1062.86 567.26
31 0 62.0839 13.2563 823 69.8834 1063.33 566.232
32 0 62.1675 13.1419 817 70.8152 1062.76 565.419
33 0 67.0961 12.7876 858 70.7576 1063.34 564.692
34 0 70.0585 13.9169 975 68.9754 1063.16 562.107
35 0 73.0985 13.7486 1005 69.1244 1063.19 561.217
36 0 74.1101 12.9942 963 71.2586 1063.62 558.967
37 0 78.1345 13.7839 1077 69.3603 1063.25 560.403
38 0 82.1474 14.0358 1153 69.0061 1063.3 557.196
39 0 84.077 13.785 1159 69.8507 1063.04 555.304
40 1 42.0383 11.1803 470 71.5596 1062.85 576.445
41 0 45.0309 11.7031 527 70.1898 1062.82 577.002
42 0 45.0253 12.5041 563 70.4813 1062.96 575.835
43 0 47.0704 12.9593 610 70.1689 1062.78 573.667
44 0 48.0712 13.272 638 69.8605 1063.02 573.027
45 0 51.128 14.0432 718 68.0056 1063.16 572.409
46 0 53.1911 13.2165 703 68.9787 1063.73 572.057
47 0 52.1935 13.4116 700 69.8057 1063.75 571.711
48 0 53.0766 13.4146 712 71.0337 1063.34 570.841
49 0 57.0689 13.8254 789 69.384 1063.5 569.986
50 0 59.1293 13.6312 806 70.0484 1063.68 569.339
51 0 60.0315 13.6262 818 70.6773 1063.95 567.93
52 0 62.1436 13.4044 833 71.2017 1064.26 566.693
53 0 63.2514 13.7388 869 71.5224 1064.22 566.99
54 0 64.0958 14.0727 902 72.1242 1063.19 565.279
55 0 68.0865 14.7753 1006 63.6471 1063.58 564.511
56 0 71.2547 13.95 994 65.9125 1063.5 563.103
57 0 72.1483 13.7633 993 67.1067 1063.7 562.666
58 0 75.162 13.3711 1005 67.2826 1063.55 561.375
59 0 78.1848 14.2995 1118 65.8426 1063.78 559.876
60 0 81.1339 13.8906 1127 67.9601 1063.54 558.122
61 0 85.1553 14.362 1223 67.7997 1064.15 555.977
62 0 87.097 14.3518 1250 67.9208 1064.16 555.142
63 1 44.0658 11.6644 514 70.7724 1063.29 576.375
64 0 46.0865 11.6303 536 70.7388 1064.12 574.687
65 0 47.0556 13.0059 612 69.6454 1063.83 572.621
66 0 51.0855 13.7025 700 67.75 1063.75 572.103
67 0 51.0813 13.0968 669 69.2496 1064.22 570.828
68 0 52.034 13.4719 701 69.6291 1064.02 569.775
69 0 56.3102 14.3136 806 66.7481 1064.19 569.005
70 0 55.1252 14.1496 780 67.5718 1063.52 569.569
71 0 59.1603 14.3846 851 66.8026 1064.24 567.214
72 0 61.2138 14.2778 874 66.6156 1064.66 566.699
73 0 63.1511 13.7606 869 67.6053 1064.87 564.712
74 0 64.105 14.0551 901 67.4484 1064.63 562.643
75 0 66.1752 13.1016 867 68.6332 1065.24 563.824
76 0 68.099 14.5964 994 67.0221 1065.91 560.812
77 0 71.1165 13.5412 963 68.4434 1066.13 559.422
78 0 74.4643 14.2484 1061 67.4062 1065.63 558.278
79 0 76.3879 13.3791 1022 68.6937 1066.06 555.899
80 0 78.5048 14.4577 1135 67.7947 1066.29 554.037
81 0 81.5176 13.9356 1136 68.3151 1066.16 553.243
82 0 85.3258 13.97 1192 68.3104 1066.41 551.732
83 1 42.3137 13.0218 551 68.9365 1066.62 571.724
84 0 44.388 12.5935 559 70.39 1067.14 569.968
85 0 45.399 12.4232 564 70.9344 1067.07 569.667
86 0 47.4977 12.927 614 69.7427 1067.2 568.847
87 0 47.273 12.9884 614 69.8274 1067.13 567.73
88 0 50.245 12.7973 643 67.6905 1067.37 566.306
89 0 53.2869 13.3804 713 65.0252 1067.88 564.742
90 0 53.2869 13.3992 714 159.361 1068.87 564.634
91 0 56.1949 13.3464 750 69.876 1068.25 562.235
92 0 58.2422 13.8388 806 72.0943 1068.61 560.944
93 0 60.3225 14.1241 852 69.331 1068.46 560.863
94 0 62.2766 14.5159 904 68.8175 1069.03 557.129
95 0 65.4224 14.1695 927 66.8565 1069.24 556.223
96 0 67.2373 14.0547 945 66.8677 1069.4 555.389
97 0 68.2912 13.1349 897 91.7703 1068.93 554.683
98 0 70.4163 13.832 974 66.3737 1068.4 553.431
99 0 76.4188 14.2635 1090 64.8128 1068.07 552.518
100 0 77.4311 13.9737 1082 67.6331 1068.21 550.094
101 0 79.5517 13.3749 1064 70.8675 1068.86 548.249
102 0 83.6046 14.1619 1184 68.6731 1068.57 545.78
103 1 44.3621 10.9553 486 69.2037 1068.25 566.874
104 0 45.3833 11.8986 540 70.5444 1068.71 564.074
105 0 47.3738 12.6019 597 69.2596 1068.54 563.603
106 0 49.3863 13.1413 649 69.433 1069.1 561.236
107 0 50.2745 13.108 659 71.0546 1068.82 561.381
108 0 51.2069 12.5569 643 73.9533 1068.75 561.835
109 0 55.188 13.6805 755 68.6689 1069.4 559.31
110 0 56.2707 11.729 660 69.5773 1069.07 559.918
111 0 58.2536 12.9606 755 66.1099 1069.12 557.956
112 0 59.3232 12.5752 746 67.0322 1069.38 555.992
113 0 63.2942 13.4609 852 65.9026 1069.74 555.299
114 0 65.3984 14.0065 916 66.2664 1069.33 554.367
115 0 67.3151 13.6819 921 66.8002 1069.16 553.333
116 0 71.2768 13.7492 980 67.6071 1069.09 551.102
117 0 72.2063 13.3091 961 68.1363 1069.68 551.604
118 0 75.391 12.8132 966 68.8799 1069.3 549.047
119 0 78.3142 13.5735 1063 67.4854 1069.2 548.802
120 0 82.2811 14.2074 1169 66.2558 1069.04 547.722
121 0 83.2829 13.6883 1140 67.4658 1069.08 545.442
122 0 85.1517 13.3292 1135 68.4405 1068.91 542.269
123 1 44.1216 9.67779 427 68.0492 1067.59 565.443
124 0 47.0575 10.7528 506 66.5711 1067.42 564.385
125 0 48.0219 10.5993 509 65.5914 1067.12 563.709
126 0 50.0615 13.1039 656 62.6387 1067.33 562.232
127 0 50.0753 13.1801 660 63.5773 1067.9 562.383
128 0 51.0369 12.3244 629 64.3784 1068.3 560.669
129 0 53.0707 12.229 649 64.3236 1067.89 560.524
130 0 56.06 11.559 648 65.0077 1067.31 560.753
131 0 57.0547 12.6545 722 63.9806 1068.39 558.745
132 0 59.0209 12.4702 736 64.2867 1068.42 558.378
133 0 60.0463 13.3064 799 63.6283 1068.73 556.84
134 0 62.0806 12.6771 787 64.5947 1068.99 556.694
135 0 65.0628 12.2497 797 65.0025 1068.37 556.391
136 0 65.123 11.8084 769 66.4551 1068.06 554.404
137 0 69.1534 13.9256 963 63.0831 1067.74 553.63
138 0 69.1966 13.0209 901 65.0544 1067.77 552.556
139 0 73.1444 13.1657 963 64.7321 1067.39 549.833
140 0 77.1196 14.1469 1091 62.4986 1067.23 550.33
141 0 77.1484 12.5861 971 65.4089 1067.16 547.055
142 0 81.1219 12.512 1015 64.8305 1067.15 547.105
143 0 83.107 12.3094 1023 65.828 1066.69 543.977
144 0 86.1116 12.4141 1069 65.5921 1066.63 544.484
145 0 88.2636 11.9868 1058 65.7098 1066.72 543.801
146 0 90.1351 12.5478 1131 65.4067 1066.8 540.011
147 0 92.2228 11.9059 1098 66.4608 1066.94 538.819
148 1 52.1118 9.07664 473 65.7061 1066.54 561.649
149 0 54.1481 11.4131 618 64.4304 1066.76 559.477
150 0 56.0855 10.2879 577 65.5147 1067.5 557.995
151 0 59.1529 11.969 708 63.952 1067.29 558.158
152 0 61.2443 11.0704 678 64.7802 1067.16 558.065
153 0 60.1645 12.3993 746 64.189 1067.28 556.666
154 0 63.1675 11.6357 735 64.7007 1067.33 556.219
155 0 63.1132 11.9785 756 65.0397 1067.12 554.439
156 0 64.0562 10.8811 697 66.5983 1066.25 555.099
157 0 68.1733 12.3362 841 64.6052 1066.73 553.137
158 0 70.1848 12.1964 856 64.5596 1066.04 553.262
159 0 74.1561 12.3523 916 62.9716 1066.58 552.302
160 0 75.1311 12.2053 917 64.0534 1066.61 549.695
161 0 77.1224 11.7476 906 64.8609 1066.59 546.036
162 0 82.1436 13.5373 1112 61.491 1067.02 548.294
163 0 85.2001 12.4296 1059 63.6091 1066.98 543.207
164 0 87.2727 12.2948 1073 64.0848 1067.49 542.62
165 0 91.3842 13.2627 1212 62.7467 1067.68 540.734
166 0 94.3835 13.0319 1230 62.8423 1067.59 540.151
167 1 51.0637 10.0267 512 64.1113 1067.16 562.502
168 0 53.0855 10.6244 564 64.539 1067.67 560.241
169 0 55.0463 11.2996 622 63.1013 1068.05 559.59
170 0 57.0664 11.3727 649 63.4268 1068.13 557.459
171 0 57.0664 11.4078 651 150.376 1068.12 557.429
172 0 61.0823 12.6387 772 61.5674 1068.14 554.001
173 0 63.0337 12.2316 771 61.5253 1068.13 556.381
174 0 66.1461 13.7121 907 60.1918 1068 554.607
175 0 67.1305 13.6898 919 60.3319 1068.12 552.946
176 0 70.1036 13.209 926 60.7235 1068.63 551.303
177 0 73.1055 13.2001 965 60.344 1068.29 551.476
178 0 73.1466 12.4681 912 62.4189 1068.94 548.175
179 0 78.0557 13.516 1055 60.4161 1069.17 548.25
180 0 80.1127 12.7071 1018 61.8251 1069.82 545.967
181 0 82.1173 13.7121 1126 61.3748 1069.58 543.77
182 0 85.1699 13.0328 1110 62.5505 1070.04 543.522
183 0 87.1461 13.2651 1156 62.3313 1069.87 542.223
184 0 91.105 13.8302 1260 61.5444 1070.1 541.21
185 0 92.1167 12.9618 1194 63.0888 1069.99 540.049
186 1 50.066 10.7458 538 63.6654 1069.75 559.946
187 0 51.0742 11.5322 589 61.966 1070 558.396
188 0 55.0548 11.9881 660 61.3682 1070.43 557.539
189 0 54.0591 11.284 610 63.0213 1070.24 556.902
190 0 55.0189 11.6142 639 64.4601 1070.4 556.152
191 0 56.0354 11.1715 626 66.6693 1070.28 556.064
192 0 58.0724 13.4315 780 63.7192 1070.98 554.428
193 0 62.0761 13.4996 838 61.4845 1070.93 553.261
194 0 62.0528 14.0364 871 59.8243 1070.85 555.188
195 0 67.0719 14.7006 986 58.1734 1071.1 553.907
196 0 66.1201 13.2184 874 62.6659 1071.12 552.343
197 0 66.0575 13.1401 868 64.3618 1071.32 550.842
198 0 68.074 13.3972 912 64.7621 1071.41 550.429
199 0 71.0905 13.8978 988 64.3128 1071.45 549.046
200 0 73.0435 12.9786 948 65.8861 1072.06 548.736
201 0 73.1371 13.6456 998 65.48 1072.01 546.228
202 0 77.0826 13.8034 1064 65.5329 1072.2 543.619
203 0 79.133 13.2183 1046 66.8145 1072.12 544.533
204 0 81.1294 13.3614 1084 67.6236 1072.53 543.791
205 0 87.0978 14.5239 1265 65.3115 1072.82 541.528
206 0 89.1176 13.5776 1210 67.7174 1072.6 539.35
207 0 92.3015 12.925 1193 68.2188 1072.69 538.849
208 1 48.0495 10.843 521 67.1209 1072.18 561.271
209 0 51.0753 11.2383 574 66.9355 1072.49 559.873
210 0 50.0124 10.9373 547 68.4186 1072.22 558.132
211 0 53.0807 11.2847 599 66.3406 1072.07 558.275
212 0 53.0589 12.2317 649 67 1072.05 556.667
213 0 55.064 12.0587 664 66.4217 1071.75 557.053
214 0 59.0274 12.8754 760 64.6908 1071.97 555.754
215 0 60.0609 12.5539 754 65.4271 1071.08 554.143
216 0 61.1407 11.7761 720 66.3292 1070.87 554.092
217 0 62.0572 12.0534 748 66.254 1071.17 553.198
218 0 64.2056 13.3478 857 64.7585 1070.88 550.415
219 0 67.1075 12.6364 848 65.2241 1070.55 551.039
220 0 70.198 14.3451 1007 62.7527 1070.35 550.06
221 0 69.3621 13.134 911 65.3875 1069.93 547.577
222 0 72.2845 12.2018 882 66.661 1069.65 547.279
223 0 74.1629 12.9984 964 66.2261 1069.65 545.936
224 0 75.2212 12.6693 953 66.8185 1069.41 545.037
225 0 77.2783 13.7814 1065 66.1408 1069.66 542.386
226 0 81.1808 12.8602 1044 66.8084 1069.29 544.762
227 0 83.2385 13.7316 1143 66.175 1069.76 541.369
228 0 87.2018 13.5548 1182 65.9146 1069.76 540.853
229 0 87.1919 13.7857 1202 66.2063 1069.33 537.852
230 0 92.1689 14.4734 1334 64.9685 1069.33 537.549
231 1 46.084 9.80817 452 66.7013 1069 562.069
232 0 48.1601 10.9219 526 66.3536 1069.27 560.23
233 0 49.1412 11.6603 573 66.0087 1069.54 559.236
234 0 50.1402 12.0861 606 65.5149 1069.48 558.743
235 0 54.1066 12.9744 702 64.3775 1069.6 557.729
236 0 55.0436 12.4447 685 66.2511 1069.71 558.473
237 0 56.0299 12.6897 711 66.5823 1069.57 556.61
238 0 57.0623 12.8982 736 66.7255 1069.17 556.662
239 0 58.0216 12.323 715 67.7483 1069.35 554.881
240 0 60.0803 13.4487 808 66.1002 1069.25 555.322
241 0 62.1436 13.1791 819 66.0476 1069.42 554.657
242 0 64.1008 13.0108 834 66.4496 1068.75 554.079
243 0 66.1192 13.5815 898 65.6626 1068.47 553.712
244 0 69.0563 13.8003 953 65.1952 1069.33 551.526
245 0 70.1507 13.2857 932 66.0976 1069.4 550.659
246 0 75.0912 14.7021 1104 62.9194 1069.4 549.782
247 0 76.268 13.8066 1053 64.3552 1069.38 549.5
248 0 78.1668 13.6887 1070 64.7449 1068.91 548.084
249 0 81.2522 13.2919 1080 64.6898 1069.16 547.346
250 0 84.1645 13.2479 1115 64.8547 1069.63 543.85
251 0 86.1915 12.8087 1104 65.3741 1069.22 544.043
252 0 88.0616 12.9796 1143 64.9571 1069.03 542.627
253 0 91.1734 13.6005 1240 64.1677 1068.76 541.101
254 1 48.0582 10.8826 523 63.9522 1068.97 562.824
255 0 51.1085 9.54831 488 63.6557 1068.91 564.615
256 0 51.1108 11.5631 591 62.9442 1068.93 560.629
257 0 55.0719 11.712 645 62.0403 1068.75 560.887
258 0 55.059 11.8782 654 63.0443 1067.81 558.338
259 0 57.0663 12.9323 738 61.042 1067.42 559.694
260 0 57.0412 10.5713 603 64.5489 1067.49 559.108
261 0 61.0422 12.647 772 61.5207 1068.05 557.394
262 0 63.1501 13.1908 833 61.2797 1068.21 555.27
263 0 65.0691 13.1245 854 61.2822 1067.98 555.514
264 0 67.1048 12.1303 814 61.8587 1067.91 556.773
265 0 69.0934 13.1272 907 61.2304 1067.88 554.508
266 0 72.0404 12.2848 885 63.0621 1067.62 551.908
267 0 74.1521 12.5013 927 63.4121 1067.71 550.625
268 0 77.2264 13.0655 1009 62.5709 1067.03 550.846
269 0 76.1065 12.3248 938 64.4243 1067.83 547.51
270 0 80.1265 12.9919 1041 63.3775 1068.29 546.547
271 0 81.1023 12.2808 996 64.4026 1068.39 545.698
272 0 86.1766 12.7645 1100 63.5809 1068.28 543.069
273 0 90.3622 12.6048 1139 63.1905 1067.79 541.435
274 1 47.2666 10.1975 482 63.0788 1067.14 563.139
275 0 51.3193 11.068 568 62.0951 1067.76 560.891
276 0 52.0884 10.4054 542 63.1587 1068.42 561.812
277 0 55.0606 12.4045 683 61.0395 1068.44 560.029
278 0 55.1235 10.9209 602 62.5847 1068.09 560.414
279 0 57.129 11.8504 677 62.3323 1068.35 558.864
280 0 57.0418 11.4828 655 63.5511 1069.32 556.386
281 0 61.0716 12.2807 750 61.6973 1069.2 557.179
282 0 61.0469 12.4658 761 62.3824 1069.5 555.852
283 0 62.1165 12.4122 771 62.9948 1069.59 553.641
284 0 64.092 13.4026 859 62.2014 1069.58 551.576
285 0 67.1128 13.0676 877 60.9065 1069.2 552.513
286 0 68.1115 12.8025 872 61.867 1069.53 549.144
287 0 72.1902 13.3952 967 60.7384 1070.12 548.294
288 0 71.3957 12.97 926 62.135 1069.86 547.184
289 0 75.2958 12.9356 974 61.4271 1070.02 546.062
290 0 76.4369 12.5855 962 62.3264 1069.97 545.648
291 0 78.4272 12.6359 991 62.1685 1070.21 543.275
292 0 81.2293 14.4406 1173 60.029 1070.61 540.489
293 0 83.1684 12.6971 1056 62.1089 1070.4 540.871
294 0 85.307 12.2733 1047 62.4881 1070.53 538.266
295 0 90.2716 13.3264 1203 60.9684 1070.81 535.776
296 0 93.2808 13.915 1298 60.1202 1070.88 533.057
297 0 97.3034 13.9255 1355 59.9129 1071.17 531.737
298 1 50.0443 10.0711 504 61.4067 1071.22 555.331
299 0 53.0273 10.1646 539 60 1071.02 557.093
300 0 51.0851 10.0421 513 61.7524 1071.03 553.327
301 0 56.0518 10.5795 593 59.5835 1071.46 555.11
302 0 58.0494 12.5238 727 57.7235 1071.53 551.938
303 0 59.0846 12.0844 714 58.4636 1072.05 552.751
304 0 62.1306 12.9083 802 57.5636 1072.34 552.797
305 0 62.1611 11.7598 731 58.2873 1072.24 553.268
306 0 64.1253 12.5068 802 57.6209 1072.43 551.01
307 0 67.258 12.6528 851 57.2503 1072.67 548.716
308 0 70.2269 13.9263 978 55.1697 1073.02 549.646
309 0 71.1297 12.8779 916 56.9105 1072.72 546.181
310 0 72.1797 12.0533 870 57.8172 1072.37 546.833
311 0 74.1465 12.9338 959 56.9864 1072.64 545.448
312 0 78.2213 13.0911 1024 56.3447 1072.68 546.031
313 0 77.1365 12.5621 969 57.6925 1073.09 543.934
314 0 81.3525 12.0955 984 57.7571 1072.84 544.092
315 0 84.1474 13.5595 1141 56.5846 1072.48 540.605
316 0 86.1845 12.2876 1059 57.8234 1072.73 540.17
317 0 87.0642 12.8641 1120 57.2964 1072.57 538.63
318 0 92.2423 13.3236 1229 56.76 1072.52 537.693
319 0 96.3371 13.7019 1320 55.6803 1072.69 537.614
320 0 97.1804 13.6653 1328 56.4134 1071.9 534.505
321 1 53.1633 9.53665 507 57.2722 1072.4 557.609
322 0 53.1297 9.35447 497 58.0805 1071.97 556.183
323 0 57.1208 10.3815 593 56.7352 1071.99 556.438
324 0 59.0339 11.7729 695 55.695 1072.42 555.075
325 0 61.0327 13.927 850 53.7871 1071.96 553.466
326 0 61.0754 12.3945 757 55.7741 1072.27 553.343
327 0 62.1159 11.3014 702 56.9729 1072.42 552.088
328 0 64.0832 12.671 812 55.8522 1072.42 551.282
329 0 68.1247 13.079 891 55.6061 1072.63 548.321
330 0 70.0832 11.7717 825 56.8339 1071.95 547.354
331 0 73.0772 13.7663 1006 54.9076 1071.73 547.829
332 0 75.0245 12.9558 972 56.5103 1071.1 545.993
333 0 77.1498 13.4025 1034 56.2495 1071.01 546.379
334 0 80.0666 12.8893 1032 57.5252 1071.06 542.596
335 0 84.128 13.7529 1157 56.4114 1070.68 543.893
336 0 87.1257 13.5436 1180 57.0364 1070.69 541.424
337 0 89.1738 12.6607 1129 58.3552 1070.97 539.83
338 1 49.1211 11.6243 571 57.2995 1071.05 561.961
339 0 51.0336 12.4036 633 56.7409 1070.78 560.114
340 0 51.1097 11.9547 611 58.6383 1070.52 558.843
341 0 49.1054 10.2433 503 61.7594 1069.59 558.964
342 0 53.0975 12.5806 668 58.5898 1068.74 557.509
343 0 56.0469 11.8115 662 59.4003 1068.89 558.494
344 0 58.0812 13.6877 795 57.6113 1069.11 556.122
345 0 58.1228 12.8521 747 59.5515 1068.23 555.238
346 0 59.0474 12.0581 712 60.691 1068.26 555.126
347 0 62.066 13.0667 811 59.2244 1068.61 555.901
348 0 64.0471 14.2239 911 58.6026 1068.19 553.302
349 0 66.1873 13.5676 898 59.6971 1067.62 552.578
350 0 67.1173 14.199 953 58.6915 1067.7 553.008
351 0 71.2341 13.224 942 60.517 1066.4 551.102
352 0 72.155 13.5126 975 60.7887 1067.11 550.193
353 0 75.1804 13.3013 1000 60.904 1066.19 549.885
354 1 39.1106 10.4575 409 62.5526 1065.46 566.152
355 0 39.0673 10.2899 402 63.5025 1066.22 566.132
356 0 41.0277 11.1876 459 62.8954 1065.52 566.174
357 0 45.0646 11.0508 498 62.9478 1065.9 564.763
358 0 44.083 12.2723 541 62.4566 1065.69 564.891
359 0 45.033 12.1245 546 62.2271 1066.09 564.189
360 0 48.0217 12.182 585 62.2547 1066.02 563.61
361 0 48.0565 13.1928 634 61.9385 1066.49 562.262
362 0 47.1267 12.5407 591 63.9188 1067.84 562.469
363 0 50.1213 13.0882 656 63.5396 1068.09 560.352
364 0 51.084 13.468 688 63.2064 1068.07 559.653
365 0 53.0489 12.8372 681 64.1747 1068.23 560.382
366 0 53.0556 13.2314 702 65.2407 1068.73 558.617
367 0 55.058 13.1134 722 65.1413 1067.94 559.596
368 0 55.1342 13.0228 718 66.4568 1068.38 558.545
369 0 57.0784 12.9296 738 66.9377 1068.54 556.822
370 0 63.1551 14.6623 926 63 1069.01 556.546
371 0 62.1155 13.7486 854 65.7073 1069.35 554.744
372 0 66.0797 13.4383 888 65.7128 1070.16 553.203
373 0 66.0534 13.0652 863 67.0753 1069.89 552.299
374 0 70.1345 14.1728 994 65.3753 1070.14 550.54
375 0 73.0863 13.4909 986 65.3925 1070.14 551.987
376 1 37.0883 10.7042 397 65.8917 1069.34 567.829
377 0 40.0347 11.8647 475 64.5095 1070.08 566.316
378 0 41.1042 11.6047 477 64.5828 1070.42 564.658
379 0 43.0406 12.5463 540 62.663 1070.15 564.448
380 0 42.025 11.8739 499 64.2866 1070.64 562.431
381 0 44.1567 12.9992 574 61.7927 1071.22 562.845
382 0 46.1863 11.7134 541 63.2163 1071.23 562.599
383 0 47.0796 12.8506 605 62.6083 1071.43 560.279
384 0 49.1085 12.8898 633 62.346 1071.53 559.395
385 0 49.1091 12.3806 608 63.352 1071.31 560.012
386 0 50.034 11.792 590 63.8339 1072.03 559.134
387 0 52.0877 13.8612 722 60.8961 1072.02 558.289
388 0 53.0738 12.7558 677 61.7061 1072.03 558.499
389 0 55.0246 13.1214 722 61.4086 1071.83 556.799
390 0 55.0525 11.8614 653 63.6447 1072.6 556.94
391 0 56.1329 13.5571 761 62.4008 1072.24 552.913
392 0 60.0459 12.607 757 62.1863 1072.82 554.634
393 0 62.1017 14.0415 872 60.2798 1073.23 553.268
394 0 64.0361 12.6647 811 61.4353 1072.82 553.879
395 0 63.0576 13.2577 836 61.3971 1073.58 550.834
396 0 67.0245 13.2937 891 60.8462 1073.18 549.552
397 0 67.0842 13.0284 874 61.484 1073.54 547.794
398 0 70.1451 13.8855 974 60.2197 1073.75 547.678
399 0 72.0502 14.1568 1020 59.6892 1074.2 545.866
400 0 74.2155 13.4473 998 60.7756 1073.97 545.268
401 0 77.2253 13.0009 1004 61.2908 1073.94 542.565
402 0 81.2932 12.7932 1040 60.6894 1074.08 543.336
403 0 84.1659 12.9269 1088 60.5708 1074.34 541.21
404 0 85.0715 13.0831 1113 60.681 1074.07 538.842
405 1 45.197 12.7442 576 58.9306 1073.68 560.186
406 0 44.0459 11.4199 503 60.9284 1073.93 559.765
407 0 45.0432 12.3215 555 60.6559 1073.36 558.966
408 0 50.076 13.5794 680 58.4544 1073.35 558.237
409 0 49.0565 13.3316 654 60.0168 1073.29 556.104
410 0 52.0329 11.954 622 60.3489 1072.74 557.749
411 0 53.0729 13.0764 694 59.9611 1073.01 554.427
412 0 57.0879 13.2252 755 58.9311 1073.73 553.478
413 0 59.0561 14.3762 849 57.8504 1072.97 552.362
414 0 60.0528 12.5556 754 60.1976 1072.83 551.727
415 0 64.2771 13.893 893 58.6786 1073.12 552.021
416 0 67.0423 15.796 1059 56.5109 1072.89 551.383
417 0 67.2386 13.876 933 59.7085 1072.64 548.864
418 0 70.0604 14.0307 983 60.0356 1073.13 547.564
419 0 73.2223 14.8452 1087 58.4747 1072.1 547.872
420 0 76.1078 14.624 1113 59.1303 1072.01 546.294
421 0 77.0904 14.1911 1094 60.4525 1071.88 545.095
422 0 78.2743 13.9637 1093 61.656 1071.96 544.485
423 0 82.1861 14.9782 1231 60.2405 1071.42 544.02
424 0 85.1043 14.1591 1205 61.5834 1071.79 542.363
425 0 86.1928 14.3515 1237 61.823 1071.95 540.172
426 0 91.245 14.083 1285 61.73 1071.79 539.963
427 1 49.1427 11.7413 577 62.4263 1070.95 561.045
428 0 51.0985 12.9554 662 61.8912 1071.1 558.65
429 0 51.0584 11.9863 612 62.8954 1070.74 558.748
430 0 57.1161 12.921 738 61.6436 1070.4 556.287
431 0 56.1781 12.4604 700 62.95 1070.55 555.754
432 0 58.1558 12.7073 739 62.6306 1069.17 556.685
433 0 60.2124 12.9874 782 62.5946 1070.1 555.166
434 0 64.1588 14.1524 908 61.2148 1069.98 553.466
435 0 64.2224 13.5623 871 62.535 1070.3 552.78
436 0 68.1162 13.5651 924 61.6807 1069.86 552.554
437 0 68.1238 13.0351 888 64.1227 1070.43 549.027
438 0 71.1414 13.5786 966 63.8437 1070.54 548.19
439 0 73.1759 13.1601 963 64.6698 1069.9 548.116
440 0 78.1525 13.7424 1074 63.6862 1069.79 546.297
441 0 81.253 15.0518 1223 62.332 1070.03 545.291
442 0 83.2018 13.0406 1085 64.9051 1069.88 544.115
443 0 84.1313 13.2531 1115 65.4879 1070.04 542.268
444 0 90.151 13.433 1211 65.5301 1070.16 540.606
445 1 46.0732 11.2647 519 64.3526 1070.08 565.152
446 0 47.13 10.7999 509 65.5737 1069.94 563.646
447 0 49.0371 11.7054 574 65.1986 1069.86 561.324
448 0 50.0431 12.9289 647 64.4699 1070.3 560.51
449 0 52.1018 13.1473 685 64.6204 1070.24 560.778
450 0 52.0439 13.258 690 65.5971 1069.83 559.239
451 0 54.0506 13.3023 719 64.6509 1069.7 559.871
452 0 55.0165 12.9416 712 65.2669 1069.4 558.799
453 0 58.0399 14.1971 824 63.3896 1069.5 557.54
454 0 61.0692 12.7069 776 64.933 1070.32 555.852
455 0 62.106 13.2193 821 63.9878 1069.98 556.147
456 0 64.0988 13.0112 834 64.9604 1069.51 555.114
457 0 67.0585 12.6904 851 64.785 1070.22 554.537
458 0 69.0986 14.2984 988 62.5243 1069.38 553.687
459 0 69.0575 13.7132 947 64.699 1069.35 550.678
460 0 72.0553 13.559 977 64.6192 1069.39 551.6
461 0 76.1574 13.7741 1049 64.2927 1068.86 550.831
462 0 77.1467 13.1049 1011 66.0435 1069.01 550.011
463 0 78.1214 13.159 1028 66.857 1069.47 546.757
464 0 83.1961 14.592 1214 64.1771 1068.84 546.036
465 0 85.1694 14.2892 1217 65.4749 1069.37 545.011
466 0 88.2715 13.5151 1193 66.9631 1069.14 543.933
467 1 48.1703 11.1895 539 67.9239 1068.92 562.362
468 0 49.1749 11.0829 545 67.7505 1068.82 564.099
469 0 50.1193 12.5101 627 66.2504 1068.83 562.979
470 0 52.1043 13.2619 691 65.9059 1069.53 561.624
471 0 55.0692 13.6011 749 64.8117 1069.82 560.35
472 0 57.0601 13.1966 753 65.5857 1069.8 558.559
473 0 58.0992 13.1671 765 65.6536 1069.21 558.788
474 0 60.1034 13.2272 795 65.2767 1069.56 558.469
475 0 64.181 13.5866 872 64.4335 1069.57 556.864
476 0 64.1254 13.5204 867 65.1292 1069.76 557.223
477 0 67.0622 14.2256 954 64.3658 1070.12 554.628
478 0 68.1173 13.2712 904 65.7046 1069.9 554.019
479 0 72.1787 14.1177 1019 64.1286 1069.99 554.03
480 0 74.1287 12.829 951 66.4532 1069.79 552.474
481 0 77.1467 14.1678 1093 64.5361 1069.85 550.648
482 0 79.0853 13.1124 1037 65.9865 1069.73 549.112
483 0 84.3315 13.779 1162 64.3993 1069.91 546.946
484 0 86.1511 14.3933 1240 63.9919 1070.41 543.729
485 1 46.1529 10.3569 478 65.8096 1069.46 566.477
486 0 48.1414 10.9885 529 65.4045 1069.9 564.815
487 0 49.2249 11.5389 568 65.0546 1069.61 564.114
488 0 51.153 11.8273 605 64.0529 1070.51 562.851
489 0 52.1937 12.7793 667 63.2144 1070.68 562.027
490 0 55.1492 13.2912 733 61.5948 1070.22 561.791
491 0 57.1663 12.1575 695 62.0187 1070.19 560.82
492 0 58.1355 12.6429 735 61.7946 1070.37 560.59
493 0 59.1246 12.8373 759 61.9499 1070.62 558.258
494 0 61.0419 13.5481 827 60.8476 1070.87 556.788
495 0 64.1597 12.7183 816 61.4363 1071.05 555.912
496 0 65.172 13.38 872 60.7695 1070.96 555.751
497 0 67.1377 12.0945 812 61.9975 1070.98 554.589
498 0 70.1083 13.9641 979 59.7089 1070.99 554.041
499 0 71.0721 13.4089 953 61.1301 1071.05 551.816
500 0 72.1993 12.9364 934 62.1156 1071.33 551.488
501 0 74.0852 13.2955 985 61.9086 1070.99 551.75
502 0 79.1314 13.7998 1092 60.7179 1071 549.955
503 0 80.2139 14.8104 1188 60.1103 1071.51 547.396
504 0 83.2033 14.5066 1207 60.5584 1071.53 544.421
505 0 86.1725 13.3801 1153 62.3859 1070.91 543.461
506 0 89.2582 12.6375 1128 63.1348 1071.71 543.558
507 1 47.0998 11.5075 542 62.4723 1071.84 562.95
508 0 46.1192 11.0366 509 63.2456 1071.37 563.741
509 0 46.1192 11.0149 508 163.254 1070.34 563.669
510 0 48.2112 12.7979 617 63.128 1071.43 560.645
511 0 53.2879 14.037 748 60.3717 1071.17 558.408
512 0 55.1607 12.9984 717 62.7252 1071.15 557.633
513 0 56.0929 13.4598 755 61.6212 1071.4 558.395
514 0 56.0692 12.5381 703 63.505 1071.19 557.063
515 0 60.1436 13.9333 838 61.2076 1070.96 556.258
516 0 61.1238 13.399 819 62.4188 1071.15 553.635
517 0 63.2579 13.9745 884 60.2726 1070.76 552.354
518 0 68.0819 13.7481 936 58.938 1071.03 553.017
519 0 67.2969 13.9977 942 59.897 1071.55 551.432
520 0 70.1903 13.5916 954 60.3124 1071.53 550.158
521 0 70.1769 14.5774 1023 60.1437 1071.9 549.457
522 0 70.1769 14.6059 1025 159.748 1072.9 549.484
523 0 75.2966 14.1175 1063 60.1627 1072.17 546.036
524 0 77.6054 14.2 1102 60.2523 1071.57 545.823
525 1 38.3743 12.0393 462 60.0671 1072.44 564.916
526 0 36.4228 10.0212 365 62.4849 1073.08 565.142
527 0 41.6264 11.7954 491 60.8248 1072.46 562.788
528 0 43.4551 13.7383 597 58.4824 1072.37 562.236
529 0 43.1692 12.2309 528 60.5265 1072.58 560.85
530 0 43.201 13.6108 588 58.4643 1071.83 558.694
531 0 45.0301 12.4139 559 60.0483 1071.46 559.301
532 0 46.0384 14.1404 651 58.2734 1071.71 556.966
533 0 48.032 12.6999 610 59.3049 1071.83 556.866
534 0 50.0373 12.7105 636 58.8522 1071.87 557.234
535 0 52.1921 13.412 700 57.9471 1072.03 556.023
536 0 53.2008 12.9133 687 59.6798 1072.82 557.201
537 0 56.1475 14.2304 799 58.3091 1072.93 556.526
538 0 58.2756 13.7279 800 58.505 1072.78 553.591
539 0 58.2855 13.6054 793 59.0252 1072.86 552.95
540 0 61.2855 15.3544 941 56.966 1072.5 550.76
541 0 64.2895 14.1703 911 58.2832 1072.55 550.588
542 0 65.3598 13.7087 896 59.1362 1072.56 550.921
543 0 67.3064 14.5008 976 58.3842 1072.21 549.325
544 0 72.4113 13.8376 1002 58.516 1071.94 548.23
545 0 73.4414 14.5286 1067 58.1912 1071.71 546.986
546 0 76.3174 14.0728 1074 58.9674 1071.72 545.213
547 0 78.3294 14.7837 1158 58.2781 1071.26 545.054
548 0 80.3206 13.6578 1097 59.6572 1071.57 541.807
549 0 85.457 15.1304 1293 57.6891 1071.62 543.133
550 0 88.4184 14.6463 1295 58.495 1071.44 543.053
551 0 88.5037 13.9316 1233 60.5385 1072.03 540.503
552 1 46.3486 12.7296 590 59.9373 1072.32 561.844
553 0 48.3573 11.6011 561 62.4742 1071.74 561.709
554 0 51.2774 13.2417 679 60.0795 1072.07 560.791
555 0 51.1021 14.1481 723 60.9986 1071.48 558.768
556 0 53.0965 12.901 685 62.1504 1071.51 558.455
557 0 54.1507 14.6628 794 60.8955 1071.27 556.569
558 0 57.2207 13.3343 763 61.7339 1071.53 557.054
559 0 60.5251 14.6055 884 59.9774 1071.87 555.434
560 0 60.2707 13.3896 807 62.4572 1071.39 553.197
561 0 63.2429 14.5313 919 60.9793 1071.43 553.01
562 0 66.2741 15.0436 997 59.677 1071.73 552.059
563 0 67.3434 14.4335 972 60.8241 1071.07 550.753
564 0 68.5225 13.9224 954 62.5042 1070.74 548.571
565 0 73.523 14.3901 1058 60.9074 1070.74 549.716
566 0 74.4245 14.8338 1104 60.8243 1070.31 548.422
567 0 76.2752 13.7791 1051 62.9943 1071.09 544.733
568 1 36.2285 11.0962 402 64.5149 1071.54 566.204
569 0 38.2377 11.8731 454 64.3172 1070.9 563.372
570 0 41.2262 12.9287 533 61.2777 1071.01 565.088
571 0 42.1164 12.6554 533 63.1576 1070.76 564.026
572 0 44.1239 13.1221 579 62.6943 1070.68 562.87
573 0 46.0828 12.6511 583 64.3002 1070.8 562.235
574 0 46.1431 12.5046 577 64.9272 1069.92 561.697
575 0 47.0548 12.4748 587 65.5332 1069.9 561.874
576 0 49.1866 13.1743 648 65.1944 1070.08 560.452
577 0 53.1081 13.256 704 63.5341 1069.76 560.545
578 0 54.1105 14.2301 770 62.8065 1070.02 559.912
579 0 55.1979 13.4607 743 64.7026 1069.79 558.693
580 0 56.105 11.8706 666 66.3258 1069.38 559.751
581 0 59.2811 14.0348 832 64.0433 1069.49 555.828
582 0 60.2193 13.6335 821 64.7101 1069.48 554.906
583 0 62.2677 13.4259 836 64.6555 1069.03 555.386
584 0 65.4459 13.4309 879 64.5904 1068.84 554.052
585 0 66.2258 15.0092 994 62.832 1069.02 553.325
586 0 70.2234 14.3684 1009 64.002 1069.11 551.657
587 0 72.4225 14.2497 1032 63.9797 1068.92 550.97
588 0 74.3654 13.9043 1034 64.7669 1068.66 550.865
589 0 76.1929 14.0827 1073 64.9273 1068.73 548.271
590 0 79.2785 14.3545 1138 64.1643 1068.35 549.012
591 0 81.2376 13.4051 1089 65.5023 1068.55 548.199
592 0 84.4055 13.8617 1170 64.7274 1069.09 546.389
593 0 86.189 13.7372 1184 65.3429 1068.54 545.68
594 0 90.0866 15.2409 1373 62.5637 1068.67 545.394
595 1 47.0883 11.5952 546 64.6795 1068.26 565.722
596 0 49.0362 12.4602 611 63.1424 1068.04 565.232
597 0 50.0332 12.7515 638 63.5031 1068.31 562.821
598 0 53.0361 13.5757 720 62.0639 1068.37 563.379
599 0 54.0682 13.594 735 62.9293 1068.15 561.268
600 0 57.0822 13.0513 745 62.9879 1067.98 559.719
601 0 58.0569 13.9174 808 61.151 1067.31 559.056
602 0 61.061 13.3146 813 61.6224 1067.56 558.9
603 0 65.1055 14.7146 958 59.4113 1067.5 556.364
604 0 67.1184 15.0331 1009 58.5649 1067.54 554.859
605 0 68.0752 13.4263 914 60.6926 1067.6 554.786
606 0 71.1584 14.2077 1011 59.0584 1067.83 555.398
607 0 74.1702 13.6308 1011 61.5203 1067.88 552.106
608 0 76.2108 13.2527 1010 63.2861 1067.78 551.142
609 1 40.0534 10.8355 434 64.3825 1068.16 568.929
610 0 41.0107 10.4119 427 65.993 1068.66 567.92
611 0 43.0416 11.547 497 65.4447 1067.69 567.416
612 0 42.0205 12.0893 508 64.8287 1068.03 567.185
613 0 44.0221 12.0167 529 66.6163 1068.44 564.614
614 0 45.0945 12.7288 574 66.1185 1068.41 564.943
615 0 47.1467 12.2384 577 67.104 1068.5 563.679
616 0 51.1296 13.808 706 64.4759 1068.28 563.647
617 0 51.1322 13.69 700 64.7457 1068.78 562.759
618 0 51.0954 14.0522 718 64.8398 1068.22 562.992
619 0 54.0869 12.8867 697 65.4405 1068.7 560.339
620 0 54.1971 14.0229 760 63.9461 1068.42 559.666
621 0 58.2637 14.8463 865 62.237 1068.53 558.192
622 0 59.3934 13.4695 800 64.9638 1068.58 558.365
623 0 61.2212 13.4431 823 64.7132 1068.5 557.976
624 0 63.3423 14.5874 924 63.9307 1068.55 554.784
625 0 67.4444 14.8715 1003 62.7188 1068.91 553.783
626 0 68.3837 14.0092 958 64.0741 1068.66 553.935
627 0 71.371 13.8151 986 64.9016 1069.1 551.151
628 0 73.2818 14.2327 1043 64.3835 1068.68 551.178
629 1 39.1956 11.3788 446 66.1233 1069.68 567.184
630 0 41.2308 11.4478 472 65.7097 1069.73 567.206
631 0 42.1469 10.2736 433 66.4388 1069.59 565.677
632 0 44.1339 11.737 518 65.4981 1069.14 564.069
633 0 47.1082 12.1847 574 64.0017 1069.1 564.777
634 0 49.1455 11.8017 580 64.2862 1069.21 562.895
635 0 49.0847 12.02 590 64.639 1069.49 561.668
636 0 51.1718 11.862 607 63.8451 1069.56 561.499
637 0 50.0792 11.6815 585 64.735 1069.64 558.988
638 0 54.2556 12.1093 657 62.4886 1070.16 559.002
639 0 54.1464 13.4635 729 61.6324 1070.17 557.595
640 0 58.1489 12.8463 747 60.7242 1069.66 559.653
641 0 58.2282 12.2793 715 62.5105 1069.95 553.575
642 0 62.0956 14.1717 880 59.7136 1069.9 554.405
643 0 61.2068 12.8417 786 61.9097 1070.12 553.542
644 0 65.2268 13.1234 856 60.7196 1070.22 553.166
645 0 67.1181 13.5284 908 60.5187 1070.34 551.14
646 0 68.2361 12.6912 866 61.8522 1070.54 549.163
647 0 72.1172 13.5335 976 60.6762 1070.33 547.228
648 0 74.2818 13.7853 1024 60.4561 1070.71 546.725
649 0 79.4747 14.4952 1152 58.8403 1070.67 545.733
650 0 78.395 14.0443 1101 59.7266 1070.78 544.384
651 1 45.3408 11.4025 517 58.8994 1070.91 561.735
652 0 44.2975 10.3166 457 159.761 1069.77 560.689
653 0 49.3896 10.1236 500 60.046 1071.36 561.432
654 0 53.4439 11.9378 638 57.4091 1071.06 559.484
655 0 53.3094 11.7803 628 58.785 1071 557.15
656 0 55.5937 12.4475 692 58.3309 1070.96 555.087
657 0 58.1586 13.4804 784 56.1046 1071.11 555.421
658 0 59.2592 14.3269 849 55.232 1071.49 554.41
659 0 58.2392 11.676 680 59.2059 1071.54 552.541
660 0 65.3545 13.006 850 56.0271 1071.58 553.089
661 0 64.4275 12.4636 803 57.6139 1071.92 548.077
662 0 68.5847 13.3412 915 55.8842 1072.02 548.118
663 0 70.2368 13.2979 934 55.6006 1071.88 546.292
664 0 71.4915 12.1413 868 56.6544 1071.98 546.641
665 0 75.5708 13.0738 988 55.2925 1072.43 544.884
666 0 76.6444 12.0426 923 56.4919 1072.87 543.026
667 0 77.6067 13.2205 1026 55.8197 1072.74 540.261
668 0 83.5592 13.3319 1114 55.4749 1072.76 539.55
669 0 84.5676 12.6408 1069 56.3555 1072.83 539.297
670 0 88.4585 13.5996 1203 55.3333 1072.68 537.55
671 0 89.7172 12.6843 1138 56.8093 1072.95 535.671
672 0 91.6705 12.9486 1187 56.8559 1072.83 533.98
673 0 95.7317 12.6499 1211 57.0149 1072.98 534.102
674 1 53.3036 9.68041 516 56.8062 1073.42 556.665
675 0 55.1326 11.1912 617 56.2042 1072.96 553.562
676 0 56.1461 10.9357 614 56.8925 1072.73 552.966
677 0 59.0942 13.0131 769 54.4551 1072.8 552.466
678 0 57.1931 11.4175 653 56.5038 1073.31 553.057
679 0 59.1756 11.7447 695 56.0101 1073.78 552.178
680 0 61.1415 11.9068 728 55.9464 1073.2 549.658
681 0 64.166 12.0001 770 55.7909 1073.29 548.891
682 0 66.2416 11.7147 776 55.6907 1073.6 547.889
683 0 66.3143 11.4606 760 56.0974 1073.61 548.254
684 0 69.1887 11.9384 826 55.9576 1074.08 545.902
685 0 72.2713 12.5638 908 55.2291 1073.7 546.692
686 0 74.3584 11.8346 880 55.9989 1073.52 545.592
687 0 75.1264 11.474 862 56.877 1073.54 542.472
688 0 79.1426 13.0524 1033 54.7744 1073.81 543.379
689 0 80.1326 12.2422 981 56.4169 1073.83 541.68
690 0 83.1438 12.4122 1032 56.4835 1073.64 539.657
691 0 87.0953 13.5828 1183 55.1234 1073.94 537.677
692 0 91.2661 12.9292 1180 55.7017 1074 536.123
693 0 95.1957 13.9292 1326 54.5618 1073.71 534.739
694 0 96.2035 12.8997 1241 56.2724 1072.81 532.255
695 1 49.0232 10.0157 491 57.0204 1073.14 555.379
696 0 53.1129 11.3344 602 55.5947 1073.57 555.098
697 0 53.1129 11.3532 603 153.348 1074.57 555.056
698 0 55.1345 12.0614 665 55.4617 1072.49 553.012
699 0 59.3658 11.5892 688 56.2703 1072.7 552.609
700 0 61.1045 13.1741 805 54.5913 1072.09 551.48
701 0 62.235 13.0152 810 54.9037 1071.03 550.299
702 0 64.0956 13.1678 844 54.7405 1070.98 549.447
703 0 65.1379 13.1874 859 54.3434 1071.22 548.511
704 0 67.2101 11.7839 792 56.5366 1071.42 548.271
705 0 69.3636 12.5714 872 55.6204 1071.08 547.377
706 0 71.2592 12.7563 909 56.2519 1070.9 544.202
707 0 73.2285 13.6149 997 55.8034 1070.53 544.108
708 0 74.1942 12.3729 918 57.8834 1070.42 543.645
709 0 78.5295 13.4472 1056 56.2983 1070.66 541.265
710 0 82.3146 14.1895 1168 55.4409 1069.96 540.908
711 0 83.1659 13.5392 1126 56.3233 1070.46 541.234
712 0 83.1857 14.1611 1178 56.5255 1070.59 539.092
713 0 90.2317 13.5429 1222 56.9157 1070.39 539.209
714 1 48.0937 10.6251 511 58.4579 1069.98 560.278
715 0 50.0264 11.354 568 58.9982 1070.14 557.835
716 0 51.0387 13.5191 690 55.9899 1070.41 555.751
717 0 53.2122 12.3844 659 57.8892 1070.03 555.68
718 0 52.1582 10.7941 563 60.0124 1070.06 556.487
719 0 55.0909 11.4901 633 59.733 1070.71 555.381
720 0 59.1178 12.4328 735 58.1007 1070.8 553.363
721 0 61.1649 13.0304 797 57.7139 1070.5 553.228
722 0 62.1185 13.9572 867 57.1061 1069.74 550.723
723 0 61.262 11.6875 716 59.9581 1069.58 550.883
724 0 66.4421 13.1543 874 57.3867 1070.24 549.413
725 0 66.2122 11.8256 783 60.3448 1069.86 547.724
726 0 70.1686 13.6813 960 56.6948 1069.64 545.812
727 0 71.2161 12.5674 895 58.0961 1069.93 544.146
728 0 76.1594 12.894 982 57.3452 1069.14 546.206
729 0 78.1182 13.0699 1021 56.8619 1069.17 545.163
730 0 82.127 15.5004 1273 53.2404 1068.87 543.152
731 0 82.1322 13.6244 1119 55.5755 1068.41 543.424
732 0 85.1445 12.837 1093 56.1345 1069.15 540.859
733 0 87.1473 12.3928 1080 56.4676 1069.07 539.453
734 0 92.3104 13.1838 1217 55.4297 1069.28 538.239
735 0 95.1184 13.6882 1302 53.9493 1068.63 541.856
736 0 98.2001 14.0224 1377 54.7691 1068.43 536.628
737 0 100.263 14.1828 1422 54.3073 1068.59 534.962
738 1 52.1739 9.83251 513 55.3138 1068.22 559.507
739 0 54.116 11.1427 603 53.2736 1067.57 560.003
740 0 55.0523 10.8261 596 54.9715 1067.69 559.013
741 0 58.0518 11.2141 651 54.381 1067.77 557.743
742 0 61.0626 12.8557 785 52.8089 1066.88 556.239
743 0 62.0393 13.0079 807 52.9046 1067.32 554.742
744 0 62.0691 12.5183 777 53.7735 1066.72 556.766
745 0 65.1207 12.4231 809 54.4994 1066.67 555.582
746 0 67.1295 13.7793 925 53.0843 1067.08 554.206
747 0 68.0773 11.7073 797 55.2986 1067.02 553.1
748 0 71.0951 12.2653 872 54.8796 1066.53 552.532
749 0 73.0633 12.0717 882 55.6485 1066.76 552.151
750 0 74.0735 12.1231 898 56.3597 1065.99 549.038
751 0 79.0812 13.9097 1100 53.8473 1066.06 548.741
752 0 82.0537 13.0768 1073 55.4753 1065.82 547.503
753 0 84.1114 12.852 1081 56.4949 1065.6 543.369
754 0 86.0795 13.3017 1145 55.9083 1066.36 543.488
755 0 87.1902 12.3294 1075 56.7274 1066.27 544.282
756 0 92.2362 12.5222 1155 56.5056 1066.83 541.152
757 0 95.1359 12.6976 1208 57.3551 1066.91 539.064
758 0 98.2408 12.4694 1225 57.369 1067.26 541.225
759 0 102.15 11.8355 1209 58.3978 1066.99 537.2
760 1 57.0695 10.2857 587 57.8739 1066.67 560.032
761 0 57.0511 10.5344 601 57.8453 1066.18 559.499
762 0 62.1065 11.915 740 55.9095 1066.8 557.309
763 0 64.1157 13.2729 851 55.0353 1067.15 556.496
764 0 66.1497 11.9728 792 57.1364 1067.01 554.997
765 0 66.202 12.8848 853 56.2966 1066.82 554.395
766 0 69.2315 11.6999 810 57.763 1066.34 553.951
767 0 69.2436 12.4921 865 58.0902 1066.91 551.363
768 0 72.3007 12.7385 921 58.1596 1066.81 550.933
769 0 74.1405 12.4493 923 57.4193 1066.44 551.658
770 0 77.2885 12.5763 972 57.4177 1066.53 549.587
771 0 78.361 11.9192 934 59.5032 1066.27 546.701
772 0 82.3651 12.2868 1012 59.0919 1066.5 547.23
773 0 85.3629 13.261 1132 57.3878 1066.34 545.898
774 0 88.4382 13.1165 1160 57.4121 1065.74 545.019
775 0 88.3542 12.4159 1097 57.7411 1065.88 537.902
776 0 91.5858 13.0915 1199 56.774 1066.04 537.667
777 1 50.3198 9.73771 490 57.7714 1065.91 559.353
778 0 50.2402 10.0318 504 58.2857 1066.32 559.266
779 0 53.4649 10.7921 577 57.1057 1066.47 559.714
780 0 54.2224 10.8258 587 58.3526 1067.06 558.794
781 0 56.3192 11.4703 646 58.2415 1066.47 559.647
782 0 56.3192 11.4526 645 162.505 1066.48 559.625
783 0 62.1764 11.596 721 56.9015 1067.3 556.882
784 0 60.1742 11.8323 712 157.861 1068.27 556.635
785 1 73.2619 16.1885 1186 49.1847 1068.04 549.75
786 0 71.0793 13.2387 941 54.1041 1067.87 550.242
787 0 71.0793 13.2387 941 145.655 1068.87 550.242
788 0 72.2104 15.2056 1098 53.2923 1067.96 549.741
789 0 73.2346 15.1568 1110 54.1739 1067.77 548.978
790 0 73.2346 15.1568 1110 137.189 1066.77 548.978
791 0 75.158 13.4916 1014 57.3363 1068.06 549.149
792 0 76.2395 13.5625 1034 57.942 1067.66 549.671
793 0 80.1643 12.5492 1006 59.7356 1068.22 546.835
794 0 81.1043 13.1929 1070 59.3897 1068.3 545.666
795 0 87.2806 14.5737 1272 57.2036 1068.14 543.443
796 0 88.2466 12.3064 1086 60.8343 1068.23 542.647
797 1 47.0671 11.0906 522 58.9406 1067.83 561.709
798 0 49.1103 11.4843 564 58.9699 1068.47 560.335
799 0 52.112 10.7653 561 59.4367 1068.84 560.633
800 0 53.1004 11.337 602 59.0847 1068.53 560.618
801 0 53.0921 11.0563 587 60.3867 1068.95 557.954
802 0 56.1666 11.0564 621 60.4944 1069.36 555.456
803 0 60.0765 11.5519 694 59.0432 1069.79 557.378
804 0 62.0846 13.1595 817 57.5373 1069.36 555.672
805 0 64.1533 13.9198 893 56.7144 1069.12 552.979
806 0 64.1381 11.4752 736 60.1427 1069.14 552.412
807 0 66.226 12.1855 807 58.062 1068.76 553.349
808 0 69.2956 12.9157 895 57.3229 1069.37 550.343
809 0 69.1818 11.7227 811 58.9186 1069.23 551.822
810 0 72.289 12.1595 879 58.6121 1069.89 548.876
811 0 73.3083 12.8635 943 57.579 1070.35 548.34
812 0 76.2591 12.4838 952 58.4632 1070.63 546.284
813 0 77.3442 12.9551 1002 57.985 1070.69 544.581
814 0 81.389 12.9747 1056 57.6174 1071.07 544.664
815 0 84.3114 13.0113 1097 57.2926 1070.79 543.177
816 0 87.4636 13.4342 1175 56.7047 1070.65 539.661
817 1 50.3552 9.61172 484 57.5455 1071.06 561.686
818 0 52.2168 10.6096 554 57.0758 1071.12 560.545
819 0 53.2353 11.4773 611 57.6007 1071.21 558.957
820 0 54.1913 11.3302 614 57.2166 1071.36 560.01
821 0 54.1499 11.6898 633 58.1058 1070.73 557.784
822 0 57.0835 11.8248 675 58.8133 1069.77 557.849
823 0 57.0801 12.5963 719 56.9096 1068.91 558.27
824 0 60.1377 12.9536 779 56.3723 1069.9 555.769
825 0 61.1175 12.1569 743 58.148 1069.52 555.716
826 0 64.0977 12.2157 783 58.0728 1069.67 554.167
827 0 66.1133 13.0836 865 56.6358 1069.67 553.84
828 0 69.1032 12.5754 869 56.9206 1069.28 551.959
829 0 69.0854 12.2168 844 57.2097 1069.81 549.191
830 0 69.1476 13.0301 901 57.2309 1069.35 548.469
831 0 72.1016 11.8444 854 59.0328 1069.21 549.481
832 0 74.1003 11.9433 885 59.835 1069.53 546.211
833 0 74.1407 12.9618 961 58.7794 1069.44 547.811
834 0 74.1407 12.9618 961 166.118 1069.44 547.811
835 0 82.1522 13.6454 1121 57.9536 1069.33 545.66
836 0 82.1026 13.203 1084 58.0323 1069.23 543.986
837 0 86.2025 12.6679 1092 59.7921 1069.37 541.182
838 0 89.4229 13.4529 1203 58.6584 1069.44 541.512
839 0 94.2577 13.0175 1227 59.5134 1068.97 539.266
840 0 97.2279 12.7741 1242 60.2303 1069.41 537.297
841 0 97.2279 12.8152 1246 162.517 1069.41 537.177
842 1 52.0543 10.5851 551 58.3103 1069.13 562.84
843 0 55.0704 10.1688 560 60.2536 1069.7 558.114
844 0 55.2042 11.1767 617 61.2917 1069.23 558.254
845 0 58.2667 11.3615 662 62.0317 1069.02 554.412
846 0 59.3541 11.7936 700 61.1243 1067.96 552.65
847 0 61.4182 11.4787 705 60.8567 1068.28 551.553
848 0 64.3171 12.5938 810 59.0728 1068.4 552.381
849 0 65.3997 12.156 795 60.4201 1069.12 542.764
850 0 67.2375 12.6715 852 60.2958 1068.94 544.286
851 0 68.2335 12.5158 854 60.5656 1068.4 547.218
852 0 68.3352 11.3558 776 62.7281 1068.55 550.284
853 0 72.2525 12.2349 884 61.3507 1069.39 550.061
854 0 75.2201 12.3238 927 60.8932 1069.74 550.892
855 0 77.1476 11.8474 914 61.7309 1069.41 550.166
856 0 80.2574 13.4941 1083 59.614 1069.32 544.649
857 0 83.2204 11.9802 997 61.5607 1069.14 546.427
858 0 84.3055 13.1427 1108 61.0298 1069.2 544.961
859 0 86.3258 12.4181 1072 61.8489 1068.68 543.287
860 0 86.3277 11.827 1021 63.1969 1068.62 539.142
861 0 92.3867 13.8007 1275 59.6235 1068.82 540.706
862 0 94.3971 12.9877 1226 60.8964 1068.33 537.731
863 0 98.5136 12.7191 1253 61.3432 1068.46 534.799
864 0 102.606 14.122 1449 59.7322 1068.38 532.327
865 1 54.2976 9.87152 536 63.0728 1068.19 556.045
866 0 56.3765 9.77358 551 63.7169 1067.71 555.254
867 0 57.3888 11.03 633 62.0727 1067.78 554.392
868 0 60.3073 12.0881 729 60.5226 1068.25 556.23
869 0 61.2115 11.5828 709 62.0846 1068.39 554.646
870 0 65.0479 11.2071 729 61.406 1068.88 554.657
871 0 65.0627 11.3736 740 61.7149 1068.61 554.114
872 0 67.04 11.963 802 61.52 1067.94 551.249
873 0 69.1223 11.646 805 61.2348 1068.39 550.538
874 0 73.173 12.122 887 59.8613 1068.47 548.678
875 0 73.0823 11.3981 833 60.928 1068.51 547.588
876 0 75.1293 11.5667 869 60.2624 1068.75 546.314
877 0 79.2902 12.6624 1004 58.3426 1068.42 545.553
878 0 81.3466 11.8382 963 59.3375 1068.21 542.655
879 0 83.3334 12.54 1045 58.9522 1067.29 544.451
880 0 86.2497 12.5682 1084 58.7657 1067.83 543.219
881 0 87.3422 11.2889 986 60.3134 1067.83 541.899
882 0 89.2099 12.7116 1134 58.5317 1067.62 538.983
883 0 95.2481 13.5961 1295 56.9297 1068.4 537.876
884 0 96.3413 11.2413 1083 59.4875 1067.95 541.218
885 0 100.261 13.036 1307 57.4231 1068.29 538.828
886 0 103.309 12.9805 1341 57.8143 1068.58 533.601
887 1 56.1813 9.89653 556 59.0162 1068.82 557.646
888 0 58.2193 10.3917 605 58.9884 1068.08 555.74
889 0 61.3831 11.1105 682 58.7698 1067.8 556.085
890 0 63.33 11.5901 734 58.1853 1067.93 551.824
891 0 62.2392 10.9095 679 59.6539 1067.87 548.613
892 0 69.2998 10.3608 718 87.6671 1067.45 549.104
893 0 65.364 11.107 726 55.6061 1068.25 547.325
894 0 69.2868 12.3544 856 54.5537 1068.58 546.315
895 0 70.4762 11.4932 810 56.163 1068.96 544.991
896 0 71.3522 12.2771 876 55.8219 1068.81 544.047
897 0 74.4023 12.7281 947 54.7582 1068.97 543.95
898 0 74.3501 12.1587 904 56.2777 1069.53 541.921
899 0 78.6369 12.2589 964 55.89 1069.19 540.452
900 0 81.3177 12.4327 1011 55.6429 1069.51 540.551
901 0 82.2795 12.7492 1049 56.2574 1069.7 538.298
902 0 85.3923 12.2493 1046 56.9321 1070.03 536.953
903 0 88.3913 11.9582 1057 57.65 1070.03 536.591
904 0 91.4795 13.3582 1222 57.0982 1069.98 533.734
905 0 94.5251 12.8749 1217 57.6532 1069.8 536.682
906 0 95.2458 13.1974 1257 58.1464 1070.18 533.812
907 0 95.239 12.6734 1207 59.9503 1070.25 528.746
908 0 100.437 12.5452 1260 60.0452 1070.38 527.968
909 0 102.463 12.3557 1266 61.1998 1070.14 525.428
910 0 107.521 12.7324 1369 60.7706 1070.54 526.379
911 0 110.469 12.1392 1341 62.2729 1070.82 524.484
912 0 111.427 12.9502 1443 63.0991 1071.04 521.326
913 0 119.37 14.61 1744 59.707 1071.36 519.522
914 0 121.506 13.9005 1689 61.2043 1071.21 517.356
915 0 125.501 14.0955 1769 60.9062 1071.48 517.415
916 0 128.512 12.6992 1632 62.6011 1071.58 518.753
917 1 66.2392 10.9603 726 62.9229 1071.67 546.051
918 0 70.2372 11.5893 814 62.0233 1071.64 544.695
919 0 73.2979 12.1013 887 61.4577 1071.82 542.903
920 0 76.2565 12.4973 953 59.9706 1071.72 542.406
921 0 79.3951 12.0662 958 60.2088 1071.73 540.708
922 0 80.1727 12.5978 1010 59.402 1071.88 539.437
923 0 82.2585 13.4454 1106 58.83 1072.08 537.251
924 0 84.1853 12.8764 1084 59.7638 1072.54 536.009
925 0 88.2216 12.6273 1114 60.1472 1072.76 531.774
926 0 89.2882 12.6557 1130 60.5248 1072.35 532.245
927 0 94.3215 13.507 1274 59.2881 1072.99 531.869
928 0 97.2953 12.868 1252 59.7788 1073.31 528.511
929 0 97.1687 12.9671 1260 60.25 1072.9 528.78
930 0 105.371 13.4287 1415 58.4148 1072.91 528.601
931 0 104.245 12.8256 1337 61.3254 1073.07 527.111
932 0 109.162 13.2097 1442 60.3259 1072.85 524.498
933 0 111.255 13.7431 1529 60.2767 1072.17 522.318
934 0 116.235 13.2232 1537 60.7521 1071.7 521.451
935 0 118.332 13.3607 1581 60.7622 1071.36 521.466
936 0 117.22 12.6258 1480 62.55 1071.83 518.115
937 0 123.183 12.6966 1564 62.1854 1071.62 515.207
938 0 128.197 13.3934 1717 61.4554 1071.44 515.354
939 0 133.11 13.4325 1788 61.6314 1071.88 513.852
940 0 137.166 13.5018 1852 61.2765 1071.99 511.516
941 0 141.404 13.3448 1887 61.4759 1071.77 510.957
942 0 148.293 13.1496 1950 61.3626 1071.66 507.816
943 1 79.2061 8.42107 667 60.3433 1072.16 542.979
944 0 83.1837 10.4227 867 59.3968 1071.79 538.228
945 0 83.1837 10.3987 865 164.6 1072.79 538.299
946 0 87.1765 10.8286 944 59.8983 1071.1 536.096
947 0 89.1459 11.7111 1044 59.2969 1070.75 536.817
948 0 93.26 12.0845 1127 57.9592 1070.4 534.713
949 0 95.2796 11.461 1092 58.7683 1070.64 533.518
950 0 100.276 13.0839 1312 56.5534 1069.98 531.835
951 0 103.364 11.3289 1171 58.3723 1069.63 530.012
952 0 105.464 12.2507 1292 58.0333 1069.38 527.282
953 0 110.425 11.6188 1283 58.8987 1069.55 527.852
954 0 115.537 13.6752 1580 55.8797 1069.58 524.408
955 0 118.488 12.0012 1422 57.5612 1069.25 523.366
956 1 65.2109 10.4277 680 56.1632 1068.74 548.934
957 0 67.2791 9.82475 661 56.3707 1069.12 549.425
958 0 66.2059 9.47046 627 58.3684 1070.8 546.166
959 0 73.1505 11.5242 843 55.9039 1071.06 545.41
960 0 73.1505 11.5242 843 143.777 1072.06 545.41
961 0 76.1652 11.0812 844 56.1232 1070.63 546.185
962 0 77.2132 12.3424 953 54.2802 1070.38 544.379
963 0 80.1719 11.9867 961 54.9376 1070.78 543.121
964 0 81.1091 12.0332 976 55.5686 1070.52 542.541
965 0 84.169 11.5126 969 56.6512 1070.49 541.18
966 0 87.2176 12.7039 1108 55.3673 1070.6 541.054
967 0 89.1544 12.383 1104 55.9973 1070.57 538.958
968 0 92.2033 11.5939 1069 57.0393 1070.47 535.924
969 0 93.147 12.2495 1141 55.7862 1069.85 536.487
970 0 94.2464 12.4567 1174 56.4693 1070.45 534.398
971 0 100.309 12.4615 1250 56.512 1070.15 531.989
972 1 54.3408 10.1949 554 56.0379 1068.45 558.491
973 0 55.1858 9.76701 539 56.9926 1068.26 556.085
974 0 58.1485 10.2668 597 57.3786 1068.65 554.938
975 0 59.1761 10.5955 627 57.3923 1068.08 555.445
976 0 59.1207 10.5716 625 54.4736 1067.58 554.437
977 0 64.2743 12.1977 784 56.0421 1068.46 552.529
978 0 65.2411 13.1972 861 52.0465 1068.23 546.85
979 0 65.3077 11.3769 743 54.8223 1068.67 546.53
980 0 66.2688 11.4986 762 55.6759 1068.29 546.459
981 0 67.2593 11.6713 785 55.7618 1068.37 545.447
982 0 68.237 11.8851 811 55.7238 1068.87 544.139
983 0 72.2707 12.1488 878 55.0581 1068.34 545.822
984 0 75.2009 12.1541 914 55.291 1068.43 544.144
985 0 74.1653 11.9463 886 56.4989 1068.4 542.188
986 0 76.2255 11.7021 892 56.6693 1068.45 541.297
987 0 80.2134 12.0553 967 56.3371 1068.28 541.406
988 0 81.28 11.9341 970 56.5505 1068.09 539.761
989 0 87.1525 14.0099 1221 55.5848 1068.67 543.455
990 0 91.2197 13.1879 1203 56.7232 1068.39 541.137
991 0 93.1666 12.8587 1198 56.7229 1068.53 540.668
992 0 96.1189 12.6718 1218 57.4557 1068.55 539.752
993 0 96.1487 11.9502 1149 59.4517 1068.64 536.205
994 1 53.0764 10.4755 556 59.6601 1067.8 558.694
995 0 55.0916 10.183 561 60.5312 1068.07 557.56
996 0 55.1061 10.3981 573 56.6789 1067.05 551.846
997 0 58.0807 11.3463 659 56.6646 1066.76 550.81
998 0 60.083 11.767 707 56.7949 1068.52 550.697
999 0 62.1379 11.909 740 55.5919 1068.19 549.404
1000 0 64.2014 12.1337 779 55.8267 1068.38 547.946
1001 0 64.0641 11.4729 735 57.0667 1068.3 549.629
1002 0 66.1189 12.7951 846 56.7045 1068.09 547.186
1003 0 69.1739 12.6782 877 55.5758 1068.17 550.121
1004 0 71.2648 12.0817 861 57.9907 1068.03 551.34
1005 0 74.2375 12.3657 918 57.4749 1068.64 550.051
1006 0 77.2092 13.0554 1008 56.3095 1068.54 550.832
1007 0 79.1645 13.314 1054 56.6509 1068.91 547.652
1008 1 44.0968 10.477 462 57.7186 1068.85 564.857
1009 0 45.1066 9.97637 450 59.6489 1069.3 562.233
1010 0 48.1438 9.94935 479 59.263 1068.81 563.225
1011 0 48.1957 12.1173 584 58.2877 1068.39 563.065
1012 0 51.2184 12.9641 664 56.863 1068.38 561.956
1013 0 54.3409 12.6608 688 58.7108 1067.34 559.69
1014 0 53.2391 11.6832 622 61.3987 1068.11 559.566
1015 0 58.1256 13.4708 783 58.3346 1068.14 559.409
1016 0 59.1779 13.6706 809 58.7689 1068.16 556.414
1017 0 60.1203 13.0405 784 59.6416 1068.18 557.362
1018 0 62.2935 13.9661 870 58.6701 1069.42 553.348
1019 0 62.2935 14.0303 874 151.712 1070.42 553.355
1020 0 62.2935 14.0625 876 151.049 1071.42 553.36
1021 0 66.1962 14.8951 986 58.856 1068.89 553.67
1022 0 66.3363 12.919 857 62.5939 1069.02 550.903
1023 0 69.2337 13.1728 912 61.773 1068.79 548.959
1024 0 68.134 13.356 910 62.8352 1068.83 548.818
1025 0 70.2915 12.9319 909 63.8108 1068.84 547.976
1026 0 74.2372 13.1201 974 63.2823 1069.44 546.203
1027 0 76.2173 14.2094 1083 62.0896 1069.42 545.447
1028 0 78.2731 14.2833 1118 62.8614 1069.78 542.717
1029 0 81.2558 15.5681 1265 61.1889 1070.08 542.36
1030 0 83.1944 14.5442 1210 63.3562 1070.17 540.214
1031 0 84.3208 14.3381 1209 64.0058 1070.15 539.757
1032 0 88.2004 14.6144 1289 63.3429 1070.32 539.471
1033 1 49.1481 11.2924 555 66.9604 1069.35 556.503
1034 0 50.2115 11.2524 565 65.1841 1070.22 557.74
1035 0 50.2132 11.4313 574 66.3432 1070.39 557.681
1036 0 53.2041 12.9313 688 65.0233 1070.45 556.195
1037 0 55.2055 12.861 710 65.0704 1070.84 557.41
1038 0 57.1944 13.6027 778 65.572 1071.93 555.769
1039 0 60.3441 14.1522 854 65.1534 1071.6 555.026
1040 0 61.1963 13.5629 830 66.2096 1072.26 553.1
1041 0 62.3347 13.8125 861 65.8432 1072.62 552.613
1042 0 66.2307 14.7364 976 64.4477 1073.06 551.195
1043 0 68.2901 14.7313 1006 63.841 1072.93 550.739
1044 0 70.3357 14.1322 994 65.0513 1072.53 551.275
1045 0 72.2552 15.0716 1089 63.4793 1072.67 549.839
1046 0 73.3074 13.3274 977 65.2497 1073.13 546.809
1047 0 76.212 14.276 1088 63.9577 1073.22 545.893
1048 0 78.2426 14.2633 1116 64.1935 1073.14 545.514
1049 0 80.313 13.8956 1116 64.7043 1073.42 546.245
1050 0 83.24 13.9476 1161 64.9811 1073.57 544.083
1051 0 86.3172 15.1071 1304 63.7393 1073.33 541.972
1052 0 86.5656 13.4349 1163 66.5185 1073.62 541.658
1053 0 90.2882 14.7638 1333 64.4606 1073.28 540.428
1054 0 94.3059 14.6014 1377 64.5461 1074.01 538.93
1055 0 97.2048 15.2667 1484 63.7358 1073.86 537.924
1056 0 99.4324 14.794 1471 64.9211 1073.54 536.172
1057 0 101.425 14.6512 1486 65.3318 1073.78 534.886
1058 1 58.4279 11.6896 683 66.0732 1073.55 556.824
1059 0 60.1951 11.8282 712 65.9003 1073.64 556.912
1060 0 60.3296 13.4428 811 64.9914 1072.99 554.508
1061 0 63.2341 12.9993 822 64.9246 1072.92 553.541
1062 0 63.3621 12.5943 798 66.3195 1073.17 552.602
1063 0 67.2749 13.4225 903 65.5781 1072.67 550.657
1064 0 70.2415 13.9803 982 64.4379 1072.89 549.958
1065 0 73.2634 13.0761 958 65.9802 1073.47 549.118
1066 0 73.1614 13.9418 1020 65.5118 1073.21 548.393
1067 0 77.2539 13.5657 1048 66.3053 1072.56 546.866
1068 0 81.3049 14.6855 1194 64.4322 1072.62 545.26
1069 0 83.2359 14.2006 1182 65.445 1072.94 544.863
1070 0 83.3338 14.0879 1174 66.184 1072.24 544.641
1071 0 87.2218 13.7924 1203 66.7465 1072.06 541.357
1072 0 91.2972 14.2283 1299 66.0115 1072.37 542.41
1073 0 92.3075 14.0834 1300 66.8123 1072.46 537.97
1074 0 96.1689 14.3186 1377 66.0988 1072.45 537.457
1075 0 100.169 14.4057 1443 65.8039 1072.09 537.202
1076 1 52.1314 12.0273 627 68.3892 1071.92 558.27
1077 0 54.2775 11.128 604 68.9056 1071.75 559.565
1078 0 55.1781 12.5775 694 68.1369 1071.88 557.069
1079 0 57.1985 13.0073 744 67.6344 1071.53 555.851
1080 0 60.1562 13.6977 824 66.432 1071.57 555.181
1081 0 60.2701 13.7713 830 66.6458 1071.01 552.594
1082 0 63.2101 13.9376 881 65.7594 1071.05 552.67
1083 0 65.2451 13.6409 890 66.5978 1070.94 550.099
1084 0 67.4116 13.7662 928 66.3276 1071.38 548.111
1085 0 72.3568 15.2854 1106 63.538 1071.63 546.527
1086 0 72.2966 14.0117 1013 66.1955 1071.48 546.717
1087 0 72.3393 13.3399 965 67.7606 1071.59 545.649
1088 0 76.4638 13.2219 1011 67.819 1071.4 544.36
1089 0 79.4901 14.0898 1120 66.4027 1071.38 542.854
1090 0 81.4802 13.4757 1098 67.367 1071.36 541.719
1091 0 84.395 14.444 1219 66.0139 1071.35 540.368
1092 0 88.3793 14.2907 1263 65.9731 1071.3 537.448
1093 0 88.3306 13.891 1227 67.1801 1070.72 536.221
1094 0 93.3157 14.242 1329 65.769 1070.89 536.797
1095 0 94.3028 13.6051 1283 67.6921 1070.71 534.483
1096 0 100.499 14.239 1431 65.9888 1070.56 532.564
1097 0 103.301 14.356 1483 65.7222 1070.5 531.229
1098 0 105.334 13.7658 1450 66.7593 1071.14 527.106
1099 0 109.288 14.2193 1554 65.2812 1071.15 528.539
1100 0 115.443 14.7432 1702 64.2538 1070.51 526.478
1101 1 59.373 11.992 712 65.9537 1070.7 553.062
1102 0 63.247 12.4907 790 64.2785 1070.77 552.161
1103 0 64.2537 12.4662 801 65.7066 1070.13 549.541
1104 0 68.2708 13.3 908 63.5881 1069.93 549.454
1105 0 68.2708 13.2121 902 170.818 1069.94 549.519
1106 0 73.231 13.5872 995 62.9246 1069.49 545.377
1107 0 78.2476 13.7896 1079 62.3735 1069.95 543.568
1108 0 77.2103 13.0941 1011 63.4214 1069.82 542.254
1109 0 80.5231 14.0457 1131 62.2909 1070.1 540.618
1110 0 85.3904 14.299 1221 61.1319 1069.7 538.568
1111 0 85.3625 13.9523 1191 62.0856 1070.08 537.504
1112 0 91.3919 14.0603 1285 61.0156 1070.65 537.501
1113 0 91.3674 13.9328 1273 61.7478 1070.35 535.482
1114 0 96.2867 15.0696 1451 59.9008 1070.7 536.347
1115 0 98.4097 14.7546 1452 60.2996 1070.22 531.072
1116 0 101.369 14.2549 1445 60.7834 1070.09 531.015
1117 0 103.234 13.6971 1414 61.7263 1069.94 529.047
1118 1 52.1732 12.3243 643 62.647 1069.41 553.075
1119 0 52.1732 12.2668 640 167.209 1068.41 553.069
1120 0 56.2661 14.7158 828 58.6739 1069.48 553.033
1121 0 58.1886 13.5765 790 59.9013 1069.52 550.925
1122 0 58.1715 12.1365 706 62.1374 1069.35 551.269
1123 0 62.2894 13.4373 837 59.2987 1069.9 549.038
1124 0 63.1852 13.4367 849 59.5395 1069.57 550.267
1125 0 66.1941 14.0647 931 58.5639 1069.5 549.496
1126 0 68.2483 13.9344 951 58.551 1069.3 548.627
1127 0 70.3366 13.6344 959 59.3076 1069.47 546.932
1128 0 71.1417 13.7894 981 60.0133 1069.6 544.169
1129 0 76.1318 14.4355 1099 58.8781 1070.04 543.297
1130 0 78.3729 13.9844 1096 59.8504 1069.8 542.639
1131 0 80.2671 13.7042 1100 60.1427 1069.9 541.129
1132 0 84.303 14.0564 1185 59.9359 1069.53 539.645
1133 0 84.1885 13.8499 1166 61.1407 1069.64 536.039
1134 0 89.4494 13.5607 1213 61.1937 1069.5 537.423
1135 0 92.2134 14.5857 1345 60.0736 1069.22 534.781
1136 0 95.2018 14.359 1367 60.109 1069.88 535.014
1137 1 47.1397 11.328 534 63.5019 1069.13 557.352
1138 0 47.2842 10.8704 514 63.7977 1069.37 557.401
1139 0 50.1754 12.5958 632 62.5744 1069.82 554.82
1140 0 52.1842 13.7781 719 60.0236 1069.63 556.255
1141 0 54.1371 13.7614 745 60.7141 1070.5 554.021
1142 0 56.3481 12.618 711 63.5415 1070.26 552.335
1143 0 58.5367 14.5208 850 61.5435 1070.5 552.053
1144 0 62.6518 14.413 903 61.2558 1070.78 551.517
1145 0 62.6886 14.3407 899 62.0912 1070.83 552.201
1146 0 67.3747 13.9963 943 62.5048 1070.72 549.014
1147 0 68.8158 14.735 1014 61.8679 1070.64 549.353
1148 0 69.3235 13.6606 947 64.2893 1070.68 547.05
1149 0 71.7356 13.3128 955 64.9738 1071.38 545.829
1150 0 76.5381 14.0714 1077 63.4485 1071.8 545.292
1151 0 77.4631 13.8647 1074 64.5847 1071.76 545.345
1152 0 83.5601 14.9354 1248 62.2981 1072.05 542.67
1153 0 84.631 15.0181 1271 62.4626 1072.14 542.199
1154 0 85.4473 14.2544 1218 63.7488 1072.16 541.386
1155 0 90.4815 14.5886 1320 63.0417 1072.47 538.273
1156 0 92.7623 14.8767 1380 63.1203 1073.12 537.982
1157 0 93.6828 14.1114 1322 64.6195 1073.64 537.44
1158 0 97.756 14.6794 1435 63.5129 1073.63 535.138
1159 0 100.953 15.0665 1521 62.8955 1073.64 535.922
1160 0 100.953 15.0566 1520 165.461 1073.62 535.911
1161 0 106.469 14.8306 1579 63.5826 1072.88 530.624
1162 0 108.521 14.1447 1535 64.6384 1073.73 530.094
1163 0 113.465 13.9162 1579 64.544 1074.33 527.601
1164 1 59.5281 11.4904 684 64.5307 1075.01 555.136
1165 0 62.4681 11.814 738 64.7317 1074.92 552.713
1166 0 62.6089 12.4583 780 64.5974 1074.51 551.438
1167 0 66.4783 13.463 895 63.1598 1074.93 550.56
1168 0 66.5233 13.7997 918 63.841 1072.05 548.795
1169 0 70.526 14.2784 1007 62.8014 1072.47 547.992
1170 0 69.5036 14.1719 985 64.3218 1072.8 546.35
1171 0 74.4578 14.5989 1087 63.7203 1073.17 544.827
1172 0 76.4845 14.1467 1082 63.7671 1074.36 544.821
1173 0 78.448 14.9781 1175 63.5889 1074.34 541.649
1174 0 82.5767 14.3503 1185 63.9266 1075.24 541.923
1175 0 82.3648 14.0351 1156 65.583 1075.18 540.606
1176 0 87.2764 14.9525 1305 63.9847 1075.15 540.728
1177 0 89.3367 15.3912 1375 64.24 1075.07 538.932
1178 0 91.6276 14.5371 1332 65.8033 1074.92 538.239
1179 0 94.387 15.3941 1453 64.8796 1074.57 537.054
1180 0 99.5417 15.7924 1572 63.6317 1074.27 535.849
1181 0 100.424 14.3292 1439 66.5448 1074.12 533.409
1182 0 105.389 14.309 1508 66.5172 1074.14 531.29
1183 0 107.492 14.215 1528 66.5399 1074.53 530.779
1184 1 59.309 12.5613 745 67.3879 1074.48 553.215
1185 0 60.2757 12.9074 778 66.9602 1074.33 553.072
1186 0 62.4086 12.2259 763 67.9515 1074.4 551.317
1187 0 64.5053 13.8748 895 66.2883 1073.93 551.514
1188 0 66.4353 13.2761 882 67.0805 1073.88 549.828
1189 0 67.2822 14.6101 983 66.3713 1073.87 548.601
1190 0 69.2825 13.2934 921 68.3822 1073.81 547.118
1191 0 74.5154 14.2118 1059 66.1898 1074.29 546.577
1192 0 76.411 14.566 1113 66.1123 1073.7 544.731
1193 0 79.3413 13.8642 1100 66.8909 1074.07 543.463
1194 0 81.2978 14.7605 1200 65.9 1073.6 544.39
1195 0 81.4212 13.8662 1129 67.6005 1072.63 542.854
1196 0 86.4061 14.5823 1260 66.4865 1072.82 540.179
1197 0 89.2588 13.937 1244 67.2387 1072.97 539.552
1198 0 92.3334 14.2527 1316 67.0236 1072.87 538.146
1199 0 95.3081 14.7731 1408 66.1186 1072.95 537.649
1200 0 95.377 13.8608 1322 68.5817 1073.01 535.247
1201 0 99.3618 14.3818 1429 67.4535 1072.27 534.445
1202 0 103.395 14.7009 1520 66.5132 1072.62 533.549
1203 0 107.179 14.3872 1542 66.915 1072.52 532.178
1204 0 108.486 14.6748 1592 67.2494 1072.12 529.371
1205 0 112.325 14.9298 1677 66.8694 1071.97 527.564
1206 0 114.322 12.7622 1459 69.4962 1071.82 528.84
1207 0 121.505 14.2875 1736 66.966 1072.16 525.218
1208 0 125.499 14.5419 1825 66.3474 1071.84 522.283
1209 0 127.665 14.1778 1810 67.1182 1071.55 519.849
1210 0 134.673 14.5538 1960 65.0388 1071.55 517.215
1211 0 140.581 14.6393 2058 64.4524 1071.16 516.378
1212 0 144.755 14.9079 2158 64.3216 1070.99 513.476
1213 0 148.556 14.3852 2137 64.8105 1071.27 509.96
1214 0 153.571 14.3842 2209 64.8298 1071.29 509.244
1215 1 84.58 11.9768 1013 66.7137 1071.2 544.307
1216 0 87.4718 12.4497 1089 65.8044 1071.1 542.451
1217 0 92.3423 13.8181 1276 64.4624 1070.51 539.161
1218 0 94.4112 14.4051 1360 63.5846 1070.98 538.788
1219 0 97.7274 13.9674 1365 63.9575 1070.62 537.841
1220 0 102.576 14.9353 1532 62.7787 1070.33 533.497
1221 0 104.596 14.599 1527 63.1794 1070.5 533.729
1222 0 108.572 14.1842 1540 63.6578 1070.1 530.984
1223 0 112.841 14.5248 1639 62.5705 1070.66 531.118
1224 0 115.481 13.552 1565 63.7399 1070.58 530.305
1225 0 120.727 14.8517 1793 62.1021 1070.09 526.687
1226 0 123.48 13.5326 1671 63.7331 1069.71 524.898
1227 0 128.636 14.8481 1910 61.7178 1070.08 522.574
1228 0 130.467 13.6663 1783 63.3472 1069.41 519.172
1229 1 65.3277 11.1132 726 63.7769 1069.66 552.799
1230 0 70.6684 14.0657 994 60.4185 1069.49 551.906
1231 0 71.4692 14.3418 1025 60.2693 1069.4 550.686
1232 0 71.3269 14.1602 1010 60.9881 1069.58 549.899
1233 0 75.5107 13.4948 1019 61.7537 1069.04 548.448
1234 0 77.4233 13.0064 1007 62.1311 1069.27 545.849
1235 0 81.3546 13.521 1100 61.7791 1069.42 544.556
1236 0 83.4468 14.4284 1204 60.3538 1069.33 543.36
1237 0 84.3243 13.3058 1122 62.1373 1069.18 543.138
1238 0 90.2852 13.7232 1239 60.7829 1068.99 541.511
1239 0 92.5495 13.1173 1214 61.9086 1069.47 541.389
1240 0 96.394 15.6338 1507 58.8739 1069.24 537.855
1241 0 99.3013 14.4308 1433 60.2226 1069.64 539.165
1242 0 100.427 13.6218 1368 61.6447 1068.78 534.906
1243 1 53.5135 12.0157 643 62.0778 1069.68 559.177
1244 0 55.4352 12.8077 710 61.6972 1069.66 558.539
1245 0 58.6199 13.0843 767 60.648 1070.2 560.409
1246 0 57.5356 13.6263 784 61.014 1069.95 558.217
1247 0 61.2265 13.7685 843 61.3072 1070.3 556.438
1248 0 62.5435 14.5979 913 61.8806 1070.08 556.354
1249 0 64.4176 13.3193 858 63.8543 1070.28 556.402
1250 0 67.3892 14.5721 982 62.5631 1070.33 553.907
1251 0 68.4862 14.6307 1002 62.6317 1070.14 553.887
1252 0 70.4777 13.9902 986 64.3895 1069.85 553.567
1253 0 74.3542 14.2964 1063 64.285 1070.16 552.048
1254 0 75.2945 14.2374 1072 65.2743 1070.43 550.78
1255 0 78.4654 14.2101 1115 65.0314 1070.3 549.082
1256 0 80.3553 13.8385 1112 66.0252 1070.02 548.713
1257 0 82.3196 13.7027 1128 66.7465 1070.52 545.542
1258 0 85.4875 13.5926 1162 66.6842 1070.59 545.031
1259 1 46.4532 12.3996 576 68.9792 1070.85 564.057
1260 0 48.2458 12.6643 611 67.9198 1070.26 564.547
1261 0 48.3447 12.8659 622 69.7621 1070.64 561.72
1262 0 49.3903 13.7679 680 68.5485 1070.21 562.706
1263 0 52.4341 15.1237 793 66.9016 1070.87 560.71
1264 0 54.3218 16.4943 896 64.7522 1070.71 558.727
1265 0 53.2817 13.4005 714 70.8571 1070.95 559.186
1266 0 60.4026 16.6715 1007 63.4876 1070.99 556.512
1267 0 71.3364 15.9666 1139 60.6997 1071 552.846
1268 0 67.3278 16.8727 1136 61.9806 1071.61 555.016
1269 0 67.4331 15.8972 1072 64.7808 1071.38 552.867
1270 0 67.5118 16.6786 1126 64.5622 1071.47 551.367
1271 0 68.474 17.335 1187 64.5821 1071.79 550.839
1272 0 69.3433 17.1322 1188 66.362 1072.1 552.799
1273 0 69.319 16.2582 1127 68.9086 1072.55 552.101
1274 0 70.2863 14.4125 1013 72.4373 1072.51 551.436
1275 0 72.2772 15.1223 1093 71.323 1071.49 551.403
1276 0 76.2364 14.6911 1120 72.0679 1072.77 549.671
1277 0 80.2449 15.2284 1222 70.9525 1073.23 547.259
1278 0 81.2845 14.48 1177 72.6831 1073.41 545.952
1279 1 40.1594 12.9982 522 76.3391 1073.93 566.165
1280 0 42.069 13.8819 584 76.5205 1074.15 564.683
1281 0 43.2198 13.8594 599 77.1469 1074.3 563.546
1282 0 46.1788 15.0069 693 74.1732 1073.42 563.3
1283 0 48.22 14.7242 710 75.3155 1073.74 561.508
1284 0 49.0842 15.5243 762 74.4318 1074.75 560.303
1285 0 51.2167 15.4832 793 74.6066 1074.39 561.324
1286 0 53.2527 15.7363 838 73.5406 1073.72 560.353
1287 0 53.1444 16.1635 859 73.7718 1074.45 560.715
1288 0 56.1791 14.8454 834 74.9484 1074.52 558.724
1289 0 57.1606 14.9054 852 75.7617 1074.6 558.492
1290 0 59.3689 14.7552 876 76.0571 1074.73 557.344
1291 0 61.1626 15.5651 952 74.3141 1074.6 555.125
1292 0 63.3492 15.3593 973 74.8499 1074.85 554.206
1293 0 66.1131 15.9575 1055 73.5488 1074.91 553.952
1294 0 67.2728 15.4892 1042 74.3311 1075 552.253
1295 0 71.301 15.5257 1107 73.2231 1075.23 551.88
1296 0 71.1292 15.029 1069 75.5304 1074.95 550.73
1297 0 76.2385 16.7107 1274 71.9835 1075.02 549.626
1298 0 76.1724 14.7691 1125 75.1769 1075.24 550.361
1299 0 80.2852 15.557 1249 73.4436 1074.78 548.469
1300 1 39.1806 13.9865 548 77.8467 1075.2 563.976
1301 0 42.2942 14.1863 600 76.6317 1074.73 564.13
1302 0 42.3343 14.4091 610 77.9852 1074.96 563.63
1303 0 45.0761 15.618 704 75.3977 1074.5 562.455
1304 0 47.1177 15.3658 724 75.4378 1074.41 562.398
1305 0 49.2179 15.665 771 73.8457 1074.7 562.32
1306 0 50.1191 16.5606 830 73.4651 1074.46 560.304
1307 0 50.2126 15.8327 795 75.1673 1074.49 561.987
1308 0 52.3357 15.8018 827 75.2007 1074.01 559.507
1309 0 53.2215 16.8353 896 74.0413 1074.3 559.279
1310 0 57.4566 15.6988 902 74.6508 1074.24 559.153
1311 0 57.4131 16.181 929 74.6964 1074.09 557.737
1312 0 59.4407 16.201 963 75.2368 1074.33 557.53
1313 0 59.2982 15.4305 915 77.329 1073.69 555.742
1314 0 63.1592 16.6246 1050 74.7943 1073.38 555.491
1315 0 63.2593 16.0135 1013 76.6022 1072.81 555.074
1316 0 66.3874 16.1326 1071 76.4295 1072.03 557.091
1317 0 69.3268 16.7179 1159 75.2217 1072.28 555.083
1318 0 70.474 16.1904 1141 76.9649 1072.44 553.335
1319 0 75.6425 16.2078 1226 75.8148 1072.43 552.361
1320 0 77.4298 16.3245 1264 75.5459 1071.77 550.5
1321 0 77.3358 16.5124 1277 77.3399 1071.63 549.813
1322 0 79.6158 16.3159 1299 77.438 1071.69 546.815
1323 1 40.6987 14.9636 609 79.6765 1071.92 566.322
1324 0 43.5216 15.1649 660 78.1818 1071.91 564.935
1325 0 43.6609 14.7729 645 79.4062 1071.64 565.473
1326 0 43.4239 15.0839 655 80.6748 1071.25 564.25
1327 0 45.4597 14.3644 653 81.0459 1071.04 563.219
1328 0 45.4597 14.3644 653 186.449 1071.06 563.204
1329 0 51.3429 15.8347 813 76.8339 1070.62 562.636
1330 0 52.3683 15.9448 835 76.7497 1070.74 562.291
1331 0 55.3137 16.8313 931 73.7282 1070.65 563.112
1332 0 55.2086 15.8309 874 76.8616 1070.89 559.561
1333 0 57.4471 15.6492 899 76.7086 1070.57 559.514
1334 0 58.1982 16.4782 959 77.8811 1070.64 558.454
1335 0 59.5918 15.6733 934 79.6049 1070.23 558.745
1336 0 61.1436 15.6844 959 79.0469 1070.55 557.269
1337 0 63.2294 15.7838 998 79.1583 1070.22 556.175
1338 0 65.3076 14.6997 960 80.2281 1070.28 554.454
1339 0 67.1912 15.6866 1054 77.574 1070.52 555.401
1340 1 37.118 12.1235 450 77.1644 1070.59 571.276
1341 0 38.0799 12.9727 494 77.0304 1070.61 569.642
1342 0 40.0906 13.694 549 75.5792 1071.18 567.796
1343 0 41.1069 13.2095 543 76.0074 1070.49 569.182
1344 0 43.0723 13.9301 600 75.7 1070.81 567.263
1345 0 43.0773 13.1624 567 77.6614 1070.58 566.116
1346 0 45.1811 13.2356 598 77.2475 1070.59 566.426
1347 0 46.2826 14.5195 672 76.378 1070.63 564.804
1348 0 46.1728 14.4674 668 77.729 1069.82 564.76
1349 0 49.0871 14.2604 700 77.7543 1070.19 564.234
1350 0 51.1545 14.6028 747 77.7149 1069.34 564.751
1351 0 53.136 14.0395 746 78.3458 1069.3 564.02
1352 0 55.2475 14.5527 804 78.6269 1069.08 561.639
1353 0 56.0691 14.7675 828 79.3708 1069.09 561.693
1354 0 58.1076 14.7829 859 79.5495 1068.84 561.105
1355 0 60.1545 13.9973 842 81.4204 1068.84 559.51
1356 0 60.1609 13.2644 798 84.0902 1069 558.442
1357 0 63.2199 14.4258 912 82.4189 1068.6 557.37
1358 0 65.069 14.4462 940 82.8968 1068.27 557.42
1359 0 64.13 12.537 804 86.6219 1068.28 557.126
1360 0 67.074 13.8355 928 85.2759 1068.19 555.676
1361 0 68.1093 13.7132 934 86.9272 1068.36 553.257
1362 0 72.1082 14.5892 1052 85.5076 1068.01 554.191
1363 0 74.0775 14.0664 1042 86.6948 1068.45 554.691
1364 0 77.253 13.9671 1079 87.0575 1068.54 553.336
1365 0 78.0398 13.5828 1060 88.2085 1068.51 551.371
1366 1 39.1008 13.299 520 85.0769 1068 570.369
1367 0 39.1779 11.3585 445 89.0809 1068.33 570.292
1368 0 42.2046 12.629 533 87.3602 1068.12 568.685
1369 0 44.1957 12.8293 567 87.2205 1068.23 568.651
1370 0 45.0609 12.1169 546 90.3645 1068.27 569.035
1371 0 45.0177 12.7728 575 89.8974 1067.79 566.953
1372 0 47.2445 12.6152 596 88.8205 1068.05 568.238
1373 0 47.1089 12.3756 583 90.681 1067.98 566.413
1374 0 49.1056 12.8499 631 88.588 1067.58 566.353
1375 0 52.1891 13.0487 681 88.4626 1067.8 566.307
1376 0 51.1054 12.8754 658 89.2827 1067.55 566.246
1377 0 54.105 12.8824 697 88.8752 1067.9 564.659
1378 0 57.0575 11.5673 660 89.9985 1067.96 564.044
1379 0 60.1038 13.1606 791 88.1732 1067.66 560.884
1380 0 60.0572 12.3382 741 90.0202 1067.55 561.404
1381 1 36.0363 10.8779 392 82.9133 1067.33 574.587
1382 0 35.0422 12.5278 439 77.1253 1067.14 573.339
1383 0 37.0555 10.9296 405 79.1852 1067.37 572.916
1384 0 38.0498 11.6426 443 83.465 1067.5 572.6
1385 0 40.1054 12.5419 503 79.006 1067.78 571.091
1386 0 41.139 12.8589 529 80.7713 1067.72 570.221
1387 0 42.0618 11.9824 504 83.0417 1068.43 569.589
1388 0 43.1598 12.6043 544 81.7188 1068.7 568.594
1389 0 46.2185 12.3111 569 81.7504 1068.62 567.065
1390 0 48.3863 12.2555 593 81.4755 1068.99 566.081
1391 0 50.2456 13.3146 669 79.1405 1068.71 563.96
1392 0 49.2025 12.9465 637 81.3564 1068.8 565.711
1393 0 53.2288 12.4932 665 80.9188 1069.02 565.027
1394 0 53.1918 12.5395 667 81.5832 1069.05 563.451
1395 0 55.0671 13.6379 751 79.6964 1069.37 561.116
1396 0 56.1322 13.1475 738 80.0854 1070.24 560.58
1397 0 60.249 13.1454 792 78.7336 1070.24 558.073
1398 0 61.2255 13.3604 818 79.0281 1070.41 557.505
1399 0 64.265 13.4599 865 78.0416 1070.87 555.85
1400 0 65.2693 13.4673 879 78.1183 1070.94 551.725
1401 0 67.3895 12.4945 842 79.1449 1071.38 552.135
1402 0 69.3399 12.5036 867 79.2238 1071.25 550.024
1403 0 70.4153 13.0795 921 77.6775 1071.59 549.613
1404 0 74.2919 12.922 960 77.3031 1072.03 549.755
1405 1 42.2485 11.1246 470 77.5021 1072.71 563.996
1406 0 43.2615 10.1476 439 78.3303 1072.62 563.401
1407 0 45.2902 11.4374 518 75.3282 1073.14 562.566
1408 0 45.0622 11.6062 523 76.478 1072.79 561.291
1409 0 47.0234 11.7176 551 76.9891 1072.49 562.085
1410 0 49.0442 12.5397 615 75.0748 1072.74 561.631
1411 0 52.1018 12.9362 674 73.9674 1073.35 559.458
1412 0 53.0579 12.7219 675 73.7644 1073.77 559.19
1413 0 54.134 13.3003 720 72.6611 1073.54 557.892
1414 0 56.1149 11.6903 656 74.0762 1074.03 556.681
1415 0 58.3216 13.1512 767 71.5528 1073.81 555.691
1416 0 59.2847 12.8195 760 71.5947 1074.57 554.989
1417 0 60.1901 12.6931 764 71.9332 1074.65 551.74
1418 0 63.1895 12.5021 790 72.0595 1075.03 552.611
1419 0 64.1807 13.2283 849 70.6007 1074.92 551.892
1420 0 67.2334 12.8508 864 70.0671 1074.59 548.684
1421 0 69.2389 12.6374 875 69.9931 1074.68 549.322
1422 0 71.1862 12.685 903 69.9945 1074.61 546.379
1423 0 73.4285 12.4747 916 70.2587 1074.89 544.356
1424 0 78.2845 13.3488 1045 67.7627 1075.01 545.122
1425 0 78.2417 13.6117 1065 67.4676 1075.04 543.103
1426 1 39.2072 10.0237 393 68.6768 1075.41 562.374
1427 0 39.2072 9.97265 391 155.279 1074.44 562.432
1428 0 45.092 10.5118 474 66.1983 1075.81 561.316
1429 0 44.1709 10.2556 453 67.2009 1075.75 561.55
1430 0 47.0673 10.5169 495 66.8323 1073.91 560.972
1431 0 48.0569 12.1939 586 66.6519 1074.48 558.904
1432 0 52.0703 12.6752 660 64.4152 1074.43 560.692
1433 0 54.0412 13.0086 703 63.7809 1073.92 559.501
1434 0 52.1288 11.9895 625 66.48 1073.74 559.955
1435 0 56.1419 11.7381 659 67.3536 1074.14 557.404
1436 0 57.0706 11.442 653 67.8668 1073.6 557.087
1437 0 62.1113 12.22 759 66.137 1073.75 556.584
1438 0 61.0408 12.1558 742 67.8922 1073.44 556.306
1439 0 63.1898 13.6098 860 65.4349 1072.78 554.555
1440 0 64.1116 13.2113 847 65.5336 1072.33 554.081
1441 0 66.1246 12.2194 808 66.4554 1072.29 551.709
1442 0 68.1277 12.6674 863 65.8517 1072.27 551.079
1443 0 69.1638 13.403 927 63.8004 1071.94 552.374
1444 0 71.157 12.5075 890 65.8427 1072.7 548.77
1445 0 74.2008 12.4662 925 65.4919 1072.46 548.445
1446 0 78.2181 14.5618 1139 61.4118 1072.34 546.905
1447 0 81.186 14.3498 1165 61.4884 1072.03 546.395
1448 0 82.1875 13.2624 1090 63.3055 1071.96 543.854
1449 0 85.1596 13.598 1158 62.5397 1071.74 544.109
1450 0 89.1483 12.6531 1128 63.7323 1071.15 542.58
1451 0 90.1016 13.0186 1173 63.624 1070.97 541.037
1452 0 92.2326 13.2491 1222 63.1195 1070.62 540.8
1453 0 95.1307 13.6969 1303 62.3615 1070.57 538.526
1454 0 98.1086 13.8724 1361 62.0948 1070.38 535.668
1455 0 99.1272 13.1851 1307 63.3963 1070.25 535.135
1456 0 102.418 13.3571 1368 63.5482 1070 531.625
1457 0 106.264 13.0242 1384 63.3302 1070.63 533.118
1458 0 108.189 12.6353 1367 64.7345 1070.08 530.775
1459 1 59.0337 10.8074 638 64.4624 1070.6 557.082
1460 0 60.1179 10.7788 648 65.0123 1070.17 555.34
1461 0 63.1834 12.8673 813 61.8376 1070.02 554.38
1462 0 63.0914 12.6008 795 62.6176 1069.91 552.196
1463 0 67.1312 12.7065 853 62.3482 1069.91 550.94
1464 0 69.1297 12.2813 849 62.5748 1069.53 550.418
1465 0 69.1219 12.6443 874 62.5458 1069.43 550.863
1466 0 71.0378 11.7402 834 64.5576 1068.67 549.993
1467 0 77.1409 13.7022 1057 61.1826 1068.58 548.781
1468 0 79.1063 13.5135 1069 61.666 1068.69 546.166
1469 0 83.0998 13.1288 1091 61.3868 1069.01 546.44
1470 0 86.2447 13.3921 1155 61.5437 1068.65 544.472
1471 0 87.1521 13.6887 1193 61.2456 1068.82 541.59
1472 0 91.2892 12.8602 1174 61.5801 1068.86 540.948
1473 0 94.2025 12.8447 1210 61.9851 1068.51 541.009
1474 0 98.3115 13.3352 1311 60.9512 1068.33 537.407
1475 1 51.1208 10.8762 556 62.3345 1068.4 561.297
1476 0 54.0595 11.3024 611 61.5466 1067.97 561.409
1477 0 56.1314 10.6179 596 60.6594 1067.28 559.888
1478 0 58.0529 11.6618 677 59.9217 1067.34 558.225
1479 0 58.0588 11.4367 664 62.3569 1067.76 558.648
1480 0 59.0666 11.6309 687 62.2576 1066.96 557.012
1481 0 62.0743 12.5495 779 60.5019 1067.21 557.388
1482 0 64.0642 12.2065 782 61.2698 1067.04 556.132
1483 0 65.1285 11.5618 753 62.5232 1067.48 555.011
1484 0 69.1193 11.5453 798 62.6779 1066.99 553.005
1485 0 70.0843 11.743 823 62.8858 1067.07 553.492
1486 0 72.1132 12.6052 909 62.198 1067.38 550.535
1487 0 75.0374 12.7137 954 62.0566 1067.43 549.199
1488 0 79.0767 13.3921 1059 61.424 1067.05 548.299
1489 0 80.0836 12.7617 1022 62.9902 1066.78 549.251
1490 0 82.0844 11.6953 960 64.1469 1067.02 548.1
1491 0 86.0469 12.8302 1104 62.4221 1067.13 545.467
1492 0 89.0777 14.8859 1326 59.4095 1067.12 543.142
1493 0 90.1208 12.3057 1109 63.2444 1067.36 539.792
1494 1 47.02 10.1446 477 63.1551 1067.39 563.807
1495 0 49.0381 10.4001 510 63.2431 1067.13 562.727
1496 0 50.0543 11.2678 564 62.594 1067.79 563.319
1497 0 51.2451 11.1425 571 62.7285 1069.61 560.97
1498 0 53.2205 11.8188 629 62.8585 1069.58 560.003
1499 0 54.0464 12.6928 686 63.809 1068.09 559.907
1500 0 62.1237 14.8736 924 56.8182 1068.28 556.982
1501 0 58.0674 15.1031 877 59.4721 1068.4 557.222
1502 0 60.1983 12.5253 754 63.809 1068.33 555.224
1503 0 59.0598 12.1233 716 64.2123 1068.91 556.131
1504 0 61.1276 13.1692 805 62.5901 1068.89 555.949
1505 0 64.1936 12.6648 813 62.7442 1068.83 555.395
1506 0 64.1253 13.3957 859 62.2806 1069.56 556.318
1507 0 68.0596 13.0327 887 63.0981 1068.4 537.232
1508 0 68.085 12.5138 852 63.7934 1068.69 537.696
1509 0 71.1825 13.3881 953 62.3861 1069.5 538.717
1510 0 74.0728 12.8252 950 62.2389 1069.91 539.891
1511 0 76.1658 12.6566 964 63.0757 1070.33 536.278
1512 1 40.0768 10.8542 435 63.4207 1069.85 545.345
1513 0 43.1082 10.7172 462 64.5649 1070.28 545.667
1514 0 45.046 11.5216 519 62.8439 1070.72 547.622
1515 0 46.1053 11.2351 518 63.4015 1071.6 552.089
1516 0 47.0586 11.0926 522 64.7088 1071.49 554.709
1517 0 49.278 12.4396 613 62.7227 1071.25 557.904
1518 0 50.3038 12.6233 635 61.6047 1071.44 559.427
1519 0 53.0491 13.9493 740 59.9149 1072.29 559.085
1520 0 55.1209 13.0803 721 60.6311 1073.11 557.252
1521 0 54.2379 13.6252 739 61.1461 1073.34 555.859
1522 0 57.0773 13.5956 776 61.732 1072.43 556.322
1523 0 59.0759 13.5419 800 61.5825 1072.96 555.118
1524 0 60.1637 14.045 845 60.3219 1074.05 551.96
1525 0 62.2766 15.5596 969 57.5304 1074.23 551.317
1526 0 64.1689 14.0878 904 60.0022 1074.06 550.55
1527 0 66.1817 15.7445 1042 57.4664 1074.43 550.947
1528 0 65.167 13.5345 882 62.2517 1074.57 550.934
1529 0 67.2143 13.6876 920 62.0761 1074.59 550.366
1530 0 69.2195 13.5367 937 62.5528 1074.44 549.875
1531 0 72.1976 14.2802 1031 62.3443 1074.59 547.865
1532 0 73.3279 14.1556 1038 62.8805 1074.47 547.243
1533 0 79.199 14.9623 1185 60.535 1074.39 541.574
1534 0 84.2724 15.5211 1308 59.1896 1074.48 541.567
1535 0 86.1623 16.1788 1394 58.8156 1074.48 539.043
1536 0 85.1182 13.9571 1188 63.4444 1074.24 540.844
1537 0 89.2671 14.451 1290 62.5302 1073.98 539.109
1538 0 91.3464 13.3995 1224 64.4485 1074.01 539.273
1539 0 93.2371 13.7284 1280 64.3773 1074 537.075
1540 1 47.1279 11.7765 555 65.636 1074.23 560.766
1541 0 51.1975 12.6373 647 63.2442 1073.62 560.144
1542 0 52.1869 12.6085 658 64.9802 1073.91 557.214
1543 0 50.1075 12.8324 643 65.4417 1073.19 556.824
1544 0 54.0395 13.3236 720 62.1486 1072.93 555.665
1545 0 57.1824 12.4864 714 62.5056 1072.76 557.462
1546 0 60.1157 14.8879 895 58.7821 1073 552.925
1547 0 64.0461 16.2383 1040 56.1154 1072.88 551.938
1548 0 63.069 16.363 1032 56.9031 1073.17 551.622
1549 0 65.0833 14.0435 914 60.4103 1073.11 551.386
1550 0 66.0527 13.5649 896 61.0525 1072.95 552.209
1551 0 67.0631 14.2105 953 60.8982 1072.8 551.028
1552 0 70.1121 14.1916 995 60.3648 1072.43 548.514
1553 0 71.0441 13.752 977 61.2201 1072.32 547.934
1554 0 73.0611 13.4134 980 62.1224 1072.04 545.895
1555 0 76.1001 13.0749 995 62.4784 1072.08 545.513
1556 0 79.0658 13.3307 1054 61.7324 1072.28 544.111
1557 0 82.094 13.9231 1143 60.7979 1071.89 542.814
1558 1 39.0499 10.397 406 62.8744 1071.57 563.958
1559 0 44.0407 10.3541 456 63.5154 1071.4 562.195
1560 0 45.0388 10.6353 479 63.0793 1071.69 562.472
1561 0 45.0483 11.3656 512 62.877 1072.37 559.865
1562 0 48.0859 12.9144 621 61.5427 1071.78 558.565
1563 0 50.1167 13.1693 660 60.4 1071.68 559.867
1564 0 52.0712 12.7902 666 61.4685 1071.86 557.883
1565 0 54.0329 12.77 690 61.4043 1071.34 558.059
1566 0 54.0206 12.4212 671 62.1535 1070.17 557.49
1567 0 57.0327 14.1323 806 59.5 1070.23 554.783
1568 0 58.0822 12.5684 730 61.4466 1070.2 555.508
1569 0 61.0663 12.9204 789 60.2788 1070.68 555.205
1570 0 62.0373 12.4925 775 61.3303 1069.96 554.854
1571 0 62.0691 13.4689 836 59.9916 1070.03 553.865
1572 0 65.0789 13.8294 900 60.1256 1070.57 553.434
1573 0 68.0568 13.6944 932 60.1878 1070.39 552.396
1574 0 70.0999 13.2668 930 60.6699 1070.79 550.913
1575 0 71.0855 13.4204 954 60.4706 1070.98 551.378
1576 0 73.1163 12.7878 935 61.8663 1070.92 547.879
1577 0 78.0977 13.1118 1024 60.6973 1071.14 548.806
1578 0 80.134 13.8268 1108 59.7572 1070.63 545.162
1579 0 84.1867 13.2919 1119 60.1868 1070.27 545.322
1580 1 43.1157 11.2488 485 59.7918 1070.34 564.73
1581 0 44.0985 11.2475 496 60.5524 1069.96 563.933
1582 0 47.0494 10.9885 517 60.087 1069.16 564.675
1583 0 47.2289 12.3018 581 59.8675 1068.63 561.737
1584 0 48.2368 11.4021 550 60.3873 1068.43 561.56
1585 0 50.1088 11.2555 564 60.4025 1068.32 562.463
1586 0 53.0712 11.852 629 60.0064 1068.38 560.714
1587 0 55.0621 12.386 682 59.2493 1068.24 559.166
1588 0 54.0606 12.042 651 60.0553 1067.98 558.834
1589 0 58.0727 12.5877 731 58.7579 1068.22 558.101
1590 0 59.0615 12.6817 749 58.5834 1067.79 557.798
1591 0 62.147 13.0497 811 57.8286 1067.83 554.269
1592 0 64.2444 12.5925 809 58.7775 1068.28 553.623
1593 0 66.0596 12.8066 846 58.6525 1068.07 552.544
1594 0 66.0596 12.8672 850 153.931 1068.07 552.554
1595 0 70.0775 13.6706 958 57.3539 1068.08 550.639
1596 0 72.0695 13.6257 982 57.2393 1068.39 549.079
1597 0 74.0411 12.8847 954 58.6373 1068.45 548.613
1598 1 39.0124 10.5608 412 59.8617 1068.29 564.672
1599 0 40.0132 10.6215 425 59.1153 1068.62 565.915
1600 0 43.112 11.1338 480 58.0667 1068.45 565.952
1601 0 43.0244 10.9705 472 59.428 1068.63 564.589
1602 0 42.1768 10.9302 461 60.0976 1070.23 561.902
1603 0 45.0699 12.4251 560 57.6821 1069 564.246
1604 0 47.015 11.3368 533 59.2983 1069.24 562.662
1605 0 47.0777 11.5979 546 59.3278 1069.57 561.683
1606 0 49.0177 12.8321 629 57.4722 1069.64 561.518
1607 0 49.0635 11.9845 588 59.0782 1069.91 560.833
1608 0 52.2047 13.2938 694 57.1138 1070.91 559.134
1609 0 55.1823 13.5188 746 56.504 1071.2 558.538
1610 0 57.1616 13.2432 757 56.3989 1071.08 557.489
1611 0 56.1121 13.4196 753 56.5445 1071.42 556.286
1612 0 59.0832 12.8463 759 57.5771 1071.39 557.433
1613 0 60.1073 12.9934 781 57.7247 1071.62 553.922
1614 0 59.0291 13.163 777 58.0656 1071.47 554.279
1615 0 64.0734 13.1412 842 58.1128 1071.41 553.217
1616 0 65.1432 13.5087 880 58.3205 1071.91 552.862
1617 0 68.091 13.3498 909 58.8636 1072.39 551.21
1618 0 68.0646 13.6488 929 59.4209 1072.95 548.632
1619 0 72.0491 13.6018 980 59.248 1072.69 548.241
1620 0 75.0523 14.9362 1121 56.8698 1073.15 548.856
1621 0 77.123 13.7183 1058 59.2089 1072.97 545.484
1622 0 79.1968 14.344 1136 58.5933 1073.19 545.027
1623 1 41.0453 10.525 432 61.3843 1073.23 563.854
1624 0 43.1121 11.3889 491 60.0143 1073.44 563.065
1625 0 45.0509 11.4315 515 59.8893 1073.66 562.841
1626 0 46.028 12.0144 553 59.7631 1073.26 560.593
1627 0 47.0661 12.1106 570 59.2281 1073.08 560.291
1628 0 48.1026 12.7644 614 59.6564 1073.49 558.883
1629 0 50.0353 13.1307 657 59.2085 1074.2 557.301
1630 0 52.1 12.2457 638 60.1301 1073.95 555.953
1631 0 54.0903 12.5161 677 58.9247 1073.87 556.836
1632 0 55.1432 11.86 654 59.9924 1074.08 556.125
1633 0 56.2201 12.2732 690 60.571 1073.35 553.329
1634 0 60.0998 12.5292 753 58.8964 1073.88 556.029
1635 0 61.085 12.6709 774 59.5659 1074.04 552.275
1636 0 63.0631 13.098 826 58.3087 1074.05 552.477
1637 0 63.1523 13.3645 844 59.0877 1074.06 550.382
1638 0 67.0251 13.771 923 58.0163 1074.39 551.323
1639 0 69.0455 13.1797 910 59.1121 1074.46 548.188
1640 0 71.1581 13.6035 968 58.5661 1074.66 546.316
1641 0 74.2036 13.0048 965 58.9192 1075.56 546.155
1642 0 78.2663 13.5307 1059 58.1785 1075.37 544.007
1643 0 79.1135 12.7412 1008 59.2698 1074.88 543.915
1644 1 44.0485 10.3068 454 60.1498 1074.36 560.236
1645 0 45.0479 11.1659 503 57.5765 1074.21 561.584
1646 0 48.0757 11.3363 545 58.5908 1074.16 559.723
1647 0 47.0576 11.8578 558 59.2007 1074.22 558.093
1648 0 51.0235 11.7005 597 59.0352 1074.39 557.697
1649 0 51.0625 12.9645 662 58.2719 1075.82 557.503
1650 0 55.0417 13.3353 734 56.9441 1076.22 555.097
1651 0 55.0712 13.1466 724 57.8412 1075.07 557.229
1652 0 57.0455 13.2526 756 58.5225 1075.26 554.329
1653 0 60.07 12.7684 767 58.6141 1075.07 554.383
1654 0 60.1239 13.2726 798 58.2043 1075.17 550.211
1655 0 66.0899 14.8283 980 54.8673 1074.99 550.378
1656 0 68.1055 16.1514 1100 52.7345 1074.41 548.193
1657 0 65.0828 13.6749 890 57.464 1074.52 548.127
1658 0 69.1049 14.1669 979 56.1359 1074.2 548.022
1659 0 69.1529 12.711 879 58.7179 1072.92 548.758
1660 0 70.0786 13.0996 918 58.3954 1072.94 547.125
1661 0 76.2168 13.396 1021 57.1489 1073.06 545.909
1662 0 76.1206 13.321 1014 57.7544 1072.43 545.213
1663 0 81.1799 12.614 1024 57.9199 1073.16 543.278
1664 1 44.1901 11.2921 499 57.5611 1073.01 561.228
1665 0 43.0631 10.264 442 60.0566 1073.1 560.805
1666 0 44.1329 11.3294 500 58.848 1073.08 559.954
1667 0 47.1009 11.4011 537 57.3315 1073.11 559.423
1668 0 50.056 11.2474 563 57.0195 1072.18 560.815
1669 0 52.1306 12.507 652 54.862 1072.72 559.1
1670 0 51.2206 12.1631 623 56.2055 1071.77 557.384
1671 0 53.1262 12.4421 661 55.7579 1072.71 558.121
1672 0 56.0446 13.1681 738 54.7778 1073.18 555.076
1673 0 58.0684 13.4841 783 54.1533 1072.73 554.94
1674 0 60.0962 13.0957 787 54.4435 1073.2 554.83
1675 0 61.0663 12.7239 777 55.4028 1072.13 552.579
1676 0 68.1054 15.1824 1034 51.2466 1072.02 551.731
1677 0 66.1241 14.2611 943 54.1241 1072.12 550.903
1678 0 66.0833 13.6494 902 56.0809 1072.14 552.6
1679 0 69.1106 13.6593 944 56.072 1071.92 550.921
1680 0 72.1064 13.8545 999 55.8769 1071.82 548.081
1681 0 72.1569 14.8427 1071 55.2446 1071.64 547.119
1682 0 76.2217 14.2742 1088 55.5156 1071.89 546.068
1683 0 75.2411 13.1178 987 56.1023 1070.94 543.277
1684 0 78.1928 13.9143 1088 54.8373 1071.72 540.125
1685 0 80.4669 12.4896 1005 57.6896 1070.67 542.408
1686 0 84.362 14.1652 1195 56.2987 1070.59 539.107
1687 0 87.2978 14.1355 1234 56.3436 1070.55 537.962
1688 0 90.3159 14.0396 1268 56.6885 1070.8 537.218
1689 0 93.3919 13.0418 1218 57.8432 1070.82 531.154
1690 1 48.1433 10.8842 524 57.3626 1069.42 558.447
1691 0 48.1623 10.6515 513 58.6784 1069.3 560.359
1692 0 50.3809 11.3734 573 58.2967 1069.53 558.871
1693 0 52.1798 12.5144 653 56.6876 1069.68 559.259
1694 0 53.1744 12.4684 663 57.3454 1069.03 558.64
1695 0 55.1471 11.4421 631 58.6926 1068.09 557.415
1696 0 59.0758 13.3049 786 55.8193 1069.45 557.539
1697 0 61.079 12.7376 778 56.383 1069.73 555.361
1698 0 61.1539 11.9044 728 57.669 1069.8 554.97
1699 0 64.1939 13.319 855 55.9076 1069.9 553.865
1700 0 63.1101 12.8822 813 57.4945 1069.35 553.48
1701 0 67.125 12.5885 845 57.1609 1068.64 554.131
1702 0 70.1671 12.7695 896 57.2824 1069 552.644
1703 0 71.0889 12.5758 894 58.217 1068.7 551.794
1704 0 73.0845 13.3818 978 57.7802 1067.88 550.955
1705 0 77.1395 12.6265 974 58.3152 1068.01 548.515
1706 0 81.2493 13.5017 1097 56.8177 1069.12 548.246
1707 0 82.1306 13.2472 1088 57.4044 1069.22 547.957
1708 0 83.1716 12.384 1030 59.2214 1069.15 542.368
1709 0 86.0998 12.1835 1049 58.6683 1069.03 543.632
1710 1 50.0427 10.0914 505 58.8436 1069.21 563.275
1711 0 49.0552 10.9876 539 57.0631 1069.22 564.662
1712 0 50.0303 10.2938 515 58.9748 1068.91 563.45
1713 0 52.0555 11.0843 577 57.4177 1068.99 562.362
1714 0 53.1041 11.3551 603 57.8109 1069.32 560.967
1715 0 55.3485 11.8522 656 57.6494 1068.39 557.724
1716 0 58.2791 12.5602 732 55.3934 1068.8 556.485
1717 0 60.2311 13.249 798 54.6015 1068.95 556.521
1718 0 61.2056 13.4138 821 54.5493 1069.15 555.267
1719 0 62.039 13.3142 826 55.8329 1069.68 555.714
1720 0 65.0921 13.166 857 55.706 1069.93 554.139
1721 0 65.0605 12.8188 834 56.1727 1069.84 554.046
1722 0 68.306 13.8348 945 54.5365 1069.57 550.016
1723 0 71.214 13.5367 964 54.8237 1069.48 551.44
1724 0 72.0404 13.2564 955 55.8796 1069.35 549.093
1725 0 72.0404 13.2703 956 157.79 1069.34 549.114
1726 0 77.0918 14.4114 1111 54.1332 1069.91 549.082
1727 0 81.0733 12.9636 1051 55.6251 1069.89 546.703
1728 0 81.1478 12.6806 1029 56.0117 1070.43 544.076
1729 0 86.1654 12.9983 1120 54.8116 1070.52 541.559
1730 0 89.1122 12.9051 1150 54.1948 1070.65 541.822
1731 1 46.0484 11.7485 541 52.7394 1070.52 563.654
1732 0 46.072 11.3518 523 53.2696 1071.07 563.237
1733 0 49.0444 11.2755 553 53.1772 1071.88 560.998
1734 0 50.1401 10.2313 513 54.117 1071.27 560.799
1735 0 51.0747 11.5713 591 54.2961 1071.76 559.03
1736 0 55.0533 12.0792 665 53.8376 1071.29 558.919
1737 0 56.0541 11.7922 661 55.0061 1071.39 556.354
1738 0 58.1158 12.5611 730 53.626 1071.56 557.396
1739 0 59.1068 12.8919 762 52.9777 1071.65 556.265
1740 0 62.1654 11.5337 717 54.0767 1072.07 554.406
1741 0 66.1473 13.5153 894 51.2383 1072.04 551.246
1742 0 67.1668 11.8362 795 53.5673 1072.45 550.469
1743 0 67.1576 13.2375 889 52.2385 1072.76 546.601
1744 0 71.1272 12.3019 875 52.5954 1073.31 549.159
1745 0 72.1992 11.9946 866 53.4342 1074.55 547.499
1746 0 74.0778 12.4329 921 52.2964 1075.06 546.814
1747 0 78.1547 12.8207 1002 51.6277 1074.61 545.214
1748 0 80.1543 13.5489 1086 51.3692 1075.59 543.949
1749 0 84.1077 12.6029 1060 52.534 1075.81 541.235
1750 0 84.1738 12.2366 1030 53.032 1075.88 539.77
1751 0 90.3084 12.4019 1120 52.8054 1075.88 539.878
1752 0 94.0816 12.7761 1202 52.4859 1075.98 538.317
1753 1 51.1778 10.8641 556 53.7248 1075.95 559.275
1754 0 54.1097 11.8833 643 52.2768 1075.32 558.215
1755 0 55.2662 11.3632 628 52.3997 1075.71 556.363
1756 0 57.2075 11.6768 668 52.1123 1074.84 555.969
1757 0 58.4117 11.4874 671 53.0149 1074.78 553.945
1758 0 60.3385 12.463 752 52.6223 1074.82 551.713
1759 0 62.3434 12.367 771 52.6719 1074.48 553.594
1760 0 62.2072 12.6673 788 53.5343 1074.34 550.699
1761 0 64.2697 12.183 783 54.1239 1074.67 549.489
1762 0 67.3011 12.8675 866 53.463 1074.92 549.032
1763 0 68.3665 13.0912 895 53.3464 1074.84 547.811
1764 0 69.3555 13.1785 914 53.6072 1074.91 545.892
1765 0 71.1955 12.4587 887 54.9842 1075.22 546.927
1766 0 76.4239 13.0326 996 54.0472 1075.14 545.982
1767 0 78.1747 13.8792 1085 53.5429 1074.78 544.875
1768 0 80.3078 13.772 1106 54.0163 1075.21 542.425
1769 0 82.3912 14.2005 1170 52.747 1075.33 544.664
1770 0 84.3576 13.5376 1142 54.3678 1075.17 542.223
1771 0 87.2272 13.3674 1166 55.072 1075.29 538.835
1772 0 90.3564 13.0041 1175 56.3813 1074.53 539.28
1773 1 49.1977 11.5656 569 57.2812 1074.02 560.341
1774 0 50.2725 11.2984 568 58.3134 1073.97 559.505
1775 0 50.1852 12.2745 616 56.961 1073.71 558.177
1776 0 53.3663 12.7046 678 55.3363 1073.88 557.935
1777 0 55.3012 12.3867 685 55.2204 1074.01 558.782
1778 0 58.1586 12.7926 744 54.6841 1074.47 556.478
1779 0 62.1617 14.3818 894 51.8311 1074.2 554.117
1780 0 59.2359 12.9989 770 55.4909 1073.71 553.484
1781 0 62.4636 12.2631 766 56.752 1073.73 553.839
1782 0 67.2732 14.6269 984 52.814 1074.25 549.939
1783 0 68.3759 15.1223 1034 52.8201 1073.81 550.084
1784 0 69.2223 11.817 818 57.0379 1072.93 550.483
1785 0 70.5295 13.6255 961 55.1748 1073.04 549.948
1786 0 72.4053 12.7477 923 56.3207 1073.29 549.408
1787 0 74.2683 13.5051 1003 55.6411 1073.56 547.676
1788 0 78.3634 14.3179 1122 54.7558 1073.45 546.356
1789 0 79.3711 13.0652 1037 57.027 1073.08 544.465
1790 0 83.4598 13.7072 1144 56.0044 1072.81 545.046
1791 0 85.5096 13.7996 1180 56.1636 1072.87 543.149
1792 0 87.6979 13.6035 1193 56.3646 1073.04 541.405
1793 0 90.7637 13.6398 1238 56.9095 1072.66 538.932
1794 1 48.5391 10.919 530 57.1849 1072.95 561.242
1795 0 50.4945 12.536 633 56.2496 1072.46 557.992
1796 0 50.8408 11.0148 560 57.8821 1072.42 560
1797 0 53.5854 13.0633 700 57.8157 1072.04 555.566
1798 0 52.7117 12.0277 634 58.7571 1071.92 557.44
1799 0 56.4462 12.2063 689 59.2438 1071.78 554.936
1800 0 59.4865 12.5911 749 57.4166 1071.96 555.76
1801 0 60.3544 13.0562 788 58.2119 1071.89 554.697
1802 0 61.517 12.972 798 57.8383 1072.03 553.019
1803 0 63.4146 12.5838 798 58.4211 1072.07 552.792
1804 0 65.7295 14.012 921 56.5103 1071.96 551.847
1805 0 69.5508 14.4355 1004 55.26 1071.91 551.186
1806 0 69.7135 13.5125 942 56.9851 1071.36 549.304
1807 0 71.632 13.8625 993 56.3827 1071.81 549.211
1808 0 73.8865 13.9674 1032 56.3702 1071.43 548.433
1809 0 75.5468 14.1767 1071 56.0084 1071.18 548.661
1810 0 76.5575 12.9184 989 57.7867 1071.21 548.26
1811 0 76.5575 12.9184 989 171.403 1070.19 548.323
1812 0 83.5301 13.3964 1119 57.2118 1070.79 544.958
1813 0 86.6704 13.0264 1129 57.4659 1071.24 544.226
1814 0 88.368 14.5641 1287 56.1243 1071.18 542.553
1815 0 91.4041 13.5661 1240 56.9992 1071.3 542.606
1816 0 95.6766 13.5979 1301 57.2244 1071.1 538.436
1817 1 49.2399 11.2714 555 58.7495 1070.79 560.64
1818 0 52.426 11.9406 626 57.5607 1070.83 559.161
1819 0 52.5512 12.5402 659 58.5144 1070.55 556.888
1820 0 54.2934 12.4877 678 58.8584 1071.06 556.786
1821 0 54.1943 12.16 659 59.6009 1071.32 556.419
1822 0 58.1752 12.9608 754 57.7135 1071.03 556.87
1823 0 59.2515 12.8435 761 58.3127 1071.97 555.912
1824 0 60.1821 13.8247 832 57.726 1071.72 555.222
1825 0 62.2806 13.8085 860 57.4512 1072.04 552.966
1826 0 64.3339 14.4247 928 56.6853 1071.84 552.485
1827 0 64.2392 13.3252 856 58.5561 1072.43 551.592
1828 0 68.4234 13.9572 955 57.0565 1072.73 550.183
1829 0 68.2529 14.0067 956 57.3964 1072.56 548.6
1830 0 73.3229 13.3792 981 57.3731 1072.4 548.57
1831 0 74.2578 13.8302 1027 57.3194 1072.67 546.699
1832 0 77.4804 13.526 1048 57.6679 1073.11 546.467
1833 0 79.3127 14.0331 1113 57.1491 1072.95 544.137
1834 0 82.2606 14.6729 1207 56.7589 1073.29 542.245
1835 0 84.2317 13.1067 1104 58.9357 1073.02 542.406
1836 0 88.1749 14.6527 1292 56.3351 1072.95 541.927
1837 0 91.2357 14.2378 1299 56.6035 1073.52 540.66
1838 0 92.1839 14.9267 1376 56.3147 1073.98 538.527
1839 0 92.1839 14.8616 1370 166.947 1073.99 538.445
1840 1 48.1237 11.138 536 57.791 1075.12 560.2
1841 0 50.1451 12.0849 606 57.6766 1074.86 558.865
1842 0 50.2387 11.2662 566 58.8445 1074.96 556.769
1843 0 53.0719 13.0201 691 56.7062 1074.57 555.602
1844 0 55.064 12.9667 714 56.4524 1074.83 555.658
1845 0 55.1345 12.8776 710 56.662 1075.05 554.297
1846 0 59.1272 13.1243 776 55.7474 1075.6 553.83
1847 0 61.1939 13.8249 846 55.4161 1075.77 550.942
1848 0 64.3033 13.2964 855 55.2129 1075.56 551.771
1849 0 65.1751 12.9344 843 55.7497 1075.94 550.868
1850 0 65.1159 13.7908 898 55.5557 1076.27 549.665
1851 0 69.1773 13.9208 963 55.0374 1076.18 547.588
1852 0 72.3197 13.6754 989 55.4034 1076.2 546.372
1853 0 74.2269 12.9737 963 54.8307 1075.56 545.233
1854 0 75.2694 12.8738 969 55.0299 1075.82 543.233
1855 0 79.2425 14.2348 1128 53.5691 1076.07 541.094
1856 1 40.1157 11.3422 455 54.5802 1074.99 561.303
1857 0 42.2495 10.8404 458 54.1463 1075.23 560.12
1858 0 41.0919 10.7564 442 54.7692 1075 560.33
1859 0 42.0991 10.6178 447 53.9195 1075.15 557.758
1860 0 45.0613 12.4719 562 52.3416 1074.91 557.452
1861 0 46.0485 12.6823 584 51.9247 1074.53 560.015
1862 0 49.0427 13.2741 651 51.2519 1074.38 557.631
1863 0 49.0288 12.3397 605 52.3355 1074.3 558.131
1864 0 54.0796 12.9439 700 50.84 1074.06 556.446
1865 0 54.0447 13.2483 716 50.9344 1074.04 556.437
1866 0 56.0242 12.6374 708 51.6638 1073.74 555.237
1867 0 57.103 13.4319 767 50.4146 1073.88 555.252
1868 0 60.0643 13.7519 826 50.1416 1074.29 553.473
1869 0 60.072 13.2008 793 50.9433 1074.31 553.651
1870 0 64.069 13.5323 867 50.06 1073.68 553.501
1871 0 63.029 13.3113 839 50.0834 1073.06 552.266
1872 0 64.0831 13.264 850 50.4941 1073.71 550.115
1873 0 68.1011 13.7149 934 50.2966 1072.82 549.307
1874 0 70.0648 13.6445 956 50.1579 1072.52 548.651
1875 0 73.0815 13.0539 954 50.7317 1072.19 547.999
1876 0 74.1583 13.1206 973 50.7379 1072.61 547.265
1877 0 77.0628 12.9894 1001 50.6813 1072.61 545.555
1878 0 80.0588 13.3902 1072 50.458 1072.41 543.76
1879 0 82.1876 13.1042 1077 50.8059 1073.19 542.634
1880 1 44.0159 10.837 477 51.6834 1072.41 563.371
1881 0 45.0693 11.3603 512 52.0059 1071.61 561.621
1882 0 48.0232 12.1191 582 51.256 1071.43 560.72
1883 0 50.0524 13.0263 652 49.7822 1071.37 560.488
1884 0 50.0245 12.234 612 50.4984 1072.03 560.791
1885 0 52.1272 12.2201 637 51.7096 1072.18 559.576
1886 0 53.0833 12.3579 656 52.2866 1072.44 557.21
1887 0 54.115 12.0299 651 52.4731 1072.29 557.648
1888 0 56.0696 12.7698 716 51.7235 1072.29 558.399
1889 0 59.0997 12.8258 758 51.8074 1071.89 556.009
1890 0 61.1753 12.3743 757 51.9868 1071.64 555.906
1891 0 63.064 12.5904 794 52.2796 1071.46 555.247
1892 0 64.1493 13.2036 847 51.7025 1071.96 555.543
1893 0 65.1286 12.5905 820 52.4012 1071.75 553.667
1894 0 67.1844 12.8452 863 52.0545 1071.76 552.787
1895 0 69.119 13.05 902 52.1075 1071.67 551.397
1896 0 74.4527 13.7671 1025 51.04 1071.64 549.918
1897 0 73.178 13.2417 969 51.8793 1071.25 549.08
1898 0 79.2626 13.6761 1084 51.2066 1071.22 546.353
1899 0 80.2626 13.3063 1068 51.7818 1070.34 546.644
1900 1 44.1978 12.2857 543 51.6409 1069.81 564.595
1901 0 43.1235 11.3627 490 52.8327 1069.38 563.965
1902 0 46.179 10.9574 506 52.8538 1069.44 564.338
1903 0 48.1308 12.1128 583 52.2556 1069.17 563.302
1904 0 47.1027 10.7849 508 53.4134 1070.74 561.104
1905 0 51.0125 12.9184 659 51.8786 1070.74 561.473
1906 0 53.1363 12.515 665 51.6962 1070.24 561.901
1907 0 52.1175 13.5271 705 51.5801 1070.34 560.661
1908 0 55.0959 13.1952 727 51.9849 1070.1 559.543
1909 0 56.2261 12.8944 725 52.7241 1069.79 559.179
1910 0 58.1142 12.5959 732 53.015 1069.89 558.814
1911 0 60.0566 13.3707 803 52.3674 1069.5 559.379
1912 0 60.0907 12.5976 757 54.181 1069.54 557.453
1913 0 65.2305 14.0118 914 51.9923 1069.7 556.619
1914 0 67.0904 14.5773 978 51.684 1069.44 554.15
1915 0 69.1016 14.1386 977 52.3439 1069.09 551.495
1916 0 71.0984 13.0805 930 54.0903 1068.97 550.131
1917 0 76.1068 13.3759 1018 53.4165 1068.56 551.26
1918 0 76.1689 14.9799 1141 53.1481 1068.81 548.734
1919 1 41.1179 10.6523 438 55.3196 1068.07 567.58
1920 0 40.0417 11.1883 448 56.0179 1069.79 564.562
1921 0 45.1086 12.348 557 55.2226 1068.86 565.097
1922 0 44.0827 11.5465 509 56.2004 1068.45 566.428
1923 0 45.0675 12.8918 581 56.9088 1069.42 564.859
1924 0 47.1124 12.2261 576 57.5278 1068.41 565.431
1925 0 49.1259 13.2924 653 56.5421 1068.39 564.017
1926 0 49.0762 12.4296 610 58.1984 1068.27 562.741
1927 0 52.0248 12.6094 656 57.4482 1068.26 563.159
1928 0 52.0398 12.9132 672 57.7321 1068.4 561.927
1929 0 54.074 13.1302 710 57.1887 1068.76 561.561
1930 0 54.0598 12.5972 681 58.8326 1068.64 559.711
1931 0 59.0425 13.1939 779 56.9718 1069 559.445
1932 0 59.0959 13.0466 771 58.2412 1068.82 556.827
1933 0 60.0749 13.7662 827 58.0097 1069.07 557.618
1934 0 63.0175 13.9168 877 57.6511 1068.85 557.269
1935 0 64.0651 13.3614 856 58.84 1068.92 555
1936 0 65.0984 13.3951 872 59.3142 1068.39 554.337
1937 0 69.0548 13.9599 964 58.2749 1068.53 555.059
1938 0 70.1018 13.0952 918 59.72 1068.95 552.981
1939 0 73.0426 14.5258 1061 57.9048 1068.91 551.636
1940 0 76.1394 14.2108 1082 58.414 1068.96 550.33
1941 0 80.129 14.3643 1151 58.3284 1069.02 550.125
1942 0 81.0642 13.7669 1116 59.3432 1069.12 547.96
1943 0 86.0793 14.4402 1243 58.115 1069.24 546.679
1944 1 49.029 10.6468 522 59.0613 1069.4 565.843
1945 0 47.0491 10.0958 475 60.68 1069.65 563.236
1946 0 52.161 11.0619 577 59.8804 1069.6 561.284
1947 0 54.0881 11.7771 637 59.2214 1069.46 560.261
1948 0 56.1146 12.9735 728 57.3462 1069.27 558.14
1949 0 58.1207 12.3364 717 56.3738 1068.66 560.018
1950 0 60.0505 13.8883 834 54.5815 1069.65 558.001
1951 0 62.041 12.8947 800 55.93 1069.77 556.121
1952 0 63.0918 12.7116 802 55.5998 1069.8 557.034
1953 0 64.1144 12.7116 815 56.3067 1069.69 555.507
1954 0 67.1166 13.2307 888 55.3131 1070.6 551.4
1955 0 71.1169 14.2723 1015 53.3724 1070.87 549.628
1956 0 72.1183 13.6304 983 54.1699 1071.29 549.043
1957 0 75.1067 13.9668 1049 53.4385 1071.49 546.867
1958 0 79.1229 12.9924 1028 54.3405 1071.31 547.359
1959 0 80.0777 11.851 949 55.1254 1071.42 545.226
1960 1 43.1419 11.2188 484 53.9504 1072.12 563.886
1961 0 44.0479 11.0561 487 54.1602 1072.54 562.692
1962 0 45.0443 12.0104 541 53.7967 1072.41 561.738
1963 0 49.013 11.2011 549 53.7486 1072.15 562.106
1964 0 49.0086 12.304 603 53.126 1071.98 562.167
1965 0 50.1112 13.1907 661 52.8427 1072.86 559.51
1966 0 51.1101 11.5241 589 54.3956 1072.14 559.947
1967 0 55.0842 12.1269 668 53.6602 1073.13 559.66
1968 0 54.0579 12.5051 676 53.2707 1073.33 558.284
1969 0 57.0981 13.2579 757 52.7635 1073.86 557.038
1970 0 58.0942 12.9101 750 53.4547 1073.78 555.269
1971 0 58.1521 12.5533 730 54.8671 1073.96 553.949
1972 0 63.0855 14.3298 904 52.3308 1074.23 553.054
1973 0 62.1059 13.0261 809 54.2942 1074.23 553.115
1974 0 66.1709 13.8127 914 52.8206 1074.68 554.212
1975 0 65.159 12.692 827 55.1935 1074.63 550.912
1976 0 69.3248 13.0256 903 54.7984 1074.27 548.455
1977 0 71.2108 13.0458 929 55.0872 1074.58 547.678
1978 0 72.2618 14.4613 1045 53.7416 1074.34 547.035
1979 0 75.3702 13.6526 1029 54.553 1074.54 544.958
1980 0 76.3847 12.6334 965 56.2187 1075.02 544.024
1981 0 81.4771 13.5989 1108 55.1164 1075.38 542.951
1982 0 83.2145 14.2043 1182 54.6777 1075.65 541.086
1983 1 44.1033 11.4731 506 55.9802 1074.94 562.283
1984 0 44.1676 11.2299 496 56.6331 1075.17 560.925
1985 0 45.1256 12.4763 563 55.6536 1075.31 560.638
1986 0 47.0633 12.3026 579 55.6408 1075.44 558.741
1987 0 48.1327 12.424 598 56.2023 1074.94 557.789
1988 0 50.2129 13.4029 673 55.214 1074.77 557.684
1989 0 53.1125 13.4055 712 54.7654 1075.24 556.424
1990 0 52.2583 13.4141 701 56.0114 1075.12 555.782
1991 0 55.1056 14.0095 772 55.329 1075.13 553.137
1992 0 57.1284 13.3384 762 56.2559 1074.9 553.327
1993 0 58.0563 13.0563 758 56.8166 1075.04 552.693
1994 0 60.2372 13.8287 833 56.1248 1074.7 550.755
1995 0 63.098 14.3745 907 54.9934 1074.9 550.105
1996 0 65.1547 14.2891 931 55.493 1075.26 550.107
1997 0 65.1294 13.4655 877 57.0433 1074.83 549.742
1998 0 70.3143 14.2361 1001 55.3806 1074.67 548.626
1999 0 71.1219 13.9479 992 56.0786 1074.78 547.931
2000 0 75.1532 14.7299 1107 54.9359 1075.22 545.825
2001 0 75.1103 13.5001 1014 56.712 1074.84 544.716
2002 0 79.1189 14.1938 1123 55.6358 1074.84 544.71
2003 0 83.332 14.2202 1185 54.8582 1074.61 543.335
2004 1 43.0399 11.3383 488 57.2602 1074.37 561.205
2005 0 42.0771 10.9798 462 58.9351 1074.21 560.762
2006 0 44.0607 11.6657 514 57.5331 1073.53 560.325
2007 0 48.0331 13.1992 634 54.9432 1073.63 560.148
2008 0 47.0412 12.2446 576 57.6181 1073.98 557.877
2009 0 50.0806 13.3185 667 56.009 1073.68 556.052
2010 0 49.0623 14.1453 694 56.1023 1073.48 556.722
2011 0 55.0919 13.5229 745 54.8886 1073.89 556.498
2012 0 54.0586 13.7443 743 55.3661 1073.38 553.334
2013 0 57.0557 13.4605 768 55.5208 1072.75 554.845
2014 0 58.0575 13.6072 790 55.5506 1072.81 553.525
2015 0 61.0864 13.5055 825 55.2594 1072.96 552.416
2016 0 64.1532 13.0937 840 55.1869 1072.76 551.681
2017 0 63.1508 12.9056 815 56.4025 1073.17 549.621
2018 0 68.1626 14.6561 999 53.3333 1073.09 548.614
2019 0 70.2489 14.0073 984 54.5467 1073.31 547.324
2020 0 70.2489 13.9504 980 164.879 1072.33 547.339
2021 0 74.1276 14.0299 1040 54.5115 1073.31 545.89
2022 0 75.2121 14.16 1065 55.1052 1073.11 545.459
2023 0 79.2821 13.2312 1049 56.4032 1072.68 543.031
2024 0 81.153 13.8627 1125 55.9804 1072.86 541.753
2025 0 84.2213 13.8564 1167 56.1628 1072.72 540.59
2026 0 86.1912 14.6187 1260 55.4246 1072.51 537.68
2027 0 89.1179 14.3405 1278 55.9288 1072.49 535.779
2028 0 92.336 13.3967 1237 56.8456 1072.24 536.437
2029 0 98.1882 15.1036 1483 54.7188 1072.13 536.371
2030 0 98.2246 14.6806 1442 55.5527 1072.01 536.737
2031 0 101.27 13.775 1395 57.0631 1072.18 534.12
2032 1 52.1361 11.6618 608 58.2089 1072.03 555.91
2033 0 57.1242 12.8317 733 55.5689 1070.86 557.05
2034 0 56.2101 11.6349 654 57.8517 1070.65 554.394
2035 0 60.1894 13.3911 806 55.9529 1070.19 553.134
2036 0 62.1326 12.1192 753 57.5471 1070.48 552.814
2037 0 65.245 13.7788 899 56.0868 1070.33 551.823
2038 0 67.1493 13.8497 930 55.9409 1069.61 549.042
2039 0 66.0541 13.3678 883 57.2344 1070.26 548.857
2040 0 69.0589 13.5681 937 57.2764 1070.27 550.256
2041 0 71.1077 12.3193 876 59.3916 1070.91 546.904
2042 0 76.1842 13.6117 1037 57.2237 1070.36 546.139
2043 0 77.1042 12.9824 1001 58.009 1070.63 543.92
2044 0 80.0893 12.8482 1029 58.9038 1070.59 541.686
2045 0 82.0867 13.5101 1109 58.4869 1070.2 541.4
2046 0 87.1528 13.7001 1194 57.8459 1070.73 538.215
2047 0 90.1618 13.4425 1212 58.1056 1070.03 540.591
2048 0 93.0605 14.0661 1309 57.4026 1069.56 537.194
2049 0 96.3355 13.8578 1335 57.8322 1069.48 534.76
2050 1 48.0899 10.0853 485 58.4124 1069.11 560.4
2051 0 53.1302 10.1449 539 57.872 1069.18 559.508
2052 0 54.2229 10.9732 595 58.1664 1069.63 556.523
2053 0 57.2384 12.3518 707 56.1895 1069.32 556.625
2054 0 58.2613 11.9633 697 58.7245 1069.31 555.943
2055 0 59.1687 12.6418 748 58.2447 1069.21 553.523
2056 0 62.1138 12.8152 796 57.9008 1068.67 553.868
2057 0 63.1431 12.2737 775 59.5471 1069.09 552.092
2058 0 66.2055 13.005 861 57.9988 1069.27 551.368
2059 0 69.1688 12.9827 898 58.1893 1069.53 550.927
2060 0 69.2379 12.2187 846 60.2187 1069.03 549.571
2061 0 71.2077 12.9761 924 59.8387 1068.53 548.039
2062 0 74.1576 12.4465 923 60.1983 1069.15 543.924
2063 0 77.1284 12.9135 996 60.0251 1069.31 543.902
2064 0 79.2051 13.2315 1048 59.5067 1068.73 544.047
2065 0 81.0999 12.3675 1003 61.322 1069.34 542.123
2066 0 85.1013 13.5133 1150 60.0087 1069.36 538.697
2067 0 88.2816 13.7628 1215 60.0782 1070.02 537.695
2068 0 91.3534 13.3328 1218 60.8473 1069.48 537.711
2069 0 94.5862 13.0674 1236 61.6286 1070.4 538.151
2070 0 97.5403 14.4966 1414 59.7037 1070.53 538.667
2071 0 99.4271 12.7229 1265 62.536 1070.06 538.127
2072 0 102.727 12.5575 1290 64.1752 1070.16 534.217
2073 0 106.456 13.94 1484 62.3881 1070.48 533.209
2074 0 109.546 13.8207 1514 62.8283 1070.23 530.719
2075 0 113.57 13.6832 1554 62.8449 1070.73 529.344
2076 1 60.3133 9.45065 570 64.0877 1070.9 556.907
2077 0 61.2296 9.57054 586 63.9829 1070.62 556.647
2078 0 65.1323 11.8221 770 61.7169 1071.3 554.631
2079 0 67.1301 11.8129 793 62.6255 1071 553.759
2080 0 70.2027 12.4354 873 62.0676 1071.25 548.741
2081 0 70.1837 12.4815 876 62.5799 1071.53 550.597
2082 0 75.1638 12.9051 970 61.4103 1071.62 549.5
2083 0 77.3035 12.4574 963 62.1828 1071.6 547.683
2084 0 77.3101 12.5469 970 63.2608 1072.09 545.395
2085 0 81.185 13.3276 1082 61.4945 1072.16 545.228
2086 0 82.478 12.6337 1042 62.7265 1072.48 542.297
2087 0 86.2482 12.1162 1045 63.2536 1072.51 540.627
2088 0 87.4771 12.7805 1118 62.7818 1072.91 539.125
2089 0 92.3619 13.2197 1221 61.9836 1073.17 538.527
2090 0 92.2622 13.1148 1210 62.9215 1073.23 534.515
2091 0 95.3746 13.2845 1267 63.262 1073.39 535.699
2092 0 97.2537 13.0998 1274 63.8312 1074 533.768
2093 0 101.298 13.0802 1325 63.7864 1073.82 529.905
2094 0 106.281 13.6713 1453 62.5107 1074.01 530.765
2095 0 107.323 13.0075 1396 64.0458 1074.04 526.492
2096 0 113.26 14.0826 1595 61.8188 1074.68 525.165
2097 0 118.348 14.1363 1673 61.3335 1074.54 524.894
2098 1 60.0679 10.8377 651 62.5868 1074.98 554.326
2099 0 63.2044 11.8346 748 61.8382 1075.19 553.398
2100 0 66.2254 12.2914 814 60.2543 1074.61 553.552
2101 0 67.2971 11.8133 795 61.9333 1075.62 551.886
2102 0 69.1249 12.9476 895 61.1821 1075.11 550.577
2103 0 69.2738 12.3712 857 61.3594 1074.8 548.867
2104 0 71.0987 12.2787 873 62.0745 1074.75 547.763
2105 0 75.2714 12.6077 949 61.1781 1075.06 547.142
2106 0 77.2159 13.65 1054 60.4146 1075.04 543.911
2107 0 79.1494 12.8997 1021 61.4417 1074.92 544.31
2108 0 82.0833 13.1817 1082 61.0739 1075.12 542.798
2109 0 85.1721 12.9503 1103 62.1677 1075.3 540.114
2110 0 86.1761 12.2424 1055 63.3962 1075.41 538.929
2111 0 88.2607 12.5424 1107 63.0262 1075.52 537.79
2112 0 94.1562 13.5095 1272 61.2406 1075.35 537.327
2113 0 93.3494 12.4907 1166 63.6089 1075.68 534.007
2114 0 97.21 13.8052 1342 62.0142 1075.76 534.417
2115 0 101.312 12.9896 1316 62.6717 1075.73 531.234
2116 1 54.1531 10.2672 556 62.527 1075.69 555.827
2117 0 57.2752 11.3662 651 60.5392 1075.6 553.568
2118 0 58.1815 11.8251 688 60.2892 1075.48 551.741
2119 0 60.2068 12.1581 732 60.0205 1075.23 552.362
2120 0 60.1636 13.0478 785 60.0395 1074.52 550.836
2121 0 62.0615 13.7928 856 59.0701 1074.97 550.075
2122 0 64.0953 13.0587 837 59.7933 1075.43 550.986
2123 0 67.2618 12.548 844 60.0533 1075.37 549.13
2124 0 67.0654 12.7189 853 60.9977 1074.93 547.665
2125 0 70.1378 12.7036 891 60.6072 1074.59 547.468
2126 0 72.1082 12.7725 921 60.1683 1074.21 546.776
2127 0 74.3706 12.8814 958 59.8727 1074.51 546.459
2128 0 77.1986 13.4718 1040 58.5837 1074.06 543.88
2129 0 79.2008 13.3332 1056 58.5483 1073.92 544.525
2130 0 83.1326 13.1597 1094 58.489 1073.7 541.994
2131 1 43.0067 10.2542 441 58.9546 1073.56 562.447
2132 0 45.0446 10.5673 476 58.4748 1073.78 560.935
2133 0 45.2015 10.2651 464 58.8599 1072.94 561.644
2134 0 45.0908 10.7339 484 58.4979 1073.38 558.655
2135 0 48.2198 12.2771 592 57.0997 1072.64 559.35
2136 0 48.0175 11.1209 534 58.6199 1071.77 559.137
2137 0 50.0327 11.5724 579 57.5181 1072.29 559.382
2138 0 52.1418 12.6962 662 56.3006 1072.15 558.594
2139 0 52.0562 12.2176 636 57.6494 1071.74 556.033
2140 0 56.0503 12.3639 693 56.9307 1071.84 556.589
2141 0 56.0471 11.758 659 58.5948 1071.53 555.71
2142 0 58.0799 12.7411 740 57.6419 1071.75 555.914
2143 0 59.0598 12.191 720 58.0278 1071.35 556.733
2144 0 61.0883 12.2937 751 58.5939 1072.02 554.566
2145 0 60.0307 12.2937 738 59.6152 1071.85 553.034
2146 0 64.1354 12.7699 819 58.5751 1071.65 553.509
2147 0 66.1531 13.3176 881 58.0318 1071.58 551.37
2148 0 67.1433 12.2276 821 59.8563 1071.81 551.381
2149 0 68.1021 12.1288 826 60.8111 1071.92 549.04
2150 0 72.0921 12.4008 894 60.1174 1072.12 548.805
2151 0 73.0634 13.1256 959 60.4578 1072 548.076
2152 0 74.218 12.5172 929 61.7793 1072.48 547.024
2153 1 42.0688 11.3148 476 58.4874 1071.67 566.284
2154 0 41.0522 10.2796 422 60.7915 1071.43 565.159
2155 0 42.015 9.092 382 62.589 1071.64 564.545
2156 0 42.0386 10.6093 446 61.7691 1071.22 562.298
2157 0 46.0558 11.2472 518 60.2239 1070.74 562.714
2158 0 47.0595 11.2623 530 60.7774 1070.88 561.785
2159 0 49.0358 12.134 595 59.9328 1071.17 562.306
2160 0 49.0202 10.8731 533 62.0244 1071.02 561.432
2161 0 52.0693 11.7152 610 61.4738 1070.56 560.752
2162 0 54.0387 12.7131 687 60.6012 1071.08 559.255
2163 0 55.0383 13.2817 731 60.1409 1070.81 559.464
2164 0 56.2012 13.4339 755 60.3245 1070.36 556.801
2165 0 56.0409 12.9013 723 61.4066 1070 557.726
2166 0 58.0612 12.3663 718 62.0682 1070.63 557.962
2167 0 58.0776 12.6899 737 62.9322 1070.94 556.746
2168 0 60.0973 12.8958 775 62.3226 1070.75 556.954
2169 0 63.0894 13.5047 852 61.3967 1070.86 557.101
2170 0 63.1433 13.5406 855 61.8023 1070.67 554.526
2171 0 65.1401 13.1716 858 61.7471 1069.93 553.333
2172 0 66.071 12.7439 842 63.0309 1070.25 552.189
2173 0 67.1508 12.7623 857 63.5554 1069.6 551.35
2174 0 72.1239 13.4629 971 61.1555 1068.88 551.572
2175 0 74.2333 13.1073 973 62.5622 1069.48 549.457
2176 0 77.1776 13.6568 1054 61.0095 1069.43 547.985
2177 0 78.2516 12.9582 1014 62.8126 1069.08 544.965
2178 0 81.2004 12.931 1050 62.4114 1069.69 544.307
2179 0 85.1467 13.5531 1154 60.7574 1069.24 545.347
2180 1 44.1028 9.86333 435 63.3241 1068.82 564.575
2181 0 47.0558 10.6257 500 62.45 1069.19 563.198
2182 0 47.0303 11.6733 549 62.9472 1069.4 563.694
2183 0 50.0278 12.0533 603 63.0431 1069.23 560.161
2184 0 50.0774 11.662 584 63.7483 1069.58 560.154
2185 0 52.0617 11.909 620 63.629 1069.22 558.103
2186 0 54.161 12.7952 693 62.2063 1069.51 557.315
2187 0 56.1668 12.6765 712 62.5927 1069.78 554.535
2188 0 59.0249 13.2487 782 61.8069 1070.26 555.501
2189 0 60.0844 12.6655 761 62.1695 1070.32 554.787
2190 0 62.142 12.6002 783 62.4189 1070.44 553.845
2191 0 64.0657 12.456 798 62.7907 1070.84 552.406
2192 0 67.2412 12.5221 842 63.0903 1070.76 549.467
2193 0 69.2286 12.6826 878 62.5695 1071.06 547.929
2194 0 73.1115 12.7613 933 61.5059 1071.55 547.638
2195 0 74.3684 13.3525 993 61.3515 1071.56 544.686
2196 0 77.289 13.6759 1057 60.2394 1071.46 544.183
2197 0 77.1301 11.9279 920 62.7739 1071.76 543.687
2198 0 83.2487 12.781 1064 61.469 1071.87 540.402
2199 1 43.084 11.141 480 60.9771 1071.1 560.377
2200 0 45.0469 11.0551 498 59.8133 1071.81 560.337
2201 0 46.0519 11.6173 535 59.3402 1071.77 559.021
2202 0 47.015 12.7406 599 57.9766 1072.05 559.624
2203 0 48.065 12.5455 603 59.01 1071.93 557.975
2204 0 48.1481 11.8385 570 60.7474 1072.26 556.409
2205 0 51.1119 12.8346 656 59.3155 1072.48 556.223
2206 0 52.1681 12.2489 639 60.0016 1072.76 555.507
2207 0 53.1946 12.0125 639 60.7324 1073.4 554.197
2208 0 55.2247 12.3314 681 60.3539 1073.65 555.181
2209 0 56.314 12.4836 703 60.4836 1073.61 553.101
2210 0 58.1907 12.7168 740 60.123 1073.69 551.699
2211 0 63.4155 12.8991 818 59.0012 1073.9 550.907
2212 0 62.2988 13.1303 818 58.6785 1074 549.581
2213 0 65.2995 13.6448 891 58.4994 1074.35 548.616
2214 0 68.2365 13.0722 892 58.741 1074.48 547.774
2215 0 70.2547 14.0631 988 57.6974 1074.28 546.817
2216 0 70.1956 12.8641 903 59.9845 1074.41 546.336
2217 0 73.24 12.8755 943 59.8844 1074.48 543.346
2218 0 77.3501 13.5876 1051 58.4329 1074.97 541.951
2219 0 78.2691 12.4442 974 60.5842 1074.92 541.653
2220 0 82.2337 12.2699 1009 60.8038 1075.08 540.075
2221 0 84.1828 12.8411 1081 60.2322 1074.98 539.206
2222 1 46.0731 10.6353 490 61.0939 1075 556.896
2223 0 47.0283 11.525 542 59.6974 1074.64 556.917
2224 0 48.0953 11.6643 561 60.1016 1075.57 556.139
2225 0 49.1799 11.6511 573 60.7749 1074.4 554.937
2226 0 53.0473 12.7245 675 58.397 1075.08 554.667
2227 0 52.0473 12.9306 673 58.8143 1075.83 554.7
2228 0 54.0833 12.0185 650 60.1415 1075.28 554.694
2229 0 56.0601 12.5936 706 60.4632 1075.47 553.438
2230 0 60.1116 12.4934 751 60.0266 1074.97 552.129
2231 0 59.077 12.763 754 60.5902 1075.04 552.576
2232 0 62.072 13.9838 868 58.3364 1075.09 550.257
2233 0 64.0564 13.0042 833 59.2197 1075 550.618
2234 0 67.1465 13.344 896 58.8181 1074.64 550.211
2235 0 69.0748 13.565 937 59.0555 1074.48 548.758
2236 0 71.1241 14.3974 1024 57.8906 1074.44 547.34
2237 0 72.0675 13.6539 984 59.2957 1073.91 545.996
2238 0 76.1261 13.9505 1062 58.822 1073.58 545.093
2239 0 75.1297 13.2837 998 60.1814 1073.28 543.587
2240 0 80.2102 14.0007 1123 59.4541 1073.82 542.328
2241 0 81.2311 14.034 1140 59.4614 1073.44 540.511
2242 0 83.2048 12.8358 1068 61.191 1073.38 540.496
2243 0 87.1346 13.0717 1139 60.561 1073.64 539.867
2244 1 44.0394 10.922 481 60.9667 1074.2 558.106
2245 0 45.1275 10.6144 479 61.0814 1073.33 558.591
2246 0 47.0499 11.1796 526 60.3137 1073.29 558.743
2247 0 53.0987 12.392 658 57.7462 1073.34 559.5
2248 0 52.0346 12.8184 667 59.0705 1072.85 557.118
2249 0 55.0793 13.0721 720 59.2347 1072.3 556.604
2250 0 55.0793 13.1447 724 168.583 1072.32 556.695
2251 0 59.0692 13.2048 780 58.5205 1072.67 553.231
2252 0 59.0799 13.4056 792 58.471 1073.55 553.25
2253 0 60.0624 12.7534 766 60.0705 1073.57 553.38
2254 0 63.1789 13.3272 842 59.0463 1073.49 552.152
2255 0 65.1955 13.912 907 58.172 1073.39 552.437
2256 0 65.1667 13.1969 860 59.7267 1073.54 551.605
2257 0 68.199 13.5193 922 59.2852 1073.51 547.443
2258 0 70.166 14.0096 983 58.1862 1073.77 548.8
2259 0 73.3236 12.9154 947 59.3654 1073.78 548.249
2260 0 75.174 13.1695 990 59.6616 1073.95 546.862
2261 0 78.2076 13.9501 1091 58.1806 1073.77 545.734
2262 0 80.2939 13.4132 1077 59.2572 1073.91 543.426
2263 0 83.1582 13.2759 1104 59.0879 1073.78 542.107
2264 0 85.4033 13.2665 1133 59.053 1073.88 541.214
2265 0 86.4238 13.1445 1136 59.4595 1074.04 538.386
2266 1 47.314 11.7301 555 58.018 1074.75 561.259
2267 0 48.2189 10.7219 517 59.5377 1074.84 561.311
2268 0 51.1956 11.544 591 58.7022 1074.94 559.083
2269 0 51.091 12.5658 642 58.8614 1074.04 558.142
2270 0 53.1009 12.109 643 59.6283 1073.92 558.356
2271 0 54.0842 13.7194 742 57.5741 1074.05 558.272
2272 0 58.125 13.6946 796 57.4711 1073.98 557.295
2273 0 59.191 12.7046 752 58.8205 1073.7 556.527
2274 0 59.1752 12.7756 756 59.8042 1073.62 554.128
2275 0 64.1678 13.6673 877 57.3922 1073.14 555.101
2276 0 64.1092 13.0091 834 59.4317 1073.35 552.835
2277 0 66.1174 14.686 971 57.2791 1073.41 555.033
2278 0 65.1723 13.7021 893 59.8376 1073.19 551.214
2279 0 68.1322 13.4885 919 60.0381 1072.82 548.655
2280 0 70.1801 13.8928 975 59.4554 1072.92 549.644
2281 0 71.1478 13.9006 989 60.1729 1072.86 547.615
2282 0 74.1986 13.5717 1007 60.5442 1072.3 548.796
2283 0 80.1941 13.3676 1072 59.6698 1072.52 546.548
2284 0 81.1526 13.9367 1131 59.6941 1072.44 544.212
2285 0 85.1339 13.6491 1162 60.3348 1072.22 544.412
2286 1 39.0152 8.74019 341 62.5044 1072.03 566.437
2287 0 45.0321 11.0588 498 60.0422 1071.53 564.398
2288 0 45.0217 10.0396 452 61.5354 1071.47 565.029
2289 0 47.0626 11.0279 519 60.3179 1071.76 564.927
2290 0 46.0351 11.4695 528 61.572 1071.91 560.206
2291 0 49.0574 11.721 575 60.8939 1071.99 562.096
2292 0 52.0218 12.0526 627 59.9155 1072.13 560.982
2293 0 54.0417 12.8049 692 58.5014 1072.16 560.176
2294 0 52.0525 11.4115 594 62.3081 1073.05 559.589
2295 0 54.0542 12.9685 701 60.3581 1072.53 558.673
2296 0 56.0207 12.7988 717 60.4324 1071.92 558.05
2297 0 56.0353 12.4564 698 61.596 1071.64 556.116
2298 0 62.1263 13.1989 820 59.95 1071.42 556.57
2299 0 61.0236 13.2572 809 60.0074 1071.82 556.033
2300 0 65.1459 13.5542 883 59.3658 1071.61 554.515
2301 0 66.0628 13.245 875 60.0777 1071.45 553.874
2302 0 67.141 12.9429 869 61.2094 1071.1 551.585
2303 0 69.0785 13.13 907 60.8997 1071.37 551.57
2304 0 69.2352 12.2048 845 62.6189 1071.33 550.263
2305 0 73.1731 13.1332 961 61.8127 1071.61 549.039
2306 0 77.0956 12.9969 1002 61.3184 1071.71 549.613
2307 0 79.1406 13.8488 1096 60.2701 1071.56 548.68
2308 0 81.3134 12.5932 1024 62.5215 1071.71 547.539
2309 0 83.087 13.6002 1130 61.3035 1071.64 543.751
2310 1 44.0598 10.2361 451 63.4723 1072.03 565.951
2311 0 46.0535 10.7701 496 63.7036 1072.08 564.188
2312 0 49.0362 11.5833 568 61.5246 1072.34 564.614
2313 0 49.0201 11.7707 577 62.7799 1071.86 560.165
2314 0 51.1013 12.1719 622 62.246 1072.14 559.27
2315 0 52.0733 11.9255 621 61.6538 1070.97 560.66
2316 0 51.0815 12.2549 626 62.353 1071.03 560.609
2317 0 54.0885 11.9804 648 62.4722 1071.42 559.21
2318 0 57.1342 12.3394 705 61.6468 1071.71 557.251
2319 0 58.1434 12.452 724 62.2887 1072.34 556.108
2320 0 58.0583 12.5219 727 62.7497 1072.87 557.19
2321 0 62.1356 13.1809 819 60.8486 1072.5 556.676
2322 0 63.2464 12.0007 759 62.78 1072.43 554.166
2323 0 66.1472 12.5175 828 61.8768 1072.5 553.959
2324 0 68.102 12.6281 860 62.3453 1072.49 550.703
2325 0 70.0753 12.8148 898 61.8396 1073.2 547.612
2326 0 71.1289 12.878 916 61.9476 1073.38 547.379
2327 0 73.0607 13.1671 962 61.5759 1073.33 546.611
2328 0 77.1616 12.7265 982 62.0499 1073.58 543.781
2329 1 39.1022 10.1273 396 62.9015 1073.63 562.677
2330 0 43.2138 11.2695 487 61.3121 1073.43 561.444
2331 0 42.1543 11.2207 473 63.1099 1073.69 558.801
2332 0 45.1962 11.5054 520 61.6327 1073.66 560.404
2333 0 44.1922 11.6537 515 62.4563 1073.36 558.555
2334 0 48.1074 12.3266 593 60.9899 1073.88 557.747
2335 0 50.1057 11.9946 601 61.1547 1074.54 557.82
2336 0 52.1526 12.962 676 59.787 1074.45 556.456
2337 0 49.1633 11.7974 580 63.0672 1074.23 557.224
2338 0 54.0942 13.3471 722 59.9778 1074.82 553.748
2339 0 54.1733 11.574 627 63.3078 1075.32 555.225
2340 0 57.0714 14.0351 801 59.7778 1074.85 553.679
2341 0 57.2116 12.8645 736 62.1916 1075.18 553.166
2342 0 57.0583 12.9867 741 62.7072 1074.62 553.119
2343 0 63.1473 12.748 805 60.9217 1074.84 551.473
2344 0 60.1298 12.6559 761 63.2142 1075.43 548.494
2345 0 65.1395 13.8011 899 60.3582 1075.41 548.681
2346 0 67.0713 13.5975 912 60.6919 1075.49 547.7
2347 0 68.168 13.2173 901 61.7503 1076 545.656
2348 0 71.0809 12.8304 912 61.3816 1076.15 546.598
2349 0 73.1765 13.8979 1017 59.9971 1076.23 546.316
2350 0 76.3499 13.3072 1016 61.2982 1076.02 542.335
2351 0 77.1279 13.1081 1011 61.6954 1075.5 542.901
2352 0 80.2895 12.8535 1032 62.2267 1076.03 539.687
2353 0 85.2282 14.3615 1224 58.9551 1075.72 539.941
2354 1 45.1268 11.6339 525 60.5314 1075.68 558.865
2355 0 46.0984 11.7358 541 60.488 1075.79 559.392
2356 0 47.1575 11.2177 529 60.4518 1076.27 557.974
2357 0 49.3083 11.0124 543 61.8379 1076.24 556.665
2358 0 51.1339 12.125 620 60.3661 1075.87 555.75
2359 0 53.0537 12.9114 685 59.0613 1074.8 555.409
2360 0 52.0446 11.3941 593 61.801 1075.9 556.199
2361 0 57.1009 13.012 743 58.8614 1075.5 555.89
2362 0 57.1152 13.1489 751 59.241 1075.73 551.233
2363 0 57.1758 11.9456 683 60.6398 1075.47 554.114
2364 0 58.0351 13.3368 774 59.7313 1075.03 553.55
2365 0 61.1939 13.351 817 59.4406 1074.99 552.427
2366 0 62.0701 13.3559 829 59.5645 1074.69 549.872
2367 0 64.1924 13.3038 854 59.5293 1074.83 549.57
2368 0 67.1552 14.4293 969 58.129 1074.38 548.473
2369 0 70.0683 12.916 905 60.0575 1074.42 548.34
2370 0 71.1873 13.8086 983 59.7447 1074.27 547.24
2371 0 75.204 13.4966 1015 59.3714 1074.2 545.669
2372 0 77.1491 14.4525 1115 58.2251 1074.12 543.774
2373 0 79.2977 13.3295 1057 59.7578 1073.89 543.144
2374 0 81.249 13.2432 1076 60.7119 1073.89 541.155
2375 0 83.2814 13.2803 1106 60.8571 1073.86 539.284
2376 0 83.2814 13.2803 1106 156.469 1073.86 539.317
2377 0 89.2362 12.8423 1146 61.8674 1073.68 537.472
2378 1 49.072 11.4933 564 59.9947 1074.01 560.005
2379 0 48.1827 11.5602 557 60.2926 1074.6 559.285
2380 0 50.1777 11.7184 588 59.9439 1073.61 559.726
2381 0 50.081 12.3799 620 56.6323 1073.61 558.185
2382 0 53.0804 12.5847 668 56.6527 1074.11 557.569
2383 0 55.0667 12.4395 685 56.0204 1073.88 557.542
2384 0 57.0682 12.3712 706 56.2181 1074.07 556.746
2385 0 58.101 13.0118 756 55.2196 1073.87 556.685
2386 0 60.1 13.5275 813 54.9938 1073.98 554.986
2387 0 61.1069 12.8954 788 55.3503 1073.6 555.728
2388 0 63.1353 13.2731 838 54.8532 1073.87 553.362
2389 0 62.1075 12.9614 805 55.2385 1074.03 552.288
2390 0 68.1033 13.5089 920 53.8413 1074.46 551.155
2391 0 71.0754 14.562 1035 52.2097 1074.22 551.408
2392 0 73.117 11.9671 875 54.9623 1074.06 551.306
2393 0 75.0807 13.4655 1011 53.5776 1073.55 548.746
2394 0 76.079 13.6569 1039 53.6679 1073.48 545.457
2395 0 79.1103 13.5886 1075 53.6009 1074.16 544.164
2396 0 83.1606 13.7565 1144 53.1276 1073.84 544.964
2397 0 85.2275 13.6341 1162 53.8373 1073.29 542.538
2398 0 87.2473 12.7454 1112 54.973 1073.29 540.716
2399 1 46.132 11.0986 512 55.3594 1073.61 561.797
2400 0 49.115 9.73227 478 56.3368 1073.15 561.653
2401 0 51.1976 11.3482 581 55.7522 1073.24 560.766
2402 0 52.1773 12.9558 676 54.324 1073.08 560.025
2403 0 53.1289 12.8367 682 54.7449 1072.99 558.724
2404 0 56.0686 12.7344 714 53.0448 1072.08 560.973
2405 0 57.1508 13.9631 798 52.9649 1072.3 557.404
2406 0 60.0464 12.3238 740 54.4243 1072.26 557.453
2407 0 60.0444 13.8065 829 54.0012 1072.11 554.571
2408 0 62.0969 13.334 828 54.3466 1071.68 557.302
2409 0 62.1121 13.1858 819 55.4432 1071.53 553.728
2410 0 67.0806 14.177 951 53.5016 1071.89 554.595
2411 0 67.1175 12.9474 869 55.8193 1071.14 553.131
2412 0 70.0685 14.5001 1016 53.8258 1071.2 550.564
2413 0 70.2201 14.7536 1036 54.3668 1071.14 551.245
2414 0 71.1749 13.5301 963 56.4974 1070.74 551.265
2415 0 76.0985 13.6271 1037 55.6644 1070.93 551.35
2416 0 77.1447 13.52 1043 56.8044 1070.7 548.349
2417 0 83.2373 14.2484 1186 54.984 1070.48 546.895
2418 0 83.2007 12.584 1047 57.7402 1070.95 543.65
2419 0 86.1175 13.6674 1177 56.2192 1071.04 544.583
2420 0 88.093 13.2474 1167 56.9811 1071.05 544.996
2421 1 45.0393 9.76924 440 58.3705 1070.63 566.618
2422 0 46.0874 11.0442 509 58.0295 1070.49 566.134
2423 0 47.066 12.2806 578 56.7872 1070.84 564.689
2424 0 49.039 12.5003 613 56.478 1070.53 562.166
2425 0 50.1415 12.3451 619 56.9176 1070.52 563.569
2426 0 51.1581 13.1944 675 56.9141 1071.21 561.127
2427 0 54.1174 13.6186 737 56.2754 1070.94 561.847
2428 0 57.1259 14.5818 833 55.1537 1070.92 561.055
2429 0 58.0605 13.6926 795 56.5774 1070.99 558.624
2430 0 58.054 13.0224 756 57.6958 1070.79 560.271
2431 0 60.0325 13.3261 800 57.4025 1070.56 558.584
2432 0 63.0804 13.6968 864 57.1157 1070.74 556.318
2433 0 63.0804 13.6968 864 157.875 1070.74 556.318
2434 0 66.0693 12.3961 819 59.3675 1070.36 553.724
2435 0 70.1205 13.5338 949 57.4605 1070.78 554.694
2436 0 72.1085 13.9928 1009 57.0961 1071.25 551.386
2437 0 75.0548 13.8166 1037 57.6741 1070.9 550.717
2438 0 77.1525 13.5187 1043 58.163 1071.32 548.839
2439 0 79.1855 12.8306 1016 58.7785 1071.24 548.565
2440 0 81.2847 13.0406 1060 59.2425 1071.13 546.745
2441 1 42.15 11.0083 464 60.1875 1070.55 565.912
2442 0 44.2796 11.721 519 59.9846 1070.5 563.888
2443 0 45.1468 11.4072 515 61.2718 1070.69 562.79
2444 0 46.1209 12.9659 598 60.3963 1071.17 561.811
2445 0 50.0657 12.9031 646 59.8932 1071.57 562.372
2446 0 51.0206 12.6224 644 60.9099 1070.53 561.005
2447 0 51.0206 12.5832 642 143.587 1070.53 561.073
2448 0 52.1048 13.2042 688 60.8881 1070.98 559.767
2449 0 55.0344 12.683 698 61.6203 1070.89 559.145
2450 0 57.0367 13.5877 775 60.5406 1070.77 557.246
2451 0 59.0411 13.9225 822 59.9574 1071.19 556.903
2452 0 61.041 14.1217 862 60.3434 1071.57 554.506
2453 0 63.0444 13.1971 832 61.3714 1072.13 553.588
2454 0 65.0399 13.361 869 60.3257 1072.11 551.891
2455 0 68.0547 14.7234 1002 57.6277 1071.9 552.016
2456 0 70.0683 13.7009 960 58.6313 1072.21 551.527
2457 0 71.0896 13.1524 935 59.8545 1072.15 549.446
2458 0 74.0315 13.4402 995 59.1779 1073.02 547.651
2459 0 77.0475 13.3165 1026 59.7368 1073 546.18
2460 0 79.0922 13.6676 1081 59.1545 1073.28 545.291
2461 1 41.0652 9.98413 410 61.6195 1073.58 563.312
2462 0 43.0424 11.1053 478 59.569 1073.41 564.609
2463 0 46.0442 11.8582 546 57.8791 1073.57 563.092
2464 0 45.0161 11.7958 531 58.8117 1073.63 561.493
2465 0 47.0615 12.303 579 58.1485 1074.66 559.87
2466 0 49.0633 13.2482 650 56.8738 1074.86 560.548
2467 0 52.0561 13.1397 684 56.212 1075.48 559.365
2468 0 53.1624 13.581 722 55.7701 1075.64 559.547
2469 0 54.1136 12.8803 697 57.5796 1075.71 556.884
2470 0 55.0953 12.8868 710 57.7972 1075.99 555.908
2471 0 57.1163 12.6409 722 57.5859 1076.11 555.598
2472 0 58.1265 13.0921 761 57.2024 1076.02 553.765
2473 0 61.0507 13.5297 826 56.1828 1076.49 553.381
2474 0 61.0426 13.122 801 57.7054 1076.24 552.236
2475 0 65.0871 14.2578 928 55.5162 1075.71 551.678
2476 0 66.2002 13.1117 868 57.4032 1076.07 548.906
2477 0 67.2199 13.0021 874 57.1636 1075.94 548.522
2478 0 68.0536 13.7098 933 56.7031 1076.16 546.592
2479 0 72.1803 13.7988 996 55.9789 1076.06 547.117
2480 0 73.138 14.0693 1029 56.3819 1075.97 546.089
2481 0 75.2869 13.6943 1031 56.2881 1076.03 544.87
2482 0 79.1276 14.2934 1131 55.5385 1075.78 544.706
2483 0 80.0647 13.3142 1066 57.6623 1075.84 541.538
2484 0 83.2106 14.3972 1198 56.4057 1075.56 538.275
2485 0 86.1328 14.0365 1209 56.4467 1076.09 540.196
2486 1 47.0188 10.8467 510 57.0588 1075.46 560.176
2487 0 48.0774 11.1487 536 57.7854 1075.09 559.565
2488 0 49.0518 12.13 595 57.2874 1074.69 558.066
2489 0 51.0697 11.7878 602 57.6611 1074.64 557.078
2490 0 53.1044 11.7693 625 57.6624 1075.15 555.242
2491 0 55.0531 13.0056 716 55.5503 1074.91 554.391
2492 0 57.0347 13.9038 793 54.6166 1074.85 552.685
2493 0 58.043 13.6967 795 55.3786 1075.05 552.447
2494 0 59.0443 13.0072 768 56.5833 1074.31 551.909
2495 0 61.0719 13.525 826 55.3341 1074.54 552.57
2496 0 64.0577 13.0976 839 55.7557 1074.8 552.186
2497 0 65.0912 13.5502 882 55.5556 1074.82 549.898
2498 0 65.1298 13.3886 872 55.9083 1074.55 548.632
2499 0 69.0582 13.4379 928 54.9828 1074.86 548.581
2500 0 71.0907 13.0537 928 55.5636 1074.1 546.709
2501 0 73.109 14.5946 1067 53.5127 1074.36 546.831
2502 0 73.2082 12.9767 950 55.3137 1073.9 545.32
2503 0 77.0574 12.9903 1001 55.3546 1073.86 542.777
2504 0 80.0591 14.6766 1175 53.1217 1073.73 542.745
2505 0 80.0591 14.6766 1175 145.692 1072.73 542.745
2506 0 85.2403 12.9516 1104 54.7319 1074.17 542.409
2507 0 85.0906 13.8088 1175 54.7447 1074.44 539.529
2508 0 91.0976 13.6996 1248 53.875 1073.89 538.656
2509 0 90.1569 14.02 1264 54.5657 1073.95 535.443
2510 1 50.0204 10.3758 519 55.1233 1073.45 559.197
2511 0 49.0329 10.9722 538 55.0576 1073.46 559.059
2512 0 52.0735 11.3301 590 53.6034 1073.07 560.403
2513 0 54.0621 10.9504 592 55.3091 1073.08 557.073
2514 0 56.0693 11.5214 646 54.2415 1072.9 556.102
2515 0 59.165 12.7102 752 53.1582 1073.06 555.597
2516 0 60.0844 12.3327 741 54.1646 1072.73 553.061
2517 0 62.0764 12.8229 796 53.8241 1072.74 552.928
2518 0 62.0683 12.9857 806 53.6873 1072.49 551.431
2519 0 67.1409 12.794 859 52.4237 1073.27 552.38
2520 0 71.1459 13.8729 987 51.308 1073.68 549.753
2521 0 71.0679 13.3956 952 52.0441 1073.37 549.905
2522 0 72.216 12.878 930 53.0323 1073.31 547.467
2523 0 76.0728 13.7631 1047 51.9456 1073.49 546.609
2524 0 77.0544 13.3672 1030 52.8019 1073.51 544.87
2525 0 80.1395 14.3874 1153 51.4354 1073.67 545.021
2526 0 84.1146 12.0788 1016 54.1722 1073.31 540.65
2527 0 87.1859 14.0046 1221 52.5594 1072.9 540.681
2528 0 92.1387 14.0983 1299 51.6582 1072.87 541.31
2529 0 94.0488 13.7269 1291 52.5941 1072.82 538.176
2530 1 47.087 10.7885 508 54.7343 1072.25 560.789
2531 0 48.0246 11.0152 529 53.0529 1073.32 562.038
2532 0 51.0419 12.2252 624 52.9295 1073.29 559.572
2533 0 50.0211 11.9949 600 53.6817 1072.91 558.245
2534 0 52.0408 11.7024 609 54.1494 1072.96 558.156
2535 0 57.0485 13.1292 749 52.227 1073 556.664
2536 0 58.1564 12.4148 722 52.91 1072.76 556.771
2537 0 58.166 12.0861 703 53.8962 1072.49 557.011
2538 0 63.1604 11.8587 749 54.6235 1072.64 554.826
2539 0 64.3076 13.1555 846 53.013 1072.21 553.635
2540 0 64.1624 12.6242 810 54.1556 1071.71 552.225
2541 0 67.1497 12.8221 861 53.6574 1071.62 551.823
2542 0 68.2001 11.9941 818 55.0562 1071.8 551.592
2543 0 72.1639 12.8735 929 54.3068 1071.82 548.043
2544 0 71.1438 11.5681 823 56.5358 1071.62 545.598
2545 0 77.221 12.8333 991 54.6761 1072.45 545.73
2546 0 77.1674 12.3239 951 55.3417 1071.82 544.115
2547 0 81.1616 13.812 1121 54.3354 1071.48 541.256
2548 1 43.1709 11.2576 486 54.9218 1070.48 560.109
2549 0 46.1425 11.0094 508 55.0846 1070.66 558.516
2550 0 48.0639 11.5471 555 54.1856 1071.05 559.031
2551 0 50.0448 13.8476 693 52.3665 1070.61 561.877
2552 0 50.0582 13.1247 657 53.8478 1070.24 560.941
2553 0 53.0864 14.5612 773 52.1669 1070.39 560.498
2554 0 54.0476 12.7665 690 54.9275 1070.01 559.83
2555 0 56.1147 13.2764 745 54.2483 1070.4 559.701
2556 0 56.1765 11.8911 668 56.485 1071.11 561.003
2557 0 58.0855 12.7398 740 55.7108 1070.96 559.057
2558 0 60.0662 13.2021 793 55.4502 1071.4 557.779
2559 0 61.059 13.0693 798 56.4411 1071.3 555.555
2560 0 64.3237 13.914 895 54.5899 1071.68 557.535
2561 0 65.1804 13.2555 864 56.2245 1071.7 555.922
2562 0 66.1729 13.2683 878 57.1731 1071.31 553.904
2563 0 71.5636 13.8618 992 55.871 1070.92 551.4
2564 0 71.3581 13.9157 993 56.7694 1071.09 551.351
2565 0 74.3971 14.0866 1048 56.3378 1070.41 550.301
2566 0 76.5059 13.6199 1042 59.5576 1071.03 545.579
2567 0 80.4358 14.1355 1137 58.5972 1070.68 546.706
2568 0 80.5304 14.1189 1137 60.0229 1070.68 541.528
2569 0 83.5924 13.4342 1123 60.3117 1070.22 544.329
2570 0 84.6425 13.5984 1151 61.4996 1069.91 540.657
2571 0 88.3267 13.518 1194 60.8869 1069.89 540.898
2572 0 91.5653 15.377 1408 58.5455 1070.1 540.018
2573 0 91.5653 15.377 1408 149.323 1070.1 540.004
2574 0 95.5305 13.8699 1325 61.6121 1070.26 535.327
2575 0 99.625 14.3839 1433 61.1214 1070 535.057
2576 0 102.547 14.1106 1447 61.0698 1070.13 534.167
2577 0 105.541 13.9472 1472 61.248 1070.09 533.448
2578 0 108.456 13.5723 1472 62.252 1069.98 531.207
2579 0 111.301 13.8634 1543 62.2813 1070.01 528.976
2580 0 115.341 13.7072 1581 61.9715 1070.22 525.836
2581 0 118.382 13.4226 1589 63.0315 1070.42 525.535
2582 0 124.436 14.5055 1805 61.2953 1070.67 523.166
2583 0 129.692 13.8945 1802 61.879 1070.09 520.733
2584 1 69.4747 10.7233 745 64.0577 1070.33 552.953
2585 0 74.2926 12.37 919 62.2655 1070.9 550.046
2586 0 77.2735 13.601 1051 60.6394 1070.71 548.5
2587 0 77.3255 12.5961 974 62.5688 1070.72 547.871
2588 0 81.2433 13.3057 1081 61.7576 1070.37 543.916
2589 0 83.4299 14.2395 1188 60.3291 1070.57 542.014
2590 0 86.336 13.1463 1135 61.9225 1070.56 540.577
2591 0 88.6206 12.4689 1105 62.8471 1070.74 539.331
2592 0 92.5351 12.914 1195 62.0904 1071.39 536.44
2593 1 45.3608 10.1189 459 63.4902 1070.26 560.695
2594 0 50.3621 11.1989 564 62.2642 1070.78 558.979
2595 0 52.1358 12.0071 626 60.992 1071.17 559.187
2596 0 53.0725 13.0576 693 60.1948 1071.67 558.596
2597 0 55.1544 12.3472 681 60.978 1072.31 558.113
2598 0 57.0444 12.0433 687 61.8151 1072.23 557.06
2599 0 55.2571 11.546 638 63.279 1072.75 556.566
2600 0 60.2307 13.0332 785 60.8242 1072.83 555.423
2601 0 60.0847 12.6654 761 62.3942 1073.08 554.152
2602 0 64.1669 12.0311 772 62.4806 1073.17 553.834
2603 0 65.1238 12.8524 837 61.7611 1073.51 553.018
2604 0 68.1521 13.9394 950 60.1526 1072.97 550.627
2605 0 70.2082 13.7021 962 60.4522 1073.51 550.97
2606 0 71.3036 13.6459 973 60.557 1072.91 549.64
2607 0 74.2732 13.7869 1024 60.3652 1073.24 549.201
2608 0 76.4336 13.2402 1012 62.083 1073.91 544.62
2609 0 79.3425 13.7127 1088 60.9789 1073.5 545.917
2610 0 81.4292 13.0543 1063 62.2794 1074.04 542.865
2611 1 40.3068 10.3208 416 62.8077 1074 563.524
2612 0 42.3303 10.6071 449 63.3408 1073.56 560.31
2613 0 45.2983 11.4574 519 61.657 1074.18 560.106
2614 0 46.1665 12.195 563 60.9378 1074.46 560.345
2615 0 46.081 12.3912 571 61.4028 1075.02 559.727
2616 0 51.0769 12.0407 615 61.4862 1075.18 560.026
2617 0 50.0843 12.7186 637 61.6295 1075.3 559.856
2618 0 50.0429 12.7491 638 62.3746 1075.38 558.408
2619 0 54.0456 13.3406 721 60.5645 1075.71 557.556
2620 0 54.0223 12.6985 686 62.1997 1075.94 558.324
2621 0 55.1095 13.5185 745 60.8671 1075.57 556.431
2622 0 58.0438 13.352 775 61.4852 1075.68 555.095
2623 0 59.034 13.3991 791 61.2225 1075.76 556.373
2624 0 61.0236 13.7979 842 61.3456 1076.02 553.665
2625 0 62.1043 13.896 863 61.321 1075.94 552.885
2626 0 64.0826 14.0756 902 61.0044 1075.73 550.828
2627 0 66.0804 14.3764 950 59.9189 1076.15 551.375
2628 0 69.089 15.0965 1043 58.2752 1075.7 550.272
2629 0 70.0428 13.9058 974 60.232 1075.3 548.101
2630 0 71.0581 14.2419 1012 59.9921 1075.47 547.718
2631 0 74.0733 14.2832 1058 59.5718 1075.1 547.629
2632 0 74.0528 14.3006 1059 59.8744 1075.33 544.685
2633 0 79.0481 15.3957 1217 57.4774 1075.49 545.067
2634 0 82.1172 14.735 1210 58.1215 1075.34 542.266
2635 0 82.0399 14.5417 1193 59.0813 1075.47 541.995
2636 0 85.0964 14.842 1263 58.3626 1075.7 540.447
2637 0 89.1556 15.3552 1369 57.3499 1075.99 537.695
2638 0 89.2158 14.5042 1294 58.7357 1075.88 536.526
2639 0 93.2609 14.9473 1394 57.7102 1076.01 534.13
2640 1 47.0505 10.2656 483 60.4286 1076.21 559.139
2641 0 51.2548 11.6087 595 59.3445 1075.79 556.576
2642 0 52.1037 12.5135 652 58.0475 1075.23 556.423
2643 0 55.0985 12.8316 707 57.0099 1074.35 556.655
2644 0 56.0857 13.7468 771 57.3489 1075.18 554.195
2645 0 58.1514 13.3445 776 57.4124 1075.33 554.781
2646 0 58.0614 13.7096 796 57.191 1075.09 552.594
2647 0 61.0859 14.3405 876 55.6358 1074.81 553.083
2648 0 64.0337 14.0395 899 56.1657 1074.66 550.772
2649 0 63.0694 13.6992 864 56.9931 1074.45 549.51
2650 0 68.1542 14.3498 978 53.0378 1074.49 548.971
2651 0 70.0704 13.5578 950 53.8042 1075.13 548.099
2652 0 73.0487 13.8675 1013 52.7631 1075.51 548.423
2653 0 75.0598 13.6025 1021 53.2674 1075.1 547.07
2654 0 76.1191 14.2671 1086 53.1418 1074.95 543.489
2655 0 81.1032 13.9575 1132 52.7473 1074.63 545.117
2656 0 84.1749 15.4084 1297 51.2737 1074.46 543.332
2657 0 85.1361 14.5767 1241 52.0951 1074.74 540.685
2658 1 46.0483 11.2708 519 54.5337 1074.48 559.655
2659 0 48.0193 11.2663 541 54.9834 1074.72 559.057
2660 0 51.0289 12.4439 635 53.5685 1073.9 558.219
2661 0 52.1358 12.2181 637 53.3768 1074.33 557.11
2662 0 54.1402 12.3014 666 53.0856 1074.09 556.008
2663 0 57.1321 12.9875 742 52.628 1073.4 554.07
2664 0 59.1425 13.6281 806 51.3511 1073.64 554.195
2665 0 63.0597 14.2405 898 50.0501 1073.86 553.759
2666 0 61.0903 13.4391 821 51.8319 1073.61 552.838
2667 0 63.0734 12.9373 816 51.9093 1073.63 552.061
2668 0 68.141 14.6314 997 50.0431 1073.81 550.345
2669 0 69.078 13.2893 918 51.8595 1073.27 547.43
2670 0 72.197 13.8094 997 50.8636 1073.58 549.505
2671 0 73.1506 14.2856 1045 50.6727 1073.49 547.529
2672 0 75.1149 13.9919 1051 51.5357 1073.77 545.27
2673 0 77.1026 13.7739 1062 51.9162 1073.74 544.8
2674 0 80.1318 13.328 1068 52.3699 1073.64 544.295
2675 0 83.1637 14.249 1185 51.5561 1073.28 541.624
2676 0 86.1293 13.7584 1185 52.0996 1072.98 541.6
2677 0 90.112 14.5375 1310 51.4817 1072.63 540.123
2678 0 92.09 13.5411 1247 53.1828 1072.88 535.752
2679 1 49.0107 11.9566 586 52.7491 1072.14 557.995
2680 0 51.0625 11.3782 581 53.3821 1072.12 559.89
2681 0 53.0637 13.0032 690 52.6101 1072.39 558.625
2682 0 56.0677 12.5562 704 53.0838 1072.21 557.665
2683 0 59.1303 13.7155 811 51.8434 1072.44 556.726
2684 0 59.1407 12.8676 761 53.5729 1072.55 555.325
2685 0 62.0523 12.4895 775 53.2697 1071.89 555.773
2686 0 63.0819 14.1245 891 52.8866 1072.47 552.455
2687 0 64.0879 13.0446 836 54.3744 1072.16 552.097
2688 0 65.066 13.2635 863 54.467 1072.28 551.355
2689 0 70.1421 14.1712 994 52.9759 1072.31 550.537
2690 0 72.1749 13.0655 943 54.3234 1072.17 548.969
2691 0 74.1051 13.7372 1018 53.9961 1072.49 546.832
2692 0 76.1873 14.1493 1078 53.7996 1072.47 546.391
2693 0 77.2675 12.515 967 55.4188 1072.34 546.129
2694 0 80.2087 13.2405 1062 55.6026 1071.83 545.077
2695 0 84.3221 14.9071 1257 53.3874 1071.88 542.042
2696 1 43.0919 11.023 475 55.4211 1072.21 563.594
2697 0 43.061 10.7057 461 55.8178 1071.75 561.965
2698 0 47.0854 10.4916 494 55.6721 1071.67 561.067
2699 0 49.0627 10.7821 529 55.4858 1070.99 561.688
2700 0 51.0919 13.4855 689 52.5936 1070.62 559.354
2701 0 52.1003 12.783 666 54.2447 1071.46 559.802
2702 0 52.0557 11.9487 622 55.627 1071.37 559.217
2703 0 56.0769 13.4993 757 53.2061 1071.57 558.456
2704 0 56.0378 13.2946 745 53.8228 1071.61 555.981
2705 0 56.0896 12.6227 708 54.7486 1070.44 557.26
2706 0 59.0386 12.5172 739 54.7158 1071.22 554.815
2707 0 64.0754 13.2812 851 52.973 1071.34 556.593
2708 0 64.1316 12.3652 793 54.6709 1071.14 552.961
2709 0 67.0827 12.4771 837 53.8746 1071.13 553.871
2710 0 68.1834 13.0237 888 53.509 1070.99 552.082
2711 0 71.2043 12.6256 899 54.0923 1071.03 549.983
2712 0 72.1791 13.231 955 54.0963 1071.01 549.328
2713 0 73.0899 12.7104 929 54.7761 1071.16 546.265
2714 0 76.0995 12.2077 929 54.8062 1071.53 546.799
2715 0 80.1373 16.4717 1320 50.0902 1071.71 546.504
2716 0 82.0989 12.8991 1059 53.3588 1071.37 544.147
2717 0 85.1254 13.6152 1159 52.4098 1071.54 542.833
2718 0 88.2234 13.2505 1169 53.1437 1071.1 541.026
2719 0 91.0813 14.0314 1278 52.3177 1070.6 540.319
2720 0 94.1327 13.6934 1289 53.0287 1070.52 537.504
2721 1 51.0235 10.0934 515 54.2971 1069.96 561.627
2722 0 54.0712 12.0027 649 52.9414 1070.24 560.479
2723 0 56.0221 11.7275 657 53.6499 1070.91 559.017
2724 0 57.0722 12.7207 726 53.1832 1070.31 556.691
2725 0 59.0833 12.9478 765 53.0484 1070.25 555.546
2726 0 61.0333 13.2223 807 52.544 1070.7 556.239
2727 0 63.0841 12.951 817 53.0991 1071.24 554.089
2728 0 65.0791 13.2301 861 53.2973 1070.63 553.931
2729 0 67.0156 12.6389 847 53.4416 1070.5 554.115
2730 0 70.0691 12.7017 890 52.9966 1070.96 553.629
2731 0 70.0607 11.9896 840 55.0214 1071.11 550.464
