time division length width area intensity CMx CMy
0 0 75.3836 13.3849 1009 72.6115 900.807 550.85
1 0 78.5937 14.0088 1101 72.4886 900.803 552.464
2 0 81.5524 14.7513 1203 71.6293 901.047 552.106
3 0 83.6874 13.885 1162 74.0439 900.956 551.244
4 0 87.4709 12.6442 1106 76.0904 900.582 547.599
5 1 46.2683 11.2388 520 74.5654 900.287 566.642
6 0 47.3331 10.4155 493 74.6329 899.961 567.576
7 0 49.4543 12.1526 601 72.1947 899.804 566.764
8 0 52.5396 12.9046 678 72.056 900.591 563.813
9 0 53.4381 12.7063 679 73.2003 900.969 562.941
10 0 55.5607 13.2648 737 73.5563 901.095 561.957
11 0 57.4073 12.8207 736 74.6155 900.931 561.808
12 0 60.3689 13.4341 811 73.1936 901.311 557.683
13 0 60.3689 13.4175 810 162.153 901.317 557.754
14 0 64.4081 13.2592 854 71.8384 901.258 558.342
15 0 67.3733 12.8686 867 72.7151 901.006 556.453
16 0 68.4673 12.9697 888 71.6543 900.511 556.168
17 0 70.4567 12.9867 915 71.6765 900.411 554.552
18 0 72.3871 13.2897 962 69.2827 900.358 553.798
19 0 73.4824 11.8396 870 71.2897 901.136 550.179
20 0 79.712 13.6115 1085 67.5696 900.555 550.257
21 0 80.5274 13.3868 1078 67.7857 900.451 547.305
22 0 84.4538 13.2262 1117 67.5058 900.03 547.013
23 1 42.5468 11.2582 479 65.286 900.161 568.013
24 0 45.6 10.3509 472 66.3792 899.909 566.68
25 0 45.4755 10.3792 472 67.4025 899.998 565.544
26 0 47.4791 10.7205 509 67.2122 899.927 564.943
27 0 52.4292 12.7028 666 63.8859 899.712 564.35
28 0 52.4644 12.6371 663 64.7436 900.335 562.955
29 0 54.3787 11.7693 640 66.1656 900.747 560.894
30 0 56.39 10.9594 618 66.9984 900.591 562.129
31 0 57.4166 12.1045 695 66.2705 900.911 558.801
32 0 60.293 12.1407 732 65.9139 900.086 558.975
33 0 60.1149 11.5279 693 66.9538 900.766 560.317
34 0 61.1864 12.3067 753 66.822 901.307 558.749
35 0 63.2915 12.1027 766 67.3564 901.093 555.294
36 0 68.4421 12.916 884 64.9932 901.682 556.276
37 0 68.3234 12.9238 883 65.5277 901.657 556.403
38 0 67.2776 12.0099 808 68.6807 901.772 552.1
39 0 72.463 13.5517 982 66.1079 901.807 552.277
40 0 74.5503 13.2662 989 66.7806 902.019 550.586
41 0 76.5268 13.5116 1034 66.8366 901.968 549.764
42 0 80.5375 13.0747 1053 66.7198 901.656 550.297
43 0 81.6281 14.0638 1148 66.7561 901.778 546.485
44 0 84.562 12.5707 1063 68.1938 902.064 546.624
45 0 86.7 13.4487 1166 66.9991 901.636 546.679
46 1 47.3993 9.97906 473 66.4144 900.607 566.478
47 0 46.4491 10.2693 477 66.5094 900.549 564.564
48 0 48.3868 10.6641 516 66.5194 900.696 564.041
49 0 49.2143 10.4644 515 67.435 901.118 562.002
50 0 50.2006 11.1752 561 66.5811 900.993 561.241
51 0 52.0424 11.6059 604 66.4056 901.829 560.429
52 0 54.1344 12.783 692 64.0116 902.545 561.266
53 0 56.0495 11.579 649 65.2126 901.721 560.165
54 0 58.171 11.6897 680 65.0956 901.478 560.359
55 0 57.3266 11.7049 671 59.4933 901.689 559.091
56 0 61.2275 13.3763 819 58.8278 901.812 558.267
57 0 60.2993 11.3102 682 62.0029 901.604 558.897
58 0 64.2525 12.731 818 59.9315 902.1 557.115
59 0 68.2076 13.5469 924 58.3279 902.182 556.419
60 0 67.1699 13.8753 932 59.3605 902.34 553.208
61 0 70.1706 13.8092 969 58.3664 902.409 552.966
62 0 69.1677 13.3877 926 60.0205 902.293 551.298
63 0 73.1424 11.7032 856 62.2687 901.335 549.826
64 0 75.1558 13.3589 1004 60.7012 902.207 548.365
65 0 80.1564 13.9602 1119 59.7578 902.09 547.099
66 0 81.1989 13.4361 1091 61.0046 902.311 546.238
67 0 84.1351 13.1693 1108 61.5993 903.111 545.133
68 0 86.1405 13.803 1189 60.968 903.281 545.332
69 0 86.1405 13.8727 1195 158.892 904.281 545.371
70 0 91.1821 13.8953 1267 61.2747 903.256 542.661
71 0 94.292 13.946 1315 60.965 903.46 538.121
72 0 98.3325 13.9628 1373 61.1551 903.288 536.094
73 0 100.303 14.6855 1473 60.7481 903.53 537.105
74 0 103.416 15.1041 1562 60.8143 903.973 533.434
75 0 107.284 14.4383 1549 60.7334 904.454 531.738
76 0 107.333 13.4907 1448 62.2569 904.865 530.976
77 0 107.333 13.4628 1445 161.867 904.882 530.968
78 0 114.351 13.3798 1530 62.8425 905.089 524.614
79 0 118.605 13.3215 1580 62.4481 905.294 525.014
80 0 126.573 14.8531 1880 60.3106 905.61 521.29
81 0 128.394 13.591 1745 62.2527 905.695 517.564
82 1 72.1771 10.9453 790 61.3013 906.472 550.899
83 0 75.3903 11.6461 878 60.6128 906.068 547.403
84 0 77.4613 11.5671 896 61.5737 906.023 543.731
85 0 80.4978 13.4041 1079 59.1668 905.72 544.237
86 0 81.246 12.5175 1017 60.292 906.042 541.732
87 0 83.2762 12.7768 1064 59.3581 906.401 541.25
88 0 88.2616 11.9078 1051 58.1456 906.459 540.585
89 0 88.2388 12.7608 1126 56.921 906.501 538.119
90 0 88.3809 11.1563 986 58.1714 906.754 542.105
91 0 96.5029 12.0929 1167 63.5493 907.534 534.158
92 0 101.38 13.1289 1331 65.1089 907.674 531.604
93 0 105.32 13.4827 1420 63.4056 907.942 529.404
94 0 105.239 12.9895 1367 63.8383 907.818 528.498
95 0 110.4 14.0942 1556 60.0418 908.513 524.149
96 0 113.326 13.6333 1545 59.5346 907.772 525.014
97 0 119.467 15.2594 1823 82.4355 907.371 523.474
98 1 63.2428 10.8313 685 59.5942 906.123 550.545
99 0 64.2218 10.8686 698 59.6819 906.06 547.921
100 0 68.1406 11.3002 770 60.3208 906.543 545.277
101 0 69.0519 12.0055 829 58.6912 907.731 543.005
102 0 70.072 13.429 941 57.7566 905.836 544.268
103 0 74.094 12.97 961 57.3288 906.25 543.446
104 0 75.0572 13.1633 988 58.0466 906.808 540.352
105 0 78.1035 13.751 1074 57.5624 907.028 540.608
106 0 80.2574 13.1452 1055 59.0938 909.203 540.613
107 0 82.2161 14.0848 1158 59.5043 908.845 536.579
108 0 82.1873 12.6662 1041 63.1412 908.905 536.802
109 0 89.327 13.2211 1181 58.5461 908.463 535.694
110 0 86.1838 12.9607 1117 56.0833 908.016 534.351
111 0 86.1487 13.291 1145 55.007 907.776 535.451
112 0 96.2573 14.2638 1373 54.3117 908.365 532.102
113 0 99.2842 15.4002 1529 54.1387 908.434 528.003
114 0 101.26 16.1368 1634 53.6867 908.243 526.873
115 0 104.226 14.056 1465 55.3051 907.939 527.165
116 0 107.239 14.5284 1558 55.3023 908.364 523.646
117 0 111.282 15.1057 1681 54.9667 908.256 523.857
118 0 113.387 14.1286 1602 55.8258 908.227 519.283
119 1 65.2861 11.6258 759 54.9315 906.797 548.694
120 0 63.2296 11.1182 703 56.5263 906.728 546.535
121 0 65.1831 11.6902 762 54.0656 906.577 544.555
122 0 68.3717 14.0994 964 51.1722 906.301 541.833
123 0 68.0222 13.2163 899 51.6151 906.316 540.964
124 0 72.1721 13.6479 985 53.4041 906.402 542.508
125 0 73.1034 12.9132 944 54.1049 906.824 538.552
126 0 76.1209 13.9515 1062 52.8437 906.476 537.799
127 0 78.2121 13.9876 1094 52.6344 906.106 537.93
128 0 82.3132 13.8009 1136 52.4419 906.242 537.672
129 0 84.1217 14.6336 1231 52.3079 906.577 531.182
130 0 84.2002 14.1567 1192 52.8272 905.676 533.273
131 0 91.2681 14.4848 1322 51.9849 906.331 531.638
132 0 92.234 13.1405 1212 54.0751 906.492 528.569
133 1 47.0497 9.8194 462 53.29 905.21 553.922
134 0 48.0747 9.92205 477 52.6478 905.709 552.302
135 0 50.0255 9.81499 491 53.5438 905.196 551.963
136 0 51.1031 10.9582 560 50.7446 905.629 548.089
137 0 55.0649 11.7498 647 51.527 905.27 548.321
138 0 57.4146 13.2022 758 51.004 905.306 550.146
139 0 58.3043 11.8859 693 52.1991 904.605 550.297
140 0 61.413 12.8474 789 50.9049 905.009 550.798
141 0 64.2563 13.2127 849 50.7562 904.995 549.82
142 0 63.2681 12.4233 786 52.6056 905.36 548.584
143 0 67.5075 13.6429 921 52.1911 905.56 546.26
144 0 67.3221 13.1161 883 53.607 905.319 546.259
145 0 69.2879 12.5274 868 54.0323 905.448 545.965
146 0 71.2928 13.0869 933 54.0193 905.487 543.09
147 0 76.4053 12.9049 986 53.7333 905.121 543.787
148 0 77.2201 12.4579 962 55.42 905.302 540.462
149 0 80.2057 13.9142 1116 54.0708 905.456 539.201
150 0 81.2495 13.8462 1125 54.9333 905.71 536.089
151 0 83.2364 12.5306 1043 56.5647 905.595 537.337
152 0 87.3006 13.1729 1150 55.6652 905.133 537.079
153 1 46.0101 10.1499 467 57.4882 904.223 556.79
154 0 50.0258 11.0743 554 55.8773 904.841 554.771
155 0 50.0677 10.8453 543 56.8619 904.366 555.247
156 0 52.1107 11.6483 607 55.7941 904.329 554.745
157 0 54.0565 12.9124 698 54.7693 904.844 553.582
158 0 53.1271 13.1195 697 55.406 904.333 551.202
159 0 57.2023 12.6394 723 55.6362 905.147 551.799
160 0 57.2008 13.3565 764 55.5694 905.086 549.577
161 0 57.2831 12.7786 732 56.5068 905.079 549.358
162 0 62.1906 14.1983 883 54.2458 905.386 549.728
163 0 63.1734 13.0593 825 55.6339 905.218 549.479
164 0 64.1799 14.101 905 55.3624 905.623 546.409
165 0 66.196 12.8256 849 56.3828 906.027 546.991
166 0 67.2586 13.6339 917 56.5867 906.682 544.466
167 0 70.1238 14.1322 991 55.6024 906.455 544.417
168 0 69.1829 13.3559 924 57.6526 906.497 543.314
169 0 74.1692 14.2782 1059 55.5052 906.681 543.961
170 0 76.1313 14.5407 1107 55.7958 906.843 542.195
171 0 75.1275 13.1643 989 58.0445 906.837 539.846
172 0 81.168 13.9833 1135 56.9753 907.22 538.93
173 0 83.1736 14.7643 1228 56.8103 907.14 536.02
174 0 85.1477 16.3128 1389 55.0706 906.914 535.305
175 0 88.1081 14.9362 1316 56.5752 907.112 533.435
176 0 89.2099 13.2833 1185 58.6726 907.002 533.623
177 0 93.206 15.1278 1410 56.5106 907.439 532.505
178 0 95.2364 14.3433 1366 57.9993 907.561 530.244
179 1 50.1206 11.4324 573 58.8778 906.962 552.415
180 0 52.0546 11.3727 592 59.1166 907.098 550.493
181 0 53.0705 12.6624 672 58.9955 906.933 549.932
182 0 56.0639 12.0398 675 58.8296 907.237 549.37
183 0 57.0724 13.8771 792 57.9533 907.462 545.028
184 0 60.2414 13.4127 808 58.7401 908.052 547.478
185 0 61.1624 13.1453 804 59.107 908.31 547.28
186 0 64.1419 13.4857 865 58.9295 908.209 546.027
187 0 64.2825 14.4674 930 58.8065 908.973 543.688
188 0 67.1907 12.9482 870 60.8575 908.998 543.892
189 0 70.2069 13.3748 939 60.2705 908.809 542.696
190 0 72.2564 14.9606 1081 59.1554 909.067 540.173
191 0 72.1719 13.7588 993 62.6254 909.446 538.939
192 0 76.2558 13.5858 1036 62.4826 909.482 539.157
193 0 81.1617 14.7853 1200 59.3225 909.934 536.298
194 0 81.1206 14.953 1213 58.5903 910.029 535.733
195 0 85.1972 16.7259 1425 56.2407 910.143 535.305
196 0 88.1909 14.8201 1307 59.5272 910.039 532.594
197 0 88.1698 13.5761 1197 62.5013 910.212 530.363
198 0 94.3912 14.1856 1339 61.8708 910.155 529.609
199 1 50.0586 11.7063 586 62.3925 909.283 552.567
200 0 51.1 11.3503 580 62.8655 909.303 551.955
201 0 51.1837 11.234 575 63.5113 909.762 550.32
202 0 54.1088 12.2531 663 62.4193 909.843 549.084
203 0 56.1272 13.2378 743 61.4563 909.899 548.47
204 0 56.3429 13.5066 761 61.9356 910.569 547.968
205 0 58.3225 13.7683 803 61.5342 911.077 546.394
206 0 59.3875 13.7066 814 62.6437 910.501 545.088
207 0 62.3069 12.5508 782 63.5563 911.238 544.063
208 0 65.1895 14.0974 919 61.704 910.872 544.478
209 0 67.2269 13.4172 902 63.1441 910.813 542.025
210 0 70.3331 14.9574 1052 61.4354 910.447 541.931
211 0 71.322 13.9228 993 63.0413 910.309 540.52
212 0 72.2681 13.6575 987 64.1084 910.652 540.184
213 0 74.3326 14.2199 1057 64.0274 910.429 539.123
214 0 78.2767 13.3756 1047 65.1127 910.375 538.193
215 0 82.2312 15.0551 1238 63.2617 909.792 535.876
216 0 82.194 13.529 1112 66.2923 909.665 534.783
217 0 84.296 14.8999 1256 64.5725 909.644 533.228
218 0 90.361 14.9401 1350 63.877 909.32 532.048
219 0 90.2702 14.1243 1275 65.9984 909.14 531.327
220 0 94.2488 14.536 1370 65.4 908.845 529.63
221 0 97.5722 14.3688 1402 65.5956 908.461 528.991
222 0 100.307 14.4157 1446 65.6487 908.645 527.76
223 0 104.268 14.3285 1494 65.6238 908.45 525.295
224 0 102.276 13.0138 1331 67.7476 908.657 526.086
225 1 57.1534 11.2154 641 66.0094 908.128 548.409
226 0 59.1234 12.6177 746 65.2078 908.047 547.465
227 0 62.2391 12.7412 793 63.7617 908.29 548.252
228 0 63.1306 12.6721 800 64.7825 908.092 547.092
229 0 63.094 12.5844 794 64.9144 907.336 546.379
230 0 64.0611 11.2081 718 66.4847 907.907 547.259
231 0 70.1253 12.2495 859 64.922 908.165 543.641
232 0 68.1981 12.8449 876 65.4064 907.467 543.008
233 0 73.1271 13.5791 993 64.2286 907.521 541.54
234 0 75.4324 13.005 981 64.2446 907.527 541.573
235 0 78.1291 13.2857 1038 64.5222 907.54 539.808
236 0 81.1698 13.5765 1102 63.9301 908.005 539.035
237 0 83.2928 14.2749 1189 64.386 907.651 535.399
238 0 84.3352 13.5531 1143 65.9624 907.157 537
239 0 90.5384 14.1818 1284 64.2313 907.217 533.794
240 0 90.4135 14.1461 1279 64.7834 907.462 533.4
241 0 93.3655 13.731 1282 65.6248 907.588 531.999
242 1 52.2234 10.4168 544 65.8143 907.066 552.82
243 0 54.1926 11.7359 636 63.4937 906.442 553.396
244 0 56.1518 11.0059 618 65.1861 906.691 550.958
245 0 56.0695 11.5928 650 63.6938 907.435 552.152
246 0 59.107 12.0629 713 63.4039 907.121 550.036
247 0 61.1557 12.7053 777 62.8662 907.542 549.024
248 0 63.2735 13.1335 831 62.6679 907.539 546.466
249 0 64.2352 13.4661 865 61.7757 907.474 547.894
250 0 65.3024 12.8326 838 62.5084 907.73 544.817
251 0 69.1375 13.1622 910 61.3912 907.456 544.575
252 0 69.2623 13.9325 965 60.7606 907.551 541.384
253 0 73.2761 13.6197 998 60.9008 907.668 541.563
254 0 74.1873 13.8973 1031 60.9127 907.208 540.177
255 0 78.2249 14.3688 1124 60.4021 907.402 538.493
256 0 80.1378 14.2505 1142 60.5298 907.112 539.42
257 0 83.1323 14.086 1171 61.1802 907.319 535.346
258 0 84.0809 14.4147 1212 60.8696 907.134 535.681
259 0 86.1049 14.2849 1230 61.4016 907.086 533.885
260 0 88.1751 13.9949 1234 61.8582 906.667 533.122
261 0 93.093 14.4479 1345 61.4602 906.275 532.202
262 0 93.1174 13.6709 1273 63.0581 905.625 529.174
263 1 53.0343 11.3889 604 62.2384 905.56 551.344
264 0 55.0829 12.5447 691 61.4515 905.823 549.229
265 0 56.0398 12.741 714 59.5966 905.782 550.485
266 0 56.1847 12.6191 709 61.3625 905.779 547.719
267 0 60.1023 12.9612 779 60.7484 905.648 546.009
268 0 63.0632 13.32 840 61.156 905.663 546.558
269 0 62.0992 12.9792 806 61.2841 905.944 546.911
270 0 64.1546 13.031 836 61.5359 906.103 545.371
271 0 66.132 14.0174 927 59.836 906.477 543.512
272 0 67.1449 13.3443 896 60.1239 905.635 544.878
273 0 71.1384 14.3804 1023 58.9736 906.004 541.083
274 0 73.2379 12.9578 949 60.6765 905.924 541.158
275 0 75.225 13.5194 1017 60.0029 906 540.802
276 0 75.1033 13.5946 1021 60.8883 906.378 537.45
277 0 79.128 14.2554 1128 59.8945 906.417 537.396
278 0 80.1686 13.9082 1115 60.6682 906.546 535.956
279 0 84.1536 13.3209 1121 61.4871 906.525 533.576
280 0 87.0793 14.55 1267 60.2107 906.528 531.23
281 1 43.0799 9.91181 427 61.2084 905.904 552.813
282 0 45.0733 11.093 500 59.278 906.218 553.202
283 0 46.0307 10.3409 476 60.1345 906.601 552.082
284 0 48.0493 12.9867 624 58.0096 907.038 550.37
285 0 50.0224 12.2945 615 59.6211 906.893 550.698
286 0 50.0538 11.8672 594 60.2155 907.475 549.943
287 0 55.108 11.7406 647 61.7512 906.731 552.536
288 0 58.0291 12.735 739 61.0379 906.911 550.169
289 0 60.1841 12.0962 728 61.2926 907.294 550.146
290 0 61.1675 12.0489 737 61.9756 907.491 549.273
291 0 62.2348 13.3044 828 60.9662 907.603 547.812
292 0 63.2928 12.7345 806 62.7878 907.865 545.091
293 0 68.2706 15.2481 1041 59.1306 908.068 545.383
294 0 68.1991 13.5046 921 61.7351 908.344 545.236
295 0 68.1991 13.5192 922 165.798 908.359 545.338
296 0 70.1979 13.4192 942 62.8238 908.375 542.022
297 0 74.4495 14.1975 1057 62.1268 908.851 541.508
298 0 75.2148 14.7444 1109 61.9946 909.104 540.019
299 0 75.1671 13.3436 1003 64.3639 909.524 538.813
300 0 78.3488 13.8483 1085 63.5908 909.666 538.415
301 0 81.2763 13.5218 1099 64.2466 909.95 536.198
302 0 86.1961 14.5018 1250 62.8224 909.716 534.351
303 0 88.5143 14.5513 1288 63.2283 910.96 531.84
304 0 90.2044 14.4561 1304 63.3321 910.479 532.54
305 0 92.3692 14.2363 1315 64.019 910.677 530.957
306 0 100.368 13.0918 1314 64.6971 911.14 530.349
307 0 99.525 14.5692 1450 64.451 911.44 525.902
308 0 102.457 14.162 1451 65.1413 911.303 524.494
309 0 113.416 13.3755 1517 64.9763 911.295 523.59
310 0 112.461 14.7429 1658 63.8148 910.615 520.362
311 1 47.1492 11.3469 535 61.8523 909.781 553.733
312 0 48.3771 11.2657 545 62.0606 909.906 554.077
313 0 49.1321 12.2323 601 62.188 909.922 551.454
314 0 51.0736 11.9435 610 61.9279 910.074 552.02
315 0 51.0413 12.4605 636 62.7846 910.178 550.728
316 0 53.1167 12.482 663 62.9894 909.549 550.299
317 0 54.1188 12.2324 662 63.9215 910.276 549.446
318 0 58.1026 13.218 768 62.0039 910.451 547.536
319 0 58.1364 12.5739 731 64.7018 910.725 546.622
320 0 61.1335 12.3991 758 64.3681 909.876 546.613
321 0 62.3165 13.1105 817 64.0808 909.967 544.14
322 0 66.1697 12.6191 835 63.806 909.986 544.935
323 0 68.1994 12.3315 841 63.9263 910.18 543.686
324 0 70.2995 11.9204 838 64.0847 909.962 541.589
325 1 35.077 9.20832 323 63.9505 909.307 558.811
326 0 35.066 11.5782 406 62.399 909.741 556.943
327 0 37.0994 12.2105 453 61.1457 909.863 555.448
328 0 37.4903 12.1632 456 60.9496 911.112 556.412
329 0 40.6278 11.4454 465 60.929 910.705 556.637
330 0 41.4683 12.0815 501 60.2894 910.9 555.046
331 0 42.5212 11.2179 477 61.5723 910.153 556.258
332 0 43.4545 10.7239 466 62.7082 910.049 555.311
333 0 45.591 13.1386 599 59.773 910.12 554.282
334 0 47.4099 13.4571 638 59.0455 910.163 553.373
335 0 46.3271 13.232 613 60.0848 910.065 552.703
336 0 50.4938 13.4076 677 58.7386 909.609 552.118
337 0 48.5884 12.6985 617 60.5105 909.87 552.254
338 0 51.5533 12.9769 669 60.2915 909.762 550.862
339 0 52.4407 13.3103 698 60.1719 909.305 549.527
340 0 54.3865 13.3673 727 60.8226 909.326 549.073
341 0 56.4807 13.5445 765 60.5725 909.395 547.82
342 0 55.4378 12.8793 714 62.6162 908.854 548.466
343 0 58.43 12.9899 759 61.9473 908.573 548.149
344 0 59.4856 13.5159 804 61.2388 908.076 546.461
345 0 63.314 13.9621 884 59.8495 907.277 547.081
346 0 63.314 14.1043 893 146.625 906.283 546.985
347 0 68.4102 14.7639 1010 58.4396 908.135 544.907
348 0 66.4139 13.5815 902 61.3736 907.928 542.618
349 0 71.2216 13.3386 950 60.7726 906.959 542.385
350 0 72.1643 13.8296 998 60.9198 906.693 540.855
351 0 73.2632 14.6595 1074 59.8799 906.307 538.697
352 0 77.3225 13.8381 1070 60.5645 906.21 537.927
353 0 81.2599 13.3522 1085 61.271 905.429 537.061
354 0 82.3836 14.3475 1182 60.6836 905.396 535.331
355 0 84.4714 14.3244 1210 60.738 905.731 534.939
356 0 88.6867 14.5681 1292 60.4211 905.332 532.757
357 0 92.8009 14.9137 1384 59.8512 905.697 529.092
358 1 50.3304 11.7821 593 61.312 905.196 554.115
359 0 49.3334 13.0946 646 61.7461 905.721 554.232
360 0 53.3672 13.1729 703 61.6415 905.835 552.388
361 0 56.4179 13.6659 771 60.5149 905.669 552.075
362 0 56.495 13.8065 780 60.9718 906.576 551.338
363 0 56.4644 13.3004 751 62.0639 906.298 549.712
364 0 59.442 13.8959 826 60.7712 906.837 548.415
365 0 62.4621 15.3373 958 58.8539 906.803 548.756
366 0 63.4093 15.2817 969 59.5934 906.828 547.759
367 0 66.2594 14.4131 955 60.4084 907.049 546.501
368 0 69.2911 15.4998 1074 59.0438 906.948 545.45
369 0 70.2876 14.4407 1015 60.9064 906.743 543.087
370 0 70.2204 13.3864 940 62.4106 907.19 541.891
371 0 75.3703 15.3111 1154 59.2816 907.001 540.793
372 0 77.2798 14.7516 1140 60.1158 907.766 538.964
373 0 80.5083 14.6072 1176 59.9906 907.827 539.212
374 1 42.3241 10.7504 455 62.156 908.171 557.288
375 0 44.3229 11.7772 522 60.023 907.946 557.483
376 0 43.3816 12.148 527 58.8672 907.913 557.121
377 0 46.3893 12.8478 596 57.3238 907.928 554.332
378 0 48.4029 11.6935 566 58.9452 907.839 554.265
379 0 49.3302 14.1495 698 57.116 908.362 552.282
380 0 51.3027 13.7615 706 57.1983 908.113 551.099
381 0 52.3431 13.4497 704 57.7784 908.651 551.611
382 0 54.419 13.4328 731 58.2599 909.194 549.802
383 0 56.261 13.4729 758 57.8166 908.621 550.202
384 0 57.3069 13.8378 793 57.8285 909.016 547.628
385 0 60.3242 13.2617 800 58.3475 908.871 547.729
386 0 62.2979 14.6393 912 56.5307 909.061 546.041
387 0 63.3077 13.7424 870 57.8678 909.326 545.716
388 0 67.2657 14.019 943 57.1485 909.508 543.824
389 0 68.3774 14.303 978 57.0348 909.976 542.369
390 0 70.4312 14.5674 1026 57.1754 909.992 540.205
391 0 72.2471 15.5992 1127 56.2831 910.068 537.81
392 0 74.2075 15.1063 1121 57.3247 910.204 539.533
393 0 75.5628 13.5119 1021 59.5269 910.48 537.811
394 0 79.3382 15.5411 1233 57.5693 910.793 536.313
395 0 82.442 14.2525 1175 58.943 911.351 535.248
396 0 90.586 13.3685 1211 59.071 911.178 533.967
397 0 88.4257 15.0409 1330 58.7323 911.793 530.2
398 0 93.5943 14.5949 1366 59.0351 912.111 529.881
399 0 94.3816 15.5327 1466 58.4372 912.008 528.587
400 0 99.2933 14.8147 1471 59.2522 912.345 526.893
401 0 102.347 14.6756 1502 59.5885 912.28 524.767
402 0 106.224 14.6012 1551 59.7589 911.907 522.079
403 1 59.147 12.7141 752 58.883 911.564 547.133
404 0 58.2013 13.1612 766 60.3029 910.658 545.875
405 0 59.1202 12.2801 726 61.511 910.419 545.653
406 0 62.4114 13.5392 845 59.8012 911.961 544.544
407 0 64.3798 14.0883 907 59.903 911.935 542.674
408 0 65.3552 13.5567 886 60.7573 910.546 543.546
409 0 68.2521 13.7725 940 60.4053 910.393 541.824
410 0 71.2869 14.7152 1049 59.3317 910.717 539.167
411 0 74.2264 13.9304 1034 60.4081 910.792 539.475
412 0 76.2789 14.5781 1112 59.9919 911.368 537.142
413 0 80.2703 14.1771 1138 59.9622 911.125 536.87
414 1 41.1611 10.714 441 61.3787 909.351 555.868
415 0 42.1569 10.3186 435 62.8414 909.444 555.379
416 0 45.2229 10.5699 478 62.0167 909.793 553.651
417 0 48.1901 11.3924 549 61.6211 909.475 551.403
418 0 48.186 12.9291 623 61.0963 909.575 549.241
419 0 48.2176 12.1947 588 62.1769 909.389 549.726
420 0 51.153 13.489 690 60.2913 908.965 549.226
421 0 52.238 13.2662 693 60.3232 908.977 548.502
422 0 54.2249 13.2227 717 60.7978 908.731 548.686
423 0 54.2827 12.8218 696 61.5862 908.448 548.51
424 0 58.3044 13.8755 809 59.9382 909.471 547.313
425 0 60.3263 14.2392 859 59.7055 909.405 546.674
426 0 59.2326 13.7593 815 61.1521 909.06 545.456
427 0 62.2294 13.5467 843 61.3179 909.249 545.603
428 0 64.3242 13.3853 861 61.5923 909.072 544.226
429 0 67.2062 14.6564 985 60.5533 908.651 542.789
430 0 70.2261 14.7239 1034 60.1122 908.717 542.798
431 0 70.2564 14.0058 984 61.8425 908.363 541.551
432 0 71.4493 14.3039 1022 61.6458 908.243 542.064
433 0 74.1822 14.37 1066 61.1576 908.264 541.034
434 0 78.2398 16.2449 1271 58.7065 908.474 537.851
435 0 80.2893 14.1737 1138 61.3032 908.055 538.037
436 0 83.2248 14.7432 1227 60.674 908.394 536.23
437 0 85.3796 14.7225 1257 60.8807 908.349 534.618
438 0 90.1657 15.3273 1382 59.4588 908.202 534.2
439 1 48.2236 11.1564 538 61.9201 906.968 554.706
440 0 49.1752 11.4082 561 61.2531 906.918 554.907
441 0 50.2023 11.7524 590 61.2729 907.453 553.375
442 0 51.2718 12.4045 636 61.0613 907.825 553.074
443 0 53.3978 14.6073 780 59.0167 907.587 552.732
444 0 55.2843 14.4707 800 59.0862 907.544 552.533
445 0 55.3205 13.1777 729 61.1811 907.93 552.37
446 0 56.3417 14.3233 807 59.9331 908.206 551.47
447 0 60.2808 14.8969 898 58.9866 908.262 548.974
448 0 62.3129 13.9618 870 59.654 907.998 548.962
449 0 63.4117 13.1837 836 60.8421 907.646 548.728
450 0 64.3172 14.8172 953 59.2267 907.856 548.198
451 0 66.2674 13.3852 887 60.6426 907.016 548.311
452 0 69.3123 15.6105 1082 58.3226 907.409 544.605
453 0 71.3304 14.5941 1041 59.39 907.409 545.04
454 0 74.2909 14.8336 1102 59.0045 907.917 543.877
455 0 75.2817 14.3594 1081 60.0194 908.309 541.913
456 0 78.2328 15.0321 1176 59.1369 907.725 540.696
457 0 79.246 15.7863 1251 58.6587 907.709 540.705
458 0 83.2323 14.9942 1248 59.1202 907.55 539.279
459 0 86.217 14.7535 1272 59.0896 907.625 537.536
460 0 89.3367 15.3017 1367 58.8566 907.695 534.338
461 0 92.1509 15.1816 1399 59.0586 907.621 534.544
462 1 49.2082 13.2092 650 60.7785 907.282 554.249
463 0 50.1836 13.1318 659 61.1093 907.267 554.187
464 0 53.1651 12.9596 689 60.8984 907.652 552.456
465 0 55.3184 14.4437 799 59.4143 907.638 552.287
466 0 58.4468 14.2865 835 59.6934 907.309 551.192
467 0 56.2382 13.3539 751 61.6911 907.63 551.025
468 0 60.3118 13.8116 833 60.3938 908.168 550.061
469 0 62.248 14.5226 904 59.5763 908.025 549.087
470 0 63.2312 14.3284 906 59.9459 908.184 548.238
471 0 66.1842 14.0668 931 59.7669 907.716 548.493
472 0 68.2552 14.2846 975 60.32 908.194 545.533
473 0 68.3549 14.3955 984 60.7093 907.569 545.736
474 0 71.2108 13.7198 977 61.3828 907.865 544.794
475 0 74.322 14.7063 1093 60.4035 907.598 541.998
476 0 75.2999 14.077 1060 61.567 907.951 541.8
477 0 81.3263 14.2266 1157 60.72 908.127 541.316
478 0 83.252 15.5792 1297 59.5752 907.767 539.362
479 1 43.3116 10.5515 457 60.6893 906.505 561.387
480 0 44.1654 10.6192 469 62.0981 907.055 559.075
481 0 45.2659 12.526 567 60.4885 907.164 557.624
482 0 46.2343 11.6796 540 61.2 907.139 556.893
483 0 49.2173 13.2474 652 59.3083 907.258 555.966
484 0 49.2306 12.0047 591 61.511 906.816 556.695
485 0 52.1428 14.3644 749 58.996 906.915 555.491
486 0 53.1692 13.3348 709 60.7645 907.079 554.86
487 0 55.1647 13.2512 731 60.9083 907.178 553.906
488 0 56.2936 13.6428 768 60.224 907.206 553.664
489 0 57.5517 12.5626 723 62.0581 907.192 551.237
490 0 61.4804 13.0773 804 60.7363 907.297 551.412
491 0 62.5551 13.2683 830 60.6783 907.808 549.049
492 0 66.2987 13.3789 887 60.0857 907.653 549.502
493 0 69.3348 14.2785 990 59.6697 908.191 546.385
494 0 70.3572 14.5543 1024 59.5449 908.501 546.3
495 0 72.5931 13.7892 1001 60.1149 908.179 546.399
496 0 72.4634 12.6547 917 61.988 908.815 544.317
497 0 76.2976 13.893 1060 60.816 908.715 541.531
498 0 78.4336 13.3999 1051 61.1741 909.505 542.024
499 0 83.8096 13.9841 1172 60.6032 909.502 538.329
500 1 43.6806 10.6683 466 62.5773 909.794 558.614
501 0 43.5746 12.2319 533 61.2158 909.176 558.45
502 0 46.7622 12.1893 570 60.8053 909.363 557.37
503 0 49.3616 12.4996 617 60.3258 909.486 555.838
504 0 52.5426 14.3312 753 58.1952 909.625 553.223
505 0 52.442 13.1002 687 60.706 908.56 553.252
506 0 54.3752 13.8298 752 59.6888 908.949 552.68
507 0 57.3418 13.9863 802 59.2232 908.603 551.312
508 0 57.4667 13.5035 776 60.2062 908.555 551.026
509 0 58.5374 13.2223 774 60.1137 908.992 550.45
510 0 61.4409 13.6066 836 59.0897 908.501 550.262
511 0 63.3556 14.4423 915 58.1639 909.172 547.271
512 0 65.7063 13.5603 891 59.3771 908.78 547.244
513 0 67.6932 14.8021 1002 58.0599 908.842 547.604
514 0 70.9651 15.2469 1082 57.1959 908.428 545.644
515 0 75.6324 12.9045 976 59.1424 908.618 545.615
516 0 75.4902 15.0351 1135 57.7383 908.733 542.466
517 0 77.5855 14.2424 1105 57.0054 908.824 541.868
518 0 79.6271 14.6432 1166 56.4357 908.869 540.174
519 0 81.5752 13.791 1125 57.1458 909.337 538.732
520 0 86.674 14.9641 1297 55.4441 909.145 537.792
521 0 88.6036 14.9317 1323 55.7188 909.463 535.764
522 1 45.4592 12.9127 587 57.4463 909.31 554.175
523 0 48.5024 11.587 562 57.468 908.528 554.518
524 0 48.6293 12.8318 624 56.7933 908.002 554.401
525 0 52.3715 14.0534 736 54.7772 908.683 553.258
526 0 52.536 13.743 722 55.9044 908.873 551.557
527 0 52.5087 13.7882 724 55.9448 908.467 551.565
528 0 56.5322 14.5758 824 55.0425 908.483 548.931
529 0 56.3695 14.1743 799 54.9512 908.364 546.164
530 0 60.6218 14.0708 853 54.7667 908.995 545.203
531 0 62.6835 13.959 875 54.648 908.973 544.235
532 0 64.5535 13.8645 895 55.1844 909.185 542.983
533 0 66.6681 14.4597 964 54.8807 909.564 540.803
534 0 69.5875 13.8674 965 55.2933 909.334 543.103
535 0 69.6292 13.6724 952 55.6523 909.067 540.679
536 0 74.7008 14.3372 1071 54.6517 909.37 540.956
537 0 75.6045 14.4304 1091 55.2548 909.78 537.938
538 0 77.6028 14.1619 1099 55.5196 909.616 537.256
539 0 81.5973 15.3436 1252 54.4465 909.051 534.442
540 0 84.56 14.7114 1244 54.6543 909.187 534.767
541 1 44.3658 11.7658 522 56.2126 908.255 554.339
542 0 46.5416 12.3116 573 55.7696 908.538 553.695
543 0 44.3362 11.8188 524 56.6698 908.326 554.156
544 0 49.2695 12.8883 635 55.8378 907.798 552.674
545 0 50.3066 13.4575 677 55.548 908.275 552.95
546 0 52.3718 14.588 764 54.2264 908.476 551.637
547 0 52.2566 12.9936 679 56.7069 908.081 550.686
548 0 55.3734 14.8447 822 54.3041 908.551 549.796
549 0 55.4466 13.7429 762 56.6155 908.133 548.573
550 0 59.3229 15.0195 891 54.5185 908.349 547.787
551 0 61.3055 13.4246 823 56.52 908.456 547.798
552 0 62.4384 13.9017 868 56.4505 908.448 546.722
553 0 62.1241 14.3905 894 56.9497 909.043 545.733
554 0 66.3169 14.0085 929 57.3574 908.538 544.24
555 0 69.5524 13.8025 960 57.4906 908.348 544.181
556 0 70.1817 12.9236 907 59.269 908.066 542.9
557 0 74.3712 13.9167 1035 57.8222 907.898 542.575
558 0 76.2772 14.9717 1142 57.1769 908.748 539.009
559 0 80.3068 14.482 1163 57.356 908.485 538.927
560 0 82.1226 15.0628 1237 57.1205 908.22 537.008
561 1 41.0948 10.0013 411 56.4477 907.421 558.822
562 0 44.0896 11.4539 505 54.796 907.539 556.988
563 0 42.0468 8.75216 368 56.4049 907.717 558.804
564 0 44.1824 11.7015 517 55.2747 907.65 555.344
565 0 47.2079 13.3452 630 53.6921 907.425 554.694
566 0 48.3695 13.3348 645 54.538 907.93 553.814
567 0 50.2259 12.2447 615 54.9317 908.759 553.712
568 0 51.1564 12.3738 633 55.2227 908.769 552.817
569 0 53.4823 12.6023 674 54.8783 908.092 552.372
570 0 54.1834 12.4761 676 54.429 908.247 552.567
571 0 57.3143 12.3355 707 55.2107 908.122 551.407
572 0 58.1558 12.0366 700 55.39 908.127 549.897
573 0 59.2065 12.9884 769 54.5839 907.759 549.176
574 0 58.2046 12.9199 752 55.5319 907.274 548.189
575 0 60.3378 11.9991 724 56.7486 907.256 547.231
576 0 62.1733 13.3176 828 56.3696 906.923 546.401
577 0 66.2058 13.9565 924 55.1829 907.154 545.778
578 0 67.1512 12.8069 860 56.914 906.802 544.522
579 0 69.2697 12.574 871 57.2905 907.228 544.086
580 0 70.2766 12.3654 869 58.1772 906.959 542.44
581 0 71.1042 12.4747 887 57.6787 906.568 543.84
582 0 75.1933 13.7113 1031 56.451 906.606 542.632
583 0 76.1844 12.6404 963 58.136 906.409 539.386
584 0 79.1703 13.351 1057 57.3936 906.206 539.895
585 0 81.1868 13.6722 1110 57.473 905.927 537.675
586 0 84.2013 14.2516 1200 57.1183 905.573 535.358
587 0 85.2457 13.725 1170 57.7017 906.115 536.093
588 0 88.3279 13.6876 1209 57.933 905.958 535.54
589 1 44.2259 10.989 486 56.1893 905.566 559.06
590 0 45.3547 10.5171 477 57.2746 906.082 557.369
591 0 49.4333 12.7445 630 54.4794 906.13 556.3
592 0 47.3335 11.1338 527 56.9298 906.431 556.455
593 0 50.4457 12.6869 640 55.6734 905.716 555.414
594 0 52.4361 12.5677 659 55.8027 906.035 554.114
595 0 52.4361 12.5486 658 145.558 906.044 554.131
596 0 56.3722 12.9319 729 54.4582 905.882 552.243
597 0 56.2789 12.5269 705 55.0184 905.974 552.59
598 0 61.2764 13.0066 797 53.7666 905.764 551.852
599 0 59.2501 10.9198 647 57.1762 906.216 550.895
600 0 65.3595 13.0815 855 54.1836 905.894 549.18
601 0 66.2697 13.596 901 53.7159 905.037 549.444
602 0 65.2813 12.6223 824 55.6638 905.587 548.14
603 0 71.2475 13.811 984 53.7195 905.666 545.51
604 0 72.2193 11.7835 851 54.7908 905.331 547.51
605 0 73.2319 12.3307 903 54.4961 905.431 546.591
606 0 77.2161 12.7694 986 54.4462 905.617 544.333
607 0 79.1289 13.5475 1072 55.4468 905.027 543.855
608 0 82.2557 14.0659 1157 56.083 905.417 543.017
609 0 83.3208 12.4459 1037 58.0386 905.557 542.259
610 0 85.3647 13.0265 1112 58.5522 905.969 538.603
611 0 87.492 12.5954 1102 59.8893 906.005 538.401
612 0 89.353 12.6689 1132 59.5009 906.376 536.117
613 1 46.2595 11.3923 527 59.9374 905.786 557.628
614 0 47.2882 11.7788 557 60.3662 906.039 555.657
615 0 48.3915 12.1302 587 59.4736 905.38 555.264
616 0 51.2406 13.4464 689 58.4906 905.999 554.737
617 0 52.3355 13.8338 724 57.7459 905.577 554.496
618 0 55.3376 13.011 720 59.0167 905.486 553.06
619 0 57.3728 14.0485 806 57.2705 905.8 551.789
620 0 59.3894 14.4807 860 56.6337 905.786 550.622
621 0 60.2755 12.6917 765 59.2196 905.936 550.529
622 0 63.4089 13.4681 854 58.9145 906.487 548.484
623 0 63.2548 13.5326 856 58.5362 906.216 548.793
624 1 31.0604 9.7552 303 60.868 904.439 564.013
625 0 33.2861 10.1243 337 59.8902 905.08 563.053
626 0 32.2785 10.4094 336 60.2024 905.664 562.75
627 0 36.3053 12.3123 447 58.5123 905.993 561.649
628 0 38.3137 12.3716 474 58.1224 906.131 561.194
629 0 37.3028 11.6613 435 60.5793 906.039 561.425
630 0 40.4982 12.6919 514 58.8016 906.29 559.484
631 0 41.3441 12.0936 500 58.622 906.882 560.186
632 0 44.2317 13.1128 580 57.6862 906.397 559.176
633 0 44.3098 12.1192 537 60.298 906.732 558.54
634 0 46.3568 12.3822 574 59.0261 906.937 557.486
635 0 46.4555 13.0663 607 59.0774 907.282 556
636 0 48.35 12.2234 591 59.4907 907.387 555.959
637 0 50.4861 12.4985 631 58.7036 907.384 554.469
638 0 52.47 11.6066 609 59.2282 908.279 555.571
639 0 53.327 13.2391 706 57.4093 907.3 554.169
640 0 54.3697 12.8196 697 57.8092 908.496 551.864
641 0 57.3224 13.8166 792 56.0871 907.851 552.283
642 0 59.4299 13.5117 803 56.3611 907.922 552.8
643 0 60.355 12.9401 781 57.1793 908.273 550.174
644 0 60.3338 12.7623 770 57.4052 908.064 550.129
645 0 64.2848 13.0046 836 57.012 907.943 548.1
646 0 65.3405 13.5291 884 57.0147 908.367 546.09
647 0 68.3542 12.6108 862 57.2842 908.553 546.466
648 1 35.2164 9.02988 318 59.3302 907.34 561.953
649 0 38.0771 11.6343 443 57.0993 907.077 559.44
650 0 39.0902 10.6932 418 57.8852 907.318 558.99
651 0 39.0745 10.2624 401 58.4514 907.456 558.217
652 0 43.0447 11.8714 511 56.9628 907.869 556.532
653 0 45.1208 12.6106 569 54.8453 908.193 556.866
654 0 46.105 12.4715 575 55.4887 908.551 555.21
655 0 46.3461 13.0108 603 55.8706 908.751 553.6
656 0 48.379 13.3322 645 55.0713 908.786 552.271
657 0 47.4516 13.0238 618 55.9029 909.306 552.892
658 0 50.296 14.017 705 54.8142 908.857 550.457
659 0 53.4104 14.0796 752 54.1197 909.154 551.064
660 0 53.2785 12.7819 681 55.3524 908.743 550.696
661 0 56.3358 13.597 766 54.4321 909.418 548.89
662 0 58.2872 13.0217 759 55.1383 909.721 547.456
663 0 59.395 13.587 807 55.0979 909.637 546.048
664 0 59.2686 13.9703 828 55.1932 909.694 547.012
665 0 63.304 13.0008 823 55.5614 909.945 545.327
666 0 66.3465 14.2434 945 54.4402 910.52 544.076
667 0 66.4321 14.2551 947 55.0433 910.477 542.06
668 0 69.2854 14.6784 1017 54.4179 910.428 541.22
669 0 68.3324 13.5368 925 55.8141 910.879 538.837
670 0 72.1189 14.1017 1017 54.5152 911.132 538.893
671 0 74.274 13.2348 983 56.295 910.936 537.881
672 0 78.2115 13.6169 1065 55.6714 910.919 537.297
673 0 79.3108 14.2351 1129 55.3109 911.608 533.943
674 0 84.331 14.2415 1201 54.8268 911.228 534.383
675 0 84.2098 13.787 1161 56.0284 911.147 531.904
676 0 91.2045 12.7625 1164 56.4416 911.42 532.987
677 0 90.1575 14.6078 1317 55.284 911.528 531.664
678 0 91.2336 13.0325 1189 57.0294 911.453 529.769
679 0 95.2666 13.415 1278 56.802 911.923 525.871
680 0 99.4559 15.1323 1505 55.0777 912.597 522.756
681 0 103.355 15.6935 1622 54.4279 912.388 518.086
682 0 106.368 15.0139 1597 54.6124 913.101 518.415
683 0 109.342 14.8891 1628 54.828 912.853 518.326
684 0 111.441 13.2986 1482 57.2571 912.91 513.682
685 1 60.2238 12.8022 771 56.4345 912.122 540.549
686 0 60.1574 12.4174 747 57.2289 912.316 540.078
687 0 63.3174 12.6348 800 56.9688 910.893 545.374
688 0 64.2487 13.1053 842 57.1841 911.449 542.758
689 0 68.3181 13.1151 896 57.8873 911.472 542.78
690 0 72.3822 14.8241 1073 56.4809 911.519 538.419
691 0 74.225 13.8498 1028 57.499 911.286 538.515
692 0 75.1763 14.3928 1082 57.1063 911.685 537.345
693 0 78.2259 14.9311 1168 57.1584 911.484 537.201
694 0 81.2155 14.7755 1200 56.335 911.648 535.035
695 0 86.2854 15.2169 1313 55.9863 911.318 532.936
696 0 89.249 15.0142 1340 56.5634 911.407 530.911
697 0 93.3332 15.3857 1436 56.2493 911.42 528.905
698 0 95.2486 13.218 1259 58.7101 911.129 528.427
699 0 98.1348 15.01 1473 56.8663 911.158 526.099
700 0 102.211 15.4387 1578 56.7345 910.641 523.603
701 1 51.2549 11.5306 591 57.7479 909.452 549.775
702 0 51.1849 11.3315 580 59.8052 909.993 548.664
703 0 51.1849 11.351 581 171.403 910.003 548.627
704 0 57.1894 12.2575 701 56.4879 911.13 547.093
705 0 57.3099 12.9297 741 57.6653 911.135 543.124
706 0 59.1689 12.8953 763 57.9476 910.889 538.754
707 0 62.1782 13.4131 834 56.4856 910.18 541.261
708 0 63.195 13.3713 845 56.7325 910.424 539.33
709 0 65.2542 14.1447 923 57.4269 909.347 542.119
710 0 69.2248 14.3012 990 56.8384 909.653 539.28
711 0 71.3151 13.9942 998 57.5681 909.723 539.371
712 0 73.3078 13.8185 1013 58.0928 909.249 537.891
713 0 76.1403 14.447 1100 57.7145 909.261 537.35
714 0 79.1245 13.9274 1102 58.0717 909.387 537.899
715 0 80.1429 13.1515 1054 58.6964 908.932 537.203
716 0 83.0978 14.7056 1222 57.7766 908.919 532.947
717 0 87.1124 13.9016 1211 57.7349 907.727 532.123
718 0 90.0837 14.7307 1327 57.6345 907.992 533.105
719 0 90.1134 13.0835 1179 59.5852 907.759 531.077
720 0 94.1219 14.3537 1351 58.0392 907.915 530.181
721 0 97.0888 13.9563 1355 58.2878 907.761 526.014
722 0 102.207 14.4902 1481 57.2228 907.234 526.105
723 1 52.0314 11.3201 589 58.2224 907.239 549.07
724 0 56.0144 11.9969 672 56.2515 907.879 548.366
725 0 56.0266 11.4588 642 58.2414 907.394 547.184
726 0 59.158 13.185 780 55.2064 907.176 547.265
727 0 62.3212 13.6872 853 55.2298 907.58 547.315
728 0 62.3212 13.639 850 147.306 908.567 547.362
729 0 63.3121 12.3515 782 57.0627 907.09 545.419
730 0 69.3717 14.7755 1025 53.4976 906.616 545.354
731 0 68.3554 13.9272 952 54.6891 906.966 543.444
732 0 72.2409 14.0364 1014 53.8619 906.816 543.353
733 0 76.2381 14.4547 1102 52.8131 906.894 542.415
734 0 76.2924 14.4575 1103 54.0245 906.937 540.621
735 0 78.2733 13.9256 1090 54.0624 906.496 539.371
736 0 83.1126 12.2725 1020 55.351 905.728 540.134
737 0 84.2098 13.3001 1120 54.6884 905.614 539.531
738 0 89.2796 12.6793 1132 55.1051 906.401 536.807
739 0 91.2239 15.9607 1456 52.3702 906.661 534.153
740 0 90.2835 13.9671 1261 54.7772 906.23 535.244
741 0 94.3009 14.2629 1345 55.0632 906.03 531.914
742 0 97.3762 13.9254 1356 54.885 905.787 531.658
743 0 96.2561 13.89 1337 55.807 905.728 532.518
744 1 53.2103 10.8814 579 56.7098 904.839 553.713
745 0 53.0793 11.1343 591 57.8257 904.379 551.45
746 0 57.1408 12.618 721 55.4105 904.089 550.484
747 0 60.0436 11.1086 667 55.7031 904.013 550.442
748 0 60.0436 11.0087 661 153.313 905.03 550.455
749 0 65.1882 13.5454 883 54.7248 903.883 546.951
750 0 66.1002 14.0544 929 53.7653 903.905 546.069
751 0 68.0911 13.5113 920 54.3913 903.73 546.35
752 0 71.1724 13.8958 989 54.3266 903.765 544.594
753 0 78.3962 12.9471 1015 54.7606 903.279 543.726
754 0 78.1111 13.7881 1077 54.4262 903.813 542.696
755 0 77.1672 14.9805 1156 54.6306 904.055 540.082
756 0 80.305 14.557 1169 54.799 904.282 540.298
757 0 85.2064 15.0458 1282 54.0749 904.244 540.028
758 0 83.3159 13.2148 1101 57.2371 904.446 538.216
759 0 87.3279 14.7376 1287 55.5975 904.343 537.302
760 0 89.3992 14.2731 1276 56.8292 904.241 535.564
761 0 93.349 14.2905 1334 56.6754 903.947 534.873
762 0 96.627 14.7992 1430 56.6657 904.411 532.852
763 1 47.3299 11.367 538 59.0316 903.45 555.229
764 0 53.2445 10.5363 561 58.2335 903.508 555.626
765 0 54.3432 11.4458 622 58.5675 903.172 553.002
766 0 55.3317 11.1329 616 59.1201 904.063 554.104
767 0 59.3544 13.0066 772 56.9611 904.365 552.071
768 0 59.4514 11.8752 706 58.7875 904.354 550.375
769 0 63.215 14.2055 898 55.8118 904.224 548.896
770 0 67.272 14.8056 996 55.3253 904.151 548.482
771 0 68.3696 13.0906 895 57.2883 904.03 547.437
772 0 68.1869 13.639 930 57.757 904.296 546.454
773 0 71.2919 13.3255 950 58.0011 904.204 545.558
774 0 77.5216 14.3831 1115 55.6 903.657 545.23
775 0 78.6152 13.865 1090 56.8817 903.677 543.265
776 0 81.5614 14.3941 1174 56.1525 903.95 543.584
777 0 81.5668 13.4368 1096 58.7454 904.528 539.286
778 0 86.63 14.7293 1276 56.7649 904.643 538.076
779 0 88.5037 13.9994 1239 57.9653 904.764 536.403
780 0 92.6052 14.9452 1384 56.5 904.828 537.264
781 1 46.3522 11.0674 513 60.3255 904.113 557.189
782 0 47.2511 10.6241 502 60.2729 905.498 556.797
783 0 50.074 11.7426 588 58.9031 904.463 556
784 0 50.0952 12.4962 626 59.5128 905.04 553.923
785 0 53.0513 13.8168 733 58.1392 905.693 552.488
786 0 54.0804 12.6663 685 58.6672 905.958 553.826
787 0 56.1919 13.9522 784 58.2793 905.824 551.994
788 0 56.1628 13.2828 746 58.9893 905.993 551.881
789 0 60.1642 13.6792 823 58.2394 906.135 549.584
790 0 62.2656 12.5109 779 59.1553 906.754 549.573
791 0 64.1491 13.6869 878 58.4112 907.108 546.41
792 0 65.1999 13.9111 907 58.2977 906.645 544.766
793 0 67.2259 14.5033 975 57.5026 906.179 546.172
794 0 68.1612 12.8225 874 59.1316 906.215 545.301
795 0 72.1351 14.2094 1025 57.8117 906.381 542.858
796 0 72.1929 14.1288 1020 58.1637 906.92 541.596
797 0 76.1155 14.9904 1141 56.688 906.761 541.328
798 0 79.1289 14.4701 1145 57.2445 907.286 539.106
799 0 82.2651 15.0246 1236 56.9984 907.328 538.394
800 0 83.134 14.615 1215 57.4403 907.655 536.519
801 0 87.0871 14.1008 1228 57.4813 907.507 535.884
802 0 90.1771 14.4715 1305 56.8506 907.73 533.081
803 1 49.0292 10.1164 496 57.7319 906.859 555.391
804 0 49.0476 12.2534 601 56.4709 906.611 552.336
805 0 49.05 11.7431 576 57.3681 906.665 552.894
806 0 53.0504 12.4975 663 55.6561 906.86 552.216
807 0 55.0434 12.263 675 55.2074 907.209 549.87
808 0 56.017 13.1746 738 54.3388 907.43 550.007
809 0 57.035 13.4654 768 54.4674 907.503 548.754
810 0 61.1374 13.9031 850 53.3459 907.495 548.241
811 0 62.18 13.5735 844 53.5462 908.461 548.261
812 0 61.1023 13.191 806 54.639 908.208 548.145
813 0 64.1279 14.206 911 53.8046 908.412 546.752
814 0 66.0633 13.3054 879 55.2196 908.537 544.34
815 0 68.1075 14.345 977 53.7298 908.588 544.289
816 0 71.1821 13.908 990 54.0343 908.603 541.962
817 0 72.2149 13.0721 944 54.982 908.708 540.395
818 0 75.4038 14.7075 1109 53.5428 908.901 539.95
819 0 75.0697 12.8148 962 55.6362 909.193 540.332
820 0 78.1617 13.7152 1072 54.9198 908.928 538.155
821 0 82.2959 14.1198 1162 54.7444 907.818 535.107
822 0 85.518 13.3422 1141 55.4882 908.076 535.034
823 0 88.4553 13.6566 1208 55.8535 907.534 531.997
824 0 90.3552 13.6351 1232 55.345 908.02 534.14
825 1 49.0426 12.6217 619 53.9386 907.887 553.032
826 0 50.0593 12.685 635 53.8268 907.983 551.998
827 0 50.0281 12.513 626 54.4952 907.778 552.163
828 0 52.0796 12.5577 654 54.3028 908.15 550.521
829 0 53.0916 13.0717 694 54.255 907.911 549.849
830 0 56.1728 12.7286 715 53.9035 908.659 550.408
831 0 55.1946 13.1897 728 54.9286 908.775 547.776
832 0 56.0788 12.6786 711 55.5345 908.606 550.091
833 0 60.1846 13.5251 814 54.3514 908.192 548.103
834 0 60.0835 13.0319 783 55.1418 907.912 546.29
835 0 64.2035 12.9588 832 55.0072 907.869 545.321
836 0 66.2761 13.308 882 53.7993 907.908 544.198
837 0 68.1472 12.8692 877 54.2759 907.673 543.936
838 0 69.1409 14.362 993 53.7774 907.346 542.021
839 0 71.1375 13.7199 976 54.2951 907.167 541.432
840 0 74.1315 13.0309 966 54.6832 907.256 539.217
841 0 76.1797 12.4836 951 54.8812 906.944 539.27
842 0 80.1284 13.1414 1053 54.321 906.212 537.023
843 0 81.1831 12.4287 1009 54.8672 906.519 536.172
844 0 82.196 13.1028 1077 55.1003 905.931 536.392
845 1 45.0837 10.7356 484 52.8161 905.915 555.151
846 0 45.0471 9.23477 416 53.6442 905.764 555.974
847 0 49.071 11.9623 587 51.6252 905.94 553.567
848 0 47.0875 10.3425 487 53.2608 906.421 553.388
849 0 51.1896 11.8969 609 52.0493 906.929 552.91
850 0 55.1304 11.1372 614 52.1629 907.204 553.534
851 0 54.1984 11.052 599 53.2705 906.873 551.755
852 0 57.239 12.4915 715 51.3483 906.645 551.429
853 0 59.2236 13.2886 787 50.5489 906.91 550.668
854 0 57.1916 11.9598 684 52.3333 906.803 549.404
855 0 60.1486 12.2696 738 52.0542 906.785 548.973
856 0 63.4864 12.3806 786 51.3066 906.743 547.417
857 0 62.2512 11.807 735 52.3714 906.729 545.678
858 0 67.2173 12.0505 810 51.7136 906.531 546.163
859 0 70.1933 11.6535 818 51.1601 905.945 547.967
860 0 71.2904 12.1054 863 50.6454 906.683 542.758
861 0 75.234 13.1324 988 49.5374 906.788 541.56
862 0 77.4466 12.2665 950 50.1674 906.823 544.242
863 0 81.214 13.803 1121 49.1543 907.172 539.706
864 1 45.0069 9.10972 410 51.2415 905.983 559.988
865 0 43.0176 9.11256 392 52.0128 905.329 558.929
866 0 46.0605 12.4185 572 50.0839 905.28 555.781
867 0 47.1086 11.2294 529 52.6257 905.338 554.34
868 0 50.1775 12.7348 639 49.5133 905.626 554.355
869 0 50.1003 11.0778 555 52.4306 905.852 554.685
870 0 51.1765 12.9356 662 51.4471 904.92 553.085
871 0 54.0996 12.3846 670 52.097 904.584 552.642
872 0 54.0815 12.4812 675 52.0356 904.693 553.329
873 0 54.152 12.0586 653 53.1118 905.596 550.64
874 0 60.2009 12.7739 769 51.3641 905.849 550.706
875 0 57.2196 12.5307 717 52.7838 905.37 549.285
876 0 62.224 12.6318 786 52.3244 905.397 549.791
877 0 63.1655 12.6493 799 52.6871 905.193 547.959
878 0 62.261 11.9818 746 53.8378 905.377 547.957
879 0 67.1987 13.0657 878 52.7677 905.427 545.495
880 0 68.2519 11.7652 803 55.7447 905.315 545.493
881 0 73.1802 12.7084 930 53.9559 905.187 545.533
882 0 73.1797 12.4898 914 54.5919 905.062 542.085
883 0 75.1671 12.8913 969 54.2405 905.599 540.808
884 0 80.1401 12.5405 1005 53.5333 904.993 540.2
885 1 41.0223 9.62892 395 54.1949 904.276 559.392
886 0 43.0897 10.0488 433 54.0947 904.958 557.617
887 0 44.0269 10.857 478 53.7385 904.895 557.285
888 0 48.0985 11.2893 543 53.4383 904.418 556.917
889 0 48.4828 11.6742 566 54.371 904.694 555.89
890 0 50.427 12.3545 623 58.6661 905.095 553.051
891 0 52.2918 11.5315 603 72.9187 905.692 552.735
892 0 53.568 12.7128 681 54.9192 905.784 550.253
893 0 54.4605 13.5328 737 53.057 905.996 550.438
894 0 56.3785 12.5048 705 54.4496 906.607 549.204
895 0 60.4037 13.9727 844 52.231 906.96 547.44
896 0 60.4037 14.0058 846 149.856 907.963 547.422
897 0 62.6316 15.4076 965 51.8363 906.858 545.081
898 0 61.4246 14.3591 882 53.8016 907.728 545.711
899 0 66.4507 13.9652 928 53.3017 908.113 544.988
900 0 66.4411 13.2147 878 55.0535 907.822 546.37
901 0 66.4411 13.1997 877 154.448 907.829 546.382
902 0 69.3144 13.9942 970 55.1186 908.198 541.129
903 0 71.3906 13.9374 995 54.9839 908.301 540.233
904 0 74.3225 14.2756 1061 54.7069 908.626 540.189
905 0 76.3238 14.242 1087 55.2162 908.32 539.3
906 0 79.2744 14.5192 1151 55.099 908.257 538.468
907 1 40.2643 11.1761 450 57.8222 907.116 556.451
908 0 43.1845 10.513 454 57.8965 907.051 556.394
909 0 43.1942 11.7608 508 57.4665 907.425 553.856
910 0 44.2263 12.3908 548 56.9854 907.615 553.639
911 0 46.3604 11.5185 534 58.6311 909.549 553.749
912 0 47.5762 12.4222 591 58.8156 908.91 552.134
913 0 50.5859 12.9285 654 58.2125 908.885 550.908
914 0 50.3816 12.8817 649 58.9045 908.969 551.616
915 0 52.5468 13.4356 706 58.6275 909.343 549.343
916 0 54.5428 14.1357 771 57.4475 909.981 548.1
917 0 57.4426 13.5788 780 57.7705 910.181 548.127
918 0 58.3263 13.6645 797 59.4053 910.235 548.281
919 0 58.2449 13.4604 784 60.9031 910.408 546.728
920 0 62.303 13.964 870 59.4586 910.477 546.58
921 0 61.2573 15.0186 920 59.8837 910.597 543.672
922 0 63.3221 13.7709 872 60.9507 910.466 544.138
923 0 66.3377 14.3508 952 60.5105 910.866 542.437
924 0 68.3065 14.2446 973 60.8705 910.936 542.059
925 0 71.2301 15.12 1077 59.3435 911.359 541.3
926 0 73.3844 15.6573 1149 59.201 910.809 540.152
927 0 75.2692 15.8498 1193 58.8868 911.877 539.044
928 0 77.1425 13.8445 1068 61.794 911.407 536.719
929 0 80.3198 14.6913 1180 60.5339 911.227 537.586
930 0 80.3198 14.6913 1180 171.654 910.227 537.586
931 1 40.0734 11.2294 450 61.9556 910.496 557.076
932 0 39.1238 11.7064 458 62.2664 910.688 557.26
933 0 43.0451 10.7329 462 62.4113 910.152 556.091
934 0 45.0543 12.2519 552 62.0163 910.21 554.12
935 0 45.0223 12.0607 543 62.5893 909.61 553.394
936 0 49.1337 13.4327 660 61.1091 911.282 551.536
937 0 48.1084 13.2825 639 62.2864 910.507 552.249
938 0 47.0935 12.5707 592 173.568 910.615 551.632
939 0 55.3072 14.1031 780 61.0026 909.551 548.267
940 0 57.2852 13.1098 751 61.9587 910.198 550.386
941 0 57.2045 14.0723 805 61.6099 910.154 549.163
942 0 57.1998 13.8462 792 62.4444 909.585 547.904
943 0 57.1998 13.8287 791 176.836 908.575 547.933
944 0 62.246 14.2981 890 61.636 909.473 547.135
945 0 62.2313 14.2211 885 62.2136 909.329 544.948
946 0 64.223 13.4064 861 63.2021 909.429 545.137
947 0 67.1628 14.5616 978 61.6227 909.061 543.437
948 0 69.2111 14.9976 1038 60.9432 908.918 542.477
949 0 74.1831 14.289 1060 61.133 908.725 539.902
950 0 75.1339 13.7754 1035 61.8628 908.418 539.485
951 0 78.199 14.3864 1125 60.8267 908.394 539.823
952 0 80.075 14.2866 1144 62.2369 908.47 537.093
953 0 82.1969 14.3679 1181 62.4725 908.351 536.286
954 0 87.1959 15.1498 1321 60.7411 908.799 532.941
955 0 90.2462 14.5823 1316 60.8685 908.143 533.432
956 1 44.1045 11.4728 506 63.5375 907.182 554.613
957 0 43.031 11.6195 500 64.268 907.682 555.14
958 0 46.1061 12.4495 574 61.7735 907.643 554.028
959 0 48.2071 12.6122 608 61.597 907.141 553.452
960 0 49.2899 13.7351 677 60.13 907.679 554.35
961 0 50.1636 13.3364 669 61.6248 907.871 552.888
962 0 53.2047 13.1943 702 61.4573 907.61 551.688
963 0 51.1365 13.1609 673 63.0579 907.887 550.88
964 0 56.1273 14.0395 788 61.0787 908.025 549.744
965 0 56.1321 14.4124 809 61.1842 907.716 547.669
966 0 58.1809 15.1768 883 60.0215 907.68 547.815
967 0 61.1789 14.4494 884 60.983 908.389 547.523
968 0 63.2642 14.0364 888 61.4122 908.079 546.126
969 0 65.2772 15.212 993 60.5196 908.189 544.68
970 0 67.241 14.2621 959 62.147 908.352 545.02
971 0 68.2171 14.6737 1001 62.3526 908.384 542.755
972 0 70.1637 14.7085 1032 62.2548 907.888 541.018
973 0 73.0671 14.6851 1073 62.5377 908.062 540.419
974 0 76.0752 13.8284 1052 63.6112 908.194 540.269
975 0 79.1597 15.6645 1240 61.8532 907.836 537.331
976 0 80.1566 14.4966 1162 63.8434 907.798 537.034
977 0 84.1885 14.4675 1218 64.0993 907.346 535.574
978 0 87.1562 14.5715 1270 63.8693 907.538 535.569
979 0 86.2537 15.2457 1315 64.2046 907.406 534.515
980 0 90.2464 14.538 1312 65.1654 907.606 533.034
981 0 95.239 14.6999 1400 64.8479 907.596 531.211
982 0 95.2806 15.3127 1459 64.5826 907.774 528.816
983 0 98.2332 14.8422 1458 65.4074 907.61 529.29
984 1 54.2746 12.3999 673 66.5394 906.254 552.869
985 0 55.3175 13.6304 754 65.6286 906.531 551.614
986 0 55.1305 13.0599 720 67.0181 906.694 551.418
987 0 58.0558 14.2794 829 66.392 906.526 548.118
988 0 61.1205 13.9069 850 65.7894 906.786 548.895
989 0 62.1135 14.2964 888 65.3029 907.068 547.159
990 0 66.2523 13.6599 905 65.3867 906.755 546.986
991 0 67.2062 13.5999 914 66.0186 906.473 546.004
992 0 71.2 14.2556 1015 64.0857 906.551 545.469
993 0 74.1491 12.9739 962 66.7266 907.015 542.923
994 0 77.2976 14.7482 1140 64.3149 906.236 541.366
995 0 80.2319 15.0563 1208 64.0488 906.958 538.511
996 1 43.1185 11.7351 506 65.2846 905.672 558.362
997 0 44.0557 12.1664 536 66.3526 905.026 557.7
998 0 47.1111 10.6981 504 67.0476 905.81 557.925
999 0 47.117 12.7979 603 66.1774 906.032 555.668
1000 0 49.0657 13.1253 644 65.941 905.846 553.984
1001 0 51.3722 12.6528 650 66.7662 905.946 554.577
1002 0 52.2939 13.2903 695 66.0561 906.224 553.764
1003 0 53.2685 12.6153 672 67.0223 905.827 552.167
1004 0 55.2418 13.7577 760 66.2421 905.368 552.259
1005 0 57.3134 14.6214 838 64.8974 906.169 551.909
1006 0 59.3773 13.7089 814 66.2273 906.404 549.195
1007 0 60.2197 14.5966 879 65.4733 906.702 548.908
1008 0 61.1843 13.7127 839 67.2622 906.754 548.653
1009 0 62.1402 13.5339 841 68.4697 906.615 547.793
1010 0 65.1765 14.0081 913 67.8751 906.042 547.131
1011 0 68.2361 14.1274 964 69.1473 906.511 546.326
1012 0 70.2677 14.1601 995 68.3327 906.26 545.731
1013 0 71.2074 14.4929 1032 69.8556 906.215 543.197
1014 0 73.1563 14.5442 1064 70.5056 906.27 542.271
1015 0 76.2309 14.7447 1124 69.6335 906.246 541.662
1016 1 42.1675 11.4306 482 71.8133 905.17 557.672
1017 0 42.0398 10.7755 453 72.3819 906.141 558.139
1018 0 44.0465 12.2144 538 68.948 906.359 557.981
1019 0 45.0299 11.8366 533 69.9193 906.917 557.623
1020 0 48.0722 12.5228 602 68.0515 907.254 556.246
1021 0 47.0469 12.5832 592 69.6385 907.042 555.323
1022 0 50.0391 12.6301 632 68.5775 907.085 554.949
1023 0 50.0265 11.7937 590 70.6203 906.922 554.09
1024 0 52.0205 13.2448 689 68.4543 907.237 553.192
1025 0 54.1774 13.6035 737 68.0014 907.028 553.697
1026 0 55.201 12.844 709 69.0268 906.938 551.92
1027 0 57.2605 13.6045 779 67.4121 907.085 552.335
1028 0 58.136 14.8101 861 66.1928 908.098 551.016
1029 0 60.2627 13.4909 813 68.2964 907.903 549.8
1030 0 61.1783 14.8909 911 66.4687 907.954 548.812
1031 0 65.1617 13.8732 904 66.9956 907.689 547.696
1032 0 66.2019 14.924 988 66.2713 907.634 547.077
1033 0 66.1575 14.1783 938 67.3945 907.608 546.116
1034 0 69.2232 13.9982 969 67.2374 907.967 544.657
1035 0 73.1516 13.5335 990 67.501 908.129 543.843
1036 0 76.1125 13.7691 1048 67.6307 908.474 542.255
1037 0 77.194 14.3664 1109 67.4959 908.609 540.539
1038 0 81.2633 15.0868 1226 65.7365 909.238 539.197
1039 0 84.143 14.2258 1197 66.9231 909.631 537.424
1040 0 87.2662 15.0001 1309 65.3063 909.946 536.93
1041 0 90.2676 15.8085 1427 64.4191 910.308 533.84
1042 0 92.2216 14.2158 1311 66.6651 910.057 531.719
1043 0 95.3142 15.4122 1469 64.6773 910.304 530.89
1044 1 54.1469 12.0228 651 67.4393 909.407 552.713
1045 0 55.2424 10.7888 596 68.9128 909.3 552.676
1046 0 58.1777 12.1009 704 66.4588 911.439 549.398
1047 0 59.1489 12.1558 719 66.2587 911.381 550.249
1048 0 60.2343 12.6008 759 65.7418 910.904 549.827
1049 0 63.1199 13.1654 831 64.2599 911.308 548.58
1050 0 62.2713 13.2967 828 63.9662 910.529 548.825
1051 0 64.1907 13.3041 854 64.5293 910.601 547.358
1052 0 69.1645 13.692 947 63.7392 911.211 545.069
1053 0 69.2424 12.7523 883 64.3579 911.371 544.166
1054 0 72.3155 12.9571 937 64.3554 911.851 542.448
1055 0 76.3646 13.8808 1060 63.4962 911.692 539.352
1056 0 76.3559 12.5858 961 65.2685 911.497 539.912
1057 0 79.4436 13.0659 1038 63.8632 911.118 537.882
1058 0 82.5688 13.2253 1092 63.8489 910.591 535.058
1059 0 86.5023 13.0517 1129 65.7263 910.557 532.8
1060 1 43.4077 10.0443 436 64.9312 909.686 554.787
1061 0 43.5008 9.86188 429 65.1189 910.294 553.795
1062 0 47.0672 11.9829 564 62.7642 911.316 553.668
1063 0 48.1106 11.432 550 65.2836 910.193 555.796
1064 0 49.2302 13.1627 648 62.3272 910.519 554.872
1065 0 49.146 12.6155 620 64.0016 910.695 552.906
1066 0 51.3883 12.8823 662 63.5755 910.76 551.872
1067 0 52.2818 13.6568 714 63.07 910.459 552.025
1068 0 54.2503 13.0506 708 63.5141 910.168 550.102
1069 0 56.2818 13.0593 735 62.4408 909.992 550.452
1070 0 57.2448 13.189 755 62.3775 909.649 550.527
1071 0 59.349 12.9067 766 62.6762 908.807 547.927
1072 0 61.3186 13.3075 816 62.1017 909.224 547.781
1073 0 63.2496 14.1977 898 60.5189 909.595 546.359
1074 0 64.2071 13.254 851 61.8273 909.382 546.008
1075 0 65.1818 12.6722 826 62.023 908.812 544.507
1076 0 69.1903 14.1349 978 60.4816 908.93 542.687
1077 0 72.2311 13.9967 1011 60.1909 909.118 542.833
1078 0 76.1067 14.3614 1093 60.0686 908.753 539.543
1079 0 77.1648 13.5036 1042 61.2965 908.164 539.392
1080 0 78.3049 13.2176 1035 61.7556 907.907 537.048
1081 0 82.1459 14.1699 1164 60.3643 908.426 536.57
1082 0 85.2198 13.8583 1181 60.0517 908.161 535.876
1083 0 84.1758 13.0679 1100 61.1845 908.062 535.169
1084 1 44.2908 12.2147 541 60.7948 907.336 554.756
1085 0 45.1108 13.1897 595 59.5092 908.41 555.309
1086 0 43.2309 12.0978 523 61.7572 908.717 554.901
1087 0 45.2334 13.2645 600 60.5 908.927 553.928
1088 0 47.2967 13.0242 616 60.5308 908.904 553.752
1089 0 48.3643 13.3776 647 60.1005 908.779 553.47
1090 0 49.1639 13.4448 661 60.2269 908.561 551.646
1091 0 51.1613 13.2913 680 60.2618 908.737 550.357
1092 0 52.1809 13.4532 702 60.5883 908.694 551.084
1093 0 54.1549 13.7568 745 59.9906 908.675 550.413
1094 0 55.2383 13.5232 747 60.6292 908.85 550.19
1095 0 57.1709 13.8182 790 60.2354 908.748 549.341
1096 0 60.1688 13.8776 835 59.5174 908.751 548.607
1097 0 60.1805 13.742 827 60.0447 908.646 547.718
1098 0 63.1726 13.471 851 60.2127 909.193 545.781
1099 0 66.1597 14.0871 932 58.9968 909.24 546.742
1100 0 68.2816 14.0301 958 59.0553 908.941 543.65
1101 0 69.1447 13.3488 923 60.2774 908.808 542.707
1102 1 34.0781 11.2389 383 61.0052 907.157 560.175
1103 0 36.113 12.0732 436 58.8968 906.798 561.557
1104 0 37.0758 12.1912 452 59.4358 906.898 560.604
1105 0 38.1567 12.9204 493 58.712 907.373 560.682
1106 0 40.2656 11.9705 482 59.4481 907.388 559.643
1107 0 41.1689 13.1167 540 59 906.798 557.746
1108 0 44.4067 13.6015 604 58.0381 907.647 557.669
1109 0 44.3635 14.0431 623 58.2327 907.597 557.814
1110 0 45.5073 14.1516 644 58.323 908.025 556.03
1111 0 47.2962 14.3986 681 58.2056 908.496 554.885
1112 0 49.4211 14.7306 728 57.2198 909.275 554.515
1113 0 50.3653 14.7721 744 58.0847 908.621 553.296
1114 0 52.3805 14.6238 766 57.7128 908.355 555.004
1115 0 54.4949 15.7629 859 56.1851 908.061 553.775
1116 0 55.3909 13.7387 761 59.2116 907.852 553.254
1117 0 56.3669 13.9621 787 58.9886 907.792 553.262
1118 0 57.346 14.055 806 59.2754 907.357 552.768
1119 0 57.3187 13.7303 787 60.723 907.679 552.244
1120 0 61.2951 15.352 941 58.0436 907.589 551.017
1121 0 61.3028 14.2408 873 60.5006 908.299 549.074
1122 0 64.6108 13.5117 873 61.3448 908.326 548.052
1123 0 68.3844 15.3836 1052 58.424 907.983 546.675
1124 0 70.5563 15.6187 1102 58.6697 907.975 544.821
1125 0 72.4004 15.2347 1103 59.116 908.387 544.866
1126 0 75.3307 15.6643 1180 58.6068 908.164 543.656
1127 0 77.4115 14.959 1158 59.6572 908.199 544.236
1128 1 40.4406 13.4024 542 62.4096 907.646 560.116
1129 0 41.111 13.2568 545 62.6752 907.185 560.716
1130 0 42.2625 14.5992 617 61.671 906.948 560.966
1131 0 43.321 13.8501 600 63.7483 906.808 559.47
1132 0 45.2467 15.1392 685 63.162 907.542 559.804
1133 0 46.5898 14.3379 668 64.9686 907.543 557.811
1134 0 50.4691 13.85 699 64.6538 907.592 557.651
1135 0 49.4313 13.2507 655 66.9466 906.954 556.716
1136 0 51.2895 14.2719 732 65.2432 907.383 556.48
1137 0 52.5111 14.4922 761 65.8134 907.431 555.047
1138 0 54.3729 13.8856 755 66.9921 908.056 554.883
1139 0 57.2714 14.7194 843 64.4104 907.89 555.633
1140 0 58.2555 14.4536 842 65.7993 908.526 551.705
1141 0 60.4566 14.9694 905 66.2365 908.398 552.187
1142 0 61.3292 15.7837 968 66.2665 907.84 549.926
1143 0 64.6596 15.048 973 66.7266 908.145 550.688
1144 0 67.4042 14.91 1005 67.2617 908.205 549.026
1145 0 67.3835 14.5585 981 68.4241 907.484 548.462
1146 0 72.681 16.0014 1163 65.9269 907.536 545.804
1147 0 74.5137 15.2992 1140 67.3325 907.677 545.896
1148 0 76.5631 16.0913 1232 66.6851 908.398 542.389
1149 0 79.8578 15.8281 1264 66.2785 908.228 543.578
1150 0 82.5901 15.4014 1272 67.0275 908.425 541.296
1151 0 84.6357 14.2257 1204 68.7591 909.236 542.032
1152 0 88.5782 15.9746 1415 65.964 909.38 538.56
1153 1 39.4333 13.6433 538 70.632 909.303 560.691
1154 0 41.4664 13.312 552 70.5127 909.58 559.815
1155 0 44.793 13.4842 604 69.9503 909.993 559.243
1156 0 45.7182 14.3706 657 69.0274 910.341 559.189
1157 0 47.5355 15.2728 726 67.832 910.482 557.544
1158 0 49.7515 15.296 761 67.9501 910.599 555.765
1159 0 51.3815 15.8228 813 66.4367 911.202 554.822
1160 0 54.7172 15.8268 866 66.0924 911.426 553.418
1161 0 53.592 15.5993 836 67.5024 910.533 553.541
1162 0 56.7426 15.8435 899 66.6885 911.672 552.69
1163 0 56.7426 15.8435 899 171.924 912.672 552.69
1164 0 59.4728 16.6631 991 66.3118 911.801 549.988
1165 0 63.4479 15.5403 986 66.8682 911.965 550.593
1166 0 64.6603 15.0633 974 68.3111 912.022 549.34
1167 0 66.1463 16.267 1076 66.7556 912.415 549.086
1168 0 69.8146 16.1428 1127 66.7258 909.178 546.959
1169 0 71.729 16.2417 1165 66.6086 909.938 545.799
1170 0 74.8937 15.3017 1146 67.726 910.308 544.774
1171 0 76.4225 15.99 1222 66.9108 910.904 544.361
1172 0 79.302 16.04 1272 66.0472 911.257 541.744
1173 0 82.548 15.8453 1308 66.672 911.653 541.065
1174 0 83.7013 15.1969 1272 67.5487 912.148 540.794
1175 0 88.6249 16.3498 1449 65.4914 911.993 537.899
1176 1 46.8253 13.4756 631 68.5246 911.523 555.39
1177 0 47.5548 14.6778 698 67.6146 911.387 553.874
1178 0 48.3933 14.9814 725 67.44 911.51 553.989
1179 0 51.7215 14.7521 763 66.5269 911.431 554.356
1180 0 48.8848 14.6262 715 69.1077 911.72 553.22
1181 0 52.5262 14.7736 776 67.7771 910.952 552.041
1182 0 55.3366 14.7642 817 67.3978 911.097 552.214
1183 0 56.4066 14.555 821 67.6991 911.47 551.419
1184 0 59.4184 14.8775 884 67.1335 911.121 550.561
1185 0 59.3474 15.2155 903 67.7697 910.844 549.006
1186 0 61.3408 15.1286 928 67.7532 911.337 548.351
1187 0 64.3914 14.971 964 67.8288 909.973 547.337
1188 0 64.1851 15.2372 978 68.6288 910.459 546.816
1189 0 66.2749 15.0132 995 69.5467 910.796 545.554
1190 0 68.2541 15.1053 1031 69.71 911.116 543.985
1191 0 70.4232 15.3075 1078 69.5538 911.051 543.293
1192 0 74.2523 15.7167 1167 68.9117 910.752 541.533
1193 0 76.565 14.9677 1146 69.9389 910.442 539.855
1194 0 80.4447 15.0911 1214 69.4555 910.717 538.745
1195 0 80.3384 14.7252 1183 71.0702 909.855 537.819
1196 0 84.2511 16.6882 1406 68.4203 910.07 535.52
1197 0 86.3345 16.2276 1401 68.8158 910.647 534.974
1198 0 89.3357 15.425 1378 70.1313 910.87 533.808
1199 0 94.2493 15.3105 1443 69.894 910.727 532.302
1200 0 96.2631 15.2499 1468 70.1594 910.783 530.721
1201 0 101.193 16.2956 1649 68.1116 910.268 527.717
1202 0 105.307 16.0103 1686 68.3286 910.148 525.583
1203 1 54.2238 10.2169 554 70.1787 909.096 552.413
1204 0 54.2238 10.1985 553 174.539 908.098 552.456
1205 0 57.1468 12.3542 706 69.4235 908.916 549.28
1206 0 60.1872 13.458 810 67.8975 909.637 546.564
1207 0 63.1645 13.5044 853 68.0129 909.444 547.152
1208 0 66.2138 14.3626 951 66.6341 909.379 544.767
1209 0 67.1446 13.7911 926 68.1728 908.805 543.269
1210 0 71.168 13.7843 981 66.1733 907.502 543.958
1211 0 74.1031 14.5878 1081 65.1711 908.445 540.639
1212 0 75.1344 13.6688 1027 66.9903 908.721 538.768
1213 0 77.1801 13.6305 1052 66.4601 909.032 540.113
1214 0 81.1185 13.8686 1125 65.432 908.943 538.9
1215 0 83.1945 14.5563 1211 65.2775 908.749 536.241
1216 0 86.1352 14.3844 1239 64.8402 908.231 535.408
1217 0 89.1919 14.3511 1280 64.5672 908.291 534.201
1218 0 94.163 14.7616 1390 63.4144 908.527 532.96
1219 0 94.1511 14.1687 1334 64.6139 908.675 530.865
1220 0 97.1966 13.8894 1350 64.6548 908.227 529.071
1221 1 53.1395 9.63501 512 62.4512 907.217 554.273
1222 0 53.2218 9.39464 500 62.94 907.148 553.74
1223 0 58.1114 11.7361 682 59.5528 906.735 552.667
1224 0 59.1022 11.7085 692 59.3237 907.321 551.827
1225 0 61.0752 11.7232 716 59.1103 906.76 550.927
1226 0 60.3312 11.9673 722 60.0028 906.931 549.37
1227 0 63.4034 12.2706 778 58.8445 907.752 547.819
1228 0 66.3705 13.0178 864 57.9954 907.705 546.957
1229 0 69.2804 13.0484 904 58.1726 907.742 543.134
1230 0 72.2193 12.8221 926 57.5486 907.089 545.558
1231 0 73.3816 11.8422 869 58.6018 906.933 545.907
1232 0 75.2475 12.2263 920 58.8054 906.603 543.073
1233 0 79.2579 13.1596 1043 59.1822 907.273 541.513
1234 0 83.3619 13.6633 1139 58.5408 905.945 539.394
1235 0 85.2202 11.3001 963 61.5774 906.118 539.818
1236 0 86.2169 12.3874 1068 60.9916 907.546 537.264
1237 0 89.2779 12.6235 1127 60.9689 907.366 535.647
1238 1 50.0489 11.0692 554 57.7473 906.928 557.87
1239 0 49.0499 9.88789 485 59.8804 906.268 557.239
1240 0 52.0926 11.3452 591 58.5347 905.636 555.337
1241 0 52.0919 11.0958 578 58.9671 906.047 555.998
1242 0 53.1703 10.9083 580 60.1155 907.059 554.902
1243 0 55.0933 12.3064 678 58.5487 907.714 553.838
1244 0 55.1514 11.9127 657 59.6971 907.076 552.968
1245 0 58.5395 12.2311 716 58.7416 906.149 552.492
1246 0 61.4792 13.2565 815 58.0564 906.166 548.858
1247 0 64.4141 13.2269 852 58.1502 906.261 548.286
1248 0 66.6017 11.8315 788 62.1764 905.812 547.779
1249 0 66.5292 13.1521 875 61.3783 906.161 547.038
1250 0 67.3541 13.3919 902 61.9457 905.926 543.435
1251 0 71.3888 12.495 892 62.5168 905.454 543.741
1252 0 72.3636 12.0641 873 63.2703 905.83 544
1253 0 76.3895 13.693 1046 61.4837 905.747 541.401
1254 0 77.4428 12.6545 980 62.2316 906.542 540.948
1255 0 81.265 13.3637 1086 61.872 905.885 538.25
1256 1 45.2511 9.06055 410 65.1073 904.529 556.527
1257 0 46.1025 9.56564 441 64.2041 905.279 555.673
1258 0 46.0995 9.95672 459 63.6449 905.161 556.497
1259 0 48.0448 10.8232 520 62.3019 904.64 554.938
1260 0 48.0565 11.0287 530 63.4962 905.311 554.245
1261 0 49.1071 12.1775 598 58.5836 906.159 549.523
1262 0 52.0507 12.2188 636 58.7217 906.049 553.311
1263 0 54.0396 12.3798 669 59.6951 906.181 553.786
1264 0 54.2963 13.6658 742 59.4367 907.368 551.377
1265 0 56.214 12.3279 693 60.9221 907.496 551.86
1266 0 57.206 12.4113 710 61.0183 907.738 550.385
1267 0 57.28 12.7619 731 60.2668 908.276 547.068
1268 0 60.3977 12.4177 750 59.8213 908.204 541.749
1269 0 62.3081 13.4333 837 59.1983 908.351 539.885
1270 0 65.2072 13.7715 898 59.0412 908.971 540.7
1271 0 65.2539 12.597 822 60.9343 909.599 543.676
1272 0 70.1787 13.4229 942 59.2569 910.086 542.765
1273 0 70.2137 13.0601 917 60.2301 910.215 542.881
1274 0 72.092 12.706 916 60.6801 910.485 541.441
1275 0 75.25 11.6545 877 60.8119 909.449 541.673
1276 0 75.202 12.7257 957 61.4013 910.28 539.281
1277 0 78.2676 13.0833 1024 60.6318 911.425 537.801
1278 1 42.0816 9.86178 415 61.0482 911.089 555.805
1279 0 43.0483 10.5695 455 59.7187 911.066 557.332
1280 0 44.0093 9.99789 440 60.9341 910.816 555.764
1281 0 47.0431 12.3079 579 58.0915 911.135 548.541
1282 0 48.103 12.2238 588 59.0544 910.759 552.129
1283 0 49.3856 13.1617 650 58.8646 911.554 551.589
1284 0 48.2656 13.0321 629 57.1351 912.211 547.997
1285 0 49.444 13.2675 656 56.3674 912.171 549.023
1286 0 53.1955 12.8582 684 56.9269 911.808 547.64
1287 0 55.2588 12.179 673 57.2496 912.169 547.105
1288 0 56.2363 13.4966 759 56.4282 912.698 546.253
1289 0 58.1884 13.1298 764 56.8325 912.524 544.775
1290 0 60.0749 13.6496 820 56.5049 912.923 542.584
1291 0 61.161 12.181 745 58.4725 912.463 544.518
1292 0 61.1452 13.149 804 58.5473 912.821 542.121
1293 0 62.264 13.8603 863 58.0869 912.893 541.75
1294 0 68.2582 14.2108 970 56.9268 912.005 529.559
1295 0 68.3364 13.7116 937 58.1014 912.469 528.392
1296 0 69.3077 14.0244 972 58.4414 912.111 528.612
1297 0 73.2279 14.6256 1071 58.0654 912.563 529.747
1298 0 75.4329 14.4764 1092 57.4698 912.56 528.814
1299 0 76.3124 14.1261 1078 58.2134 912.257 528.194
1300 0 80.2363 15.3796 1234 56.5429 912.725 526.948
1301 0 81.3257 15.2842 1243 57.0072 912.212 529.681
1302 0 81.3311 14.6315 1190 58.4378 912.592 531.282
1303 0 86.1695 15.1794 1308 57.7959 912.794 531.031
1304 1 44.0596 10.6674 470 58.3532 913.134 554.491
1305 0 45.0358 10.858 489 58.454 913.11 553.951
1306 0 46.0606 11.0072 507 59.3176 912.921 552.546
1307 0 47.1046 11.2303 529 59.0491 912.287 552.425
1308 0 50.1796 12.4154 623 58.557 911.34 552.223
1309 0 52.3506 13.4096 702 57.3946 911.972 546.65
1310 0 53.2449 13.2407 705 58.705 911.725 548.174
1311 0 54.0731 12.7235 688 60.2427 911.371 551.339
1312 0 57.0468 13.0069 742 59.9663 911.624 550.982
1313 0 58.0471 13.3857 777 58.8739 910.842 551.328
1314 0 61.0318 13.8616 846 59.1005 910.622 548.936
1315 0 61.0629 14.4277 881 59.4563 910.51 547.554
1316 0 64.0226 14.1044 903 60.3389 909.968 549.953
1317 0 64.1241 13.6142 873 61.0504 909.643 549.4
1318 0 67.0288 13.815 926 60.6425 910.01 549.785
1319 0 68.0472 14.3283 975 61.0164 910.015 547.037
1320 0 68.0816 13.6601 930 62.0387 909.069 546.125
1321 0 71.042 14.4281 1025 61.1815 908.558 544.924
1322 0 74.1208 14.6922 1089 60.7916 908.461 543.412
1323 0 76.0816 14.2347 1083 61.6694 908.83 542.029
1324 0 80.1406 14.9986 1202 59.6414 908.668 539.946
1325 0 84.1555 14.9604 1259 59.1128 908.666 539.05
1326 0 84.084 14.0574 1182 60.9416 907.979 538.517
1327 1 42.097 11.8773 500 60.872 907.692 556.868
1328 0 44.1163 11.3564 501 60.6367 907.14 557.034
1329 0 46.1931 11.5818 535 60.1196 907.213 557.578
1330 0 47.1521 12.237 577 59.7192 907.582 555.371
1331 0 49.1607 12.9168 635 58.6913 907.296 554.883
1332 0 48.428 12.1211 587 59.3305 907.516 554.434
1333 0 49.4025 13.137 649 59.7658 907.168 553.727
1334 0 51.5217 12.8489 662 61.7477 907.757 553.295
1335 0 54.3811 14.7478 802 58.2494 907.911 553.163
1336 0 53.2076 13.0996 697 60.3673 907.861 552.154
1337 0 57.2638 14.4419 827 58.0605 907.688 550.855
1338 0 57.3855 13.0521 749 60.1295 907.539 550.529
1339 0 61.3784 13.7182 842 58.5701 907.77 548.918
1340 0 63.4773 15.155 962 56.8316 907.748 548.867
1341 0 65.438 14.0285 918 58.0065 907.858 547.395
1342 0 66.1405 14.0459 929 58.1776 908.989 545.936
1343 0 67.1258 13.9589 937 58.746 908.174 545.324
1344 0 71.0808 13.8997 988 58.2034 908.259 545.733
1345 0 73.1538 14.0252 1026 58.3957 908.525 543.292
1346 0 75.177 14.4326 1085 58.6995 908.762 542.991
1347 1 39.0262 11.3514 443 59.219 908.275 560.587
1348 0 40.0449 11.0126 441 59.6145 906.571 560.19
1349 0 41.1252 10.3829 427 60.6511 906.787 560.014
1350 0 41.199 11.2381 463 60.7948 906.251 559.609
1351 0 42.3603 11.9924 508 59.6083 906.648 558.626
1352 0 45.5461 11.922 543 59.2781 906.595 559.186
1353 0 46.625 13.1474 613 58.031 906.941 557.48
1354 0 45.4387 12.5664 571 59.4081 906.694 557.576
1355 0 46.369 12.6809 588 59.2432 906.821 556.847
1356 0 48.5014 11.5873 562 60.9004 906.913 556.685
1357 0 50.4053 13.7684 694 58.1945 907.125 556.043
1358 0 52.428 13.0274 683 58.7262 906.682 555.123
1359 0 52.3253 13.1676 689 59.3498 906.004 554.308
1360 0 54.2907 13.6119 739 58.7442 906.426 553.647
1361 0 57.378 14.3086 821 57.9537 906.294 552.463
1362 0 58.4465 12.8151 749 60.2924 906.36 551.529
1363 0 59.2922 12.7673 757 60.4148 905.955 550.793
1364 0 61.2398 13.3083 815 59.9239 906.194 550.199
1365 0 63.2429 13.4561 851 59.376 906.609 547.897
1366 0 66.3971 14.4434 959 57.341 906.625 547.537
1367 0 66.3174 12.983 861 59.935 906.506 547.033
1368 0 69.2159 13.9274 964 60.2873 906.095 547.085
1369 1 38.0694 10.691 407 62.5823 905.241 563.526
1370 0 39.0583 10.702 418 63.3804 905.4 563.055
1371 0 37.0608 9.28205 344 62.4041 905.686 563.326
1372 0 38.0252 10.8612 413 61.9758 905.814 562.605
1373 0 40.0222 10.844 434 64.6567 905.979 561.85
1374 0 39.1022 12.3267 482 64.2759 905.832 559.726
1375 0 42.3215 12.854 544 62.1599 905.336 561.044
1376 0 43.583 12.2295 533 63.6454 905.803 560.734
1377 0 42.6116 12.4379 530 64.5377 905.653 560.089
1378 0 44.4226 12.5837 559 64.5313 906.038 559.243
1379 0 47.4434 12.7731 606 63.9719 905.335 559.894
1380 0 48.4561 12.7951 620 64.5242 905.971 558.056
1381 0 50.5481 14.1845 717 62.3961 906.212 556.809
1382 0 48.4157 14.5407 704 60.4389 906.05 556.53
1383 0 51.48 13.5198 696 60.8922 906.197 557.31
1384 0 53.3937 12.7169 679 67.8292 906.728 556.027
1385 0 53.4018 13.5014 721 64.8058 906.23 555.556
1386 0 55.3963 13.9359 772 65.6723 906.756 554.972
1387 0 57.3641 14.6607 841 65.2045 907.096 552.875
1388 0 57.4138 14.2474 818 65.5 907.43 552.796
1389 0 60.4391 14.1465 855 65.1614 907.545 551.581
1390 0 61.2759 14.1981 870 64.6448 907.214 550.911
1391 0 64.312 14.1653 911 64.2075 907.054 549.834
1392 0 64.2541 13.8513 890 65.5652 907.457 548.408
1393 0 67.2923 14.4296 971 64.9166 908.096 547.593
1394 0 70.3187 15.0316 1057 63.2886 907.846 546.653
1395 0 72.2812 14.748 1066 63.9418 908.078 545.122
1396 0 75.3718 14.382 1084 64.0194 908.703 542.867
1397 0 77.258 14.3933 1112 63.295 908.603 543.725
1398 1 42.1762 10.7644 454 66.3216 907.403 558.954
1399 0 43.098 11.1838 482 65.6349 907.79 558.855
1400 0 44.0926 10.9542 483 64.6832 907.977 558.627
1401 0 47.1275 11.9251 562 63.3523 908.541 558.244
1402 0 47.0378 11.5226 542 64.7214 909.221 556.762
1403 0 49.0141 12.8739 631 63.1521 909.981 554.605
1404 0 50.3279 12.6371 636 62.5487 910.178 554.245
1405 0 52.2041 12.1829 636 62.3868 910.274 554.48
1406 0 52.4131 13.3936 702 61.0214 910.568 553.362
1407 0 55.247 13.2858 734 60.3842 910.895 551.7
1408 0 54.3359 13.1037 712 61.552 911.174 551.369
1409 0 57.2947 13.2648 760 60.9961 911.403 550.7
1410 0 58.258 13.3887 780 61.2615 911.5 549.845
1411 0 59.2631 13.5835 805 61.0907 911.732 547.501
1412 0 61.236 14.3053 876 59.6244 911.788 548.201
1413 0 64.2533 13.9604 897 59.3579 912.193 546.873
1414 0 65.286 14.6126 954 58.9057 912.279 546.103
1415 0 65.1687 13.2732 865 61.2173 912.265 546.166
1416 0 68.2434 13.7889 941 59.8055 912.336 545.337
1417 0 70.125 13.5758 952 60.1796 912.894 543.958
1418 0 74.1125 14.6534 1086 58.849 912.634 542.712
1419 0 75.1535 14.3972 1082 59.3235 912.811 539.609
1420 0 78.2069 14.7941 1157 58.3129 913.466 540.481
1421 0 79.0978 14.6654 1160 58.6034 913.114 540.689
1422 0 82.1888 13.4811 1108 60.6273 913.005 538.569
1423 0 82.076 13.5728 1114 61.1813 913.024 536.829
1424 0 89.098 14.8264 1321 58.9447 912.624 534.403
1425 0 90.1476 14.088 1270 59.9213 912.669 533.443
1426 0 94.1085 14.7064 1384 59.3938 912.259 531.328
1427 1 51.0528 12.4773 637 59.2214 911.917 553.144
1428 0 51.0396 11.6576 595 60.2017 911.938 554.667
1429 0 51.0662 12.3369 630 59.2746 912.332 553.443
1430 0 54.049 13.9133 752 57.6024 911.578 551.676
1431 0 56.0953 13.6019 763 56.7182 911.482 551.836
1432 0 57.129 13.7933 788 57.1637 911.114 551.51
1433 0 58.0362 13.3193 773 58.4631 912.013 551.27
1434 0 60.1101 13.625 819 59.0366 911.79 550.19
1435 0 61.065 13.674 835 59.903 911.612 548.086
1436 0 65.0308 13.3475 868 59.4309 911.478 548.145
1437 0 65.2634 13.8362 903 59.2979 911.891 546.896
1438 0 67.108 14.4096 967 59.092 911.683 546.468
1439 0 70.0913 13.5395 949 59.5385 911.392 544.211
1440 0 72.1349 13.7797 994 58.6318 911.063 543.24
1441 0 75.133 13.1633 989 59.1891 911.205 544.118
1442 0 77.1282 14.2879 1102 58.2595 911.17 541.008
1443 0 77.1805 14.5503 1123 58.1754 911.136 539.828
1444 0 83.1519 14.8523 1235 57.1126 911.338 539.08
1445 0 85.1332 13.6375 1161 57.9388 911.146 538.946
1446 0 87.2144 14.5618 1270 57.5173 911.417 535.907
1447 0 93.4087 14.7417 1377 56.366 911.015 536.461
1448 1 50.1006 12.5547 629 57.3768 910.321 554.558
1449 0 51.1579 12.5494 642 57.5888 910.428 553.506
1450 0 52.1211 12.7012 662 57.8656 910.027 551.946
1451 0 54.4225 13.0644 711 56.8017 909.243 552.073
1452 0 55.4186 14.3995 798 55.6792 908.853 551.066
1453 0 55.4186 14.3634 796 157.158 908.871 551.09
1454 0 60.443 15.1713 917 55.2148 908.894 548.468
1455 0 60.443 15.2375 921 154.777 908.916 548.478
1456 0 63.4074 15.0771 956 56.2207 908.9 546.434
1457 0 65.3925 13.6866 895 58.1318 909.411 545.608
1458 0 66.3409 13.8979 922 58.2137 908.753 545.966
1459 0 68.349 14.3967 984 57.9106 908.952 544.681
1460 0 71.3203 14.526 1036 57.2104 909.059 545.023
1461 0 73.3217 13.7885 1011 58.549 908.898 543.13
1462 0 77.3217 13.5667 1049 58.2183 908.709 541.791
1463 1 39.325 11.2651 443 57.7246 907.447 559.113
1464 0 39.289 11.1736 439 58.0615 906.934 559.107
1465 0 43.3687 12.1977 529 57.5747 907.548 557.836
1466 0 43.4846 11.6823 508 57.811 907.372 558.065
1467 0 43.5406 12.4711 543 57.7311 907.25 556.928
1468 0 46.3591 13.2013 612 56.4902 906.912 556.072
1469 0 48.4878 13.4261 651 55.7327 907.476 557.108
1470 0 49.3992 13.3605 660 56.7197 907.223 555.312
1471 0 53.4332 13.9426 745 55.2765 907.091 554.746
1472 0 54.4453 14.3814 783 55.3321 906.921 553.905
1473 0 53.2923 13.2852 708 56.6893 906.962 554.093
1474 0 56.565 14.0369 794 56.0856 907.154 552.555
1475 0 57.4614 13.2089 759 56.9012 906.862 552.495
1476 0 59.3005 13.9459 827 56.1644 906.469 551.307
1477 0 61.3329 13.9403 855 56.1988 906.074 549.505
1478 0 62.3195 13.5592 845 56.5219 906.066 549.589
1479 0 63.4625 13.9452 885 56.5232 906.207 548.821
1480 0 64.4628 13.6358 879 56.9852 906.753 547.396
1481 0 68.7225 13.4163 922 56.8319 906.633 545.926
1482 0 71.3099 13.7008 977 56.4197 906.845 547.447
1483 0 73.3069 14.2279 1043 56.627 906.361 544.526
1484 0 73.1275 13.8252 1011 57.5786 906.409 544.529
1485 0 75.3813 14.2476 1074 57.2058 906.261 542.764
1486 0 80.4207 13.8024 1110 56.9162 906.321 541.464
1487 0 82.451 13.7779 1136 57.3011 906.543 539.278
1488 0 86.5257 15.3365 1327 55.4763 906.047 538.35
1489 0 88.3784 13.5327 1196 57.6647 906.178 536.884
1490 1 45.2895 11.1726 506 58.2549 905.755 558.075
1491 0 47.2048 12.1598 574 57.3763 905.267 558.922
1492 0 47.2172 12.686 599 58.0551 905.588 555.77
1493 0 48.0768 13.3744 643 56.846 905.495 556.677
1494 0 51.1432 14.3323 733 55.4147 906.24 554.553
1495 0 52.0993 13.3207 694 56.4856 906.578 555.516
1496 0 53.1018 13.4835 716 56.5712 907.346 554.483
1497 0 55.0404 13.4447 740 56.6851 907.699 553.377
1498 0 54.0678 13.779 745 57.2174 907.455 552.352
1499 0 57.0679 14.1761 809 57.8133 907.429 550.747
1500 0 58.0454 13.3516 775 59.2206 907.262 551.426
1501 0 60.0448 13.9729 839 59.0667 907.66 548.738
1502 0 62.1452 13.8386 860 59.2849 907.406 549.177
1503 0 64.0896 14.4017 923 58.9729 908.092 548.132
1504 0 66.0718 13.8183 913 60.2607 908.106 546.056
1505 0 68.1678 14.8164 1010 59.2673 908.288 545.232
1506 0 71.2272 14.3063 1019 59.9912 908.716 545.518
1507 0 73.3605 14.7491 1082 59.964 907.582 542.389
1508 0 77.314 14.3441 1109 60.4608 908.236 541.261
1509 0 78.2794 13.7329 1075 61.734 908.945 540.477
1510 0 82.6139 15.1064 1248 60.2011 909.26 538.386
1511 0 85.3971 15.1996 1298 60.7889 909.734 538.163
1512 0 86.294 14.3463 1238 62.5493 909.54 536.095
1513 0 89.3352 14.7422 1317 62.9537 910.029 533.726
1514 0 92.3851 14.6777 1356 63.3599 910.281 534.131
1515 1 46.1541 11.6783 539 65.3154 909.718 556.273
1516 0 47.0863 13.2947 626 64.2636 909.887 554.498
1517 0 50.0467 13.3675 669 64.1031 910.438 553.51
1518 0 51.209 13.5132 692 63.2717 910.053 552.146
1519 0 49.3785 14.0749 695 64.0388 910.19 552.712
1520 0 53.1639 13.7875 733 63.749 910.641 552.282
1521 0 53.2601 13.9128 741 64.6856 910.842 551.02
1522 0 53.1941 13.385 712 66.3258 911.15 550.067
1523 0 58.2065 13.916 810 64.6037 911.173 549.46
1524 0 57.1835 13.2031 755 66.0755 912.057 548.934
1525 0 62.1364 13.6635 849 63.7267 912.463 547.889
1526 0 62.1969 13.2643 825 64.5261 912.601 547.165
1527 0 66.1367 13.8199 914 63.174 912.664 544.446
1528 0 68.1289 13.6653 931 63.6638 913.329 545.695
1529 0 71.2935 13.7741 982 62.8147 913.008 544.025
1530 0 73.1265 14.9194 1091 61.7571 912.961 542.099
1531 0 73.1265 14.8783 1088 156.043 912.966 542.134
1532 0 79.0673 14.3296 1133 63.3292 912.892 538.669
1533 1 41.0211 12.7008 521 64.6488 911.735 555.969
1534 0 42.065 12.3618 520 64.7962 911.902 556.485
1535 0 46.0507 12.2691 565 64.708 911.772 555.878
1536 0 48.1074 13.4075 645 63.9473 912.022 553.543
1537 0 49.1236 14.1683 696 63.3434 911.947 553.105
1538 0 51.1525 14.9162 763 62.4613 912.215 552.374
1539 0 51.1892 14.0068 717 64.0628 912.22 551.497
1540 0 53.1722 13.3528 710 64.0296 912.065 551.907
1541 0 54.1107 13.9714 756 63.8677 911.94 551.135
1542 0 57.0674 14.5442 830 62.7145 911.802 550.004
1543 0 58.1071 14.0602 817 63.3427 911.823 549.829
1544 0 59.0746 14.0839 832 64.3438 911.882 548.427
1545 0 64.1987 14.9691 961 62.3559 911.879 548.105
1546 0 63.1951 14.6372 925 63.7373 911.652 546.783
1547 0 65.1909 14.4039 939 63.901 911.482 545.464
1548 0 70.1163 14.3333 1005 63.1502 911.849 544.411
1549 0 71.0466 14.7368 1047 62.5196 911.557 544.067
1550 0 73.1143 14.6346 1070 63.1271 911.353 542.588
1551 0 75.1724 13.9147 1046 64.262 911.738 541.19
1552 0 77.1425 14.1427 1091 64.637 911.012 538.699
1553 0 82.1046 13.6168 1118 64.8238 911.176 537.857
1554 0 87.1808 15.0262 1310 62.7015 911.405 536.864
1555 0 87.0972 14.0188 1221 65.0786 910.945 534.168
1556 1 44.0205 12.7668 562 64.9431 910.322 555.53
1557 0 45.0252 12.5263 564 66.8067 910.16 554.832
1558 0 48.039 13.0519 627 66.1499 910.311 554.278
1559 0 49.025 13.9725 685 64.4015 910.382 552.375
1560 0 49.0233 13.157 645 67.7225 909.995 553.936
1561 0 50.0404 13.9687 699 68.103 910.276 551.843
1562 0 52.0285 14.0884 733 67.6535 910.292 552.531
1563 0 55.0615 14.2023 782 66.5345 910.15 551.161
1564 0 57.015 14.3822 820 66.2902 910.487 549.667
1565 0 59.0935 14.9932 886 65.57 909.494 548.431
1566 0 59.0418 14.4643 854 66.8911 909.544 548.739
1567 0 59.1031 14.3986 851 67.913 909.415 547.846
1568 0 64.0756 14.5609 933 66.5573 909.51 547.677
1569 0 67.0797 14.4008 966 66.4306 909.688 546.317
1570 0 66.1154 14.3688 950 68.0263 909.5 545.622
1571 0 68.0442 15.2842 1040 65.7779 909.509 545.05
1572 0 70.2019 15.1563 1064 65.9934 909.559 545.349
1573 0 71.2617 15.0291 1071 66.4295 909.62 543.623
1574 0 74.262 15.8628 1178 64.9576 909.758 541.977
1575 0 76.1031 15.1374 1152 66.2101 908.925 542.233
1576 0 80.1555 14.9834 1201 65.8968 909.207 541.227
1577 0 84.1282 15.1554 1275 65.5122 908.805 539.78
1578 0 86.1209 15.3157 1319 65.2646 908.808 537.732
1579 0 89.1086 14.8583 1324 65.8059 908.711 536.61
1580 0 92.2405 14.8633 1371 66.1736 908.226 534.162
1581 1 50.0452 11.9292 597 68.0972 907.588 554.628
1582 0 50.048 12.2083 611 67.5466 907.35 554.784
1583 0 53.0596 12.8535 682 66.9384 907.975 554.217
1584 0 56.1064 14.4369 810 63.6815 907.207 554.375
1585 0 55.1388 14.3275 790 64.7519 908.458 552.213
1586 0 57.1535 14.2773 816 64.5588 908.015 551.788
1587 0 60.1417 14.3162 861 63.7062 908.203 550.559
1588 0 62.2074 14.307 890 63.6719 907.699 550.282
1589 0 65.1547 14.2584 929 62.7298 907.705 549.847
1590 0 67.0972 14.7547 990 62.1616 907.879 549.575
1591 0 67.2095 14.1944 954 63.2128 907.57 547.73
1592 0 70.1795 15.2324 1069 61.8438 907.758 546.328
1593 0 73.1838 14.1971 1039 63.1165 907.657 543.862
1594 0 75.0934 14.0758 1057 62.176 907.976 544.597
1595 0 77.201 14.1838 1095 62.2603 908.474 543.445
1596 0 81.1559 14.8726 1207 60.9851 908.461 541.443
1597 0 84.1578 14.9719 1260 60.6484 908.683 540.363
1598 0 85.0917 14.8076 1260 61.296 908.634 538.234
1599 0 89.1597 15.4442 1377 60.1692 908.697 538.338
1600 0 91.1172 14.9039 1358 60.961 908.789 536.105
1601 0 94.1202 14.9171 1404 60.49 908.374 533.757
1602 1 51.0772 11.2966 577 63.8371 908.447 555.329
1603 0 52.0328 12.2999 640 62.9797 908.336 553.959
1604 0 53.1641 12.5837 669 62.5037 908.861 553.042
1605 0 55.2054 13.0784 722 61.3934 909 551.296
1606 0 57.1524 13.8402 791 60.3717 909.413 550.153
1607 0 58.0684 14.0868 818 60.0623 910.282 549.88
1608 0 59.3284 14.2933 848 59.645 910.296 548.717
1609 0 64.12 14.3325 919 58.4396 910.354 548.778
1610 0 65.1245 13.6815 891 59.193 910.189 547.11
1611 0 67.2456 14.6032 982 57.2149 910.301 545.956
1612 0 71.1883 14.0332 999 57.8969 910.197 544.328
1613 0 71.1167 14.3426 1020 57.6559 910.613 543.215
1614 0 73.1795 14.9905 1097 57.3409 910.775 541.116
1615 0 75.1454 13.933 1047 58.4097 910.705 541.21
1616 0 78.151 14.4208 1127 58.2493 911.27 539.258
1617 0 80.2436 14.0447 1127 59.2343 911.775 538.704
1618 0 83.1785 13.9579 1161 59.2773 911.649 535.363
1619 0 85.4909 14.4343 1234 59.7844 911.939 532.6
1620 0 87.447 13.5625 1186 60.704 912.052 531.308
1621 0 92.3052 13.997 1292 60.2802 912.01 529.992
1622 0 94.3511 14.7852 1395 59.6444 912.063 528.684
1623 1 50.16 10.6659 535 60.7533 912.557 550.508
1624 0 52.1462 11.602 605 59.6132 913.522 549.762
1625 0 53.2916 12.6474 674 59.2463 913.666 546.726
1626 0 54.2537 13.529 734 58.267 913.123 543.97
1627 0 59.5843 12.604 751 58.9174 913.361 544.675
1628 0 61.3529 13.6098 835 57.321 913.501 546.283
1629 0 62.3789 13.0974 817 58.6646 913.748 544.931
1630 0 65.354 13.511 883 58.0589 913.878 543.605
1631 0 66.2008 12.7944 847 58.3506 913.664 543.089
1632 0 68.4765 13.5813 930 57.8043 913.661 541.823
1633 0 69.4282 13.6256 946 57.9588 913.013 541.408
1634 0 72.3067 13.3598 966 58.3934 913.084 538.805
1635 0 74.4751 13.6824 1019 57.6114 912.938 537.327
1636 0 78.4908 13.1098 1029 58.4791 913.146 534.481
1637 0 81.4303 12.9559 1055 58.5014 913.5 535.205
1638 0 84.5084 12.9455 1094 58.426 913.44 533.012
1639 0 87.7038 13.6026 1193 57.6957 913.858 531.57
1640 0 89.5975 13.3151 1193 58.0687 913.07 530.057
1641 0 88.5751 14.1913 1257 57.4598 913.455 525.922
1642 0 94.4782 13.9291 1316 57.1375 913.685 525.718
1643 1 48.3708 11.0191 533 57.651 912.576 549.193
1644 0 49.3417 11.1062 548 57.6569 912.934 546.46
1645 0 52.368 10.9991 576 56.9601 912.979 547.898
1646 0 54.0737 12.8898 697 56.2956 913.869 549.162
1647 0 53.0858 12.6022 669 56.2526 914.726 547.9
1648 0 56.0713 12.8943 723 55.2642 914.556 548.246
1649 0 58.1087 12.9413 752 55.6436 914.219 546.471
1650 0 60.086 13.0813 786 55.8537 914.094 545.053
1651 0 61.1445 13.0674 799 55.9675 914.095 545.034
1652 0 62.0519 14.085 874 54.984 914.183 545.118
1653 0 64.0478 13.4275 860 55.9267 913.867 543.309
1654 0 67.0429 13.8121 926 54.9179 914.181 542.186
1655 0 69.1283 13.9451 964 54.6805 913.149 541.855
1656 0 71.2033 13.651 972 55.5288 912.97 540.761
1657 0 74.1211 13.0462 967 56.0072 912.799 539.706
1658 0 75.1529 13.9316 1047 55.3142 912.578 539.612
1659 0 78.0702 13.9362 1088 55.7739 912.722 536.926
1660 0 80.1462 14.3488 1150 55.6226 912.86 536.154
1661 0 86.1562 14.2764 1230 55.0333 912.285 534.749
1662 0 86.3011 14.3683 1240 55.804 911.707 534.335
1663 0 89.1679 14.0073 1249 56.3098 912.179 531.883
1664 1 46.0969 10.8684 501 56.7425 912.156 554.176
1665 0 48.0855 11.1884 538 57.2156 912.69 554.026
1666 0 51.1364 11.792 603 56.5008 912.106 552.362
1667 0 51.072 11.709 598 56.1321 911.746 552.562
1668 0 53.1449 13.3785 711 54.6624 912.101 552.131
1669 0 55.1716 13.9565 770 53.6312 911.052 550.897
1670 0 57.2215 13.3691 765 54.6549 910.613 549.665
1671 0 59.058 12.801 756 55.6905 910.488 548.763
1672 0 59.1023 12.4022 733 56.6303 910.248 549.402
1673 0 61.0752 12.7548 779 56.7818 909.85 547.497
1674 0 63.1205 13.292 839 55.4553 910.122 547.33
1675 0 66.2752 12.9611 859 55.9837 910.177 546.52
1676 0 67.2303 12.9703 872 56.3429 909.864 546.331
1677 0 71.3647 13.8444 988 55.6427 909.924 544.129
1678 0 71.1636 13.5462 964 57.1421 909.5 543.479
1679 0 72.0881 13.0812 943 57.6999 909.894 542.646
1680 0 78.148 13.7048 1071 56.3399 910.31 541.477
1681 0 79.1394 13.8869 1099 56.0946 910.103 540.87
1682 0 79.1524 12.836 1016 57.7904 909.841 539.266
1683 0 84.2306 13.9854 1178 56.899 909.626 534.974
1684 0 87.464 13.9257 1218 55.61 909.332 535.108
1685 0 91.3377 14.1125 1289 55.3569 908.808 533.521
1686 1 47.0927 12.0189 566 55.5618 907.896 555.004
1687 0 50.0526 11.9874 600 56.185 907.872 553.238
1688 0 48.0762 11.7106 563 57.9787 908.224 552.679
1689 0 52.0659 13.3101 693 55.9293 908.729 552.62
1690 0 53.0225 12.8625 682 56.088 907.969 552.463
1691 0 55.0672 13.1839 726 55.6749 908.198 552.054
1692 0 56.0311 14.135 792 54.9722 907.88 551.689
1693 0 56.0525 13.2733 744 56.3884 908.022 550.711
1694 0 60.0768 13.7324 825 55.0703 908.348 551.815
1695 0 62.1574 14.1415 879 55.1081 908.626 549.977
1696 0 62.1654 13.4802 838 56.3449 908.556 548.181
1697 0 65.0979 13.7946 898 56.0612 908.047 547.399
1698 0 69.154 13.8965 961 55.0052 908.349 545.532
1699 0 71.0946 14.3471 1020 54.7765 908.137 543.783
1700 0 73.128 13.8661 1014 55.4586 907.879 543.165
1701 0 75.0743 13.2535 995 55.7317 907.038 544.012
1702 0 77.1064 14.0585 1084 55.2998 906.884 543.463
1703 0 80.047 13.9918 1120 55.3911 906.949 540.626
1704 1 44.0508 11.6456 513 56.2827 906.799 559.735
1705 0 46.1224 12.4885 576 56.3368 906.71 558.573
1706 0 49.1631 12.9772 638 54.9734 906.867 556.586
1707 0 46.1838 11.8873 549 56.8597 907.472 556.324
1708 0 49.1275 13.6176 669 55.8236 907.673 555.673
1709 0 51.0691 14.0594 718 55.2368 907.674 553.912
1710 0 52.0994 12.956 675 56.2726 907.676 555.096
1711 0 52.1848 12.7432 665 56.8662 907.911 553.617
1712 0 56.0369 12.813 718 56.7075 907.575 552.457
1713 0 57.2326 14.8342 849 53.5088 907.918 549.857
1714 0 60.1367 14.0679 846 54.5792 907.881 551.087
1715 0 61.074 14.2941 873 54.5097 908.073 551.238
1716 0 63.1392 13.3356 842 55.9406 908.533 550.11
1717 0 64.1133 14.1936 910 55.2451 908.84 548.454
1718 0 65.1511 14.0136 913 55.1413 909.279 547.429
1719 0 67.0763 13.7157 920 55.9435 909.187 545.312
1720 0 70.0425 14.534 1018 54.1198 909.396 545.697
1721 0 72.2508 14.2697 1031 54.5587 909.3 542.42
1722 0 73.2548 13.61 997 55.6259 908.857 542.589
1723 0 76.1282 13.5561 1032 55.1444 909.404 542.495
1724 1 40.0486 11.6858 468 55.3462 909.327 559.541
1725 0 42.0376 11.4659 482 55.6411 909.147 560.859
1726 0 41.0863 11.2446 462 56.4978 909.056 559.117
1727 0 45.0747 12.7788 576 54.0816 909.007 557.085
1728 0 45.0755 12.6011 568 53.1778 909.178 557.065
1729 0 48.0859 12.7064 611 51.9214 909.234 556.424
1730 0 48.1164 12.8646 619 52.0501 909.418 554.756
1731 0 51.0483 11.8124 603 52.5854 909.856 554.318
1732 0 51.0991 12.329 630 51.3921 909.317 554.535
1733 0 53.1041 13.37 710 50.7521 911.032 551.694
1734 0 54.2187 12.5049 678 53.0811 911.603 550.913
1735 0 57.0778 13.4028 765 52.9699 911.675 551.205
1736 0 59.1394 13.1215 776 54.3505 911.432 549.347
1737 0 59.2156 13.6788 810 55.2296 911.759 548.553
1738 0 60.1353 13.4696 810 55.9432 911.788 546.865
1739 0 64.1333 13.0509 837 55.5579 911.688 547.229
1740 0 64.0823 14.3877 922 54.0597 911.767 547.152
1741 0 66.0843 13.4374 888 54.3694 912.615 545.632
1742 0 69.1111 14.1801 980 55.1122 912.46 542.962
1743 0 70.2658 14.0609 988 55.4393 912.745 542.051
1744 0 71.069 13.4799 958 55.237 913.242 541.925
1745 0 74.0958 13.4286 995 54.9618 913.383 540.992
1746 0 75.0715 13.6936 1028 54.8774 913.929 538.454
1747 0 77.0708 14.1818 1093 54.6688 913.706 537.134
1748 0 83.1441 14.8176 1232 53.013 913.432 534.514
1749 0 84.0943 13.8773 1167 54.9212 913.355 533.554
1750 1 43.0789 10.3763 447 55.5011 913.933 553.85
1751 0 48.2378 10.9043 526 55.3289 914.255 552.918
1752 0 47.1452 11.2419 530 56.6755 914.592 551.728
1753 0 49.0933 11.7939 579 55.4197 914.344 551.216
1754 0 50.1546 12.8403 644 55.5186 914.404 549.776
1755 0 54.0513 12.8767 696 54.9713 914.052 550.283
1756 0 53.0467 13.2902 705 55.8752 913.485 549.681
1757 0 55.0973 12.8137 706 56.7748 913.558 549.198
1758 0 59.1175 13.0249 770 55.9584 913.647 548.24
1759 0 59.1116 13.5168 799 56.0275 913.666 546.8
1760 0 62.1734 13.1889 820 56.061 913.571 545.521
1761 0 63.2066 12.7993 809 56.9864 914.056 544.527
1762 0 64.127 13.1614 844 57.019 914.306 543.053
1763 0 69.2172 13.3926 927 56.5782 914.248 542.033
1764 0 69.1638 13.3307 922 57.0781 914.139 539.521
1765 0 72.1545 14.3165 1033 56.1413 914.181 538.297
1766 0 74.2007 13.4635 999 57.2713 914.282 538.696
1767 0 76.0888 13.7208 1044 57.455 914.134 537.867
1768 0 80.0843 14.5597 1166 55.9957 914.349 536.24
1769 0 81.1714 14.3031 1161 56.0672 914.302 535.753
1770 0 85.0896 15.0665 1282 55.8744 913.95 534.087
1771 0 87.2147 14.5044 1265 56.804 914.017 533.516
1772 0 90.2137 14.5765 1315 58.1255 913.519 531.938
1773 0 93.117 14.4227 1343 58.8057 913.477 530.839
1774 0 95.0588 14.6015 1388 59.4568 913.406 530.656
1775 0 98.4284 13.9797 1376 61.5698 913.226 527.567
1776 0 101.195 14.052 1422 60.2405 912.98 525.615
1777 0 103.34 14.5636 1505 59.8239 913.155 525.183
1778 0 109.136 14.5689 1590 60.5679 913.403 522.796
1779 1 57.0597 12.0225 686 62.6414 912.752 548.516
1780 0 59.0395 13.0591 771 61.3476 912.83 547.894
1781 0 62.054 13.9072 863 60.0417 913.692 545.295
1782 0 63.0612 13.0032 820 61.4671 911.882 546.443
1783 0 65.0816 12.9683 844 61.1493 911.756 545.377
1784 0 67.0834 14.7577 990 59.1515 911.297 542.686
1785 0 72.1721 13.7588 993 59.6123 911.381 542.846
1786 0 74.248 14.034 1042 59.7063 911.194 541.027
1787 0 76.1528 13.8275 1053 60.0399 911.198 540.003
1788 0 77.1778 13.3976 1034 61.4062 911.016 538.69
1789 0 79.1401 13.3308 1055 61.5156 911.134 538.738
1790 0 85.1203 14.5794 1241 59.494 911.423 535.896
1791 0 85.1894 13.8867 1183 61.2037 910.937 536.106
1792 0 88.1901 13.4029 1182 61.7851 911.21 534.59
1793 0 92.1802 13.8859 1280 61.4383 911.373 533.349
1794 0 94.2692 14.0555 1325 61.5804 912.134 530.838
1795 0 98.3836 13.8336 1361 61.673 911.701 529.14
1796 0 101.361 13.5062 1369 62.1717 910.988 529.297
1797 1 52.1585 11.5993 605 62.8017 909.94 552.21
1798 0 55.0464 12.1534 669 62.8117 909.895 549.758
1799 0 58.0829 12.6888 737 61.9525 910.756 550.701
1800 0 57.0416 13.1483 750 62.1173 911.42 549.487
1801 0 61.1548 12.6891 776 60.6057 910.108 550.04
1802 0 62.1245 13.151 817 60.1567 910.099 548.636
1803 0 65.068 13.6626 889 59.3915 910.313 547.794
1804 0 67.1975 13.5273 909 59.7756 910.153 545.969
1805 0 69.0416 13.7308 948 59.7964 910.027 543.588
1806 0 73.1729 13.0103 952 59.646 910.061 543.667
1807 0 75.1007 13.8214 1038 58.841 910.165 541.484
1808 0 78.2679 14.5526 1139 57.6339 910.5 540.454
1809 0 79.1857 13.3105 1054 59.1537 909.399 541.047
1810 0 82.1849 13.8103 1135 58.3912 909.823 538.885
1811 0 85.082 13.7279 1168 58.6524 909.272 537.7
1812 0 89.2873 14.4253 1288 57.3385 908.995 536.862
1813 0 90.2563 13.9713 1261 58.3061 909.026 534.316
1814 0 93.1385 13.3994 1248 59.226 908.909 533.502
1815 0 98.291 13.5414 1331 58.544 908.863 532.491
1816 0 101.369 13.8899 1408 58.0845 908.845 529.771
1817 1 56.0291 11.3334 635 57.9874 908.677 552.764
1818 0 57.1507 12.5108 715 57.6308 908.4 550.02
1819 0 60.1478 12.0703 726 57.6295 908.949 544.532
1820 0 61.211 12.7428 780 56.3846 909.64 543.524
1821 0 64.1475 13.2507 850 57.2671 910.232 545.162
1822 0 64.0301 13.1501 842 57.6342 910.094 544.982
1823 0 68.0838 13.219 900 56.8178 910.733 542.247
1824 0 70.1215 13.1771 924 56.9773 910.731 540.772
1825 0 71.2027 14.0584 1001 55.7143 910.972 539.121
1826 0 71.2815 13.608 970 56.6567 910.751 536.838
1827 0 72.2663 13.5609 980 56.3918 910.714 538.728
1828 0 76.2899 14.0648 1073 55.6114 910.942 535.515
1829 0 79.3707 13.6826 1086 55.3435 911.028 535.401
1830 0 81.5253 13.6645 1114 55.5332 911.07 534.117
1831 0 84.3149 14.7542 1244 54.1945 911.124 532.359
1832 0 88.2691 14.3312 1265 54.698 911.741 530.422
1833 0 90.5401 13.6183 1233 56.2441 911.784 525.701
1834 0 94.6352 13.8638 1312 55.843 912.015 525.291
1835 0 95.4229 13.9799 1334 56.5517 912.115 524.706
1836 0 99.7443 13.9757 1394 55.9498 912.459 523.827
1837 0 103.545 14.4865 1500 54.9213 912.561 522.999
1838 0 108.392 14.4106 1562 54.904 912.853 520.278
1839 0 110.472 14.3022 1580 55.1797 912.877 518.53
1840 0 114.288 14.4722 1654 54.8634 912.788 517.56
1841 1 59.3335 10.9719 651 55.3379 912.929 543.309
1842 0 62.2722 12.2045 760 54.0158 913.167 541.818
1843 0 63.2428 12.2069 772 54.0181 913.381 540.254
1844 0 67.4338 12.3232 831 53.1961 914.11 538.614
1845 0 68.4718 12.998 890 52.8719 914.416 536.59
1846 0 71.5731 13.2731 950 51.8863 914.491 536.252
1847 0 72.8959 12.2229 891 53.0976 914.486 534.932
1848 0 73.2994 12.5376 919 53.5473 914.592 532.161
1849 0 78.756 13.2307 1042 52.2572 914.71 532.391
1850 0 80.6335 13.3071 1073 52.9459 914.392 527.521
1851 0 85.7062 13.9547 1196 51.2283 914.671 528.278
1852 0 88.4979 13.6839 1211 51.8026 914.817 524.462
1853 0 91.5387 13.4588 1232 50.9196 915.201 523.333
1854 0 92.5383 12.2976 1138 52.036 915.104 522.829
1855 0 94.5827 12.2221 1156 51.9732 914.54 524.502
1856 0 99.5391 13.1707 1311 51.4775 914.496 521.791
1857 0 101.499 12.6603 1285 51.565 914.517 521.251
1858 1 54.1584 10.857 588 49.0051 915.425 544.833
1859 0 58.1844 10.5183 612 50.3039 915.16 542.144
1860 0 58.1393 10.9736 638 50.0768 915.249 544.008
1861 0 59.1084 11.9442 706 49.7238 915.156 544.33
1862 0 61.3053 11.4998 705 51.1078 913.338 543.916
1863 0 62.1237 12.121 753 50.077 914.892 544.841
1864 0 65.1072 12.9325 842 48.9656 914.012 543.809
1865 0 67.1242 13.2739 891 48.5129 914.511 540.771
1866 0 70.11 11.6959 820 49.9463 913.873 541.102
1867 0 73.0439 12.7184 929 48.9139 914.059 540.809
1868 0 76.0572 13.3321 1014 48.4467 914.03 540.045
1869 0 75.1215 13.2452 995 50.0683 912.832 537.262
1870 0 76.225 11.9121 908 50.7401 912.587 537.357
1871 0 78.1983 12.6985 993 49.6546 912.222 535.602
1872 0 83.1356 13.2675 1103 49.0127 912.287 533.975
1873 0 85.1729 13.6781 1165 48.8266 911.856 531.357
1874 0 87.2979 12.7953 1117 49.9919 911.696 529.846
1875 0 90.2417 13.5968 1227 49.3073 910.923 531.063
1876 0 94.2919 13.2673 1251 49.8993 911.329 527.849
1877 0 96.4641 13.518 1304 49.7454 911.285 524.011
1878 1 52.1831 10.8081 564 49.4982 911.628 546.534
1879 0 53.1833 11.4886 611 49.3257 911.768 548.334
1880 0 52.3897 12.2734 643 49.1213 911.787 543.683
1881 0 57.1989 11.6261 665 49.6556 911.523 544.57
1882 0 56.0477 12.3645 693 50.583 910.502 550.019
1883 0 57.0812 12.5961 719 50.2935 911.729 548.942
1884 0 60.1647 12.7816 769 50.381 911.605 548.311
1885 0 60.0362 12.9922 780 51.1731 911.481 546.74
1886 0 63.0327 12.8822 812 51.947 911.565 545.752
1887 0 64.163 13.98 897 50.5753 911.213 545.972
1888 0 67.0828 13.5802 911 50.8112 910.919 546.088
1889 0 68.1611 13.9816 953 51.8038 911.378 543.689
1890 0 71.2116 13.7899 982 51.6853 910.504 543.154
1891 0 73.1827 13.7737 1008 51.8413 909.906 544.207
1892 0 75.1817 14.2588 1072 51.6968 910.219 541.425
1893 0 77.2151 13.9481 1077 52.4383 909.803 540.181
1894 0 81.2216 15.0206 1220 51.332 910.128 537.809
1895 0 82.3208 13.3988 1103 53.6274 909.359 536.702
1896 0 86.3159 14.4585 1248 52.0825 909.954 534.401
1897 1 45.1921 10.7762 487 52.6899 910.016 553.421
1898 0 45.2972 11.2369 509 53.4126 910.316 552.99
1899 0 47.1752 12.7821 603 53.0464 909.604 551.29
1900 0 48.2437 11.5663 558 54.0896 909.276 553.131
1901 0 50.1514 13.2798 666 52.9925 908.443 551.267
1902 0 52.0522 12.5835 655 53.6214 908.24 553.382
1903 0 53.03 12.7287 675 53.8696 908.033 552.616
1904 0 54.1824 13.1224 711 53.7173 908.55 552.103
1905 0 55.1234 13.7328 757 53.5575 908.687 551.098
1906 0 57.149 12.6336 722 54.9945 908.424 551.001
1907 0 58.1728 13.9412 811 53.8471 908.945 549.901
1908 0 61.1574 14.3237 876 52.9098 908.842 551.252
1909 0 63.0969 14.2796 901 53.5727 908.457 548.444
1910 0 65.1866 13.4077 874 54.3238 908.213 549.46
1911 0 67.0941 13.0712 877 55.3364 907.924 547.647
1912 0 71.0533 14.1021 1002 53.8343 907.589 546.685
1913 0 72.2754 14.5969 1055 53.7782 907.585 545.547
1914 0 74.1135 12.9126 957 55.674 907.598 544.101
1915 0 76.2023 13.1886 1005 55.4637 907.12 544.606
1916 0 78.188 12.8536 1005 56.6289 907.615 540.951
1917 0 83.2639 13.5953 1132 55.3825 907.229 541.292
1918 0 84.3023 14.0447 1184 56.0718 907.295 539.181
1919 0 87.2948 13.3914 1169 57.0804 907.291 537.5
1920 0 92.3196 13.919 1285 56.0879 908.304 534.889
1921 0 93.2901 14.3531 1339 56.106 907.866 534.391
1922 0 95.4842 13.2273 1263 57.7609 907.516 532.559
1923 0 99.3283 13.7423 1365 57.1011 907.524 532.596
1924 1 50.0646 11.0857 555 57.0883 907.115 557.346
1925 0 54.1357 12.1916 660 57.1227 906.535 554.085
1926 0 56.137 12.1489 682 56.5718 906.71 553.993
1927 0 56.1016 12.3704 694 57.5749 906.621 552.373
1928 0 60.0933 13.0131 782 56.0524 907.107 552.453
1929 0 60.1271 11.8083 710 56.0887 906.49 551.801
1930 0 63.0806 13.0785 825 54.8764 906.632 549.545
1931 0 62.1412 12.7773 794 55.7191 906.802 550.369
1932 0 65.0389 12.1158 788 55.7525 906.594 549.393
1933 0 69.1618 13.4034 927 54.3937 906.868 547.947
1934 0 69.2336 13.1583 911 55.1262 906.541 545.735
1935 0 73.21 12.8808 943 55.1983 906.948 544.753
1936 0 75.0883 13.5041 1014 55.4014 906.501 543.078
1937 0 77.3055 13.3755 1034 55.3733 907.037 543.059
1938 0 78.1823 13.6348 1066 55.1032 907.057 540.317
1939 0 82.2512 13.9694 1149 54.9008 907.831 541.419
1940 0 85.2706 13.3809 1141 55.6188 907.957 538.226
1941 0 90.2565 13.4616 1215 55.1383 907.893 537.56
1942 0 93.3857 13.8886 1297 54.5667 907.587 536.102
1943 1 47.3449 9.6737 458 57 907.103 558.074
1944 0 49.4235 10.6832 528 55.286 907.383 555.078
1945 0 52.475 11.6627 612 54.1895 907.748 554.074
1946 0 54.3809 11.2723 613 54.8434 907.767 553.331
1947 0 54.297 12.7079 690 53.587 907.917 551.351
1948 0 56.1548 12.2519 688 54.1991 907.158 550.571
1949 0 58.2125 13.2446 771 52.7613 907.755 551.083
1950 0 60.3974 13.4774 814 52.5565 908.327 550.469
1951 0 63.3754 14.0906 893 51.6215 908.524 548.586
1952 0 64.5408 13.108 846 53.104 908.228 547.333
1953 0 65.312 13.3054 869 53.4983 908.755 545.244
1954 0 65.312 13.2901 868 161.214 908.747 545.288
1955 0 69.5308 13.2459 921 52.9935 909.548 542.217
1956 0 72.5377 12.7244 923 53.5883 909.853 541.662
1957 0 72.5377 12.7244 923 164.533 909.853 541.636
1958 1 38.3311 10.7484 412 53.3495 909.913 557.825
1959 0 40.4697 10.1063 409 52.8215 909.636 558.125
1960 0 41.3688 11.4096 472 52.7436 909.953 555.123
1961 0 44.2478 11.0966 491 51.8961 910.328 555.299
1962 0 45.207 11.746 531 51.6422 911.058 555.394
1963 0 49.0281 11.7484 576 49.4896 911.55 555.644
1964 0 50.1127 12.7513 639 48.2833 910.516 554.71
1965 0 49.0919 11.3868 559 49.8945 911.009 554.222
1966 0 51.0875 11.5097 588 50.2024 911.565 553.684
1967 0 53.1811 11.6959 622 49.6977 912.055 553.497
1968 0 54.1421 12.9289 700 48.26 912.286 552.283
1969 0 57.1977 11.9585 684 49.0307 912.251 550.915
1970 0 57.082 12.9813 741 49.3887 911.868 548.486
1971 0 59.2465 11.8488 702 49.8034 912.369 549.34
1972 0 59.1028 12.2668 725 49.8248 911.695 548.316
1973 0 62.1769 12.1589 756 49.1693 912.356 548.261
1974 0 64.2753 12.5398 806 48.9963 912.687 545.511
1975 0 66.4271 12.0583 801 49.4931 913.599 544.834
1976 0 68.2157 12.9003 880 48.3 913.719 543.197
1977 0 70.4228 12.9362 911 48.4984 914.15 541.581
1978 1 38.0623 10.7193 408 48.2181 914.191 556.211
1979 0 38.4011 10.833 416 48.4159 913.575 555.969
1980 0 39.3337 10.6524 419 48.3222 912.959 556.224
1981 0 40.4366 11.0543 447 48.9329 913.311 554.597
1982 0 43.0756 10.8878 469 48.5288 915.262 555.731
1983 0 46.0682 12.4381 573 46.2251 915.37 555.147
1984 0 45.0748 12.2019 550 47.3073 915.505 552.873
1985 0 45.0486 14.1625 638 46.3464 915.075 552.513
1986 0 47.0728 11.5991 546 48.2692 915.324 552.491
1987 0 47.0959 11.1899 527 49.4326 914.954 552.668
1988 0 48.028 12.0555 579 48.9568 915.256 551.307
1989 0 50.0884 11.9389 598 49.112 914.739 550.617
1990 0 50.1681 12.179 611 49.3142 914.977 550.213
1991 0 54.055 13.4308 726 48.0882 914.753 547.738
1992 0 54.1124 12.8991 698 48.7679 914.587 548.116
1993 0 57.1155 12.9562 740 48.9946 914.822 547.53
1994 0 58.0968 12.8923 749 49.5407 914.537 546.617
1995 0 59.0993 13.7227 811 49.1837 915.149 546.551
1996 0 62.0715 13.6455 847 48.8926 915.508 545.848
1997 0 64.1214 13.5524 869 49.8159 914.666 543.577
1998 0 64.0966 12.528 803 51.2229 914.413 544.014
1999 0 68.1019 13.1714 897 50.4682 914.708 542.852
2000 0 69.0722 13.1167 906 51.2428 914.562 540.98
2001 0 71.1594 13.1957 939 51.4015 914.163 539.031
2002 0 76.2006 13.7269 1046 50.2447 913.741 538.64
2003 1 41.047 11.5234 473 50.3679 913.683 555.793
2004 0 41.0867 11.4636 471 51.4862 913.155 555.473
2005 0 45.0565 12.3179 555 50.9405 912.973 554.44
2006 0 46.0365 12.4684 574 50.439 912.089 554.861
2007 0 45.1014 12.2834 554 50.9242 913.399 555.132
2008 0 49.133 12.3339 606 50.6469 913.69 553.55
2009 0 50.0769 13.6989 686 49.7303 913.146 552.284
2010 0 49.0481 12.9261 634 51.1025 912.894 551.569
2011 0 52.1141 12.3767 645 51.5023 912.941 551.112
2012 0 53.1354 12.9857 690 50.9899 912.729 549.212
2013 0 55.0436 12.8807 709 51.4951 912.309 549.323
2014 0 56.0961 13.0847 734 51.5245 911.604 547.467
2015 0 58.0542 12.7639 741 51.7126 911.501 548.433
2016 0 60.1063 13.6591 821 51.028 911.588 547.732
2017 0 62.0274 14.1389 877 50.8586 912.106 546.192
2018 0 63.2151 13.4145 848 51.8125 911.608 544.966
2019 0 64.1531 12.4234 797 52.8156 911.723 545.821
2020 0 68.1426 14.0881 960 51.3719 911.548 543.639
2021 0 70.2335 14.2809 1003 50.8295 911.733 543.113
2022 0 70.1231 13.2767 931 52.7336 911.824 541.765
2023 0 72.2537 12.3315 891 53.7789 911.126 542.251
2024 0 74.074 13.716 1016 53.063 911.028 540.851
2025 0 77.1701 13.9821 1079 52.9444 911.31 539.793
2026 0 77.1701 13.9432 1076 157.694 911.318 539.851
2027 1 40.0612 12.1564 487 53.809 910.926 557.959
2028 0 43.0412 12.3835 533 53.5685 910.69 558.084
2029 0 42.061 12.577 529 54.7108 910.467 556.853
2030 0 47.055 13.7711 648 52.3102 909.154 557.798
2031 0 46.0446 13.6824 630 53.8714 910.69 556.608
2032 0 47.1002 12.1443 572 56.3531 910.25 557.191
2033 0 49.0244 13.5851 666 55.7117 910.568 554.107
2034 0 50.1031 14.0311 703 55.6245 910.182 552.499
2035 0 52.0756 14.4021 750 55.496 909.607 553.02
2036 0 53.0862 12.8659 683 57.59 909.72 552.06
2037 0 56.1244 14.2897 802 56.3903 909.595 550.596
2038 0 55.0664 14.6914 809 56.5352 909.309 549.64
2039 0 57.0749 14.332 818 57.6161 909.369 549.412
2040 0 59.0769 14.6419 865 57.0208 909.492 549.977
2041 0 61.1706 15.514 949 55.9273 909.297 548.465
2042 0 63.0782 14.0143 884 58.1097 909.506 548.304
2043 0 65.0634 14.8471 966 56.9855 909.741 546.601
2044 0 68.0657 14.104 960 57.8156 909.14 546.041
2045 0 70.0945 15.3792 1078 56.6354 908.66 544.536
2046 0 71.3093 14.5002 1034 57.7485 908.984 543.959
2047 0 74.2406 15.2612 1133 57.0494 908.635 542.842
2048 0 76.2407 14.2706 1088 58.5221 908.581 542.572
2049 0 78.1535 14.6251 1143 58.1277 908.24 540.735
2050 0 80.1633 14.1087 1131 58.4209 907.963 541.782
2051 0 84.2048 15.0348 1266 57.1161 908.02 539.863
2052 0 85.1368 15.0816 1284 57.7827 907.623 536.392
2053 0 85.1368 15.0934 1285 172.801 906.618 536.334
2054 1 48.1095 13.0951 630 60.3603 907.248 556.556
2055 0 49.052 11.4369 561 62.3975 906.888 556.56
2056 0 49.1222 13.0898 643 62.2722 906.323 554.375
2057 0 53.074 13.2833 705 61.2823 906.54 554.111
2058 0 54.0336 13.6952 740 60.5432 906.951 554.007
2059 0 55.0352 13.5004 743 61.1588 907.184 552.503
2060 0 57.0766 13.8235 789 60.4106 907.583 551.558
2061 0 61.0238 14.2076 867 59.2007 907.504 551.398
2062 0 62.091 13.0132 808 60.5606 907.859 549.373
2063 0 62.091 13.0132 808 170.403 907.859 549.373
2064 0 66.224 13.8922 920 59.1098 907.885 548.629
2065 0 67.1155 13.1117 880 60.6295 908.101 547.735
2066 0 70.1007 13.9228 976 59.4129 908.561 545.551
2067 0 73.0347 13.8701 1013 59.538 908.487 544.955
2068 0 73.1255 13.0187 952 61.3929 907.652 544.151
2069 0 76.136 13.5415 1031 60.5694 908.549 542.333
2070 1 39.0801 9.72362 380 62.4395 908.726 560.616
2071 0 41.1308 11.354 467 61.6638 908.525 559.58
2072 0 44.082 11.4106 503 61.7316 908.938 558.477
2073 0 44.0771 11.8883 524 61.1298 908.979 558.95
2074 0 45.04 12.9662 584 60.3853 908.082 557.01
2075 0 49.0347 13.5007 662 59.1601 908.576 556.586
2076 0 48.0716 13.5423 651 59.8187 908.33 555.991
2077 0 50.0291 13.0124 651 61.0215 908.507 555.048
2078 0 51.016 12.7411 650 61.9015 908.775 553.534
2079 0 52.043 13.7963 718 61.0696 909.288 552.518
2080 0 55.1036 14.1552 780 60.3397 909.249 552.178
2081 0 56.1024 13.5288 759 61.1924 909.63 551
2082 0 57.102 13.327 761 61.4573 910.083 551.736
2083 0 60.0397 13.8742 833 61.0684 909.73 549.385
2084 0 61.0851 13.2111 807 62.0421 909.882 549.69
2085 0 61.2335 13.5383 829 62.5115 909.743 547.192
2086 0 64.1948 13.5214 868 61.6221 909.98 546.335
2087 0 68.1253 14.0623 958 60.858 909.998 545.594
2088 0 67.169 13.2204 888 62.9302 910.62 544.178
2089 1 36.047 10.4863 378 63.3148 911.286 560.542
2090 0 39.0221 11.0194 430 62.5512 911.488 559.765
2091 0 39.054 11.5481 451 62.6696 911.647 557.477
2092 0 42.086 11.429 481 62.4179 912.599 557.809
2093 0 44.0615 11.8925 524 61.3931 912.233 556.452
2094 0 44.1235 12.9636 572 60.6976 911.699 555.103
2095 0 46.0778 12.9781 598 60.4465 911.764 554.234
2096 0 48.0961 13.2027 635 59.7197 911.831 553.268
2097 0 49.0864 12.4882 613 60.6998 911.625 553.214
2098 0 52.0476 13.9488 726 58.6722 911.683 552.53
2099 0 51.1186 12.9698 663 60.9382 911.995 551.629
2100 0 53.116 12.8587 683 61.2548 912.264 552.252
2101 0 53.3316 12.7504 680 61.4956 912.228 552.066
2102 0 55.1171 13.6074 750 60.4867 913.064 549.424
2103 0 54.2961 13.0212 707 62.2164 913.065 547.683
2104 0 57.2984 13.5606 777 60.7735 913.363 548.879
2105 0 59.1341 13.1734 779 61.4929 913.783 546.985
2106 0 61.2011 13.5618 830 60.7518 913.914 545.708
2107 0 65.1451 13.3702 871 60.2572 913.777 544.425
2108 0 65.1658 13.4119 874 61.0046 913.72 543.801
2109 0 66.2609 12.9337 857 61.9102 913.589 541.693
2110 0 71.1502 14.378 1023 59.4018 913.828 542.148
2111 0 71.2296 14.2918 1018 60.0629 913.797 538.277
2112 0 74.2402 13.3216 989 60.9676 914.087 538.177
2113 0 78.1194 13.7354 1073 60.343 913.736 535.848
2114 1 41.0392 11.4281 469 59.7441 914.482 555.004
2115 0 40.0127 10.4967 420 60.7095 914.6 555.983
2116 0 44.1663 11.6605 515 58.5767 912.408 552.443
2117 0 47.1963 11.9501 564 56.7092 912.092 552.622
2118 0 45.2183 12.7382 576 56.7743 912.043 550.306
2119 0 48.0535 12.1531 584 56.464 913.015 551.317
2120 0 50.0849 12.8582 644 56.2624 912.77 550.829
2121 0 49.0107 13.1808 646 56.6502 914.039 550.088
2122 0 52.1651 13.3039 694 56.1599 913.631 549.415
2123 0 54.1972 13.2479 718 55.8231 913.652 548.642
2124 0 54.0863 13.5709 734 56.3447 913.244 548.168
2125 0 55.0466 12.9527 713 57.2034 913.617 548.557
2126 0 59.0316 12.8575 759 56.9341 912.913 547.468
2127 0 60.1051 13.2435 796 56.598 912.921 545.766
2128 0 63.1802 13.9284 880 55.7102 912.528 544.768
2129 0 65.0916 13.0124 847 56.8477 912.048 543.421
2130 0 66.1261 14.2001 939 55.5005 911.749 542.073
2131 0 71.1082 13.6693 972 55.6019 912.102 540.959
2132 0 74.0929 13.78 1021 55.3937 911.959 541.039
2133 0 76.126 13.7272 1045 55.5522 911.225 540.004
2134 0 78.1874 14.6571 1146 55.1422 911.568 538.398
2135 0 80.2344 14.6197 1173 55.1262 911.322 536.507
2136 0 83.2923 14.0349 1169 56.0573 911.038 533.873
2137 0 86.3095 14.1815 1224 55.5539 910.614 534.086
2138 1 46.3354 10.2513 475 58.9811 910.996 554.312
2139 0 46.0868 11.0661 510 57.8216 911.235 554.859
2140 0 48.2599 12.2048 589 56.5688 911.136 552.975
2141 0 52.1992 12.4906 652 56.3957 910.193 552.442
2142 0 53.2944 11.99 639 56.9218 910.746 551.621
2143 0 55.0933 12.0523 664 57.8946 910.982 550.925
2144 0 57.1005 12.5218 715 57.158 911.14 549.717
2145 0 58.2437 13.2375 771 57.2257 910.619 549.288
2146 0 60.1069 12.7772 768 57.7591 910.124 549.277
2147 0 63.3239 13.6757 866 56.4527 909.784 546.89
2148 0 64.4831 12.9802 837 57.6738 910.023 546.535
2149 0 67.542 12.8513 868 57.909 910.289 544.816
2150 0 70.4565 13.4977 951 57.6498 910.386 544.797
2151 0 71.4098 14.0877 1006 57.672 910.412 544.175
2152 0 74.678 14.4353 1078 57.6429 910.579 541.452
2153 0 76.453 13.5508 1036 59.2558 910.581 539.979
2154 1 43.3515 11.1876 485 60.4227 909.239 558.503
2155 0 41.7343 10.2793 429 62.5361 909.674 557.559
2156 0 44.4623 11.4704 510 60.7549 908.994 557.329
2157 0 47.438 11.6784 554 60.2798 908.91 557.027
2158 0 47.3552 11.0442 523 61.1683 908.543 556.946
2159 0 46.3066 12.6548 586 60.4863 909.278 555.519
2160 0 48.3571 12.3456 597 60.5963 909.022 555.853
2161 0 50.3584 12.7089 640 60.0922 908.577 554.394
2162 0 50.3367 13.1713 663 59.7677 908.541 553.837
2163 0 51.0214 13.2297 675 60.4015 909.526 555.794
2164 0 53.0931 14.145 751 59.1172 908.754 553.85
2165 0 57.1014 13.5023 771 59.6719 908.248 552.741
2166 0 57.1079 13.9911 799 59.8198 909.038 551.252
2167 0 57.1002 13.3975 765 61.3059 908.426 551.963
2168 0 61.2241 13.3281 816 60.2623 908.39 551.561
2169 0 61.1019 13.7966 843 61.5386 908.421 550.077
2170 0 65.2994 13.4611 879 60.8146 908.537 549.4
2171 0 65.4364 13.494 883 60.5493 908.356 548.29
2172 0 67.1828 13.307 894 61.0134 908.142 546.742
2173 0 70.2964 14.1117 992 59.7218 907.893 545.793
2174 0 71.1955 13.7087 976 60.6906 907.631 544.58
2175 0 73.4118 14.1122 1036 59.9266 907.988 541.389
2176 0 76.4444 14.0756 1076 59.5139 908.445 540.81
2177 0 77.3351 13.5643 1049 60.775 908.69 539.415
2178 0 80.3825 12.7515 1025 60.7785 908.541 537.54
2179 0 82.3714 13.8519 1141 59.5819 908.457 535.468
2180 1 44.403 10.8777 483 60.1656 908.805 555.772
2181 0 45.3275 11.3838 516 59.6822 908.897 555.802
2182 0 47.245 12.1706 575 58.9513 907.894 557.572
2183 0 48.046 11.7596 565 59.6425 907.65 558.131
2184 0 50.1561 12.6206 633 58.3776 908.374 556.144
2185 0 51.039 13.4211 685 57.9985 909.296 554.066
2186 0 53.0225 13.6923 726 57.5813 909.652 552.956
2187 0 53.036 12.8592 682 59.0953 909.953 551.023
2188 0 56.0498 13.8805 778 57.9049 910.1 550.864
2189 0 57.0369 13.3598 762 58.1063 910.467 551.079
2190 0 58.1077 12.3392 717 59.2162 909.861 550.679
2191 0 60.1015 13.394 805 58.5292 910.395 549.132
2192 0 62.196 13.4414 836 58.5371 910.152 547.854
2193 0 64.0917 14.0268 899 57.604 910.509 546.56
2194 0 65.3714 13.3086 870 58.4333 910.44 544.305
2195 0 68.2002 13.1671 898 58.6804 910.847 543.392
2196 0 70.2966 13.2012 928 58.3125 910.778 543.428
2197 0 73.2996 13.6972 1004 57.3655 910.938 540.895
2198 0 76.341 13.9899 1068 57.162 911.077 537.987
2199 0 79.1876 13.4112 1062 57.9209 911.266 538.92
2200 1 41.1205 9.82479 404 57.9505 911.78 557.671
2201 0 42.1423 10.6069 447 57.7069 911.902 555.655
2202 0 42.1252 11.8456 499 57.4148 911.383 554.551
2203 0 44.0314 11.6054 511 57.593 911.632 554.014
2204 0 46.0665 12.8727 593 55.7993 912.961 553.857
2205 0 47.0589 11.9 560 56.975 911.618 554.102
2206 0 49.0857 12.631 620 56.15 911.5 552.115
2207 0 50.0621 12.5644 629 56.5644 912.065 551.531
2208 0 51.1179 13.1069 670 56.4522 912.001 552.303
2209 0 53.0533 12.2895 652 57.023 912.552 550.761
2210 0 54.0593 11.8944 643 57.8771 912.47 550.339
2211 0 57.0857 12.8579 734 55.8733 913.087 549.243
2212 0 55.0667 13.4927 743 55.6904 913.124 547.864
2213 0 59.055 13.3943 791 55.536 912.769 547.573
2214 0 59.2287 13.3381 790 55.5089 913.511 547.299
2215 0 62.0827 12.7894 794 56.5378 913.683 546.349
2216 0 64.2812 13.6587 878 55.4795 913.819 544.998
2217 0 65.0646 12.9564 843 57.0332 913.656 542.23
2218 0 67.3003 13.997 942 55.3811 914.14 541.96
2219 0 70.0575 13.0179 912 56.4759 913.762 541.39
2220 0 72.0877 13.8581 999 56.3063 913.561 539.606
2221 0 73.1217 13.0604 955 57.778 913.473 540.064
2222 0 77.1393 13.5728 1047 57.4613 913.883 536.878
2223 1 41.0572 10.668 438 59.0068 914.683 555.347
2224 0 43.0175 11.2745 485 57.2825 914.94 556.363
2225 0 44.0315 11.1965 493 57.9108 914.471 553.933
2226 0 44.0228 11.5168 507 59.1736 914.28 552.274
2227 0 45.1566 12.7113 574 58.6359 912.449 551.328
2228 0 48.1464 13.5628 653 57.6217 913.178 549.718
2229 0 50.3383 12.8133 645 59.214 913.498 550.333
2230 0 54.3369 12.8826 700 58.4886 913.261 549.399
2231 0 55.1796 12.9033 712 58.809 913.372 547.476
2232 0 54.3577 13.9999 761 57.7884 913.231 547.624
2233 0 58.1999 13.9691 813 56.9594 912.978 545.681
2234 0 58.1724 13.6491 794 57.8363 912.859 545.123
2235 0 62.3959 13.4143 837 57.2999 912.619 546.096
2236 0 64.3044 13.9648 898 56.5635 912.425 543.06
2237 0 64.2053 13.5814 872 57.3268 912.269 542.561
2238 0 66.3233 13.0572 866 57.7032 911.799 542.666
2239 0 69.6295 14.5197 1011 55.6083 911.987 540.057
2240 0 70.3511 13.5321 952 57.2794 912.241 540.158
2241 0 72.2845 13.2809 960 57.2115 912.223 538.36
2242 0 75.2872 13.6013 1024 56.9355 912.012 537.677
2243 0 78.3284 14.1583 1109 56.2002 912.168 535.884
2244 0 82.2664 14.3558 1181 55.4615 912.765 534.075
2245 1 40.2364 11.7555 473 57.3996 911.977 553.92
2246 0 43.3746 10.6745 463 58.216 911.43 554.402
2247 0 44.425 11.5926 515 56.8602 911.672 553.707
2248 0 47.3577 12.0572 571 56.4536 911.159 552.063
2249 0 48.3746 12.0725 584 56.899 911.168 551.791
2250 0 50.5249 12.7066 642 56.1449 911.474 550.171
2251 0 52.0991 13.2056 688 55.4985 911.062 548.235
2252 0 54.0964 12.7735 691 56.2793 912.821 548.431
2253 0 56.2452 13.2278 744 55.5309 912.278 549.226
2254 0 57.1902 13.6037 778 55.9422 912.238 547.568
2255 0 59.0815 13.1175 775 56.2529 911.955 547.723
2256 0 60.1364 13.486 811 56.5808 912.386 546.002
2257 0 61.0629 13.658 834 56.4844 911.953 545.495
2258 0 66.0845 13.5735 897 55.4571 912.119 544.258
2259 0 67.094 13.6674 917 56.1254 912.189 543.063
2260 0 70.151 14.2977 1003 55.2433 912.553 543.463
2261 0 70.1728 14.2078 997 56.6449 912.494 539.617
2262 0 74.1733 14.4257 1070 56.3103 912.837 540.707
2263 0 75.1011 13.848 1040 57.174 912.358 540.744
2264 0 77.1354 13.392 1033 58.0891 912.489 540.106
2265 0 78.0978 14.1617 1106 58.1835 912.585 538.163
2266 0 83.1181 14.2328 1183 57.4413 912.591 537.059
2267 0 85.3468 13.7088 1170 58.441 913.128 534.587
2268 0 87.2291 14.0779 1228 58.4357 913.274 534.698
2269 1 46.0623 12.1574 560 59.1357 912.495 554.225
2270 0 47.1581 12.4051 585 58.8872 912.391 555.053
2271 0 51.189 13.7725 705 57.2312 912.401 553.235
2272 0 50.1655 13.2761 666 59.3874 912.264 551.674
2273 0 54.1087 13.4914 730 58.1849 912.384 550.671
2274 0 54.1023 13.2157 715 59.2154 912.14 551.759
2275 0 54.0739 13.2041 714 59.9314 912.059 550.101
2276 0 58.0746 14.0165 814 58.9017 911.956 549.498
2277 0 62.1216 14.2623 886 58.1411 911.894 548.646
2278 0 62.0721 13.291 825 60.1273 911.458 547.726
2279 0 64.0543 13.6291 873 59.6357 911.621 547.809
2280 0 65.1228 13.9736 910 59.6846 911.779 547.08
2281 0 67.1406 13.8962 933 60.0364 911.302 545.732
2282 0 69.2494 13.0543 904 61.0188 911.304 545.348
2283 0 70.0574 13.7744 965 60.7627 910.759 543.058
2284 0 75.1144 13.6858 1028 60.6323 910.937 540.369
2285 0 77.0321 13.9812 1077 60.5664 911.201 541.458
2286 0 80.0739 14.4491 1157 59.8263 911.074 540.466
2287 0 82.1421 14.341 1178 60.5594 910.425 538.896
2288 0 84.1035 14.3157 1204 60.9145 910.432 536.297
2289 1 44.0211 10.4268 459 61.3943 910.725 558.56
2290 0 45.0862 11.3117 510 61.5431 909.927 555.725
2291 0 49.1712 12.8124 630 59.3587 909.494 553.446
2292 0 48.1147 12.2624 590 60.5254 909.581 555.083
2293 0 52.1899 12.9719 677 59.3619 909.656 553.143
2294 0 53.335 13.0496 696 59.7328 909.391 553.401
2295 0 55.2679 12.7018 702 60.8575 910.077 551.246
2296 0 55.1736 13.9378 769 59.3784 909.823 552.432
2297 0 57.2615 13.744 787 60.1715 909.563 551.953
2298 0 59.2381 14.2645 845 60.0615 909.464 550.167
2299 0 59.082 13.9298 823 60.0802 909.956 551.248
2300 0 62.11 12.7033 789 61.4119 909.588 549.131
2301 0 64.1823 14.0849 904 60.0896 909.235 547.235
2302 0 67.1953 14.6885 987 59.1591 909.525 547.282
2303 0 67.2209 14.1623 952 60.9737 909.204 545.432
2304 0 71.2128 14.2531 1015 60.5547 909.316 545.387
2305 0 71.1777 14.1898 1010 61.4337 909.544 543.759
2306 0 75.2573 14.0186 1055 61.3649 909.169 543.644
2307 0 76.2254 13.3814 1020 62.4922 909.793 541.659
2308 0 78.3115 13.7911 1080 62.4426 909.336 541.671
2309 0 82.1821 13.2511 1089 62.8347 909.343 540.809
2310 0 84.2499 13.4362 1132 62.8419 909.789 539.954
2311 1 44.0297 12.0146 529 62.7732 910.246 557.658
2312 0 46.118 12.4246 573 62.3246 910.194 558.19
2313 0 46.0705 11.9165 549 63.1548 910.308 556.854
2314 0 50.2378 13.3565 671 61.3368 910.48 555.063
2315 0 52.0687 13.4822 702 61.6937 910.493 554.37
2316 0 53.2264 13.6774 728 62.5302 909.567 554.162
2317 0 53.1634 13.0917 696 63.6106 909.948 552.76
2318 0 55.0982 14.3199 789 62.3802 910.09 552.234
2319 0 58.0595 14.0029 813 62.9582 910.56 550.092
2320 0 61.0931 14.0932 861 62.3717 911.702 548.729
2321 0 63.02 13.8051 870 63.2678 911.641 549.06
2322 0 63.0372 13.3889 844 63.7251 911.618 547.833
2323 0 68.1419 13.8681 945 62.5556 911.733 545.908
2324 0 69.1254 14.7558 1020 62.3373 912.082 542.951
2325 0 72.3396 14.5149 1050 62.2333 912.144 541.198
2326 0 75.1196 13.2322 994 63.6429 912.543 539.942
2327 0 77.1943 14.5348 1122 62.475 912.746 538.843
2328 0 80.142 14.3121 1147 62.6286 912.911 536.895
2329 1 44.0596 12.2107 538 64.0335 913.171 555.465
2330 0 43.1422 11.2651 486 64.6049 913.183 555.907
2331 0 44.2436 12.838 568 63.5563 913.794 555.373
2332 0 46.1542 12.9782 599 64.4674 913.462 554.755
2333 0 49.2115 13.2692 653 64.2021 913.023 553.34
2334 0 50.0296 14.0117 701 63.1626 913.475 552.161
2335 0 51.0339 14.0103 715 63.6587 913.473 552.053
2336 0 54.0448 13.6924 740 63.4676 913.412 549.977
2337 0 55.0773 14.2709 786 62.827 913.188 549.303
2338 0 56.062 13.8597 777 63.4813 913.723 549.613
2339 0 58.0519 12.8678 747 64.4364 912.764 548.983
2340 0 62.1821 13.1227 816 63.6103 913.466 547.925
2341 0 64.1874 13.9124 893 62.6361 913.262 546.744
2342 0 64.0802 14.279 915 63.2131 912.991 545.651
2343 0 67.2077 13.9716 939 62.7199 913.188 543.799
2344 0 70.2207 14.0984 990 62.5273 913.51 542.43
2345 0 71.1926 13.6531 972 63.3344 913.774 540.315
2346 0 74.1489 14.5788 1081 62.1064 913.946 538.795
2347 0 79.1657 14.7665 1169 61.1334 914.138 537.79
2348 1 40.0563 10.66 427 64.0422 915.108 557.902
2349 0 42.13 11.156 470 63.9021 915.204 556.738
2350 0 43.1648 11.6762 504 64.0476 915.081 555.571
2351 0 46.0586 13.1137 604 61.9023 914.704 554.123
2352 0 46.0861 13.2144 609 62.9261 914.076 553.366
2353 0 47.1488 13.574 640 63.0641 914.052 552.402
2354 0 50.304 14.3925 724 61.9696 914.137 550.362
2355 0 49.2988 13.9963 690 62.8507 913.928 549.922
2356 0 52.097 13.9739 728 62.1868 913.762 550.456
2357 0 54.4611 13.9916 762 62.2992 913.652 548.648
2358 0 54.1431 14.0553 761 64.1104 913.386 546.485
2359 0 57.5403 13.9902 805 62.7366 913.082 546.045
2360 0 58.1905 13.9026 809 64 913.252 544.76
2361 0 60.268 14.2364 858 63.831 913.364 544.896
2362 0 61.3193 14.3022 877 63.959 913.575 544.821
2363 0 64.5951 14.1961 917 63.145 912.883 544.273
2364 0 65.3068 15.3124 1000 62.505 913.116 542.088
2365 0 67.3575 14.2523 960 63.7927 912.897 540.984
2366 0 68.2038 14.9258 1018 63.4676 912.276 541.196
2367 0 70.279 14.6843 1032 64.2277 912.408 539.382
2368 0 73.2543 14.552 1066 64.5366 911.819 538.659
2369 0 77.269 14.2748 1103 64.6201 911.584 536.77
2370 0 79.2761 14.8721 1179 64.5929 911.633 534.617
2371 0 81.3181 15.2611 1241 64.1281 911.463 533.407
2372 0 85.3681 15.3336 1309 63.8434 911.319 532.892
2373 0 87.4847 16.2771 1424 63.1924 911.553 530.827
2374 0 90.3518 15.3732 1389 64.9201 911.376 529.992
2375 0 93.2992 14.7375 1375 65.9215 911.341 527.165
2376 1 49.1687 12.4469 612 67.3301 911.289 549.922
2377 0 51.479 12.7042 654 67.3257 911.116 548.893
2378 0 51.1508 12.8053 655 67.9802 911.583 548.718
2379 0 57.1465 14.2616 815 64.7362 911.378 547.488
2380 0 58.3204 14.4718 844 64.4787 911.239 546.931
2381 0 61.5061 14.0474 864 62.1875 910.656 545.483
2382 0 62.1603 13.7387 854 63.2693 911.377 544.356
2383 0 63.209 14.1752 896 63.2545 910.744 544.14
2384 0 66.4419 14.4036 957 62.1452 911.39 544.354
2385 0 69.2835 15.083 1045 60.9541 911.562 541.997
2386 0 72.5606 14.3329 1040 62.5433 911.305 540.263
2387 0 72.396 14.8903 1078 61.8646 911.635 540.103
2388 0 77.2787 16.2529 1256 59.8646 911.432 539.232
2389 0 80.284 15.059 1209 61.2514 911.877 537.725
2390 0 80.2361 14.9434 1199 62.2636 911.742 536.857
2391 0 84.4084 13.8967 1173 63.162 911.697 536.052
2392 0 87.44 15.5764 1362 61.3025 911.758 534.233
2393 0 89.2438 15.0599 1344 62.3333 911.534 532.808
2394 0 91.1718 15.1911 1385 62.5264 911.549 531.04
2395 0 93.4708 15.0314 1405 62.8769 911.927 531.026
2396 1 50.1124 11.7137 587 63.707 911.591 552.516
2397 0 50.1824 12.6339 634 63.7461 911.322 550.756
2398 0 52.0617 12.1394 632 63.2421 911.364 550.57
2399 0 53.1021 12.523 665 62.6526 911.286 550.983
2400 0 55.1727 14.0831 777 61.5882 912.591 549.909
2401 0 58.1806 14.0597 818 61.8753 911.988 548.886
2402 0 59.1944 14.6804 869 61.6778 911.994 548.09
2403 0 61.2613 14.3321 878 62.3622 911.574 549.785
2404 0 63.2285 14.4555 914 62.7276 910.857 547
2405 0 64.272 14.1119 907 63.376 910.564 546.789
2406 0 68.265 14.3851 982 62.164 910.523 547.101
2407 0 70.3268 13.9492 981 63.3904 910.514 544.952
2408 0 74.1925 14.368 1066 62.2336 910.685 543.104
2409 0 77.1009 13.9687 1077 62.5088 910.609 541.552
2410 0 79.2682 13.8265 1096 62.9033 910.341 541.133
2411 0 83.1767 14.5594 1211 62.1462 909.728 538.145
2412 0 85.2485 13.8419 1180 63.0339 909.617 536.259
2413 0 88.4106 14.5231 1284 62.9665 909.57 534.702
2414 1 48.2174 12.4644 601 62.6839 908.977 555.166
2415 0 50.1992 11.8528 595 63.7664 908.768 553.807
2416 0 51.0998 12.8376 656 62.8765 908.611 554.038
2417 0 53.1323 12.4971 664 62.6747 908.717 553.931
2418 0 56.4874 13.1534 743 60.7268 909.906 553.336
2419 0 56.0861 13.4971 757 60.6024 910.18 550.503
2420 0 58.1321 13.2973 773 60.7904 909.884 551.137
2421 0 60.1006 13.91 836 60.6292 909.922 548.974
2422 0 62.3196 13.864 864 60.5498 909.628 549.811
2423 0 64.3089 13.8239 889 60.604 909.514 548.871
2424 0 65.1782 13.7623 897 61.7837 910.012 548.048
2425 0 69.0699 14.0582 971 60.379 909.634 547.083
2426 0 73.0346 14.7738 1079 60.1288 909.89 545.214
2427 0 73.1191 13.4985 987 62.0415 909.792 544.533
2428 0 75.037 13.7665 1033 61.4192 909.88 543.969
2429 0 78.1063 13.7889 1077 61.3129 909.947 541.785
2430 0 79.0431 13.3092 1052 62.1616 909.945 541.481
2431 0 84.1693 14.1144 1188 60.638 909.817 538.721
2432 0 86.1235 13.62 1173 61.2003 909.759 539.945
2433 0 90.1858 14.2595 1286 59.7162 910.406 537.754
2434 0 91.1639 14.4026 1313 60.4905 909.955 532.765
2435 0 95.268 13.0159 1240 61.2452 910.781 532.783
2436 1 51.2483 12.137 622 60.6479 909.698 553.477
2437 0 55.2729 11.6332 643 60.6236 909.353 552.862
2438 0 54.2785 11.9753 650 60.9369 909.272 551.611
2439 0 59.3056 13.0173 772 59.2811 909.699 549.688
2440 0 60.166 11.8838 715 60.4937 909.706 549.428
2441 0 64.4432 12.6468 815 59.0552 909.454 547.508
2442 0 64.2227 12.301 790 60.8506 909.686 545.904
2443 0 67.3857 12.8069 863 59.9235 909.829 546.492
2444 0 69.4804 13.3851 930 59.8183 909.217 544.79
2445 0 71.3641 13.0318 930 60.0914 909.843 543.427
2446 0 73.2444 13.6529 1000 60.135 909.507 540.293
2447 0 76.2953 13.4871 1029 60.6919 909.575 540.679
2448 0 76.3547 12.8479 981 62.524 909.761 539.582
2449 0 80.2285 13.3743 1073 61.5303 909.797 537.706
2450 0 81.3217 13.2929 1081 62.3969 909.724 536.314
2451 0 84.3525 13.325 1124 62.8132 909.852 535.391
2452 0 88.4498 13.9514 1234 62.0875 909.973 533.349
2453 1 48.2988 11.5324 557 63.5045 910.343 553.309
2454 0 47.5498 11.1252 529 62.775 910.403 553.316
2455 0 50.5412 11.3966 576 61.4097 910.106 551.849
2456 0 54.3972 12.9602 705 59.7262 910.403 551.391
2457 0 54.4682 12.6679 690 60.5188 910.704 548.383
2458 0 56.4397 13.0228 735 61.0041 911.069 549.517
2459 0 57.3013 13.717 786 61.215 910.977 548.239
2460 0 59.3901 13.9417 828 60.6159 911.007 546.798
2461 0 62.3447 13.1687 821 61.3203 911.765 546.417
2462 0 63.1421 13.4142 847 62.2692 911.911 545.509
2463 0 66.3122 13.6928 908 60.9064 911.987 544.822
2464 0 65.5764 13.9532 915 61.3104 912.401 543.215
2465 0 70.4103 13.6912 964 61.0218 912.571 541.484
2466 0 71.2836 14.0004 998 61.3617 912.989 540.714
2467 0 74.4571 14.1827 1056 60.6468 913.049 538.745
2468 0 75.6829 14.0454 1063 61.2267 913.651 537.626
2469 0 79.4634 14.3588 1141 60.7125 913.237 535.238
2470 0 81.6454 14.7834 1207 60.5733 913.65 534.03
2471 0 86.6491 16.6072 1439 57.9256 913.89 531.262
2472 0 89.427 15.2191 1361 59.637 914.072 530.951
2473 0 90.5777 14.805 1341 60.2595 914.552 530.752
2474 0 93.6995 14.237 1334 61.4603 914.47 528.698
2475 0 96.6002 15.0724 1456 60.3736 914.213 527.173
2476 1 54.6226 12.0097 656 61.0518 914.009 549.7
2477 0 55.4061 11.4789 636 61.445 913.918 549.055
2478 0 58.1505 12.6568 736 60.7976 914.933 546.47
2479 0 58.1894 13.4904 785 59.8611 915.078 545.117
2480 0 62.4395 13.1167 819 59.8266 914.107 545.133
2481 0 62.4929 13.5055 844 59.3424 914.263 544.682
2482 0 66.4305 13.1416 873 59.3345 914.058 542.874
2483 0 66.5715 12.5429 835 60.4443 914.57 542.246
2484 0 69.3773 14.3995 999 59.0761 913.765 539.123
2485 0 72.4709 13.2467 960 59.5719 914.251 537.816
2486 0 73.5593 12.6701 932 60.6245 914.356 538.314
2487 0 76.4001 13.4293 1026 59.4747 914.149 536.284
2488 0 79.3389 13.915 1104 58.4665 913.878 535.016
2489 0 82.3386 14.8169 1220 57.3525 913.519 533.569
2490 0 84.3175 13.6745 1153 58.2879 913.249 532.552
2491 1 44.1553 11.301 499 57.1924 911.778 551.89
2492 0 44.0871 11.069 488 57.2049 911.791 551.094
2493 0 48.0892 12.8511 618 55.2249 913.995 552.053
2494 0 48.0378 12.8232 616 56.0698 914.544 549.779
2495 0 50.1214 12.6692 635 55.326 914.312 551.631
2496 0 51.0528 11.8896 607 56.8303 914.217 549.792
2497 0 52.0421 13.0087 677 55.8818 914.422 549.352
2498 0 53.1355 12.3458 656 56.9756 914.488 548.383
2499 0 57.0192 13.0833 746 55.6769 914.034 548.076
2500 0 59.1477 12.7985 757 55.93 914.089 547.399
2501 0 58.0499 13.385 777 55.8366 913.642 546.746
2502 0 62.1087 12.5103 777 56.7825 913.402 544.659
2503 0 64.0305 12.9001 826 55.9044 913.565 543.772
2504 0 65.0886 12.6443 823 56.7618 913.198 542.445
2505 0 68.2249 12.9865 886 56.2596 913.573 541.034
2506 0 70.1663 12.7127 892 56.7735 913.711 540.103
2507 0 72.1843 13.0499 942 56.5775 913.254 538.776
2508 0 76.2536 13.56 1034 55.206 913.237 538.981
2509 0 78.092 13.5097 1055 56.3005 912.719 536.965
2510 1 42.042 9.56187 402 57.1119 912.587 557.667
2511 0 45.1255 10.7921 487 56.2752 912.524 554.945
2512 0 46.1204 11.2532 519 55.8304 911.846 555.112
2513 0 47.1321 11.7118 552 55.5471 911.926 553.938
2514 0 48.1215 12.1359 584 55.5445 911.798 553.288
2515 0 51.0726 12.6682 647 54.4498 911.889 552.011
2516 0 50.0893 11.6991 586 56.5222 911.42 550.573
2517 0 54.1186 12.1954 660 55.2394 911.177 549.941
2518 0 56.0922 12.3547 693 54.8672 910.915 549.394
2519 0 56.0327 12.1179 679 55.1429 911.511 549.3
2520 0 56.1504 12.5556 705 55.5106 912.078 548.338
2521 0 60.1193 12.6249 759 54.9499 911.605 547.495
2522 0 61.1451 12.6093 771 55.1543 911.551 546.647
2523 0 63.1091 13.0092 821 54.6066 912.01 545.369
2524 0 64.0804 13.2178 847 54.9115 911.536 543.527
2525 0 68.0571 13.1801 897 54.2263 911.419 543.526
2526 0 71.1925 12.9508 922 54.5076 911.233 542.376
2527 0 73.1379 13.5087 988 54.253 911.151 541.135
2528 0 76.0811 13.0256 991 54.1191 911.119 539.353
2529 0 75.1888 12.4221 934 53.7452 911.878 539.741
2530 0 75.0884 11.906 894 54.3345 912.271 540.762
2531 1 43.0927 10.9995 474 53.8207 912.272 555.985
2532 0 42.145 12.2909 518 53.6139 911.736 554.521
2533 0 42.3957 11.9823 508 52.9528 912.156 551.335
2534 0 50.1196 13.9466 699 49.432 913.124 550.176
2535 0 48.0276 12.4303 597 53.2931 912.881 551.05
2536 0 49.0179 12.7505 625 53.5888 911.982 551.814
2537 0 51.0467 12.9685 662 54.787 912.071 551.61
2538 0 51.0732 13.9995 715 55.6797 911.204 551.154
2539 0 55.1301 13.4953 744 56.25 911.195 551.441
2540 0 53.1834 13.7261 730 57.0027 910.967 550.448
2541 0 55.0662 13.8016 760 57.0132 910.864 549.693
2542 0 58.0459 13.386 777 57.305 910.795 549.308
2543 0 59.139 13.4598 796 58.1432 910.606 551.362
2544 0 59.0693 14.3899 850 58.2859 911.255 550.492
2545 0 63.237 14.2638 902 57.8248 911.368 548.705
2546 0 65.1356 14.4314 940 57.4489 911.006 547.004
2547 0 66.0314 14.2356 940 58.3021 911.139 546.144
2548 0 68.1051 14.228 969 58.388 910.878 546.278
2549 0 70.2498 13.8506 973 59.1675 910.762 544.117
2550 0 73.0775 14.0125 1024 59.043 910.383 542.822
2551 1 38.0313 11.6746 444 58.2568 909.971 562.642
2552 0 38.0671 11.3221 431 59.8005 909.181 560.742
2553 0 39.11 11.3782 445 59.1528 909.58 561.112
2554 0 41.0511 11.912 489 58.1411 909.744 560.753
2555 0 42.1298 12.3903 522 57.9349 909.713 558.745
2556 0 44.0703 12.8204 565 57.6124 909.526 559.211
2557 0 45.121 12.9651 585 56.6376 909.783 558.677
2558 0 47.1684 13.0596 616 56.1136 909.747 557.748
2559 0 47.0487 13.2416 623 56.3612 909.549 557.921
2560 0 48.1236 12.7173 612 56.9248 909.641 557.121
2561 0 48.1345 12.8806 620 57.3516 910.115 555.294
2562 0 52.1281 12.757 665 56.597 909.597 554.426
2563 0 53.0548 13.4012 711 56.3418 909.512 553.717
2564 0 55.1407 13.5653 748 56.5013 909.384 552.008
2565 0 56.1845 13.4557 756 56.6283 909.475 553.054
2566 0 55.032 13.4831 742 59.1846 909.474 551.656
2567 0 58.228 13.3097 775 59.2684 908.978 551.52
2568 0 62.1417 13.6945 851 58.2891 909.361 551.113
2569 0 62.1368 13.776 856 58.5643 909.625 550.187
2570 0 65.1449 14.3066 932 58.0365 909.298 549.265
2571 0 64.1176 13.9743 896 58.9933 909.161 548.786
2572 0 66.1369 13.5023 893 59.8679 909.206 547.441
2573 0 71.1052 13.7261 976 59.2592 908.991 546.389
2574 0 72.0676 14.084 1015 59.3369 908.845 543.423
2575 0 74.1609 13.3898 993 60.4451 908.753 544.772
2576 0 77.1538 13.8943 1072 59.8974 909.027 542.271
2577 0 79.1001 14.134 1118 59.3631 908.662 542.517
2578 1 43.075 11.5148 496 59.8488 909.784 560.881
2579 0 45.1036 11.1521 503 60.1093 909.412 560.716
2580 0 45.0522 11.3202 510 60.4608 909.863 559.237
2581 0 47.073 12.8099 603 59.7944 909.532 559.201
2582 0 50.0615 13.004 651 58.788 908.59 557.008
2583 0 51.0369 12.9318 660 59.0591 908.597 555.538
2584 0 53.0605 12.3632 656 59.1189 908.965 555.268
2585 0 55.1073 13.138 724 58.3826 909.286 553.577
2586 0 55.0506 12.9699 714 59.6275 909.339 551.99
2587 0 58.0724 13.8792 806 57.9243 909.278 552.462
2588 0 61.0328 13.0586 797 58.6888 908.898 551.011
2589 0 62.1653 13.3193 828 58.6365 909.269 549.14
2590 0 63.2127 13.684 865 58.7676 909.577 549.497
2591 0 64.0824 13.4514 862 59.1114 909.548 547.776
2592 0 67.0807 13.4912 905 58.9017 909.419 547.949
2593 0 70.0361 13.1504 921 59.6135 909.493 544.98
2594 0 72.0507 13.9208 1003 59.8106 909.585 542.605
2595 0 74.1304 13.8405 1026 59.769 909.946 542.934
2596 0 76.1429 13.9081 1059 60.0793 910.74 542.019
2597 0 80.0812 14.2855 1144 59.5437 910.872 540.619
2598 0 82.1337 13.478 1107 61.3848 911.558 538.981
2599 1 43.0448 10.8956 469 61.7313 911.652 557.211
2600 0 48.0661 12.1499 584 60.6455 912.411 555.824
2601 0 47.0968 11.8055 556 61.5342 912.167 555.752
2602 0 51.0949 12.3104 629 60.3752 912.399 554.299
2603 0 50.1951 13.1686 661 60.3737 911.782 553.947
2604 0 53.3367 13.8179 737 59.8928 911.735 552.657
2605 0 55.2313 13.0904 723 60.7303 912.172 552.237
2606 0 57.3037 14.0654 806 59.8933 912.083 551.19
2607 0 58.0641 13.6401 792 60.8245 913.894 550.722
2608 0 60.0782 13.9818 840 60.1738 913.523 547.963
2609 0 62.1009 13.7518 854 60.8326 913.653 547.103
2610 0 63.0764 14.094 889 60.351 913.854 546.718
2611 0 65.094 13.9183 906 60.7671 914.243 546.542
2612 0 68.1601 14.4953 988 60.2115 913.776 543.536
2613 0 69.1602 14.5315 1005 60.6975 913.94 542.263
2614 0 71.0957 13.3482 949 62.1654 913.973 542.673
2615 0 75.1721 13.8881 1044 61.3017 914.202 541.686
2616 0 77.1196 14.2636 1100 61.2909 914.301 539.297
2617 0 79.2133 13.9118 1102 61.559 914.435 537.712
2618 1 41.0896 11.4141 469 62.2047 913.821 557.71
2619 0 43.1887 11.3919 492 61.9593 914.498 557.244
2620 0 44.1949 9.57125 423 62.9078 915.199 555.376
2621 0 44.1226 12.9865 573 59.8988 914.442 552.785
2622 0 45.1639 11.2258 507 61.7337 914.882 553.911
2623 0 47.0865 13.677 644 59.1693 914.433 552.373
2624 0 48.0444 12.9672 623 60.4318 914.291 552.226
2625 0 49.0659 12.3304 605 61.3702 913.893 552.053
2626 0 51.0238 13.4055 684 59.9737 914.346 551.387
2627 0 52.039 13.4707 701 59.5549 914.184 549.967
2628 0 55.0578 14.0035 771 58.2944 914.35 549.462
2629 0 54.0561 13.1345 710 59.7662 914.103 549.625
2630 0 58.1557 13.5842 790 58.1316 914.359 549.611
2631 0 60.0433 13.3903 804 58.8234 914.239 547.374
2632 0 63.0988 13.7562 868 57.5461 914.403 546.681
2633 0 64.1132 14.3496 920 57.2663 915.521 545.917
2634 0 65.1007 13.41 873 58.8121 914.856 542.676
2635 0 68.1225 13.4464 916 58.5491 914.545 541.465
2636 0 71.2957 13.6754 975 58.2318 915.047 542.385
2637 0 74.4172 13.6931 1019 57.893 914.727 540.845
2638 0 76.1963 12.7959 975 59.041 914.143 538.967
2639 0 77.1697 13.5675 1047 58.4021 914.069 536.8
2640 0 81.4207 13.9891 1139 57.6541 914.371 536.27
2641 0 83.1858 13.3196 1108 59.1913 913.929 534.763
2642 1 44.0817 11.7963 520 59.175 914.325 552.9
2643 0 45.1186 10.7051 483 60.352 913.979 554.048
2644 0 47.1181 12.3095 580 58.5466 913.979 552.122
2645 0 48.1322 11.9463 575 59.6626 913.918 550.503
2646 0 50.1434 12.7833 641 56.9844 914.424 550.892
2647 0 51.0445 12.3618 631 58.3154 914.626 551.282
2648 0 51.0419 12.8914 658 58.5517 914.29 550.008
2649 0 54.0809 12.4998 676 58.5473 914.226 549.21
2650 0 56.1109 13.4377 754 54.8011 914.095 548.399
2651 0 57.0465 12.744 727 55.8982 914.415 548.968
2652 0 59.086 13.7596 813 54.6248 914.362 548.539
2653 0 60.0314 12.4935 750 56.7133 914.68 546.472
2654 0 62.0716 12.6306 784 57.1161 914.415 545.801
2655 0 66.0988 13.8883 918 55.8693 914.377 543.272
2656 0 67.1419 12.2576 823 57.3888 913.126 544.699
2657 0 70.0739 13.2003 925 56.2368 913.339 543.459
2658 0 73.1482 13.2744 971 56.4418 913.717 540.437
2659 1 39.032 12.0158 469 57.1002 914.198 557.731
2660 0 42.026 12.064 507 56.572 914.329 557.25
2661 0 44.0791 11.0029 485 57.5381 913.911 557.303
2662 0 43.1037 12.1335 523 57.6176 913.83 556.902
2663 0 46.0678 12.2645 565 57.8124 913.253 554.995
2664 0 48.2681 14.0051 676 55.4186 912.735 552.382
2665 0 46.1238 12.6616 584 57.2945 912.95 553.622
2666 0 49.1546 13.366 657 56.4795 912.941 553.635
2667 0 51.2946 13.8221 709 55.9774 912.671 551.788
2668 0 53.1553 14.0344 746 55.9786 912.587 550.666
2669 0 54.4139 13.9303 758 56.3931 912.351 552.406
2670 0 56.3694 13.6599 770 56.9623 912.808 550.677
2671 0 59.1102 14.6844 868 55.3836 912.726 546.968
2672 0 58.2854 13.88 809 57.9617 912.928 546.732
2673 0 59.2922 13.6443 809 58.4215 912.833 546.499
2674 0 61.3355 14.543 892 57.4137 913.491 545.026
2675 0 62.1435 14.724 915 57.4929 913.328 544.775
2676 0 64.3412 14.2677 918 58.4172 913.35 543.698
2677 0 66.2046 14.1078 934 58.6959 913.04 541.291
2678 0 68.2548 14.8707 1015 57.7842 913.234 540.471
2679 0 69.4605 13.1298 912 59.6524 912.805 539.851
2680 0 71.1513 14.1389 1006 58.4155 912.87 536.993
2681 0 75.2654 14.4422 1087 57.6247 912.889 535.867
2682 0 77.2594 15.0661 1164 57 912.857 534.301
2683 0 82.3606 14.3758 1184 56.9071 912.608 534.561
2684 0 83.4401 14.5613 1215 57.1663 912.405 530.664
2685 0 84.4162 14.4759 1222 57.2561 912.334 530.516
2686 1 44.2909 13.0275 577 58.9723 912.414 549.922
2687 0 44.2902 13.0503 578 59.4048 911.986 549.272
2688 0 46.2631 12.9477 599 59.2204 911.803 548.523
2689 0 47.9919 14.1274 678 57.851 911.717 548.316
2690 0 48.8047 13.2979 649 59.4854 911.795 546.458
2691 0 52.6755 14.5419 766 57.2402 912.003 545.504
2692 0 51.4264 14.5839 750 58.2093 911.513 545.984
2693 0 53.8083 13.7339 739 58.8566 911.712 545.333
2694 0 55.3192 13.9915 774 59.155 910.916 545.496
2695 0 55.3192 13.9915 774 166.089 909.916 545.496
2696 0 63.1121 14.8941 940 56.9872 911.523 542.96
2697 0 60.6873 14.4182 875 58.6069 911.563 541.937
2698 0 66.7473 14.6373 977 57.4401 910.86 540.088
2699 0 68.5708 13.8689 951 58.3333 910.328 538.811
2700 0 71.4598 14.6376 1046 57.326 910.403 537.445
2701 0 72.3791 14.3688 1040 58.3452 910.336 534.91
2702 0 76.7339 14.622 1122 57.4938 910.091 534.66
2703 0 78.5391 15.1517 1190 56.9655 910.539 533.884
2704 0 80.9282 14.2225 1151 58.2719 910.381 532.036
2705 0 83.6751 14.4966 1213 58.0717 910.233 530.353
2706 0 88.903 14.8814 1323 57.3998 910.454 529.841
2707 0 90.7713 14.9607 1358 57.4794 910.399 528.475
2708 0 92.4335 14.8539 1373 57.992 910.452 527.95
2709 0 95.3945 14.8646 1418 58.1594 910.651 525.203
2710 0 97.8825 14.5991 1429 58.6914 910.402 524.583
2711 1 52.723 11.6268 613 60.0636 910.773 547.351
2712 0 55.6504 11.0871 617 60.3825 910.512 546.254
2713 0 56.5094 11.9449 675 58.9926 910.498 547.018
2714 0 57.4857 12.6466 727 59.4911 910.362 545.348
2715 0 63.6152 12.5756 800 58.5312 910.545 545.523
2716 0 65.3392 13.4529 879 57.3982 910.18 545.796
2717 0 66.3584 13.5175 897 57.5987 909.892 543.384
2718 0 68.4099 13.5945 930 57.6484 910.177 544.903
2719 0 71.439 13.41 958 57.6441 909.904 542.51
2720 0 72.4479 12.5469 909 59.2475 909.834 539.952
2721 0 74.5906 12.334 920 59.4761 909.386 538.148
2722 0 78.3999 12.9592 1016 58.6063 909.766 538.613
2723 0 80.3814 13.9585 1122 57.9777 910.228 536.993
2724 0 80.3814 13.9336 1120 166.721 911.226 537.027
2725 0 86.6258 14.3722 1245 57.6859 910.344 534.462
2726 0 88.4094 14.2632 1261 58.3688 910.336 531.525
2727 0 90.3501 14.2557 1288 58.4907 910.317 530.194
2728 0 94.3297 14.4175 1360 58.5765 910.303 529.725
2729 0 96.4489 14.5258 1401 58.6874 909.642 528.443
2730 0 98.4575 13.6404 1343 59.9337 909.64 527.947
2731 0 102.418 14.6947 1505 59.0478 909.684 526.095
