time division length width area intensity CMx CMy
0 0 47.1098 11.6749 550 60.9655 1360.56 564.805
1 0 48.034 10.8673 522 61.0517 1360.71 567.013
2 0 51.1656 11.4139 584 61.0908 1360.24 566.849
3 0 52.0738 11.5029 599 62.3723 1360.34 566.426
4 0 49.0909 9.67592 475 65.8926 1359.97 564.16
5 0 55.0789 11.1658 615 62.8911 1360.04 562.655
6 0 58.1456 11.884 691 61.4848 1359.85 562.874
7 0 59.1169 12.0101 710 61.9056 1359.82 561.951
8 0 61.1075 12.748 779 62.1977 1360.41 560.479
9 0 62.1288 12.0234 747 64.4217 1360.56 559.183
10 0 66.0665 11.6095 767 65.9166 1360.91 558.372
11 0 66.0761 12.2737 811 66.7386 1360.79 554.926
12 0 71.1082 13.149 935 64.5465 1361.06 554.533
13 0 71.1082 13.163 936 165.34 1361.07 554.552
14 0 74.1298 12.9907 963 65.4258 1361 552.335
15 0 76.1215 12.8085 975 66.1077 1360.77 550.684
16 0 79.1135 12.501 989 66.1284 1360.46 548.567
17 1 43.0521 10.7776 464 64.4828 1361.21 566.483
18 0 47.0393 10.2042 480 62.7833 1361.04 567.383
19 0 49.054 10.9471 537 61.6425 1361.63 565.423
20 0 50.0616 12.1051 606 61.1848 1361 563.856
21 0 53.1122 12.3512 656 59.6905 1360.34 563.806
22 0 52.1385 11.738 612 60.8203 1360 562.796
23 0 56.1153 11.6902 656 60.4253 1360.49 562.959
24 0 56.1419 11.7559 660 60.4682 1360.13 563.752
25 0 57.1142 12.1511 694 60.513 1360.23 561.782
26 0 58.0923 12.7211 739 61.1475 1360.12 559.06
27 0 61.0908 12.7842 781 60.8425 1360.08 558.179
28 0 62.1461 12.6154 784 61.1888 1360.72 556.421
29 0 64.1164 11.8846 762 61.6378 1361.13 556.416
30 0 68.1155 11.1722 761 62.1301 1360.94 558.068
31 0 68.1393 12.7239 867 60.9469 1361.01 556.211
32 0 71.1152 13.443 956 59.8149 1360.99 555.152
33 0 72.1401 14.2639 1029 59.4373 1361.46 553.283
34 0 74.1067 13.5885 1007 60.2363 1362.09 553.765
35 0 78.0765 13.3587 1043 60.4995 1361.58 551.539
36 0 79.1839 12.452 986 62.2028 1361.89 548.126
37 0 82.1125 13.3475 1096 61.3002 1361.72 548.008
38 1 43.1196 9.6012 414 61.7222 1362.27 567.676
39 0 46.1821 10.5236 486 60.8128 1361.91 566.84
40 0 46.1057 10.6928 493 60.8722 1362.37 565.978
41 0 50.0949 11.0989 556 60.3633 1362.56 564.583
42 0 48.123 12.0732 581 60.062 1362.36 565.506
43 0 51.1801 13.0129 666 59.2267 1361.38 563.464
44 0 54.0882 13.0897 708 58.7669 1361.67 563.219
45 0 56.1834 13.5805 763 58.5046 1362.3 564.346
46 0 57.0479 12.1827 695 60.9928 1362.65 562.286
47 0 57.0331 13.2555 756 60.0886 1362.76 561.705
48 0 61.1559 13.5392 828 60.3031 1362.57 559.446
49 0 61.055 14.0857 860 60.7209 1363.11 558.321
50 0 62.1124 12.0588 749 63.3364 1362.87 558.366
51 0 65.0367 12.5468 816 63.2255 1363.44 557.35
52 0 66.1096 12.5095 827 63.5272 1363.24 557.709
53 0 69.2139 11.934 826 64.2276 1362.69 556.123
54 0 73.0732 13.767 1006 62.2664 1362.28 553.923
55 0 74.0692 12.5558 930 57.6667 1362.34 555.609
56 1 38.024 9.44141 359 58.1783 1362.55 573.128
57 0 39.0249 10.4036 406 59.1453 1362.68 571.594
58 0 40.0195 10.27 411 59.2214 1363.02 570.47
59 0 42.0054 10.9986 462 58.4632 1362.82 569.509
60 0 43.0144 11.5078 495 58.9515 1363.03 568.117
61 0 46.0373 11.9903 552 59.0725 1363.11 566.245
62 0 46.0267 11.8627 546 60.3114 1363.25 565.674
63 0 50.0333 12.072 604 59.6341 1362.41 565.27
64 0 50.0744 11.6427 583 60.4923 1363 564.966
65 0 52.0777 12.9806 676 59.6065 1362.91 562.964
66 0 53.0928 12.9961 690 59.729 1363.1 562.378
67 0 58.1055 13.1657 765 58.7778 1363.81 561.522
68 0 56.019 12.0673 676 61.182 1364.1 561.34
69 0 57.0082 12.4719 711 60.7736 1363.86 561.293
70 0 61.0194 14.6839 896 58.1853 1363.96 559.054
71 0 62.0178 14.0121 869 59.3452 1363.86 558.304
72 0 64.0836 14.0442 900 59.48 1363.62 557.244
73 0 67.0238 13.995 938 59.9872 1363.77 555.013
74 0 69.1246 13.4829 932 60.8305 1363.83 553.951
75 0 71.0452 14.0192 996 60.4167 1364.31 554.115
76 0 73.1034 14.5547 1064 60.0376 1364.62 551.567
77 0 73.1034 14.5411 1063 173.737 1365.63 551.567
78 0 78.1 14.5967 1140 59.7061 1364.81 551.518
79 0 78.1411 14.1539 1106 61.7288 1364.95 547.883
80 0 88.102 11.0781 976 63.7275 1364.85 547.933
81 0 88.102 11.0213 971 175.159 1364.85 548.031
82 0 87.0467 13.51 1176 63.074 1365.85 543.201
83 1 50.0321 11.9723 599 62.9065 1366.25 561.294
84 0 53.0153 12.3172 653 61.3599 1366.42 561.407
85 0 54.056 12.2466 662 62.5785 1365.93 558.92
86 0 54.0519 11.785 637 64.2339 1365.03 557.815
87 0 56.0293 12.2436 686 63.8105 1366.39 556.079
88 0 58.0803 13.8773 806 59.6973 1366.61 555.165
89 0 60.0472 14.9716 899 57.287 1366.54 554.994
90 0 58.1152 13.7658 800 60.4738 1367 553.308
91 0 62.127 13.4563 836 66.2488 1367.66 551.611
92 0 63.1502 13.0641 825 70.2812 1367.92 550.259
93 0 66.0409 13.3856 884 67.9785 1367.52 548.83
94 0 67.1032 12.8459 862 67.3735 1367.28 549.563
95 0 69.0662 13.6825 945 63.5937 1368.27 547.222
96 0 70.0989 13.6093 954 62.3071 1367.84 545.816
97 0 77.2619 15.1433 1170 82.8256 1367.74 546.044
98 0 78.1633 14.201 1110 60.1892 1367.05 545.239
99 0 79.0699 14.1015 1115 60.3776 1366.76 544.337
100 0 81.0752 13.173 1068 63.4298 1367.18 541.295
101 0 85.1469 13.189 1123 65.1389 1367.46 540.834
102 0 86.087 15.0313 1294 61.5155 1366.65 536.909
103 0 89.2067 13.8555 1236 62.7896 1367.26 536.484
104 0 90.0783 14.1211 1272 63.3349 1367.63 536.013
105 1 47.0441 10.8409 510 64.8157 1368.05 557.261
106 0 49.0436 11.4592 562 64.6815 1368.59 556.53
107 0 50.0198 11.3755 569 66.3234 1368.04 556.304
108 0 50.0158 11.0565 553 69.387 1368.21 555.461
109 0 52.0397 12.0869 629 64.787 1368 554.558
110 0 57.1195 11.5372 659 60.61 1367.93 551.193
111 0 60.143 12.9192 777 57.1802 1367.89 552.232
112 0 58.0713 14.8783 864 56.3021 1368.59 552.054
113 0 58.0305 11.8386 687 60.6084 1368.24 551.46
114 0 60.0219 12.7953 768 59.8815 1368.09 550.047
115 0 62.1675 14.4127 896 58.5893 1367.78 547.886
116 0 64.0674 14.157 907 59.2381 1368 548.996
117 1 138.271 15.2093 2103 59.9838 1367.6 514.855
118 1 202.375 15.3527 3107 59.9788 1367.36 483.916
119 0 209.343 14.6744 3072 60.5423 1367 482.903
120 0 217.362 15.7019 3413 59.2546 1367.01 479.348
121 0 222.337 15.2067 3381 59.837 1366.69 475.016
122 0 231.374 15.8964 3678 59.1085 1366.7 468.436
123 0 238.624 15.0907 3601 59.6673 1366.44 472.159
124 0 244.439 14.3717 3513 60.5021 1366.23 468.22
125 1 179.239 16.1014 2886 58.6812 1366.77 492.932
126 0 186.262 16.7775 3125 57.9155 1366.44 491.66
127 1 92.0857 14.9535 1377 58.5969 1366.28 536.383
128 0 90.0855 14.5639 1312 59.8674 1366.04 533.073
129 0 92.0966 14.1265 1301 60.1822 1366.38 534.915
130 0 97.0625 14.3825 1396 59.9628 1365.66 534.353
131 1 55.0846 10.4567 576 59.2188 1366.52 555.552
132 0 55.0254 12.4306 684 58.1667 1366.76 554.582
133 0 58.0654 11.3665 660 59.2045 1366.37 552.124
134 0 59.1252 12.7695 755 57.3881 1366.55 551.956
135 0 57.095 11.6473 665 59.2466 1365.89 551.062
136 0 61.0724 11.3799 695 59.3525 1365.79 549.403
137 0 63.1095 11.0126 695 58.941 1365.83 550.121
138 0 66.0883 13.7695 910 56.0473 1365.66 549.16
139 0 67.0766 13.9393 935 56.3829 1365.03 546.874
140 0 69.0732 13.1744 910 56.4044 1365.44 548.853
141 0 70.1069 14.7774 1036 54.2722 1365.57 549.451
142 0 73.1584 13.9834 1023 55.9306 1365.68 544.552
143 0 76.2064 12.1643 927 57.6828 1365.7 543.446
144 0 81.1675 12.5543 1019 57.0314 1365.46 542.279
145 0 81.0703 13.8152 1120 56.3018 1365.51 540.925
146 0 84.0986 13.3177 1120 56.4455 1365.52 541.138
147 0 86.1252 14.1306 1217 55.8825 1365.38 539.758
148 0 86.1857 13.0184 1122 57.8512 1365.48 535.226
149 0 90.0575 12.5697 1132 57.9284 1365.31 535.838
150 0 94.1396 12.8108 1206 57.4386 1365.69 535.201
151 1 52.0701 10.1978 531 56.209 1365.93 557.55
152 0 52.1348 11.4703 598 55.4515 1364.77 556.716
153 0 58.1254 11.3548 660 55.4682 1364.73 556.618
154 0 56.1247 12.8108 719 55.5007 1365.34 552.455
155 0 57.112 12.5718 718 56.3398 1365.18 552.086
156 0 58.1623 12.4479 724 56.0359 1365.17 552.689
157 0 62.2145 12.907 803 55.2989 1365.41 551.107
158 0 63.1444 11.545 729 56.3841 1364.56 550.361
159 0 63.1443 12.6536 799 55.5807 1365.33 549.268
160 0 67.1883 12.3831 832 55.4808 1365.04 548.649
161 0 70.2662 12.7657 897 55.5641 1364.94 545.824
162 0 72.4293 12.6744 918 55.5784 1365.19 546.125
163 0 76.2002 13.5564 1033 55.061 1365.05 543.822
164 0 79.4975 12.4281 988 56.7672 1365.34 541.121
165 0 82.3508 14.6568 1207 54.0423 1365.92 541.922
166 0 81.1259 12.4991 1014 57.5069 1366.4 539.143
167 0 82.1801 12.2657 1008 58.6071 1366.23 536.057
168 0 85.2427 12.6228 1076 58.4656 1366.08 538.907
169 0 91.1806 13.5446 1235 57.1012 1366.66 536.758
170 0 94.1357 14.3729 1353 56.3666 1366.75 533.566
171 0 97.1284 13.0343 1266 57.5608 1366.66 532.798
172 0 102.301 13.7145 1403 57.0969 1366.98 531.047
173 0 102.211 11.9654 1223 59.6607 1366.92 528.044
174 1 53.0675 11.0614 587 57.8722 1366.93 554.002
175 0 56.1638 12.3389 693 56.9538 1367.27 551.583
176 0 56.0938 10.9994 617 58.1831 1366.86 551.485
177 0 60.0697 12.5687 755 56.543 1367.48 549.624
178 0 60.0781 12.0676 725 57.5834 1367.31 550.377
179 0 62.072 11.5511 717 57.9874 1367.32 549.208
180 0 67.08 13.2826 891 55.8114 1367.57 547.43
181 0 67.2129 14.03 943 56.3563 1367.31 546.361
182 0 69.2733 12.1836 844 58.6564 1367.77 544.782
183 0 69.2733 12.2269 847 166.796 1368.76 544.658
184 0 75.2937 13.6001 1024 57.376 1368.07 543.836
185 0 76.1519 13.3286 1015 58.3241 1368.32 542.087
186 0 77.3497 13.4971 1044 58.5153 1368.45 540.477
187 0 77.254 13.0996 1012 59.2806 1368.96 539.746
188 0 82.2752 14.3178 1178 58.3396 1368.98 537.753
189 0 84.222 12.6095 1062 60.7618 1368.93 535.969
190 0 86.2714 13.3068 1148 60.8458 1369.13 532.481
191 0 89.1554 13.998 1248 60.726 1369.43 533.118
192 0 92.318 12.5869 1162 62.1756 1369.53 531.145
193 0 96.1248 12.5254 1204 60 1369.95 530.965
194 1 51.1529 10.537 539 57.4545 1369.98 552.276
195 0 52.1695 11.2326 586 56.7611 1369.85 549.162
196 0 55.233 12.2029 674 55.6306 1369.39 550.297
197 0 54.3217 13.0519 709 57.4344 1369.26 545.623
198 0 58.1278 12.2317 711 58.7257 1370.07 547.511
199 0 62.2037 11.6713 726 59.2025 1370.22 546.087
200 0 62.1854 12.0768 751 58.6831 1370.18 546.297
201 0 62.2009 11.6558 725 59.309 1370.71 543.121
202 0 67.3397 12.4741 840 57.4405 1370.56 542.417
203 0 67.4245 12.6215 851 57.436 1370.6 542.745
204 0 71.2211 11.7802 839 58.7235 1370.52 541.482
205 0 73.5189 13.4659 990 56.9182 1370.19 537.549
206 0 76.5125 12.8214 981 58.0326 1369.78 537.452
207 0 76.4602 13.8503 1059 57.1228 1370.47 536.39
208 0 81.6157 12.2648 1001 58.1968 1370.12 535.715
209 0 79.3391 12.4655 989 59.2811 1370.02 533.606
210 0 84.4473 14.0679 1188 57.4478 1369.66 531.209
211 0 86.5764 15.0272 1301 56.3174 1369.62 530.467
212 0 88.5313 13.4529 1191 57.1369 1369.83 529.724
213 0 90.3992 12.6882 1147 58.5946 1369.78 525.642
214 0 94.559 13.1241 1241 57.5012 1369.57 526.301
215 0 97.3437 13.3445 1299 57.1978 1368.91 525.513
216 0 100.428 13.1039 1316 56.9909 1368.91 524.46
217 1 53.1686 11.4165 607 53.8781 1367.92 548.643
218 0 53.2528 10.4032 554 55.6679 1367.65 546.357
219 0 58.058 12.6253 733 54.3752 1369.16 547.449
220 0 60.2937 12.0411 726 54.7961 1368.76 546.955
221 0 62.2275 13.5792 845 53.0462 1368.59 546.445
222 0 60.0872 12.0991 727 55.2077 1368.51 543.395
223 0 64.1632 12.1253 778 54.1684 1368.5 543.74
224 0 65.0878 13.3051 866 52.7864 1368.72 543.125
225 0 66.1013 13.6155 900 52.7244 1368.57 541.668
226 0 70.1379 13.0172 913 53.1281 1368.58 541.148
227 0 71.1839 13.7672 980 52.6316 1369.32 538.263
228 0 75.0474 12.9118 969 53.9783 1367.66 539.078
229 0 77.1344 12.0828 932 55.7672 1367.63 536.9
230 0 78.2398 12.2828 961 55.8356 1367.89 537.924
231 0 82.1688 13.2532 1089 54.8953 1367.95 535.806
232 1 46.0836 9.91676 457 54.3829 1367.33 556.694
233 0 45.0834 10.536 475 54.8589 1367.07 555.025
234 0 46.1553 10.2697 474 55.0992 1367.8 553.515
235 0 48.1008 11.4135 549 54.0801 1367.5 553.472
236 0 49.0238 12.6061 618 53.4482 1367.04 550.22
237 0 52.0559 13.5239 704 52.027 1368.19 551.959
238 0 53.0634 12.9091 685 53.8642 1367.96 550.355
239 0 56.0847 11.1082 623 54.4767 1367.94 551.514
240 0 56.0328 12.4927 700 53.6643 1368.03 551.09
241 0 59.0444 11.72 692 53.8627 1368.14 551.303
242 0 61.0462 13.9239 850 51.9929 1368.31 549.667
243 0 62.0699 13.1948 819 52.696 1367.93 550.138
244 0 65.0429 12.2996 800 53.6725 1367.75 548.491
245 0 66.0926 12.1648 804 53.8881 1368.47 547.664
246 0 69.1241 13.0779 904 52.5774 1368.02 546.938
247 0 70.1835 12.7095 892 53.3307 1367.51 545.79
248 0 71.1492 13.1133 933 53.4459 1367.55 544.272
249 0 74.0713 12.9065 956 53.8923 1367.6 542.542
250 0 76.2007 13.1495 1002 53.5489 1367.21 542.117
251 0 79.1704 13.6036 1077 53.2089 1367.1 540.971
252 1 44.2329 10.196 451 53.6497 1366.65 558.397
253 0 43.1486 9.80333 423 54.4374 1366.87 558.298
254 0 43.2463 9.68869 419 54.8926 1366.46 558.773
255 0 44.1373 11.3963 503 54.002 1366.52 557.674
256 0 49.0671 10.6181 521 53.6564 1367.57 557.163
257 0 49.1053 11.4244 561 52.5865 1366.79 556.558
258 0 51.1138 11.7581 601 52.6805 1366.71 555.621
259 0 52.0703 11.2732 587 53.6303 1366.66 555.952
260 0 52.1339 11.1444 581 54.432 1366.1 555.688
261 0 55.252 12.9226 714 52.9846 1365.94 554.347
262 0 55.1362 14.8723 820 52.1244 1365.67 552.144
263 0 58.1255 13.7117 797 52.8883 1365.38 553.348
264 0 59.304 13.0177 772 54.2785 1365.29 551.435
265 0 60.2124 12.5555 756 54.2421 1365.55 553.513
266 0 62.1578 11.873 738 55.7846 1365.45 551.215
267 0 66.1777 14.1588 937 53.8527 1365.18 549.137
268 0 66.2524 11.109 736 58.0027 1365.38 549.105
269 0 67.2634 12.9194 869 56.6628 1365.7 547.109
270 0 71.1953 12.8379 914 57.0219 1365.91 545.786
271 0 73.4061 13.7318 1008 55.7669 1366.15 545.854
272 0 73.1947 12.1593 890 58.2011 1365.26 544.137
273 0 76.4605 13.4448 1028 56.8084 1365.67 542.629
274 0 79.2217 13.0394 1033 57.242 1365.84 540.714
275 0 85.3064 14.7117 1255 55.0685 1365.81 539.4
276 0 85.3521 13.3916 1143 57.0621 1366.34 538.388
277 0 90.3992 14.3032 1293 55.3828 1366.33 536.538
278 0 90.4246 13.3481 1207 56.8674 1366.73 533.749
279 1 50.3129 10.9117 549 56.1403 1366.97 554.67
280 0 53.281 11.5426 615 54.5382 1366.91 554.73
281 0 54.2234 12.3747 671 53.9925 1366.72 553.75
282 0 56.2032 12.2947 691 54.725 1366.7 552.122
283 0 57.1244 11.9914 685 54.1547 1366.98 552.204
284 0 60.0999 12.7621 767 54.1995 1367.46 548.754
285 0 58.1674 10.9855 639 55.6776 1367.54 550.751
286 0 59.1135 11.774 696 55.4626 1367.41 548.114
287 0 65.0988 11.5517 752 54.6782 1367.71 549.114
288 0 64.1509 11.8003 757 55.037 1368.04 547.185
289 0 67.1737 13.7405 923 53.0477 1368.46 544.146
290 0 70.2121 13.2598 931 53.5489 1368.52 545.072
291 0 69.1174 12.703 878 54.6629 1368.61 544.192
292 0 74.1213 13.9771 1036 53.389 1368.91 542.015
293 0 77.0991 15.279 1178 52.5968 1368.87 539.991
294 0 78.1361 12.8878 1007 54.7865 1369.31 540.073
295 0 78.1361 12.9518 1012 155.573 1369.32 539.983
296 0 83.0941 12.5881 1046 56.1013 1369.24 534.369
297 0 87.1731 14.3508 1251 54.2894 1369.6 532.847
298 0 88.2367 12.8631 1135 56.3172 1369.76 531.526
299 1 48.2477 10.3425 499 55.1583 1370.58 552.709
300 0 50.1201 9.79647 491 56.2851 1370.68 552.464
301 0 52.0395 11.1069 578 55.0848 1370.8 551.912
302 0 53.0316 10.6917 567 55.6631 1370.48 551.384
303 0 54.1173 11.0686 599 56.4925 1370.86 549.973
304 0 57.135 13.3894 765 54.6078 1370.3 546.701
305 0 60.1643 11.7345 706 55.6176 1370.67 548.419
306 0 60.1634 12.2998 740 55.1676 1370.86 546.927
307 0 63.1681 11.509 727 55.8542 1371.14 547.056
308 0 63.145 13.0177 822 55.2348 1371.2 544.472
309 0 63.1616 12.6343 798 55.7381 1371.64 544.703
310 0 69.1625 11.6971 809 55.8257 1370.96 544.752
311 0 69.1929 12.2989 851 55.785 1370.76 542.032
312 0 72.126 12.6584 913 55.2223 1370.92 539.634
313 0 75.2608 12.5696 946 55.2463 1371.21 538.644
314 0 77.148 13.3769 1032 53.9738 1371.31 540.691
315 0 79.0637 13.0022 1028 54.9455 1371.38 538.009
316 0 81.1546 13.1354 1066 54.9306 1370.64 536.368
317 0 85.3563 11.9851 1023 55.0196 1371.52 537.765
318 0 87.2791 12.2252 1067 55.2559 1371.56 533.678
319 0 90.3048 12.7457 1151 54.6255 1371.9 530.83
320 1 50.039 9.75239 488 53.3607 1371.79 552.996
321 0 51.1323 10.3262 528 53.6269 1371.81 549.422
322 0 53.1458 10.8757 578 52.2872 1371.65 551.349
323 0 56.0587 11.0242 618 51.9887 1371.81 549.676
324 0 56.1443 10.0455 564 53.422 1370.79 548.823
325 0 56.1537 11.7891 662 52.565 1370.42 548.073
326 0 57.2745 12.0298 689 52.6734 1370.9 546.354
327 0 60.114 12.2268 735 52.1469 1371.19 546.29
328 0 63.1022 11.3625 717 53.0753 1371.24 545.609
329 0 63.2486 10.4508 661 54.0091 1371.22 545.54
330 0 64.1379 11.0387 708 53.7726 1371.09 542.725
331 0 69.1659 11.0893 767 53.3338 1370.77 543.053
332 0 71.1681 12.1122 862 52.7181 1370.78 542.478
333 0 72.0823 11.8059 851 53.181 1370.7 543.458
334 0 75.1189 11.4751 862 54.0499 1370.78 540.247
335 0 76.1812 11.9321 909 54.1705 1370.48 538.42
336 0 81.1268 13.066 1060 52.7925 1369.9 537.433
337 0 83.1748 12.0108 999 54.1762 1370.29 536.627
338 0 86.2001 12.5058 1078 53.8748 1370.15 535.481
339 0 87.1575 11.1407 971 55.5973 1369.71 532.627
340 1 46.0212 8.8003 405 53.7111 1370.2 556.588
341 0 48.008 10.2899 494 53.0182 1369.79 555.601
342 0 49.0394 11.3378 556 52.8255 1369 552.903
343 0 51.1672 11.2768 577 52.3951 1368.61 552.749
344 0 53.085 12.772 678 50.6401 1367.74 553.46
345 0 55.2186 13.1115 724 51.1961 1366.78 551.282
346 0 55.2186 13.0934 723 145.526 1365.78 551.32
347 0 59.1206 12.0601 713 51.7644 1367.35 551.123
348 0 59.1872 12.1817 721 52.6269 1367.17 548.753
349 0 62.2091 12.9242 804 51.7624 1366.79 547.634
350 0 64.0718 13.2976 852 51.7148 1367.38 548.602
351 0 64.0634 13.2681 850 52.0353 1366.88 546.767
352 0 63.1175 13.1184 828 52.6292 1366.3 545.194
353 0 66.0255 13.5554 895 52.1385 1365.87 545.203
354 0 68.0923 13.8048 940 51.6149 1365.59 544.72
355 0 69.1087 12.8927 891 51.9899 1365.97 544.988
356 0 72.0665 12.5995 908 51.9086 1365.44 544.615
357 0 71.0258 13.0657 928 51.3308 1365.79 544.356
358 0 74.1987 13.1269 974 51.6427 1365.21 540.258
359 0 78.1539 13.1024 1024 51.8906 1366.12 538.139
360 0 78.2522 12.5875 985 51.9655 1366.18 538.062
361 0 87.3529 12.4667 1089 51.3765 1366.01 537.199
362 0 89.2823 13.1157 1171 50.4552 1366.88 537.798
363 0 87.2779 13.1992 1152 51.158 1366.6 532.084
364 0 87.2546 12.389 1081 51.3506 1366.96 534.947
365 1 50.0877 11.8792 595 49.7042 1367.11 552.336
366 0 51.1043 11.3885 582 50.4983 1367.01 552.376
367 0 54.062 12.0602 652 50.0506 1367.15 550.336
368 0 54.1829 12.993 704 48.5824 1366.91 550.611
369 0 56.1758 12.3541 694 48.5432 1366.83 550.281
370 0 57.1071 12.1526 694 49.2666 1367.17 548.016
371 0 59.0859 11.9487 706 49.2847 1367.19 547.98
372 0 59.1643 13.5386 801 48.4507 1367.79 545.492
373 0 60.1627 13.1311 790 48.938 1367.72 546.201
374 0 60.1658 12.2993 740 50.1568 1368.26 544.37
375 0 64.1694 12.2956 789 49.7161 1368.32 544.748
376 0 66.3282 13.3578 886 48.2032 1368.18 541.372
377 0 67.0875 12.9383 868 48.644 1368.12 540.581
378 0 72.1546 14.1086 1018 47.1974 1368.02 540.083
379 0 72.137 13.5991 981 48.5138 1368.52 538.643
380 0 75.176 13.0095 978 48.7147 1368.36 538.483
381 0 77.1101 13.993 1079 48.6858 1368.93 536.006
382 0 79.2038 12.9287 1024 49.6406 1369.08 536.836
383 0 83.2749 14.242 1186 48.6484 1368.47 533.529
384 0 88.1925 13.9694 1232 48.6729 1368.78 532.495
385 0 87.1657 13.2392 1154 49.6291 1368.45 532.758
386 0 92.1719 15.8508 1461 47.1225 1368.64 530.461
387 0 91.2 12.8728 1174 49.8382 1368.72 531.011
388 0 95.3637 14.0095 1336 49.0876 1368.74 528.213
389 0 99.3241 13.9745 1388 49.3674 1368.99 525.318
390 0 104.176 14.3987 1500 48.806 1368.83 524.883
391 0 108.353 13.3915 1451 49.7429 1369.15 523.218
392 0 110.26 15.3546 1693 48.264 1369.41 523.131
393 1 60.0906 12.8639 773 49.379 1369.67 546.682
394 0 61.1461 13.018 796 49.3354 1369.99 547.138
395 0 63.146 13.3975 846 48.9444 1370.67 545.826
396 0 66.106 13.6599 903 48.5227 1370.34 544.76
397 0 64.1965 12.5085 803 49.9054 1370.8 543.447
398 0 70.0861 13.1124 919 48.7476 1371.14 542.542
399 0 71.1694 13.4889 960 48.7677 1371.15 540.712
400 0 74.0628 14.7982 1096 47.6186 1371.53 541.279
401 0 76.0786 13.4466 1023 48.9629 1371.54 538.673
402 0 78.1301 14.0407 1097 48.3892 1371.41 539.6
403 0 85.2762 10.6126 905 50.2608 1371.88 537.612
404 0 86.1429 12.8507 1107 48.5827 1371.62 535.356
405 0 85.1917 12.8181 1092 49.2793 1371.4 531.344
406 0 89.2534 13.5009 1205 48.4639 1372.24 529.69
407 1 50.1768 10.3036 517 47.8859 1372.85 552.946
408 0 50.278 11.4165 574 48.5784 1371.48 549.73
409 0 53.2426 11.1001 591 47.8646 1371.16 550.154
410 0 53.2927 11.5963 618 48.0777 1371.44 548.901
411 0 55.2074 10.8681 600 48.3417 1371.33 549.147
412 0 55.084 11.4915 633 47.1343 1371.74 548.25
413 0 59.0935 12.2687 725 46.389 1371.32 546.354
414 0 59.1335 13.2243 782 45.5767 1371.1 546.148
415 0 63.1291 12.7833 807 46.2813 1371.06 543.069
416 0 62.1956 12.6536 787 46.6709 1371.06 544.478
417 0 66.1191 11.7515 777 47.4311 1370.65 542.788
418 0 70.1476 12.5735 882 46.246 1370.49 543.124
419 0 70.2117 12.3769 869 47.0541 1370.12 543.138
420 0 69.1556 12.5225 866 47.7229 1369.74 539.233
421 0 70.0919 13.5679 951 46.9632 1369.89 542.088
422 0 70.1738 12.0558 846 48.3783 1369.69 541.962
423 0 78.2455 12.4224 972 48.7654 1368.95 537.951
424 0 82.0672 11.8318 971 49.0124 1369.84 537.332
425 0 85.2927 14.0575 1199 47.3786 1369.58 535.568
426 0 88.1599 13.3281 1175 48.2443 1369.31 533.517
427 1 50.0789 10.4435 523 47.3633 1369.69 554.367
428 0 49.1344 11.7637 578 47.2093 1369.3 552.363
429 0 50.1299 11.6697 585 47.1094 1368.39 553.315
430 0 52.2157 12.4484 650 46.8769 1368.06 551.742
431 0 55.1706 11.836 653 47.3338 1367.48 551.548
432 0 59.1478 11.8686 702 47.1211 1367.38 549.311
433 0 59.0658 12.3422 729 47.0933 1367.27 548.28
434 0 63.1697 12.3477 780 47.0756 1367.34 547.688
435 0 64.2161 13.2833 853 46.5885 1367.14 547.68
436 0 66.1957 13.158 871 46.0976 1367.62 548.553
437 0 68.1934 15.896 1084 44.3118 1367.44 548.316
438 0 68.2602 13.3606 912 47.0768 1367.83 544.766
439 0 70.1618 14.1815 995 47.005 1367.25 543.353
440 0 70.1613 13.3549 937 47.8538 1367.26 543.515
441 0 75.2162 13.8401 1041 46.8598 1367.38 544.258
442 0 76.3184 12.2382 934 48.9668 1367.78 540.592
443 0 78.296 12.5677 984 48.7947 1367.53 540.318
444 0 82.3453 12.8119 1055 48.6891 1367.43 536.74
445 0 84.3006 14.1992 1197 47.7903 1367.65 538.087
446 1 47.1362 12.4957 589 45.6842 1367.52 560.343
447 0 48.2521 12.1445 586 47.0137 1367.3 556.343
448 0 51.1427 12.1034 619 47.3263 1367.37 555.102
449 0 52.3329 11.6944 612 48.1732 1368 554.534
450 0 51.2584 11.4908 589 49.0323 1368.16 554.222
451 0 55.2261 12.1682 672 48.2173 1367.29 552.97
452 0 55.2243 11.8245 653 48.9326 1367.56 551.894
453 0 59.194 12.1465 719 48.4701 1367.4 550.459
454 0 60.1542 11.8529 713 48.4095 1367.84 550.473
455 0 63.2329 11.4972 727 49.0564 1368.14 548.4
456 0 63.1683 14.0735 889 47.1226 1367.56 546.499
457 0 65.1064 11.7193 763 48.637 1367.61 547.359
458 0 66.1476 12.3058 814 48.0504 1367.45 548.162
459 0 69.1155 12.7178 879 48.1058 1367.54 544.947
460 0 71.1112 13.05 928 47.6627 1367.54 545.977
461 0 70.0567 13.2321 927 48.151 1367.59 545.364
462 0 76.099 12.418 945 48.6021 1367.95 542.938
463 0 80.1665 14.2079 1139 47.4952 1367.82 540.325
464 0 84.1529 12.8932 1085 47.5023 1368.08 541.943
465 0 84.103 13.1149 1103 48.5784 1367.88 538.898
466 0 87.1888 13.0751 1140 49.0596 1367.49 537.533
467 0 88.1906 13.3007 1173 48.9949 1367.86 536.901
468 0 91.0601 12.7718 1163 49.7034 1368.42 535.277
469 0 95.2107 12.3936 1180 50.0805 1368.49 533.279
470 0 98.1344 13.5223 1327 49.309 1368.26 532.613
471 0 103.194 12.9756 1339 49.3137 1367.85 532.149
472 1 55.0924 13.8495 763 46.7955 1368.33 555.751
473 0 54.1387 12.3202 667 49.5262 1367.67 553.283
474 0 58.2687 15.1368 882 47.2392 1368.14 552.476
475 0 61.3029 13.5556 831 48.0072 1368.02 551.203
476 0 62.2522 11.5819 721 50.1498 1368.24 552.154
477 0 61.123 13.9228 851 49.0247 1368.4 547.875
478 0 62.2383 13.127 817 49.2436 1368.04 547.503
479 0 64.2061 13.4099 861 48.9338 1368.02 549.545
480 0 68.3521 13.6792 935 48.6588 1368.33 546.734
481 0 69.3557 13.7984 957 49.1661 1368.24 542.748
482 0 73.4585 15.2059 1117 47.778 1368.59 539.549
483 0 76.765 13.8605 1064 48.8966 1368.5 539.765
484 0 77.5391 15.1021 1171 48.0231 1368.29 539.289
485 0 79.5773 13.1193 1044 50.1322 1368.17 539.165
486 0 79.4337 13.6844 1087 50.9218 1368.21 536.891
487 0 83.4737 14.2919 1193 50.1417 1368.41 536.576
488 0 84.3518 13.3489 1126 51.6519 1368.28 534.166
489 0 85.6193 14.2024 1216 51.1801 1368.28 532.97
490 0 92.5928 13.5216 1252 51.7196 1368.27 531.177
491 0 93.4633 13.8985 1299 51.4095 1368.83 531.828
492 0 94.4787 12.1403 1147 53.1107 1368.59 533.194
493 0 103.594 13.1958 1367 52.3138 1368.82 527.766
494 0 105.396 13.3782 1410 52.6 1368.93 524.642
495 0 108.212 14.0095 1516 52.3331 1368.64 524.391
496 1 58.122 12.9383 752 52.0718 1369.27 549.246
497 0 59.1576 14.7403 872 50.2511 1369.1 550.131
498 0 61.2189 13.4926 826 50.9758 1369.68 549.766
499 0 62.237 12.8059 797 52.0427 1369.26 547.555
500 0 63.131 13.4641 850 51.7506 1369.71 547.887
501 0 65.1096 13.1164 854 51.9473 1369.21 546.732
502 0 67.2367 13.6979 921 51.4484 1369.45 543.993
503 0 71.2697 14.1715 1010 50.4297 1369.36 543.048
504 0 73.1577 14.8446 1086 49.628 1369.84 541.757
505 0 76.2641 14.5022 1106 49.9439 1369.5 541.135
506 0 78.2894 13.4501 1053 50.6999 1369.7 542.088
507 0 79.2502 13.5899 1077 51.3018 1369.16 538.713
508 0 81.0997 13.7732 1117 51.3599 1369.28 537.17
509 0 85.1128 14.8039 1260 50.2437 1369.47 537.614
510 0 86.1815 13.0074 1121 52.3996 1368.95 535.315
511 0 83.1965 12.2601 1020 52.8539 1369.43 536.072
512 0 90.1782 13.4179 1210 52.1264 1368.94 530.981
513 0 95.1858 14.1828 1350 50.9474 1368.99 533.064
514 1 54.1597 8.2903 449 50.8263 1368.92 556.278
515 0 55.1379 8.83241 487 51.152 1369.03 555.532
516 0 55.036 11.7378 646 49.9474 1369 551.638
517 0 55.0778 12.3643 681 48.4919 1368.94 551.888
518 0 57.0572 12.3736 706 48.5892 1368.9 549.941
519 0 57.1701 11.7894 674 49.2953 1368.75 551.125
520 0 59.1386 13.0541 772 48.4754 1368.75 550.547
521 0 60.0559 13.0212 782 48.4744 1369.14 551.189
522 0 62.1834 11.8199 735 49.3986 1369.53 547.861
523 0 65.1424 13.7698 897 47.7402 1368.76 546.222
524 0 64.0818 12.1719 780 49.0846 1368.41 546.856
525 0 67.1006 12.0416 808 49.3688 1369.05 543.782
526 0 68.0776 13.1321 894 49.2383 1368.98 542.18
527 0 72.0935 12.5809 907 49.3991 1368.89 542.677
528 0 74.1547 13.5258 1003 48.9541 1368.81 542.719
529 0 76.077 12.5399 954 50.087 1368.62 541.289
530 0 80.0687 12.4768 999 49.3634 1369.4 541.391
531 0 80.0672 12.0773 967 50.423 1369.35 536.76
532 0 85.166 13.867 1181 48.7646 1369.61 538.318
533 0 88.0806 12.4659 1098 50.2577 1369.98 533.719
534 0 89.2635 12.4127 1108 50.5704 1369.82 533.543
535 0 93.1846 13.0923 1220 49.9131 1369.42 532.04
536 0 94.359 12.5796 1187 50.7203 1370.03 530.245
537 0 97.2304 12.4344 1209 51.0306 1370.31 528.44
538 0 100.356 11.5389 1158 51.4594 1370.17 526.676
539 1 56.0636 13.449 754 49.3886 1369.42 548.731
540 0 56.1001 11.9251 669 50.6577 1369.54 547.371
541 0 60.105 13.31 800 49.5513 1369.32 546.327
542 0 61.1337 13.495 825 49.7588 1369.72 544.519
543 0 64.1417 12.5971 808 50.6807 1369.66 544.985
544 0 67.0948 12.6388 848 50.4623 1369.08 544.039
545 0 67.1212 12.7679 857 50.9615 1369.46 544.851
546 0 70.1132 13.3784 938 50.9915 1369.58 541.225
547 0 71.1584 13.3364 949 50.8082 1369.19 540.97
548 0 72.2142 11.8259 854 52.4333 1369.7 539.882
549 0 77.2832 13.5088 1044 50.9444 1369.07 539.006
550 0 77.1925 11.5685 893 53.1277 1368.83 537.247
551 0 81.2402 12.7277 1034 51.8182 1369.2 538.721
552 0 82.1475 13.6218 1119 51.8758 1368.69 532.362
553 0 87.1772 13.008 1134 52.2822 1369.14 533.114
554 0 87.3061 12.0839 1055 53.4209 1368.67 533.238
555 0 89.2472 12.7175 1135 53.5639 1368.34 529.586
556 0 93.1161 11.8884 1107 53.7597 1368.04 531.77
557 0 95.1818 12.7545 1214 53.304 1368.65 531.231
558 1 55.0493 12.0256 662 52.4517 1369.86 550.576
559 0 55.0473 12.4438 685 53.0146 1369.79 548.981
560 0 58.0438 12.5767 730 52.9795 1369.52 548.803
561 0 58.1045 13.0283 757 53.3157 1369.2 546.885
562 0 62.067 13.8399 859 51.5763 1369.21 547.397
563 0 63.0189 12.4724 786 53.5509 1369.31 544.966
564 0 64.0663 12.768 818 53.8252 1368.97 545.374
565 0 65.1381 12.2202 796 54.0817 1368.62 545.234
566 0 69.1745 13.4876 933 53.2915 1368.16 542.616
567 0 70.0618 13.5452 949 53.3509 1368.93 540.783
568 0 72.0827 13.0267 939 53.9521 1368.98 540.949
569 0 75.1489 13.2803 998 53.6543 1368.19 541.048
570 0 79.0709 14.3416 1134 52.7196 1368.31 538.395
571 0 79.3465 12.5273 994 54.4517 1368.18 539.779
572 0 81.1283 12.9055 1047 54.5836 1368.08 535.664
573 0 87.1897 13.809 1204 52.9169 1367.71 537.221
574 0 89.0638 14.4391 1286 52.9253 1367.18 534.015
575 0 90.3036 13.7868 1245 53.7229 1367.26 533.703
576 0 94.1902 14.2796 1345 53.5145 1367.01 534.055
577 0 99.3315 13.6311 1354 54.0532 1367.26 528.834
578 0 100.341 13.6135 1366 54.3917 1366.84 528.622
579 0 104.19 13.6769 1425 53.9046 1367.42 528.326
580 0 110.184 13.1962 1454 54.2373 1367.25 527.045
581 1 60.1031 12.2623 737 53.1954 1367.03 549.035
582 0 62.095 12.352 767 53.6089 1366.98 548.932
583 0 62.1602 12.8056 796 53.3945 1366.77 547.799
584 0 66.1449 12.7599 844 52.7417 1366.73 547.514
585 0 68.0766 13.147 895 52.5844 1366.37 545.594
586 0 69.1109 12.8055 885 53.2384 1365.92 544.782
587 0 73.0605 14.4538 1056 51.2093 1366.51 544.966
588 0 75.1171 14.0581 1056 52.0833 1366.16 544.138
589 0 76.0461 13.7022 1042 52.2774 1366.39 543.694
590 0 79.1224 13.8772 1098 52.531 1366.38 541.564
591 0 80.1022 13.1956 1057 53.2649 1366.28 541.197
592 0 80.1022 13.1582 1054 154.7 1366.26 541.213
593 0 83.1681 12.4687 1037 54.595 1366.09 537.418
594 0 88.0612 12.832 1130 53.6097 1366.33 535.876
595 0 88.0612 12.866 1133 151.585 1367.33 535.814
596 0 97.0644 14.1143 1370 51.1927 1366.23 532.751
597 0 101.193 14.6651 1484 50.473 1366.39 532.315
598 0 110.202 12.7856 1409 50.6749 1365.85 535.984
599 0 106.283 13.2006 1403 52.3485 1366.25 531.093
600 0 110.156 14.2435 1569 51.4404 1365.81 527.094
601 0 113.262 12.8816 1459 51.8047 1365.1 528.733
602 0 117.211 13.3605 1566 52.1801 1365.53 523.978
603 0 123.231 13.3245 1642 51.6717 1365.43 521.208
604 0 130.19 10.7919 1405 52.39 1365.22 524.169
605 0 130.154 14.4675 1883 49.9586 1365.32 516.08
606 1 74.0847 13.7815 1021 48.001 1365.44 545.252
607 0 74.0747 13.2029 978 49.6227 1365.6 545.645
608 0 76.1182 12.231 931 51.5628 1365.61 544.969
609 0 79.1012 12.8443 1016 51.9262 1365.41 543.617
610 0 83.1446 13.1939 1097 51.443 1365.83 541.845
611 1 45.0759 11.6026 523 51.3767 1366.17 559.361
612 0 45.0599 10.3196 465 51.772 1366.71 559.912
613 0 47.0333 11.9277 561 51.8592 1366.33 557.875
614 0 50.0382 11.8709 594 52.0438 1366.47 556.283
615 0 51.0354 12.7754 652 50.4847 1365.31 557.064
616 0 51.0702 12.0031 613 52.5546 1365.69 556.721
617 0 52.0374 11.0497 575 53.0278 1365.33 557.052
618 0 53.0444 12.2539 650 52.7769 1365.26 555.575
619 0 55.119 13.0082 717 51.8047 1365.45 553.623
620 0 56.1349 12.8619 722 52.2576 1365.26 552.399
621 0 59.1456 13.4076 793 51.3127 1365.59 553.76
622 0 59.1721 12.8439 760 52.7237 1365.86 552.818
623 0 60.1269 14.2199 855 51.5404 1365.78 552.443
624 0 62.0782 12.4842 775 53.9355 1365.37 550.217
625 0 65.0857 13.874 903 52.5914 1365.9 548.676
626 0 67.1096 13.7387 922 52.5271 1366.38 547.941
627 0 69.1512 13.7814 953 53.0409 1366.73 547.325
628 0 72.1411 13.432 969 53.2312 1366.78 547.331
629 0 73.2142 14.082 1031 53.1688 1366.54 546.61
630 0 76.1353 14.3035 1089 53.1258 1366.5 544.981
631 0 77.2045 12.9915 1003 54.1167 1367.08 543.842
632 0 80.1233 13.941 1117 53.6714 1366.56 541.849
633 0 80.1554 13.2992 1066 55.0582 1366.57 539.686
634 0 88.1338 15.0113 1323 52.5064 1366.99 538.805
635 0 90.1437 13.0126 1173 54.2651 1367.18 538.654
636 0 90.1839 14.5148 1309 53.8816 1367.6 534.679
637 0 94.2818 13.4809 1271 54.8017 1367.68 534.048
638 0 96.2553 13.9005 1338 54.7063 1368.87 531.978
639 0 102.286 14.6549 1499 53.5911 1367.88 531.605
640 0 104.151 14.6326 1524 53.5853 1368.73 530.511
641 1 57.2611 11.1769 640 53.2938 1368.55 555.325
642 0 54.1993 11.55 626 54.5879 1368.54 551.848
643 0 59.289 13.0716 775 53.1948 1368.78 549.65
644 0 63.2586 12.931 818 53.077 1368.21 549.899
645 0 63.1304 12.7197 803 53.6986 1367.89 550.354
646 0 65.083 13.2139 860 53.7151 1368.19 547.01
647 0 67.0824 12.5219 840 54.356 1368.44 545.775
648 0 69.1196 12.746 881 54.193 1368.75 544.874
649 0 70.1659 12.955 909 54.1793 1368.75 543.055
650 0 74.1445 14.8224 1099 52.3339 1368.87 542.057
651 0 71.128 13.3 946 54.3816 1368.64 540.375
652 0 80.0781 14.4109 1154 52.0529 1369.37 540.203
653 0 84.3686 12.9432 1092 53.5742 1369.55 537.845
654 0 84.2563 13.3165 1122 53.8574 1369.61 534.676
655 0 88.1462 14.0108 1235 52.9943 1369.43 531.832
656 0 90.1481 14.576 1314 52.5662 1369.33 530.823
657 0 95.2 15.1576 1443 51.7159 1369.71 530.018
658 0 97.2952 13.8445 1347 52.9555 1369.32 528.191
659 0 101.141 13.9113 1407 52.5288 1369.55 528.555
660 0 104.198 14.8947 1552 51.6688 1369.13 525.424
661 1 55.0752 10.9668 604 51.9222 1369.8 549.839
662 0 55.1791 11.5986 640 52.2359 1369.98 548.397
663 0 59.1403 13.7977 816 50.0208 1369.64 546.401
664 0 61.4326 13.9503 857 49.6943 1368.72 546.152
665 0 62.4274 12.9911 811 50.6535 1369.07 544.26
666 0 67.5036 13.5104 912 49.9912 1369.49 542.561
667 0 67.5024 12.9625 875 50.7189 1369.38 542.336
668 0 66.4317 12.7499 847 51.51 1369.47 540.524
669 0 69.3715 13.8241 959 50.4275 1369.77 541.41
670 0 68.2835 12.1406 829 52.8589 1371.06 540.621
671 0 67.4228 11.3315 764 52.9136 1370.07 541.95
672 0 76.2901 13.7239 1047 51.6008 1369.91 535.586
673 0 81.4908 13.8789 1131 51.3139 1370.6 532.845
674 0 81.3685 14.2193 1157 51.3889 1370.48 532.369
675 0 80.4834 11.7167 943 53.8505 1370.4 534.838
676 0 89.2666 14.003 1250 51.7552 1370.85 529.828
677 0 88.4343 14.802 1309 51.4668 1370.75 529.741
678 1 52.286 12.2595 641 51.1669 1370.21 549.855
679 0 50.2746 12.7102 639 51.8545 1370.62 549.433
680 0 53.061 12.0804 641 52.2683 1371.99 548.139
681 0 53.0432 12.405 658 52.8222 1371.94 548.071
682 0 56.1027 13.2079 741 51.4939 1373.19 548.008
683 0 55.0653 11.8587 653 53.4334 1373.02 547.516
684 0 58.236 12.8099 746 52.7359 1373.04 545.452
685 0 59.0673 13.7809 814 52.6069 1372.24 546.881
686 0 63.0309 14.7547 930 51.3129 1372.61 545.904
687 0 63.0969 14.0894 889 52.4083 1371.97 545.485
688 0 65.0493 13.1746 857 53.5823 1371.99 543.823
689 0 66.0829 13.3771 884 54.0113 1371.95 542.688
690 0 68.0884 14.1434 963 53.6968 1371.71 541.432
691 0 71.0738 14.3372 1019 54.0471 1371.4 538.399
692 0 73.2147 13.8633 1015 54.669 1371.95 539.352
693 0 75.0568 13.6696 1026 55.307 1371.47 539.072
694 0 80.0839 14.6721 1175 53.897 1371.71 535.649
695 0 80.0854 14.4346 1156 55.0363 1371.04 533.645
696 0 86.3788 13.4408 1161 55.5409 1371.11 533.12
697 0 86.1051 13.53 1165 56.2429 1370.98 533.076
698 0 90.3809 13.3325 1205 56.127 1370.82 531.285
699 1 48.1699 12.3106 593 55.5312 1370.93 548.889
700 0 48.0737 11.9816 576 55.7101 1370.18 549.606
701 0 50.065 12.0044 601 55.614 1369.83 548.654
702 0 52.0522 13.1599 685 55.0204 1369.52 546.866
703 0 52.0522 13.2751 691 154.624 1369.54 546.945
704 0 54.2607 12.5321 680 55.5882 1370.42 548.246
705 0 57.1765 11.8055 675 56.3378 1370.09 546.458
706 0 59.1801 12.7408 754 55.1618 1370.24 545.911
707 0 60.1792 13.9417 839 53.8653 1369.89 544.74
708 0 61.0811 13.4248 820 54.428 1369.93 544.199
709 0 63.1662 13.3932 846 54.2033 1369.15 542.644
710 0 67.2026 13.6155 915 53.2831 1369.17 542.713
711 0 67.0537 12.6168 846 55.3712 1369.46 541.054
712 0 69.1725 12.5194 866 55.6189 1368.98 540.068
713 0 72.275 12.5216 905 56.0917 1368.96 540.248
714 0 75.2439 13.6888 1030 55.6757 1369.24 540.269
715 0 76.2875 12.6102 962 57.3243 1368.81 540.526
716 0 78.4044 12.9584 1016 57.3701 1368.32 536.594
717 0 82.3429 12.0229 990 58.2253 1367.62 536.433
718 0 86.4192 13.9205 1203 56.3583 1367.47 534.962
719 0 88.3343 13.1206 1159 56.9172 1367.53 536.596
720 0 90.3165 12.8548 1161 57.1507 1367.58 531.084
721 1 48.1296 11.9677 576 56.5347 1367.09 552.451
722 0 50.1098 11.2952 566 55.5 1367.76 555.389
723 0 50.1098 11.2353 563 156.455 1367.79 555.414
724 0 56.125 12.0802 678 54.5944 1368.31 551.765
725 0 54.1983 13.0078 705 54.6809 1367.68 550.76
726 0 58.1858 14.299 832 52.2981 1367.18 549.174
727 0 59.254 13.3324 790 53.5519 1367.45 548.844
728 0 63.1176 14.2749 901 52.7148 1366.86 547.41
729 0 64.2687 12.7589 820 53.4232 1366.94 548.202
730 0 66.1434 12.6392 836 53.549 1366.24 547.08
731 0 72.2087 12.6024 910 52.3451 1366.43 546.763
732 0 72.115 14.0609 1014 51.7189 1366.17 545.263
733 0 68.1518 12.3694 843 53.8849 1366.01 543.944
734 0 73.5381 14.7271 1083 52.0351 1366.3 544.145
735 0 74.3772 14.2382 1059 51.9736 1365.61 544.17
736 0 77.602 13.6723 1061 52.3713 1365.7 543.599
737 0 77.5143 14.2812 1107 53.0018 1365.4 541.797
738 0 82.7055 13.6508 1129 52.8255 1365.87 540.792
739 0 84.5355 13.9468 1179 52.7345 1366 538.807
740 0 87.5315 14.966 1310 52.4107 1365.74 536.148
741 0 91.5003 14.907 1364 52.0565 1365.47 536.408
742 1 51.3609 12.383 636 52.1305 1365.05 557.182
743 0 52.4881 12.1932 640 51.7938 1365.01 556.075
744 0 52.4312 13.3508 700 51.7457 1365.01 554.641
745 0 52.1328 10.4924 547 55.6197 1364.38 552.671
746 0 55.3785 13.6154 754 52.6631 1364.22 551.684
747 0 56.2803 12.9353 728 53.7967 1364.01 550.636
748 0 57.5552 14.0908 811 52.7115 1363.62 551.353
749 0 58.3589 13.5027 788 53.302 1363.59 552.053
750 0 59.5929 14.7165 877 52.122 1363.49 551.338
751 0 61.3626 12.6787 778 55.1864 1363.66 547.129
752 0 64.3546 13.6121 876 54.2272 1363.38 549.338
753 0 64.4562 12.7684 823 55.9137 1362.98 546.637
754 0 67.568 15.3771 1039 53.2223 1363.47 546.194
755 0 70.5928 13.8399 977 54.7329 1363.53 545.384
756 0 73.3996 15.0546 1105 53.5041 1363.89 543.925
757 0 74.3895 14.2628 1061 55.1272 1363.75 542.235
758 0 75.5019 13.8937 1049 55.4061 1363.91 543.659
759 0 79.4453 13.418 1066 55.5291 1363.57 540.547
760 0 79.3541 14.1013 1119 55.3494 1363.71 540.046
761 1 44.2067 11.6272 514 57.1012 1363.3 555.8
762 0 45.2226 13.2456 599 55.6828 1363.6 555.117
763 0 47.0832 13.5717 639 56.0892 1363.48 554.443
764 0 48.0794 13.1033 630 56.4365 1363.51 553.624
765 0 48.0331 13.4491 646 56.5294 1363.2 554.941
766 0 51.1304 14.2968 731 55.7989 1363.17 553.227
767 0 52.2195 12.9837 678 56.6578 1363.64 553.673
768 0 53.245 13.8229 736 56.2527 1363.5 551.885
769 0 52.1861 14.3716 750 56.8173 1363.46 550.773
770 0 57.1471 14.1564 809 55.7058 1363.67 550.418
771 0 54.413 14.3348 780 57.0167 1363.52 548.244
772 0 56.2384 13.3183 749 57.6208 1363.45 551.223
773 0 58.4649 13.9229 814 57.2838 1363.59 548.787
774 0 61.3086 14.2394 873 57.0263 1363.15 546.779
775 0 64.5162 14.043 906 56.7208 1363.33 548.082
776 0 68.2669 14.5605 994 56.1207 1363.43 546.248
777 0 68.4086 13.5509 927 57.8209 1364.03 545.351
778 0 71.2301 12.972 924 58.4383 1364.02 543.933
779 0 74.4773 14.1922 1057 57.4806 1364.08 540.341
780 0 75.4033 13.8721 1046 58.3365 1364.47 539.511
781 0 80.202 15.3363 1230 56.5366 1364.37 538.587
782 0 84.2309 13.9735 1177 57.7315 1365.54 536.799
783 1 44.0695 13.1156 578 56.6073 1364.36 557.638
784 0 46.0709 13.6529 629 56.7886 1364.9 556.407
785 0 46.0362 13.8586 638 58.3589 1365.23 553.517
786 0 47.1317 13.4517 634 58.9274 1365.66 553.44
787 0 49.1417 13.2474 651 59.9278 1365.35 552.35
788 0 49.1416 13.3492 656 59.6692 1365.35 552.849
789 0 54.1231 13.8943 752 57.8112 1365.27 552.723
790 0 52.2463 14.6805 767 58.4068 1365.99 550.641
791 0 55.2119 13.9825 772 58.8122 1366.2 549.886
792 0 56.2432 14.6151 822 58.9745 1365.71 547.865
793 0 54.2439 12.8494 697 61.6614 1365.5 548.66
794 0 56.3062 13.2312 745 61.1611 1365.66 547.42
795 0 61.3612 14.7813 907 58.9361 1365.71 544.914
796 0 64.3971 14.6591 944 58.3771 1366.35 544.088
797 0 67.2367 13.5938 914 59.0569 1366.14 544.061
798 0 69.3206 14.8297 1028 57.6732 1366.68 542.507
799 0 71.3072 13.9116 992 59.3246 1366.71 540.458
800 0 72.2025 13.2959 960 59.775 1367.11 539.796
801 0 81.4207 13.1048 1067 58.9775 1367.04 537.459
802 0 80.3523 13.3164 1070 58.6748 1367.43 537.493
803 0 80.2281 13.7234 1101 58.7639 1367.14 536.233
804 1 44.2092 11.9206 527 57.666 1366.8 553.269
805 0 48.0779 12.2925 591 57.599 1366.79 551.638
806 0 47.1178 11.588 546 58.1392 1366.9 551.396
807 0 48.0702 12.4401 598 56.5619 1367.15 549.614
808 0 54.261 13.3798 726 53.8209 1367.22 551.442
809 0 52.1483 12.7521 665 55.7128 1367.2 549.442
810 0 55.1171 12.9542 714 55.2731 1367.18 548.375
811 0 56.2408 13.4955 759 54.7167 1368.08 548.497
812 0 57.2154 14.3493 821 54.3508 1367.89 547.055
813 0 61.3393 13.9552 856 53.8178 1368.08 545.515
814 0 59.3486 13.446 798 54.9023 1368.2 543.722
815 0 65.5361 14.2364 933 53.209 1368.14 542.794
816 0 68.2883 14.0873 962 52.5603 1367.88 542.877
817 0 66.3681 13.5758 901 53.7092 1367.94 539.989
818 0 69.1837 14.541 1006 53.1213 1368.12 538.556
819 0 69.3199 12.3341 855 54.4269 1368.49 540.354
820 0 75.2649 14.2563 1073 52.8192 1368.42 537.379
821 0 78.2857 14.3832 1126 52.7309 1367.79 536.088
822 0 78.2904 14.4462 1131 53.0513 1368.3 533.807
823 0 83.2031 15.1557 1261 52.111 1367.56 534.025
824 0 83.3553 13.6524 1138 53.3664 1368.16 533.968
825 0 88.276 15.089 1332 52.3979 1368.15 528.339
826 0 91.2503 14.9917 1368 52.0058 1368.2 530.417
827 0 90.2655 13.704 1237 53.4107 1367.97 529.342
828 0 98.3575 14.1016 1387 52.7664 1368.32 526.175
829 0 102.143 13.9119 1421 52.4483 1367.9 527.339
830 1 55.0586 11.4424 630 52.8683 1367.28 546.89
831 0 59.1009 12.4533 736 51.7921 1367.96 547.99
832 0 56.1682 12.4448 699 53.1602 1368.04 545.641
833 0 60.5195 13.4337 813 51.877 1367.33 546.044
834 0 59.225 12.8662 762 52.4541 1367.17 545.642
835 0 62.1286 12.2649 762 53.2493 1367.36 544.365
836 0 66.1529 13.0758 865 52.0451 1367.36 541.766
837 0 69.1795 14.1227 977 50.7288 1367.13 542.397
838 0 70.2366 13.0701 918 52.6427 1366.82 541.215
839 0 72.2837 13.4747 974 52.6376 1366.84 539.389
840 0 78.1643 13.2413 1035 52.8251 1367 537.687
841 0 77.2128 14.3111 1105 52.571 1367.21 536.794
842 0 82.2125 14.6085 1201 51.8426 1366.36 537.179
843 0 84.1256 14.4784 1218 52.4261 1366.73 532.75
844 0 85.3884 13.1751 1125 54.5067 1366.32 532.204
845 0 90.4759 14.3795 1301 52.5642 1366.64 533.005
846 0 90.4759 14.3685 1300 158.09 1367.66 532.929
847 0 97.3507 13.7441 1338 53.4529 1366.31 530.655
848 1 52.1563 11.3313 591 54.1134 1366.42 548.701
849 0 54.3543 12.4185 675 53.3126 1366.55 547.819
850 0 57.2567 13.6752 783 51.9566 1366.31 547.641
851 0 57.1229 13.7248 784 51.2334 1366.4 550.379
852 0 56.2399 12.4645 701 53.5007 1366.09 546.799
853 0 59.1064 11.86 701 53.7618 1366.36 546.628
854 0 62.2769 14.0983 878 51.3599 1366.62 546.757
855 0 65.2413 12.6454 825 52.7988 1366.59 544.442
856 0 69.4107 14.8392 1030 50.9243 1366.46 543.146
857 0 69.5078 13.4949 938 52.4968 1366.49 541.659
858 0 73.3056 12.9322 948 53.0549 1366.26 541.634
859 0 76.2924 14.1823 1082 51.8373 1365.76 539.852
860 0 82.4173 13.3224 1098 53.0574 1365.86 539.526
861 0 82.5842 12.908 1066 53.5169 1366.1 539.739
862 1 46.3314 8.67663 402 55.7338 1366.19 555.418
863 0 47.4565 11.0206 523 53.6023 1366.2 555.656
864 0 47.279 10.5967 501 54.8263 1366.16 554.836
865 0 46.4195 12.0854 561 53.6168 1364.66 554.727
866 0 45.3082 9.95405 451 56.0554 1364.79 555.614
867 0 54.4047 11.488 625 54.2304 1364.85 551.046
868 0 54.1993 11.2363 609 54.3842 1365.04 552.959
869 0 57.413 11.1996 643 55.0622 1365.53 551.037
870 0 59.3608 13.1737 782 54.0499 1364.81 548.247
871 0 59.3608 13.2242 785 156.079 1363.8 548.2
872 0 64.1133 11.8696 761 55.816 1366.15 548.725
873 0 65.0178 11.8121 768 55.0104 1366.45 546.997
874 0 66.1147 12.7506 843 54.3499 1366.46 545.416
875 0 67.118 12.6643 850 54.3176 1365.92 544.327
876 0 71.0292 13.3607 949 53.9895 1365.65 544.102
877 0 73.1086 12.9944 950 53.84 1365.44 544.705
878 0 74.1091 12.4411 922 54.4794 1365.36 542.02
879 0 77.1938 13.071 1009 53.0644 1365.19 543.205
880 0 80.2493 12.1372 974 54.462 1364.97 541.437
881 0 83.2 13.3654 1112 53.6619 1364.86 538.119
882 0 83.0911 12.7812 1062 54.758 1364.47 537.286
883 0 88.1257 13.0382 1149 53.9278 1365.4 537.164
884 0 91.1827 14.3887 1312 52.8735 1364.81 536.617
885 0 91.1827 14.3339 1307 148.662 1363.83 536.637
886 1 50.0594 11.8659 594 53.7811 1366.07 555.911
887 0 51.0782 11.7075 598 53.8244 1366.36 555.259
888 0 52.0796 11.6936 609 53.5402 1366.1 554.207
889 0 57.0907 12.4188 709 53.0804 1366.05 554.217
890 0 54.1024 12.1436 657 58.1857 1365.17 551.799
891 0 57.1325 14.3176 818 64.1724 1365.68 551.147
892 0 58.2301 13.4638 784 53.8253 1365.85 550.426
893 0 58.2839 12.3019 717 54.1381 1365.95 549.866
894 0 65.2584 14.6954 959 50.5005 1366.76 548.776
895 0 64.2951 14.0757 905 51.5536 1366.83 549.002
896 0 62.2308 13.6588 850 53.4024 1366.4 546.688
897 0 67.2439 14.202 955 51.866 1366.54 547.714
898 0 67.2784 14.165 953 52.5645 1367.6 544.842
899 0 68.1566 14.2759 973 52.4676 1367.35 545.124
900 0 71.155 13.8149 983 53.6083 1367.41 542.817
901 0 71.155 13.8852 988 170.475 1367.41 542.873
902 0 77.1394 12.9506 999 53.7177 1367.74 543.726
903 0 77.2389 14.5134 1121 53.2855 1367.66 540.654
904 0 80.202 14.7129 1180 52.9847 1367.98 537.547
905 0 82.2523 15.343 1262 53.1157 1367.59 537.742
906 0 83.076 14.5409 1208 53.928 1367.55 538.757
907 0 85.2203 13.2128 1126 55.3659 1368.06 535.529
908 0 90.1672 15.072 1359 53.4665 1368.16 533.021
909 0 92.1035 14.6249 1347 53.6637 1368.15 531.631
910 0 96.1989 14.8131 1425 53.4821 1368.41 530.858
911 0 103.224 13.9018 1435 54.2439 1369.12 530.261
912 0 101.326 13.7378 1392 55.0352 1369.09 527.964
913 0 101.326 13.7477 1393 162.332 1368.09 527.929
914 0 111.176 14.7244 1637 53.5748 1369.31 525.177
915 1 58.0859 13.0496 758 54.9604 1369.66 548.053
916 0 59.1054 13.2137 781 54.9398 1370.01 546.503
917 0 62.0971 14.6867 912 53.0713 1370.15 546.658
918 0 64.3079 13.1866 848 54.3679 1370.09 545.175
919 0 65.373 14.0731 920 53.813 1370.19 543.874
920 0 66.2272 13.3178 882 54.8413 1370.19 540.866
921 0 69.1945 13.8884 961 54.0676 1370.26 542.843
922 0 71.3467 13.7077 978 54.0695 1370.21 540.829
923 0 72.235 14.7989 1069 53.0767 1370.38 540.642
924 0 76.239 14.4283 1100 53.7182 1370.46 536.195
925 0 85.1206 12.3119 1048 54.3406 1370.82 536.74
926 0 86.2581 14.0856 1215 53.0082 1370.33 534.856
927 0 85.2237 15.1601 1292 52.6115 1371.34 533.042
928 0 88.1837 14.6739 1294 53.3601 1370.84 530.393
929 0 90.31 14.6163 1320 53.5508 1370.68 531.088
930 0 90.31 14.6053 1319 155.861 1371.68 531.083
931 1 52.2726 13.0279 681 53.3789 1371.11 549.338
932 0 54.0839 13.516 731 53.5568 1371.48 548.453
933 0 57.3271 14.112 809 52.6267 1370.9 548.506
934 0 58.3478 13.7966 805 53.2708 1371.06 547.481
935 0 58.3646 12.7474 744 54.5901 1370.32 547.087
936 0 62.2905 13.2283 824 53.8981 1370.73 546.353
937 0 62.4793 13.0923 818 54.1577 1370.24 545.449
938 0 62.4793 13.1403 821 163.878 1370.22 545.516
939 0 65.3013 14.7164 961 53.4932 1369.88 541.948
940 0 68.4289 14.0292 960 53.6 1370.54 542.804
941 0 71.2363 13.8834 989 53.4681 1370.48 541.841
942 0 73.4156 13.5394 994 53.8883 1369.68 540.476
943 0 73.4156 13.6075 999 168.668 1368.66 540.477
944 0 79.2225 14.0743 1115 53.7659 1369.5 537.939
945 0 81.4043 14.0902 1147 53.5658 1369.3 536.14
946 1 47.296 13.1512 622 52.5434 1369.6 554.995
947 0 44.1552 11.6634 515 55.5282 1369.51 552.398
948 0 45.1552 11.8037 533 54.8705 1369.34 554.298
949 0 45.1356 13.2268 597 53.5377 1368.92 553.246
950 0 44.1385 12.5061 552 54.9438 1368.86 552.656
951 0 45.1787 12.1739 550 55.2818 1368.61 553.238
952 0 52.1517 14.1319 737 53.7883 1368.53 550.55
953 0 54.0176 14.3842 777 53.3308 1368.62 552.301
954 0 56.3232 13.7421 774 53.8411 1368.88 549.687
955 0 56.1465 12.7524 716 54.6131 1368.58 550.459
956 0 58.1478 13.4657 783 54.9566 1368.42 548.797
957 0 59.1173 14.7334 871 53.9506 1369.01 548.006
958 0 62.1273 14.9693 930 52.7312 1368.76 547.456
959 0 65.153 15.0569 981 52.7971 1368.24 544.896
960 0 67.1123 14.5279 975 52.9672 1368.51 544.082
961 0 68.2556 13.9036 949 53.902 1368.39 543.567
962 0 70.2686 14.7861 1039 52.4591 1368.23 542.05
963 0 74.2074 15.2276 1130 51.6434 1368.29 541.983
964 0 76.2502 14.8065 1129 51.853 1368.2 542.52
965 0 78.1106 15.0684 1177 52.1835 1367.93 538.855
966 0 79.1235 15.3178 1212 52.2079 1367.88 537.766
967 0 81.3573 14.6268 1190 52.8655 1368.5 538.788
968 0 85.155 15.4072 1312 51.9977 1368.17 536.889
969 0 87.1074 15.0274 1309 52.5309 1368.05 533.626
970 0 89.0523 15.1821 1352 53.0865 1368.34 534.137
971 0 92.191 14.6978 1355 53.0472 1368.21 536.453
972 0 94.1036 14.0058 1318 53.7519 1367.67 532.356
973 1 52.0943 14.1474 737 53.7883 1367.99 552.155
974 0 52.0268 15.3575 799 53.7222 1368.29 551.449
975 0 55.0428 13.7166 755 55.2026 1367.73 549.514
976 0 56.0322 13.992 784 54.8788 1367.68 550.497
977 0 58.3613 14.3931 840 55.269 1367.1 548.069
978 0 60.0194 14.362 862 55.1508 1367.35 547.886
979 0 61.0986 14.9594 914 55.5186 1367.09 547.031
980 0 63.1064 14.4993 915 56.0284 1367.21 546.068
981 0 65.1366 14.5387 947 56.6072 1367.01 543.467
982 0 67.0555 13.9735 937 57.0907 1367.2 543.759
983 0 70.0822 14.64 1026 56.3908 1367.02 542.501
984 0 71.1528 14.7429 1049 57.1602 1366.86 542.678
985 0 75.1717 15.3249 1152 55.921 1366.89 542.681
986 0 77.1106 14.8747 1147 56.782 1367.14 541.081
987 0 80.2502 14.6915 1179 57.2561 1367.08 539.333
988 0 84.4214 14.9962 1266 56.1438 1366.57 538.055
989 0 88.1485 16.5857 1462 54.3646 1366.77 536.014
990 1 45.0481 11.0993 500 56.922 1366.73 555.002
991 0 47.0302 12.0986 569 55.6889 1366.46 554.91
992 0 49.0699 11.5346 566 54.8357 1366.75 555.966
993 0 51.0712 12.3945 633 54.8594 1367.17 554.07
994 0 52.0976 13.9162 725 54.4234 1365.94 553.887
995 0 55.0778 11.9104 656 55.6235 1366.46 553.716
996 0 53.0289 12.3518 655 56.0092 1366.3 552.119
997 0 56.1281 12.5071 702 55.0199 1365.63 554.134
998 0 56.0476 11.6686 654 56.2859 1366.15 551.15
999 0 59.0622 11.8519 700 56.1586 1365.9 551.016
1000 0 60.0489 13.0061 781 55.3752 1366.13 550.346
1001 0 63.1658 13.425 848 54.8467 1366.23 549.58
1002 0 64.0765 12.3914 794 55.6688 1366.28 548.442
1003 0 63.0311 12.5018 788 56.0013 1365.93 544.577
1004 0 68.0788 12.9556 882 55.2948 1365.37 546.018
1005 0 72.1255 12.9358 933 55.0825 1366.1 544.581
1006 0 73.1014 12.9683 948 55.1614 1366.22 543.045
1007 0 77.3302 13.3712 1034 54.501 1366.29 540.877
1008 0 79.0579 13.4079 1060 54.816 1366.16 540.73
1009 0 82.1679 13.01 1069 55.0505 1365.94 539.48
1010 0 84.1095 12.9117 1086 55.2495 1365.37 540.249
1011 0 87.2921 13.346 1165 56.5588 1365.76 537.274
1012 1 48.1288 10.9082 525 55.699 1365.59 555.781
1013 0 49.0571 10.926 536 57.1045 1365.22 554.427
1014 0 54.1282 12.0085 650 55.4954 1365.36 554.191
1015 0 53.0335 11.1628 592 57.3632 1365.02 552.86
1016 0 55.0676 11.1681 615 56.522 1364.9 553.247
1017 0 58.191 12.2184 711 55.5513 1364.89 550.501
1018 0 61.1875 10.9663 671 56.0045 1365.52 550.158
1019 0 62.1429 11.5057 715 55.5119 1365.95 550.929
1020 0 64.1424 12.6905 814 54.6769 1365.91 549.929
1021 0 64.1476 12.3153 790 55.2127 1365.96 548.303
1022 0 66.1425 11.188 740 55.8946 1366.15 545.88
1023 0 71.3101 12.6209 900 54.6233 1366.12 545.29
1024 0 71.2713 11.8561 845 55.5692 1366.32 545.518
1025 0 74.2982 13.069 971 54.4809 1366.17 544.783
1026 0 79.3779 11.6909 928 54.9903 1366.16 544.084
1027 0 81.4235 12.0358 980 55.2337 1366.12 541.429
1028 0 79.233 11.5735 917 56.0218 1367.13 542.376
1029 0 85.7634 12.1963 1046 55.3805 1367.33 538.633
1030 0 89.4703 11.9928 1073 55.8071 1367.12 537.017
1031 0 90.5239 12.03 1089 56.3811 1366.91 535.097
1032 0 90.4991 10.6741 966 57.6398 1366.81 536.821
1033 0 94.4519 11.2862 1066 57.0722 1366.82 532.715
1034 0 93.6177 10.2117 956 56.9184 1367.28 536.149
1035 0 95.8179 11.3549 1088 56.8033 1367.63 535.194
1036 1 57.332 12.6631 726 52.8127 1367.75 552.483
1037 0 57.357 11.1408 639 54.5008 1367.94 551.219
1038 0 58.2147 12.0416 701 54.3024 1368.65 548.561
1039 0 60.8617 12.2737 747 53.3989 1368.92 549.965
1040 0 63.6464 11.3125 720 53.9667 1369.23 548.008
1041 0 64.362 12.4608 802 53.1347 1369.54 546.709
1042 0 67.2429 12.3284 829 52.8323 1369.41 545.531
1043 0 71.6051 12.3874 887 52.3878 1369.72 542.875
1044 0 74.5478 11.9252 889 52.7885 1369.5 543.479
1045 0 77.3907 12.7018 983 51.3733 1369.57 544.124
1046 0 81.7255 13.1048 1071 50.5714 1370.86 534.974
1047 0 82.7538 13.6187 1127 50.6779 1370.85 534.515
1048 1 43.7822 10.1868 446 50.7803 1370.38 552.935
1049 0 46.9709 11.4113 536 50.2313 1370.96 551.451
1050 0 46.5204 10.9629 510 51.3137 1370.97 552.027
1051 0 48.6925 10.7409 523 51.3461 1371.02 551.792
1052 0 49.7793 12.3144 613 51.0979 1371.55 550.168
1053 0 50.814 12.2014 620 51.471 1371.68 548.294
1054 0 53.8322 11.6845 629 51.3688 1371.82 547.665
1055 0 52.7739 11.3503 599 52.7713 1372.06 545.142
1056 0 53.6589 13.7722 739 51.0528 1371.93 545.821
1057 0 57.2244 12.5471 718 51.4916 1371.62 546.391
1058 0 57.094 11.2446 642 53.2508 1370.97 543.226
1059 0 60.3168 11.6385 702 52.6809 1370.92 542.63
1060 0 62.2913 13.1158 817 51.4321 1370.8 541.475
1061 0 64.5027 12.4491 803 52.1196 1371.36 541.599
1062 0 64.4509 12.2574 790 52.843 1371.07 541.149
1063 0 66.5023 12.9469 861 52.5772 1371.07 540.901
1064 0 69.1827 13.2692 918 52.0773 1371.24 539.392
1065 0 69.2657 11.954 828 53.7572 1371.32 538.243
1066 0 71.3712 12.5121 893 53.0179 1371.26 537.314
1067 0 74.2243 11.8155 877 53.3694 1370.82 538.399
1068 0 76.181 11.5777 882 53.2324 1370.4 535.404
1069 0 77.1409 12.2762 947 52.9567 1370.61 534.416
1070 0 81.118 12.6606 1027 52.1938 1369.94 532.746
1071 0 82.9861 12.5443 1041 52.4717 1369.26 530.993
1072 0 85.9618 13.1454 1130 51.6336 1369.69 531.775
1073 0 95.2946 11.2703 1074 52.1443 1369.92 531.31
1074 0 93.1826 12.8243 1195 51.6351 1369.82 526.536
1075 0 99.0899 13.5634 1344 50.4903 1369.14 524.417
1076 0 97.9136 12.7153 1245 51.743 1369.16 523.239
1077 0 102.032 13.535 1381 50.8791 1369.71 523.524
1078 0 103.968 12.4269 1292 52.3003 1369.18 519.422
1079 1 55.5826 9.96715 554 51.7491 1368.68 544.348
1080 0 59.7448 10.0092 598 51.388 1368.59 544.161
1081 0 61.621 12.09 745 50.2644 1369.4 543.369
1082 0 66.662 11.9108 794 49.9761 1369 541.302
1083 0 65.6395 12.2335 803 51.3026 1369.04 539.827
1084 0 66.7847 11.7093 782 51.5972 1368.82 539.444
1085 0 69.9348 12.383 866 51.3834 1368.9 538.781
1086 0 71.7398 12.8381 921 51.2975 1369.4 535.962
1087 0 74.9388 12.29 921 51.4582 1369.65 536.68
1088 0 73.8993 13.3831 989 51.4783 1369.5 535.2
1089 0 77.763 13.1425 1022 51.6967 1369.43 534.662
1090 0 82.8977 14.2344 1180 49.8839 1369.28 533.486
1091 0 85.7219 13.1822 1130 50.9584 1369.22 531.51
1092 0 85.7957 13.7536 1180 51.2339 1369.06 529.414
1093 0 91.5306 12.3674 1132 51.6502 1368.87 529.538
1094 0 94.7696 14.1712 1343 49.9851 1369.06 530.268
1095 0 95.7442 14.4552 1384 50.2298 1368.99 529.291
1096 1 51.5572 8.84454 456 51.9825 1369.24 548.715
1097 0 55.4418 11.1288 617 50.5575 1369.28 547.942
1098 0 54.7531 11.214 614 51.8958 1369.87 545.917
1099 0 57.3104 12.5283 718 51.5905 1369.86 545.435
1100 0 59.3848 12.3432 733 51.7203 1369.34 542.229
1101 0 61.3063 12.462 764 51.928 1368.82 545.589
1102 0 61.2872 12.678 777 52.1313 1368.2 545.678
1103 0 61.4453 12.6291 776 52.9691 1368.4 542.508
1104 0 64.4916 14.2809 921 50.5136 1368.56 541.989
1105 0 65.581 11.7412 770 52.9844 1368.75 543.392
1106 0 68.5846 12.5684 862 51.9594 1368.25 542.435
1107 0 71.5819 13.3693 957 51.3083 1367.95 541.535
1108 0 72.4713 12.6671 918 52.0599 1367.89 539.385
1109 0 75.6036 13.1211 992 51.5927 1367.84 539.301
1110 0 77.4758 13.5784 1052 51.269 1368.2 537.402
1111 0 78.5266 14.5174 1140 51.0842 1368.3 535.007
1112 0 83.407 12.457 1039 52.5197 1369.05 536.016
1113 0 83.452 12.9176 1078 51.7486 1368.51 537.618
1114 0 87.5656 13.3728 1171 51.8941 1368.06 534.211
1115 0 90.4655 14.1711 1282 50.7465 1367.86 533.615
1116 0 92.4754 13.5712 1255 51.7777 1367.48 531.382
1117 0 96.5168 14.0079 1352 51.1354 1367.31 531.189
1118 1 54.2272 9.68149 525 51.5505 1367.08 551.846
1119 0 56.3545 10.8243 610 50.3164 1367.57 553.89
1120 0 56.2303 10.6171 597 51.2998 1367.12 551.147
1121 0 58.2542 12.085 704 50.5085 1367.54 549.682
1122 0 60.2641 13.026 785 49.8382 1367.57 549.061
1123 0 61.1705 12.081 739 50.3085 1367.63 548.445
1124 0 66.0576 12.8676 850 50.1141 1366.9 548.738
1125 0 65.1132 13.6992 892 49.8184 1367.36 547.204
1126 0 68.1088 12.6709 863 51.007 1367.21 546.292
1127 0 70.1087 13.6217 955 50.2597 1367.22 546.891
1128 0 71.1308 12.1888 867 51.9135 1367.14 545.326
1129 0 71.1699 13.4186 955 50.8974 1367.48 544.319
1130 0 72.2674 13.5469 979 51.1675 1367.49 542.974
1131 0 75.1454 13.0414 980 51.8622 1367.24 542.953
1132 0 78.1863 12.4063 970 52.3113 1367.18 542.518
1133 0 81.2139 12.0546 979 53.1839 1367.21 538.759
1134 0 83.1395 13.2548 1102 52.3584 1367.41 538.838
1135 0 86.2078 13.7227 1183 51.7794 1367.24 537.948
1136 0 87.1768 13.5816 1184 52.3252 1367.45 535.15
1137 0 87.2016 13.1878 1150 53.4643 1367.48 533.402
1138 0 92.2094 13.0464 1203 53.0856 1367.95 533.355
1139 0 97.2196 14.3078 1391 51.6959 1367.89 533.313
1140 0 99.3588 14.1407 1405 52.0206 1368.48 531.014
1141 0 97.1565 13.1334 1276 55.2171 1368.52 528.828
1142 0 103.299 13.5916 1404 54.5534 1367.96 528.849
1143 0 105.377 13.0959 1380 55.3333 1368.28 523.557
1144 0 108.362 13.3073 1442 55.4119 1368.28 523.992
1145 1 65.098 11.4289 744 54.1465 1367.81 547.657
1146 0 67.0737 12.1061 812 53.1687 1367.71 546.909
1147 0 70.1732 12.4407 873 54.4158 1367.98 544.364
1148 0 72.0986 12.7603 920 54.263 1368.64 541.032
1149 0 73.2107 13.7412 1006 53.0457 1368.31 543.709
1150 0 75.351 12.2626 924 54.4545 1368.55 542.074
1151 0 76.519 11.6442 891 55.5758 1369.3 538.644
1152 0 80.3293 12.7226 1022 53.8562 1369.32 538.386
1153 0 82.3999 12.767 1052 53.3916 1369.66 538.806
1154 0 84.3422 12.2359 1032 54.3498 1369.85 536.391
1155 0 87.7186 13.9651 1225 52.929 1370.21 532.277
1156 0 93.6305 12.4852 1169 54.3499 1370.51 532.666
1157 0 92.8686 12.9646 1204 54.3181 1370.43 531.378
1158 0 95.7781 13.1345 1258 54.159 1370.46 530.162
1159 0 97.6515 12.5856 1229 55.109 1370.97 527.003
1160 1 57.5664 11.1697 643 54.4774 1370.86 548.095
1161 0 59.2921 12.9528 768 53.4023 1370.64 546.258
1162 0 60.2808 12.2593 739 55.1813 1371.84 545.233
1163 0 60.2808 12.2095 736 155.118 1373.87 545.28
1164 0 64.277 12.4772 802 54.4913 1371.69 543.9
1165 0 66.5002 11.3383 754 55.9668 1371.85 542.432
1166 0 68.3913 12.4723 853 54.7104 1371.94 542.193
1167 0 70.4575 12.1776 858 54.8986 1371.88 540.871
1168 0 72.5114 12.5911 913 54.4239 1368.24 540.674
1169 0 73.4452 13.2752 975 54.3231 1369.07 537.287
1170 0 74.5444 12.7575 951 54.817 1369.4 538.169
1171 0 77.4531 13.2596 1027 54.3145 1370.18 535.406
1172 0 82.3493 14.1956 1169 52.6056 1370.38 533.924
1173 0 82.5277 13.0744 1079 54.203 1371.1 532.718
1174 0 85.5914 13.249 1134 53.9586 1371.82 530.998
1175 0 87.6476 13.0066 1140 54.4816 1371.64 529.612
1176 0 92.3713 12.7312 1176 54.381 1371.39 530.144
1177 0 93.4251 13.476 1259 54.1176 1371.16 529.592
1178 0 93.5892 12.9823 1215 55.2979 1371.21 528.72
1179 0 98.5006 13.3096 1311 54.5614 1371.14 528.164
1180 0 101.586 14.2244 1445 53.791 1371.37 526.301
1181 0 104.45 14.3418 1498 54.0387 1370.71 521.234
1182 0 104.466 12.9803 1356 55.7271 1370.76 522.024
1183 0 109.285 12.5817 1375 55.7084 1371.2 522.007
1184 0 113.372 13.9628 1583 54.3632 1370.83 519.085
1185 0 115.216 13.5484 1561 55.0961 1370.61 518.224
1186 0 118.425 13.7555 1629 55.2198 1371.01 515.426
1187 0 122.378 14.0466 1719 54.911 1369.7 513.494
1188 0 127.493 14.4086 1837 54.0773 1370.29 514.129
1189 0 136.464 12.3622 1687 55.3065 1370.61 514.289
1190 0 135.346 13.4249 1817 54.9439 1370.83 508.261
1191 0 138.538 13.8879 1924 54.7599 1370.73 503.986
1192 0 140.556 13.5533 1905 55.3585 1370.36 503.313
1193 0 150.355 12.6567 1903 55.4777 1370.14 504.292
1194 0 150.387 13.8642 2085 55.1041 1370.39 500.504
1195 0 155.284 14.5475 2259 54.1722 1369.43 499.699
1196 0 161.437 14.7488 2381 54.3011 1369.56 492.984
1197 0 167.206 14.3775 2404 54.1793 1370.03 491.213
1198 0 171.302 13.1756 2257 55.2889 1370.28 489.65
1199 0 177.316 14.5785 2585 53.8847 1370.04 483.814
1200 0 183.46 14.2592 2616 54.0344 1370.17 475.398
1201 0 189.303 14.8334 2808 53.3657 1369.59 473.343
1202 0 197.432 14.9824 2958 52.8857 1369.43 472.932
1203 0 200.423 14.8486 2976 52.962 1369.19 470.317
1204 0 207.308 14.9391 3097 53.0727 1369.13 465.953
1205 0 215.316 14.625 3149 53.4563 1368.9 465.352
1206 0 222.422 14.6478 3258 53.2449 1369.38 462.547
1207 0 228.567 14.0352 3208 54.0374 1369.21 458.613
1208 1 51.058 9.65569 493 48.2394 1367.52 547.809
1209 0 54.066 10.6722 577 47.4073 1367.23 545.913
1210 0 54.0741 10.726 580 45.5569 1366.27 548.976
1211 0 57.1311 10.2046 583 47.1544 1368.01 549.895
1212 0 59.1829 12.0136 711 45.8312 1368.46 550.428
1213 0 60.1048 11.4966 691 46.4428 1368.97 549.748
1214 0 62.0771 11.7112 727 46.4691 1368.72 548.704
1215 0 64.1331 11.5697 742 47.4003 1368.5 544.527
1216 0 66.1185 11.2223 742 47.4555 1368.02 546.555
1217 0 66.0776 11.7438 776 47.7732 1368.11 544.571
1218 0 71.1981 11.3486 808 47.7921 1368.06 543.547
1219 0 72.0835 11.7919 850 47.8271 1368.14 542.056
1220 0 73.0909 11.7935 862 47.9548 1367.87 541.586
1221 0 77.084 12.7783 985 46.5614 1368.06 542.378
1222 0 81.0626 12.6692 1027 46.8978 1367.99 539.802
1223 0 82.2023 11.0581 909 48.297 1367.28 537.539
1224 0 85.3097 13.0817 1116 46.3961 1368.03 538.166
1225 0 88.1969 11.7351 1035 47.4705 1367.41 537.035
1226 0 89.1432 12.7884 1140 47.1509 1367.45 534.363
1227 0 90.1576 12.8553 1159 46.8706 1368.25 532.828
1228 0 92.1499 12.165 1121 47.2962 1368.2 532.418
1229 0 97.2603 11.6594 1134 47.1878 1368.02 528.08
1230 0 102.205 12.5728 1285 45.9595 1367.56 529.992
1231 1 62.1337 10.3004 640 44.9688 1367.96 550.719
1232 0 59.042 10.3994 614 45.3192 1368.04 549.046
1233 0 63.1842 9.57518 605 45.081 1369.24 549.281
1234 0 65.2092 11.5474 753 44.2005 1367.74 547.896
1235 0 68.144 13.2954 906 43.5143 1367.31 547.553
1236 0 68.2902 11.1583 762 47.0866 1366.02 542.979
1237 0 70.2089 12.1352 852 45.5998 1365.31 540.32
1238 0 70.16 12.1437 852 46.1362 1365.4 539.029
1239 0 71.1711 12.9266 920 46.2446 1364.83 536.225
1240 0 72.1955 12.5631 907 47.075 1364.18 536.939
1241 0 74.2185 12.3824 919 46.9641 1364.17 540.334
1242 0 75.4152 13.724 1035 45.9353 1364.5 539.532
1243 0 80.2708 12.5575 1008 46.4236 1365 540.631
1244 0 77.2148 12.3811 956 47.7824 1364.5 536.867
1245 0 83.3113 11.331 944 46.7023 1364.9 537.189
1246 0 83.2554 13.5727 1130 45.3885 1364.92 537.629
1247 0 84.3904 12.8806 1087 46.4499 1365.27 536.097
1248 0 87.2361 12.4146 1083 48.3915 1366.49 534.633
1249 0 90.2634 13.0064 1174 47.9157 1366.59 534.855
1250 0 91.2652 12.2391 1117 48.7735 1365.94 531.753
1251 0 96.3597 12.775 1231 47.9927 1365.57 532.201
1252 0 99.234 13.5135 1341 47.9515 1365.97 528.657
1253 0 99.2005 12.7721 1267 48.8256 1365.69 529.523
1254 0 104.332 13.4762 1406 48.1714 1366.68 526.262
1255 0 104.238 12.0781 1259 49.8824 1365.88 522.985
1256 0 107.4 12.5047 1343 49.5607 1366.43 523.777
1257 0 113.275 12.7565 1445 49.2374 1366.82 519.885
1258 0 115.162 12.8862 1484 49.2527 1366.54 519.028
1259 0 117.325 13.0151 1527 49.2921 1365.87 513.504
1260 0 119.316 12.6723 1512 49.9048 1366.44 515.207
1261 1 69.1721 10.2932 712 48.7907 1366.52 542.628
1262 0 71.1698 10.8894 775 48.0645 1365.83 541.357
1263 0 73.2129 10.1212 741 48.4534 1365.78 542.723
1264 0 75.2546 12.0657 908 46.7048 1366.33 540.478
1265 0 77.1943 12.0087 927 46.7238 1366.4 541.697
1266 0 81.0968 11.924 967 45.8821 1367.42 538.43
1267 0 82.2335 11.1268 915 47.5355 1366.97 536.528
1268 0 85.2413 12.4588 1062 46.7326 1367.1 535.266
1269 0 90.2791 12.4392 1123 46.4417 1367.3 536.354
1270 0 93.2335 12.4848 1164 46.4553 1367.65 532.873
1271 0 98.2175 11.7596 1155 47.0753 1368.3 533.318
1272 0 96.2502 12.4987 1203 46.7332 1368.61 530.343
1273 0 100.222 12.612 1264 46.2413 1368.8 529.104
1274 0 102.332 11.7069 1198 47.1177 1369.1 525.535
1275 0 104.27 12.7841 1333 46.3053 1368.26 525.625
1276 0 108.303 11.8556 1284 46.6153 1369.14 525.798
1277 0 114.439 14.4793 1657 44.7242 1370.3 521.536
1278 0 113.303 12.5681 1424 46.427 1370.56 518.116
1279 0 120.385 12.6428 1522 45.9034 1370.67 519.703
1280 0 124.356 12.6331 1571 45.8848 1371.07 517.178
1281 0 127.275 12.9562 1649 45.8714 1370.84 513.973
1282 1 70.1922 12.0954 849 44.2815 1370.8 541.466
1283 0 71.3193 12.1987 870 44.7195 1371.43 540.246
1284 0 74.1727 11.8912 882 43.8084 1372.3 538.831
1285 0 76.182 11.0656 843 43.9502 1372.49 541.973
1286 0 79.2132 11.7657 932 44.3487 1372 538.529
1287 0 79.2783 10.9614 869 44.8999 1372.49 536.254
1288 0 82.1839 11.2553 925 44.7362 1372.98 536.526
1289 0 86.2984 11.101 958 44.9937 1372.89 532.279
1290 0 88.2625 11.9983 1059 44.7205 1373.06 532.393
1291 0 89.1966 12.3547 1102 44.9837 1372.69 530.377
1292 0 92.2275 11.6451 1074 45.2002 1372.86 532.767
1293 0 95.2505 11.727 1117 45.6688 1372.88 528.568
1294 0 97.2826 12.1604 1183 45.5943 1371.87 527.692
1295 0 102.201 13.0527 1334 45.4078 1372.4 524.319
1296 0 102.246 12.6851 1297 46.5551 1372.11 524.322
1297 0 107.276 13.5073 1449 45.7723 1372.64 523.645
1298 1 60.0804 6.84083 411 46.8954 1373.08 549.669
1299 0 62.11 8.98407 558 46.4642 1372.93 548.1
1300 0 65.1602 9.83729 641 46.7192 1373.24 542.293
1301 0 66.3455 10.5207 698 46.1719 1372.87 543.702
1302 0 65.0814 11.0323 718 45.5432 1373.2 541.943
1303 0 69.2575 11.1324 771 45.5071 1370.84 542.1
1304 0 70.3127 13.44 945 44.7354 1371.91 541.947
1305 0 73.0896 11.0276 806 46.7258 1371.77 540.321
1306 0 74.1757 12.4974 927 45.8479 1371.76 542.292
1307 0 78.3007 11.0727 867 47.4498 1371.8 539.332
1308 0 80.1791 12.2975 986 46.713 1371.59 538.189
1309 0 82.0646 12.6364 1037 47.0579 1371.6 534.905
1310 0 84.1565 12.8214 1079 47.5014 1371.45 536.134
1311 0 84.1494 12.0738 1016 48.7047 1371.09 534.667
1312 0 89.1549 13.4036 1195 48.4979 1371.27 530.302
1313 0 91.2443 12.1761 1111 49.0801 1370.63 530.286
1314 0 91.2443 12.198 1113 154.754 1368.61 530.321
1315 0 97.2957 13.3202 1296 48.3665 1370.11 528.633
1316 0 98.515 11.9779 1180 50.2941 1369.83 528.766
1317 0 102.206 12.5922 1287 49.4709 1369.73 526.382
1318 0 104.324 11.7902 1230 50.3301 1369.76 526.65
1319 0 108.35 13.198 1430 49.4811 1369.55 526.564
1320 0 112.523 12.1486 1367 50.3789 1368.46 525.751
1321 0 115.45 13.7808 1591 49.1232 1367.99 525.128
1322 0 119.482 13.8598 1656 49.2228 1367.87 523.443
1323 0 120.531 13.8719 1672 49.9258 1368.21 519.072
1324 0 125.215 13.9041 1741 49.645 1368.07 517.966
1325 1 74.3922 11.2512 837 48.7551 1367.76 545.593
1326 0 76.443 11.0801 847 49.5053 1367.12 541.485
1327 0 78.3537 11.2056 878 48.6856 1367.73 542.894
1328 0 80.2821 12.0824 970 48.2536 1367.29 540.542
1329 0 83.3577 12.7043 1059 47.9169 1367.44 540.526
1330 0 83.374 11.9102 993 48.7946 1367.59 536.557
1331 0 87.4706 13.6732 1196 47.2851 1367.47 536.594
1332 0 89.2397 12.1022 1080 48.05 1367.62 533.944
1333 0 91.26 12.5027 1141 48.2883 1366.98 534.029
1334 0 90.4977 12.4865 1130 49.7717 1367.62 532.743
1335 0 99.2988 12.0747 1199 49.0942 1367.72 532.148
1336 0 98.6302 12.9271 1275 48.4016 1367.93 529.209
1337 0 100.501 12.1094 1217 49.0181 1367.4 529.631
1338 0 104.394 13.4012 1399 47.6876 1367.25 528.445
1339 0 107.439 13.1796 1416 47.6907 1367.64 524.663
1340 0 111.493 13.8394 1543 46.7991 1367.52 523.463
1341 0 114.636 14.123 1619 46.6671 1367.7 520.597
1342 0 116.798 11.507 1344 48.3475 1368.86 518.51
1343 0 120.494 12.4322 1498 47.5267 1368.03 519.089
1344 1 68.4588 12.0656 826 44.5254 1368.83 543.967
1345 0 71.2003 10.5477 751 44.7696 1368.44 545.072
1346 0 71.1899 11.3359 807 45.1487 1369.14 544.509
1347 0 73.3481 11.8613 870 45.369 1367.48 540.594
1348 0 78.3574 12.9535 1015 44.3133 1366.57 539.286
1349 0 78.5295 12.3266 968 45.2645 1367.05 539.401
1350 0 79.2613 12.1118 960 45.8521 1366.4 539.31
1351 0 83.4258 13.0775 1091 45.1292 1367.07 540.022
1352 0 85.4726 11.103 949 47.6133 1366.82 537.836
1353 0 84.4022 11.1964 945 47.4413 1366.96 536.439
1354 0 86.7677 12.5047 1085 47.6396 1367 532.678
1355 0 88.4745 11.8678 1050 48.0476 1367.03 534.76
1356 0 91.6223 12.6279 1157 47.9793 1367.24 529.891
1357 0 92.8164 12.584 1168 48.5146 1367.31 528.837
1358 0 96.7849 12.192 1180 48.0144 1366.72 527.442
1359 0 99.9379 11.9174 1191 47.9622 1366.19 524.68
1360 0 102.608 11.6852 1199 48.3661 1366.66 523.131
1361 0 106.616 12.9624 1382 47.2945 1366.58 524.745
1362 0 108.739 12.1576 1322 48.2451 1366.65 524.543
1363 0 112.718 12.1453 1369 47.9963 1366.16 523.207
1364 1 59.381 8.97593 533 48.4878 1366.05 545.403
1365 0 64.6679 11.3658 735 45.8367 1366.39 545.478
1366 0 66.767 11.9071 795 48.0478 1366.34 543.805
1367 0 65.5296 10.9111 715 47.358 1366.12 542.2
1368 0 70.5885 12.41 876 45.492 1365.99 544.284
1369 0 71.5396 11.0149 788 47.7449 1365.9 542.982
1370 0 72.7085 11.553 840 47.7345 1366.14 543.16
1371 0 74.8703 11.9674 896 48.1886 1366.19 538.942
1372 0 77.6573 12.0272 934 48.2088 1366.24 539.776
1373 0 78.6792 13.3835 1053 47.5973 1366.57 539.694
1374 0 81.6523 12.8594 1050 47.9105 1366.85 538.44
1375 0 80.4101 12.9213 1039 48.7507 1366.38 537.802
1376 0 83.5633 12.302 1028 49.4776 1366.61 538.045
1377 0 87.6151 13.9702 1224 48.0768 1366.5 535.132
1378 0 90.5177 13.3565 1209 48.5831 1366.81 534.394
1379 0 92.4385 12.4407 1150 49.9957 1366.03 533.045
1380 0 95.4818 13.1543 1256 48.965 1366.61 534.223
1381 0 100.367 14.2576 1431 48.014 1366.58 531.907
1382 0 98.4174 12.6604 1246 46.9575 1366.38 531.071
1383 0 97.3396 13.2217 1287 47.4274 1366.69 531.321
1384 0 104.369 13.9217 1453 49.9174 1367.13 527.191
1385 0 108.381 14.0984 1528 48.1976 1366.57 525.367
1386 0 111.594 14.4452 1612 48.6663 1366.89 523.607
1387 0 117.398 15.4602 1815 47.0843 1366.99 525.203
1388 0 118.394 14.3166 1695 48.5575 1367.36 520.77
1389 0 123.407 16.1256 1990 47.0322 1367.51 519.593
1390 1 68.2149 11.7423 801 48.0287 1367.33 546.884
1391 0 68.149 10.9026 743 49.2328 1367.39 545.24
1392 0 73.1827 12.216 894 47.7159 1367.67 544.482
1393 0 69.2235 11.6723 808 50.271 1367.04 539.689
1394 0 72.1114 14.1586 1021 46.5064 1366.7 539.927
1395 0 78.3893 13.1013 1027 48.703 1366.97 542.64
1396 0 80.1785 13.9189 1116 47.9077 1367.54 541.626
1397 0 82.4233 14.5954 1203 47.611 1367.7 537.94
1398 0 84.225 12.621 1063 48.905 1367.74 537.966
1399 0 87.33 12.6188 1102 49.1497 1368.15 536.285
1400 0 88.2349 13.4074 1183 48.956 1368.58 533.313
1401 0 90.2553 13.3399 1204 48.9834 1368.89 533.587
1402 0 96.4455 13.7176 1323 48.1723 1369.17 534.909
1403 0 96.2434 13.3931 1289 49.5656 1369.64 529.968
1404 0 100.296 14.5071 1455 48.3643 1370.07 529.526
1405 0 102.214 13.5304 1383 49.6428 1370.21 526.818
1406 0 107.562 13.6572 1469 49.678 1370.52 524.284
1407 0 110.312 14.0782 1553 48.9929 1370.9 522.535
1408 0 111.342 14.8192 1650 48.8842 1371.19 518.358
1409 1 65.2876 10.0632 657 49.9574 1371.87 546.149
1410 0 66.4004 10.9638 728 50.5481 1371.16 542.758
1411 0 68.3652 11.6872 799 48.6646 1371.61 542.796
1412 0 70.2052 10.5263 739 48.7064 1371.53 544.907
1413 0 74.3065 12.6099 937 47.2209 1371.77 542.616
1414 0 75.3301 12.3058 927 48.3193 1371.85 540.249
1415 0 77.1659 13.0109 1004 48.1325 1372.04 540.298
1416 0 81.1979 12.4264 1009 48.2339 1371.95 537.266
1417 0 81.4314 12.8452 1046 48.5488 1372.52 532.56
1418 0 84.3014 11.8622 1000 49.469 1372.42 534.029
1419 0 88.3603 14.1466 1250 47.6304 1372.64 533.582
1420 0 89.4254 13.0724 1169 48.9786 1372.87 530.271
1421 0 91.2784 12.3797 1130 49.9195 1372.51 529.57
1422 0 94.2801 12.4841 1177 50.3636 1372.57 527.998
1423 0 98.3295 12.9463 1273 49.7329 1372.69 528.31
1424 0 101.281 13.6353 1381 49.4497 1372.25 525.518
1425 0 104.241 14.2555 1486 49.0942 1372.22 524.422
1426 0 106.32 14.099 1499 49.481 1371.72 523.656
1427 0 111.289 13.6312 1517 50.0185 1372.1 521.555
1428 0 111.257 13.3474 1485 50.6162 1372.05 520.787
1429 1 64.1489 9.85208 632 47.8449 1372.84 550.984
1430 0 65.0739 10.8031 703 48.4011 1371.64 546.236
1431 0 68.3367 13.1408 898 47.9098 1371.33 543.813
1432 0 70.5243 11.9108 840 48.3726 1370.02 543.3
1433 0 73.2553 13.1185 961 48.0416 1371.7 543.353
1434 0 71.1959 11.6299 828 51.3877 1371.22 540.227
1435 0 73.2039 12.8818 943 50.9247 1371.1 539.803
1436 0 76.2206 12.8837 982 51.1008 1370.89 538.814
1437 0 77.3753 12.2003 944 52.8284 1371.08 537.308
1438 0 81.3037 13.0498 1061 52.427 1370.77 536.001
1439 0 83.4099 13.0081 1085 52.5253 1370.61 533.785
1440 0 84.3643 11.9363 1007 53.429 1370.36 532.462
1441 0 88.6333 12.1738 1079 52.987 1370.5 530.915
1442 0 92.667 13.7374 1273 50.806 1370.19 530.873
1443 0 92.5326 12.709 1176 52.1207 1370.25 529.722
1444 0 96.651 13.4194 1297 51.9059 1370.32 528.105
1445 0 99.7179 14.3405 1430 50.5958 1370.26 527.543
1446 1 55.4548 10.3147 572 52.7675 1370.47 547.325
1447 0 59.5584 10.2756 612 53.134 1370.2 546.078
1448 0 64.5297 11.0957 716 51.3771 1369.09 546.119
1449 0 65.1 11.1674 727 51.0124 1369.5 544.34
1450 0 66.4162 11.4731 762 50.71 1369.28 544.303
1451 0 68.1763 11.969 816 50.1507 1369.4 544.788
1452 0 71.4603 12.9302 924 49.6028 1368.72 541.813
1453 0 71.4603 12.9582 926 157.39 1368.71 541.787
1454 0 74.2448 12.8629 955 50.3895 1368.45 540.736
1455 0 76.4223 12.1169 926 50.6825 1368.22 542.028
1456 0 78.6061 11.4877 903 52.0532 1367.99 538.161
1457 0 82.656 13.1751 1089 50.5207 1368.35 536.822
1458 0 83.5708 13.3898 1119 50.681 1367.82 534.853
1459 0 84.5633 12.1211 1025 52.1805 1368.21 534.535
1460 0 86.5273 12.7128 1100 51.5873 1368.16 531.696
1461 0 89.809 13.7625 1236 50.5016 1367.88 529.717
1462 0 91.6224 13.1409 1204 51.005 1367.67 528.696
1463 0 95.5189 12.7619 1219 51.324 1367.7 526.011
1464 0 98.5269 12.9812 1279 51.025 1366.95 525.235
1465 0 103.604 12.7022 1316 50.6558 1366.98 522.856
1466 0 102.375 12.8645 1317 51.085 1366.86 520.885
1467 0 108.329 13.0344 1412 50.7542 1366.52 519.049
1468 0 110.185 13.196 1454 49.8047 1366.28 521.451
1469 0 115.469 14.6533 1692 48.5928 1366.59 517.236
1470 0 117.247 13.1858 1546 49.8493 1366.14 514.398
1471 1 63.1357 10.4537 660 50.7576 1365.5 539.359
1472 0 68.1189 10.5257 717 47.463 1366.27 541.389
1473 0 68.368 11.1602 763 49.0118 1366.27 538.98
1474 0 70.2757 11.526 810 48.1395 1366.54 538.274
1475 0 75.3734 12.8693 970 45.2 1366.16 538.658
1476 0 77.409 11.9883 928 46.1045 1365.67 535.676
1477 0 79.4091 12.7189 1010 45.1802 1365.39 536.259
1478 0 81.2888 12.2403 995 45.8 1365.32 532.413
1479 0 84.4228 11.3595 959 46.7404 1365.38 531.66
1480 0 86.4699 13.0681 1130 45.5894 1366.11 529.725
1481 0 90.6023 13.6531 1237 44.8133 1366.38 532.088
1482 0 90.3076 13.0222 1176 45.9107 1366.55 529.066
1483 0 95.4774 13.6053 1299 45.5473 1366.19 527.24
1484 0 87.2293 11.4067 995 49.1799 1365.86 518.632
1485 1 61.4218 9.47546 582 46.311 1366.34 547.351
1486 0 59.3302 10.0623 597 46.8174 1366.05 544.719
1487 0 60.3434 9.79395 591 46.6261 1366.2 545.709
1488 0 57.1929 10.281 588 46.898 1365.81 544.005
1489 0 60.2228 10.9261 658 46.3116 1365.72 543.155
1490 0 60.1751 11.749 707 45.6902 1366.16 540.881
1491 0 67.2131 12.0066 807 45.5428 1366.82 546.626
1492 0 74.1319 14.2988 1060 42.9934 1366.92 544.807
1493 0 70.3251 13.2527 932 45.3841 1366.5 541.737
1494 0 63.1733 10.0834 637 46.7237 1366.59 538.554
1495 1 76.2385 13.2741 1012 44.6166 1366.84 534.691
1496 0 78.2197 12.3754 968 45.6395 1368.21 537.96
1497 0 80.4868 13.0829 1053 45.2023 1368.05 538.852
1498 0 80.2914 12.6664 1017 45.6814 1367.65 535.763
1499 0 82.1906 12.3494 1015 47.1507 1367.66 535.787
1500 0 86.2428 13.4504 1160 46.4103 1367.67 535.855
1501 0 88.4466 12.4934 1105 47.1683 1368.19 535.4
1502 0 93.6596 13.7946 1292 46.0062 1367.97 533.388
1503 0 94.3712 14.4853 1367 45.8683 1368.53 531.358
1504 0 94.2922 13.2355 1248 47.5697 1368.31 529.704
1505 0 97.3836 13.7497 1339 47.1471 1368.54 528.276
1506 0 101.18 13.0856 1324 47.6571 1368.77 528.225
1507 0 105.237 14.5197 1528 46.8527 1367.57 521.878
1508 0 106.239 14.6275 1554 47.2773 1368.54 519.824
1509 0 111.347 13.8755 1545 47.2155 1368.96 522.324
1510 0 111.177 14.1757 1576 47.8325 1369.38 520.186
1511 0 116.4 13.1358 1529 48.6547 1369.74 520.608
1512 0 118.375 14.4202 1707 48.0574 1369.65 517.568
1513 0 122.227 14.4894 1771 48.3506 1370.01 518.714
1514 0 124.286 13.5253 1681 49.398 1370.25 517.544
1515 0 127.255 13.5869 1729 49.8242 1370.48 512.249
1516 0 135.266 14.6674 1984 48.6689 1370.42 512.645
1517 1 79.3014 10.2899 816 49.9522 1369.94 535.51
1518 0 80.2146 11.8682 952 48.8267 1369.88 535.276
1519 0 82.3315 11.1622 919 49.8052 1370.06 533.358
1520 0 83.4901 11.6181 970 49.9412 1370.49 533.34
1521 0 86.4705 12.9408 1119 49.1653 1370.35 530.208
1522 0 90.3856 13.0994 1184 48.4519 1370.57 531.334
1523 0 93.692 12.1995 1143 49.1619 1370.13 529.438
1524 0 97.7532 14.0865 1377 47.703 1371.03 527.644
1525 0 100.537 13.4776 1355 48.0561 1371.23 526.489
1526 0 103.771 12.8071 1329 48.9473 1371.43 523.178
1527 0 104.597 11.4535 1198 49.7738 1371.48 523.661
1528 0 110.733 12.9952 1439 48.6623 1371.61 521.117
1529 0 111.45 12.7232 1418 48.9866 1371.3 519.348
1530 0 116.454 13.5075 1573 47.9638 1371.42 517.272
1531 0 116.454 13.5247 1575 160.474 1370.42 517.385
1532 1 68.5546 10.0941 692 49.5159 1371.09 540.694
1533 0 69.543 10.3533 720 168.185 1373.05 541.218
1534 0 73.3789 11.5701 849 48.5783 1370.7 539.766
1535 0 76.7042 11.3423 870 48.3391 1370.56 537.906
1536 0 78.4175 12.3824 971 47.4779 1370.61 536.378
1537 0 80.1755 11.9114 955 47.5613 1371.11 534.597
1538 0 83.4089 12.5526 1047 47.5702 1370.94 532.399
1539 0 84.3362 11.4304 964 48.7116 1370.61 533.055
1540 0 87.6969 12.0643 1058 48.345 1370.64 529.652
1541 0 89.4416 12.824 1147 48.048 1370.4 529.214
1542 0 91.4165 11.639 1064 49.4192 1370.21 525.243
1543 0 96.5284 10.888 1051 49.3682 1370.2 526.53
1544 0 97.382 11.8811 1157 49.0372 1370.26 525.202
1545 0 98.3112 12.196 1199 48.9033 1370.19 523.522
1546 0 99.2798 13.0641 1297 48.4002 1369.81 526.256
1547 0 104.236 12.913 1346 48.9264 1369.73 520.239
1548 0 107.302 12.8982 1384 49.3418 1370 517.576
1549 0 108.359 13.6213 1476 48.3069 1369.89 519.956
1550 0 113.235 13.5028 1529 48.8855 1369.73 515.555
1551 0 117.312 13.0762 1534 49.4817 1370.1 515.106
1552 0 121.327 13.5913 1649 49.4512 1369.36 513.427
1553 0 120.352 12.6213 1519 50.919 1369.49 510.324
1554 0 128.36 14.3347 1840 49.2255 1369.64 512.751
1555 0 132.397 13.5048 1788 50.8339 1369.29 509.088
1556 1 79.1065 9.72107 769 51.0767 1368.93 536.118
1557 0 81.1504 10.4867 851 50.5476 1369.54 537.314
1558 0 83.2941 11.3093 942 50.0934 1370.38 534.782
1559 0 82.1541 10.5046 863 50.1124 1370.41 534.518
1560 0 85.1928 11.9846 1021 49.4329 1369.93 534.488
1561 0 86.1896 12.5769 1084 50.1965 1370.17 529.679
1562 0 89.0731 11.8554 1056 51.3419 1370.78 531.681
1563 0 91.1116 12.7975 1166 51.2479 1370.69 530.435
1564 0 94.1588 12.8294 1208 51.3808 1370.8 527.2
1565 0 97.3993 13.6962 1334 50.6709 1369.85 526.24
1566 0 99.1155 11.9759 1187 52.4743 1370.07 526.935
1567 0 103.356 13.0229 1346 51.7979 1369.82 524.417
1568 0 108.165 12.3793 1339 51.7961 1369.82 523.046
1569 0 111.141 13.1724 1464 51.2193 1369.98 519.617
1570 0 115.238 12.4265 1432 51.8554 1369.63 519.6
1571 0 117.316 13.4593 1579 50.1938 1369.55 518.125
1572 0 119.335 13.7764 1644 50.1983 1369.4 516.675
1573 0 122.304 13.0986 1602 51.0181 1369.15 514.135
1574 0 127.389 13.8316 1762 49.849 1369.26 514.719
1575 0 129.26 13.3839 1730 50.6942 1368.55 511.724
1576 1 77.1684 11.1185 858 50.0501 1368.88 538.985
1577 0 79.3105 10.9443 868 50.4758 1368.11 536.826
1578 0 84.4435 11.9014 1005 49 1367.67 535.841
1579 0 82.4364 11.985 988 49.8583 1367.44 532.298
1580 0 84.2449 11.6446 981 50.6952 1367.87 533.697
1581 0 88.3662 12.1313 1072 50.556 1367.53 530.091
1582 0 91.3013 12.4095 1133 50.1342 1367.36 532.162
1583 0 92.3292 12.4987 1154 50.4047 1367.91 529.926
1584 0 98.204 12.4435 1222 49.7381 1366.68 530.892
1585 0 97.3942 11.8898 1158 50.709 1366.72 527.191
1586 0 103.449 12.7019 1314 49.9787 1366.14 526.201
1587 0 105.446 12.9166 1362 49.9134 1366.24 524.11
1588 0 106.338 12.5731 1337 50.8556 1365.84 519.674
1589 0 107.348 11.9984 1288 51.5419 1365.84 521.187
1590 0 114.361 12.583 1439 50.8429 1366.05 518.343
1591 0 116.406 13.2897 1547 50.256 1365.7 517.57
1592 0 117.513 13.7687 1618 50.6391 1365.93 513.325
1593 0 123.273 13.2876 1638 50.8791 1366.02 512.881
1594 0 125.375 13.1765 1652 50.8759 1366.4 510.473
1595 0 128.323 13.6921 1757 50.6198 1367 510.016
1596 0 131.189 13.6749 1794 50.8066 1367.06 509.526
1597 0 133.261 12.4868 1664 52.3143 1367.71 506.189
1598 0 136.188 13.3272 1815 51.7576 1367.83 505.781
1599 0 142.306 13.1196 1867 51.7702 1367.89 506.254
1600 0 146.356 13.9796 2046 51.4638 1367.87 502.147
1601 0 150.289 14.1528 2127 51.7626 1367.03 498.57
1602 0 153.261 13.7413 2106 52.8029 1367.26 497.19
1603 0 158.427 13.3626 2117 53.2508 1367.18 494.547
1604 0 163.438 14.2439 2328 52.6714 1367.57 491.211
1605 0 171.273 14.0711 2410 52.5423 1367.8 488.404
1606 0 176.259 14.0986 2485 52.7964 1368.09 484.512
1607 0 175.377 12.2821 2154 54.5441 1368.43 487.981
1608 1 188.326 14.1139 2658 52.7908 1368.61 479.984
1609 0 194.399 14.5989 2838 52.4535 1368.7 478.354
1610 0 201.393 15.939 3210 51.2003 1368.68 474.613
1611 0 204.25 15.0257 3069 52.5367 1368.77 467.699
1612 0 211.446 15.3987 3256 52.5147 1368.87 470.444
1613 0 216.381 15.5698 3369 52.2036 1369.17 465.809
1614 0 223.28 14.7707 3298 52.9491 1369.16 460.456
1615 1 54.0804 7.71074 417 50.3813 1369.39 550.921
1616 0 57.057 9.60444 548 48.9124 1369.9 549.022
1617 0 58.1217 10.1511 590 49.4627 1370.78 549.898
1618 0 57.0951 11.7523 671 46.5276 1370.54 548.639
1619 0 59.164 11.5611 684 46.9415 1370.91 547.276
1620 0 60.2394 11.7033 705 46.6468 1371.16 547.865
1621 0 61.1178 10.8479 663 48.0543 1370.94 546.124
1622 0 61.0578 10.7767 658 48.5517 1370.72 545.86
1623 0 65.2095 11.21 731 48.1436 1371.54 543.142
1624 0 66.2155 11.2813 747 47.7269 1371.81 544.625
1625 0 66.1568 11.4727 759 48.0198 1371.77 541.126
1626 0 68.0688 10.269 699 49.0501 1371.68 540.253
1627 0 70.0472 11.2496 788 48.3668 1372.11 538.797
1628 0 73.2259 12.1815 892 47.38 1372.27 538.197
1629 0 78.1822 11.2174 877 48.2691 1372.68 538.66
1630 0 75.095 10.6931 803 49.2677 1372.83 537.112
1631 0 78.1033 11.472 896 48.5558 1372.47 534.212
1632 0 79.11 11.2375 889 49.378 1372.37 532.652
1633 0 83.152 12.0502 1002 48.502 1372.13 533.451
1634 0 85.1914 12.0083 1023 48.7116 1372.67 529.154
1635 0 88.0923 11.6469 1026 48.616 1372.72 531.362
1636 0 90.0839 12.7992 1153 48.438 1373.11 527.537
1637 0 92.2505 12.607 1163 48.8315 1373.35 527.793
1638 0 94.2213 12.1204 1142 49.4781 1373.32 526.947
1639 0 97.1835 10.9689 1066 50.8311 1373.88 526.7
1640 1 57.0999 10.4203 595 49.884 1373.43 545.946
1641 0 59.0256 11.5374 681 48.5991 1373.54 543.514
1642 0 61.1423 10.4837 641 48.8674 1373.66 544.905
1643 0 61.0365 10.7804 658 49.8556 1373.37 545.602
1644 0 64.1527 11.2856 724 49.9075 1373.57 543.834
1645 0 65.3032 12.2046 797 47.5784 1373.06 544.572
1646 0 64.1357 12.0838 775 48.3045 1372.6 545.489
1647 0 65.1341 12.1288 790 150.51 1371.61 545.101
1648 0 70.201 12.336 866 48.8707 1372.77 542.557
1649 0 70.1016 11.2123 786 50.416 1372.59 542.79
1650 0 71.1293 12.0625 858 50.7051 1372.45 539.641
1651 0 73.0672 12.6733 926 50.405 1372.48 540.636
1652 0 76.2544 12.5239 955 50.8157 1372.63 539.868
1653 0 76.2511 12.2621 935 51.8064 1372.28 537.827
1654 0 77.2494 12.6732 979 51.1032 1372.7 538.71
1655 0 80.158 13.698 1098 50.7486 1371.8 537.446
1656 0 83.1873 13.1871 1097 50.938 1371.8 535.96
1657 0 86.2432 13.7054 1182 50.0262 1371.68 535.753
1658 0 87.3222 12.0473 1052 51.4753 1371.11 535.957
1659 1 52.0932 11.0571 576 51.3802 1371.26 549.786
1660 0 53.1277 9.95715 529 51.4707 1371.22 550.493
1661 0 54.0663 9.93225 537 51.3073 1371.01 550.372
1662 0 56.1992 11.7084 658 49.9529 1370.65 550.038
1663 0 59.1099 12.3837 732 49.1421 1371.01 547.642
1664 0 61.1762 11.2789 690 49.3087 1371.32 549.597
1665 0 61.1612 11.7722 720 50.0958 1371.7 548.332
1666 0 60.1139 11.7776 708 50.5014 1371.17 545.918
1667 0 65.1693 12.2143 796 50.201 1370.61 543.814
1668 0 65.0704 11.5413 751 50.8189 1371.25 544.477
1669 0 66.0659 12.2756 811 50.3958 1371.21 542.896
1670 0 68.2342 11.7536 802 50.0661 1370.97 542.488
1671 0 73.1816 13.2547 970 48.2289 1370.94 541.404
1672 0 74.1961 13.343 990 48.2505 1370.64 542.042
1673 0 74.115 12.1028 897 49.8227 1370.49 540.03
1674 0 78.3053 12.8599 1007 48.4995 1370.71 538.164
1675 0 79.2081 12.4482 986 49.2789 1370.73 538.301
1676 0 82.1802 12.4969 1027 49.1412 1370.4 536.817
1677 0 84.2883 12.2437 1032 48.9845 1370.38 537.189
1678 0 88.271 13.1867 1164 48.4708 1370.03 535.16
1679 0 90.2927 13.5891 1227 48.0668 1370.44 533.649
1680 0 92.1323 13.003 1198 48.4249 1370.61 533.629
1681 0 94.2874 12.5043 1179 49.212 1370.22 530.824
1682 0 97.1844 13.4178 1304 48.6618 1369.41 529.61
1683 0 100.219 13.4406 1347 49.0883 1369.31 526.785
1684 0 103.483 12.4465 1288 48.6203 1369.73 525.271
1685 1 59.1155 11.2492 665 47.5203 1369.8 547.248
1686 0 62.1297 11.4277 710 47.1239 1369.66 547.79
1687 0 63.1338 11.5944 732 47.3497 1369.21 546.399
1688 0 64.1365 11.725 752 47.5545 1368.92 543.074
1689 0 67.2377 10.976 738 47.6897 1369.05 543.557
1690 0 70.0899 12.3556 866 46.4192 1368.52 543.733
1691 0 71.0982 11.9553 850 47.0635 1368.65 543.04
1692 0 74.218 12.6789 941 46.8278 1368.32 541.01
1693 0 77.2695 12.1264 937 47.1227 1368.46 540.314
1694 0 80.2361 12.7873 1026 46.8372 1368.74 539.404
1695 0 82.2378 11.9167 980 47.3347 1368.22 539.386
1696 0 84.3028 12.4551 1050 47.2752 1368.24 538.263
1697 0 83.2271 10.4293 868 48.9217 1367.71 537.933
1698 0 87.3217 12.2764 1072 47.5653 1367.61 534.226
1699 0 91.1811 12.4039 1131 47.3422 1367.51 533.215
1700 1 54.0726 9.69068 524 47.8779 1367.77 552.513
1701 0 56.0823 11.5188 646 46.305 1367.2 553.101
1702 0 57.0555 11.1821 638 46.6332 1366.98 553.102
1703 0 60.0607 11.555 694 46.5403 1367.07 550.269
1704 0 59.0221 10.7926 637 49.5024 1367.3 549.331
1705 0 64.1166 12.6332 810 47.2185 1366.99 549.906
1706 0 62.0302 11.8007 732 48.9604 1367.35 546.474
1707 0 62.084 11.3556 705 49.1603 1367.25 546.732
1708 0 65.1346 10.7316 699 48.5851 1367.1 546.979
1709 0 66.0708 11.3817 752 48.508 1367.02 543.923
1710 0 69.2535 11.1908 775 48.4348 1367.21 544.274
1711 0 72.1118 11.7318 846 47.7742 1367.33 543.009
1712 0 72.139 11.4917 829 48.2786 1367.16 543.023
1713 0 76.14 11.6627 888 48.0552 1367.45 541.908
1714 0 79.0901 11.4553 906 48.2958 1367.37 540.049
1715 0 81.1477 11.5838 940 48.0926 1367.43 539.75
1716 0 82.0758 11.2701 925 49.5016 1367.64 536.585
1717 0 85.0611 11.3565 966 49.529 1368.09 535.27
1718 0 91.1968 14.1123 1287 46.4577 1368.55 534.323
1719 0 91.1236 11.5448 1052 48.6312 1368.08 533.637
1720 0 93.1909 13.027 1214 47.4168 1368.32 531.1
1721 0 98.2899 13.1041 1288 47.1599 1368.26 531.995
1722 0 100.433 14.099 1416 46.5388 1368.24 531.715
1723 0 99.3465 12.4514 1237 48.5036 1368.72 528.973
1724 1 59.1752 9.7676 578 47.9948 1368.96 549.609
1725 0 61.3143 11.1556 684 46.8874 1369.16 551.27
1726 0 64.3005 11.6795 751 46.4687 1369.11 548.507
1727 0 65.1922 12.1027 789 46.4018 1369.05 547.21
1728 0 68.1433 12.2829 837 47.313 1369.2 546.07
1729 0 72.0965 13.2739 957 45.9979 1369.44 544.892
1730 0 73.1826 14.1427 1035 45.1498 1369.7 543.678
1731 0 74.1268 12.8294 951 45.6067 1370.25 544.359
1732 0 78.1612 13.1267 1026 45.2359 1369.53 541.824
1733 0 78.2387 12.6408 989 45.6279 1369.85 540.609
1734 0 80.2169 13.5009 1083 45.4478 1370.32 539.7
1735 0 82.3387 12.5093 1030 47.3029 1370.37 538.021
1736 0 85.1649 12.4699 1062 48.0725 1370.42 538.056
1737 0 87.2103 12.2692 1070 48.6168 1370.66 536.437
1738 0 89.2106 12.8012 1142 48.5946 1370.55 531.884
1739 0 92.3048 12.7946 1181 47.8645 1370.55 533.588
1740 0 96.2388 13.8198 1330 46.6887 1370.66 532.171
1741 0 98.2829 13.6545 1342 46.3159 1372.26 530.097
1742 0 101.14 11.9142 1205 49.4456 1372.04 525.222
1743 0 103.158 13.6393 1407 47.8785 1372.34 526.387
1744 0 106.191 13.1461 1396 48.2564 1372.78 524.655
1745 1 63.1703 11.0178 696 47.2802 1372.77 548.325
1746 0 64.0658 12.175 780 46.8782 1373.29 546.215
1747 0 64.0737 11.4868 736 48.0272 1373.14 544.609
1748 0 68.2137 12.6954 866 46.7506 1372.55 544.643
1749 0 69.1733 11.3483 785 47.5389 1373.08 543.397
1750 0 72.2434 13.2054 954 46.3836 1373.28 543.296
1751 0 74.115 13.1417 974 47.5092 1373.44 540.072
1752 0 74.1596 12.6484 938 48.4307 1373.55 538.946
1753 0 78.2286 12.9109 1010 46.8752 1373.77 540.564
1754 0 80.0945 12.8224 1027 47.2434 1373.38 538.887
1755 0 80.0795 12.5375 1004 47.8357 1373.58 537.773
1756 0 82.1627 12.7065 1044 47.9023 1372.99 535.852
1757 0 87.1127 13.385 1166 47.1321 1373.15 533.882
1758 0 89.1926 12.8822 1149 47.3821 1373.33 533.922
1759 0 91.2357 13.9529 1273 46.7486 1373.45 531.743
1760 0 94.2054 12.5046 1178 48 1373.45 531.801
1761 0 96.1016 13.0175 1251 47.3725 1373.9 530.119
1762 0 99.3785 13.5744 1349 47.2869 1374.15 527.891
1763 0 103.225 14.1439 1460 46.4753 1374.13 527.608
1764 0 107.217 14.1116 1513 46.4428 1373.96 523.534
1765 0 109.507 13.6886 1499 46.8392 1374.03 521.41
1766 0 109.358 12.3356 1349 48.3721 1374.05 521.612
1767 1 63.0539 13.0365 822 46.5608 1374.2 544.454
1768 0 67.0909 12.878 864 45.7257 1374.09 545.351
1769 0 67.0814 12.7159 853 46.1383 1373.65 542.416
1770 0 66.066 13.1081 866 46.4827 1372.94 542.355
1771 0 71.067 13.635 969 45.7606 1373.16 542.507
1772 0 70.0768 12.5434 879 48.1604 1372.38 541.669
1773 0 74.1507 13.6209 1010 47.6376 1372.53 541.521
1774 0 76.1524 13.8932 1058 47.9348 1372.58 539.991
1775 0 77.159 13.2972 1026 49.2953 1372.38 539.688
1776 0 80.2969 13.475 1082 47.8558 1372.09 538.281
1777 0 79.1047 12.9322 1023 49.0645 1371.99 536.627
1778 0 84.162 13.5334 1139 48.6804 1372.13 536.478
1779 0 85.2656 11.9861 1022 50.0724 1371.16 534.147
1780 0 90.4724 13.938 1261 48.0309 1371.5 532.816
1781 0 93.2533 13.7797 1285 47.7198 1371.87 532.082
1782 1 50.0567 10.6679 534 48.3127 1371.49 552.478
1783 0 52.0814 11.9812 624 47.4391 1371.35 550.865
1784 0 54.0945 13.4579 728 46.6662 1370.95 549.882
1785 0 57.187 12.9925 743 46.6285 1370.94 549.96
1786 0 57.2179 13.0204 745 46.749 1370.97 549.356
1787 0 59.2397 12.4747 739 47.2882 1370.9 548.23
1788 0 59.0733 13.187 779 46.9589 1370.98 548.85
1789 0 62.149 12.8401 798 47.2494 1370.91 547.03
1790 0 62.0897 13.3517 829 47.3896 1370.36 545.347
1791 0 64.2244 12.83 824 47.9381 1370 543.6
1792 0 66.2188 12.8966 854 47.4098 1370.63 543.472
1793 0 69.2874 12.6286 875 47.5029 1370.75 544.046
1794 0 71.2902 12.8068 913 47.3735 1371.34 542.246
1795 0 72.3319 12.1385 878 47.664 1370.66 542.505
1796 0 76.3896 13.5621 1036 46.0782 1370.64 541.308
1797 0 76.2411 12.6966 968 47.6074 1370.52 539.615
1798 0 79.1354 13.1547 1041 46.9817 1370.11 539.736
1799 0 82.292 12.6136 1038 47.659 1369.73 538.245
1800 0 85.3024 14.7006 1254 45.7337 1370.1 537.15
1801 0 87.5719 14.4567 1266 45.9376 1370.13 538.073
1802 0 91.5089 13.8675 1269 46.2593 1370.1 535.63
1803 0 95.1936 14.3077 1362 45.699 1370.39 534.017
1804 0 99.3238 14.6189 1452 45.6715 1370.25 532.002
1805 0 99.3418 14.0022 1391 46.3472 1369.97 529.551
1806 0 102.298 14.6045 1494 45.7329 1370.04 529.244
1807 0 107.312 13.3536 1433 46.5401 1370.06 527.371
1808 0 108.439 12.5877 1365 47.2557 1370.29 525.1
1809 0 113.292 14.0081 1587 45.8544 1369.26 526.815
1810 0 116.294 13.999 1628 46.0344 1369.53 524.154
1811 1 69.2322 11.5698 801 46.4095 1368.96 547.634
1812 0 68.1664 13.3203 908 45.8084 1368.55 547.152
1813 0 68.1422 11.4467 780 47.259 1368.72 546.951
1814 0 72.242 12.9841 938 45.9147 1368.51 545.459
1815 0 76.2311 13.6165 1038 45.0164 1368.73 545.975
1816 0 76.4382 13.6189 1041 46.0259 1368.57 540.218
1817 0 81.2247 12.964 1053 46.1662 1368.8 542.423
1818 0 80.3379 12.8582 1033 47.0571 1368.55 538.69
1819 0 86.2627 13.656 1178 46.247 1368.77 537.52
1820 0 86.2461 13.4615 1161 47.2524 1369.32 535.869
1821 0 90.3285 13.3623 1207 47.5104 1369.47 533.598
1822 0 92.2187 13.8041 1273 47.26 1369.29 534.085
1823 0 97.3585 14.4004 1402 46.4522 1369.88 534.238
1824 0 98.3538 13.8886 1366 47.6823 1369.97 532.199
1825 0 101.379 14.9044 1511 46.7796 1370.09 531.032
1826 0 101.27 13.0246 1319 49.1433 1369.97 528.295
1827 0 108.545 14.7773 1604 47.1178 1370.13 528.612
1828 0 111.273 14.8914 1657 47.7115 1370.23 522.83
1829 1 61.0978 12.0463 736 48.0897 1370.58 548.864
1830 0 60.127 11.4923 691 49.3329 1370.59 548.828
1831 0 64.2565 12.3412 793 48.4678 1370.35 545.788
1832 0 66.074 12.6071 833 48.7407 1371.1 544.796
1833 0 69.1879 14.1065 976 48.749 1370.83 543.879
1834 0 73.0913 14.0783 1029 48.2517 1371.13 544.671
1835 0 73.0967 14.9801 1095 48.3918 1371.29 543.258
1836 0 74.2914 12.8817 957 50.7691 1371.69 540.745
1837 0 78.0922 13.4456 1050 49.8562 1371.86 542.088
1838 0 80.1585 13.7478 1102 49.7777 1372.18 540.728
1839 0 83.1227 13.7387 1142 50.0412 1372.36 537.856
1840 0 84.2048 13.6453 1149 50.7015 1372.3 535.666
1841 0 89.284 14.2915 1276 50.3103 1372.72 534.684
1842 0 89.183 13.8367 1234 51.2374 1372.85 533.729
1843 0 93.1274 14.1419 1317 51.0334 1372.96 533.446
1844 0 96.1721 14.3285 1378 51.3208 1373.57 530.24
1845 0 99.1989 13.6998 1359 52.2377 1373.64 528.769
1846 0 100.14 13.7208 1374 52.1194 1373.73 530.431
1847 0 106.203 13.9168 1478 52.1367 1373.73 524.752
1848 0 109.165 14.1071 1540 52.0013 1374 522.994
1849 0 114.192 13.7401 1569 51.7533 1374.11 524.871
1850 0 116.189 13.4866 1567 52.5073 1373.78 521.91
1851 1 64.0736 12.6885 813 52.5203 1374.25 544.577
1852 0 66.0223 13.7681 909 51.9208 1374.48 543.362
1853 0 66.0616 14.0929 931 50.6488 1374.9 542.401
1854 0 70.0852 14.0401 984 50.3079 1375 541.266
1855 0 71.0837 13.5193 961 50.7804 1374.42 541.509
1856 0 75.0857 13.9973 1051 50.6394 1374.08 538.993
1857 0 77.1136 14.6667 1131 49.6994 1373.55 537.181
1858 0 80.2163 13.9498 1119 50.3342 1373.75 537.776
1859 0 83.203 15.5764 1296 48.9877 1373.45 536.686
1860 0 82.2316 14.4835 1191 50.6919 1373.12 534.971
1861 0 87.1026 15.3038 1333 49.991 1373.26 533.334
1862 0 89.2724 15.1335 1351 50.3708 1373.31 531.16
1863 0 92.2148 14.8783 1372 50.4898 1373.4 530.251
1864 0 93.2299 14.6305 1364 51.1532 1372.68 528.658
1865 0 97.1657 15.8904 1544 50.1256 1373 525.678
1866 0 99.1761 14.9431 1482 51.3988 1372.39 526.231
1867 0 103.26 15.5529 1606 50.4776 1372.66 525.96
1868 0 103.281 14.7171 1520 52.0671 1372.87 524.585
1869 0 107.362 15.3034 1643 51.2526 1372.55 523.557
1870 0 111.19 15.5409 1728 51.0336 1372.45 520.705
1871 1 65.2881 12.1768 795 52.7497 1372.08 543.112
1872 0 68.1021 14.258 971 50.447 1371.87 543.729
1873 0 68.2105 14.3966 982 51.8462 1371.24 540.034
1874 0 71.3454 14.7872 1055 51.6626 1371.06 538.796
1875 0 74.2964 15.9362 1184 50.5997 1370.11 538.247
1876 0 77.3601 15.6411 1210 50.7479 1370.59 536.817
1877 0 78.4674 15.1655 1190 51.2109 1370.21 536.29
1878 0 81.1213 14.4722 1174 51.833 1370.53 536.373
1879 0 83.436 16.7554 1398 50.0358 1371.04 537.212
1880 0 86.4355 15.3756 1329 51.4033 1370.54 535.292
1881 0 89.3147 15.3054 1367 52.2063 1370.14 531.8
1882 0 91.5419 15.807 1447 51.7588 1370.06 533.314
1883 0 95.6524 15.4309 1476 51.8557 1369.99 533.588
1884 0 97.6362 15.2505 1489 52.6696 1370.1 530.186
1885 0 102.085 15.0757 1539 53.0949 1369.91 529.136
1886 0 103.353 16.1969 1674 52.5699 1369.78 525.022
1887 0 107.031 14.622 1565 53.9335 1369.65 526.984
1888 0 110.667 15.4066 1705 52.7021 1369.54 529.63
1889 0 113.423 15.7728 1789 52.9055 1369.79 526.018
1890 0 117.702 14.953 1760 53.8693 1368.91 522.587
1891 0 119.372 14.4925 1730 54.5965 1369.02 523.634
1892 0 123.987 15.9613 1979 53.331 1369.45 521.068
1893 0 128.837 15.896 2048 53.6226 1369.01 516.462
1894 0 131.595 15.73 2070 53.8507 1369.14 515.023
1895 0 137.774 15.8012 2177 53.3927 1368.63 516.328
1896 1 64.4191 14.5454 937 55.5251 1369.23 546.864
1897 0 68.7628 14.7173 1012 55.0563 1369.15 546.261
1898 0 71.7086 14.6426 1050 55.3952 1369.47 544.995
1899 0 74.2313 16.2061 1203 53.8911 1368.7 543.657
1900 0 76.8542 15.3668 1181 54.5986 1368.56 543.322
1901 0 82.1063 16.4056 1347 53.366 1368.21 540.367
1902 0 82.7757 14.7507 1221 54.9746 1368.29 541.084
1903 0 85.7016 15.484 1327 55.0211 1367.98 538.672
1904 0 90.3924 16.5722 1498 53.3652 1367.53 538.806
1905 0 90.2696 17.0268 1537 53.9805 1367.58 534.556
1906 0 96.2626 15.5824 1500 54.8687 1367.4 536.019
1907 0 99.0555 17.4044 1724 53.1061 1367.92 534.327
1908 0 99.5665 15.929 1586 55.2226 1367.91 533.789
1909 0 103.05 16.8365 1735 54.5084 1367.54 531.383
1910 0 106.267 16.8632 1792 54.4347 1367.73 530.556
1911 0 108.366 16.3612 1773 55.577 1367.32 530.645
1912 0 112.274 15.9164 1787 55.9882 1367.14 529.458
1913 0 115.513 15.7212 1816 56.875 1367.19 526.294
1914 0 116.454 17.1398 1996 56.024 1367.23 523.631
1915 0 122.589 16.225 1989 56.8728 1366.86 523.403
1916 0 125.467 17.407 2184 56.0801 1367.34 522.115
1917 0 126.473 15.9085 2012 57.9011 1366.81 523.022
1918 0 132.335 16.6169 2199 58.2142 1366.85 519.14
1919 0 135.679 15.3745 2086 59.7411 1366.79 520.377
1920 0 138.59 16.2061 2246 59.6167 1367.77 514.039
1921 0 142.653 16.3614 2334 59.7318 1367.22 512.455
1922 0 148.705 17.5247 2606 58.4413 1366.92 510.381
1923 0 151.427 17.2954 2619 59.2658 1366.89 510.901
1924 1 40.4688 15.7158 636 61.6572 1366.78 562.728
1925 0 42.2219 15.8922 671 61.6393 1366.26 559.89
1926 0 40.8174 16.5371 675 61.1659 1366.11 561.046
1927 0 44.1036 16.9374 747 59.4993 1365.74 561.194
1928 0 42.1111 15.6491 659 62.2473 1366.1 559.405
1929 0 42.7913 16.4987 706 61.3669 1366.2 559.181
1930 0 45.986 17.2444 793 59.6431 1366.48 559.324
1931 0 49.7107 17.6622 878 58.2312 1366.71 558.695
1932 0 50.537 16.5028 834 59.7554 1366.46 557.116
1933 0 52.7662 16.2225 856 59.9147 1366.56 556.249
1934 0 54.0299 16.861 911 59.2195 1366.44 555.441
1935 0 56.8256 16.7178 950 58.8168 1366.76 555.805
1936 0 57.6871 16.8149 970 59.2155 1366.23 553.935
1937 0 59.6509 15.9763 953 59.7324 1366.43 553.124
1938 1 30.9105 15.6905 485 57.4557 1366.13 567.315
1939 0 31.6669 16.9578 537 57.8566 1366.59 566.387
1940 0 30.7976 13.7349 423 61.6265 1366.67 565.638
1941 0 34.6054 17.6562 611 56.9722 1366.86 566.7
1942 0 32.3669 16.8691 546 59.2344 1366.57 565.936
1943 0 35.4393 17.0432 604 59.0265 1366.7 565.541
1944 0 34.5024 16.4047 566 59.6731 1366.61 564.431
1945 0 33.8044 17.0392 576 60.0139 1366.98 564.764
1946 0 34.3087 18.0421 619 59.3619 1367 564.06
1947 0 36.7582 18.5537 682 58.4428 1367.12 563.453
1948 0 38.8227 17.4383 677 59.192 1366.94 562.826
1949 0 38.4177 18.5592 713 58.8962 1366.88 563.794
1950 0 39.4886 17.5494 693 60.2929 1367.42 563.802
1951 0 41.9074 17.992 754 59.3687 1367.77 561.987
1952 0 41.265 17.7632 733 60.4761 1367.19 561.621
1953 0 43.8678 17.6211 773 60.5188 1367.88 559.473
1954 0 43.8678 17.6211 773 167.574 1367.88 559.473
1955 0 47.489 17.204 817 60.1297 1368.43 558.515
1956 0 49.3592 17.2004 849 60.1531 1368.88 558.157
1957 0 49.3592 17.1802 848 172.879 1369.88 558.183
1958 0 49.4796 17.6639 874 60.6362 1369.13 557.046
1959 0 53.5492 18.0208 965 59.7492 1369.22 555.488
1960 0 54.5388 16.7771 915 61.0415 1368.99 555.319
1961 0 54.4923 18.0209 982 60.612 1369.46 553.584
1962 0 59.5077 17.8128 1060 60.1434 1369.44 553.698
1963 0 59.4834 16.8787 1004 61.991 1369.61 553.744
1964 0 60.3343 19.1433 1155 60.5723 1369.8 552.052
1965 0 63.2787 17.9997 1139 61.5347 1370.22 550.544
1966 0 64.3176 18.0199 1159 62.4495 1370.8 549.454
1967 0 66.192 18.537 1227 61.9535 1371.27 550.637
1968 0 66.2305 18.2242 1207 63.1524 1371.76 548.872
1969 0 70.2878 18.282 1285 62.7307 1371.71 548.657
1970 0 71.5108 18.0812 1293 64.2274 1371.47 545.621
1971 0 71.1754 17.8011 1267 65.6906 1371.99 546.017
1972 0 73.2415 17.8178 1305 66.0835 1371.3 545.172
1973 0 76.3652 17.652 1348 66.5482 1372.02 542.861
1974 0 79.1983 18.258 1446 65.9723 1372.09 542.697
1975 0 82.1723 18.376 1510 66.1616 1372.53 541.13
1976 0 84.3042 18.3502 1547 66.4557 1372.75 538.666
1977 0 84.2077 18.3831 1548 67.5297 1372.95 537.921
1978 0 87.122 18.3306 1597 67.7345 1372.59 535.612
1979 0 91.1843 17.9307 1635 67.6624 1372.79 536.617
1980 0 94.3141 18.1945 1716 67.722 1372.98 534.476
1981 0 98.3143 18.1459 1784 68.4086 1373.28 532.416
1982 0 99.2001 17.5101 1737 70.1192 1374 531.481
1983 0 103.606 18.1746 1883 68.5311 1373.64 532.408
1984 0 108.157 17.3267 1874 69.8847 1373.56 526.822
1985 1 56.4272 17.1371 967 70.516 1373.38 549.852
1986 0 57.2364 16.528 946 71.0285 1373.85 548.311
1987 0 62.1336 17.3819 1080 69.8676 1373.45 547.808
1988 0 60.774 16.2076 985 72.0305 1373.68 546.844
1989 0 65.4178 17.1819 1124 70.0685 1373.5 545.71
1990 0 66.7453 16.7802 1120 70.2812 1373.61 544.129
1991 0 73.0992 17.2095 1258 68.3005 1373.33 541.987
1992 0 75.9877 16.9369 1287 68.1515 1373.07 539.962
1993 0 80.3622 16.0772 1292 68.3924 1373.17 539.553
1994 0 84.7852 15.9108 1349 67.762 1372.86 537.906
1995 1 46.2657 14.3519 664 66.1883 1373.64 556.611
1996 0 47.3614 14.1254 669 67.0628 1374.02 555.145
1997 0 45.129 14.1594 639 67.6275 1373.24 556.042
1998 0 48.0885 14.6813 706 67.3088 1373.18 552.765
1999 0 49.1443 13.5723 667 67.973 1373.44 553.975
2000 0 53.1986 14.3237 762 66.601 1373.3 551.795
2001 0 54.2285 14.9368 810 66.1272 1373.08 551.511
2002 0 54.3969 13.9714 760 67.1 1372.74 551.429
2003 0 57.2115 13.9482 798 66.7331 1372.74 549.774
2004 0 59.2323 15.0087 889 65.3476 1372.27 549.391
2005 0 62.2153 13.7265 854 67.2436 1371.95 548.423
2006 0 63.2192 13.8566 876 67.5068 1371.74 548.08
2007 0 65.1478 14.352 935 67.3059 1371.76 548.109
2008 1 128.396 16.4568 2113 67.3871 1371.7 516.565
2009 1 35.0208 12.8781 451 67.0754 1371.5 561.377
2010 0 35.0276 13.3323 467 66.7109 1371.16 561.143
2011 0 34.031 13.3114 453 68.2715 1371.28 560.993
2012 0 36.0921 13.6872 494 67.1296 1371.1 559.668
2013 0 37.0565 12.8722 477 68.3396 1370.55 559.673
2014 0 41.0545 13.4212 551 66.2759 1369.92 559.198
2015 0 39.0488 13.2399 517 68.06 1369.88 557.681
2016 0 42.1677 13.3752 564 66.5089 1369.89 557.498
2017 0 44.3008 13.3632 592 65.5625 1370.77 558.213
2018 0 45.234 13.8391 626 65.1342 1370.27 556.292
2019 0 45.0707 14.2443 642 65.7477 1370.53 555.824
2020 0 48.0973 13.1816 634 66.3139 1370.31 555.306
2021 0 49.4287 13.5347 669 64.994 1370.38 555.393
2022 0 49.0783 13.998 687 65.4076 1370.56 553.271
2023 0 51.1568 14.1526 724 65.4751 1369.82 553.24
2024 0 52.2028 13.2368 691 65.5962 1369.59 554.194
2025 0 55.0929 13.1051 722 65.2438 1369.81 553.788
2026 0 55.0929 13.1959 727 158.477 1369.8 553.799
2027 0 59.1763 12.7078 752 64.5279 1369.41 551.629
2028 0 60.0971 13.0123 782 65.0703 1369.41 549.785
2029 0 62.1019 14.7016 913 62.9671 1368.94 549.391
2030 0 64.1144 13.1796 845 64.2284 1368.92 549.84
2031 0 67.0733 14.0145 940 63.2021 1369.08 548.86
2032 0 68.4026 13.9322 953 64.1112 1368.65 547.377
2033 0 70.2239 12.7307 894 65.6991 1369.08 547.785
2034 0 73.12 13.6625 999 64.6697 1368.55 546.19
2035 1 43.0277 12.6663 545 65.3376 1367.82 559.629
2036 0 44.0502 12.8263 565 65.1451 1368.34 557.556
2037 0 46.0833 13.0633 602 65.7159 1368.27 555.91
2038 0 44.0828 13.2705 585 65.7128 1368.01 555.701
2039 0 49.0411 12.5405 615 66.0358 1368.11 554.985
2040 0 51.0304 13.6389 696 64.0489 1368.23 555.478
2041 0 55.1154 14.2429 785 62.7694 1368.36 552.4
2042 0 57.0294 14.1681 808 62.7413 1368.53 552.095
2043 0 58.0992 14.3376 833 63.1801 1368.85 550.106
2044 0 62.2926 14.2874 890 62.5157 1368.71 550.583
2045 0 62.1454 14.8683 924 62.1212 1368.23 550.385
2046 0 63.4132 14.1769 899 63.2603 1368.46 548.966
2047 0 65.408 14.2337 931 63.4178 1368.24 548.15
2048 0 66.3375 13.8685 920 64.3989 1368.02 547.071
2049 0 68.2816 13.8983 949 64.4078 1367.77 545.623
2050 0 72.2097 14.1671 1023 63.9824 1367.5 545.11
2051 0 73.1388 13.8914 1016 64.3406 1367.61 544.842
2052 0 75.1795 14.472 1088 64.1324 1367.3 543.2
2053 0 79.2747 14.9859 1188 63.1507 1367.44 542.56
2054 0 80.3335 14.6763 1179 66.3622 1367.12 540.712
2055 0 81.2176 13.47 1094 68.3199 1366.77 540.394
2056 0 85.3047 14.2313 1214 67.5008 1366.26 537.884
2057 0 87.4305 13.3706 1169 68.9059 1366.55 537.861
2058 0 90.2926 14.4309 1303 67.1804 1366.9 536.769
2059 0 92.3509 13.0589 1206 69.7496 1366.97 532.663
2060 0 96.15 13.9054 1337 68.1062 1366.62 532.444
2061 0 102.355 14.4399 1478 67.0609 1366.67 531.158
2062 0 102.422 14.4598 1481 67.7076 1366.91 528.416
2063 0 102.422 14.4696 1482 177.971 1366.91 528.401
2064 0 110.45 14.6311 1616 67.0365 1366.92 526.642
2065 0 114.202 14.0804 1608 68.0784 1367.1 526.453
2066 0 115.413 14.5998 1685 67.8136 1367.43 523.52
2067 0 121.204 14.2734 1730 68.0168 1367.42 520.629
2068 0 126.33 14.7076 1858 67.1943 1366.83 519.816
2069 0 129.48 15.4541 2001 66.1949 1367.61 517.442
2070 0 134.346 14.9019 2002 66.7932 1367.51 515.743
2071 0 137.399 14.8255 2037 67.4246 1367.42 513.897
2072 0 139.386 13.502 1882 70.0877 1367.43 512.607
2073 1 75.1457 12.5223 941 69.695 1367.94 544.433
2074 0 76.4449 13.1991 1009 68.3954 1367.83 544.862
2075 0 79.2385 13.7055 1086 67.6363 1368.6 541.637
2076 0 83.1573 14.2381 1184 66.4696 1368.44 539.64
2077 0 84.1989 14.0501 1183 66.8521 1368.39 538.558
2078 0 88.4017 13.7893 1219 66.4143 1368.65 535.666
2079 0 91.3196 13.4801 1231 66.1714 1369.12 535.375
2080 0 96.3155 13.653 1315 65.8388 1368.99 532.476
2081 1 44.2046 11.7409 519 63.7245 1369.8 557.57
2082 0 44.2826 11.7879 522 63.9464 1370.18 557.826
2083 0 48.1265 12.2594 590 62.6763 1369.81 555.707
2084 0 48.1712 12.4141 598 63.1689 1369.78 555.119
2085 0 49.1582 11.4121 561 64.82 1369.69 553.414
2086 0 51.2706 12.8144 657 61.9406 1369.72 552.875
2087 0 54.1237 12.7671 691 61.7192 1369.68 551.14
2088 0 55.2461 12.562 694 62.098 1370.13 550.244
2089 0 59.196 13.7678 815 59.4724 1370.07 549.679
2090 0 58.1408 12.7449 741 60.9703 1370.33 549.706
2091 0 62.1539 13.2574 824 60.1359 1370.35 547.269
2092 0 63.138 13.3675 844 59.6007 1371.36 546.886
2093 0 65.2636 13.1927 861 59.3252 1371.06 546.662
2094 0 67.411 12.8466 866 60.0058 1371.08 544.096
2095 0 68.2137 12.3142 840 59.8869 1371.34 544.324
2096 0 72.3014 12.6 911 59.3216 1371.37 541.977
2097 1 37.0717 11.1406 413 58.2615 1371.6 559.482
2098 0 42.063 12.1247 510 57.6176 1371.61 557.822
2099 0 41.052 11.9361 490 57.7041 1371.81 557.351
2100 0 42.1308 12.5561 529 57.7429 1371.91 556.964
2101 0 46.1365 12.528 578 56.9239 1371.55 557.391
2102 0 46.157 13.4324 620 56.2371 1372.34 554.59
2103 0 46.1889 12.7736 590 57.8593 1372.42 553.297
2104 0 49.1639 12.5702 618 57.6909 1372.68 554.018
2105 0 50.0973 12.5755 630 58.0317 1373.09 552.921
2106 0 50.0704 11.4639 574 58.7439 1373.37 553.768
2107 0 52.0883 13.9571 727 56.8308 1373.05 550.851
2108 0 53.1084 12.7098 675 58.5052 1372.97 550.486
2109 0 54.1364 12.7641 691 58.6179 1372.74 550.162
2110 0 57.0762 13.4907 770 57.5974 1372.74 548.645
2111 0 56.1626 13.0514 733 58.8336 1372.59 547.217
2112 0 59.0942 13.7916 815 57.8074 1372.95 546.485
2113 0 61.0393 13.4176 819 58.2662 1372.51 546.451
2114 0 63.2287 14.0917 891 57.0561 1372.69 546.276
2115 0 65.1896 14.3428 935 57.0225 1372.46 545.511
2116 0 68.1191 13.4324 915 57.3202 1372.76 542.421
2117 0 70.0903 14.1817 994 56.0221 1372.59 543.163
2118 0 73.0733 14.7113 1075 55.3349 1372.38 540.592
2119 0 75.0605 13.9354 1046 56.13 1372.13 539.666
2120 0 79.1227 13.9783 1106 56.2315 1372.33 537.627
2121 0 80.183 13.3819 1073 56.754 1372.52 537.953
2122 1 42.1062 12.3497 520 57.5865 1372.54 555.319
2123 0 45.0336 12.0799 544 57.7482 1372.34 554.024
2124 0 47.0146 12.2728 577 57.1802 1372.1 554.017
2125 0 47.0555 13.1759 620 56.8565 1372.34 554.124
2126 0 49.0357 13.5208 663 56.4359 1371.6 553.198
2127 0 51.1014 13.7961 705 55.8397 1371.52 552.315
2128 0 53.0701 14.0569 746 55.8713 1371.04 551.294
2129 0 51.0573 14.0626 718 57.2047 1370.71 549.816
2130 0 55.1333 14.4196 795 55.639 1370.32 548.713
2131 0 58.0389 13.8872 806 55.6129 1370.78 549.885
2132 0 58.0728 13.9308 809 56.4302 1370.88 547.763
2133 0 60.0559 13.3043 799 56.7935 1370.28 547.151
2134 0 63.0968 14.8819 939 54.8541 1370.64 546.436
2135 0 65.1632 14.6248 953 54.7072 1370.59 545.935
2136 0 66.0877 14.0722 930 55.4914 1370.27 544.638
2137 0 68.1502 13.6023 927 55.8501 1369.9 542.978
2138 0 72.055 14.5028 1045 54.601 1369.91 542.824
2139 0 74.2867 15.6825 1165 53.3751 1370.14 541.626
2140 0 77.1987 14.4044 1112 54.7734 1370.32 541.965
2141 0 79.237 15.7628 1249 53.3547 1369.45 538.556
2142 0 83.2001 14.5553 1211 54.6986 1369.81 537.391
2143 0 85.1803 15.4613 1317 53.7995 1369.66 535.244
2144 1 41.3604 11.8229 489 55.3006 1369.55 558.906
2145 0 44.0896 11.3179 499 56.01 1369.17 557.858
2146 0 45.0524 12.1192 546 55.2234 1368.67 557.67
2147 0 46.1018 13.1882 608 54.5658 1368.71 556.753
2148 0 50.1325 13.2649 665 54.5113 1369.06 554.917
2149 0 50.1959 13.1286 659 55.3596 1369.19 553.476
2150 0 52.1519 13.1539 686 55.105 1368.82 553.85
2151 0 55.2331 14.2849 789 54.1977 1369.07 551.734
2152 0 56.4624 13.9739 789 54.7402 1369.14 550.535
2153 0 59.2677 12.8907 764 55.3102 1369.05 550.111
2154 0 61.1537 13.4252 821 54.9805 1368.59 549.266
2155 0 65.5192 14.9269 978 53.0286 1369.14 547.94
2156 0 65.1274 14.1108 919 54.3917 1368.58 546.336
2157 0 68.2819 14.0008 956 54.4582 1368.31 545.954
2158 0 70.1968 14.0035 983 54.8555 1367.84 545.336
2159 0 73.2091 14.4244 1056 54.5095 1368.49 544.207
2160 0 74.3131 14.708 1093 54.193 1368.51 543.606
2161 0 77.315 14.5379 1124 54.581 1368.48 542.753
2162 0 80.4447 14.6312 1177 54.5191 1368.55 541.17
2163 0 83.4607 12.449 1039 56.6853 1368.48 541.48
2164 0 86.5944 14.6083 1265 54.8261 1367.63 538.763
2165 0 87.5584 13.4767 1180 56.4347 1367.32 536.564
2166 0 90.3745 13.8203 1249 56.2066 1368.1 536.566
2167 1 50.2355 12.3419 620 55.5129 1367.43 557.427
2168 0 51.199 12.2268 626 55.3259 1367.52 556.324
2169 0 53.6475 12.5262 672 55.5417 1367.36 555.589
2170 0 54.3247 12.278 667 56.1829 1367.44 554.001
2171 0 57.2007 14.2306 814 52.8907 1367.26 554.144
2172 0 55.677 13.1113 730 55.611 1366.98 550.558
2173 0 59.2666 13.1271 778 55.2082 1366.74 550.158
2174 0 61.3815 13.0333 800 54.6125 1366.38 551.586
2175 0 63.3777 12.9067 818 55.1076 1366.71 550.191
2176 0 68.3061 13.7616 940 53.55 1367.11 548.482
2177 0 69.315 13.6911 949 54.3699 1367.47 547.503
2178 0 69.1986 13.5841 940 55.183 1367.29 546.163
2179 0 72.4664 13.6891 992 54.5534 1367.34 546.295
2180 0 75.3051 13.9034 1047 55.0535 1367.45 544.92
2181 0 77.3696 13.0025 1006 55.993 1367.51 542.956
2182 0 79.4073 13.3237 1058 56.2278 1367.31 541.497
2183 0 83.4343 13.6515 1139 55.9658 1367.14 541.117
2184 0 85.4424 12.9444 1106 56.9892 1367.74 538.739
2185 1 45.3666 11.7928 535 56.4561 1367.6 558.806
2186 0 47.2387 12.1299 573 56.1204 1368.06 556.497
2187 0 47.1949 12.7768 603 56.4146 1368.08 556.254
2188 0 50.2223 12.4049 623 56.3772 1367.9 554.682
2189 0 51.3836 13.7787 708 54.7203 1368.34 555.558
2190 0 51.2791 12.1102 621 56.6538 1367.72 555.224
2191 0 54.2073 12.9134 700 55.8614 1368.24 553.703
2192 0 53.2259 11.8363 630 58.4587 1367.98 552.029
2193 0 54.2212 12.1355 658 157.403 1366.97 551.664
2194 0 58.196 13.9013 809 55.4994 1368.63 550.056
2195 0 60.3388 12.9104 779 57.3466 1368.93 548.13
2196 0 64.3312 13.6792 880 56.0523 1368.96 546.519
2197 0 66.4071 13.6732 908 55.8535 1369.1 545.202
2198 0 67.4253 13.7041 924 56.5184 1369.23 543.899
2199 0 68.2815 13.6933 935 57.5144 1369.53 542.004
2200 0 71.282 13.9727 996 56.751 1369.7 542.072
2201 0 74.2601 13.2776 986 57.5507 1369.83 540.647
2202 0 76.4512 14.2836 1092 57.4441 1369.72 536.567
2203 0 77.6154 14.005 1087 58.4867 1369.58 535.679
2204 0 82.3819 13.8137 1138 58.3779 1370.01 536.735
2205 0 85.4857 13.7216 1173 59.0512 1370.26 534.395
2206 0 86.5619 13.8514 1199 59.1885 1370.25 532.314
2207 0 89.5986 13.527 1212 59.5545 1370.76 531.836
2208 1 47.3152 11.4974 544 61.6893 1369.97 552.195
2209 0 50.3981 11.2108 565 62.2584 1370.56 550.381
2210 0 51.4192 12.5245 644 61.5745 1370.5 548.175
2211 0 53.3359 13.1619 702 60.1852 1370.98 547.584
2212 0 53.4257 13.0836 699 60.3505 1371.01 547.004
2213 0 55.1913 12.9912 717 61.4547 1370.78 546.441
2214 0 56.326 12.2324 689 61.8549 1371.4 547.239
2215 0 58.5717 13.2999 779 61.1027 1371.58 544.8
2216 0 60.3729 13.4 809 61.1829 1371.91 543.362
2217 0 63.4569 13.9465 885 60.4678 1371.82 541.547
2218 0 64.4604 12.5348 808 62.2401 1372.25 541.035
2219 0 66.4218 13.5648 901 61.1354 1372 540.503
2220 0 67.2707 13.1707 886 62.9786 1371.81 538.975
2221 0 71.2631 14.3412 1022 61.6096 1371.55 540.218
2222 0 73.3466 13.3748 981 63.3058 1371.86 537.987
2223 0 77.3347 13.7454 1063 62.9332 1372.06 535.884
2224 0 80.2635 13.3062 1068 63.6526 1372.38 536.595
2225 0 79.3033 13.896 1102 64.127 1371.93 532.385
2226 0 82.3401 13.675 1126 64.7114 1371.99 530.588
2227 0 86.3664 13.848 1196 63.9473 1372.25 530.171
2228 0 88.2759 13.9789 1234 63.8622 1372.78 529.399
2229 0 91.2444 14.3899 1313 64.6618 1372.97 527.429
2230 1 44.3221 10.7847 478 66.2908 1372.36 548.973
2231 0 48.3385 10.5713 511 66.8885 1372.39 547.687
2232 0 50.1662 10.8041 542 64.9373 1372.75 547.494
2233 0 51.0783 11.59 592 62.9679 1372.95 545.611
2234 0 52.1263 12.0285 627 62.571 1372.6 544.663
2235 0 54.087 11.3891 616 64.9675 1372.71 547.104
2236 0 56.1505 12.4487 699 63.2189 1372.43 545.2
2237 0 57.1449 12.8095 732 62.5697 1372.4 545.776
2238 0 58.1687 12.3434 718 63.2493 1371.89 545.064
2239 0 58.0976 11.8938 691 64.3893 1372.04 541.559
2240 0 63.1068 12.6769 800 62.8025 1372.18 541.527
2241 0 62.2134 12.0231 748 63.4826 1372.32 542.209
2242 0 65.1011 12.3347 803 62.8854 1372.07 540.357
2243 0 68.1724 12.307 839 62.4851 1372.4 539.653
2244 0 70.2356 11.7889 828 62.7657 1373.07 538.364
2245 0 73.1639 12.3832 906 62.0839 1372.4 537.763
2246 0 75.2081 11.8338 890 62.5169 1371.92 536.804
2247 0 80.1912 12.1086 971 61.9176 1372.52 535.956
2248 0 80.1472 11.0921 889 63.2497 1372.05 535.033
2249 0 83.3077 11.2835 940 63.4266 1371.72 532.509
2250 1 45.0379 11.1017 500 60.568 1372.68 551.398
2251 0 45.1267 10.127 457 60.8818 1372.53 550.179
2252 0 48.1038 10.706 515 59.8699 1372.64 550.361
2253 0 47.0567 10.9017 513 60.2827 1372.18 551.505
2254 0 48.1652 10.8377 522 60.5862 1371.8 549.368
2255 0 51.3154 11.5755 594 58.7879 1371.29 549.978
2256 0 52.2129 11.5297 602 58.7492 1371.73 550.814
2257 0 54.4031 11.6905 636 58.5047 1371.25 548.659
2258 0 55.3059 12.9643 717 57.1311 1371.46 547.555
2259 0 57.404 11.3233 650 59.1246 1371.71 548.132
2260 0 58.2442 12.1385 707 58.7115 1372.02 546.465
2261 0 60.2406 11.6367 701 59.1769 1372.01 546.138
2262 0 62.2975 11.7661 733 59.3683 1372.3 545.394
2263 0 63.2104 11.1374 704 60.1207 1371.89 544.297
2264 0 64.2121 12.6923 815 59.4233 1371.78 543.336
2265 0 69.1645 11.5377 798 59.9173 1371.83 543.744
2266 0 67.2375 12.4038 834 60.3261 1371.77 542.253
2267 0 72.271 13.3802 967 58.4995 1372.44 541.804
2268 0 71.3853 11.1087 793 62.1778 1372.42 541.637
2269 1 39.2077 9.84502 386 61.2176 1373.15 557.106
2270 0 41.1656 10.1784 419 60.5084 1373.06 558.587
2271 0 41.355 11.1232 460 61.1739 1373.11 556.009
2272 0 42.1963 11.1858 472 60.9131 1372.95 554.826
2273 0 45.2106 11.1036 502 60.255 1372.56 554.755
2274 0 45.3872 11.8315 537 60.2123 1371.7 555.285
2275 0 47.3487 11.4259 541 60.2458 1371.82 554.767
2276 0 47.409 11.2848 535 61.372 1371.59 553.331
2277 0 47.5052 11.8303 562 61.0676 1371.53 552.358
2278 0 50.3613 12.1522 612 60.2239 1371.31 552.093
2279 0 50.3552 11.121 560 61.2179 1371.62 552.591
2280 0 52.3613 11.7262 614 60.3436 1371.64 552.184
2281 0 53.3796 11.4089 609 60.4565 1371.11 551.517
2282 0 54.3231 12.1311 659 59.5448 1371.04 550.753
2283 0 57.279 12.4653 714 58.1821 1370.39 549.043
2284 0 60.3209 11.3559 685 59.0204 1370.46 549.597
2285 0 60.2769 11.9615 721 58.5104 1370.32 550.556
2286 0 61.288 12.3515 757 58.0859 1370.04 548.793
2287 0 62.2489 12.0966 753 58.3546 1369.61 547.21
2288 0 65.4027 13.027 852 56.723 1369.9 547.579
2289 0 67.2858 12.4246 836 56.9163 1369.72 547.287
2290 0 68.1713 12.6299 861 57.1394 1369.9 543.001
2291 0 70.1146 12.0945 848 57.7217 1369.45 543.968
2292 0 72.233 12.0167 868 57.6187 1369.44 543.948
2293 0 74.2129 13.5825 1008 55.6944 1369.59 543.185
2294 0 76.2046 12.7683 973 56.7657 1369.58 540.664
2295 0 79.2094 12.0945 958 57.3017 1370.06 540.881
2296 0 79.128 11.6267 920 58.0239 1369.65 540.109
2297 1 40.2281 9.7693 393 57.0178 1370.34 561.285
2298 0 41.2753 11.4839 474 56.23 1369.93 557.876
2299 0 43.2581 11.1424 482 55.89 1370.4 558.452
2300 0 46.3056 12.0936 560 54.4018 1370.12 557.362
2301 0 46.2053 11.5571 534 55.7978 1369.65 557.294
2302 0 49.2747 12.1157 597 54.4925 1369.75 557.657
2303 0 49.2132 12.3138 606 54.9851 1369.43 554.746
2304 0 51.1778 12.7008 650 54.5908 1369.46 553.954
2305 0 51.265 12.0355 617 55.316 1369.73 554.692
2306 0 51.2982 11.8718 609 55.9048 1369.15 554.417
2307 0 55.2418 12.5087 691 54.4255 1369.66 553.525
2308 0 56.1974 12.5629 706 54.6048 1369.21 554.49
2309 0 58.1806 12.0487 701 55.0827 1369.06 552.027
2310 0 60.1393 12.3546 743 54.1898 1369.38 553.392
2311 0 61.0554 12.4641 761 55.0696 1369.29 549.996
2312 0 65.1952 13.0685 852 53.777 1369.04 550.088
2313 0 66.2065 12.4308 823 54.497 1369.21 547.122
2314 0 66.2145 11.6138 769 55.5735 1369.41 547.263
2315 0 68.1096 12.9057 879 54.5085 1369.41 545.163
2316 0 70.1058 11.9534 838 55.5943 1369.13 545.198
2317 0 74.1793 12.6181 936 54.703 1369.55 544.176
2318 1 37.0638 10.1717 377 53.4005 1370.17 563.647
2319 0 37.0711 10.3855 385 55.5065 1370.59 560.59
2320 0 39.0651 10.8025 422 55.7417 1371.02 560.384
2321 0 40.0469 10.5377 422 55.8815 1370.88 561.23
2322 0 41.1269 10.7959 444 56.1194 1370.76 559.662
2323 0 41.1869 11.1929 461 56.6443 1370.46 558.239
2324 0 43.2503 12.0462 521 55.3378 1371.13 558.192
2325 0 42.2606 12.139 513 56.7115 1371.24 556.232
2326 0 45.1028 11.5292 520 57.0827 1371.96 555.112
2327 0 47.1687 12.5931 594 56.0269 1372.05 554.766
2328 0 48.2306 12.5024 603 56.4726 1372.19 552.501
2329 0 48.1483 12.4199 598 57.1873 1372.19 551.863
2330 0 49.1998 12.683 624 57.117 1372.16 551.394
2331 0 52.335 11.9996 628 57.0414 1373.07 552.758
2332 0 53.1683 12.4886 664 57.0407 1372.78 551.52
2333 0 56.2767 12.5807 708 56.8884 1372.38 550.411
2334 0 55.1194 11.7382 647 57.8037 1372.45 550.583
2335 0 59.079 12.424 734 57.1567 1372.31 548.913
2336 0 60.1547 13.0663 786 56.7519 1372.2 547.42
2337 0 61.0941 12.669 774 57.1124 1371.86 545.355
2338 0 63.1466 12.178 769 57.4473 1372.54 545.104
2339 0 65.1525 12.6012 821 57.3057 1372.24 544.484
2340 0 66.124 13.2176 874 56.8432 1372.84 542.908
2341 0 70.0668 12.0885 847 57.5903 1372.7 542.123
2342 1 39.0148 10.9189 426 55.3873 1373.25 557.772
2343 0 38.0393 11.2515 428 55.7266 1373.48 556.437
2344 0 39.0509 11.3442 443 55.7427 1373.79 555.499
2345 0 39.087 11.4616 448 56.3326 1374.21 554.056
2346 0 41.2464 11.3949 470 55.8574 1373.21 555.128
2347 0 42.2383 10.0856 426 57.1573 1373.22 554.136
2348 0 43.1648 11.9542 516 55.7519 1373.6 554.601
2349 0 45.2059 10.5075 475 56.7663 1373.68 553.987
2350 0 46.1305 11.9227 550 55.5182 1373.95 552.998
2351 0 46.1481 11.9615 552 55.7228 1373.78 552.107
2352 0 50.171 12.298 617 54.8104 1373.77 550.891
2353 0 50.235 12.2823 617 55.5008 1373.69 550.438
2354 0 53.1939 12.351 657 55.5449 1373.75 548.662
2355 0 53.1438 12.4191 660 55.3606 1373.63 547.859
2356 0 56.2036 12.6148 709 55.1044 1373.66 547.922
2357 0 56.1857 13.313 748 54.4545 1373.6 547.57
2358 0 57.243 12.9448 741 55.6896 1373.51 546.422
2359 0 60.2406 13.1141 790 55.0177 1373.17 545.39
2360 0 61.207 11.5183 705 57.1943 1373.33 545.718
2361 0 62.2569 12.4805 777 57.1622 1373.4 543.816
2362 0 64.1721 12.5288 804 56.8893 1373.76 544.826
2363 0 65.1466 12.7712 832 56.5325 1373.01 542.615
2364 0 68.2256 12.6052 860 56.9012 1373.21 541.741
2365 0 69.1745 12.6781 877 56.577 1372.88 541.936
2366 0 72.1279 12.866 928 56.4558 1372.29 541.583
2367 0 73.1637 13.0119 952 56.6691 1372.4 540.674
2368 0 74.1658 12.7822 948 57.8629 1371.79 539.292
2369 0 78.1687 13.1383 1027 57.4051 1371.58 537.596
2370 0 80.2169 11.9925 962 58.9927 1371.66 537.601
2371 0 82.1915 13.3104 1094 57.2879 1371.37 536.876
2372 1 42.0462 10.7976 454 57.8172 1371.7 555.623
2373 0 44.0924 11.7934 520 57.0115 1371.58 554.406
2374 0 46.2527 11.9344 552 56.5833 1371.11 554.129
2375 0 50.3282 11.9814 603 56.66 1371.21 552.368
2376 0 50.2075 12.4483 625 56.8368 1371.46 552.101
2377 0 52.3246 11.5816 606 57.2921 1371.48 551.185
2378 0 53.2473 11.9067 634 57.2997 1371.81 551.584
2379 0 55.2568 13.1206 725 56.3834 1371.53 550.102
2380 0 57.2108 12.5676 719 57.2907 1371.5 549.142
2381 0 60.1837 13.492 812 54.2648 1371.08 548.115
2382 0 60.1837 13.5253 814 164.477 1371.06 548.13
2383 0 63.2592 12.8835 815 54.3583 1371.28 547.405
2384 0 65.2647 13.5602 885 53.3028 1371.82 546.534
2385 0 67.1391 13.405 900 53.3544 1371.81 544.134
2386 0 71.3607 13.2706 947 53.548 1371.62 542.899
2387 0 73.2039 13.155 963 53.5109 1371.85 542.178
2388 0 75.2877 13.1097 987 53.9108 1371.63 540.999
2389 0 78.2494 12.7157 995 54.0392 1372.08 539.552
2390 1 39.0431 9.96336 389 55.6915 1372.53 559.149
2391 0 42.0555 11.5561 486 53.7942 1372.42 558.988
2392 0 43.0228 11.1104 478 54.7929 1372.18 557.477
2393 0 43.0586 12.123 522 54.3218 1371.64 556.55
2394 0 44.0769 10.7766 475 55.28 1371.45 555.629
2395 0 46.15 12.481 576 53.3524 1371.56 554.936
2396 0 49.2636 12.423 612 53.3775 1371.69 553.752
2397 0 50.1245 13.1074 657 53.0152 1371.41 552.642
2398 0 50.0906 12.7769 640 53.9734 1371.62 552.253
2399 0 50.1241 11.9703 600 54.9717 1371.7 552.818
2400 0 53.1412 12.6644 673 54.3418 1371.38 550.788
2401 0 54.1363 11.3233 613 55.5677 1370.98 550.876
2402 0 58.2118 13.1932 768 53.6341 1371.08 549.892
2403 0 60.2102 12.3733 745 54.2255 1370.68 551.322
2404 0 61.2032 13.1366 804 53.9813 1369.99 549.284
2405 0 61.0536 13.1851 805 54.7901 1370.69 549.087
2406 0 63.1028 12.5509 792 55.1376 1370.64 548.888
2407 0 63.0401 12.9759 818 55.7115 1370.39 545.965
2408 0 67.0688 12.763 856 55.3855 1370.62 545.18
2409 0 67.1111 13.2169 887 55.4487 1370.51 545.005
2410 0 70.0688 12.9159 905 55.6265 1370.17 542.326
2411 1 36.0159 10.1066 364 56.0742 1369.66 561.879
2412 0 38.0301 9.96579 379 56.2902 1369.92 561.119
2413 0 40.1623 10.9804 441 55.0068 1370.12 560.354
2414 0 44.0626 12.0737 532 53.2406 1369.77 559.109
2415 0 44.1418 11.4857 507 54.3905 1369.26 559.126
2416 0 45.1164 12.2793 554 54.0451 1369.49 558.323
2417 0 46.1512 11.744 542 54.5646 1369.44 558.159
2418 0 48.2889 12.2181 590 53.8576 1369.43 557.48
2419 0 48.2455 13.535 653 52.9311 1369.66 554.42
2420 0 51.1473 12.0045 614 53.9919 1369.4 556.05
2421 0 53.2289 12.5496 668 53.6033 1369.44 554.561
2422 0 53.3764 12.0278 642 54.3972 1369.28 554.073
2423 0 55.1955 12.2293 675 54.8578 1369.12 552.612
2424 0 58.0582 12.4875 725 54.5517 1368.76 551.983
2425 0 58.1756 12.9608 754 54.4151 1368.58 549.172
2426 0 61.3052 12.7559 782 54.4322 1368.96 549.744
2427 0 61.1553 12.4764 763 55.4233 1369.02 549.76
2428 0 64.0637 12.2846 787 54.8501 1369.08 548.928
2429 0 64.0637 12.3003 788 164.227 1368.09 548.921
2430 0 68.2131 13.7217 936 53.0417 1368.97 547.827
2431 0 70.1096 12.8085 898 54.1414 1368.72 546.331
2432 0 70.1888 13.0505 916 55 1368.59 546.508
2433 0 74.1743 13.5222 1003 53.9322 1369.16 545.017
2434 0 75.153 13.6788 1028 54.0506 1368.77 543.418
2435 0 77.1614 13.6856 1056 54.1326 1369.47 542.122
2436 0 80.1971 12.993 1042 55.1536 1369.52 538.948
2437 0 82.3222 13.3864 1102 55.5136 1369.45 537.025
2438 1 44.1542 10.9616 484 56.3409 1369.51 557.023
2439 0 46.1217 11.99 553 54.2477 1369.71 556.542
2440 0 45.17 11.5342 521 55.691 1369.52 555.313
2441 0 48.1684 11.4806 553 56.2568 1369.34 554.224
2442 0 51.1241 11.5797 592 55.4611 1369.38 554.096
2443 0 52.1317 12.2574 639 55.8826 1369.65 553.329
2444 0 52.1371 13.0617 681 55.3495 1369.05 551.405
2445 0 54.0906 12.9043 698 55.3567 1369.53 551.4
2446 0 56.2392 11.8956 669 56.2571 1369.14 551.294
2447 0 57.215 12.5841 720 56.5694 1369.17 548.665
2448 0 60.1507 12.0364 724 56.2196 1369.42 549.812
2449 0 62.0978 12.1743 756 56.3386 1369.49 548.066
2450 0 62.1092 13.428 834 55.5096 1369.45 547.969
2451 0 65.5849 12.2742 805 56.6199 1369.78 546.163
2452 0 66.1049 11.7692 778 57.8907 1369.81 544.433
2453 0 69.3107 12.6532 877 56.4196 1370.32 542.897
2454 0 71.1 12.9676 922 54.4653 1370.49 543.772
2455 0 73.1599 12.8759 942 54.7537 1370.25 540.466
2456 1 40.1834 11.348 456 54.3399 1370.67 556.871
2457 0 41.2173 10.5781 436 54.8899 1370.82 557.344
2458 0 43.3012 10.9928 476 55.8487 1371 555.494
2459 0 44.247 11.3002 500 55.614 1371.06 554.428
2460 0 46.265 11.3693 526 54.3935 1370.9 555.508
2461 0 46.2467 12.8442 594 53.8805 1371.21 552.63
2462 0 47.0927 12.5497 591 54.1523 1371.73 554.624
2463 0 48.0449 12.2177 587 54.8228 1371.94 553.261
2464 0 50.1183 13.1688 660 53.5697 1372.35 552.03
2465 0 52.0756 13.2692 691 53.5195 1372.87 550.918
2466 0 52.0571 12.1597 633 55.3017 1373.28 551.651
2467 0 52.07 11.619 605 56.2264 1373.26 550.352
2468 0 56.1442 13.1982 741 54.5209 1373.74 548.078
2469 0 58.1447 13.0364 758 54.3404 1373.31 547.094
2470 0 59.1395 13.1553 778 54.9769 1373.71 544.734
2471 0 59.1316 13.1233 776 55.8711 1373.83 544.008
2472 0 61.271 12.3386 756 56.1455 1374.03 544.853
2473 0 64.1511 12.8759 826 55.3862 1374.59 543.708
2474 0 66.1463 12.9108 854 55.5457 1374.4 543.382
2475 0 66.2178 13.0025 861 55.6748 1374.22 542.359
2476 0 70.2036 13.4608 945 54.9968 1374.39 541.203
2477 0 72.1797 13.6465 985 55.3117 1374.12 539.988
2478 0 74.4091 13.923 1036 55.1139 1374.18 537.653
2479 0 77.2386 13.0375 1007 56.3337 1374.26 535.85
2480 1 40.1325 10.8142 434 55.8502 1374.33 556.827
2481 0 42.0181 10.5907 445 56.2899 1374.78 555.083
2482 0 42.0976 11.212 472 55.8602 1374.47 555.271
2483 0 44.0083 12.7703 562 55.2705 1374.9 553.546
2484 0 47.0485 12.3065 579 55.4111 1373.92 552.038
2485 0 46.0868 12.8453 592 55.7804 1374.11 550.584
2486 0 47.073 12.3 579 56.038 1374.16 553.097
2487 0 48.1766 13.0354 628 56.1306 1373.61 551.024
2488 0 49.1461 13.5311 665 55.8376 1373.41 550.427
2489 0 50.0699 12.4626 624 57.2885 1373.08 549.614
2490 0 52.1279 12.6995 662 56.8338 1372.89 549.656
2491 0 53.1235 13.8545 736 55.6467 1372.47 546.61
2492 0 55.201 13.0976 723 55.87 1372.47 547.542
2493 0 56.127 13.4695 756 56.3849 1372.93 546.851
2494 0 58.1086 13.9566 811 55.7065 1372.7 545.847
2495 0 60.0904 13.7293 825 55.2061 1372.66 545.696
2496 0 62.1219 13.6828 850 55.2412 1372.57 544.909
2497 0 64.1586 13.5601 870 55.2046 1372.81 544.215
2498 0 65.0995 13.8557 902 54.592 1372.84 544.653
2499 0 67.1321 13.5703 911 55.0165 1372.54 542.756
2500 0 72.142 14.2635 1029 53.5073 1372.51 540.775
2501 0 74.2976 13.7555 1022 53.9589 1372.14 540.797
2502 0 73.1239 14.2224 1040 54.5913 1372.09 537.198
2503 0 77.1491 12.5731 970 55.2557 1372.24 538.348
2504 0 81.2209 14.122 1147 53.592 1371.93 535.764
2505 0 82.2474 14.0308 1154 53.9905 1372.38 533.607
2506 0 86.2391 14.1815 1223 53.4473 1372.61 532.81
2507 0 86.0875 14.0671 1211 54.1197 1372.2 531.489
2508 1 47.1354 11.1593 526 53.9144 1372.59 553.88
2509 0 49.0657 11.0872 544 55.4357 1372.08 551.794
2510 0 50.0352 12.1914 610 54.641 1372.06 551.128
2511 0 51.162 11.7079 599 55.7162 1372.4 549.768
2512 0 56.0572 12.8975 723 53.2351 1371.8 550.111
2513 0 57.1084 13.7808 787 52.8844 1371.36 547.45
2514 0 60.1647 13.862 834 52.054 1371.56 546.139
2515 0 61.1855 12.9606 793 53.2421 1371.69 544.797
2516 0 62.1763 13.2687 825 53.2703 1371.18 544.971
2517 0 67.0961 12.9367 868 52.7488 1370.93 543.308
2518 0 66.1018 13.1918 872 52.9817 1370.83 541.548
2519 0 69.094 13.1994 912 52.5099 1371.43 541.139
2520 0 71.1032 13.0796 930 52.8613 1372.17 540.422
2521 0 74.1585 13.4577 998 52.2846 1371.54 540.247
2522 0 77.1746 13.3075 1027 52.9367 1371.71 537.479
2523 0 79.2847 13.3317 1057 52.8032 1372 536.319
2524 0 84.2749 14.2985 1205 51.0631 1371.53 537.066
2525 0 84.2484 12.3919 1044 53.6925 1371.35 534.071
2526 1 43.0441 11.8018 508 51.6634 1371.2 556.041
2527 0 44.0446 12.7598 562 51.9128 1370.85 554.447
2528 0 44.1447 12.2778 542 52.7712 1370.65 554.256
2529 0 46.1639 12.8239 592 51.4932 1371.14 554.191
2530 0 48.2022 12.5098 603 51.9403 1370.8 551.64
2531 0 50.0483 13.0874 655 51.2397 1370.85 552.627
2532 0 52.0484 13.2185 688 51.0189 1370.8 551.397
2533 0 53.0591 13.0232 691 51.741 1370.53 550.323
2534 0 54.0825 13.276 718 51.0111 1370.73 551.028
2535 0 57.1257 13.6891 782 50.8286 1370.33 548.513
2536 0 58.1518 13.396 779 51.0116 1369.69 548.341
2537 0 59.0373 12.7038 750 52.0707 1370.04 547.084
2538 0 64.0677 13.4545 862 51.464 1370.22 547.282
2539 0 63.1092 12.7874 807 52.4486 1370.09 546.167
2540 0 65.0681 12.5407 816 52.3713 1369.73 546.224
2541 0 67.1198 13.0513 876 52.0719 1369.61 544.148
2542 0 68.2421 13.6133 929 51.6254 1369.5 543.573
2543 0 71.3963 13.4601 961 51.8075 1369.51 544.073
2544 0 74.2295 13.5795 1008 52.3135 1370.08 543.233
2545 0 77.1172 13.5767 1047 51.9293 1370.1 542.108
2546 0 78.2124 13.1181 1026 52.7982 1369.95 540.538
2547 1 41.1346 11.2801 464 53.056 1369.93 558.741
2548 0 46.1505 12.1992 563 51.8881 1369.83 556.767
2549 0 47.1498 11.8983 561 53.2888 1369.68 556.911
2550 0 47.1873 11.253 531 54.0885 1369.31 555.61
2551 0 48.0908 12.6012 606 52.5528 1369.59 556.01
2552 0 50.0538 11.6874 585 53.3248 1368.84 555.431
2553 0 50.0747 12.6012 631 53.0032 1369.34 554.588
2554 0 53.1115 13.6317 724 51.7859 1369.7 554.065
2555 0 53.4203 12.3548 660 53.4576 1369.5 552.915
2556 0 54.2592 12.4771 677 53.2925 1369.27 552.558
2557 0 57.1685 12.5244 716 53.2709 1369.2 552.52
2558 0 57.1252 12.4288 710 53.6423 1368.97 551.765
2559 0 57.2023 12.2548 701 54.408 1368.96 552.244
2560 0 61.1946 12.0762 739 54.4154 1368.86 550.08
2561 0 63.1042 12.931 816 53.3493 1369.23 549.131
2562 0 63.2544 13.1216 830 53.6337 1368.84 548.123
2563 0 66.1199 13.4453 889 53.3656 1368.66 546.046
2564 0 68.1451 12.9576 883 54.1801 1368.56 544.328
2565 0 70.2266 13.5419 951 53.8044 1368.64 545.726
2566 0 70.2266 13.6131 956 153.905 1367.64 545.766
2567 0 76.3031 13.2629 1012 55.7895 1368.19 542.302
2568 1 39.1566 11.3135 443 56.6208 1368.59 560.964
2569 0 39.1068 11.4047 446 57.0942 1368.93 561.027
2570 0 42.1808 10.621 448 57.7076 1368.54 559.366
2571 0 44.1845 11.8141 522 57.2222 1368.52 559.054
2572 0 45.1976 12.1245 548 56.677 1368.42 556.96
2573 0 48.2087 12.8193 618 55.2168 1368.48 556.678
2574 0 47.2447 12.4882 590 56.9712 1368.69 556.217
2575 0 48.2404 12.3962 598 57.2408 1368.39 555.674
2576 0 49.3679 12.6195 623 56.9743 1368.86 554.701
2577 0 51.1208 12.891 659 56.4264 1368.33 555.182
2578 0 55.2322 13.923 769 54.7178 1368.45 555.731
2579 0 54.1044 12.8086 693 56.8817 1368.46 553.407
2580 0 58.2366 13.325 776 55.3686 1368.72 552.11
2581 0 59.2036 12.4824 739 57.138 1368.58 552.053
2582 0 62.1942 12.3323 767 56.9544 1368.3 551.485
2583 0 64.1154 13.6005 872 55.8509 1368.31 549.228
2584 0 64.1027 12.948 830 56.8096 1368.55 546.954
2585 0 64.1194 12.196 782 58.4437 1368.77 545.789
2586 0 70.3171 13.9226 979 55.6547 1368.92 546.578
2587 0 71.1442 12.9034 918 57.3976 1368.93 545.386
2588 1 38.0324 11.0432 420 57.2 1369.05 561.819
2589 0 40.1168 11.4914 461 55.9588 1369.14 561.857
2590 0 39.0152 11.3289 442 57.7534 1369.5 561.597
2591 0 40.0783 12.1013 485 57.0804 1369.47 559.544
2592 0 41.062 11.7384 482 57.2718 1369.52 559.793
2593 0 42.0302 12.2293 514 57.0428 1369.51 558.568
2594 0 44.0636 12.4366 548 57.4818 1369.31 556.628
2595 0 42.0317 12.6333 531 57.6365 1369.47 556.855
2596 0 46.1195 13.3566 616 56.625 1370.01 556.49
2597 0 48.1558 13.2694 639 56.493 1370.06 554.808
2598 0 49.1612 12.6726 623 57.9502 1370.29 555.254
2599 0 51.1782 13.2283 677 56.709 1370.65 554.279
2600 0 49.0604 13.7586 675 58.1644 1371.05 552.092
2601 0 51.094 12.7217 650 59.7062 1371.4 553.448
2602 0 52.0606 12.5623 654 59.945 1371.7 552.274
2603 0 56.1716 12.533 704 59.3338 1371.53 551.699
2604 0 55.1513 13.0006 717 59.6471 1371.44 550.628
2605 0 58.1059 13.3893 778 58.3419 1371.98 551.775
2606 0 58.1062 13.2516 770 59.4584 1371.7 549.247
2607 0 61.2223 13.0671 800 59.2938 1372.05 548.05
2608 0 63.2855 13.1152 830 59.2157 1372.1 545.859
2609 0 66.2327 12.909 855 59.6702 1372.25 544.325
2610 0 67.2566 13.6938 921 59.2953 1372.69 541.799
2611 0 70.2482 13.5804 954 58.9119 1373.13 543.93
2612 0 71.2627 13.1485 937 59.9648 1372.64 541.646
2613 0 75.5626 12.8503 971 60.4222 1372.83 540.491
2614 1 36.1239 11.2391 406 60.8374 1373.12 559.591
2615 0 36.2199 12.3689 448 60.6406 1373.34 559.929
2616 0 39.0769 11.5158 450 61.2622 1373.44 558.229
2617 0 40.2007 12.164 489 60.4765 1373.8 558.008
2618 0 43.0321 11.9911 516 60.9109 1373.26 557.285
2619 0 43.0674 13.2583 571 59.7898 1373.77 557.147
2620 0 44.0822 12.7943 564 60.4113 1374.25 554.278
2621 0 48.0439 13.5085 649 58.9599 1373.63 553.416
2622 0 49.1343 13.168 647 59.6399 1373.89 552.595
2623 0 48.1603 12.7491 614 61.2687 1373.71 551.634
2624 0 50.0679 13.242 663 61.3243 1373.81 550.76
2625 0 50.0872 12.5581 629 62.4913 1373.32 550.824
2626 0 54.1824 13.9898 758 60.0462 1373.65 549.313
2627 0 54.18 14.3226 776 59.9497 1373.46 547.946
2628 0 56.0696 12.645 709 61.3766 1373.6 549.309
2629 0 56.1668 13.3709 751 61.3662 1373.58 547.308
2630 0 60.0504 14.721 884 59.1335 1373.92 547.649
2631 0 63.1455 13.6669 863 60.4345 1373.7 545.929
2632 0 64.1545 14.6054 937 59.349 1373.85 545.647
2633 0 66.1443 14.1811 938 60.2079 1374.1 544.564
2634 0 69.1148 14.541 1005 59.7134 1373.73 543.08
2635 0 72.223 14.4275 1042 59.6862 1373.41 539.972
2636 0 73.3723 13.7109 1006 60.8678 1374.02 540.569
2637 0 77.3094 13.8146 1068 60.5749 1373.74 540.073
2638 1 40.0418 12.2372 490 60.2184 1373.15 557.737
2639 0 41.0661 12.6625 520 60.4135 1373.24 555.781
2640 0 43.0484 12.4743 537 61.0168 1373.43 554.004
2641 0 45.0838 12.2882 554 60.9242 1373.11 555.377
2642 0 47.106 13.8411 652 58.2699 1373.12 554.153
2643 0 46.0354 13.1203 604 61.1093 1372.97 553.43
2644 0 48.178 13.2426 638 60.8527 1372.95 551.796
2645 0 51.1824 13.9501 714 59.3347 1372.93 551.289
2646 0 52.0309 13.8956 723 59.6017 1372.79 550.734
2647 0 54.0418 13.6006 735 59.4408 1372.66 550.8
2648 0 55.0407 13.9533 768 59.1732 1372.34 549.461
2649 0 56.0594 13.896 779 59.8126 1372.43 549.036
2650 0 58.1108 13.7668 800 58.0938 1372.23 546.263
2651 0 62.0649 14.1787 880 56.6545 1372.5 548.145
2652 0 63.029 13.2479 835 58.3114 1372.56 546.237
2653 0 63.1186 13.9262 879 58.091 1372.97 545.16
2654 0 68.0916 13.4084 913 58.7097 1372.84 544.37
2655 0 70.107 14.4065 1010 57.2059 1372.86 543.755
2656 0 71.1088 13.5426 963 59.1931 1372.62 542.321
2657 0 74.0865 13.4302 995 58.603 1372.63 541.22
2658 0 77.1779 13.0089 1004 59.0747 1372.48 538.846
2659 0 77.1779 12.983 1002 175.873 1371.49 538.812
2660 1 41.1499 11.9806 493 58.927 1372.79 557.014
2661 0 43.0823 12.3949 534 58.7509 1372.25 556.129
2662 0 44.0421 11.7615 518 59.9208 1372.56 555.181
2663 0 47.1113 12.8419 605 57.9554 1372.29 554.835
2664 0 47.1444 13.1511 620 57.7935 1372.19 553.942
2665 0 46.144 12.5043 577 59.0329 1372.09 553.612
2666 0 48.0838 13.1021 630 58.3794 1372.08 553.168
2667 0 51.0558 13.0445 666 58.003 1371.98 551.809
2668 0 53.1804 13.4824 717 57.1967 1372.03 551.971
2669 0 55.1348 13.3854 738 58.0921 1371.88 550.753
2670 0 57.0613 14.3355 818 55.9841 1372.07 551.72
2671 0 56.1313 13.7357 771 58.2931 1371.9 547.875
2672 0 59.0895 12.8618 760 58.3829 1372.01 548.567
2673 0 61.0602 13.0363 796 58.4686 1372.09 547.902
2674 0 62.1392 12.9226 803 58.5803 1372.42 547.004
2675 0 66.1996 14.7131 974 56.0041 1372.33 546.589
2676 0 67.153 13.3278 895 57.8279 1372.43 545.15
2677 0 68.054 13.9889 952 57.52 1372.02 542.793
2678 0 70.1342 13.1177 920 58.0967 1372.16 543.492
2679 0 73.1551 13.5739 993 57.1279 1371.76 541.35
2680 0 77.0636 13.7549 1060 56.6821 1371.73 540.192
2681 0 78.1068 13.8656 1083 56.5337 1371.72 537.78
2682 0 82.1143 13.4568 1105 56.4679 1371.7 538.815
2683 0 84.0679 13.3939 1126 56.6279 1371.36 537.054
2684 1 42.1468 11.5074 485 56.7464 1371.58 557.544
2685 0 45.0672 11.9377 538 55.9312 1371.35 555.814
2686 0 46.0567 12.8537 592 55.6774 1371.38 554.576
2687 0 47.0489 12.7314 599 56.9349 1371.64 553.78
2688 0 47.2559 12.2524 579 57.7876 1371.2 552.995
2689 0 50.0973 12.2761 615 57.9236 1370.91 552.779
2690 0 52.2348 13.6499 713 56.2258 1370.94 552.132
2691 0 54.1365 14.0755 762 56.147 1370.93 551.34
2692 0 56.1559 13.0529 733 57.502 1370.35 551.087
2693 0 58.2336 13.2913 774 56.8088 1370.73 550.952
2694 0 58.1502 13.104 762 57.5958 1369.89 549.429
2695 0 58.1502 13.104 762 158.232 1368.89 549.429
2696 0 62.1369 13.4542 836 57.3469 1370.51 549.757
2697 0 64.2298 13.3427 857 57.4621 1370.58 548.175
2698 0 66.1279 14.0334 928 56.2144 1369.83 547.283
2699 0 68.1399 13.6778 932 56.8101 1369.4 544.427
2700 0 71.2151 14.1964 1011 56.2186 1369.49 543.774
2701 0 74.2917 13.1912 980 57.3286 1369.51 543.503
2702 0 75.1064 13.7538 1033 56.8703 1369.37 541.646
2703 0 80.4536 13.2002 1062 56.7702 1369.79 542.277
2704 0 81.2189 13.5683 1102 56.549 1369.75 539.834
2705 0 83.2311 12.7356 1060 57.6613 1369.59 537.261
2706 0 86.189 12.6002 1086 57.9006 1369.78 535.925
2707 1 45.1939 11.1741 505 57.2535 1369.68 557.309
2708 0 47.191 11.8879 561 57.0125 1369.82 556.513
2709 0 48.0718 11.6908 562 56.8826 1369.9 555.47
2710 0 50.2035 11.7123 588 57.3078 1369.7 554.121
2711 0 52.2694 12.1295 634 56.795 1370.12 553.361
2712 0 53.3191 12.7534 680 56.4603 1369.98 552.11
2713 0 56.2941 13.3229 750 56.4693 1370.04 550.111
2714 0 56.5906 12.829 726 57.0193 1369.77 549.902
2715 0 59.4167 13.683 813 55.6322 1370 549.49
2716 0 63.2567 14.0222 887 54.0755 1369.58 547.939
2717 0 65.5752 13.8467 908 53.5639 1369.42 548.693
2718 0 67.432 13.673 922 53.9089 1369.4 547.982
2719 0 70.3275 14.5036 1020 52.7451 1369.11 547.267
2720 0 70.3312 13.3653 940 55.0085 1369.03 543.086
2721 0 75.4726 13.4883 1018 53.7927 1368.66 543.094
2722 0 76.514 14.5986 1117 53.2077 1368.96 543.101
2723 0 77.6476 12.6726 984 55.6677 1369.22 541.852
2724 0 77.6476 12.6984 986 175.791 1368.23 541.839
2725 1 44.103 11.0197 486 55.6111 1369.38 558.403
2726 0 46.3065 11.5319 534 54.4513 1369.32 557.581
2727 0 45.1207 12.4112 560 55.0821 1369.17 555.271
2728 0 48.1296 12.217 588 55.2534 1369.16 555.313
2729 0 50.0864 12.1989 611 55.09 1368.57 555.398
2730 0 51.1752 12.975 664 55.4096 1368.85 553.687
2731 0 53.1581 13.1118 697 54.7661 1368.9 554.237
