time division length width area intensity CMx CMy
0 0 78.3235 13.5208 1059 65.6582 1220.35 542.434
1 1 38.1813 10.4501 399 66.6015 1219.65 562.348
2 0 41.1516 11.1296 458 65.917 1219.51 562.031
3 0 43.0703 12.259 528 65.7652 1219.74 559.724
4 0 43.1413 12.4938 539 65.6716 1219.72 558.857
5 0 47.1713 13.2708 626 63.246 1218.97 558.466
6 0 46.0387 12.4026 571 64.732 1219.12 558.377
7 0 50.2116 14.0605 706 61.789 1219.08 558.878
8 0 52.2172 12.9076 674 65.1691 1219.99 556.079
9 0 52.1572 13.7277 716 65.1844 1219.84 556.737
10 0 53.1002 13.0696 694 67.6182 1220.26 554.284
11 0 56.2168 13.2878 747 67.1847 1220.27 553.42
12 0 57.3076 13.4188 769 66.9389 1220.25 552.943
13 0 61.2749 13.366 819 66.2747 1220.11 551.836
14 0 62.2236 13.8693 863 66.1286 1220.82 549.492
15 0 63.1572 12.7935 808 67.9146 1220.73 548.468
16 0 66.1236 13.3084 880 67.217 1220.85 547.288
17 0 69.2822 13.4234 930 66.9548 1220.97 545.703
18 0 73.2984 13.9976 1026 65.0068 1220.86 546.267
19 0 74.2272 13.6069 1010 65.9762 1220.84 543.731
20 0 76.2465 12.9973 991 67.4864 1221.04 542.504
21 0 80.2015 13.6032 1091 66.088 1221.24 542.12
22 0 81.2818 15.0218 1221 65.1826 1221.26 540.813
23 0 86.2188 13.9993 1207 66.2022 1221.51 541.163
24 0 87.3221 13.9484 1218 66.8186 1221.36 539.441
25 1 139.329 13.7229 1912 66.1454 1221.62 518.037
26 0 142.618 15.1874 2166 65.4303 1221.63 513.037
27 0 149.484 14.5969 2182 66.1187 1221.44 512.354
28 1 51.2517 12.0972 620 65.171 1221.19 556.537
29 0 50.2225 11.5486 580 66.4241 1221.45 555.578
30 0 54.2186 12.5603 681 64.6579 1221.38 555.401
31 0 55.129 12.9333 713 65.1613 1221.72 553.236
32 0 58.1454 13.0019 756 63.8862 1221.85 554.956
33 0 60.1897 12.6267 760 65.2632 1222.41 553.553
34 0 62.1797 12.5443 780 65.809 1222.61 553.559
35 0 65.1102 12.7323 829 65.9698 1222.5 551.087
36 0 69.146 12.5965 871 65.8163 1222.55 551.676
37 0 71.1644 12.703 904 65.6847 1222.73 551.593
38 0 72.1591 13.1099 946 65.3658 1222.78 550.789
39 0 77.0813 14.6988 1133 62.8332 1222.21 549.725
40 0 77.0756 13.1429 1013 65.2349 1222.52 547.23
41 0 79.0756 13.4175 1061 64.7389 1222.48 545.759
42 0 84.1034 13.4358 1130 63.8504 1222.77 545.22
43 0 88.0999 12.6561 1115 64.4664 1222.79 544.996
44 0 89.1046 12.9286 1152 64.3828 1222.71 542.945
45 1 48.0388 10.3666 498 63.5763 1223.82 563.388
46 0 50.0906 10.1416 508 63.4882 1223.72 562.598
47 0 50.0741 10.5643 529 64.225 1223.43 560.44
48 0 52.1871 11.8612 619 62.7399 1222.25 559.971
49 0 53.1881 11.5439 614 62.6743 1222.63 559.479
50 0 55.1778 11.3995 629 62.7695 1221.95 558.514
51 0 57.1519 11.3382 648 62.8395 1222.41 557.537
52 0 61.2284 10.2567 628 63.5844 1221.83 558.256
53 0 61.1793 11.8995 728 61.853 1221.78 556.624
54 0 61.1604 11.3309 693 61.1862 1221.33 557.219
55 0 67.1525 13.2981 893 54.6125 1221.19 552.55
56 0 69.0964 12.895 891 55.3951 1222.3 549.674
57 0 71.0602 12.8623 914 55.7243 1222.54 549.472
58 0 73.0793 12.7259 930 56.1828 1222.31 548.677
59 0 76.121 13.3997 1020 54.8206 1222.06 550.078
60 0 75.0568 11.8577 890 57.4876 1222.63 547.216
61 0 81.1802 12.7987 1039 56.2858 1222.56 544.996
62 0 89.2431 10.6003 946 57.6131 1222.56 546.344
63 0 90.2128 12.9583 1169 55.6245 1221.93 543.851
64 0 88.2649 12.7457 1125 56.5858 1222.07 543.021
65 0 93.2465 13.8557 1292 55.3661 1222.23 538.859
66 0 93.2705 12.7693 1191 56.8018 1222.18 536.701
67 0 98.3612 13.1556 1294 55.9212 1222.88 536.38
68 0 100.328 13.5655 1361 55.2278 1223.26 535.167
69 0 102.306 13.3521 1366 55.4649 1223.78 533.179
70 0 106.319 14.4659 1538 53.8739 1223.86 532.335
71 0 108.448 12.5959 1366 55.7694 1223.15 528.466
72 0 110.45 12.4943 1380 54.8587 1223.86 532.636
73 0 116.204 12.6588 1471 54.8858 1224.04 526.899
74 0 120.361 14.4814 1743 53.5037 1223.83 523.095
75 0 125.427 14.646 1837 52.7349 1224.84 523.002
76 0 129.479 13.4539 1742 53.9489 1224.67 520.185
77 0 131.295 13.283 1744 54.0791 1224.61 514.772
78 0 137.243 13.5089 1854 53.3501 1224.74 515.673
79 0 145.295 11.2255 1631 54.8007 1225.26 515.866
80 0 143.295 13.1407 1883 54.0409 1225.46 509.465
81 0 149.644 13.4453 2012 53.4453 1225.82 508.475
82 0 148.493 11.3473 1685 55.4819 1225.8 507.065
83 0 159.597 13.2396 2113 54.4269 1225.73 500.663
84 1 170.579 12.0765 2060 55.0927 1225.75 500.065
85 0 169.282 12.8247 2171 55.0152 1225.85 497.001
86 0 176.344 13.9841 2466 53.412 1226.08 492.192
87 0 181.261 14.493 2627 52.9475 1226.41 484.442
88 0 187.338 15.5922 2921 50.9664 1226.39 484.699
89 1 153.106 11.5541 1769 51.0362 1226.32 512.448
90 0 149.098 9.90625 1477 52.9445 1226.07 510.963
91 0 149.193 9.12243 1361 58.4034 1226.79 506.404
92 0 150.248 10.9086 1639 60.4204 1227.37 501.234
93 0 157.379 12.1427 1911 58.1596 1227.39 498.566
94 0 162.315 13.3382 2165 55.7584 1227.33 493.784
95 0 167.343 14.1984 2376 52.75 1227.07 495.413
96 0 170.519 12.1453 2071 54.465 1227.55 493.543
97 0 177.604 14.4704 2570 74.0981 1227.46 491.375
98 0 180.467 13.5648 2448 52.964 1226.59 488.212
99 0 189.678 15.1045 2865 51.6017 1226.9 484.754
100 0 193.555 13.0919 2534 54.8733 1227.54 480.459
101 0 198.582 13.2086 2623 54.6134 1227.81 478.478
102 0 205.487 13.9668 2870 53.7662 1227.66 473.518
103 0 214.478 13.6984 2938 54.0225 1227.78 470.008
104 1 50.0534 10.1092 506 51.3498 1227.38 551.622
105 0 52.1701 11.1558 582 51.1237 1227.52 549.289
106 0 55.2959 10.1093 559 52.619 1228.47 549.209
107 0 56.2418 11.1483 627 52.4115 1227.85 547.341
108 0 60.202 11.3119 681 50.6828 1227.78 547.877
109 0 61.1151 11.4702 701 49.5606 1228.47 545.922
110 0 62.1982 12.621 785 47.1631 1228.06 545.068
111 0 63.226 11.6092 734 48.1798 1228 544.493
112 0 64.2308 11.7856 757 48.8494 1227.66 544.355
113 0 66.3013 11.4025 756 49.4299 1227.79 543.292
114 0 69.2095 12.3827 857 49.0735 1227.57 540.982
115 0 69.2095 12.3971 858 148.14 1227.57 540.98
116 0 72.2107 10.8156 781 50.6018 1227.45 540.417
117 0 74.3575 12.2516 911 50.596 1227.63 538.124
118 0 78.2723 13.1209 1027 50.0438 1227.99 533.007
119 0 81.383 12.9388 1053 50.15 1228.23 523.743
120 0 85.2525 13.6301 1162 48.9406 1228.37 528.397
121 0 89.4404 12.5335 1121 49.1151 1228.54 532.56
122 1 47.2818 10.8498 513 48.6589 1229.25 548.559
123 0 47.3579 11.7193 555 48.4468 1228.97 547.69
124 0 49.2605 11.1042 547 49.3144 1228.87 548.079
125 0 48.0728 10.4425 502 46.8108 1228.28 545.526
126 0 52.0768 11.291 588 45.8963 1228.25 548.01
127 0 52.0621 11.4479 596 46.8943 1228.27 546.138
128 0 53.1438 12.6073 670 45.4313 1227.8 545.757
129 0 56.2606 11.9089 670 49.1209 1229.01 547.342
130 0 58.153 11.5901 674 49.6677 1228.41 547.15
131 0 62.153 12.791 795 48.8038 1228.4 545.977
132 0 63.1132 11.2496 710 50.4916 1227.67 545.966
133 0 63.1788 13.6438 862 49.2831 1227.28 544.233
134 0 66.1303 13.5641 897 49.3077 1227.15 545.814
135 0 68.1302 13.5036 920 49.8761 1226.83 543.232
136 0 65.1415 12.588 820 51.6207 1227.13 542.317
137 0 69.2179 12.4968 865 51.4717 1226.85 541.557
138 0 72.2843 13.184 953 50.9759 1227.11 541.071
139 0 71.1663 13.2366 942 51.31 1226.55 541.214
140 0 70.2033 10.9966 772 53.4482 1226.68 541.933
141 0 76.1571 13.7479 1047 51.4222 1226.43 539.104
142 0 76.2156 13.1863 1005 52.2687 1226.48 537.921
143 0 79.1116 13.6769 1082 50.4362 1226.24 536.514
144 0 80.166 13.2974 1066 51.4475 1225.46 532.794
145 0 85.1713 14.5941 1243 49.3041 1226.16 535.224
146 0 86.2022 12.8071 1104 51.5607 1225.84 532.021
147 1 43.1378 9.68988 418 51.244 1225.27 548.811
148 0 45.2538 10.9604 496 50.2944 1225.37 548.282
149 0 45.0519 10.1661 458 51.9367 1226.08 548.653
150 0 50.0676 11.7042 586 50.1706 1226.63 549.398
151 0 50.2791 12.1323 610 52.3787 1227.77 550.315
152 0 52.42 12.3235 646 51.9721 1227.8 550.11
153 0 56.1172 12.563 705 51.8723 1227.76 550.468
154 0 55.1337 12.243 675 53.3793 1228.04 548.402
155 0 59.1824 12.8248 759 53.3386 1227.45 547.549
156 0 59.2019 12.8036 758 53.3298 1227.6 547.858
157 0 60.213 13.1201 790 53.2582 1228.15 547.366
158 0 61.1159 13.7607 841 53.1082 1227.76 546.187
159 0 64.2543 12.824 824 53.8362 1227.79 545.439
160 0 64.0984 13.4325 861 53.9408 1227.92 544.144
161 0 67.0871 13.4601 903 53.2536 1227.68 543.863
162 0 67.0888 13.9815 938 53.1418 1227.47 542.115
163 0 71.0467 14.2864 1015 52.6118 1227.58 541.449
164 0 71.1521 13.9279 991 52.9031 1227.72 543.016
165 0 70.0436 13.2632 929 54.254 1227.75 541.016
166 0 75.0448 14.2582 1070 160.736 1227.66 538.594
167 0 80.1159 15.0782 1208 52.5629 1228.29 535.094
168 0 84.1984 15.4635 1302 51.8426 1228.06 537.318
169 0 83.0809 14.1067 1172 53.6476 1228.12 536.384
170 0 81.068 12.5574 1018 55.2888 1228.32 536.522
171 0 82.0704 13.4519 1104 166.348 1229.27 535.303
172 0 93.1658 14.7586 1375 53.1993 1228.57 529.686
173 0 97.1439 13.5469 1316 54.326 1228.63 527.368
174 0 101.158 14.2846 1445 53.7993 1229.04 526.759
175 0 101.166 14.0165 1418 54.3942 1229.1 526.047
176 1 52.0527 12.2568 638 54.2006 1229.92 549.451
177 0 53.0195 12.4105 658 54.0502 1230.06 547.55
178 0 55.084 13.3432 735 53.4952 1229.58 547.977
179 0 55.0357 12.8644 708 54.7189 1229.87 547.184
180 0 57.1024 13.7998 788 53.9962 1229.75 546.754
181 0 60.101 12.9615 779 55.2413 1230.04 546.932
182 0 65.2136 13.8008 900 53.8133 1229.51 544.223
183 0 64.0915 13.2311 848 54.5566 1229.72 543.769
184 0 68.1771 15.3571 1047 52.7851 1230 542.608
185 0 68.246 13.6858 934 54.5867 1230.4 541.004
186 0 71.1446 13.9575 993 54.3223 1230.62 540.81
187 0 73.1447 13.7125 1003 54.8664 1230.34 536.358
188 0 74.1072 14.7759 1095 53.8064 1230.72 538.45
189 0 77.2189 13.792 1065 55.3427 1230.96 534.803
190 0 82.1981 13.3823 1100 55.4727 1230.98 534.277
191 0 83.2599 13.0675 1088 57.273 1231.36 532.181
192 0 85.1764 13.5718 1156 57.173 1231.79 530.665
193 0 91.1501 14.4048 1313 54.195 1232.03 531.458
194 0 93.1591 14.8885 1387 53.0498 1231.99 526.629
195 0 96.1424 13.5112 1299 53.4242 1231.62 527.287
196 0 97.1578 13.1436 1277 55.0932 1231.25 524.016
197 1 49.0988 12.648 621 53.6522 1231.88 548.316
198 0 51.1259 12.3616 632 54.6503 1231.87 547.07
199 0 53.0712 12.926 686 54.3367 1232.06 547.38
200 0 53.1009 13.0695 694 54.5908 1232.39 545.836
201 0 52.0523 12.8909 671 55.7317 1232.56 545.146
202 0 57.2343 13.2788 760 54.0158 1232.09 545.421
203 0 59.1489 12.663 749 54.6101 1231.63 544.854
204 0 59.1911 11.6065 687 56.5036 1232.09 543.326
205 0 62.2607 12.3031 766 55.577 1232.4 542.6
206 0 62.0917 12.5943 782 56.5192 1232.34 541.311
207 0 64.1646 12.5926 808 56.4257 1232.25 539.693
208 0 67.1983 14.2712 959 54.8259 1231.81 538.848
209 0 68.0519 12.6227 859 56.553 1231.67 539.047
210 0 71.1803 13.3604 951 55.9937 1231.8 536.619
211 0 73.1038 12.8174 937 56.5539 1231.16 534.304
212 0 73.112 12.0226 879 57.5279 1230.86 535.908
213 0 78.1569 12.9739 1014 56.3215 1230.99 534.41
214 0 80.1818 12.6587 1015 57.2335 1230.74 531.478
215 0 83.2373 12.5905 1048 56.937 1230.57 532.885
216 1 45.2002 10.376 469 56.0554 1230.11 550.881
217 0 46.2279 10.6429 492 56.1098 1229.87 548.813
218 0 48.1926 11.7238 565 54.708 1230.35 549.292
219 0 50.3073 12.3839 623 53.4334 1229.84 547.648
220 0 51.1703 12.0382 616 54.026 1229.88 547.227
221 0 53.2844 12.0486 642 53.9688 1229.71 547.64
222 0 57.2039 11.6426 666 54.1096 1229.52 546.973
223 0 55.3468 11.7803 652 54.5506 1229.41 545.543
224 0 58.1207 11.8546 689 54.7547 1229.87 545.071
225 0 59.2054 12.5833 745 54.5208 1230.08 543.324
226 0 61.1269 12.1387 742 54.5283 1229.64 544.534
227 0 63.1625 12.2224 772 54.2461 1229.77 544.106
228 0 65.1373 13.602 886 53.3172 1229.31 542.112
229 0 66.225 13.0464 864 54.1192 1229.55 540.053
230 0 67.1289 13.1687 884 54.2568 1229.47 538.44
231 0 68.1287 12.2856 837 55.1434 1229.14 540.039
232 0 68.1419 11.6815 796 55.9849 1229.43 539.65
233 0 76.257 12.3136 939 54.688 1229.21 538.279
234 0 76.2486 11.7379 895 55.2447 1228.68 538.623
235 0 82.2202 11.8341 973 55.3525 1229.01 536.412
236 0 87.2004 11.8463 1033 54.7715 1229.09 534.322
237 0 85.1749 13.0555 1112 54.795 1228.97 530.853
238 0 88.3478 12.7338 1125 55.1147 1228.22 533.266
239 1 49.2774 12.2977 606 52.4868 1228.23 551.429
240 0 48.2495 10.2384 494 54.8178 1227.49 551.773
241 0 49.2743 11.3244 558 54.0394 1227.95 551.432
242 0 53.2254 14.0347 747 51.826 1228.12 548.884
243 0 53.1216 11.4643 609 54.7209 1227.47 550.156
244 0 53.2636 12.1659 648 54.7454 1227.77 548.773
245 0 55.0585 12.3323 679 54.7393 1228.21 548.355
246 0 56.279 12.2248 688 55.0029 1228.35 549.065
247 0 56.1192 12.4556 699 55.093 1227.68 550.386
248 0 60.208 12.2409 737 55.3582 1227.81 548.662
249 0 61.2028 12.7118 778 55.8856 1227.6 547.051
250 0 61.2021 12.4342 761 56.5335 1227.43 544.922
251 0 66.159 13.4827 892 55.0874 1227.5 544.599
252 0 66.4704 13.7054 911 55.517 1227.44 543.693
253 0 67.3699 12.8989 869 57.2267 1227.75 543.321
254 0 70.2773 13.4467 945 56.8053 1227.09 543.089
255 0 72.1872 13.4373 970 57.1979 1227.34 542.019
256 0 79.362 11.8823 943 58.421 1227.5 538.907
257 0 82.585 12.2661 1013 57.4926 1227.1 540.84
258 0 82.2218 13.9501 1147 56.6399 1227.16 538.753
259 0 83.2964 14.4304 1202 56.7421 1227.29 537.735
260 0 87.4264 14.3664 1256 56.957 1227.07 537.252
261 0 91.3175 14.2251 1299 56.863 1226.55 535.343
262 1 50.1074 10.8966 546 58.6648 1226.9 555.352
263 0 53.075 14.0367 745 56.243 1226.64 553.491
264 0 53.0858 12.2632 651 58.5853 1226.44 552.49
265 0 54.1538 12.5568 680 58.6779 1226.84 551.069
266 0 56.268 12.085 680 59.6603 1226.01 550.752
267 0 59.1109 14.4136 852 57.7606 1225.9 548.756
268 0 60.2773 13.4711 812 59.3929 1226.25 547.878
269 0 63.1888 12.613 797 59.6048 1226.73 549.201
270 0 63.1297 13.5119 853 59.2485 1227.13 547.771
271 0 65.1562 13.4446 876 59.3162 1227.33 547.853
272 0 67.1405 13.643 916 59.4432 1226.88 544.856
273 0 68.1574 13.5422 923 59.7389 1226.46 543.898
274 0 72.29 13.5842 982 59.5346 1227.18 541.565
275 0 74.1907 13.9236 1033 58.9564 1227.22 542.172
276 0 76.4116 13.6759 1045 59.4354 1227.65 540.627
277 0 78.2856 13.8595 1085 59.0433 1227.46 541.938
278 0 83.2563 14.4494 1203 58.4314 1227.6 538.089
279 0 82.3822 13.4981 1112 60.5414 1228.09 535.7
280 0 86.4537 13.8803 1200 59.1583 1227.89 536.438
281 0 88.2427 13.7462 1213 60.1698 1228.21 533.195
282 1 43.2816 11.2057 485 60.9052 1228.94 554.216
283 0 46.216 9.95327 460 61.2587 1228.71 553.894
284 0 49.1914 11.1808 550 60.3273 1228.68 553.951
285 0 51.319 11.6331 597 60.1273 1228.24 552.39
286 0 51.2656 13.6544 700 58.6829 1228.94 550.833
287 0 51.2656 13.6349 699 165.501 1228.95 550.824
288 0 55.2525 12.5243 692 59.7818 1229.29 550.704
289 0 56.3755 12.3635 697 60.4749 1229.1 547.103
290 0 59.2638 13.8871 823 58.4508 1229.78 546.716
291 0 60.1454 12.7192 765 59.7869 1230.19 546.716
292 0 61.1699 12.9312 791 60.3388 1230.2 544.832
293 0 63.1796 13.1372 830 60.2626 1229.84 543.088
294 0 66.1957 13.6414 903 59.2713 1230.06 543.12
295 0 68.1883 13.8293 943 59.4836 1230.05 541.919
296 0 68.1456 13.4712 918 60.6917 1230.48 539.365
297 0 69.2238 12.2212 846 62.4823 1230.62 539.121
298 0 74.1543 14.6721 1088 58.9945 1230.94 537.185
299 0 75.1125 12.9672 974 61.0277 1231.15 536.397
300 0 80.2439 14.5432 1167 59.2425 1231.21 534.434
301 1 41.2355 9.70038 400 61.38 1232.16 552.92
302 0 41.2355 9.82163 405 168.442 1233.17 552.704
303 0 43.0759 10.377 447 61.094 1232.08 551.855
304 0 45.0511 11.1429 502 59.7112 1232.18 551.177
305 0 47.0467 11.6055 546 59.5055 1232.62 551.722
306 0 48.0526 11.862 570 60.593 1232.5 548.226
307 0 48.2422 12.0434 581 61.0551 1231.43 547.971
308 0 51.2359 12.0228 616 60.8214 1231.26 547.657
309 0 54.243 12.8865 699 60.0773 1231.64 545.78
310 0 52.1819 12.8397 670 60.9627 1231.85 545.451
311 0 54.1549 11.9472 647 60.8887 1231.37 548.036
312 0 57.2099 12.9698 742 60.6429 1231.22 544.85
313 0 58.1902 12.2014 710 61.4859 1231.62 544.844
314 0 60.1854 13.0098 783 60.6284 1231.36 543.591
315 0 62.1368 13.7761 856 60.3727 1231.27 542.099
316 0 62.1922 12.992 808 61.4554 1231.58 542.004
317 0 63.1757 12.8689 813 62.1574 1231.49 542.444
318 0 68.1469 13.1334 895 61.1698 1231.17 539.063
319 0 67.1068 13.1283 881 61.773 1231.49 539.035
320 0 68.0735 13.03 887 61.9605 1230.97 539.77
321 0 74.103 13.6702 1013 61.2369 1231.08 536.486
322 0 74.1467 13.4733 999 61.3824 1231.19 536.941
323 0 79.0469 14.5483 1150 60.4504 1231.01 533.621
324 0 81.0998 13.6005 1103 61.1242 1230.73 533.402
325 0 81.2148 12.8179 1041 62.3622 1230.15 532.049
326 1 43.1482 11.333 489 61.409 1230.6 550.571
327 0 46.192 11.279 521 61.4645 1230.75 550.221
328 0 47.0653 11.7496 553 61.7722 1230.62 549.492
329 0 47.2477 11.7043 553 62.8517 1230 549.08
330 0 49.1897 11.9334 587 62.7547 1230.06 547.55
331 0 51.127 12.6939 649 61.4345 1230.21 547.424
332 0 50.1754 12.2969 617 62.1507 1230.41 548.19
333 0 53.2137 12.2337 651 62.023 1230.08 546.123
334 0 53.1925 12.2762 653 62.268 1229.75 547.009
335 0 54.1431 11.9129 645 62.9023 1229.62 545.757
336 0 54.1431 11.9129 645 158.416 1229.61 545.854
337 0 58.2305 12.502 728 61.7184 1229.8 544.273
338 0 62.1388 14.1457 879 59.3561 1229.34 543.27
339 0 62.141 13.3889 832 60.4111 1228.91 542.322
340 0 64.2166 14.2175 913 59.8171 1229.17 542.347
341 0 67.1811 13.5306 909 60.506 1228.88 541.141
342 0 68.3063 11.9901 819 62.1526 1229.35 539.803
343 0 69.3061 14.0392 973 60.5663 1229.18 538.548
344 0 73.3943 13.3798 982 60.9053 1229.08 538.166
345 0 79.4248 11.9106 946 61.6342 1228.57 538.26
346 0 78.2589 13.3531 1045 61.3321 1228.57 533.852
347 0 80.1918 13.979 1121 60.3417 1228.87 536.963
348 0 84.3511 13.918 1174 60.7317 1228.83 533.618
349 1 47.1867 11.1684 527 61.5294 1228.98 552.573
350 0 47.2061 11.8629 560 61.2625 1228.61 550.52
351 0 46.2495 11.2866 522 62.6743 1228.31 551.222
352 0 50.2193 13.5804 682 59.3974 1228.11 550.295
353 0 48.1172 12.5527 604 61.3758 1227.92 550.939
354 0 51.2071 11.9905 614 61.5244 1228.24 550.948
355 0 54.2431 13.6054 738 60.4824 1227.48 547.829
356 0 56.2087 13.0585 734 61.282 1227.35 546
357 0 56.1294 13.9855 785 60.828 1227.29 546.139
358 0 59.1186 12.9401 765 61.0118 1226.78 548.362
359 0 61.1667 13.7166 839 60.9464 1227.49 544.564
360 0 61.1269 13.153 804 62.0734 1227.61 543.744
361 0 64.0994 13.2139 847 61.8288 1227.71 544.353
362 0 64.1071 13.2747 851 62.651 1228.21 542.309
363 0 66.1954 14.14 936 61.2308 1227.92 542.031
364 0 71.1778 13.2907 946 62.1364 1228.55 540.109
365 0 76.1488 13.1322 1000 61.593 1228.59 539.726
366 0 76.1519 13.3418 1016 62.5039 1228.58 539.312
367 0 77.0975 12.6982 979 63.4648 1228.14 537.933
368 0 81.2986 13.9117 1131 62.1662 1228.26 535.821
369 0 83.1579 13.1076 1090 63.4587 1228.58 533.625
370 0 86.2951 15.1225 1305 61.1034 1228.78 530.819
371 0 88.1873 12.8817 1136 63.6725 1227.96 530.804
372 1 48.0919 12.5593 604 62.457 1228.86 549.558
373 0 49.105 12.7889 628 62.2564 1228.83 549.818
374 0 48.0788 12.6459 608 63.375 1229.3 549.188
375 0 52.1176 13.6998 714 61.451 1229.13 548.035
376 0 54.1711 13.0697 708 60.9986 1228.92 547.032
377 0 56.2378 13.5674 763 60.4758 1228.94 546.227
378 0 58.1503 13.6371 793 60.3569 1229.18 545.453
379 0 58.1027 13.4589 782 61.2378 1229.13 543.5
380 0 61.1402 14.5076 887 59.7012 1228.93 542.369
381 0 63.2314 14.8028 936 59.3857 1229.59 541.817
382 0 63.2314 14.8028 936 149.61 1230.58 541.795
383 0 67.1456 13.7314 922 60.5477 1229.49 540.375
384 0 68.1387 13.7954 940 61.0777 1229.57 539.137
385 0 71.0613 13.2139 939 61.5272 1229.56 537.666
386 0 72.176 14.4092 1040 60.3413 1229.57 535.509
387 0 75.0566 13.8162 1037 60.5121 1230.06 536.129
388 0 79.1277 14.5966 1155 59.4745 1230.46 534.977
389 0 80.1016 13.6327 1092 60.7848 1231 532.443
390 0 84.1383 14.2385 1198 59.9215 1230.53 530.562
391 0 87.1766 14.1667 1235 59.5401 1230.42 528.691
392 0 89.174 13.569 1210 60.319 1230.78 528.66
393 0 93.247 14.4777 1350 59.1978 1231.49 527.966
394 0 93.1098 14.0587 1309 60.2002 1231.43 525.422
395 0 98.1977 13.8089 1356 60.1143 1231.63 523.085
396 0 98.1618 14.5474 1428 59.2507 1231.75 522.799
397 1 54.0989 11.7747 637 59.2763 1232.08 545.411
398 0 58.1497 12.6054 733 58.3888 1232.06 543.854
399 0 58.1581 12.4832 726 58.814 1231.97 542.603
400 0 58.1499 12.141 706 58.6416 1231.99 541.688
401 0 64.248 12.2183 785 58.2433 1231.99 539.557
402 0 65.2206 12.3581 806 58.0335 1232.36 539.226
403 0 68.1857 13.3752 912 56.7566 1232.04 537.453
404 0 72.1155 12.6741 914 56.6838 1232.16 538.18
405 0 75.248 11.5751 871 57.7853 1232.14 537.002
406 0 73.1446 12.3317 902 58.4024 1232.27 533.955
407 0 76.1214 13.4916 1027 57.5102 1232.13 533.235
408 0 80.1529 12.7132 1019 57.9352 1231.98 532.837
409 0 82.1681 13.5941 1117 56.6508 1231.53 532.653
410 0 83.1463 13.374 1112 57.8642 1231.78 529.873
411 0 89.1105 13.5899 1211 56.9604 1231.85 528.098
412 0 91.1896 13.7954 1258 56.461 1231.81 526.269
413 0 94.2523 13.6336 1285 56.793 1231.93 525.923
414 0 97.1628 12.7415 1238 57.8118 1231.79 523.247
415 1 53.1574 12.3407 656 56.5793 1232.09 543.887
416 0 55.1407 11.9512 659 56.3399 1232.41 544.865
417 0 55.2544 12.3429 682 56.4589 1231.52 543.254
418 0 60.2759 12.4096 748 56.0896 1230.75 543.5
419 0 62.1235 12.1693 756 56.4021 1230.5 541.503
420 0 63.2349 12.8885 815 55.5411 1230.4 540.818
421 0 63.1431 12.5429 792 56.4091 1229.9 540.563
422 0 66.1222 12.5979 833 55.6759 1229.21 540.94
423 0 68.085 12.3669 842 56.3314 1229.11 538.878
424 0 69.1356 12.4393 860 56.0407 1229.3 537.712
425 0 70.2173 11.9059 836 56.622 1228.75 537.219
426 0 73.1744 12.7367 932 55.8273 1229.26 535.802
427 0 75.114 12.5143 940 55.8628 1229.6 533.926
428 0 79.1629 12.9227 1023 55.6745 1229.81 532.64
429 0 81.0744 13.3828 1085 55.5484 1229.35 532.86
430 0 84.1183 13.3978 1127 55.7028 1229.92 530.936
431 0 88.0987 13.4849 1188 55.5109 1229.48 530.068
432 0 91.104 14.95 1362 54.514 1229.46 527.797
433 0 94.1044 14.4414 1359 55.3657 1228.77 526.429
434 0 95.1253 14.0341 1335 55.7221 1228.33 526.249
435 0 100.261 13.7841 1382 56.2931 1228.24 522.983
436 1 51.0743 10.4554 534 56.0955 1229.12 548.803
437 0 54.0972 11.313 612 55.7124 1229.04 548.142
438 0 52.0192 10.4577 544 57.8052 1228.36 544.311
439 0 57.1546 12.4399 711 54.7862 1227.16 545.813
440 0 58.2193 12.5388 730 55.3918 1227.15 545.194
441 0 60.0952 13.6284 819 54.5165 1226.99 543.788
442 0 64.1658 13.2781 852 54.6362 1227.66 543.582
443 0 64.2191 13.0024 835 55.588 1227.6 543.123
444 0 66.1812 12.5715 832 56.2584 1227.28 542.369
445 0 67.2563 12.9059 868 56.3214 1227.79 541.116
446 1 78.1985 11.1127 869 56.588 1228.34 541.582
447 0 77.1145 11.9562 922 56.7213 1227.64 538.114
448 0 78.1597 13.1781 1030 55.8252 1228.98 537.018
449 0 75.1305 12.272 922 57.4664 1229.07 537.373
450 0 79.1576 13.9216 1102 55.6515 1228.68 534.962
451 0 81.1022 13.9207 1129 55.7148 1228.08 535.089
452 0 85.1247 13.1807 1122 56.4144 1228.38 533.168
453 0 93.1338 12.7988 1192 56.0025 1228.08 531.63
454 0 90.082 14.0983 1270 55.9402 1228.25 526.442
455 0 94.1854 14.3122 1348 55.1506 1228.55 528.771
456 0 94.1527 13.9985 1318 55.4947 1228.78 527.954
457 0 99.1638 14.1181 1400 54.8314 1227.79 522.309
458 0 100.15 13.979 1400 55.1064 1228.1 522.463
459 1 58.1074 10.7387 624 55.609 1228.23 544.636
460 0 59.1693 12.1685 720 54 1228.07 544.7
461 0 57.0467 12.7089 725 55.0055 1227.83 544.15
462 0 63.1479 14.1889 896 53.6429 1228.66 545.616
463 0 63.1605 13.1728 832 55.6755 1228.17 543.865
464 0 64.2711 12.774 821 56.1583 1228.47 544.017
465 0 68.0634 13.9576 950 55.2968 1227.87 542.339
466 0 67.0622 12.2722 823 57.7375 1228.2 541.354
467 0 70.0617 13.7593 964 56.5239 1227.45 540.595
468 0 74.0942 12.7001 941 57.0329 1228.03 540.235
469 0 77.101 14.2929 1102 55.9946 1228.1 539.044
470 0 76.1014 13.3375 1015 57.6749 1228.4 537.057
471 0 78.0877 12.7549 996 58.4548 1228.16 536.549
472 0 84.1796 14.7423 1241 56.1555 1228.07 534.241
473 0 90.1472 12.4241 1120 58.0429 1228.18 534.784
474 0 89.1475 12.799 1141 58.5592 1228.36 532.363
475 0 91.2055 14.6044 1332 56.5008 1228.31 533.887
476 0 92.2906 13.295 1227 58.3496 1228.56 531.044
477 0 93.1978 13.8952 1295 58.2672 1228.38 528.985
478 1 54.0587 12.0055 649 57.1464 1227.86 550.106
479 0 53.0632 12.3626 656 57.1082 1228.06 549.902
480 0 56.12 13.0613 733 56.3029 1228.47 547.801
481 0 58.1019 12.7707 742 56.31 1228.66 547.666
482 0 59.1171 13.025 770 56.1221 1228.85 547.288
483 0 61.1035 14.1727 866 55.4342 1228.59 544.614
484 0 63.1712 13.7088 866 55.5427 1228.59 543.311
485 0 65.1034 12.9179 841 56.6136 1228.63 543.048
486 0 67.115 14.0356 942 55.2962 1228.61 543.41
487 0 66.1541 13.4686 891 56.7318 1228.58 541.281
488 0 71.1048 12.2917 874 57.0812 1228.03 540.596
489 0 73.1164 13.2665 970 55.6536 1228.08 539.553
490 0 73.0771 13.1231 959 56.1084 1228.68 538.33
491 0 80.1566 13.9477 1118 54.3157 1229.06 537.494
492 0 79.048 13.0427 1031 55.934 1229.19 535.737
493 1 40.0495 10.3872 416 56.25 1229.81 553.832
494 0 43.0198 10.53 453 55.426 1229.88 552.34
495 0 44.044 12.3059 542 53.8284 1229.89 551.956
496 0 47.0951 11.1901 527 53.8729 1230.08 552.533
497 0 47.1025 13.2902 626 52.7907 1229.84 550.069
498 0 50.0775 12.3009 616 53.5308 1230.23 548.784
499 0 52.1678 13.4566 702 52.7279 1229.67 546.595
500 0 53.2146 12.365 658 54.0699 1230.31 545.869
501 0 54.1239 13.0442 706 53.5057 1230.52 544.861
502 0 54.2078 13.6881 742 53.1226 1230.24 544.836
503 0 57.1583 13.6113 778 52.4846 1230.27 544.168
504 0 59.0941 13.5547 801 52.9164 1230.21 542.854
505 0 62.1664 12.9974 808 53.4963 1230.55 541.343
506 0 63.1723 13.3128 841 53.0904 1230.23 540.912
507 0 65.151 14.5508 948 52.23 1229.44 538.981
508 0 71.1685 14.1214 1005 52.006 1229.92 538.566
509 0 68.086 13.248 902 53.7073 1229.85 538.692
510 0 67.1643 11.5389 775 55.4903 1229.62 538.05
511 0 76.1912 14.5555 1109 51.7439 1229.58 537.66
512 0 78.1354 13.3742 1045 53.1885 1229.21 536.658
513 0 79.1403 13.5708 1074 54.1918 1229.28 534.501
514 0 81.0864 13.2451 1074 54.3585 1228.64 532.398
515 0 85.2275 13.3877 1141 54.1166 1229.04 531.032
516 0 86.0919 12.8816 1109 54.4346 1229.08 529.794
517 0 88.1043 14.3693 1266 52.7536 1229.39 529.951
518 1 48.0547 10.6337 511 53.9022 1229.45 549.591
519 0 51.1927 12.1502 622 52.9341 1229.72 547.17
520 0 51.1927 12.1111 620 161.631 1230.74 547.171
521 0 54.2325 11.801 640 53.2297 1230.65 547.836
522 0 53.1045 11.9387 634 53.541 1231.33 546.03
523 0 56.211 13.2003 742 52.3639 1231.38 545.776
524 0 55.1253 14.2584 786 52.2137 1231.4 544.529
525 0 58.1474 13.3626 777 53.4453 1231.05 541.652
526 0 60.3013 13.2335 798 53.0363 1231.63 543.31
527 0 61.2608 13.2875 814 53.7494 1230.7 540.772
528 0 62.2549 13.011 810 54.5383 1231.11 540.536
529 0 64.0822 13.3266 854 53.7447 1230.88 540.967
530 0 69.1527 13.6365 943 53.4634 1231.46 539.213
531 0 70.1614 13.2837 932 53.7511 1231.62 538.066
532 0 72.2014 13.8501 1000 54.093 1231.63 536.514
533 0 74.3757 13.5125 1005 54.0537 1231.96 535.863
534 0 77.2348 13.9445 1077 53.7419 1232.26 535.107
535 0 77.3454 14.4288 1116 53.9937 1232.46 532.643
536 0 81.2578 13.8694 1127 54.8864 1232.42 529.8
537 0 83.1742 14.4516 1202 54.8602 1232.31 528.46
538 0 85.2761 13.4622 1148 56.1368 1232.79 526.814
539 0 86.2413 13.9724 1205 55.6963 1232.36 528.477
540 0 90.3291 16.0524 1450 53.8959 1232.26 525.073
541 0 93.3147 14.0814 1314 56.2793 1231.92 524.269
542 0 94.3551 14.5726 1375 55.7658 1232.07 522.562
543 0 95.2483 14.6564 1396 56.3295 1231.79 523.33
544 0 103.215 13.5155 1395 56.7147 1231.74 521.624
545 0 103.249 15.2544 1575 55.854 1231.45 517.196
546 0 105.098 14.4817 1522 56.7438 1231.37 515.978
547 0 108.433 14.7464 1599 56.6141 1230.74 513.28
548 0 114.327 14.6859 1679 56.3317 1230.72 510.076
549 0 117.227 14.9709 1755 56.2507 1230.8 508.29
550 0 120.235 14.8792 1789 56.611 1230.84 507.084
551 0 124.158 14.989 1861 56.683 1230.6 506.846
552 0 132.129 13.676 1807 57.7067 1230.94 505.623
553 0 132.425 15.6692 2075 56.5258 1231.02 501.888
554 0 137.307 15.2505 2094 56.9518 1230.52 501.353
555 0 142.213 16.0675 2285 56.5256 1231.43 497.311
556 0 147.51 17.0564 2516 55.2894 1230.66 495.607
557 0 149.35 16.1968 2419 56.6879 1230.48 493.059
558 0 155.275 15.0765 2341 59.9991 1230.79 490.313
559 0 162.484 16.6047 2698 56.2272 1230.64 488.848
560 0 166.602 15.6661 2610 57.7395 1230.7 486.711
561 0 167.503 14.9311 2501 58.8768 1230.25 486.504
562 0 175.416 15.6656 2748 57.9021 1230.11 480.688
563 0 183.453 15.7261 2885 58.0267 1230.07 477.137
564 0 187.413 15.8847 2977 58.3016 1230.33 474.561
565 0 190.53 16.1234 3072 58.0098 1230.17 471.496
566 0 197.404 16.0837 3175 58.0091 1229.52 467.186
567 0 202.474 16.3181 3304 57.8251 1229.68 465.174
568 0 209.549 16.106 3375 57.9899 1230.06 462.772
569 0 219.53 17 3732 56.6712 1230.2 457.547
570 0 225.57 17.1787 3875 56.4888 1230.02 455.725
571 0 232.447 15.5777 3621 58.5211 1229.76 452.518
572 0 238.559 16.9224 4037 57.0604 1229.35 441.273
573 1 56.3116 11.5962 653 55.0214 1229.54 541.579
574 0 56.2237 12.9305 727 53.8102 1229.27 540.542
575 0 58.2346 12.3981 722 54.4695 1228.74 541.037
576 0 58.3348 10.954 639 57.0172 1228.45 539.621
577 0 61.3697 11.7159 719 55.9903 1228.12 538.865
578 0 62.5577 12.0689 755 56.5748 1227.74 538.234
579 0 65.3959 12.0191 786 56.1081 1227.75 537.851
580 0 71.3027 11.1777 797 56.4178 1227.7 537.97
581 0 69.5577 11.7313 816 56.4191 1228.19 533.556
582 0 69.4814 12.1327 843 55.7604 1228.03 534.511
583 0 73.631 11.5576 851 55.926 1227.62 533.047
584 0 74.5819 11.9332 890 55.8888 1228.17 531.943
585 0 76.611 12.9224 990 55.2828 1227.1 530.509
586 0 79.7613 11.8102 942 56.0223 1226.6 530.702
587 0 80.5057 11.6141 935 56.0118 1227.1 527.149
588 0 86.7034 11.6258 1008 55.6925 1227.09 529.012
589 1 47.4336 11.3 536 54.334 1226.88 545.349
590 0 47.4722 11.4172 542 55.1144 1227.05 542.956
591 0 51.4201 11.7269 603 53.136 1226.52 544.906
592 0 49.4534 11.0811 548 53.5511 1227.01 544.757
593 0 55.3137 11.8235 654 52.9342 1227.49 543.368
594 0 55.3777 13.2906 736 51.3057 1227.08 543.702
595 0 54.5289 12.2504 668 52.6811 1226.74 542.832
596 0 58.7308 13.0255 765 50.9621 1226.66 541.974
597 0 58.6029 13.4976 791 51.134 1226.73 541.271
598 0 57.6887 10.7993 623 54.0658 1227.32 541.692
599 0 64.6524 12.7606 825 52.7709 1226.28 538.316
600 0 65.7419 13.6899 900 52.0222 1226.8 537.089
601 0 69.3847 14.0377 974 50.9969 1226.11 535.968
602 0 71.4501 14.6396 1046 50.0468 1226.36 537.875
603 0 74.4326 13.3678 995 50.399 1226.21 539.273
604 0 78.9884 14.749 1165 48.9348 1225.95 537.805
605 0 78.5912 16.7449 1316 47.8815 1226.98 533.619
606 0 82.5638 14.5342 1200 49.3942 1225.89 535.468
607 0 80.4194 13.8151 1111 52.2304 1226.65 533.161
608 0 90.6667 13.6103 1234 52.0632 1226.35 532.731
609 0 90.8629 14.6815 1334 51.8006 1226.7 529.113
610 0 94.7913 13.7671 1305 52.7617 1226.7 529.005
611 0 95.6862 13.7428 1315 53.7034 1226.5 526.517
612 1 54.3166 12.4271 675 53.0696 1227.02 547.277
613 0 53.4415 12.1441 649 55.1294 1226.78 545.364
614 0 51.3689 12.089 621 56.3575 1227.41 543.156
615 0 55.3276 12.1097 670 54.0522 1227 544.328
616 0 57.3498 12.9207 741 54.8502 1226.81 543.428
617 0 60.3193 12.4007 748 54.008 1226.15 546.023
618 0 59.18 13.8391 819 54.2234 1226.43 542.513
619 0 61.6926 12.7892 789 54.4094 1226.76 541.98
620 0 64.4409 12.2903 792 54.5859 1226.56 542.133
621 0 65.4341 14.1516 926 53.3682 1226.71 539.449
622 0 70.4466 13.2157 931 53.71 1227.12 540.48
623 0 71.6503 14.3754 1030 52.966 1227.44 536.908
624 0 72.4914 13.2843 963 54.8307 1227.25 535.874
625 0 72.4914 13.3395 967 168.459 1226.25 535.845
626 0 78.3969 14.2608 1118 53.2469 1228.34 533.076
627 0 81.5261 14.8296 1209 52.4442 1228.09 534.596
628 0 80.2556 14.4164 1157 54.4175 1228.66 529.991
629 0 84.3933 13.1764 1112 54.7266 1228.37 530.218
630 0 87.3192 14.51 1267 53.0347 1228.23 530.579
631 1 45.3365 12.2639 556 52.7662 1227.84 547.971
632 0 47.1508 12.7888 603 51.8673 1227.54 546.731
633 0 47.0482 12.8167 603 52.4129 1227.29 548.696
634 0 51.1828 13.8523 709 51.4683 1228.48 547.492
635 0 50.2422 12.7184 639 52.3396 1228.66 547.817
636 0 52.233 12.1571 635 53.1213 1228.88 544.372
637 0 54.3113 12.6125 685 51.6336 1228.62 545.023
638 0 55.1184 12.9358 713 52.0028 1229.95 542.624
639 0 58.029 12.9246 750 51.128 1229.18 542.608
640 0 58.0663 12.8991 749 50.9119 1229.81 542.633
641 0 60.149 13.7824 829 50.4174 1230.11 540.953
642 0 64.0647 12.5966 807 50.9839 1229.98 539.767
643 0 66.1863 13.1145 868 50.6475 1230.84 537.854
644 0 67.1497 13.9837 939 50.0256 1230.49 537.571
645 0 66.2654 13.3403 884 51.207 1230.66 537.29
646 0 70.401 12.7271 896 51.6473 1230.47 534.764
647 0 71.3403 12.924 922 51.6052 1230.91 532.766
648 0 74.1239 13.9092 1031 50.3472 1231.31 533.014
649 0 76.4148 12.1312 927 51.5825 1230.43 532.245
650 0 78.2983 12.976 1016 50.8533 1230.35 531.864
651 0 81.5331 13.3075 1085 50.7687 1230.14 528.852
652 0 85.3385 13.7687 1175 50.4877 1230.01 525.846
653 0 87.2563 13.4202 1171 51.0461 1230.23 524.494
654 1 42.2348 12.3121 520 49.3577 1230.16 543.873
655 0 44.1809 10.887 481 50.1622 1230.52 541.865
656 0 45.1554 11.7372 530 49.7264 1230.02 539.183
657 0 47.1228 13.0935 617 48.2269 1231.45 544.144
658 0 49.1215 11.4614 563 49.302 1231.32 544.739
659 0 51.1473 12.767 653 48.5069 1231.1 542.213
660 0 50.0951 13.2149 662 48.6767 1231.07 541.625
661 0 55.2978 12.8396 710 48.3028 1230.64 541.096
662 0 56.2401 13.9758 786 47.0941 1230.72 538.922
663 0 59.1824 11.7602 696 48.3721 1230.85 539.47
664 0 60.269 12.5935 759 47.9117 1231.18 539.445
665 0 64.1433 12.9554 831 47.7292 1231.57 535.366
666 0 65.357 11.7202 766 49.0587 1232.21 534.018
667 0 65.2902 12.5899 822 48.1703 1231.62 534.505
668 0 69.246 13.026 902 47.8625 1231.74 532.398
669 0 70.3945 12.2311 861 48.6051 1232.03 531.431
670 0 76.3801 12.2545 936 48.3333 1232.37 527.475
671 0 76.2459 12.9843 990 47.5101 1232.38 527.652
672 0 80.2268 13.1502 1055 47.2948 1232.77 528.406
673 0 84.1621 13.0225 1096 47.6104 1232.65 527.9
674 1 48.1775 9.58954 462 48.6277 1233.1 546.574
675 0 45.0628 10.8737 490 48.3388 1232.79 545.984
676 0 47.1294 11.3305 534 48.3614 1233.33 544.723
677 0 47.1986 11.9071 562 47.9662 1233.19 544.028
678 0 47.1651 11.5976 547 48.5814 1232.65 541.375
679 0 52.1971 13.3341 696 46.5029 1232.9 541.968
680 0 54.095 13.7166 742 46.6536 1233.11 540.761
681 0 55.0662 12.712 700 47.5643 1233.63 543.001
682 0 55.0789 11.4563 631 48.7116 1233.67 541.268
683 0 59.1543 13.9466 825 46.3685 1233.51 541.285
684 0 57.1424 12.5651 718 48.5738 1233.91 537.015
685 0 59.0689 13.1034 774 48.5103 1233.85 539.756
686 0 62.0902 12.8523 798 48.4323 1233 538.025
687 0 64.2197 13.8431 889 47.6637 1233.33 536.263
688 0 66.2381 13.6175 902 47.5754 1233.07 536.329
689 0 69.1923 12.8338 888 49.0293 1233.3 534.743
690 0 67.1209 12.2913 825 49.9248 1233.05 535.102
691 0 72.1766 13.1344 948 49.1582 1233 531.243
692 0 74.2272 12.7581 947 49.4213 1234.17 532.17
693 0 77.2588 14.4191 1114 48.3025 1234.19 529.294
694 0 81.102 13.6372 1106 48.6085 1233.85 528.292
695 0 83.3802 13.2765 1107 49.0795 1233.47 528.741
696 0 84.3162 13.1292 1107 49.8672 1233.72 525.855
697 0 89.3585 13.4067 1198 49.682 1233.41 526.022
698 1 47.1033 11.3368 534 49.4232 1233.49 545.124
699 0 52.0184 11.8227 615 49.1821 1233.62 544.003
700 0 53.1164 13.1033 696 48.5259 1231.28 543.547
701 0 53.1807 12.6926 675 49.6207 1231.36 543.176
702 0 55.2148 12.2974 679 50.1797 1231.83 543.278
703 0 58.3289 13.1839 769 49.3927 1231.79 543.212
704 0 58.2002 12.6804 738 50.2127 1232.01 544.054
705 0 61.3008 12.9036 791 50.354 1231.42 540.709
706 0 62.1654 13.5928 845 50.2615 1231.89 538.608
707 0 62.2897 12.2171 761 51.8081 1231.51 539.733
708 0 65.1103 12.763 831 51.4826 1231.3 539.829
709 0 67.1736 12.5942 846 51.4314 1231.16 540.178
710 0 68.1118 12.8759 877 51.5245 1231 537.887
711 0 71.1297 13.3699 951 51.3417 1230.75 536.508
712 0 73.1971 13.1153 960 52.1146 1230.92 535.512
713 0 74.1971 12.5477 931 53.0451 1230.8 535.276
714 0 77.1719 12.6341 975 53.0656 1230.72 534.295
715 0 80.2065 13.6149 1092 51.8114 1230.5 532.844
716 0 80.1654 12.836 1029 52.7182 1230.26 533.008
717 0 85.0907 13.0802 1113 52.9425 1230.08 528.736
718 0 89.2622 13.2307 1181 52.271 1229.32 529.154
719 0 91.2122 12.4764 1138 52.471 1229.64 531.182
720 0 95.2558 13.3325 1270 51.7811 1229.08 528.193
721 0 99.2532 13.1986 1310 51.8618 1228.9 527.393
722 1 50.1366 11.0299 553 51.5172 1229.73 549.454
723 0 53.158 13.5445 720 50.1472 1229.56 547.294
724 0 52.0552 12.3907 645 50.9426 1229.54 546.515
725 0 54.1477 12.5398 679 51.5376 1229.32 545.607
726 0 57.3223 13.1014 751 49.4714 1229.35 545.554
727 0 56.1218 12.1521 682 51.3871 1229.56 543.757
728 0 60.2199 11.4912 692 51.711 1229.25 543.633
729 0 62.2425 12.8369 799 50.7096 1229.3 543.23
730 0 63.2494 12.4112 785 50.7452 1229.04 542.301
731 0 66.3397 11.7426 779 50.9371 1229.06 540.873
732 0 67.282 12.4402 837 50.4158 1228.64 540.83
733 0 70.1892 13.4779 946 49.4577 1229.08 540.036
734 0 71.1563 12.7747 909 50.3828 1228.52 539.343
735 0 71.1596 13.533 963 49.5971 1227.8 539.19
736 0 81.162 10.9164 886 50.3973 1227.61 538.607
737 0 82.2916 11.678 961 50.9001 1227.67 536.3
738 0 82.3052 11.834 974 50.1889 1227.7 536.866
739 1 49.1182 10.2202 502 48.6514 1228.18 552.936
740 0 48.1093 9.14583 440 49.7545 1228.42 553.282
741 0 49.1298 11.378 559 49.3757 1228.4 550.372
742 0 49.2078 10.8926 536 50.1884 1228.11 551.864
743 0 48.154 11.1102 535 50.6935 1227.33 550.25
744 0 48.2599 11.2723 544 50.6029 1227.61 551.423
745 0 51.1141 12.2471 626 50.4137 1227.53 549.166
746 0 55.3418 12.7209 704 49.0639 1227.21 550.338
747 0 57.3105 13.7322 787 48.5146 1226.56 548.76
748 0 59.2022 12.8374 760 48.9842 1226.26 549.1
749 0 57.122 12.6396 722 49.1551 1226.43 550.636
750 0 56.2133 12.328 693 50.1659 1226.33 547.27
751 0 62.3555 12.6693 790 49.5684 1226.2 545.738
752 0 63.1664 12.475 788 50.3693 1226.09 545.114
753 0 65.1582 12.815 835 50.406 1225.73 544.273
754 0 68.2382 14.0977 962 49.0967 1226.32 541.977
755 0 68.1854 13.2433 903 50.4297 1226.08 541.228
756 0 71.1349 13.7064 975 50.282 1226.95 540.226
757 0 68.1761 11.7636 802 52.3242 1226.93 540.077
758 0 68.2098 11.5819 790 52.5203 1227.19 540.906
759 0 69.165 10.381 718 53.2396 1227.23 543.28
760 0 80.1553 13.8606 1111 51.3024 1226.73 535.87
761 0 82.2404 13.7888 1134 51.3907 1226.4 533.804
762 0 84.2845 13.6324 1149 52.1332 1226.54 533.428
763 0 84.1706 12.9499 1090 53.4853 1225.94 532.455
764 0 89.2351 13.033 1163 52.5701 1225.94 532.987
765 0 89.2351 13.0666 1166 154.033 1225.94 532.922
766 1 49.2645 10.9206 538 52.7249 1225.1 551.913
767 0 51.1654 12.0589 617 52.2771 1225.14 549.872
768 0 53.2213 11.2737 600 51.865 1225.53 550.945
769 0 56.2064 13.2725 746 50.7989 1225.91 547.977
770 0 57.2169 12.5313 717 51.5021 1225.75 547.895
771 0 60.2632 13.2751 800 50.8662 1225.54 547.915
772 0 60.2271 14.1298 851 51.1504 1225.73 545.692
773 0 61.224 11.9888 734 52.4809 1225.5 546.728
774 0 65.2445 12.9973 848 51.4351 1225.31 544.9
775 0 65.2229 11.9283 778 52.9229 1225.06 545.388
776 0 67.2555 13.1142 882 52.0113 1225.79 545.356
777 0 69.248 13.4733 933 52.4566 1225.54 542.263
778 0 73.4926 13.947 1025 51.4507 1226.36 540.565
779 0 74.4852 14.5801 1086 51.3996 1226.22 538.908
780 0 77.3885 12.8055 991 53.0727 1226.17 538.619
781 0 79.5118 13.1427 1045 52.8134 1226.15 537.542
782 0 81.4434 12.5854 1025 53.2537 1226.9 537.979
783 0 86.5017 13.9766 1209 52.1001 1227.56 534.668
784 0 88.3087 14.6305 1292 51.9899 1227.73 531.636
785 0 89.5091 12.3228 1103 54.4669 1227.42 533.012
786 0 94.2773 13.28 1252 53.5256 1227.92 529.78
787 0 98.4775 14.8257 1460 52.1089 1228.32 528.688
788 0 100.24 13.2083 1324 54.0498 1228 528.582
789 1 53.0869 13.2424 703 53.0825 1228.98 548.999
790 0 52.0748 12.8661 670 54 1229.51 549.154
791 0 55.1025 13.0847 721 53.9126 1229.42 545.151
792 0 57.0602 13.2492 756 53.6151 1229.91 545.491
793 0 59.0659 12.3252 728 54.3599 1229.13 546.533
794 0 60.1144 13.7238 825 54.0945 1229.71 544.776
795 0 62.1336 13.7285 853 54.1747 1229.46 542.819
796 0 64.2299 13.3427 857 54.3116 1229.45 542.819
797 0 67.0885 13.3257 894 53.9407 1229.48 542.412
798 0 68.0556 13.3861 911 53.9363 1229.85 541.306
799 0 71.1233 13.8773 987 53.7264 1230.48 540.348
800 0 72.2195 13.1267 948 54.1245 1230.36 540.432
801 0 74.0842 14.0786 1043 53.7613 1229.93 537.671
802 0 76.0974 13.7587 1047 53.6753 1230.26 537.174
803 0 80.1094 13.1445 1053 54.2194 1230.35 536.324
804 0 78.1363 13.2973 1039 54.9403 1230.59 535.569
805 0 82.1655 14.5195 1193 53.4954 1230.52 532.744
806 0 84.0978 13.8291 1163 53.8495 1230.86 532.304
807 0 89.2264 13.7964 1231 52.3786 1230.96 532.192
808 0 92.1945 14.5128 1338 52.3124 1230.35 528.914
809 0 91.1998 13.5307 1234 53.6904 1231.05 529.22
810 0 92.144 13.7285 1265 53.1731 1230.69 530.7
811 0 92.1854 12.1711 1122 53.9412 1230.97 532.843
812 1 55.1325 13.0413 719 52.2295 1230.92 547.697
813 0 56.2796 12.74 717 52.1785 1231.21 546.232
814 0 58.2666 14.0389 818 51.2616 1230.99 545.122
815 0 59.2122 12.0921 716 53.0461 1231.45 545.307
816 0 58.1252 13.1612 765 52.3503 1231.27 543.788
817 0 65.1769 13.379 872 51.4587 1230.8 540.955
818 0 67.1518 13.745 923 51.1972 1230.96 539.264
819 0 72.1052 15.0058 1082 49.671 1231.09 539.315
820 0 72.1394 15.8166 1141 48.9614 1230.97 537.575
821 0 75.1265 14.855 1116 50.1111 1230.8 536.041
822 0 78.1114 14.6202 1142 50.2986 1230.81 536.04
823 0 79.1761 14.6635 1161 50.0715 1230.62 534.345
824 0 85.1727 12.0344 1025 50.9824 1230.4 534.067
825 0 84.1161 13.5527 1140 50.6974 1230.37 529.9
826 0 87.2038 13.6462 1190 50.7807 1230.44 528.54
827 0 91.1444 14.1534 1290 50.5078 1230.39 528.151
828 1 51.0948 10.3337 528 49.7992 1231.72 552.034
829 0 50.2808 10.859 546 50.0256 1231.18 550.082
830 0 50.3488 12.1751 613 50.9364 1230.74 547.235
831 0 54.3384 11.7412 638 50.4263 1230.42 547.807
832 0 54.2118 12.5249 679 50.7187 1230.35 544.869
833 0 57.1791 11.5077 658 50.9787 1229.87 545.436
834 0 59.1524 12.341 730 50.3274 1229.56 543.292
835 0 61.3573 12.745 782 50.4808 1229.33 541.494
836 0 63.2919 12.1342 768 50.3464 1229.16 541.797
837 0 63.2652 11.9971 759 50.6851 1229.1 542.27
838 0 68.1623 14.2307 970 48.9289 1228.97 541.578
839 0 65.2549 12.2749 801 51.4457 1228.82 539.009
840 0 70.0666 13.6727 958 49.8706 1228.59 538.839
841 0 73.0998 12.7634 933 50.6988 1229.07 537.033
842 0 75.1331 12.2849 923 51.0607 1228.76 536.282
843 0 79.2074 11.9812 949 50.9463 1229.05 536.21
844 0 82.1145 11.9711 983 50.9644 1228.45 534.858
845 0 80.1208 12.0194 963 51.7508 1228.95 533.23
846 0 80.1943 10.699 858 52.627 1228.99 534.737
847 1 43.0512 12.1019 521 49.2726 1228.98 551.668
848 0 45.2204 12.6271 571 48.669 1227.87 551.012
849 0 45.2613 11.9086 539 49.744 1228.05 550.599
850 0 47.19 12.2484 578 50.3166 1228.34 550.708
851 0 47.4135 12.2117 579 50.8722 1228.37 550.48
852 0 50.242 12.3602 621 50.4847 1228.18 549.874
853 0 51.2149 13.2774 680 50.3074 1228.16 549.403
854 0 53.1914 11.844 630 51.4222 1228.39 547.286
855 0 55.0894 14.3585 791 49.67 1228.4 547.254
856 0 56.192 12.4751 701 51.3909 1227.83 547.441
857 0 57.1328 13.3198 761 51.5887 1227.6 544.887
858 0 61.1916 13.4496 823 51.0085 1227.86 545.931
859 0 59.1471 12.8324 759 52.3597 1227.37 544.885
860 0 60.1262 11.8085 710 52.8831 1227.27 543.779
861 0 64.1328 13.5812 871 51.3215 1227.67 541.702
862 0 66.1935 13.4907 893 51.7256 1227.5 541.804
863 0 68.1005 12.1732 829 53.3329 1228.27 540.159
864 0 68.0796 13.9102 947 52.1848 1227.89 540.462
865 0 72.1167 13.8387 998 52.476 1227.62 537.538
866 0 74.1106 12.2924 911 53.7958 1227.49 539.078
867 0 75.2476 12.5187 942 53.9363 1226.69 536.421
868 0 78.2948 12.1975 955 53.9173 1227.19 535.364
869 0 82.2274 13.6816 1125 52.9796 1227.12 534.734
870 0 83.1404 12.6052 1048 54.145 1226.33 534.663
871 1 43.0605 11.4258 492 54.9553 1226.65 551.819
872 0 45.0203 11.4837 517 54.9014 1227.37 550.294
873 0 48.0459 12.0718 580 53.7034 1227.13 548.967
874 0 51.0462 11.95 610 53.7672 1226.71 548.254
875 0 51.0244 12.4254 634 53.2114 1226.14 545.451
876 0 54.1441 13.5564 734 52.3597 1226.53 547.168
877 0 52.1514 12.5212 653 54.4349 1226.8 546.76
878 0 58.1059 13.9745 812 52.5677 1226.9 544.422
879 0 56.1546 12.3944 696 54.7227 1226.86 545.891
880 0 62.1272 12.7641 793 54.198 1226.44 544.924
881 0 62.1837 13.428 835 54.3653 1226.48 544.693
882 0 64.1865 13.9749 897 53.6466 1226.53 543.456
883 0 64.2468 13.5727 872 54.7466 1226.71 542.445
884 0 63.2642 13.0247 824 56.4466 1226.51 542.438
885 0 70.1526 14.1976 996 54.6305 1226.47 540.78
886 0 71.1325 13.4959 960 56.3542 1227.26 539.988
887 0 71.1848 13.3455 950 59.019 1227.16 540.499
888 0 77.1369 13.8196 1066 60.3584 1227.28 537.7
889 0 79.201 13.4215 1063 63.7103 1226.86 535.689
890 0 81.3076 13.9839 1137 78.8742 1227.58 531.872
891 0 88.3156 13.0781 1155 79.2883 1227.22 532.985
892 0 87.2245 13.8837 1211 55.0727 1227.35 532.5
893 0 87.1471 13.6895 1193 55.5163 1227.46 530.993
894 0 93.2064 13.5184 1260 55.1992 1228 530.798
895 0 95.1506 14.2091 1352 55.27 1227.9 526.949
896 0 98.2163 14.8346 1457 54.5848 1227.97 527.053
897 0 103.284 14.9588 1545 54.2951 1228.12 523.526
898 0 102.553 14.2171 1458 55.6296 1228.62 524.573
899 0 101.212 12.212 1236 57.2872 1228.46 527.474
900 0 102.295 10.7629 1101 58.4033 1228.34 528.651
901 0 102.28 11.1948 1145 57.1528 1228.66 530.682
902 1 65.3712 14.4865 947 54.3759 1228.87 542.024
903 0 67.1762 14.261 958 54.3319 1229.06 541.527
904 0 68.164 14.4651 986 54.6288 1229.05 539.644
905 0 71.0978 13.4181 954 55.8438 1229.84 538.821
906 0 71.1177 13.6675 972 56.2387 1229.75 537.306
907 0 73.1061 13.8702 1014 55.8994 1229.82 536.91
908 0 78.1963 13.6707 1069 55.5098 1229.72 536.22
909 0 79.0512 14.8385 1173 54.705 1229.55 532.29
910 0 81.1192 13.2151 1072 57.0103 1229.89 533.1
911 0 85.0977 14.83 1262 55.3051 1230.46 530.552
912 0 87.0879 15.0882 1314 55.9954 1230.56 529.545
913 0 90.1392 14.6662 1322 56.0862 1230.16 528.629
914 0 92.2702 13.4171 1238 57.7108 1230.19 526.174
915 1 54.1194 10.6986 579 56.4888 1230.56 545.599
916 0 53.1422 11.6104 617 57.0648 1230.68 543.214
917 0 52.1806 12.5526 655 56.4733 1230.42 543.959
918 0 57.068 12.5815 718 56.0432 1230.69 543.912
919 0 56.0954 12.6214 708 56.8362 1230.7 542.378
920 0 58.138 12.7455 741 56.3077 1231.9 543.246
921 0 58.0724 14.1547 822 55.7056 1231.67 542.605
922 0 60.0579 12.9875 780 56.882 1231.84 541.38
923 0 64.0835 13.6385 874 55.6522 1231.84 539.416
924 0 68.2289 14.2462 972 54.6492 1232.33 537.688
925 0 68.0563 13.2243 900 55.5911 1232.44 537.173
926 0 70.0539 13.5467 949 55.411 1231.73 536.668
927 0 71.0384 14.3021 1016 54.6673 1232.66 535.447
928 0 75.0736 13.7998 1036 55.1255 1232.49 533.592
929 0 76.0513 13.4909 1026 55.2719 1231.92 534.948
930 0 76.12 12.4934 951 56.8917 1232.15 533.211
931 0 80.0796 13.6989 1097 55.9663 1232.22 531.849
932 0 83.1296 13.2684 1103 56.1179 1232.27 531.009
933 0 87.0703 14.0691 1225 55.0376 1232.12 530.138
934 0 88.1666 14.2344 1255 55.6032 1232.12 527.535
935 0 90.274 13.3926 1209 56.3433 1231.56 525.581
936 0 90.274 13.4369 1213 162.216 1230.56 525.603
937 0 99.2278 14.5524 1444 54.7985 1231.3 523.17
938 1 54.1138 10.9399 592 55.1791 1231.28 545.61
939 0 56.1455 10.9359 614 55.4821 1230.82 544.034
940 0 56.1461 11.292 634 55.8454 1231.47 542.353
941 0 59.1386 12.2086 722 55.0485 1231.41 541.907
942 0 63.1287 12.4824 788 54.2843 1230.64 540.967
943 0 64.1975 12.1188 778 54.892 1230.14 539.608
944 0 66.1705 11.7726 779 55.4377 1229.87 539.967
945 0 68.0508 13.6369 928 53.6078 1229.31 538.315
946 0 70.1456 12.4313 872 54.5745 1229.26 538.037
947 0 72.258 13.6594 987 53.8065 1229.29 535.122
948 0 73.1303 13.3324 975 53.959 1229.31 533.793
949 0 77.1585 12.5326 967 53.9917 1229.21 533.902
950 0 78.283 13.5917 1064 53.4596 1228.87 529.574
951 0 82.1777 15.0162 1234 51.7439 1228.88 529.762
952 0 83.2285 13.3728 1113 53.9084 1228.87 529.825
953 0 85.2141 13.9061 1185 53.3249 1228.9 528.712
954 0 84.2947 12.4563 1050 54.321 1229.06 528.795
955 0 92.3366 12.9851 1199 53.0851 1228.94 527.128
956 0 95.2673 13.2469 1262 53.5491 1228.96 523.016
957 1 53.1744 10.6818 568 52.7623 1229.52 547.315
958 0 53.0656 10.5341 559 53.2916 1229.76 546.603
959 0 54.0452 12.175 658 52.4043 1229.54 545.492
960 0 57.1513 12.4757 713 51.6985 1229.64 545.606
961 0 59.1967 13.4636 797 50.7804 1229.31 543.86
962 0 60.1956 13.1571 792 51.1566 1229.15 541.379
963 0 64.1841 13.5703 871 50.4604 1229.18 540.801
964 0 65.1948 12.8384 837 51.4265 1229.01 539.201
965 0 67.1934 12.9775 872 50.9255 1228.61 538.364
966 0 69.1376 12.8873 891 51.3154 1228.23 537.26
967 0 70.0633 13.8589 971 50.5046 1228.21 538.036
968 0 71.1733 12.2658 873 51.9805 1228.53 538.757
969 0 70.1446 12.8306 900 52.3533 1228.1 536.922
970 0 78.1962 14.6299 1144 50.8575 1228.57 535.544
971 0 80.1818 13.3821 1073 52.0494 1228.59 533.092
972 0 86.2058 12.389 1068 52.9476 1228.43 531.589
973 0 85.3106 12.9175 1102 52.794 1228.52 530.021
974 0 90.4222 14.001 1266 51.8602 1228.57 527.865
975 1 56.309 9.74978 549 52.6284 1228.03 547.386
976 0 53.2092 10.205 543 52.372 1227.87 544.82
977 0 55.2058 11.4481 632 52.1899 1227.28 543.691
978 0 56.2824 10.2341 576 51.8698 1227.49 545.094
979 0 55.1421 11.6608 643 51.6236 1227.7 544.902
980 0 54.3606 10.5407 573 52.7487 1227.61 545.023
981 0 63.3165 11.9084 754 51.3422 1226.98 541.04
982 0 64.4785 13.1052 845 49.8947 1227.37 541.983
983 0 66.2534 13.0861 867 50.3172 1227.21 540.325
984 0 66.3379 12.4815 828 50.6087 1227.29 539.397
985 0 69.362 12.4276 862 50.4977 1227.43 540.022
986 0 75.413 13.2338 998 49.2826 1227.34 538.85
987 0 76.3584 11.983 915 50.847 1227.19 537.57
988 0 77.5645 12.5831 976 50.0748 1226.98 536.415
989 0 77.4405 11.4281 885 51.9435 1226.64 536.879
990 0 76.4577 11.7843 901 52.3774 1226.56 536.028
991 0 79.4156 13.0075 1033 51.0813 1226.95 536.001
992 0 88.3551 13.6155 1203 50.5353 1226.8 531.62
993 0 91.3807 14.1058 1289 50.6051 1226.74 531.12
994 0 92.3976 14.0805 1301 51.3628 1226.96 528.426
995 0 95.3717 13.1276 1252 52.5879 1226.91 528.588
996 0 97.3613 13.5269 1317 52.4282 1227.03 526.646
997 0 100.374 13.6688 1372 52.6742 1226.95 526.134
998 1 57.3234 10.2401 587 53.2777 1227.13 546.641
999 0 58.1322 11.8695 690 52.8739 1226.24 545.371
1000 0 61.2045 11.6331 712 53.4733 1227.31 544.309
1001 0 63.2036 12.9107 816 52.685 1226.88 543.835
1002 0 65.2411 13.2279 863 51.8134 1226.65 543.075
1003 0 66.356 13.1111 870 52.5759 1226.11 541.663
1004 0 70.1881 13.82 970 51.4371 1226.56 542.199
1005 0 68.2968 12.5921 860 53.3988 1226.48 541.371
1006 0 73.2928 13.5348 992 52.1673 1227.2 540.553
1007 0 74.1937 13.8152 1025 52.3034 1227.1 537.311
1008 0 76.1926 12.954 987 53.2057 1227 537.275
1009 0 79.2393 13.352 1058 53.1796 1227.03 535.892
1010 0 80.173 14.0696 1128 52.8537 1227.17 534.879
1011 0 82.2604 13.0318 1072 54.8405 1227.25 533.716
1012 0 87.1203 13.4527 1172 54.3695 1226.47 532.462
1013 0 91.1775 15.0914 1376 52.9157 1226.71 530.746
1014 0 91.1232 13.8713 1264 54.7856 1226.88 528.206
1015 1 52.1118 11.0532 576 54.3542 1227.02 550.545
1016 0 53.0496 9.99065 530 55.2396 1227.25 548.562
1017 0 54.0467 11.5271 623 54.0096 1226.76 548.018
1018 0 56.0369 12.349 692 53.354 1227.72 547.198
1019 0 55.2834 11.9023 658 53.5395 1227.21 546.694
1020 0 56.2499 11.7511 661 53.6672 1227.21 546.247
1021 0 59.1405 13.1382 777 52.4067 1227.56 544.61
1022 0 58.3499 11.4653 669 54.1345 1227.34 544.546
1023 0 63.2357 12.6353 799 53.1652 1227.18 544.049
1024 0 62.0716 11.2128 696 55.4784 1227.21 543.448
1025 0 65.2703 13.0687 853 53.4033 1227.15 541.619
1026 0 66.2384 13.4212 889 53.2452 1227.42 540.76
1027 0 67.2485 12.6992 854 54.589 1227.47 540.677
1028 0 70.1533 12.8433 901 54.5361 1228.2 538.523
1029 0 70.1533 12.772 896 156.098 1228.19 538.49
1030 0 76.2249 13.0535 995 54.7226 1228.81 536.113
1031 0 79.1883 13.0954 1037 54.5892 1228.74 535.619
1032 0 81.245 13.1085 1065 54.2826 1228.61 535.725
1033 0 82.1696 12.5716 1033 55.1123 1228.88 533.445
1034 0 86.3063 13.0581 1127 54.6069 1229.08 531.221
1035 1 47.1439 11.4967 542 54.2343 1230.05 548.745
1036 0 49.0617 11.6588 572 52.6643 1230.34 551.93
1037 0 48.0698 10.464 503 55.5089 1229.81 550.618
1038 0 49.2887 11.6457 574 55.324 1229.22 547.584
1039 0 51.2659 12.4254 637 55.1633 1229.44 547.16
1040 0 53.3096 12.962 691 54.3227 1229.94 547.036
1041 0 55.2347 12.7999 707 54.8076 1230.12 545.433
1042 0 57.2203 13.5442 775 54.409 1230.68 543.573
1043 0 58.209 13.0392 759 54.5955 1230.92 543.796
1044 0 58.231 12.3302 718 56.1365 1230.69 544.131
1045 0 60.1956 12.0109 723 56.2808 1230.54 541.665
1046 0 62.1932 13.4581 837 54.5603 1231.41 540.171
1047 0 63.247 13.4868 853 54.3845 1231.34 541.654
1048 0 66.1767 14.3857 952 54.0945 1231.05 538.621
1049 0 68.2032 13.6944 934 55.0835 1231.71 538.602
1050 0 70.17 13.5671 952 55.1071 1231.14 538.193
1051 0 69.1489 13.3335 922 56.6811 1231.1 536.44
1052 0 72.0572 13.8362 997 56.4925 1231.78 533.948
1053 0 73.2801 12.7866 937 57.8228 1231.9 535.262
1054 0 78.1401 13.3094 1040 56.8673 1231.6 532.363
1055 0 81.3104 13.5776 1104 56.8569 1231.81 527.338
1056 0 81.1309 13.4228 1089 57.494 1231.6 528.763
1057 1 47.1515 10.5193 496 57.9496 1230 541.893
1058 0 48.1358 9.70172 467 58.4561 1229.76 541.638
1059 0 48.1358 9.6394 464 173.379 1229.77 541.582
1060 0 51.0153 10.7027 546 57.619 1230.06 542.68
1061 0 54.0678 11.0602 598 56.3378 1230.9 545.748
1062 0 54.1226 12.213 661 55.8744 1230.94 544.593
1063 0 56.2195 11.6863 657 55.691 1231.4 543.989
1064 0 59.2002 13.2432 784 54.4554 1231.58 543.445
1065 0 61.2279 13.0496 799 54.6458 1231.68 542.148
1066 0 60.2554 13.7747 830 54.2229 1231.69 541.458
1067 0 62.121 13.0391 810 55.6864 1231.82 540.702
1068 0 64.2292 12.5488 806 56.0025 1231.34 539.587
1069 0 68.3161 13.6278 931 54.2965 1231.36 538.51
1070 0 66.1409 13.1386 869 55.5351 1231.06 538.008
1071 0 71.2758 13.8476 987 54.1074 1230.54 536.306
1072 0 73.1971 12.9923 951 54.9169 1231.14 535.606
1073 0 75.265 12.1438 914 55.8753 1230.93 535.424
1074 0 78.1726 13.2911 1039 54.7603 1230.96 532.939
1075 0 82.4259 12.6053 1039 55.0962 1230.46 533.49
1076 0 83.1537 12.7475 1060 55.3302 1229.99 530.919
1077 0 86.3689 12.956 1119 54.403 1229.67 528.729
1078 1 45.1268 11.5231 520 53.5231 1229.94 549.183
1079 0 47.0836 10.6831 503 53.9901 1229.42 549.795
1080 0 51.3569 11.1572 573 53.5113 1230.02 547.422
1081 0 53.3369 14.0991 752 50.6995 1229.54 545.197
1082 0 52.255 11.7118 612 53.0327 1229.39 546.567
1083 0 53.2226 13.2838 707 52.8628 1228.98 545.386
1084 0 56.1998 12.6691 712 52.8975 1229.48 543.5
1085 0 57.3137 12.8765 738 52.5596 1229.47 543.863
1086 0 59.2362 13.4715 798 52.3659 1229.07 541.445
1087 0 60.153 13.0168 783 52.8352 1229.33 541.102
1088 0 63.0935 11.6969 738 53.8252 1230.07 540.873
1089 0 64.0561 13.1291 841 52.6468 1230.18 539.625
1090 0 67.0368 13.0525 875 52.44 1229.27 536.952
1091 0 68.0869 12.2344 833 52.8499 1229.9 537.322
1092 0 70.0581 13.1034 918 52.6928 1229.59 535.983
1093 0 74.1059 13.3458 989 51.5157 1229.25 534.727
1094 0 75.0465 13.1652 988 51.997 1228.55 533.812
1095 0 79.0823 13.644 1079 50.9898 1229.06 532.582
1096 0 83.0514 13.895 1154 50.8059 1228.56 530.082
1097 0 85.1613 13.7504 1171 50.8497 1229.21 530.535
1098 0 87.0648 13.2086 1150 51.4957 1229.1 529.366
1099 0 92.2274 13.8137 1274 50.6931 1229.8 528.378
1100 1 51.0564 10.0281 512 52.8555 1229.94 547.215
1101 0 52.0558 10.7001 557 52.3268 1230.28 547.242
1102 0 53.0603 10.4975 557 53.0987 1228.31 547.754
1103 0 58.2461 11.4514 667 52.4123 1228.97 545.184
1104 0 57.2033 11.6252 665 52.582 1228.81 545.58
1105 0 60.3899 11.1939 676 52.9748 1228.71 546.281
1106 0 60.1078 11.5958 697 53.3185 1228.28 543.108
1107 0 65.1983 12.9298 843 51.452 1228.02 540.49
1108 0 67.1677 13.1611 884 50.9762 1228.13 542.675
1109 0 67.2547 13.2333 890 51.3393 1228.44 535.551
1110 0 68.1674 11.9559 815 51.0982 1228.07 536.098
1111 0 71.2005 13.6235 970 50.8938 1228.52 538.403
1112 0 73.1513 13.2055 966 51.028 1229.03 536.022
1113 0 74.248 13.8859 1031 50.7507 1228.29 532.232
1114 0 77.0961 14.0604 1084 50.7279 1228.29 533.814
1115 0 79.199 13.4219 1063 51.0922 1228 533.557
1116 0 83.2118 13.9884 1164 50.4107 1227 532.009
1117 0 83.2686 13.0541 1087 52.1334 1226.96 529.626
1118 0 87.1695 13.8122 1204 51.5548 1226.98 527.616
1119 0 88.3989 13.4051 1185 52.3097 1226.93 524.484
1120 0 94.6048 14.0162 1326 51.4382 1226.57 523.857
1121 1 48.2764 9.67346 467 51.6595 1226.66 547.366
1122 0 49.4579 11.5249 570 50.7158 1226.95 545.453
1123 0 50.1518 10.6875 536 51.3246 1226.82 545.478
1124 0 53.022 11.9384 633 51.4708 1228.16 548.983
1125 0 55.107 12.0856 666 51.7883 1228.17 547.914
1126 0 57.0323 13.8343 789 50.0254 1228.53 548.746
1127 0 59.1378 12.3271 729 52.3388 1228.01 547.545
1128 0 60.0314 13.4263 806 51.227 1227.89 546.047
1129 0 63.0761 13.016 821 52.0524 1227.81 546.575
1130 0 63.0761 13.0002 820 160.373 1228.82 546.562
1131 0 64.1328 12.5365 804 53.1368 1227.45 544.354
1132 0 67.0557 12.8102 859 52.2235 1226.99 545.127
1133 0 66.0858 12.9983 859 52.9674 1227.04 542.033
1134 0 70.1207 13.5481 950 51.2505 1227.06 544.23
1135 0 70.1444 13.2013 926 52.7408 1226.78 541.798
1136 0 71.1117 12.8952 917 52.7677 1227.06 540.432
1137 0 72.1063 12.1903 879 53.8066 1227.52 538.495
1138 0 76.1055 13.4944 1027 51.887 1228.15 539.091
1139 0 76.11 14.0192 1067 51.0094 1228.4 539.074
1140 0 79.071 12.6975 1004 52.7809 1228.96 536.142
1141 0 81.0633 12.6444 1025 54.0478 1228.67 534.379
1142 0 83.1449 13.1096 1090 54.2706 1228.72 532.894
1143 0 86.1268 12.8299 1105 54.6814 1228.58 531.308
1144 0 88.1724 12.5436 1106 55.0045 1228.61 527.346
1145 0 92.1833 12.5185 1154 54.5823 1228.8 526.702
1146 1 53.0259 10.7495 570 53.5649 1228.78 547.121
1147 0 53.0259 10.7495 570 146.391 1227.78 547.095
1148 0 55.074 10.3497 570 53.5228 1229.68 545.723
1149 0 56.0497 11.6325 652 52.5353 1229.73 545.166
1150 0 58.0644 11.3839 661 52.1437 1230.06 545.18
1151 0 59.0336 10.9768 648 52.0185 1230.04 544.458
1152 0 60.0824 12.0168 722 51.8199 1230.64 544.925
1153 0 62.0531 12.731 790 51.162 1230.82 542.604
1154 0 64.0827 12.1406 778 51.3612 1230.82 541.871
1155 0 67.1039 12.0112 806 51.1998 1231.18 540.488
1156 0 70.0905 12.17 853 50.8148 1230.74 539.449
1157 0 70.1122 12.4087 870 51.0299 1231.36 538.124
1158 0 70.2875 12.335 867 51.1857 1231.21 535.609
1159 0 73.2812 12.6772 929 50.7546 1231.67 534.926
1160 0 76.2031 12.2042 930 51.1398 1231.52 532.558
1161 0 79.0862 12.6318 999 50.5235 1231.27 533.975
1162 0 81.2824 13.2378 1076 50.0827 1231.72 530.432
1163 0 83.3666 11.4194 952 51.9401 1232.2 530.17
1164 1 45.1461 8.39497 379 51.5673 1232.12 549.813
1165 0 48.2113 10.454 504 50.2738 1232.46 548.442
1166 0 47.2027 11.0163 520 50.5942 1228.8 547.515
1167 0 51.1416 10.9304 559 50.5313 1230.46 546.517
1168 0 50.179 10.9408 549 51.3242 1231.43 546.027
1169 0 51.389 11.014 566 51.2173 1231.44 545.019
1170 0 54.1602 11.0967 601 50.5241 1231.63 547.577
1171 0 54.1669 11.6123 629 51.2814 1231.99 543.709
1172 0 57.1735 11.3689 650 50.6062 1232.13 543.082
1173 0 59.1725 12.8607 761 49.7937 1232.18 543.583
1174 0 59.271 11.4559 679 51.6745 1233.07 542.605
1175 0 64.1778 11.6863 750 50.908 1234.01 541.127
1176 0 64.1542 11.8309 759 51.3307 1234.24 539.879
1177 0 65.2071 12.1459 792 51.7247 1233.97 538.659
1178 0 66.1293 12.5814 832 51.7368 1233.77 538.07
1179 0 69.1731 12.2736 849 52.0495 1234.09 537.582
1180 0 72.1452 12.6828 915 51.8372 1233.51 535.883
1181 0 74.2482 13.172 978 51.5266 1232.33 535.291
1182 0 75.133 14.7738 1110 51.2153 1232.66 531.273
1183 0 82.0819 11.1352 914 54.0098 1232.56 531.432
1184 0 81.2149 13.6182 1106 52.7514 1232.35 526.674
1185 0 80.2 12.394 994 53.329 1231.7 526.74
1186 0 85.3634 14.409 1230 52.7366 1232.02 523.301
1187 0 86.4886 13.1116 1134 54.3933 1231.5 521.409
1188 0 86.4364 13.1773 1139 55.1879 1232.11 521.068
1189 0 92.3775 13.4232 1240 55.2331 1232.36 518.606
1190 0 95.3992 14.1301 1348 54.8769 1231.97 516.904
1191 0 96.3416 12.9331 1246 57.2632 1231.61 517.392
1192 0 99.3707 12.6798 1260 57.3389 1231.6 514.775
1193 1 54.182 10.963 594 56.5 1230.78 538.673
1194 0 55.0838 12.1996 672 54.8795 1230.53 537.321
1195 0 57.0522 11.9364 681 55.8634 1231.27 539.698
1196 0 61.3058 12.5926 772 55.5829 1230.15 542.325
1197 0 62.1524 12.8072 796 55.9611 1230.89 542.142
1198 0 61.21 12.1876 746 57.7855 1230.95 541.594
1199 0 65.0242 13.4873 877 56.0673 1232.53 540.56
1200 0 67.0351 13.0678 876 56.9794 1232.25 538.347
1201 0 69.0771 12.2038 843 58.0344 1232.12 539.025
1202 0 72.0467 13.5329 975 56.6041 1232.24 536.064
1203 0 75.08 12.2136 917 57.88 1231.81 535.685
1204 0 76.0201 13.4833 1025 57.1024 1231.47 535.199
1205 0 78.0254 12.7138 992 58.1562 1231.23 533.97
1206 0 82.0723 12.9398 1062 57.7138 1231.47 533.154
1207 0 83.0438 13.1738 1094 58.1444 1231.42 532.159
1208 0 85.0278 13.2427 1126 57.0915 1231.15 528.052
1209 0 90.1064 13.1511 1185 57.4928 1230.95 528.996
1210 0 90.1161 13.9931 1261 55.3727 1229.39 524.658
1211 0 94.1237 12.4092 1168 56.8536 1229.88 526.377
1212 0 97.0971 12.8737 1250 56.6032 1229.51 523.49
1213 0 101.146 12.9022 1305 56.7203 1229.7 524.556
1214 1 58.0309 12.9931 754 54.8859 1230.35 543.946
1215 0 60.0411 12.4748 749 55.4232 1229.94 544.473
1216 0 61.0728 12.2477 748 55.0468 1228.64 544.549
1217 0 63.0767 11.7635 742 55.5984 1228.91 543.706
1218 0 64.132 13.176 845 54.1349 1228.62 542.946
1219 0 66.1345 12.4746 825 54.8533 1228.27 541.212
1220 0 67.1028 12.846 862 54.9026 1228.2 541.657
1221 0 70.0486 12.2058 855 55.4058 1228.44 541.075
1222 0 71.1356 12.1318 863 56.8818 1228.4 539.658
1223 0 74.118 13.1142 972 55.821 1227.25 537.07
1224 0 77.3139 11.7185 906 55.5419 1228.26 539.656
1225 0 82.2719 13.4554 1107 54.7886 1226.52 536.133
1226 0 81.0987 12.047 977 56.8772 1227.26 536.203
1227 0 84.2759 12.1387 1023 56.1691 1228.57 534.784
1228 0 86.205 12.6443 1090 56.3413 1228.51 531.436
1229 1 48.1191 10.3285 497 56.0463 1228.57 549.304
1230 0 49.1039 10.6305 522 54.5575 1229.36 551.061
1231 0 52.081 11.0981 578 54.1401 1228.55 548.394
1232 0 52.0808 10.3109 537 55.0596 1228.26 548.341
1233 0 56.0699 11.343 636 54.6352 1228.29 546.956
1234 0 56.0466 11.1871 627 53.0096 1225.26 546.514
1235 0 59.2266 12.0216 712 53.7163 1225.73 547.6
1236 0 58.1795 11.3614 661 53.9546 1226.58 547.897
1237 0 60.2496 12.2988 741 53.7989 1226.83 545.49
1238 0 61.2144 11.5986 710 54.3704 1226.98 546.646
1239 0 62.2618 12.2708 764 54.5249 1226.55 544.185
1240 0 64.1933 12.4935 802 54.9888 1226.69 544.088
1241 0 67.1586 12.6715 851 54.3584 1226.62 543.327
1242 0 66.2495 11.5624 766 55.9856 1226.88 542.576
1243 0 70.2755 12.5791 884 54.8213 1227.94 542.034
1244 0 70.1718 12.4409 873 55.3837 1227.81 541.228
1245 0 73.1532 12.7541 933 55.0847 1227.75 541.456
1246 0 76.1607 13.3927 1020 54.799 1227.18 538.389
1247 0 78.2337 12.5777 984 55.6433 1227.53 538.038
1248 0 80.1817 13.644 1094 55.7715 1227.17 535.713
1249 0 80.1582 12.5252 1004 57.8396 1227.14 535.861
1250 0 85.2857 12.593 1074 57.581 1226.72 533.421
1251 0 87.1563 13.1488 1146 57.2574 1226.28 532.159
1252 0 89.2371 13.5706 1211 57.1296 1227.01 532.461
1253 0 92.2932 12.9154 1192 57.7047 1225.4 531.352
1254 0 96.3121 13.2174 1273 57.7871 1226.23 527.564
1255 0 97.355 12.7061 1237 58.7292 1226.65 523.638
1256 1 56.2142 10.8513 610 58.2984 1227.27 545.754
1257 0 56.169 10.326 580 58.0224 1228.01 544.305
1258 0 61.1431 11.3831 696 57.7342 1228.63 543.368
1259 0 61.1248 11.5011 703 57.8563 1227.23 544.006
1260 0 63.2436 12.0645 763 58.1009 1227.87 543.659
1261 0 64.049 12.4124 795 56.5937 1228.04 542.137
1262 0 65.0357 11.9627 778 57.3676 1227.59 541.593
1263 0 69.1511 12.3064 851 56.7568 1228.04 541.545
1264 0 71.0884 12.4352 884 57.2262 1228.75 539.579
1265 0 73.0931 12.2036 892 57.5022 1228.88 539.35
1266 0 73.1238 12.6635 926 57.1393 1228.72 536.272
1267 0 76.1065 12.5482 955 57.244 1229 536.322
1268 0 79.1236 14.0161 1109 55.8079 1229.09 534.786
1269 0 80.0928 13.3345 1068 57.6133 1229.9 532.154
1270 0 81.153 13.3945 1087 57.7268 1230.18 531.826
1271 0 84.2538 13.0795 1102 57.7296 1230.62 532.038
1272 0 86.1941 13.3884 1154 57.2522 1231.01 530.75
1273 0 89.2201 13.3938 1195 58.0753 1231.39 526.428
1274 0 94.3056 14.1455 1334 56.2002 1231.59 527.644
1275 0 96.321 13.808 1330 57.1857 1231.71 526.05
1276 0 99.2936 13.6665 1357 57.6072 1231.5 525.694
1277 0 100.168 14.0465 1407 57.4385 1232.12 521.965
1278 0 104.313 13.1527 1372 57.9286 1232.21 521.079
1279 0 106.362 13.1156 1395 58.1928 1232.66 520.395
1280 0 109.211 13.6982 1496 58.2032 1232.85 517.844
1281 1 61.1531 10.9071 667 58.5142 1233.11 543.354
1282 0 64.088 10.0643 645 58.8868 1233.25 542.955
1283 0 64.0666 10.4891 672 59.0268 1233.87 541.573
1284 0 68.0601 12.3273 839 57.0036 1234.68 539.23
1285 0 69.0854 12.4339 859 57.7695 1234.6 539.055
1286 0 71.0613 12.2852 873 58.2371 1232.81 536.86
1287 0 73.0579 13.1813 963 56.6968 1232.99 536.347
1288 0 72.065 13.1132 945 57.7725 1233.4 535.321
1289 0 75.1896 12.6347 950 58.2958 1233.74 533.058
1290 0 78.0821 12.0258 939 58.2907 1233.64 534.251
1291 0 78.0821 12.0258 939 165.199 1232.64 534.251
1292 0 83.0571 13.1837 1095 57.2703 1232.56 531.394
1293 0 88.0706 13.1372 1157 56.3077 1233.42 529.972
1294 0 90.1096 13.2172 1191 56.1343 1233.31 527.213
1295 0 91.2333 13.9423 1272 55.6871 1232.87 525.018
1296 0 95.1929 13.3939 1275 55.9522 1233.45 525.45
1297 0 99.1281 13.8709 1375 55.3171 1233.96 523.847
1298 0 103.089 12.7656 1316 55.9422 1234.35 523.734
1299 1 55.0512 11.1169 612 55.4052 1234.91 546.672
1300 0 56.0491 11.4007 639 55.5008 1234.64 545.078
1301 0 57.0314 11.9583 682 55.1173 1234.41 544.991
1302 0 59.1897 11.8433 701 54.6291 1233.7 544.023
1303 0 63.1561 13.5696 857 52.6931 1234 541.962
1304 0 65.1817 12.5035 815 53.2233 1234.18 541.62
1305 0 68.1554 12.7209 867 53.0865 1233.65 540.35
1306 0 68.1803 13.435 916 53.0076 1233.3 538.653
1307 0 70.1041 13.0092 912 53.7303 1233.61 537.891
1308 0 73.158 13.7784 1008 52.4653 1232.91 537.258
1309 0 76.1452 12.7257 969 53.839 1232.82 535.634
1310 0 78.055 13.388 1045 53.1024 1232.83 536.45
1311 0 77.0857 12.9466 998 53.8166 1232.38 536.509
1312 0 82.1948 13.7357 1129 53.3419 1232.13 532.427
1313 0 85.1887 14.3329 1221 53.2891 1231.79 532.313
1314 0 88.1428 13.5008 1190 53.7345 1231.66 531.214
1315 0 88.1249 13.7419 1211 54.0198 1231.44 528.458
1316 0 91.0737 12.4954 1138 55.6872 1230.94 529.866
1317 0 96.1771 13.2984 1279 54.2854 1230.78 528.75
1318 0 98.1516 13.8969 1364 54.2236 1230.53 526.351
1319 0 103.134 14.3309 1478 53.3857 1231.01 524.069
1320 0 103.128 14.3317 1478 54.318 1229.97 523.042
1321 1 56.0746 11.6452 653 55.4426 1229.45 547.225
1322 0 60.191 12.2277 736 54.7921 1229.45 545.128
1323 0 60.1598 13.0153 783 54.5377 1228.6 544.613
1324 0 62.2615 12.3833 771 54.8781 1229.06 543.056
1325 0 66.2286 13.7403 910 52.6319 1229.63 543.625
1326 0 66.1976 12.8706 852 53.6455 1229.43 542.65
1327 0 68.093 12.7179 866 54.067 1229.12 542.089
1328 0 72.1476 13.6664 986 52.3124 1229.4 539.874
1329 0 73.235 13.1221 961 53.6764 1229.34 537.386
1330 0 77.2115 13.5213 1044 52.4847 1229.74 536.67
1331 0 77.1066 13.1117 1011 53.1869 1229.43 536.405
1332 0 80.119 13.2178 1059 52.4268 1229.4 532.553
1333 0 83.2938 13.7945 1149 52.4856 1229.07 534.278
1334 0 85.0726 13.9175 1184 53.3446 1229.45 532.9
1335 0 87.3495 13.4861 1178 53.528 1229.15 532.392
1336 0 90.1677 14.2734 1287 52.3683 1229.06 530.34
1337 0 93.1937 13.3807 1247 52.8043 1228.58 528.572
1338 0 94.36 12.9928 1226 53.0057 1228.91 529.6
1339 0 97.3019 13.8846 1351 51.8001 1228.8 526.553
1340 1 58.0857 11.5691 672 52.1801 1228.35 545.805
1341 0 59.0925 12.1335 717 50.9275 1228.35 546.448
1342 0 60.0424 11.2587 676 51.0932 1229.27 546.195
1343 0 63.1313 12.5136 790 49.6443 1229.45 545.308
1344 0 62.1333 12.4732 775 50.0323 1229.07 542.857
1345 0 67.1349 12.7802 858 49.5991 1229.32 541.779
1346 0 69.2301 12.7401 882 49.6939 1229.31 541.646
1347 0 70.1351 13.1888 925 49.3773 1229.58 540.999
1348 0 71.1322 12.2026 868 50.568 1229.33 540.225
1349 0 73.2277 11.949 875 51.0046 1229.55 538.526
1350 0 77.1625 13.6984 1057 49.6802 1228.85 537.533
1351 0 80.1512 12.8008 1026 50.4844 1228.61 536.621
1352 0 80.1889 12.508 1003 51.5424 1228.58 535.303
1353 0 83.1352 12.8465 1068 51.3755 1228.71 535.52
1354 0 83.2863 12.367 1030 52.2951 1228.11 534.22
1355 0 88.3995 12.715 1124 52.2714 1227.87 532.058
1356 0 90.2624 13.8042 1246 51.7584 1228.25 530.016
1357 1 49.1249 9.56745 470 52.6447 1228.76 554.613
1358 0 48.0867 9.8572 474 53.4219 1228.89 553.388
1359 0 50.0424 10.6909 535 53.6467 1228.73 551.054
1360 0 54.1024 11.6816 632 52.7532 1228.4 550.671
1361 0 54.0521 11.8589 641 53.5959 1227.81 549.668
1362 0 54.1804 10.8157 586 53.9386 1227.58 547.858
1363 0 58.0883 11.9129 692 54.9147 1227.78 548.113
1364 0 60.132 12.7553 767 53.6675 1228.22 547.802
1365 0 61.2723 12.6648 776 54.04 1227.74 546.473
1366 0 63.0647 12.9867 819 54.0476 1227.64 545.974
1367 0 65.1375 13.2489 863 53.7984 1227.38 545.736
1368 0 66.0545 12.8682 850 53.6741 1227.24 545.568
1369 0 66.12 11.7665 778 54.9473 1226.04 545.311
1370 0 68.0882 12.9097 879 54.4846 1226.47 543.737
1371 0 70.1457 12.3172 864 55.4062 1226.28 542.403
1372 0 71.1961 12.3883 882 55.8571 1225.99 542.12
1373 0 75.2745 12.7799 962 55.3077 1226.6 542.923
1374 0 76.551 12.8019 980 55.5 1227 540.03
1375 0 76.1817 12.7852 974 56.2618 1227.21 537.97
1376 0 80.2589 12.684 1018 56.2662 1226.95 539.306
1377 0 82.1042 12.8495 1055 56.709 1227.24 536.582
1378 0 82.181 12.7037 1044 57.2308 1227.3 537.136
1379 0 84.223 13.1199 1105 56.9575 1226.96 535.43
1380 0 87.2138 13.3236 1162 56.432 1227.08 534.666
1381 0 92.3304 14.8488 1371 54.9716 1227.13 531.268
1382 0 92.3304 14.2207 1313 162.55 1227.1 530.26
1383 0 97.5369 14.4766 1412 53.8357 1227.11 526.78
1384 0 98.3598 14.2436 1401 57.5403 1226.94 525.456
1385 0 102.491 13.8256 1417 57.3056 1227.24 523.729
1386 0 104.449 13.5089 1411 58.5011 1227.15 523.384
1387 0 108.534 14.5484 1579 57.0424 1227.35 520.92
1388 0 111.68 15.4459 1725 56.3252 1227.59 519.148
1389 1 59.4217 11.9317 709 58.4245 1228.43 543.298
1390 0 59.3843 11.5687 687 58.0247 1228.84 544.729
1391 0 61.3691 11.8789 729 58.0384 1228.91 542.955
1392 0 63.2821 12.5786 796 57.2688 1229.3 541.499
1393 0 65.4719 12.3717 810 57.8136 1229.26 541.095
1394 0 66.3078 13.4072 889 57.5152 1229.63 539.721
1395 0 71.4403 13.3398 953 56.9675 1229.87 541.461
1396 0 73.3514 13.4149 984 57.0722 1230.02 538.166
1397 0 74.4088 13.7081 1020 56.8088 1230.21 537.524
1398 0 77.6133 12.9488 1005 57.797 1230.39 535.291
1399 0 81.4123 15.096 1229 55.3019 1230.55 533.645
1400 0 83.5482 14.722 1230 55.4951 1230.65 532.057
1401 0 84.5703 14.3786 1216 56.0386 1230.83 530.442
1402 0 89.3369 14.283 1276 55.5682 1231.16 530.659
1403 0 90.4958 14.9289 1351 55.0925 1231.39 528.776
1404 0 93.452 15.5481 1453 54.2388 1231.28 525.939
1405 0 96.3197 14.2961 1377 55.289 1231.4 524.609
1406 0 99.2469 15.0433 1493 54.5191 1231.81 523.076
1407 0 102.344 14.9984 1535 54.1642 1231.75 522.77
1408 1 58.156 11.5551 672 56.0967 1232.02 546.403
1409 0 59.1486 12.6123 746 55.4249 1232.2 544.39
1410 0 59.0801 12.9655 766 55.4843 1231.99 545.128
1411 0 62.1125 14.9728 930 53.129 1232.63 542.358
1412 0 62.0495 13.0219 808 55.3416 1232.82 540.882
1413 0 67.2125 14.3723 966 52.2277 1232.58 541.324
1414 0 68.1682 14.0682 959 52.7331 1232.52 540.512
1415 0 72.143 14.0416 1013 52.228 1233.22 537.403
1416 0 75.1238 12.8987 969 52.9257 1233.22 536.461
1417 0 78.0534 13.7982 1077 52.2553 1233.86 535.04
1418 0 81.1002 14.3403 1163 51.3697 1233.18 535.47
1419 0 83.1112 13.1631 1094 52.5411 1234.12 533.442
1420 0 86.1665 14.2051 1224 51.6242 1233.36 530.418
1421 0 90.1495 13.9102 1254 51.2568 1233.98 529.651
1422 1 52.0343 12.4149 646 50.9582 1234.29 547.653
1423 0 54.0634 11.1721 604 51.9901 1234.21 546.389
1424 0 56.059 10.3819 582 52.6873 1233.97 545.194
1425 0 57.1042 11.7329 670 50.8851 1232.91 542.816
1426 0 57.0966 12.6627 723 50.0235 1232.41 542.236
1427 0 60.1838 12.8938 776 50.6959 1233.46 542.287
1428 0 64.0834 12.5618 805 50.4124 1233.56 542.554
1429 0 64.1281 12.2099 783 50.3844 1233.9 541.149
1430 0 67.215 13.2857 893 48.9384 1233.27 540.543
1431 0 68.2256 12.9277 882 49.5465 1233.29 540.531
1432 0 69.2063 13.1346 909 49.5853 1232.47 538.315
1433 0 73.0854 13.3269 974 49.1838 1232.78 537.96
1434 0 76.2036 13.6739 1042 49.7447 1232.91 537.44
1435 0 78.0964 14.2644 1114 49.7379 1232.68 534.631
1436 0 81.2227 13.8016 1121 49.9153 1232.54 534.424
1437 0 82.1974 13.7596 1131 50.3351 1232.87 533.238
1438 0 86.2106 13.5598 1169 50.4799 1232.43 531.894
1439 0 89.2241 13.5838 1212 50.4884 1231.8 530.702
1440 0 93.1444 14.4292 1344 49.4427 1231.62 528.441
1441 0 94.2082 14.8182 1396 49.2264 1231.58 528.082
1442 1 53.0999 11.3748 604 49.7086 1231.76 548.406
1443 0 57.1027 11.8733 678 49.2404 1231.55 546.233
1444 0 57.0915 11.2451 642 50.891 1231.76 545.629
1445 0 59.0655 12.4608 736 49.4973 1231.48 544.466
1446 0 60.1277 13.6709 822 49.3528 1231.63 542.543
1447 0 63.1729 12.9644 819 49.4811 1231.03 544.994
1448 0 65.0718 13.8462 901 49.3285 1231.06 544.435
1449 0 65.1031 13.7013 892 50.0482 1230.72 541.62
1450 0 68.1681 13.364 911 50.618 1230.73 539.745
1451 0 69.1365 13.8566 958 50.4228 1230.57 539.565
1452 0 71.1288 14.1855 1009 50.1011 1230.37 538.863
1453 0 72.0722 13.5004 973 50.9599 1230.05 538.394
1454 0 76.2 13.6089 1037 50.8177 1230.12 537.844
1455 0 79.1298 14.0529 1112 50.6924 1230.06 534.921
1456 0 82.2885 14.3033 1177 50.887 1229.71 534.715
1457 0 82.1421 13.4036 1101 52.7166 1230.3 532.875
1458 0 86.244 14.5517 1255 51.4167 1229.84 533.106
1459 0 88.1643 14.4616 1275 51.8565 1229.71 530.871
1460 0 92.1046 13.4521 1239 52.6118 1229.86 531.996
1461 0 95.1693 14.2903 1360 52.211 1229.68 528.706
1462 0 95.1693 14.3113 1362 164.006 1228.68 528.697
1463 0 101.176 14.0151 1418 52.445 1229.29 525.56
1464 0 106.173 15.0226 1595 51.1122 1228.59 524.258
1465 1 58.1485 13.3279 775 51.3832 1228.83 546.965
1466 0 60.1425 13.0856 787 51.0534 1228.83 547.498
1467 0 60.4203 13.4558 813 51.31 1228.73 547.203
1468 0 62.0647 14.6138 907 50.4708 1228.82 544.35
1469 0 66.2708 13.2336 877 50.9772 1228.81 544.512
1470 0 68.213 12.9594 884 51.3541 1228.45 543.272
1471 0 68.1429 13.9119 948 50.8101 1228.25 542.195
1472 0 72.1713 13.2601 957 51.303 1228.11 542.319
1473 0 74.1687 14.1434 1049 50.3356 1228.09 542.776
1474 0 76.1115 13.8612 1055 51.0976 1228.55 540.702
1475 0 77.1288 13.0042 1003 52.2403 1228.33 539.832
1476 0 81.1638 14.5878 1184 50.6909 1228.29 539.703
1477 0 84.1764 13.3292 1122 51.8948 1228.3 537.942
1478 0 85.146 13.5767 1156 51.8045 1228.05 537.075
1479 0 87.1796 13.627 1188 52.5497 1227.55 533.673
1480 0 92.2624 14.2637 1316 51.696 1227.95 532.093
1481 0 96.3153 14.764 1422 51.6737 1227.61 530.22
1482 0 98.1353 15.2646 1498 51.5547 1228.3 529.142
1483 0 101.16 14.6006 1477 52.717 1227.95 527.66
1484 1 58.0659 12.2964 714 53.3235 1227.96 549.445
1485 0 57.0584 12.0228 686 53.5335 1227.65 548.997
1486 0 60.1123 13.4748 810 52.9198 1227.86 548.882
1487 0 63.1067 13.8496 874 52.3547 1228.01 547.611
1488 0 63.1691 12.9969 821 53.8124 1226.64 546.257
1489 0 65.2505 13.134 857 53.7911 1227.07 546.359
1490 0 66.1005 12.95 856 53.8586 1227.3 544.669
1491 0 69.0987 13.1406 908 53.4273 1227.52 544.261
1492 0 71.1305 13.9181 990 53.1525 1227.16 542.966
1493 0 75.1541 14.1709 1065 52.6714 1227.79 541.033
1494 0 76.1207 13.9515 1062 53.1224 1227.36 540.081
1495 0 79.1043 13.0713 1034 53.5793 1227.2 540.178
1496 0 82.1188 13.4439 1104 53.8234 1228.38 537.82
1497 0 84.0789 14.3318 1205 53.1145 1228.29 535.69
1498 0 87.0616 13.5536 1180 53.3949 1228.27 536.274
1499 0 91.1119 15.0694 1373 52.8674 1228.51 534.709
1500 1 52.0591 12.7547 664 54.7937 1228.86 551.851
1501 0 56.0555 13.6829 767 53.2295 1229.04 550.408
1502 0 56.0731 12.983 728 55.2198 1229.43 548.503
1503 0 58.0552 12.2125 709 56.1749 1229.82 547.643
1504 0 60.1302 13.3543 803 55.1743 1229.73 547.565
1505 0 60.0373 13.425 806 55.6737 1230.08 545.99
1506 0 63.1133 13.959 881 55.2985 1229.98 545.064
1507 0 65.3239 13.3336 871 56.2468 1230.81 538.433
1508 0 66.4206 13.9113 924 56.0141 1230.64 538.469
1509 0 68.3461 13.3877 915 56.0557 1230.69 537.605
1510 0 72.214 13.82 998 55.4439 1231.26 537.727
1511 0 73.3353 13.1178 962 56.5187 1231.07 535.905
1512 0 77.267 14.4823 1119 55.3592 1231.54 532.958
1513 0 78.1886 14.5162 1135 56.185 1231.65 532.482
1514 0 80.3411 13.5049 1085 57.2645 1231.69 532.197
1515 0 83.6249 14.4694 1210 56.5934 1231.96 529.717
1516 0 87.5341 13.9032 1217 56.9343 1232.11 528.275
1517 1 48.2331 12.4396 600 57.87 1232.85 546.725
1518 0 52.4667 12.6747 665 56.603 1232.95 546.859
1519 0 50.3389 12.9125 650 57.4938 1232.95 545.032
1520 0 54.3568 13.4666 732 56.9686 1232.84 542.794
1521 0 56.2815 13.3969 754 57.0358 1233.17 541.902
1522 0 58.2095 13.7091 798 56.5827 1233.37 541.508
1523 0 60.4541 12.9189 781 57.1626 1233.45 540.543
1524 0 62.4634 13.688 855 56.6924 1234.06 540.058
1525 0 63.3083 13.3 842 56.8646 1234 540.76
1526 0 67.2111 14.0602 945 55.2762 1234.34 540.369
1527 0 68.2128 13.971 953 55.4953 1233.41 537.384
1528 0 70.2899 13.9423 980 55.5469 1234.48 538.58
1529 0 75.3129 13.8223 1041 54.488 1234.41 537.708
1530 0 74.2846 13.2867 987 56.1925 1234.48 535.806
1531 0 76.197 13.4782 1027 55.7313 1234.64 534.314
1532 0 79.1796 13.6525 1081 56.4755 1234.39 532.009
1533 0 82.1667 14.0325 1153 56.3166 1234.24 529.793
1534 0 84.2844 14.5578 1227 55.7327 1234.36 529.539
1535 0 88.3214 14.5491 1285 54.9058 1233.95 529.89
1536 0 89.4709 15.0999 1351 55.1932 1233.82 525.028
1537 0 91.1496 15.1838 1384 55.3374 1233.75 525.087
1538 0 95.1287 14.1598 1347 55.7817 1233.46 524.308
1539 0 98.1136 15.4821 1519 54.9612 1233.67 522.947
1540 0 100.192 14.3224 1435 56.1554 1233.47 521.449
1541 0 102.17 14.2312 1454 56.2882 1233.52 520.749
1542 0 107.174 14.4717 1551 55.8607 1232.89 518.337
1543 0 109.362 13.7708 1506 56.4934 1233.67 517.562
1544 0 114.168 14.2596 1628 55.4048 1233.53 516.467
1545 0 119.166 14.8364 1768 54.7279 1233.57 514.504
1546 0 124.086 15.2072 1887 54.1277 1233.43 511.521
1547 0 126.287 14.3641 1814 54.9245 1232.91 508.836
1548 0 130.327 13.8728 1808 55.2069 1232.97 507.363
1549 0 138.391 14.8854 2060 53.8524 1232.82 502.959
1550 1 76.1355 12.6354 962 55.0655 1232.99 533.278
1551 0 79.163 12.5437 993 55.002 1233.15 531.87
1552 0 83.0835 13.0351 1083 54.8052 1232.76 530.161
1553 0 86.1937 13.6205 1174 54.0443 1232.45 528.771
1554 0 86.1683 13.9146 1199 54.4062 1232.83 526.641
1555 0 89.0988 13.8386 1233 54.9473 1232.51 524.316
1556 0 93.1053 14.1882 1321 54.271 1232.53 522.598
1557 0 96.1283 13.1699 1266 55.4131 1232.24 522.093
1558 0 100.074 14.0596 1407 54.5928 1232.24 520.271
1559 0 103.109 13.1609 1357 55.6308 1232.22 520.233
1560 0 105.146 12.7347 1339 56.298 1232.5 518.562
1561 0 108.123 14.1691 1532 55.3792 1232.36 515.054
1562 0 112.13 13.5467 1519 55.4944 1232.17 515.876
1563 0 115.186 13.7256 1581 55.7008 1231.42 512.559
1564 0 120.183 13.804 1659 55.4268 1231.24 509.174
1565 0 124.169 13.401 1664 55.4784 1230.54 509.619
1566 0 130.213 13.7621 1792 55.2461 1230.22 508.364
1567 0 132.217 13.44 1777 55.5678 1229.87 508.446
1568 0 136.245 14.129 1925 55.16 1230.06 502.557
1569 1 79.1072 11.023 872 54.5768 1229.48 531.523
1570 0 81.1274 10.8718 882 55.0068 1229.48 530.751
1571 0 85.1203 11.9008 1013 53.1036 1229.8 531.136
1572 0 86.1579 12.3842 1067 52.896 1229.98 529.519
1573 0 91.1655 12.0221 1096 52.094 1229.17 527.807
1574 0 92.1024 11.3243 1043 52.6146 1229.06 526.947
1575 0 95.0715 11.8648 1128 52.0248 1228.9 526.211
1576 0 98.1214 10.9151 1071 53.3866 1229.83 523.682
1577 0 101.224 11.2128 1135 53.4123 1229.62 522.262
1578 0 105.195 12.5196 1317 52.8102 1229.57 520.101
1579 0 107.075 12.5052 1339 52.8491 1228.31 519.671
1580 0 111.153 11.7046 1301 53.9785 1228.59 518.599
1581 0 114.183 12.9003 1473 53.1439 1228.33 514.991
1582 0 118.208 13.307 1573 52.6573 1228.09 516.196
1583 0 122.344 13.274 1624 52.5825 1228.39 514.592
1584 0 123.326 12.2034 1505 53.8379 1227.7 511.364
1585 0 128.203 12.4022 1590 53.395 1228.69 511.212
1586 0 132.302 12.7814 1691 53.5464 1228.56 506.927
1587 0 137.346 12.5231 1720 53.5907 1228.53 505.86
1588 1 83.3024 10.3118 859 51.943 1227.97 534.731
1589 0 84.5086 11.1705 944 51.9036 1227.65 533.528
1590 0 87.4505 10.1886 891 52.468 1227.59 530.216
1591 0 87.4505 10.1886 891 141.259 1227.59 530.216
1592 0 93.3526 11.2584 1051 50.3245 1228.49 528.656
1593 0 96.3185 11.1505 1074 50.4879 1228.4 527.607
1594 0 100.207 11.3964 1142 50.0368 1227.63 525.208
1595 0 103.183 12.0078 1239 50.226 1228.09 523.461
1596 0 104.351 11.4996 1200 51.0225 1228.22 522.199
1597 0 108.307 11.2827 1222 51.1915 1228.33 519.746
1598 0 110.218 12.3936 1366 50.4356 1228.16 518.529
1599 1 62.144 8.93088 555 50.8 1228.12 544.279
1600 0 67.1096 10.0284 673 49.6315 1228.25 540.41
1601 0 72.2028 9.99961 722 51.162 1228.25 537.776
1602 0 70.3767 10.3728 730 51.1562 1229.52 538.307
1603 0 72.321 10.882 787 50.7738 1229.04 535.2
1604 0 76.2696 11.5118 878 48.7346 1229.52 537.042
1605 0 78.1504 11.4267 893 50.4692 1229.59 534.723
1606 0 80.1703 11.4257 916 50.5797 1229.46 533.487
1607 0 82.2456 12.3289 1014 49.8935 1230.34 529.701
1608 0 86.2751 12.0081 1036 49.5463 1230.42 531.41
1609 0 87.3527 12.2149 1067 49.5679 1230.84 529.004
1610 0 89.3935 12.417 1110 49.6126 1230.75 529.897
1611 0 92.3165 13.9737 1290 48.262 1230.84 526.569
1612 0 91.2368 12.495 1140 49.9684 1230.74 527.673
1613 0 98.1614 13.2333 1299 48.9892 1230.98 526.184
1614 0 99.3128 13.0899 1300 49.0469 1231.63 522.069
1615 0 104.162 12.6341 1316 49.497 1231.65 522.515
1616 0 105.247 13.6726 1439 49.3718 1231.93 519.86
1617 0 108.277 13.1514 1424 50.8258 1232.4 517.581
1618 0 112.295 13.5982 1527 50.3635 1232.3 515.972
1619 1 60.1687 11.1686 672 51.9509 1233.26 540.817
1620 0 62.2268 11.5706 720 50.8569 1233.47 540.718
1621 0 62.1106 11.7371 729 50.9177 1233.25 540.381
1622 0 65.297 12.0526 787 50.7802 1233.1 538.239
1623 0 68.2377 13.409 915 49.3137 1233.31 536.835
1624 0 69.1475 12.1335 839 50.6126 1233.46 536.849
1625 0 71.1276 12.344 878 50.2642 1233.3 536.401
1626 0 73.1548 11.8926 870 51.0115 1233.51 533.869
1627 0 76.1215 13.0055 990 49.6374 1233.66 532.839
1628 0 77.132 12.5629 969 49.5717 1234.02 532.921
1629 0 79.1485 12.3944 981 50.2834 1234.45 530.172
1630 0 81.1719 12.4181 1008 49.8105 1234.19 531.199
1631 0 84.2782 13.9775 1178 48.893 1234.2 527.09
1632 0 86.1928 13.9687 1204 49.3646 1234.06 528.346
1633 0 89.1678 12.7512 1137 50.2806 1233.55 526.53
1634 0 93.1949 13.6274 1270 49.4717 1234.05 525.392
1635 0 91.1485 11.8049 1076 50.8309 1233.93 524.806
1636 0 95.203 13.9912 1332 49.476 1233.91 521.004
1637 0 95.203 13.9702 1330 156.948 1233.92 520.989
1638 0 103.295 13.8245 1428 49.1071 1233.88 518.151
1639 0 106.309 14.6366 1556 48.6395 1234.16 516.36
1640 1 59.127 11.8727 702 49.6553 1233.56 540.255
1641 0 61.1957 12.4028 759 48.3162 1233.77 539.714
1642 0 61.2743 12.5338 768 48.9219 1233.6 538.307
1643 0 64.1528 11.4258 733 49.7299 1233.68 538.558
1644 0 65.1598 12.6305 823 49.1033 1233.72 536.967
1645 0 67.3267 12.6696 853 49.1125 1233.99 537.027
1646 0 68.2487 11.9709 817 50.2999 1233.81 535.865
1647 0 70.303 13.6267 958 49.19 1233.72 534.068
1648 0 72.328 13.6185 985 49.0315 1233.4 532.01
1649 0 76.1138 13.0725 995 48.9367 1232.91 534.471
1650 0 74.406 13.3726 995 49.7085 1232.89 531.438
1651 0 77.3245 12.2988 951 49.9884 1232.83 533.488
1652 0 80.3715 13.2758 1067 49.165 1232.95 530.189
1653 0 80.3089 13.4481 1080 49.1796 1232.4 527.438
1654 0 83.2245 14.0944 1173 48.312 1232.82 525.642
1655 0 86.2517 12.8229 1106 49.3933 1232.13 526.625
1656 0 90.3182 13.7403 1241 48.1958 1231.6 524.757
1657 0 92.2553 13.1375 1212 48.3045 1231.55 524.988
1658 0 94.3662 12.4515 1175 48.9064 1231.6 524.729
1659 0 95.3907 11.825 1128 49.398 1231.77 523.197
1660 0 101.28 12.658 1282 48.7839 1231.63 521.7
1661 0 103.299 13.6885 1414 48.3133 1231.59 517.271
1662 0 106.302 15.5124 1649 46.7307 1231.57 515.728
1663 0 107.56 12.7464 1371 49.3669 1231.47 515.379
1664 0 112.139 13.7508 1542 48.2626 1231.48 516.045
1665 0 113.159 13.3175 1507 49.0478 1231.29 514.301
1666 0 119.203 14.0936 1680 47.9762 1231.68 511.304
1667 1 66.0936 11.0298 729 47.941 1230.87 539.782
1668 0 67.1614 10.5269 707 47.7794 1230.97 540.734
1669 0 70.1483 10.9482 768 47.1549 1230.93 538.349
1670 0 73.1338 12.0738 883 46.53 1230.93 536.357
1671 0 75.2104 13.0833 984 45.8303 1230.97 534.234
1672 0 79.3745 12.6741 1006 46.0368 1230.87 533.835
1673 0 78.2873 11.5472 904 47.1117 1230.54 533.364
1674 0 82.3608 12.4938 1029 46.4762 1231.38 533.355
1675 0 85.4162 12.3981 1059 46.356 1230.64 532.887
1676 0 86.3456 12.3573 1067 46.866 1230.34 531.572
1677 0 91.579 12.9942 1190 46.1269 1230.71 529.5
1678 0 93.594 12.7359 1192 46.7844 1230.19 528.162
1679 0 95.3623 13.9783 1333 46.0578 1230.13 523.455
1680 0 98.3313 14.1156 1388 45.8638 1230.65 526.494
1681 0 101.333 14.5756 1477 46.0014 1230.66 524.259
1682 0 104.292 14.0376 1464 47.0287 1229.98 520.894
1683 0 106.372 12.8417 1366 48.2899 1229.89 520.173
1684 0 108.17 13.5343 1464 47.4337 1230.34 518.7
1685 0 113.326 14.3569 1627 46.3411 1230.04 519.567
1686 0 116.192 13.0818 1520 47.7322 1229.82 516.886
1687 0 119.292 15.3322 1829 46.4729 1230.13 515.309
1688 0 122.303 14.5131 1775 47.471 1229.87 514.279
1689 0 123.327 13.1763 1625 48.8258 1229.31 513.623
1690 0 130.265 13.3267 1736 48.3808 1228.86 514.343
1691 1 75.2244 10.9273 822 48.9489 1228.26 539.766
1692 0 75.2344 11.617 874 49.2769 1228.2 537.254
1693 0 79.0992 12.1114 958 49.2317 1228.5 534.736
1694 0 83.1242 11.549 960 50.2427 1228.11 532.928
1695 0 84.1045 12.5201 1053 49.9544 1228.63 532.595
1696 0 88.3207 12.715 1123 49.3927 1228.56 533.255
1697 0 90.1886 13.2278 1193 49.6706 1228.49 530.658
1698 0 93.1491 14.0313 1307 48.6396 1228.56 531.553
1699 0 95.2112 12.5825 1198 50.6135 1228.6 527.729
1700 0 99.2057 12.8823 1278 50.169 1228.33 526.792
1701 0 103.091 12.9497 1335 50.3056 1227.93 526.792
1702 0 103.214 12.1107 1250 51.7304 1227.62 524.282
1703 0 108.163 14.062 1521 50.0657 1227.66 526.625
1704 0 108.163 14.1083 1526 153.58 1227.64 526.627
1705 0 113.31 13.441 1523 51.52 1228.02 520.664
1706 0 115.398 13.3278 1538 52.0878 1228.36 517.514
1707 0 115.398 13.3278 1538 166.653 1229.35 517.587
1708 0 123.69 14.407 1782 51.2884 1228.04 516.784
1709 0 126.561 14.1117 1786 51.5599 1228.51 515.03
1710 0 129.386 12.6366 1635 53.2245 1228.67 512.461
1711 1 80.2619 10.9267 877 51.6146 1228.3 539.127
1712 0 80.4952 11.9013 958 51.3779 1228.63 537.482
1713 0 84.3116 13.9127 1173 49.8423 1228.75 533.877
1714 0 88.5617 13.3015 1178 50.4525 1228.8 533.891
1715 0 87.3988 12.7576 1115 51.5677 1228.74 531.975
1716 0 91.3216 13.2827 1213 51.5268 1229.35 530.087
1717 0 95.4258 13.1411 1254 51.6292 1229.62 528.627
1718 0 99.2668 13.0859 1299 51.3703 1229.54 526.564
1719 0 100.357 12.7844 1283 51.8979 1229.69 526.306
1720 0 104.581 13.5111 1413 51.5272 1230.28 524.418
1721 0 108.443 13.7952 1496 51.7293 1229.99 522.174
1722 0 110.443 13.2829 1467 52.5194 1230.1 520.491
1723 0 115.533 14.0046 1618 52.2015 1230.36 517.709
1724 0 117.679 12.8315 1510 53.4927 1230.32 515.782
1725 0 122.468 13.9383 1707 52.7376 1230.64 515.761
1726 0 122.468 13.9138 1704 163.634 1230.64 515.765
1727 0 130.621 14.2703 1864 52.1829 1230.75 512.997
1728 0 132.71 14.1662 1880 51.8878 1230.88 511.039
1729 1 76.2071 10.3271 787 52.3456 1230.83 537.534
1730 0 81.3894 12.2989 1001 50.5305 1230.98 535.276
1731 0 81.3622 11.2706 917 51.265 1231.09 534.627
1732 0 83.4178 13.1387 1096 49.6807 1231.46 531.975
1733 0 90.4488 13.3225 1205 48.8631 1231.72 531.356
1734 0 91.4953 12.5252 1146 50.9284 1232.23 530.087
1735 0 91.4953 12.5143 1145 158.035 1233.23 530.031
1736 0 97.348 12.6556 1232 53.3628 1232.77 526.072
1737 0 97.3661 12.1295 1181 55.4877 1232.94 522.969
1738 0 101.46 13.3451 1354 54.2445 1233.01 521.428
1739 0 104.293 13.0881 1365 53.978 1233.31 519.99
1740 0 107.455 13.4941 1450 53.2124 1233.19 518.385
1741 0 110.356 12.0066 1325 54.2845 1233.12 518.502
1742 0 113.339 13.1994 1496 54.3676 1233.5 515.035
1743 0 116.339 13.0137 1514 54.1975 1234.04 515.806
1744 0 118.323 11.9334 1412 54.83 1233.92 512.89
1745 0 125.31 14.4761 1814 51.3991 1234.01 511.668
1746 0 128.332 13.543 1738 52.1812 1234.58 509.492
1747 1 72.241 9.91127 716 52.8589 1234.53 536.465
1748 0 75.1945 11.0513 831 52.0854 1234.51 534.552
1749 0 79.1695 12.0122 951 51.5563 1235.06 532.362
1750 0 82.2207 12.5637 1033 51.5402 1235.42 529.849
1751 0 84.1984 12.6487 1065 51.5371 1235.51 530.114
1752 0 85.2356 11.9668 1020 52.5039 1235.55 529.559
1753 0 88.3894 12.7843 1130 52.0487 1235.59 527.356
1754 0 90.304 11.6717 1054 53.1518 1235.25 525.791
1755 0 92.3701 12.9804 1199 52.2961 1235.6 523.576
1756 0 94.2552 12.2858 1158 53.3713 1235.46 524.429
1757 0 97.2951 12.827 1248 53.0777 1235.31 520.976
1758 0 100.307 12.6712 1271 53.1778 1235.48 521.76
1759 0 105.424 13.5453 1428 52.3578 1235.63 519.145
1760 0 105.174 13.5585 1426 52.7041 1235.77 516.823
1761 0 111.469 12.416 1384 53.6301 1235.99 515.244
1762 0 112.158 13.053 1464 53.7821 1235.82 514.796
1763 0 115.354 13.4716 1554 53.7844 1236.07 512.004
1764 0 117.26 13.1161 1538 54.3446 1235.53 510.617
1765 0 121.407 12.6105 1531 54.9863 1235.28 508.775
1766 0 124.278 13.7755 1712 53.9825 1235.39 506.289
1767 0 127.328 12.9587 1650 54.6382 1235.27 505.552
1768 0 133.43 13.6177 1817 53.3132 1235.23 503.27
1769 0 137.514 14.0204 1928 52.1629 1234.97 502.599
1770 0 139.369 13.5253 1885 53.2313 1234.83 499.68
1771 0 143.522 13.1199 1883 53.5863 1234.81 495.996
1772 0 148.535 12.051 1790 55.4441 1234.3 497.37
1773 1 86.2125 11.1121 958 53.2933 1233.92 529.442
1774 0 88.3002 10.872 960 54.4156 1234.21 527.553
1775 0 93.4286 12.3517 1154 54.0269 1234 524.505
1776 0 95.5398 11.2309 1073 54.8388 1233.71 523.84
1777 0 99.3522 13.0546 1297 52.781 1233.64 520.726
1778 0 102.264 12.2624 1254 53.6077 1233.18 521.445
1779 0 104.227 12.6166 1315 53.876 1233.51 517.313
1780 0 106.428 12.1397 1292 54.154 1233.47 517.991
1781 0 110.247 12.7894 1410 52.8738 1233.16 516.563
1782 0 113.274 13.1451 1489 52.7717 1233.03 513.92
1783 0 115.249 12.9198 1489 53.0316 1233.35 513.546
1784 0 117.215 12.2766 1439 53.5038 1232.47 513.366
1785 0 121.263 12.8646 1560 52.9724 1232.44 510.376
1786 0 123.267 12.8583 1585 52.9937 1232.38 509.841
1787 0 128.303 12.8914 1654 52.9613 1232.06 507.163
1788 0 133.42 13.7536 1835 52.048 1231.86 506.584
1789 0 135.317 13.2503 1793 52.3815 1231.4 505.884
1790 1 82.25 9.72645 800 52.52 1231.06 531.825
1791 0 84.2664 10.716 903 52.3544 1230.8 528.982
1792 0 86.3504 11.9397 1031 51.1765 1230.99 528.726
1793 0 89.2953 12.1843 1088 51.1664 1231.02 528.477
1794 0 91.1884 13.028 1188 50.6869 1231.11 526.661
1795 0 93.2467 12.0219 1121 51.0357 1230.98 526.62
1796 0 96.2236 13.001 1251 50.8002 1230.93 524.27
1797 0 97.2922 12.0976 1177 52.6636 1230.56 520.3
1798 0 103.335 13.0063 1344 50.9874 1230.6 521.869
1799 0 107.352 13.4511 1444 50.8947 1230.06 518.965
1800 0 108.3 13.3333 1444 51.2008 1230.28 516.779
1801 0 110.377 13.1367 1450 51.3917 1230.27 517.388
1802 0 113.525 12.9575 1471 51.463 1230.02 515.602
1803 0 117.34 13.4226 1575 51.2286 1229.88 513.549
1804 1 23.0399 7.98613 184 44.0163 1228.04 561.658
1805 0 23.0216 8.51375 196 43.7092 1228.21 561.745
1806 1 76.0752 8.08411 615 52.5154 1228.98 535.922
1807 0 77.1765 9.89939 764 51.0471 1229.19 536.543
1808 0 77.2177 10.2956 795 50.7698 1229.57 534.947
1809 0 80.1902 10.2506 822 50.3856 1229.25 535.839
1810 0 80.1792 11.5367 925 50.3373 1229.27 533.006
1811 0 82.2955 12.2485 1008 50.0496 1229.02 531.018
1812 0 85.3779 12.4037 1059 49.711 1229.06 530.62
1813 0 86.277 12.2281 1055 49.873 1228.99 527.994
1814 0 92.4766 12.1869 1127 49.6078 1228.73 528.098
1815 0 92.4814 12.0024 1110 50.0685 1228.55 526.776
1816 0 96.2203 12.409 1194 49.9221 1228.79 524.324
1817 0 99.301 12.5779 1249 49.6998 1228.62 523.999
1818 0 100.207 12.5241 1255 50.098 1228.53 519.563
1819 0 101.4 12.3964 1257 50.8194 1228.66 516.727
1820 0 105.199 12.348 1299 50.438 1229.16 518.306
1821 1 24.0078 7.41425 178 42.5674 1229.37 561.275
1822 0 24.0078 7.41425 178 118.062 1229.37 561.275
1823 0 21.0334 7.55941 159 42.9686 1229.93 562.39
1824 0 21.0136 7.56654 159 43.3459 1230.51 561.805
1825 0 21.0009 5.47596 115 43.5304 1230.97 563.774
1826 0 14.0099 6.06715 85 43.1176 1230.89 565.424
1827 0 19.0092 5.99708 114 43 1230.12 564.649
1828 0 21.0977 8.10514 171 43.2398 1230.78 562.86
1829 0 19.0222 5.73015 109 43.6239 1231.09 564.009
1830 0 20.0248 5.54312 111 43.7748 1231.6 565.009
1831 0 20.005 6.74833 135 43.5111 1231.66 563.007
1832 0 21.0702 5.93256 125 43.616 1232.56 564.128
1833 0 18.0198 5.77144 104 44.4135 1232.58 563.269
1834 1 93.2568 7.63484 712 51.1208 1232.11 535.527
1835 0 93.4774 9.39264 878 52.4647 1232.35 527.621
1836 0 93.3938 11.232 1049 50.9981 1232.53 526.781
1837 0 94.3779 10.8818 1027 51.9387 1232.31 525.446
1838 0 99.4898 12.3229 1226 50.8246 1232.71 521.484
1839 0 101.6 12.2342 1243 51.3492 1232.89 520.389
1840 0 105.427 10.6614 1124 52.2874 1233.07 520.358
1841 0 109.448 11.6311 1273 51.5271 1232.95 517.257
1842 0 112.53 10.966 1234 52.2658 1233.37 514.607
1843 0 114.372 11.7424 1343 52.2226 1233.96 510.551
1844 0 119.411 12.0927 1444 51.403 1234.62 511.035
1845 0 124.48 12.4759 1553 51.3329 1234.57 509.207
1846 0 127.453 11.8083 1505 52.3395 1234.04 505.277
1847 1 84.4616 9.51912 804 50.4291 1234.84 531.199
1848 1 16.0752 7.71375 124 44.3306 1234.77 563.081
1849 0 18.0615 6.5886 119 44.2269 1235.03 563.84
1850 0 16.0266 8.1115 130 42.8769 1234.82 563.638
1851 0 19.0538 6.82279 130 44.3923 1235.01 561.308
1852 0 20.0099 7.79614 156 42.8205 1234.45 560.776
1853 0 21.0044 7.61746 160 42.4375 1234.89 560.675
1854 0 19.0627 8.76057 167 41.5629 1234.69 561.844
1855 0 19.0057 7.89238 150 42.1133 1234.2 561.04
1856 0 25.0041 8.19867 205 42.4049 1234.34 559.01
1857 0 25.0202 5.51554 138 43.471 1234.54 560.449
1858 0 23.136 7.52074 174 42.3621 1234.84 560.874
1859 0 22.0885 8.14905 180 42.3333 1233.87 560.411
1860 0 22.0534 8.70612 192 42.5312 1233.65 559.609
1861 0 23.0556 6.41928 148 43.8243 1233.59 560.878
1862 0 24.0645 8.89275 214 43.1682 1233.45 559.626
1863 0 24.0797 8.01506 193 43.0207 1233.25 559.927
1864 0 22.0379 6.26195 138 44.2029 1233.38 560.203
1865 0 21.027 6.3252 133 44.1053 1233.37 560.421
1866 0 21.0505 7.60078 160 44.025 1233.78 559.694
1867 0 17.0197 7.1094 121 44.5289 1233.39 561.099
1868 0 19.0727 6.34415 121 45.0744 1232.74 561.793
1869 1 141.344 11.3199 1600 50.1362 1233.38 498.052
1870 0 147.326 11.7631 1733 49.7144 1233.04 496.149
1871 0 150.429 10.982 1652 49.8856 1232.71 494.529
1872 0 154.395 12.591 1944 48.678 1232.69 491.512
1873 0 160.253 13.2353 2121 47.8411 1232.1 494.33
1874 0 164.253 13.9358 2289 47.8702 1232.28 487.479
1875 0 166.251 12.9563 2154 49.2442 1232.29 485.419
1876 0 171.326 12.6076 2160 49.8856 1232 483.601
1877 0 177.358 13.4474 2385 49.2352 1231.94 480.273
1878 0 182.446 12.3105 2246 50.5521 1231.88 479.268
1879 0 185.513 13.3845 2483 50.2638 1232.17 474.147
1880 0 191.422 13.0236 2493 50.9061 1232.69 475.994
1881 0 197.454 14.2616 2816 50.5277 1232.44 466.058
1882 0 203.508 12.9823 2642 52.1105 1231.79 467.651
1883 0 202.52 13.5295 2740 161.613 1230.85 466.595
1884 1 216.352 14.3193 3098 51.7295 1232.17 463.031
1885 0 222.512 14.0487 3126 52.0691 1232.29 461.68
1886 0 228.658 14.0253 3207 52.2476 1232.13 458.343
1887 0 234.603 13.3118 3123 53.0077 1232.02 455.603
1888 0 241.691 13.4262 3245 53.232 1231.9 448.337
1889 1 192.38 12.6209 2428 52.5828 1231.89 477.982
1890 0 194.366 12.3684 2404 53.4617 1231.78 473.345
1891 0 201.486 12.7304 2565 53.3142 1232.12 467.91
1892 0 207.538 13.0771 2714 53.3007 1232.63 465.569
1893 0 214 12.7383 2726 53.7113 1232.39 464.693
1894 0 219.719 13.2624 2914 53.2701 1232.04 461.895
1895 0 227.861 12.591 2869 54.015 1231.82 459.03
1896 0 232.744 13.4869 3139 53.368 1231.69 455.137
1897 0 238.91 12.9505 3094 54.1694 1231.45 450.798
1898 0 244.784 13.277 3250 54.0945 1231.49 446.146
1899 0 254.723 13.289 3385 53.9031 1230.72 443.213
1900 1 189.693 10.7437 2038 53.9416 1230.77 481.97
1901 0 197.866 12.2002 2414 53.048 1230.65 473.49
1902 0 203.798 12.7528 2599 52.4633 1230.96 469.607
1903 0 209.808 12.2588 2572 53.2768 1230.1 467.561
1904 0 215.952 13.0585 2820 52.7546 1230 465.645
1905 0 220.734 12.3089 2717 53.6043 1230.15 464.253
1906 0 225.833 12.6642 2860 53.3559 1229.59 461.343
1907 0 233.807 12.8311 3000 53.2827 1229.48 456.047
1908 0 237.796 12.5233 2978 54.0786 1229.58 451.788
1909 0 246.935 12.89 3183 53.787 1229.42 449.5
1910 0 251.635 12.6055 3172 54.0224 1229.49 447.677
1911 1 60.3188 9.10164 549 49.3534 1228.75 546.153
1912 0 65.2903 11.1962 731 47.9631 1228.7 543.83
1913 0 65.2903 11.1808 730 138.108 1228.7 543.775
1914 0 66.2839 10.7719 714 48.2661 1228.55 543.137
1915 0 66.3013 10.4824 695 49.0518 1228.22 542.752
1916 0 70.4948 10.9228 770 48.8468 1228.54 540.687
1917 0 69.3519 11.1749 775 49.3303 1227.67 540.81
1918 0 73.3175 11.9344 875 49.8114 1227.99 538.374
1919 0 75.3563 11.147 840 50.9143 1228.42 536.988
1920 0 76.2392 11.4508 873 51.0825 1229.08 537.678
1921 0 79.2828 11.6166 921 51.3073 1227.95 536.452
1922 0 79.3911 12.155 965 51.8166 1227.97 534.044
1923 0 84.4393 12.8613 1086 50.7505 1227.85 533.919
1924 0 84.4235 12.4018 1047 52.1117 1228.02 531.791
1925 0 87.197 12.6725 1105 51.8842 1228 532.234
1926 0 88.2784 12.4153 1096 53.0703 1228.08 530.513
1927 0 90.2841 12.4939 1128 52.9619 1228.38 529.706
1928 0 91.3186 11.6515 1064 54.187 1228.1 527.613
1929 0 94.3404 12.7517 1203 53.1097 1227.95 526.714
1930 0 97.3285 12.4527 1212 53.5998 1228.02 526.103
1931 0 99.281 13.2855 1319 53.1516 1228.24 525.014
1932 0 104.227 13.0004 1355 53.2812 1227.92 522.682
1933 0 102.219 12.5711 1285 54.5751 1228.22 523.395
1934 0 107.232 12.9906 1393 54.1127 1228.36 519.845
1935 0 109.219 12.0767 1319 54.837 1228.17 520.431
1936 0 114.331 13.3823 1530 53.9026 1228.04 518.312
1937 0 117.298 13.8024 1619 53.1699 1227.98 517.691
1938 0 120.283 13.8175 1662 52.8694 1228.11 515.166
1939 0 123.282 13.173 1624 54.0911 1228.12 515.28
1940 0 127.353 13.0425 1661 54.5166 1228.38 511.414
1941 0 131.612 13.2663 1746 54.4061 1228.46 509.534
1942 1 80.3375 10.1198 813 54.4649 1228.04 536.396
1943 0 81.37 10.5444 858 54.3566 1228.36 535.163
1944 0 84.2456 11.3003 952 53.2353 1228.17 532.473
1945 0 86.4162 11.9654 1034 52.175 1228.47 532.511
1946 0 86.4289 12.2529 1059 52.2691 1228.88 530.779
1947 0 89.4131 12.3136 1101 52.2534 1228.58 529.716
1948 0 93.2377 12.6022 1175 51.8136 1228.27 526.641
1949 0 95.5458 12.2245 1168 52.3356 1228.19 525.943
1950 0 95.5318 12.7706 1220 52.4336 1228.67 524.392
1951 0 100.554 12.7196 1279 52.3229 1228.76 522.852
1952 0 101.72 12.79 1301 52.2475 1228.89 523.085
1953 0 103.448 12.8374 1328 52.7673 1229.05 520.709
1954 0 108.555 12.6019 1368 53.008 1229.32 517.227
1955 0 111.581 13.9898 1561 51.6137 1229.67 516.218
1956 0 113.454 12.9656 1471 52.4405 1229.94 515.81
1957 0 117.53 13.6305 1602 52.01 1229.9 512.844
1958 0 122.475 13.5375 1658 51.8462 1230.2 512.333
1959 0 123.766 13.2105 1635 52.0765 1229.92 509.634
1960 0 127.558 13.7899 1759 51.6572 1230.12 507.592
1961 0 131.586 14.0061 1843 51.5301 1230.24 506.228
1962 0 133.776 13.089 1751 52.7847 1230.3 504.882
1963 0 137.662 14.6082 2011 51.3033 1230.76 501.648
1964 0 139.676 13.0444 1822 53.146 1231.04 498.643
1965 0 144.663 13.5003 1953 52.5981 1230.75 500.059
1966 0 149.755 13.9027 2082 52.3746 1231.67 493.82
1967 1 89.5426 10.0623 901 52.2542 1231.65 527.866
1968 0 91.4593 10.6605 975 51.7067 1232.11 527.696
1969 0 93.8093 10.5533 990 51.7424 1232.43 524.997
1970 0 97.6542 11.5407 1127 51.0736 1232.49 522.372
1971 0 100.549 12.2329 1230 50.5797 1232.88 519.792
1972 0 102.573 12.0012 1231 51.0366 1232.6 517.838
1973 0 105.689 12.7449 1347 50.2197 1233.02 517.88
1974 0 109.629 12.3325 1352 50.7382 1233.32 515.373
1975 0 113.739 13.0826 1488 50.2574 1233.48 509.954
1976 0 117.671 12.076 1421 50.798 1233.4 511.426
1977 0 120.366 12.5201 1507 50.4645 1233.65 509.555
1978 0 123.495 12.6402 1561 50.1999 1233.6 507.908
1979 0 126.829 12.4734 1582 49.842 1233.12 506.178
1980 0 129.774 12.044 1563 50.7191 1233.45 504.304
1981 0 134.622 12.8286 1727 49.8888 1233.52 502.594
1982 0 138.833 13.0732 1815 49.6749 1234.15 501.735
1983 0 137.763 11.7303 1616 51.4462 1233.73 500.044
1984 0 141.607 12.2169 1730 51.0555 1233.64 495.669
1985 1 91.2683 9.41181 859 50.3097 1233.44 524.624
1986 0 92.4218 9.21861 852 50.2054 1233.84 523.478
1987 0 98.34 10.7993 1062 49.4171 1233.44 520.622
1988 0 99.3526 10.5886 1052 48.9734 1233.55 521.74
1989 0 101.271 11.7408 1189 48.0875 1233.65 516.675
1990 0 103.407 10.7149 1108 47.9738 1233.57 517.601
1991 0 105.279 11.6073 1222 48.1939 1233.72 513.601
1992 0 108.468 12.5291 1359 47.7145 1233.6 513.995
1993 0 110.383 11.4692 1266 48.9905 1233.46 510.847
1994 0 114.374 12.5116 1431 48.1363 1233.13 511.976
1995 0 117.307 12.3011 1443 48.5544 1234.07 506.626
1996 0 121.327 12.66 1536 48.4954 1234.12 507.087
1997 0 124.354 13.5018 1679 47.8309 1233.52 506.864
1998 0 128.443 13.9673 1794 47.447 1233.43 504.777
1999 0 131.35 13.2775 1744 48.2087 1233.68 503.755
2000 0 134.278 12.3773 1662 49.2262 1233.32 499.002
2001 0 138.313 13.1513 1819 48.5179 1233.22 498.625
2002 0 140.278 13.4234 1883 48.3192 1232.93 496.69
2003 0 143.457 13.3211 1911 48.5924 1232.93 495.241
2004 0 148.298 12.5761 1865 49.4504 1232.36 492.449
2005 0 153.473 14.1654 2174 48.5478 1232.19 491.266
2006 0 158.424 12.8453 2035 49.9312 1231.89 488.135
2007 0 161.314 12.6647 2043 50.1419 1232.34 488.735
2008 0 167.326 13.2138 2211 49.5753 1232.31 486.295
2009 0 171.333 13.2257 2266 49.9475 1231.68 483.954
2010 0 175.583 12.9967 2282 50.5859 1232.22 478.169
2011 0 180.524 13.3113 2403 49.9326 1232.32 479.861
2012 0 188.546 15.3861 2901 48.121 1232.4 476.795
2013 0 191.364 13.8427 2649 49.9811 1232.31 471.349
2014 0 197.424 13.7724 2719 50.2913 1232.3 468.72
2015 0 201.65 13.1069 2643 50.9898 1231.98 469.279
2016 0 207.515 13.4111 2783 50.7262 1231.91 469.903
2017 0 213.613 13.7585 2939 50.9309 1231.98 460.924
2018 0 218.644 14.3064 3128 50.3999 1232.23 456.56
2019 0 223.806 13.5608 3035 51.4511 1231.82 454.997
2020 1 58.481 8.94308 523 46.457 1232.37 542.235
2021 0 60.2391 9.9437 599 45.5209 1232.48 543.429
2022 0 60.1246 9.44704 568 45.7658 1231.1 540.364
2023 0 62.1904 8.07198 502 46.7032 1231.58 542.438
2024 0 65.1877 10.5541 688 45.3459 1230.89 540.391
2025 0 65.2287 10.8081 705 45.6624 1231.29 538.952
2026 0 68.5376 10.9283 749 45.3591 1231.46 538.218
2027 0 69.4042 11.1953 777 45.1441 1231.37 537.736
2028 0 72.3179 10.5645 764 46.0065 1231.35 538.208
2029 0 74.3332 11.1659 830 46.0626 1231.07 534.745
2030 0 76.4981 11.3075 865 45.9873 1231.36 537.553
2031 0 78.4802 10.7416 843 47.0522 1231.11 535.074
2032 0 79.5485 11.339 902 47.4313 1231.35 533.355
2033 0 81.3786 10.5925 862 48.2483 1230.79 533.024
2034 0 83.5184 11.0275 921 48.3865 1230.87 531.052
2035 0 85.215 10.5967 903 48.7331 1230.33 530.637
2036 0 87.5155 12.1578 1064 48.0085 1230.15 529.105
2037 0 90.3568 12.5834 1137 47.482 1230.14 529.954
2038 0 90.5224 11.5993 1050 48.7886 1229.84 527.41
2039 0 89.3354 11.7535 1050 49.139 1229.5 526.423
2040 0 96.7261 11.6928 1131 49.3546 1229.28 524.339
2041 0 96.6702 11.4306 1105 49.2326 1229.12 526.885
2042 0 99.4199 12.07 1200 49.0758 1229.62 523.842
2043 0 101.624 12.0444 1224 49.1168 1229.3 524.255
2044 0 103.501 11.4782 1188 49.963 1229.18 521.26
2045 0 106.612 11.7248 1250 50.1416 1229.08 518.6
2046 0 110.406 11.9921 1324 49.2251 1229.38 518.911
2047 1 66.3757 10.531 699 48.3076 1229.38 542.318
2048 0 66.5455 10.5642 703 48.7013 1229.27 540.863
2049 0 69.2942 11.7181 812 47.5727 1228.7 539.675
2050 0 69.2452 11.8131 818 47.3863 1228.24 538.364
2051 0 72.4091 11.7665 852 46.4155 1228.31 541.089
2052 0 74.4568 11.1205 828 47.0906 1227.57 541.132
2053 0 74.385 11.0506 822 47.9854 1227.84 537.106
2054 0 76.3679 11.9815 915 49.2699 1227.72 535.777
2055 0 78.385 11.6221 911 49.573 1227.77 535.193
2056 0 77.32 11.045 854 50.7283 1227.47 535.191
2057 0 80.5382 12.5779 1013 49.6012 1227.42 535.057
2058 0 82.2855 12.3594 1017 49.7984 1227.49 533.844
2059 0 83.6285 12.2566 1025 50.3698 1227.77 531.006
2060 0 87.3549 13.0044 1136 49.6664 1227.03 531.716
2061 0 89.4208 11.9659 1070 50.4495 1227.2 531.338
2062 0 91.4589 12.5521 1148 50.5453 1227.44 529.648
2063 0 94.5009 12.8253 1212 50.2492 1227.16 528.188
2064 0 95.4637 12.2245 1167 51.1405 1227.47 527.949
2065 0 97.348 13.0973 1275 50.9522 1227.65 526.296
2066 0 100.43 12.9145 1297 51.1573 1227.55 524.881
2067 0 105.341 13.1003 1380 50.9616 1227.77 522.724
2068 1 60.2037 11.2452 677 51.223 1227.53 543.108
2069 0 63.2012 11.5346 729 50.2867 1227.29 543.964
2070 0 64.1274 11.0873 711 50.955 1227.54 543.596
2071 0 66.2016 11.7218 776 50.6443 1226.8 542.376
2072 0 69.3086 13.0142 902 49.7916 1227.74 541.398
2073 0 68.3703 11.9058 814 51.7297 1227.61 538.856
2074 0 71.2068 12.6252 899 51.5751 1227.93 538.531
2075 0 70.2056 12.2497 860 52.2872 1228.5 537.663
2076 0 74.1825 12.294 912 51.6184 1228.41 536.487
2077 0 77.1143 12.6695 977 50.7677 1228.68 535.767
2078 0 78.0831 12.1537 949 51.6428 1228.79 534.445
2079 0 82.1603 13.0355 1071 50.6676 1228.92 533.59
2080 0 80.1002 13.0961 1049 51.612 1229.19 531.061
2081 0 83.1197 12.1993 1014 52.6351 1229 529.66
2082 0 87.1751 13.341 1163 51.1788 1230.06 528.886
2083 0 89.1334 13.1488 1172 51.7201 1229.82 529.634
2084 0 92.1042 13.0504 1202 51.822 1230.42 526.784
2085 0 95.2024 13.5921 1294 51.5015 1229.94 525.649
2086 0 97.1852 13.1707 1280 51.943 1230.18 522.788
2087 0 99.189 12.7736 1267 52.8303 1230.38 521.566
2088 0 103.269 12.9275 1335 52.376 1230.44 521.016
2089 0 104.206 13.6652 1424 52.2191 1231.01 518.044
2090 0 107.244 13.2875 1425 53.0105 1230.87 515.693
2091 1 63.1104 10.1885 643 53.112 1231.23 540.072
2092 0 66.1571 10.4448 691 53.6194 1231.91 538.931
2093 0 64.2255 10.9302 702 53.8518 1231.44 536.353
2094 0 68.1323 11.6538 794 53.0894 1231.54 537.281
2095 0 71.2188 10.9241 778 53.6838 1232.08 537.578
2096 0 73.1812 11.5603 846 53.4066 1232.05 535.462
2097 0 76.1195 13.3212 1014 52.3008 1231.84 532.956
2098 0 77.1457 12.5866 971 53.2729 1231.88 532.951
2099 0 79.1187 12.4623 986 53.5162 1232.31 532.625
2100 0 80.2744 12.8061 1028 53.8862 1232.24 530.912
2101 0 84.2176 13.287 1119 53.1206 1232.04 528.996
2102 0 87.1145 13.1781 1148 53.0017 1232.54 529.733
2103 0 88.2147 13.0817 1154 53.4445 1232.31 527.643
2104 0 91.1104 12.7208 1159 53.6057 1233.33 526.62
2105 0 94.1426 13.1821 1241 53.3586 1233.14 522.662
2106 0 97.1874 13.7878 1340 52.3246 1233.74 523.881
2107 0 99.2427 13.0891 1299 53.2887 1233.74 521.819
2108 0 102.191 12.7213 1300 54.2169 1234.09 519.895
2109 0 103.241 12.9018 1332 54.6164 1233.93 517.506
2110 0 108.184 13.4771 1458 53.7455 1233.74 515.65
2111 0 111.269 13.4269 1494 53.6138 1234.02 514.198
2112 0 115.339 14.7044 1696 52.2535 1233.91 513.694
2113 0 117.22 14.2552 1671 53.1227 1233.85 512.47
2114 0 120.439 14.0735 1695 53.2484 1234.09 510.602
2115 0 124.192 14.0669 1747 52.9737 1233.82 511.392
2116 1 72.1577 11.3917 822 53 1233.75 534.055
2117 0 74.3278 10.8573 807 53.0136 1233.45 535.379
2118 0 76.1815 11.8533 903 52.5836 1233.55 531.564
2119 0 80.1993 12.4066 995 51.6874 1233.35 531.643
2120 0 82.1936 12.2759 1009 51.6829 1233.42 530.39
2121 0 85.1502 12.8127 1091 51.5454 1233.64 529.779
2122 0 86.2521 12.3939 1069 52.1478 1233.08 528.126
2123 0 88.1061 13.4383 1184 50.799 1233.3 527.9
2124 0 91.285 12.806 1169 51.3405 1232.98 525.838
2125 0 92.1166 12.2019 1124 52.1797 1233.05 525.728
2126 0 97.2931 13.5364 1317 50.2794 1232.44 523.731
2127 0 100.221 13.101 1313 51.1104 1231.8 521.98
2128 0 103.185 14.2172 1467 49.9577 1231.78 520.627
2129 0 103.271 12.2686 1267 52.1121 1231.28 519.013
2130 0 107.282 12.826 1376 51 1231.17 520.977
2131 0 113.258 12.5024 1416 51.7196 1231.48 518.3
2132 0 112.343 13.343 1499 51.5317 1231.55 514.88
2133 0 116.244 13.0158 1513 51.8348 1231.73 514.928
2134 0 121.255 14.3005 1734 50.5975 1232.26 511.826
2135 0 122.333 13.0464 1596 51.7581 1232.15 510.989
2136 0 130.367 13.9068 1813 50.4865 1231.04 509.832
2137 0 131.355 12.9192 1697 52.0825 1231.93 505.131
2138 0 135.321 13.7969 1867 51.3621 1231.42 503.898
2139 1 82.5811 12.3999 1024 50.0088 1231.66 536.922
2140 0 83.227 12.0874 1006 51.5686 1231.43 533.009
2141 0 83.227 12.1475 1011 160.772 1231.43 533.016
2142 0 88.3574 13.6378 1205 50.9992 1231.26 527.732
2143 0 92.5192 13.0784 1210 50.7 1231.39 529.213
2144 0 92.5192 13.1 1212 164.672 1231.37 529.232
2145 0 97.4969 13.4568 1312 51.2424 1231.24 527.21
2146 0 100.542 13.4273 1350 51.0941 1231.08 524.342
2147 0 104.253 14.1483 1475 50.2095 1230.79 524.137
2148 0 108.527 13.8583 1504 50.7926 1230.46 522.046
2149 0 109.565 12.5953 1380 51.8507 1230.93 522.743
2150 0 113.428 13.8766 1574 51.1703 1231.31 518.226
2151 0 116.454 13.5933 1583 51.4662 1230.34 518.612
2152 0 118.433 13.0706 1548 52.5181 1230.77 514.399
2153 0 124.652 13.3572 1665 51.5898 1230.56 513.411
2154 1 73.5392 10.2122 751 51.6471 1230.56 541.394
2155 0 74.4058 11.0341 821 51.5018 1230.19 539.705
2156 0 77.2778 12.7203 983 50.1282 1229.88 537.821
2157 0 78.5559 12.5388 985 50.5127 1229.86 536.929
2158 0 82.5887 13.7549 1136 49.4349 1229.73 534.439
2159 0 84.4555 13.072 1104 50.9629 1229.63 533.165
2160 0 86.7431 13.1999 1145 50.7319 1229.92 532.364
2161 0 91.4143 12.8208 1172 50.8925 1229.06 531.787
2162 0 93.5493 12.6244 1181 51.392 1229.54 530.597
2163 0 97.7286 13.0259 1273 50.7934 1229.3 528.539
2164 0 99.4799 12.7865 1272 51.4041 1228.83 526.828
2165 0 103.528 13.3298 1380 51.2348 1228.76 526.009
2166 0 105.601 13.2669 1401 51.7652 1229.37 523.298
2167 0 108.847 12.7335 1386 52.3499 1229.4 522.406
2168 0 112.835 13.5241 1526 51.1638 1229.63 521.239
2169 0 115.582 13.7392 1588 51.6253 1229.3 520.375
2170 0 118.943 13.0399 1551 52.412 1229.48 517.913
2171 0 120.457 13.5152 1628 52.1658 1229.32 517.621
2172 0 126.878 14.1947 1801 51.1899 1229.04 515.26
2173 0 129.55 14.3805 1863 51.5615 1229.37 513.005
2174 0 132.816 15.1487 2012 50.9916 1228.85 510.426
2175 0 136.502 14.4174 1968 51.623 1229.25 507.936
2176 0 139.874 13.4549 1882 52.8884 1228.8 508.04
2177 0 142.984 14.1135 2018 52.8845 1229.63 506.189
2178 0 148.778 14.6258 2176 52.6057 1229.66 501.602
2179 0 153.702 14.7298 2264 52.4395 1228.52 499.377
2180 0 156.514 14.0626 2201 54.3071 1229.1 497.697
2181 0 162.598 14.4959 2357 53.6194 1228.74 495.366
2182 0 166.799 14.2807 2382 53.8837 1228.82 493.508
2183 1 93.8507 13.0633 1226 54.4307 1228.29 530.234
2184 0 99.7045 14.0616 1402 53.2768 1228.86 526.119
2185 0 99.8349 13.1217 1310 54.9069 1228.75 525.28
2186 0 103.608 14.1592 1467 54.0116 1229.03 522.213
2187 0 104.574 13.3876 1400 55.3529 1229.37 521.908
2188 0 112.526 14.2278 1601 53.8463 1229.29 517.912
2189 0 115.558 13.967 1614 54.3594 1229.49 518.042
2190 0 119.465 13.7698 1645 54.5179 1229.55 517.343
2191 0 121.53 13.8731 1686 54.8873 1230.43 515.491
2192 0 127.704 13.8524 1769 55.4658 1230.38 512.21
2193 0 129.549 14.1414 1832 55.434 1230.5 510.498
2194 0 133.677 15.4402 2064 53.5465 1230.89 508.08
2195 0 136.618 13.9514 1906 55.5955 1231.04 508.165
2196 0 141.603 14.1381 2002 55.3751 1231.53 504.029
2197 0 144.725 14.1786 2052 55.1101 1231.21 502.321
2198 0 150.594 14.0975 2123 55.1229 1231.93 498.237
2199 0 154.455 14.8263 2290 54.7236 1232.01 496.202
2200 0 160.628 13.9577 2242 55.5544 1232.31 493.036
2201 1 92.4009 12.1752 1125 56.1956 1232.13 527.195
2202 0 96.3315 12.3013 1185 55.9511 1232.76 524.9
2203 0 97.193 12.7478 1239 56.322 1232.59 522.797
2204 0 103.415 13.2669 1372 55.8112 1233.07 521.827
2205 0 105.482 13.5189 1426 55.7525 1232.69 520.648
2206 0 106.364 13.0119 1384 56.4762 1232.95 518.27
2207 0 111.306 13.5482 1508 56.061 1233.4 515.288
2208 0 114.195 12.4699 1424 57.3715 1233.28 514.624
2209 0 117.287 13.6247 1598 56.4155 1233.88 512.4
2210 0 122.345 13.8788 1698 56.3045 1233.77 510.108
2211 0 125.379 13.5669 1701 56.7372 1233.49 508.182
2212 0 126.399 12.2548 1549 57.9393 1233.88 506.363
2213 0 133.399 13.5084 1802 56.5866 1233.64 507.371
2214 0 136.321 13.9817 1906 56.522 1234.44 503.123
2215 0 139.324 13.6803 1906 56.8237 1234.05 500.692
2216 0 144.306 12.9378 1867 57.6706 1234.57 498.68
2217 0 149.457 14.7801 2209 56.0335 1234.53 494.225
2218 0 153.361 13.8432 2123 56.9557 1235.23 491.05
2219 0 159.208 14.1702 2256 56.898 1235.23 487.89
2220 0 162.332 13.4785 2188 58.3213 1234.32 487.144
2221 0 169.277 14.367 2432 57.9174 1234.72 482.91
2222 0 174.271 14.2193 2478 58.2328 1234.82 483.121
2223 0 180.224 13.9049 2506 59.0267 1235 479.335
2224 0 186.361 14.3271 2670 58.8644 1235.12 474.996
2225 0 191.311 15.4199 2950 57.7237 1234.98 471.574
2226 0 197.419 14.7453 2911 58.9948 1234.81 471.699
2227 0 201.413 14.5274 2926 59.2344 1234.78 467.378
2228 0 209.593 14.7762 3097 59.2958 1234.92 464.133
2229 0 214.516 14.8614 3188 60.8588 1234.88 458.089
2230 0 220.335 14.8864 3280 60.7954 1234.7 457.569
2231 0 228.384 15.3907 3515 60.1036 1234.89 456.127
2232 1 60.1239 9.74654 586 53.4386 1233.08 541.45
2233 0 59.065 8.44833 499 54.6393 1233.12 541.058
2234 0 62.1496 9.95984 619 53.0969 1232.38 541.646
2235 0 64.1725 11.5314 740 52.7486 1233.41 538.607
2236 0 68.1531 11.2101 764 52.8678 1233.26 537.528
2237 0 68.1308 11.0669 754 53.6472 1233.36 535.182
2238 0 72.1786 10.765 777 53.6615 1233.33 534.846
2239 0 74.1117 11.5906 859 53.1385 1233.15 532.865
2240 0 75.1382 10.7801 810 54.4827 1233.09 532.026
2241 0 76.1666 11.7243 893 53.2688 1233.58 531.475
2242 0 82.2395 11.7097 963 53.2129 1233.31 530.223
2243 0 81.109 11.4044 925 54.2562 1233.9 529.053
2244 0 86.1508 12.1879 1050 53.0933 1234.46 528.258
2245 0 86.1114 11.578 997 54.4172 1233.72 527.431
2246 0 87.1265 11.3972 993 54.7351 1232.69 526.888
2247 0 92.1903 11.4329 1054 54.8264 1233.07 524.028
2248 0 95.0954 11.7146 1114 54.5171 1232.12 523.814
2249 0 96.0784 12.3857 1190 54.758 1232.03 521.502
2250 0 99.2689 11.7257 1164 55.5507 1232.28 520.757
2251 0 102.174 13.0855 1337 54.3523 1232.38 520.001
2252 0 103.203 12.364 1276 55.7578 1232.43 517.531
2253 0 108.243 12.9892 1406 55.0846 1231.89 515.384
2254 0 109.21 12.2516 1338 56.4552 1231.83 514.592
2255 0 113.281 12.5352 1420 56.8746 1231.74 515.821
2256 0 113.248 12.6978 1438 57.701 1231.88 514.117
2257 1 74.2777 10.905 810 56.5642 1231.3 536.338
2258 0 75.1516 11.3903 856 57.3516 1231.27 532.722
2259 0 77.1315 12.0444 929 56.0818 1230.87 533.25
2260 0 79.0856 12.2525 969 56.5088 1231.04 532.904
2261 0 80.1766 12.4974 1002 56.0938 1230.61 532.33
2262 0 81.1163 12.5129 1015 56.6217 1231.16 530.984
2263 0 83.2088 11.8978 990 57.1455 1230.99 530.373
2264 0 86.1821 12.5664 1083 56.3426 1231.27 531.09
2265 0 87.2267 12.4618 1087 56.8234 1231.41 528.888
2266 0 89.2018 11.8944 1061 58.0763 1231.03 527.528
2267 0 93.2252 13.3762 1247 56.6632 1232.04 527.494
2268 0 94.2003 12.5265 1180 58.1203 1231.86 526.551
2269 0 96.2479 12.5405 1207 58.3977 1231.95 525.708
2270 0 98.2144 12.9004 1267 58.9992 1231.93 523.108
2271 0 99.0963 12.5434 1243 59.5253 1232.04 523.478
2272 0 102.222 13.2359 1353 58.4531 1232.04 522.608
2273 0 103.26 12.7543 1317 59.6295 1231.79 520.51
2274 0 108.242 13.1927 1428 58.9489 1231.9 520.847
2275 1 65.179 10.4942 684 58.7471 1231.94 540.481
2276 0 69.0786 10.8862 752 58.2793 1231.62 541.031
2277 0 71.2344 11.1603 795 58.912 1231.05 540.092
2278 0 71.2344 11.2024 798 163.33 1231.03 540.187
2279 0 76.0822 12.6179 960 57.026 1231.37 537.785
2280 0 74.206 12.088 897 58.7447 1231.12 536.932
2281 0 76.3799 12.1891 931 58.5306 1231.22 534.881
2282 0 79.0715 13.0262 1030 57.7485 1231.14 534.703
2283 0 81.2611 13.6474 1109 56.8341 1230.81 532.781
2284 0 83.2061 13.5687 1129 56.9832 1230.89 533.486
2285 0 86.3136 13.9955 1208 56.4528 1230.46 530.713
2286 0 86.1569 12.9763 1118 58.025 1230.67 529.996
2287 0 90.3805 13.4321 1214 57.3377 1230.18 529.881
2288 0 93.307 13.5681 1266 57.4992 1230.86 528.983
2289 0 94.2411 13.3063 1254 58.0024 1230.65 529.293
2290 0 99.3106 14.6007 1450 56.149 1230.61 525.962
2291 0 102.365 14.1748 1451 56.601 1230.36 525.932
2292 0 103.425 13.3333 1379 57.3212 1230.75 525.419
2293 0 104.274 13.9056 1450 57.4221 1230.48 522.727
2294 0 109.372 14.1809 1551 57.6035 1229.78 521.346
2295 0 110.536 13.6788 1512 58.3221 1230.43 519.247
2296 0 114.405 14.1864 1623 57.4615 1230.55 516.855
2297 0 116.391 14.2881 1663 57.9152 1230.44 516.232
2298 0 122.423 14.4907 1774 57.8985 1230.55 515.57
2299 0 123.58 14.1933 1754 58.114 1230.6 512.859
2300 0 128.652 14.2167 1829 57.5473 1230.47 512.454
2301 0 131.328 13.7595 1807 57.9253 1230.27 510.483
2302 0 134.513 14.3407 1929 57.5785 1230.68 509.435
2303 0 138.724 13.6314 1891 58.825 1230.59 507.029
2304 0 142.904 14.3873 2056 57.5798 1230.4 504.163
2305 0 148.674 14.9387 2221 56.7244 1230.52 501.851
2306 0 152.828 14.3168 2188 57.5667 1230.18 499.464
2307 0 157.828 14.4398 2279 57.0842 1230.27 498.652
2308 0 162.64 14.5044 2359 57.401 1229.77 494.362
2309 0 167.232 14.1899 2373 57.5773 1230.12 492.002
2310 1 95.5515 12.475 1192 56.568 1230.07 527.092
2311 0 99.6971 12.5279 1249 55.94 1229.96 528.432
2312 0 102.553 12.7641 1309 56.2949 1229.97 526.254
2313 0 107.414 13.2385 1422 55.5 1230.22 522.824
2314 0 109.45 12.4075 1358 56.3218 1230.28 522.262
2315 0 111.722 13.3725 1494 55.2055 1230.46 519.574
2316 0 115.586 13.4272 1552 55.7017 1230.51 517.262
2317 0 120.541 13.2569 1598 55.5069 1230.5 516.844
2318 0 121.651 13.1278 1597 55.8015 1230.83 514.572
2319 0 127.616 12.9137 1648 56.0534 1231.09 511.493
2320 0 129.675 12.7087 1648 56.2682 1231.31 510.271
2321 0 134.483 12.0461 1620 56.6901 1231.49 509.781
2322 0 139.473 13.128 1831 55.6499 1231.54 505.725
2323 0 143.575 13.8603 1990 54.7231 1231.42 504.431
2324 0 148.438 13.3726 1985 55.4217 1231.91 499.013
2325 0 148.438 13.3524 1982 156.013 1232.9 499.074
2326 0 158.481 13.5789 2152 55.2672 1231.79 491.837
2327 0 162.672 13.1861 2145 55.6298 1232.58 490.779
2328 0 166.695 13.6296 2272 55.5916 1232.53 486.932
2329 0 171.891 13.4853 2318 55.525 1232.44 483.431
2330 0 179.442 13.8429 2484 55.2335 1232.52 477.451
2331 0 184.699 14.4939 2677 54.8054 1233.17 474.261
2332 0 190.472 14.2226 2709 55.0365 1233.38 471.811
2333 0 194.575 14.0562 2735 55.3269 1232.98 471.678
2334 0 199.507 13.9444 2782 55.486 1233 468.611
2335 0 208.479 14.601 3044 54.4934 1233.04 463.386
2336 0 212.406 14.1615 3008 55.1838 1233.02 461.332
2337 1 49.1465 10.9265 537 51.6369 1232.32 540.996
2338 0 52.1175 12.6637 660 50.9515 1232.7 540.83
2339 0 54.1972 12.5652 681 51.0543 1233.91 541.37
2340 0 57.1315 12.4975 714 51.1471 1233.88 540.745
2341 0 58.5823 11.71 686 52.0233 1233.59 540.338
2342 0 59.3044 12.7478 756 51.5119 1233.97 541.463
2343 0 61.1458 13.0998 801 51.4757 1234.34 538.378
2344 0 65.3253 13.915 909 50.2255 1234.37 538.153
2345 0 66.3047 12.714 843 51.5884 1234.49 537.561
2346 0 67.5736 13.7776 931 50.8883 1234.62 535.34
2347 0 68.414 11.5766 792 53.3775 1234.55 535.563
2348 0 68.414 11.5327 789 156.259 1235.55 535.536
2349 0 73.3406 12.7078 932 52.2725 1234.56 535.286
2350 0 76.3988 13.1416 1004 52.1972 1234.52 532.472
2351 0 78.3883 12.8718 1009 52.4519 1234 533.227
2352 0 80.2398 13.1979 1059 52.9358 1234.31 531.057
2353 0 85.4001 13.9227 1189 51.8587 1234.33 528.765
2354 0 85.3822 13.504 1153 52.66 1233.86 529.114
2355 0 87.3067 13.7447 1200 52.3167 1233.78 526.975
2356 0 91.364 13.7363 1255 52.4478 1234.01 524.684
2357 0 93.4146 13.3063 1243 52.4521 1233.98 524.388
2358 0 96.4875 14.4371 1393 51.9971 1234.12 523.186
2359 0 98.6195 13.8411 1365 52.7355 1234.06 520.221
2360 0 101.465 13.8077 1401 53.0293 1233.64 520.488
2361 0 108.399 15.3968 1669 51.0503 1233.61 516.788
2362 0 105.661 15.351 1622 51.9464 1233.83 514.723
2363 0 105.659 14.0073 1480 52.9095 1233.82 514.716
2364 0 106.861 12.3431 1319 54.4943 1233.34 517.524
2365 1 68.6797 13.5702 932 53.1803 1232.9 533.27
2366 0 69.6616 14.0967 982 53.2505 1233.02 532.384
2367 0 71.395 13.2222 944 54.1335 1232.75 533.39
2368 0 75.9964 13.1059 996 54.252 1232.42 533.296
2369 0 77.6416 14.1677 1100 53.2655 1232.53 532.573
2370 0 78.7369 13.9071 1095 54.7589 1232.51 529.183
2371 0 80.6018 14.3669 1158 53.7573 1232.14 528.924
2372 0 83.6703 15.1308 1266 53.3957 1231.93 526.742
2373 0 87.6538 14.9338 1309 53.6364 1231.97 526.967
2374 0 88.5043 14.9371 1322 54.1468 1231.74 525.964
2375 0 91.7548 13.9611 1281 55.3013 1231.94 524.184
2376 0 92.8737 14.9773 1391 54.8541 1231.83 523.008
2377 0 94.9947 13.8955 1320 56.3227 1231.77 521.224
2378 0 99.877 14.5379 1452 55.126 1232.17 519.638
2379 1 58.5061 11.6056 679 56.1458 1231.18 541.882
2380 0 58.3644 10.5715 617 57.7374 1231.58 542.741
2381 0 61.3911 11.8421 727 53.9972 1231.19 541.692
2382 0 63.4142 12.2212 775 54.3729 1231.57 540.142
2383 0 64.5578 13.0271 841 53.6017 1231.3 539.036
2384 0 67.5808 13.421 907 53.226 1231.62 540.067
2385 0 69.4261 13.842 961 52.9116 1231.66 538.197
2386 0 68.4207 13.4901 923 54.4789 1231.58 537.432
2387 0 72.2813 14.0839 1018 53.4872 1232.05 536.187
2388 0 74.4255 13.6915 1019 53.9225 1231.9 536.349
2389 0 76.3374 13.9643 1066 53.5938 1232 535.471
2390 0 78.4058 13.9658 1095 53.7626 1232.08 534.311
2391 0 82.383 14.5661 1200 52.9417 1232.16 532.01
2392 0 82.3113 13.6069 1120 54.6893 1231.48 531.275
2393 0 85.3745 13.9737 1193 53.7904 1231.92 531.153
2394 0 88.6385 14.7566 1308 53.4205 1231.57 528.145
2395 0 90.4596 14.3268 1296 53.5455 1231.75 528.908
2396 0 93.246 13.8236 1289 54.2351 1232.11 525.264
2397 0 96.4726 14.9162 1439 53.36 1232.07 523.546
2398 0 99.1732 14.8931 1477 53.1936 1232.15 522.705
2399 0 101.393 14.429 1463 53.7526 1232.33 521.478
2400 0 103.349 13.6625 1412 54.4632 1231.43 521.281
2401 0 108.336 14.9996 1625 53.2806 1231.55 517.518
2402 0 112.379 14.1218 1587 53.6358 1231.6 518.454
2403 0 114.304 15.0388 1719 52.9866 1231.45 517.127
2404 0 118.227 15.0727 1782 52.5 1230.49 516.594
2405 0 123.246 15.1161 1863 52.2373 1230.65 512.924
2406 0 125.331 15.3433 1923 52.1726 1230.86 511.662
2407 1 74.1749 11.9987 890 53.6079 1229.98 536.939
2408 0 78.2702 12.5079 979 53.1542 1230.08 533.823
2409 0 80.2025 13.8774 1113 52.5301 1229.8 534.221
2410 0 83.1968 13.2577 1103 53.4207 1229.41 531.112
2411 0 87.2105 13.9777 1219 52.4077 1229.48 530.128
2412 0 87.1883 13.7633 1200 53.0508 1229.67 528.359
2413 0 91.097 14.0619 1281 52.9735 1229.83 525.508
2414 0 93.2312 13.3861 1248 53.4896 1229.71 525.066
2415 0 98.2422 14.9019 1464 52.3818 1229.64 523.028
2416 0 101.3 14.3436 1453 52.8679 1229.77 523.765
2417 0 103.181 14.6732 1514 52.7886 1229.78 521.966
2418 0 105.177 13.4725 1417 53.9873 1230.11 522.431
2419 0 109.176 14.2705 1558 53.2978 1229.92 520.377
2420 0 112.32 14.3251 1609 53.5028 1229.69 518.5
2421 0 116.174 14.7021 1708 53.195 1229.86 516.402
2422 0 118.143 14.5332 1717 53.6476 1229.91 513.765
2423 0 125.304 14.5167 1819 53.3991 1229.45 513.938
2424 0 128.195 14.9928 1922 53.2612 1229.55 510.137
2425 0 131.203 14.7863 1940 53.6361 1229.51 510.512
2426 0 137.397 15.0876 2073 53.3657 1229.27 507.462
2427 1 81.1442 12.5949 1022 54.0724 1229.15 534.229
2428 0 81.1442 12.5825 1021 177.84 1229.15 534.317
2429 0 86.1794 12.8917 1111 53.3177 1229.07 532.85
2430 0 88.1828 13.6761 1206 53.0041 1228.93 528.74
2431 0 91.0732 13.3629 1217 53.4971 1228.79 527.036
2432 0 91.1302 13.5411 1234 54.0502 1229.49 526.109
2433 0 95.1912 13.5832 1293 53.8631 1229.33 525.213
2434 0 98.2209 14.2129 1396 53.1984 1229.55 525.567
2435 0 102.206 13.3945 1369 54 1229.71 521.106
2436 0 105.275 14.0394 1478 53.2023 1229.92 521.159
2437 0 108.109 13.8934 1502 53.7324 1229.7 519.033
2438 0 113.277 14.1512 1603 53.3961 1230.12 517.763
2439 0 114.243 13.9353 1592 53.8926 1230.09 514.024
2440 0 116.202 13.356 1552 54.5458 1230.39 513.216
2441 0 122.299 14.7262 1801 53.3193 1230.01 509.918
2442 0 125.301 14.0063 1755 54.5692 1230.39 510.307
2443 0 128.206 13.962 1790 55.1168 1230.44 508.199
2444 0 131.553 14.3288 1885 54.8101 1230.24 505.704
2445 0 136.252 14.1209 1924 54.71 1230.43 504.957
2446 0 141.282 14.602 2063 54.6389 1230.38 498.986
2447 0 144.356 15.4825 2235 53.8653 1230.16 498.546
2448 0 147.382 13.9502 2056 55.8186 1230.08 497.244
2449 0 154.387 15.8757 2451 53.8074 1230.15 494.496
2450 0 157.398 14.5809 2295 55.3586 1230.19 493.016
2451 0 163.342 14.0931 2302 55.576 1230.28 490.853
2452 1 99.1504 12.1432 1204 53.9493 1229.66 523.718
2453 0 100.201 10.9081 1093 55.2443 1229.95 522.08
2454 0 105.222 12.6494 1331 52.4996 1230.49 519.27
2455 0 108.256 12.7476 1380 52.6493 1230.94 517.354
2456 0 110.35 13.3666 1475 52.5695 1231.36 514.839
2457 0 114.435 12.8719 1473 53.0475 1231.53 513.7
2458 0 117.356 12.7135 1492 53.561 1231.85 513.922
2459 0 121.433 13.1348 1595 53.6288 1232.17 509.757
2460 0 123.375 13.0335 1608 54.1039 1232.33 507.773
2461 0 127.315 13.1564 1675 53.8681 1232.01 506.238
2462 0 134.535 14.0707 1893 53.0734 1232.2 504.71
2463 0 138.364 13.7969 1909 53.1907 1232.53 503.45
2464 0 144.349 13.9038 2007 52.8156 1233.45 500.05
2465 0 147.371 13.3337 1965 53.7888 1233.38 497.272
2466 1 92.2893 10.0228 925 52.693 1233.57 529.441
2467 0 94.2495 10.3979 980 53.4674 1234.18 525.155
2468 0 96.2726 10.9273 1052 52.8764 1234.1 524.741
2469 0 101.285 11.6997 1185 52.2447 1234.12 523.754
2470 0 104.319 12.5672 1311 52.3982 1234.52 519.462
2471 0 106.275 12.1572 1292 52.6354 1234.42 519.262
2472 0 110.451 13.2457 1463 51.4128 1234.72 515.553
2473 0 114.262 12.1038 1383 52.7614 1235.06 514.009
2474 0 118.266 13.3343 1577 51.3247 1235.08 513.063
2475 0 119.319 12.0182 1434 53.1116 1234.96 510.278
2476 0 123.356 12.1842 1503 52.4345 1234.95 512.163
2477 0 129.385 12.8994 1669 51.7316 1234.79 508.392
2478 0 131.29 13.1236 1723 51.5699 1234.61 506.701
2479 0 135.482 12.4001 1680 52.144 1234.7 504.315
2480 0 142.368 13.451 1915 50.9201 1234.46 501.902
2481 0 143.455 12.2268 1754 51.886 1234.77 497.431
2482 1 88.3345 10.947 967 50.7901 1234.67 526.756
2483 0 90.2735 11.0885 1001 51.5435 1235.06 523.331
2484 0 93.2718 11.1824 1043 51.4401 1234.44 525.759
2485 0 95.288 12.1002 1153 51.0468 1234.63 523.868
2486 0 98.2164 12.7677 1254 51.7137 1234.25 519.024
2487 0 102.375 12.7277 1303 51.2226 1234.39 519.081
2488 0 104.263 13.2166 1378 50.9485 1234.47 517.827
2489 0 107.336 12.6425 1357 51.7273 1234.39 517.559
2490 0 109.289 11.6846 1277 52.8739 1234.12 516.398
2491 0 113.322 13.0424 1478 51.8268 1233.73 513.637
2492 0 116.394 13.3512 1554 51.7207 1233.93 512.605
2493 0 119.324 12.9731 1548 52.874 1233.61 510.528
2494 0 122.48 13.9778 1712 52.0461 1233.65 508.543
2495 0 127.453 13.7149 1748 51.9085 1233.31 508.234
2496 0 130.404 14.1866 1850 52.0989 1233.47 502.413
2497 0 134.445 12.9421 1740 53.4638 1233.58 501.769
2498 0 136.579 13.6917 1870 53.0294 1233.53 499.313
2499 0 140.366 13.5147 1897 53.1898 1233.31 501.559
2500 0 143.323 12.7963 1834 54.4978 1233.29 496.434
2501 0 148.407 13.8605 2057 53.1731 1232.88 494.555
2502 0 154.269 14.008 2161 53.0824 1232.42 493.484
2503 1 93.2357 10.8971 1016 53.8366 1231.83 525.3
2504 0 94.123 11.9631 1126 53.1847 1232.39 524.014
2505 0 98.1848 12.507 1228 53.1482 1233.05 520.224
2506 0 99.4391 13.5862 1351 52.4034 1232.74 519.788
2507 0 101.372 13.1989 1338 53.0486 1232.99 518.126
2508 0 104.303 13.873 1447 52.1534 1232.8 515.769
2509 0 109.423 13.2696 1452 53.2321 1232.67 514.61
2510 0 113.322 13.2896 1506 52.929 1232.76 514.944
2511 0 114.509 13.5448 1551 53.7092 1232.51 511.048
2512 0 116.435 13.2005 1537 54.4131 1232.3 510.403
2513 0 121.305 13.1487 1595 54.4301 1232.17 508.911
2514 0 125.351 14.0965 1767 52.8585 1232.07 506.903
2515 0 128.413 14.1419 1816 53.1944 1232.26 504.249
2516 0 130.629 14.2541 1862 53.9484 1232.59 500.617
2517 0 131.383 12.8936 1694 55.503 1232.59 501.59
2518 0 135.443 13.7475 1862 54.7379 1232.69 498.694
2519 0 137.282 13.3739 1836 55.3028 1232.45 496.498
2520 0 145.473 14.0576 2045 54.0597 1233.25 496.883
2521 0 147.315 14.0175 2065 54.5797 1233.12 492.511
2522 0 153.325 14.2899 2191 54.1785 1232.94 491.527
2523 0 157.372 13.7636 2166 55.0055 1233.25 489.13
2524 0 161.55 13.4571 2174 55.3845 1232.4 486.393
2525 0 166.533 14.5436 2422 54.069 1232.21 483.252
2526 0 172.372 13.5927 2343 55.0427 1232.33 481.495
2527 0 177.357 14.3439 2544 54.4796 1232.22 480.159
2528 0 182.223 14.3122 2608 54.4505 1231.72 476.011
2529 0 187.109 13.8743 2596 54.75 1232.44 475.021
2530 0 194.305 14.6471 2846 53.8939 1231.92 470.586
2531 0 199.46 14.5743 2907 53.9426 1231.61 465.467
2532 0 206.356 14.7609 3046 53.6999 1231.84 463.839
2533 0 210.293 14.1041 2966 54.3358 1231.77 462.406
2534 0 217.303 14.6891 3192 53.8484 1231.68 455.422
2535 0 224.386 14.9385 3352 53.381 1231.74 455.078
2536 0 232.256 15.3494 3565 52.9599 1231.13 451.174
2537 0 241.504 14.741 3560 53.6812 1231.5 449.487
2538 0 247.509 16.1206 3990 52.5188 1231.57 446.828
2539 0 256.481 16.1649 4146 52.3449 1231.55 441.449
2540 0 263.346 16.0549 4228 52.2699 1231.1 439.755
2541 0 273.54 16.2609 4448 51.7777 1230.52 435.272
2542 0 273.54 16.2938 4457 155.958 1229.51 435.273
2543 0 275.451 11.1671 3076 54.4148 1230.2 462.63
2544 1 76.2554 9.17968 700 50.5343 1230.84 537.101
2545 0 75.1409 11.1391 837 49.3238 1230.49 533.768
2546 0 79.1579 11.7739 932 48.9871 1230.47 536.855
2547 0 81.2936 11.4277 929 49.9117 1230.13 534.286
2548 0 84.178 12.6874 1068 49.0206 1230.1 532.459
2549 0 85.1808 11.7397 1000 49.737 1230.56 531.674
2550 0 89.5599 12.5614 1125 48.5573 1230.57 527.969
2551 0 91.4208 12.3604 1130 48.792 1230.41 527.492
2552 0 94.1376 12.7898 1204 48.0075 1230.15 528.02
2553 0 97.4491 12.622 1230 48.8415 1230.73 523.788
2554 0 101.361 11.9869 1215 48.8716 1230.66 525.337
2555 0 106.408 13.0817 1392 47.2543 1230.95 522.685
2556 0 107.434 12.2587 1317 48.5733 1231.38 520.01
2557 0 110.38 12.3935 1368 48.6886 1231.28 518.484
2558 0 114.418 13.4157 1535 47.7524 1230.89 518.339
2559 0 115.696 11.9364 1381 49.4113 1230.93 514.954
2560 0 125.306 16.5834 2078 44.4697 1231.37 510.706
2561 0 133.551 17.9108 2392 42.4916 1231.57 505.996
2562 0 136.415 14.9983 2046 45.2708 1231.21 505.279
2563 0 142.615 17.123 2442 43.1695 1230.72 505.588
2564 1 87.1789 15.5083 1352 42.5895 1230.42 531.857
2565 0 96.5015 19.1914 1852 38.9082 1229.7 522.387
2566 0 94.2902 19.3021 1820 40.672 1229.8 525.686
2567 0 95.5415 17.4898 1671 42.3591 1229.91 527.899
2568 0 93.0961 15.3712 1431 45.5283 1229.87 526.001
2569 0 96.1932 15.8847 1528 44.7585 1229.81 523.946
2570 0 95.323 15.7465 1501 45.8668 1230.08 526.742
2571 0 96.4633 15.9232 1536 45.8952 1229.54 525.804
2572 0 96.3022 14.9633 1441 47.6718 1229.3 525.274
2573 0 100.215 15.6364 1567 46.8717 1229.37 522.367
2574 0 101.399 13.1658 1335 50.0187 1229.5 525.432
2575 0 103.192 13.722 1416 50.0212 1229.16 525.162
2576 0 106.354 14.5363 1546 48.9903 1229.29 521.981
2577 0 107.324 13.4267 1441 50.6044 1228.8 520.269
2578 0 110.365 13.6003 1501 50.9327 1229.18 519.534
2579 0 113.368 13.1078 1486 51.4206 1228.96 519.168
2580 0 115.311 13.6413 1573 51.0572 1229.04 519.139
2581 0 118.277 13.6966 1620 51.358 1228.9 516.696
2582 0 123.299 13.4713 1661 51.9723 1228.68 513.854
2583 0 125.41 14.1775 1778 51.0804 1228.73 513.681
2584 0 129.24 14.7246 1903 50.6442 1229.49 508.955
2585 0 132.39 14.5857 1931 51.231 1230.05 507.167
2586 0 134.506 14.0515 1890 51.7974 1230.26 506.488
2587 0 138.118 13.5247 1868 52.4673 1230.19 504.138
2588 0 141.274 14.3409 2026 51.5884 1230.21 503.86
2589 0 143.383 13.9835 2005 52.1197 1230.34 500.978
2590 0 147.272 14.5717 2146 51.4497 1230.3 500.33
2591 0 153.253 14.3357 2197 51.782 1230.23 496.579
2592 0 157.327 14.3078 2251 51.8001 1230.07 494.242
2593 0 164.178 15.6659 2572 50.3142 1230.49 490.278
2594 0 166.147 15.709 2610 50.4824 1230.59 484.778
2595 0 173.377 15.5038 2688 50.4208 1230.81 486.165
2596 0 176.394 14.0765 2483 51.9803 1230.92 487.71
2597 0 182.304 14.2673 2601 51.9212 1231.23 480.371
2598 0 185.245 14.3702 2662 52.45 1231.34 475.922
2599 0 193.229 15.6395 3022 50.8259 1231.31 474.543
2600 0 197.308 15.1742 2994 51.7699 1231.63 470.835
2601 0 202.252 14.7736 2988 52.3276 1232.14 468.163
2602 0 207.259 14.6049 3027 52.3287 1232.54 466.073
2603 0 213.194 13.9732 2979 52.7801 1232.56 465.337
2604 0 220.315 14.8787 3278 52.1287 1232.24 459.728
2605 0 219.347 12.9293 2836 53.8159 1232.43 463.023
2606 1 166.276 13.4836 2242 51.6173 1232.54 493.236
2607 0 171.267 14.0249 2402 51.5246 1232.87 485.168
2608 0 175.155 13.8962 2434 51.7954 1233 483.897
2609 0 181.399 14.989 2719 51.1247 1233.45 478.632
2610 0 187.399 13.6553 2559 52.1399 1234.25 476.539
2611 0 187.399 13.634 2555 163.847 1234.26 476.58
2612 1 199.394 14.1379 2819 51.7662 1233.97 470.48
2613 0 205.366 14.3744 2952 51.9902 1234.32 462.58
2614 0 211.381 13.8849 2935 52.1833 1234.69 463.234
2615 0 220.449 13.7674 3035 52.425 1234.49 460.684
2616 0 226.555 14.1467 3205 52.4094 1235.22 456.405
2617 0 234.63 13.8516 3250 52.7535 1234.56 451.798
2618 0 241.675 14.3044 3457 52.3231 1234.75 447.054
2619 0 249.42 14.4094 3594 51.6767 1235.02 447.9
2620 0 257.539 16.3548 4212 49.6178 1235.06 435.17
2621 0 263.641 15.5249 4093 50.6819 1234.66 429.182
2622 1 65.0475 9.88508 643 47.4899 1233.41 537.533
2623 0 66.0854 10.0779 666 46.8198 1233.61 537.104
2624 0 70.1252 12.1354 851 46.0306 1234.29 533.347
2625 0 71.1729 12.0551 858 46.1317 1234.36 532.698
2626 0 72.1385 12.4621 899 45.9711 1234.42 532.768
2627 0 76.1338 12.1365 924 45.737 1234.5 531.848
2628 0 78.2678 11.9973 939 45.8371 1234.31 531.526
2629 0 79.1841 11.1639 884 47.0158 1234.16 531.217
2630 0 80.1641 12.0877 969 46.6563 1234.05 529.293
2631 0 84.2758 12.5184 1055 46.5175 1233.9 530.086
2632 0 87.1356 12.1649 1060 46.8934 1233.74 527.053
2633 0 88.1606 13.2259 1166 46.8559 1234.11 526.2
2634 0 89.3103 11.0626 988 48.6953 1233.67 522.841
2635 0 94.2136 12.6521 1192 47.0898 1233.76 521.596
2636 0 96.2128 12.9089 1242 47.8535 1233.93 521.148
2637 0 99.422 12.7638 1269 47.7975 1234.23 519.076
2638 0 100.314 12.8895 1293 47.826 1234.45 518.393
2639 0 100.314 12.8795 1292 148.679 1235.44 518.376
2640 0 106.46 12.4366 1324 48.645 1234.74 513.631
2641 0 110.414 13.4584 1486 48.0168 1234.69 512.763
2642 0 112.354 14.7036 1652 47.4431 1234.36 510.199
2643 0 112.278 12.9411 1453 50.1411 1234.11 511.414
2644 0 114.305 13.0003 1486 50.3291 1233.82 509.285
2645 0 118.551 12.7877 1516 50.7335 1233.93 506.65
2646 0 121.317 13.3534 1620 50.6167 1233.54 506.71
2647 0 121.317 13.3617 1621 165.798 1233.53 506.732
2648 0 129.412 14.0636 1820 50.4516 1233.51 502.473
2649 0 131.305 13.3277 1750 52.0086 1233.53 500.063
2650 0 132.282 13.7661 1821 50.3361 1233.17 497.381
2651 0 136.336 14.5009 1977 50.044 1233.5 497.361
2652 0 139.448 13.8045 1925 51.0145 1233.03 494.656
2653 0 144.288 14.2978 2063 50.7058 1233.37 494.98
2654 0 145.329 14.1747 2060 51.6296 1233.8 490.972
2655 0 151.346 14.8467 2247 51.2448 1233.68 489.761
2656 0 155.31 15.5753 2419 50.9425 1233.72 486.719
2657 0 160.338 14.7937 2372 51.3988 1233.51 487.091
2658 0 164.229 13.9501 2291 52.4553 1233.35 484.46
2659 0 169.27 14.9052 2523 51.6084 1233.59 483.174
2660 0 172.223 14.9283 2571 52.3559 1233.47 477.307
2661 0 173.255 14.6028 2530 53.2949 1233.27 475.318
2662 0 181.269 14.6137 2649 53.2518 1233.08 472.225
2663 1 120.182 11.2662 1354 54.4675 1232.52 506.469
2664 0 122.239 11.1749 1366 54.0769 1232.45 507.346
2665 0 128.191 12.653 1622 53.0469 1232.47 503.032
2666 0 130.146 11.6101 1511 54.4097 1232.73 500.94
2667 0 137.259 13.4491 1846 52.3581 1232.17 496.135
2668 0 139.405 12.9479 1805 53.0781 1233.02 497.414
2669 0 142.403 13.209 1881 53.3046 1232.82 493.838
2670 0 147.301 13.2314 1949 52.8507 1232.98 495.416
2671 0 151.203 13.2735 2007 53.1629 1232.77 492.048
2672 0 153.493 12.3784 1900 54.1347 1232.8 489.2
2673 0 161.33 14.3929 2322 52.115 1232.41 484.776
2674 0 165.385 13.0483 2158 53.665 1232.42 482.366
2675 0 168.347 13.2702 2234 53.4342 1232.42 479.443
2676 0 176.405 13.7581 2427 52.7363 1232.64 479.862
2677 0 179.251 13.3779 2398 53.5671 1232.78 474.495
2678 0 187.293 13.7432 2574 53.136 1232.33 472.164
2679 0 193.472 13.5885 2629 53.1286 1232.41 469.693
2680 0 198.829 13.5946 2703 53.5886 1232.25 461.237
2681 0 205.835 14.0161 2885 52.8496 1232.12 464.251
2682 0 210.684 13.9308 2935 53.1084 1231.86 460.149
2683 0 216.577 13.5518 2935 53.7639 1231.63 456.888
2684 0 225.726 14.748 3329 52.4398 1231.77 452.848
2685 0 230.753 14.3833 3319 52.959 1231.74 451.043
2686 1 37.1081 7.65331 284 44.1901 1231.34 551.148
2687 0 33.0625 7.77315 257 44.3346 1231.48 554.109
2688 0 33.0132 6.45196 213 45.9437 1231.69 553.052
2689 0 38.1306 6.97603 266 45.4586 1231.37 553.481
2690 0 34.0428 8.48932 289 46.083 1231.41 553.498
2691 0 39.0715 7.67823 300 46.5167 1231.01 551.587
2692 0 40.1071 7.47996 300 46.1733 1231.64 552.29
2693 0 38.0655 7.69725 293 45.3652 1232.51 555.744
2694 0 36.0428 6.35355 229 46.4716 1232.28 556.72
2695 0 40.0141 8.99683 360 45.4056 1232.08 553.606
2696 0 41.1849 8.61966 355 45.4451 1232.17 553.411
2697 0 41.114 9.14529 376 45.5692 1232.36 552.176
2698 0 41.0343 8.31012 341 46.3578 1232.58 552.026
2699 0 40.0557 7.88901 316 46.326 1232.8 553.228
2700 0 39.0569 8.14197 318 45.8239 1232.94 552.796
2701 0 40.1163 7.40347 297 45.4175 1232.98 554.364
2702 0 43.1432 7.76484 335 45.7224 1233.07 552.06
2703 0 40.0875 8.28187 332 45.5964 1232.77 553.858
2704 0 38.105 7.11193 271 46.0258 1232.59 553.66
2705 0 44.0524 6.42416 283 44.7739 1232.51 550.728
2706 0 43.1231 8.67284 374 45.7808 1232.59 551.743
2707 0 46.1848 8.6825 401 45.1272 1233.04 551.489
2708 0 45.0695 8.69769 392 45.0281 1233.33 552.605
2709 0 45.11 9.13323 412 44.534 1233.32 550.335
2710 0 42.0031 7.90417 332 45.4217 1232.71 552.184
2711 0 50.1908 9.30449 467 44.439 1233.09 548.368
2712 0 42.0082 8.35552 351 45.661 1232.21 548.322
2713 0 43.2703 9.08243 393 44.2646 1231.69 552.316
2714 0 41.0721 8.05899 331 44.4743 1232.59 553.523