time division length width area intensity CMx CMy
0 0 71.2946 13.4653 960 162.182 1068.49 553.072
1 0 73.2534 13.3509 978 71.2413 1066.99 552.322
2 0 77.1785 13.5919 1049 71.163 1066.8 549.413
3 0 78.1585 13.4982 1055 71.7318 1067.06 548.001
4 0 82.2516 12.7414 1048 71.4876 1066.96 546.326
5 0 86.1327 13.5256 1165 69.212 1066.14 544.704
6 0 89.2318 14.9274 1332 66.5488 1066.43 545.18
7 0 91.3269 13.3039 1215 68.3202 1066.41 542.03
8 0 94.1834 14.1638 1334 68.1619 1067.26 540.837
9 0 99.3345 14.3253 1423 68.4701 1067.26 537.682
10 0 100.349 13.5925 1364 70.5696 1067.58 536.861
11 0 105.345 13.8118 1455 70.3526 1067.57 532.94
12 0 109.406 13.3905 1465 70.3836 1067.65 530.155
13 1 56.3997 12.0213 678 67.7847 1066.97 558.316
14 0 59.303 10.8595 644 67.8525 1067.75 557.245
15 0 61.2842 12.6949 778 65.8342 1067.7 554.233
16 0 62.3912 12.4056 774 65.6111 1067.66 555.017
17 0 64.2825 12.974 834 65.0827 1068.04 551.502
18 0 65.3438 11.8756 776 64.4085 1067.9 551.173
19 0 69.2276 13.7951 955 61.2366 1067.87 550.563
20 0 71.3194 13.5307 965 61.1264 1068.28 548.733
21 0 73.3425 13.921 1021 59.7444 1068.52 549.226
22 0 76.2239 15.4414 1177 58.0459 1068.61 547.176
23 0 79.233 12.7346 1009 60.5144 1068.77 546.623
24 0 81.3371 13.7944 1122 59.4795 1068.64 542.957
25 0 86.3511 12.6692 1094 60.1883 1068.74 545.474
26 0 85.4394 13.7993 1179 60.0992 1068.61 541.288
27 0 88.3685 13.9982 1237 60.3953 1068.57 540.442
28 0 91.3066 14.7306 1345 59.6119 1068.69 538.967
29 0 91.3176 12.6482 1155 62.9013 1068.93 537.029
30 0 95.2975 11.6477 1110 63.4892 1068.87 536.645
31 0 101.432 13.6644 1386 60.8694 1069.09 536.102
32 0 105.264 12.0269 1266 63.2314 1069.31 533.199
33 0 106.345 13.381 1423 61.6641 1069.66 533.318
34 0 109.394 12.9349 1415 62.5682 1069.54 530.974
35 0 114.387 14.1624 1620 61.4432 1069.31 524.348
36 0 117.556 13.4914 1586 61.9704 1069.3 525.312
37 0 120.707 13.0813 1579 62.7448 1069.51 523.851
38 0 125.552 14.0977 1770 61.4073 1069.61 525.005
39 0 130.498 15.9926 2087 59.5803 1069.09 524.132
40 0 132.332 13.3755 1770 63.0746 1069.23 521.049
41 0 139.471 14.9063 2079 61.392 1069.29 515.38
42 0 142.469 13.1116 1868 63.2297 1069.49 516.303
43 0 148.461 13.7141 2036 62.8134 1069.57 512.405
44 0 152.46 13.984 2132 62.6356 1069.55 511.632
45 0 158.478 13.4278 2128 63.2585 1069.89 507.52
46 0 163.494 14.2391 2328 62.1482 1069.85 508.389
47 0 166.419 13.7545 2289 63.5697 1069.54 504.606
48 1 90.3218 12.0569 1089 61.5739 1069.64 543.692
49 0 91.2264 11.7291 1070 62.814 1069.89 540.167
50 0 94.4103 13.9498 1317 60.426 1069.44 539.484
51 0 96.3525 12.3609 1191 62.4912 1069.95 536.215
52 0 104.279 14.2119 1482 59.5418 1069.51 534.688
53 0 106.175 12.8656 1366 61.459 1069.5 535.839
54 0 111.333 14.542 1619 58.6405 1068.93 531.813
55 0 112.336 12.5516 1410 56.5965 1068.75 528.199
56 0 116.392 14.7519 1717 55.0227 1069.12 527.549
57 0 118.256 12.2193 1445 58.3661 1069.25 525.552
58 0 123.453 13.7947 1703 56.9049 1069.27 522.299
59 0 127.261 13.5155 1720 57.2669 1069.11 521.38
60 0 132.367 14.7619 1954 55.8659 1069.86 522.873
61 0 135.224 15.9735 2160 55.3718 1069.92 520.435
62 0 140.201 13.9371 1954 57.9145 1069.87 517.451
63 0 143.139 14.6501 2097 57.9099 1069.11 512.402
64 0 148.243 13.4981 2001 59.3093 1069.44 508.635
65 0 150.17 12.6656 1902 60.5216 1069.52 507.732
66 0 158.251 14.1168 2234 58.6262 1069.5 507.129
67 0 164.306 13.7609 2261 58.9726 1069.94 503.662
68 0 171.321 13.9913 2397 58.3509 1070.23 501.426
69 0 177.323 14.2847 2533 57.8816 1070.66 500.321
70 0 182.244 15.4189 2810 56.8249 1070.59 498.937
71 0 187.353 14.6675 2748 58.0695 1070.03 491.703
72 0 192.321 15.0217 2889 58.028 1070.9 487.116
73 0 200.299 14.698 2944 58.2446 1071.05 488.177
74 0 204.368 15.5406 3176 57.7812 1070.96 482.736
75 1 113.152 13.5393 1532 58.7206 1071.93 525.367
76 0 116.305 13.1551 1530 59.1765 1071.76 524.912
77 0 121.215 14.6434 1775 58.1228 1071.77 521.412
78 0 124.309 15.2201 1892 57.7733 1071.68 519.399
79 0 128.375 13.7955 1771 59.2484 1071.9 517.938
80 0 133.307 15.2055 2027 57.5984 1072.43 518.457
81 1 58.1612 10.4365 607 58.1285 1072.57 553.018
82 0 61.2095 10.897 667 58.8156 1072.87 548.004
83 0 62.2565 11.0671 689 58.6154 1072.38 548.819
84 0 64.4038 12.3285 794 57.1814 1072.38 547.817
85 0 66.0865 12.3474 816 57.5404 1073.01 547.137
86 0 65.142 10.8993 710 58.6197 1073.39 548.817
87 0 68.1926 12.758 870 56.0552 1073.63 546.52
88 0 69.1968 12.9197 894 55.415 1073.58 543.472
89 0 73.1472 11.8528 867 54.6113 1073.85 543.806
90 0 74.1275 12.6269 936 54.7521 1074.12 542.06
91 1 41.2 11.1165 458 57.3079 1075 558.723
92 0 42.0352 10.3485 435 62.6897 1075.79 557.618
93 0 43.0188 9.99563 430 61.886 1075.95 556.574
94 0 45.0298 10.9927 495 58.604 1075.8 555.958
95 0 47.0715 10.091 475 55.6421 1074.44 556.716
96 0 48.0889 12.3937 596 53.0302 1074.92 554.866
97 0 50.1763 10.3037 517 74.1006 1074.85 554.981
98 0 51.1046 10.8797 556 52.2428 1074.15 554.835
99 0 49.2161 10.7891 531 53.9096 1074.55 553.399
100 0 54.2191 12.2282 663 53.555 1075.16 553.293
101 0 53.1909 12.2013 649 54.5455 1075.18 549.84
102 0 56.195 13.3998 753 52.3347 1075.26 551.105
103 0 57.1549 12.6848 725 54.029 1075.3 549.545
104 0 58.1023 11.6691 678 56.326 1075.19 549.761
105 0 60.1726 12.6137 759 58.7378 1075.57 545.913
106 0 60.0925 12.3143 740 60.4068 1075.9 546.02
107 0 63.2439 12.0012 759 61.137 1075.55 546.344
108 0 64.1615 12.8582 825 59.3515 1075.42 545.853
109 0 65.2399 13.5653 885 56.2802 1076.2 545.25
110 0 64.1303 12.8333 823 54.3135 1075.67 542.922
111 0 71.1623 14.9377 1063 51.9652 1075.72 541.442
112 0 70.1072 13.7932 967 54.1582 1075.49 542.338
113 0 73.1264 12.2528 896 55.1987 1075.67 541.744
114 0 76.0922 12.9317 984 54.2104 1075.34 539.55
115 0 78.1632 14.5977 1141 52.8598 1075.17 537.398
116 0 81.0557 14.7429 1195 52.8259 1075.2 537.247
117 0 82.0953 13.8498 1137 54.2709 1075 535.215
118 0 80.043 12.5058 1001 55.7802 1074.85 533.342
119 0 82.0892 12.2184 1003 55.9103 1075.13 536.85
120 0 82.0685 10.6618 875 55.9223 1075.02 539.368
121 0 82.0741 10.259 842 56.0428 1074.99 539.176
122 1 55.0501 9.95458 548 55.0347 1074.7 549.502
123 0 55.0733 10.9309 602 54.5581 1074.61 550.643
124 0 57.0914 12.0333 687 54.0524 1074.43 550.135
125 0 57.0684 13.1071 748 53.5241 1074.9 548.098
126 0 59.0654 13.612 804 53.1443 1074.5 547.833
127 0 60.0611 12.9035 775 54.1136 1074.35 548.818
128 0 62.089 15.4456 959 52.4213 1074.74 547.561
129 0 68.0938 14.8031 1008 52.9385 1075.17 545.812
130 0 66.0783 13.257 876 55.476 1074.37 544.251
131 0 65.0954 12.5815 819 56.917 1074.32 544.252
132 0 71.0784 13.5203 961 56.4037 1073.54 542.809
133 0 72.1018 14.7985 1067 55.926 1073.33 541.902
134 0 73.1039 12.6806 927 58.1456 1073.38 543.714
135 0 75.0561 14.5758 1094 57.4406 1073.11 540.047
136 0 79.0714 15.467 1223 56.4088 1073.52 539.226
137 0 79.0597 13.4076 1060 59.1387 1073.27 537.026
138 0 84.0653 14.2151 1195 57.908 1073.6 537.978
139 0 86.1256 15.3613 1323 57.068 1073.13 536.135
140 0 87.0986 14.3745 1252 58.9321 1073.17 533.255
141 0 93.0691 14.9351 1390 58.0633 1072.96 533.62
142 0 101.151 12.1007 1224 60.3627 1072.85 530.784
143 0 100.227 12.1724 1220 61.0172 1072.95 528.657
144 0 100.148 13.5999 1362 60.4112 1072.41 527.128
145 0 104.228 14.334 1494 59.5107 1073.29 524.811
146 1 58.0723 10.0909 586 61.4864 1073.18 551.113
147 0 59.0808 11.6958 691 60.2504 1073.5 548.893
148 0 58.1716 12.721 740 60.4122 1073.51 546.489
149 0 58.0948 13.5985 790 60.1089 1073.56 546.363
150 0 61.088 12.9322 790 60.4848 1074.3 545.519
151 0 64.0868 12.4831 800 60.5812 1074.51 546.014
152 0 67.0286 13.9642 936 58.516 1074.45 544.956
153 0 71.1131 14.5262 1033 57.7135 1074.15 543.547
154 0 68.1226 13.5344 922 60.0401 1074.52 542.22
155 0 74.2409 14.7089 1092 57.9368 1074.07 543.073
156 0 76.0341 13.7044 1042 59.2418 1074.01 541.732
157 0 79.13 13.3072 1053 59.5641 1074.64 539.337
158 0 78.035 13.5196 1055 59.5716 1074.42 537.874
159 0 84.1102 13.6369 1147 59.1395 1074.68 532.296
160 1 45.0482 11.077 499 58.2866 1074.87 554.643
161 0 48.0358 10.5755 508 58.5807 1074.7 553.39
162 0 49.1345 10.2168 502 57.5578 1074.54 553.747
163 0 50.1014 11.9557 599 56.2003 1074.99 551.185
164 0 53.1197 12.5942 669 55.7833 1074.88 550.698
165 0 54.1905 10.7768 584 56.9401 1074.83 549.827
166 0 57.1577 11.8094 675 55.203 1075.42 548.902
167 0 57.1278 10.9754 627 56.2089 1075.46 547.73
168 0 59.2054 12.0259 712 55.2416 1075.09 546.145
169 0 62.0926 12.8357 797 53.9711 1075.2 545.99
170 0 62.255 13.1556 819 53.2808 1075.47 546.206
171 0 62.255 13.1556 819 140.123 1075.47 546.206
172 0 67.1842 13.8277 929 53.2024 1075.61 540.268
173 0 71.1499 12.9586 922 53.359 1075.85 540.607
174 0 71.2531 11.9854 854 55.0667 1076.29 538.608
175 0 75.19 13.8715 1043 53.5129 1076.21 534.352
176 0 77.168 12.8292 990 54.3828 1076.22 535.688
177 0 80.1897 13.1563 1055 54.145 1076.27 533.765
178 1 40.13 9.79317 393 54.972 1076.46 553.321
179 0 44.1979 11.1317 492 53.815 1076.33 550.541
180 0 45.1093 9.48806 428 55.1706 1076.48 552.526
181 0 47.0286 11.6312 547 53.8848 1077.02 552.029
182 0 49.2141 12.5777 619 51.2294 1077.12 551.141
183 0 50.1069 11.695 586 52.1109 1077.28 550.696
184 0 52.1127 12.3195 642 53.1604 1077.17 549.168
185 0 54.0794 12.3707 669 53.3856 1077.53 548.265
186 0 55.1518 12.8917 711 53.1688 1077.79 548.21
187 0 57.0792 13.1046 748 52.9692 1077.47 544.68
188 0 59.1211 13.244 783 52.8851 1077.56 544.766
189 0 60.0287 12.7772 767 54.017 1077.68 542.242
190 0 60.1598 13.0153 783 54.2465 1077.51 541.626
191 0 62.1151 12.6056 783 55.8072 1077.86 539.356
192 0 65.1456 13.324 868 54.8168 1078.2 540.892
193 0 67.1735 12.6091 847 53.9717 1078.17 541.123
194 0 69.2878 14.3748 996 51.6135 1078.31 538.668
195 0 70.1632 14.281 1002 51.5379 1078.06 536.501
196 0 74.2548 13.2247 982 52.5876 1077.78 536.866
197 0 75.2888 13.2158 995 53.8955 1077.75 533.92
198 0 78.2955 12.7466 998 55.4639 1077.89 531.548
199 1 43.3778 10.3279 448 55.9464 1077.6 549.705
200 0 45.4362 11.0705 503 54.66 1077.95 549.767
201 0 46.2012 12.056 557 54.5009 1078.57 546.977
202 0 49.271 13.375 659 52.742 1078.53 546.228
203 0 50.0774 13.5191 677 52.2098 1078.66 545.857
204 0 53.0968 13.014 691 52.8162 1079.37 545.831
205 0 55.1269 13.4236 740 53.0243 1079.34 544.324
206 0 55.0958 12.8685 709 53.8011 1079.19 544.058
207 0 58.0517 12.8334 745 53.6 1079 543.023
208 0 59.1037 13.1464 777 54.0309 1078.72 541.402
209 0 62.0436 13.5066 838 53.3031 1078.73 541.455
210 0 61.0648 13.6412 833 54.2245 1078.87 540.613
211 0 64.0399 12.8201 821 54.5359 1078.22 539.558
212 0 67.0842 13.6992 919 53.605 1078.02 538.02
213 0 67.0516 13.5269 907 54.2789 1078.09 539.036
214 0 70.1147 12.8932 904 55.1173 1077.71 537.261
215 0 73.1785 14.0205 1026 54.2612 1077.68 534.999
216 0 73.0291 12.0637 881 56.2032 1076.81 536.369
217 0 77.1314 15.0004 1157 53.7355 1076.96 532.68
218 0 78.076 14.1785 1107 55.0334 1077.08 533.678
219 0 82.1627 14.1427 1162 54.8942 1076.9 531.939
220 0 83.2726 14.4825 1206 54.7628 1076.87 532.399
221 0 87.2445 15.1184 1319 54.1289 1076.61 528.329
222 0 91.1869 15.4847 1412 53.182 1076.28 528.21
223 0 93.1651 14.8983 1388 54.2169 1076.4 525.987
224 0 93.095 14.6839 1367 54.5969 1076.59 529.156
225 1 50.018 10.7561 538 57.6896 1076.88 546.922
226 0 54.0291 11.6974 632 55.9288 1076.25 545.949
227 0 56.0399 11.9736 671 55.3651 1076.38 545.812
228 0 58.1898 12.6655 737 55.9471 1075.51 542.847
229 0 59.0516 13.0902 773 53.7956 1076.24 544.453
230 0 60.1769 13.4105 807 53.5415 1076.2 543.669
231 0 63.0934 13.0442 823 54.3645 1075.7 542.109
232 0 62.1051 12.1407 754 55.3873 1076.25 542.479
233 0 64.1203 12.6793 813 54.187 1076.02 543.07
234 0 68.1741 13.0842 892 53.7298 1075.88 540.532
235 0 70.1 13.5235 948 53.3513 1076.27 540.539
236 0 72.1326 12.5186 903 53.7132 1076.11 540.934
237 0 73.0993 12.3257 901 54.4495 1076.01 536.77
238 0 75.1625 13.3843 1006 53.5646 1075.3 536.694
239 0 79.1821 13.7152 1086 52.3094 1075.34 537.077
240 0 85.1787 10.7421 915 54.4033 1074.65 536.168
241 0 86.1134 11.9494 1029 53.6239 1074.83 534.591
242 0 84.1053 12.8886 1084 53.3386 1074.96 533.602
243 0 89.1124 13.6232 1214 52.645 1074.46 531.012
244 0 91.2211 13.8564 1264 52.2571 1074.22 530.08
245 0 93.1334 12.7452 1187 53.1719 1074.73 528.409
246 0 99.1706 12.9776 1287 52.7677 1074.89 526.468
247 0 101.38 12.7737 1295 52.5691 1074.42 528.208
248 0 104.302 12.5884 1313 52.9749 1074.95 526.574
249 0 104.198 11.8429 1234 53.5138 1074.9 525.212
250 1 56.1151 10.7458 603 51.1658 1075.02 548.642
251 0 56.1385 10.5632 593 51.683 1075 547.496
252 0 58.1169 11.5457 671 51.0194 1074.89 546.931
253 0 60.0725 12.6181 758 50.4565 1075.22 544.735
254 0 64.0735 12.0955 775 50.6568 1074.97 546.164
255 0 65.0593 12.9574 843 50.2574 1075.14 544.773
256 0 66.0509 13.1414 868 50.5115 1075.3 542.664
257 0 68.1284 12.5498 855 50.9579 1074.73 542.692
258 0 71.0184 13.7148 974 50.0862 1074.55 542.509
259 0 75.049 12.2054 916 51.4279 1074.79 541.069
260 0 75.0754 12.574 944 52.0318 1074.14 540.605
261 0 76.1498 11.8188 900 53.1311 1073.7 540.611
262 0 79.1707 11.9362 945 53.4011 1073.73 538.216
263 0 83.1138 12.6092 1048 52.9198 1073.47 536.353
264 0 83.1613 12.0248 1000 53.584 1073.56 536.158
265 1 45.1096 11.0398 498 51.1626 1073.22 556.022
266 0 46.0793 11.0462 509 52.4303 1072.95 552.796
267 0 47.031 10.4612 492 53.0589 1072.62 554.644
268 0 50.0077 11.2583 563 52.2078 1072.72 553.052
269 0 53.1962 11.9369 635 51.5024 1073.9 552.712
270 0 53.1228 12.1982 648 51.2577 1074.38 552.569
271 0 54.1604 11.1336 603 52.2703 1074.52 552.023
272 0 55.1366 11.6438 642 52.4782 1074.13 549.991
273 0 58.1598 12.2249 711 51.9423 1073.63 546.504
274 0 59.0944 12.0993 715 52.8518 1074.39 546.441
275 0 62.105 12.9619 805 51.4658 1074.34 547.17
276 0 62.136 13.0198 809 52.2101 1074.67 546.859
277 0 65.1107 12.4864 813 53.0332 1074.25 546.476
278 0 67.1622 12.8346 862 52.5418 1074.32 544.529
279 0 68.1343 11.3306 772 54.614 1074.66 543.032
280 0 72.1365 12.4209 896 53.5446 1074.52 540.8
281 0 74.1416 13.3259 988 52.9514 1075.06 539.879
282 0 74.151 12.4071 920 54.3413 1075.54 538.598
283 0 77.2316 12.8704 994 53.2867 1075.41 537.152
284 0 78.093 11.6528 910 55.3407 1075.3 536.33
285 0 82.1873 12.7027 1044 53.6312 1074.94 536.545
286 1 47.0515 10.7967 508 53.8701 1076.26 552.862
287 0 50.1508 11.3258 568 53.1989 1075.86 552.382
288 0 49.0812 11.0633 543 55.232 1076.22 550.643
289 0 53.0995 10.8664 577 54.4159 1076.33 549.017
290 0 52.0461 11.9702 623 54.5811 1077.02 548.92
291 0 55.1036 13.2841 732 53.6967 1077.1 546.813
292 0 57.0139 12.4005 707 54.4413 1077.17 546.231
293 0 57.0609 12.8284 732 53.9986 1076.79 547.328
294 0 61.0642 13.2975 812 53.6342 1077.01 545.718
295 0 61.1542 13.0326 797 55.1581 1076.91 543.759
296 0 64.1089 13.3211 854 55.0199 1077.37 542.659
297 0 63.0657 14.0964 889 55.5748 1077.53 540.955
298 0 68.0711 13.8679 944 55.4608 1077.68 540.156
299 0 67.1188 13.6921 919 56.2655 1077.78 539.006
300 0 73.2426 14.8411 1087 54.8142 1077.64 538.768
301 0 74.1933 15.244 1131 54.9682 1078.05 538.05
302 0 74.1933 15.19 1127 151.854 1078.06 537.942
303 0 76.1289 13.9632 1063 57.7413 1077.8 534.286
304 0 79.2082 13.8243 1095 57.8174 1077.84 532.591
305 0 84.2362 13.3672 1126 58.3615 1078.25 533.502
306 0 83.1107 13.0669 1086 59.6197 1078.26 531.364
307 0 86.2648 13.7947 1190 59.0924 1078.23 531.326
308 0 92.4124 12.7688 1180 60.2203 1078.14 529.373
309 0 92.1601 14.4314 1330 58.9887 1078.71 526.62
310 1 49.1195 11.7061 575 58.9861 1078.64 547.899
311 0 49.1356 10.5626 519 60.8613 1078.1 548.67
312 0 49.1781 11.9769 589 59.7657 1078.31 548.604
313 0 51.1532 12.2964 629 59.5628 1078.68 546.924
314 0 52.1876 12.9533 676 58.5902 1078.35 546.978
315 0 55.1462 13.0018 717 59.258 1078.09 544.92
316 0 56.0836 12.9093 724 59.5594 1078.38 544.954
317 0 58.0917 13.4615 782 58.7404 1078.33 544.331
318 0 61.1378 14.0502 859 57.4377 1078.13 545.002
319 0 61.1137 13.794 843 58.828 1078.36 542.286
320 0 62.2125 14.1129 878 59.1241 1077.85 540.506
321 0 63.1226 13.3233 841 59.4186 1078.09 541.505
322 0 67.1544 14.3997 967 58.515 1078.02 539.428
323 0 68.2035 13.9436 951 58.7277 1077.99 539.148
324 0 70.2166 13.615 956 59.319 1077.88 536.012
325 0 73.1346 12.4291 909 59.9978 1077.69 537.463
326 0 73.0919 13.613 995 60.0935 1077.9 534.432
327 0 77.0693 13.7539 1060 59.6538 1078.28 533.751
328 1 44.0997 11.4967 507 60.1223 1078.18 549.692
329 0 47.1991 12.7333 601 58.8469 1077.56 548.832
330 0 47.0935 12.0611 568 60.0282 1077.64 547.822
331 0 49.2361 12.3893 610 59.3508 1077.66 548.549
332 0 49.0703 12.2885 603 59.9784 1078.08 548.426
333 0 51.0883 12.8797 658 58.6155 1077.81 548.593
334 0 52.0995 13.3399 695 59.3568 1077.19 546.748
335 0 57.14 11.7606 672 60.1235 1077.21 546.927
336 0 57.14 11.7431 671 167.525 1077.21 546.969
337 0 56.0176 13.7992 773 58.9948 1077.41 545.207
338 0 58.0648 13.1405 763 59.1966 1076.82 545.303
339 0 61.0591 13.9537 852 58.4836 1076.43 544.461
340 0 60.1222 14.0048 842 59.4002 1076.63 543.527
341 0 64.0566 13.8159 885 58.8768 1076.29 541.899
342 0 66.1278 14.9861 991 57.666 1076.39 542.132
343 0 67.029 14.158 949 58.7861 1076.21 541.772
344 0 70.0266 14.2374 997 58.6369 1076.26 539.872
345 0 74.0818 15.1994 1126 57.7034 1075.82 536.938
346 0 74.0705 14.2162 1053 58.7398 1075.73 536.043
347 0 77.2295 14.1397 1092 59.3178 1076.05 536.404
348 0 80.0514 14.5532 1165 58.6712 1076.15 535.931
349 0 83.1421 15.0706 1253 57.7518 1076.28 534.196
350 0 83.0519 13.2688 1102 59.931 1075.87 532.065
351 0 88.1213 13.7651 1213 59.2209 1075.26 530.567
352 0 91.0775 14.6908 1338 58.0718 1074.92 528.81
353 0 95.1737 14.6889 1398 57.5336 1074.69 529.201
354 1 52.0515 11.2965 588 59.3844 1074.68 549.41
355 0 54.0939 11.3691 615 59.7008 1074.29 548.254
356 0 57.0499 11.7616 671 58.3472 1073.89 548.297
357 0 59.1338 12.7169 752 57.9508 1073.82 545.828
358 0 62.1774 13.7349 854 56.9941 1073.27 543.567
359 0 62.1272 13.07 812 57.6786 1074.02 544.134
360 0 65.1023 13.9473 908 57.1487 1074.15 541.251
361 0 68.2038 12.6679 864 58.2454 1074.26 540.999
362 0 68.1338 12.4314 847 59.183 1074.88 539.131
363 0 71.1027 12.939 920 58.3326 1074.66 537.768
364 0 76.1165 15.161 1154 55.5745 1075.34 536.577
365 0 77.1889 13.7455 1061 57.9519 1075.42 534.68
366 0 79.106 12.6918 1004 58.7799 1075.59 536.984
367 0 82.2438 14.6394 1204 57.637 1075.37 531.61
368 0 87.22 14.6526 1278 57.0383 1075.47 533.568
369 0 88.3476 13.7865 1218 58.6831 1075.79 531.427
370 0 89.2723 14.1141 1260 58.3841 1075.95 529.164
371 0 93.2431 14.2102 1325 58.2151 1075.27 527.351
372 0 99.3275 14.9304 1483 57.4963 1075.82 525.305
373 1 51.2107 11.5406 591 58.8562 1075.91 547.648
374 0 55.0961 12.3421 680 56.8235 1076.48 548.056
375 0 57.0875 12.9976 742 57.2358 1076.16 545.438
376 0 58.1051 12.9421 752 56.1995 1076.01 546.544
377 0 59.1402 14.0006 828 55.5664 1075.9 543.867
378 0 62.0336 13.3799 830 56.0024 1076.1 542.096
379 0 64.0638 13.6583 875 55.3177 1075.89 541.705
380 0 65.181 12.611 822 56.1399 1075.84 540.01
381 0 71.1114 13.514 961 54.9594 1076.72 539.811
382 0 71.1114 13.514 961 149.099 1077.72 539.811
383 0 73.0828 12.9032 943 55.5726 1076.69 539.519
384 0 77.1494 13.8822 1071 55.2474 1076.62 534.885
385 0 76.1381 13.817 1052 55.847 1076.5 532.868
386 0 81.1971 13.4857 1095 55.505 1076.57 533.774
387 0 82.1634 13.9356 1145 55.6437 1076.86 531.404
388 0 87.1691 14.9824 1306 54.2848 1077.27 531.154
389 0 90.3354 13.6159 1230 55.9829 1077.6 527.914
390 1 49.2462 12.1634 599 52.9249 1077.15 550.569
391 0 50.1064 12.9125 647 52.3076 1077.07 549.496
392 0 51.2151 12.262 628 53.4809 1077.32 549.226
393 0 53.2319 11.2526 599 55.6644 1078.15 548.112
394 0 53.1433 13.4542 715 54.7371 1077.96 545.11
395 0 55.1714 12.3977 684 55.2749 1078.3 545.925
396 0 56.1556 13.7653 773 54.5317 1078.35 543.559
397 0 58.2669 12.7173 741 55.2119 1078.39 544.063
398 0 60.1108 14.0407 844 53.6931 1078.7 543.053
399 0 62.1444 13.7583 855 54.021 1078.38 541.961
400 0 64.1361 14.7343 945 52.927 1078.59 540.07
401 0 66.406 12.9205 858 54.7739 1078.49 540.376
402 0 67.4162 13.1719 888 54.6137 1078.89 538.685
403 0 70.1627 13.8393 971 54.2636 1078.83 539.023
404 0 71.1553 13.2386 942 55.5637 1078.72 537.118
405 0 74.2879 14.1611 1052 54.8603 1078.71 533.758
406 0 76.1739 13.1672 1003 56.2652 1078.87 531.975
407 0 78.3091 13.2552 1038 56.1474 1078.83 534.118
408 0 80.3132 14.4808 1163 55.4351 1078.59 532.128
409 0 85.2139 15.1032 1287 54.4141 1078.36 530.782
410 0 88.1817 15.4114 1359 54.6093 1078.68 529.826
411 0 89.2882 14.6044 1304 55.7646 1078.53 528.422
412 0 92.1776 14.6239 1348 55.8101 1078.52 524.439
413 0 94.346 14.4786 1366 55.9422 1078.65 526.027
414 1 47.0894 12.5294 590 57.6407 1077.89 545.849
415 0 51.1578 13.6636 699 56.1917 1077.79 545.099
416 0 54.1772 14.0834 763 55.4391 1077.99 543.89
417 0 54.346 12.8068 696 57.2759 1077.28 543.421
418 0 55.2443 13.3769 739 57.7618 1076.5 541.547
419 0 59.4272 13.2599 788 56.7437 1076.43 541.822
420 0 61.2705 14.0198 859 55.9814 1076.19 540.166
421 0 62.2717 13.1842 821 57.0207 1075.73 539.631
422 0 65.5114 14.4555 947 55.6061 1075.16 538.767
423 0 66.5017 13.0373 867 57.2445 1075.11 537.762
424 0 70.3797 14.6917 1034 55.4236 1075.34 534.168
425 0 70.5054 13.5025 952 56.7752 1074.89 535.227
426 0 69.4023 13.6019 944 57.5816 1075.39 532.86
427 0 74.508 13.569 1011 56.4728 1075.51 531.728
428 0 77.6322 14.2982 1110 55.6802 1075.85 531.804
429 0 79.536 13.5913 1081 56.2877 1075.23 531.83
430 0 82.5564 13.0335 1076 56.5809 1075.97 531.214
431 0 84.35 14.7007 1240 55.4694 1075.5 527.425
432 0 88.236 14.6765 1295 54.9637 1075.42 526.641
433 0 92.5973 14.8708 1377 53.8903 1074.68 526.216
434 0 94.4581 13.985 1321 55.1317 1074.29 523.967
435 1 51.3285 11.6504 598 55.8997 1073.87 544.53
436 0 54.178 13.1419 712 54.4045 1074.1 542.352
437 0 55.2243 12.5488 693 54.8413 1073.91 542.629
438 0 58.1118 13.8698 806 53.6377 1073.51 541.289
439 0 60.2393 13.3302 803 54.0809 1073.17 539.375
440 0 63.282 13.4477 851 53.5535 1073.04 539.637
441 0 65.2754 14.1248 922 52.8167 1072.71 538.766
442 0 68.4104 13.5213 925 53.2681 1073.53 536.952
443 0 65.1084 13.5774 884 54.4604 1073.45 535.05
444 0 65.1084 13.5927 885 162.521 1072.44 535.052
445 0 73.2334 14.6245 1071 52.4416 1073.79 535.758
446 0 75.2289 14.6885 1105 52.8661 1074.2 535.15
447 0 78.1877 15.1942 1188 52.4428 1073.69 535.023
448 0 79.1714 13.8939 1100 53.5373 1074.9 534.378
449 0 84.2101 14.1669 1193 53.4443 1075.07 530.887
450 0 88.1543 15.1779 1338 51.923 1074.81 532.35
451 0 89.0774 14.2797 1272 53.1046 1074.12 529.374
452 0 94.1002 14.3783 1353 52.5528 1074.45 529.603
453 0 96.1494 14.3215 1377 52.9746 1074.15 525.634
454 0 100.127 14.2519 1427 52.4884 1074.51 524.875
455 1 53.0557 10.7057 568 52.6937 1074.68 548.588
456 0 54.1678 11.3721 616 52.7906 1075.65 546.443
457 0 58.1019 12.4609 724 51.5 1075.53 545.729
458 0 60.1103 13.6416 820 51.1305 1075.75 542.207
459 0 62.0949 13.6243 846 50.5236 1075.6 545.137
460 0 63.0963 13.4556 849 51.3404 1075.59 542.657
461 0 66.12 13.6419 902 51.571 1075.53 541.582
462 0 67.1196 12.2468 822 52.5815 1075.78 540.917
463 0 69.1249 13.0488 902 52.0333 1075.49 540.205
464 0 73.2074 13.9057 1018 50.946 1075.73 538.067
465 0 71.1924 13.611 969 52.2508 1075.23 536.01
466 0 77.0855 13.6731 1054 51.648 1075.28 537.455
467 0 78.2167 14.984 1172 51.0691 1074.62 534.3
468 0 80.2255 12.4524 999 53.1231 1074.96 534.21
469 0 81.0788 13.197 1070 53.1925 1075.13 530.536
470 0 86.1039 14.0992 1214 51.8443 1075.38 530.793
471 0 89.137 14.1019 1257 51.9189 1075.29 530.417
472 0 94.1306 13.8212 1301 51.9562 1075.36 529.198
473 0 93.1123 13.2313 1232 52.8474 1075.49 528.311
474 1 54.1144 10.9028 590 50.878 1076.13 549.603
475 0 54.1581 11.2449 609 51.069 1076.09 548.48
476 0 57.09 13.4349 767 48.7197 1076.34 548.412
477 0 56.03 12.0828 677 51.3368 1076.35 546.31
478 0 59.0728 12.51 739 50.3437 1075.5 547.808
479 0 59.0716 11.4099 674 51.6068 1075.88 547.91
480 0 61.0495 12.1705 743 51.4738 1075.9 545.882
481 0 64.0186 13.5586 868 50.523 1076.2 543.689
482 0 65.0442 12.0533 784 52.2411 1076.09 542.407
483 0 70.0613 12.2036 855 51.7637 1075.99 542.476
484 0 72.0677 12.9739 935 51.6289 1075.78 540.654
485 0 71.1066 13.4024 953 52.1731 1075.63 541.088
486 0 74.0684 13.717 1016 51.9705 1075.75 540.006
487 0 76.1048 14.007 1066 52.1529 1075.56 536.822
488 0 77.0787 13.1165 1011 52.8813 1075.06 536.015
489 0 80.066 12.752 1021 54.046 1075.23 533.195
490 0 83.2795 12.9564 1079 53.7146 1075.6 535.157
491 0 88.0798 13.8511 1220 52.7836 1076.03 533.616
492 0 91.149 13.4944 1230 52.852 1076.08 534.128
493 0 91.1394 14.4504 1317 53.5558 1076.17 528.666
494 0 94.0729 12.9155 1215 54.9276 1076.32 528.812
495 0 99.0806 13.3023 1318 54.2914 1076.32 528.653
496 1 55.0432 9.84682 542 53.9354 1077.27 548.673
497 0 54.0252 11.5317 623 53.5506 1077.27 547.348
498 0 58.0563 11.0755 643 54.2519 1077.37 547.274
499 0 59.1121 12.8908 762 52.8976 1076.78 544.047
500 0 60.2133 12.5221 754 53.5769 1077.05 543.292
501 0 63.1592 11.8114 746 53.9357 1077.05 541.736
502 0 65.125 11.6545 759 53.4993 1076.59 541.842
503 0 68.2355 11.3577 775 54.1497 1076.06 540.296
504 0 68.4197 10.6694 730 54.9342 1076.12 539.168
505 0 74.3593 13.771 1024 51.9561 1076.69 537.562
506 0 75.3423 12.6224 951 53.2135 1076.28 536.191
507 0 78.2706 12.5079 979 53.2635 1075.92 535.675
508 0 78.3254 11.3756 891 54.5971 1076.8 532.235
509 0 84.2308 13.3799 1127 52.3957 1076.72 533.903
510 0 85.3979 13.4078 1145 52.3354 1076.67 530.595
511 0 89.2499 11.888 1061 53.2271 1076.72 530.887
512 1 48.2316 11.4655 553 50.651 1076.13 549.351
513 0 50.3338 9.29793 468 52.2457 1076.3 550.701
514 0 53.2333 11.2899 601 50.7271 1075.66 549.125
515 0 52.2506 11.5597 604 51.1076 1075.89 547.677
516 0 54.1987 10.3508 561 51.041 1075.94 547.194
517 0 57.1889 12.2576 701 49.6134 1076.26 545.153
518 0 58.2669 12.7345 742 49.628 1075.87 544.104
519 0 61.1287 11.6312 711 50.0042 1076.19 543.087
520 0 61.1421 12.4791 763 50.0524 1076.76 542.556
521 0 61.3093 11.3197 694 51.4135 1076.75 543.108
522 0 63.15 11.8765 750 51.424 1077.15 540.877
523 0 64.1126 11.8541 760 51.8842 1077.48 537.767
524 0 65.2071 12.1459 792 51.8447 1077.64 536.734
525 0 71.1719 13.7695 980 50.2163 1077.56 536.932
526 0 69.2029 11.3724 787 52.5095 1077.92 536.948
527 0 75.1795 13.8868 1044 50.499 1077.4 535.338
528 0 75.152 13.0668 982 51.8462 1077.87 533.082
529 0 78.1853 13.6598 1068 51.4401 1077.88 532.43
530 0 82.3636 13.2583 1092 51.7885 1078.3 531.435
531 0 84.3922 12.5841 1062 52.4746 1078.42 530.599
532 0 85.2514 13.4543 1147 52.5301 1078.57 528.764
533 0 89.3256 12.6727 1132 52.9656 1078.91 527.337
534 1 53.1549 10.7986 574 51.7909 1079.47 548.671
535 0 53.3119 11.5734 617 51.3112 1079.51 547.485
536 0 55.2035 11.992 662 51.0725 1079.35 545.264
537 0 53.2077 12.2539 652 51.7899 1079.33 544.006
538 0 57.1039 12.4335 710 51.9845 1080.08 541.372
539 0 59.0906 12.3031 727 52.0055 1079.54 542.241
540 0 59.0557 12.8015 756 51.877 1079.56 541.829
541 0 59.063 12.2073 721 53.0319 1079.12 541.436
542 0 59.0394 12.4662 736 52.3383 1079.2 542.492
543 0 64.1456 12.7522 818 52.1675 1079.11 539.092
544 0 68.3039 13.9377 952 50.8466 1078.67 539.741
545 0 67.1964 13.2894 893 52.4434 1078.47 537.197
546 0 71.2448 12.2254 871 52.6096 1078.61 538.396
547 0 72.1533 12.3626 892 52.2511 1077.98 537.299
548 0 76.1814 13.1134 999 51.05 1078.07 535.188
549 0 79.1635 12.6573 1002 51.4281 1077.91 532.882
550 0 78.1916 13.5309 1058 51.0378 1077.9 531.25
551 0 82.3183 12.889 1061 51.3817 1077.78 532.34
552 1 47.1661 11.3853 537 50.0559 1078.33 549.218
553 0 48.0788 10.5868 509 50.169 1078.56 551.271
554 0 48.118 9.26888 446 50.9888 1078.36 550.673
555 0 53.0698 11.9277 633 49.455 1078.74 548.199
556 0 54.1231 12.1575 658 49.9438 1078.03 546.146
557 0 56.1056 11.817 663 49.3982 1077.2 546.935
558 0 55.1188 10.9037 601 52.8386 1077.81 545.534
559 0 60.1067 12.7107 764 48.733 1077.66 544.542
560 0 57.152 11.8981 680 50.7441 1077.85 542.835
561 0 62.1141 11.817 734 50.5 1077.37 542.114
562 0 65.096 12.4432 810 50.4519 1076.87 540.135
563 0 65.1554 13.4294 875 50.1051 1076.83 539.103
564 0 66.0835 12.8323 848 50.5955 1077.11 539.557
565 0 69.1014 13.4585 930 49.8398 1076.95 538.474
566 0 72.1309 11.9505 862 50.3654 1076.62 538.842
567 0 71.1634 12.3519 879 51.2412 1076.73 536.527
568 0 75.1314 12.6845 953 50.936 1077.01 534.928
569 0 78.0553 13.5545 1058 50.3346 1077.07 532.695
570 0 80.1275 12.3678 991 51.4612 1076.89 534.041
571 0 83.2336 13.0837 1089 51.5712 1076.9 532.32
572 1 46.0695 9.20348 424 51.7854 1076.4 550.984
573 0 47.1921 10.5526 498 52.4337 1076.68 547.928
574 0 48.0885 11.5204 554 51.6841 1076.35 546.298
575 0 51.0753 12.1585 621 51.5024 1075.97 546.399
576 0 53.1886 12.5967 670 51.6612 1075.66 546.048
577 0 55.1889 12.0314 664 52.9789 1075.39 544.104
578 0 58.0526 12.9021 749 51.8238 1075.33 545.862
579 0 58.2037 11.958 696 52.4124 1075.33 547.681
580 0 62.1466 13.5486 842 51.2886 1075.32 544.355
581 0 58.1266 12.1975 709 53.6982 1075.7 541.216
582 0 62.1648 13.5607 843 51.5504 1075.56 544.44
583 0 64.0818 14.2474 913 51.8039 1074.92 541.754
584 0 67.1829 13.7386 923 52.2178 1075.48 542.609
585 0 68.1667 13.687 933 52.6913 1074.44 540.182
586 0 68.1635 12.6021 859 54.0745 1074.06 540.39
587 0 74.2769 14.0555 1044 52.3956 1074.36 539.914
588 0 74.2383 13.5779 1008 53.5298 1074.66 538.264
589 0 79.164 13.352 1057 53.3321 1074.45 536.448
590 0 80.0921 15.4197 1235 51.9976 1074.28 534.622
591 0 82.2687 13.2614 1091 53.8121 1073.89 535.285
592 0 84.259 13.3636 1126 54.0932 1074.26 534.221
593 0 90.1596 13.9863 1261 53.1197 1074.33 533.568
594 0 90.385 14.5489 1315 52.9825 1074.27 530.573
595 0 94.189 14.7469 1389 52.522 1074.06 531.919
596 0 99.2609 14.5979 1449 51.9641 1074.09 529.311
597 0 99.2892 13.4959 1340 53.0754 1074.12 530.061
598 1 57.0689 14.2109 811 51.9778 1074.41 548.455
599 0 58.1012 13.2011 767 53.6493 1073.42 547.818
600 0 58.0906 14.5979 848 52.8821 1073.9 544.831
601 0 62.1359 13.9372 866 52.3314 1073.18 544.895
602 0 64.2321 14.5877 937 51.5752 1073.46 542.742
603 0 66.2271 13.6047 901 51.7936 1073.41 543.159
604 0 70.1568 15.2943 1073 49.0503 1073.16 542.39
605 0 69.2713 13.873 961 49.9178 1073.78 543.858
606 0 77.3348 13.4868 1043 49.9866 1072.97 542.129
607 0 75.4353 15.2448 1150 50.3278 1073.43 540.433
608 0 76.3819 13.6812 1045 53.6182 1073.23 537.842
609 0 79.4061 15.4522 1227 51.9568 1073.5 535.241
610 0 80.4574 14.4921 1166 53.8122 1073.46 533.778
611 0 84.3459 14.7725 1246 53.8331 1073.41 531.277
612 0 89.3645 14.6255 1307 53.5348 1074 530.828
613 0 91.7069 14.6009 1339 54.637 1074.15 530.792
614 1 47.2172 13.0884 618 55.5809 1074.15 550.752
615 0 47.3277 12.3395 584 56.0051 1074.08 551.733
616 0 49.3408 13.3966 661 56.0923 1073.62 550.522
617 0 51.0713 12.9819 663 56.2685 1073.76 550.738
618 0 53.2276 12.4372 662 57.3384 1073.86 549.788
619 0 53.1784 12.9752 690 56.271 1074.11 549.112
620 0 59.2094 13.8323 819 54.696 1073.74 547.762
621 0 59.2141 13.6961 811 55.7226 1073.74 546.487
622 0 58.2368 13.2047 769 57.5748 1074.33 546.698
623 0 62.2797 13.5839 846 56.3641 1074.51 544.233
624 0 64.2161 14.202 912 56.4287 1074.35 542.38
625 0 64.2161 14.1242 907 168.854 1075.34 542.337
626 0 68.3039 14.2744 975 56.1938 1075.39 540.414
627 0 70.2638 14.6163 1027 56.7235 1075.11 540.128
628 0 72.2599 15.0983 1091 56.6205 1075.57 538.814
629 0 75.2529 14.4048 1084 57.0074 1075.34 539.851
630 0 78.1015 13.8922 1085 57.5908 1075.41 538.979
631 0 82.1092 13.2263 1086 58.4761 1075.12 535.892
632 0 84.068 14.6548 1232 56.9773 1075.05 533.521
633 0 88.176 14.8226 1307 56.0451 1075.54 533.531
634 0 87.0566 13.8875 1209 57.7792 1075.68 533.431
635 1 49.0592 12.1486 596 57.8289 1075.76 550.238
636 0 50.0348 10.7125 536 58.8022 1076.19 550.847
637 0 52.1637 13.2468 691 56.1505 1076.06 549.259
638 0 54.0489 13.6358 737 55.6309 1077.55 548.209
639 0 55.0302 14.2649 785 55.2955 1077.29 546.946
640 0 58.0429 14.0414 815 54.8491 1077.72 546.229
641 0 59.0457 12.4141 733 56.5416 1077.9 545.921
642 0 61.0843 13.9479 852 55.2019 1077.69 544.795
643 0 62.0348 12.9444 803 56.3736 1078.34 542.828
644 0 65.0821 12.8146 834 56.1835 1077.92 541.543
645 0 67.0584 13.3018 892 56.2578 1078.13 540.521
646 0 71.0716 15.4351 1097 53.8195 1077.94 537.08
647 0 73.0459 14.3335 1047 54.9522 1078.31 537.953
648 0 75.0435 13.5255 1015 56.202 1078.77 536.423
649 0 77.0821 13.0899 1009 56.668 1077.99 536.061
650 0 83.0489 13.0405 1083 56.2281 1077.77 535.211
651 0 83.139 14.6983 1222 55.5417 1077.76 533.007
652 0 85.053 14.6497 1246 55.7632 1077.55 530.173
653 0 90.2172 14.5205 1310 55.6397 1077.66 531.724
654 0 91.1336 14.7915 1348 55.7174 1078.1 528.011
655 0 95.2461 14.5098 1382 55.7062 1078.55 528.054
656 0 94.2816 14.9022 1405 56.553 1077.8 524.228
657 0 101.124 14.2399 1440 56.5736 1077.96 523.74
658 0 103.301 14.5497 1503 56.5502 1077.71 520.768
659 1 57.0894 12.3841 707 55.5177 1077.55 545.56
660 0 59.0824 12.034 711 55.3924 1078.11 546.9
661 0 62.0367 11.4287 709 56.0945 1077.74 544.238
662 0 65.0584 13.0191 847 54.7155 1077.95 539.615
663 0 67.1097 13.0235 874 55.0092 1078.04 538.927
664 0 70.1029 13.6228 955 54.0702 1078.27 539.518
665 0 70.1155 13.8343 970 54.8505 1078.5 536.78
666 0 73.2038 12.6496 926 56.0961 1079.23 534.66
667 0 75.1773 13.4083 1008 55.1964 1078.79 535.792
668 0 78.1034 13.6742 1068 55.7753 1079.04 533.663
669 0 80.1663 12.9356 1037 56.8052 1079.21 532.321
670 0 79.1424 13.1661 1042 57.4933 1079.22 531.478
671 0 85.1416 14.3878 1225 56.1339 1079.15 527.384
672 0 86.1937 13.9801 1205 56.766 1079.5 527.737
673 0 91.2075 14.319 1306 56.366 1079.19 526.386
674 0 93.2199 13.8061 1287 57.4514 1079.49 523.398
675 0 96.3039 13.5197 1302 57.2504 1079.33 523.431
676 0 102.258 13.3193 1362 57.4391 1079.81 520.856
677 0 104.374 13.3174 1390 57.5957 1079.62 521.169
678 1 58.2104 11.6646 679 55.6451 1079.12 542.253
679 0 57.1212 11.5194 658 56.8875 1079.53 541.154
680 0 59.2172 12.3782 733 56.191 1079.94 541.059
681 0 60.1254 12.3076 740 56.8527 1080.15 540.968
682 0 63.3574 13.4002 849 55.3439 1080.33 541.306
683 0 63.2764 12.153 769 56.5852 1080.13 539.806
684 0 66.3286 12.423 824 57.034 1080.58 535.72
685 0 68.3056 12.9418 884 56.2896 1080.53 537.636
686 0 70.2619 12.4819 877 56.9293 1079.64 535.884
687 0 74.2205 12.7997 950 56.3105 1079.73 535.096
688 0 74.554 13.1583 981 56.7258 1079.34 531.266
689 0 76.3381 13.0603 997 57.4674 1079.58 530.63
690 0 82.4413 13.9857 1153 56.0486 1079.12 529.506
691 0 84.3348 14.1816 1196 56.3696 1079.06 527.841
692 0 84.3208 12.8319 1082 57.9464 1080.16 526.849
693 0 89.5888 13.5954 1218 57.078 1080.19 526.364
694 0 94.4588 14.726 1391 55.4536 1079.74 524.196
695 1 51.5547 11.2308 579 55.9655 1078.82 544.884
696 0 53.42 11.681 624 56.2083 1079.36 541.37
697 0 56.5469 12.1138 685 55.1036 1079.22 542.493
698 0 57.4783 13.1006 753 54.6255 1079.25 541.556
699 0 59.3411 13.5656 805 54.1876 1079.6 539.087
700 0 60.3474 13.5217 816 55.1127 1078.45 539.798
701 0 61.307 13.1959 809 55.7738 1078.02 538.278
702 0 64.4775 13.1519 848 55.8974 1078.11 537.195
703 0 64.2674 13.0237 837 56.1505 1078.07 537.771
704 0 69.3508 13.3236 924 55.4589 1078.06 536.804
705 0 67.3722 12.1267 817 57.4933 1077.74 534.902
706 0 72.3537 12.4665 902 56.8304 1078.05 533.887
707 0 73.5215 14.9072 1096 54.4015 1077.65 531.261
708 0 77.4483 14.1901 1099 55.1037 1077.43 532.467
709 0 77.5075 13.6374 1057 56.2412 1077.12 530.831
710 0 80.5154 14.1836 1142 55.5893 1077.06 528.784
711 0 82.4652 14.491 1195 55.9339 1076.97 528.061
712 0 86.37 14.9126 1288 55.5683 1077.46 526.818
713 0 89.3752 13.8405 1237 56.8173 1077.26 526.425
714 0 93.4191 14.4724 1352 56.2337 1077.05 524.569
715 0 94.5036 13.8725 1311 56.9359 1076.87 523.71
716 0 94.3959 14.2061 1341 57.3087 1076.45 521.279
717 1 53.2454 11.9259 635 57.5402 1076.32 545.504
718 0 54.1349 12.2841 665 56.7654 1075.57 546.173
719 0 54.1717 12.4235 673 58.4576 1075.69 545.373
720 0 56.1718 12.4084 697 58.4806 1075.22 544.486
721 0 59.1198 14.0562 831 55.9579 1075.98 543.581
722 0 58.0973 13.3397 775 57.3381 1075.91 542.76
723 0 60.1612 12.8654 774 57.8773 1075.76 543.163
724 0 65.0838 14.6734 955 54.9654 1075.68 539.818
725 0 66.0637 13.926 920 57.1446 1075.89 540.276
726 0 67.0902 13.8619 930 55.8258 1075.64 539.992
727 0 68.0864 14.9369 1017 55.4356 1075.95 539.665
728 0 70.1547 14.4538 1014 56.7919 1075.75 536.335
729 0 71.0759 13.8444 984 57.6911 1075.56 536.901
730 0 75.1574 14.7956 1112 55.955 1075.36 535.797
731 0 80.1752 14.1939 1138 55.8761 1075.76 536.511
732 0 80.1328 15.1499 1214 55.2496 1074.96 535.904
733 0 82.0767 15.8632 1302 55.0415 1075.38 531.959
734 0 85.1895 16.1874 1379 54.8354 1074.89 531.085
735 0 86.1942 15.8363 1365 54.6359 1074.08 531.16
736 0 90.1693 15.8701 1431 54.594 1073.89 530.796
737 0 91.2908 14.9522 1365 55.9824 1073.92 527.568
738 0 90.2725 15.132 1366 56.0505 1073.66 528.913
739 0 95.3328 16.1644 1541 55.2116 1073.52 524.57
740 0 98.417 16.2066 1595 54.9072 1073.73 523.571
741 0 103.557 17.2659 1788 53.6024 1074.26 523.143
742 0 102.398 16.3088 1670 54.4683 1073.62 526.332
743 0 101.27 14.2095 1439 56.6574 1073.74 524.944
744 0 112.335 14.6704 1648 56.2664 1074.06 518.3
745 0 116.476 17.5745 2047 53.3454 1073.79 515.91
746 0 119.115 15.8838 1892 54.6205 1073.79 515.933
747 1 69.1928 13.4407 930 54.1548 1073.39 542.573
748 0 69.1092 12.0968 836 55.75 1073.25 541.343
749 0 74.0794 14.1875 1051 53.7812 1073.26 540.523
750 0 77.1202 13.4984 1041 54.2181 1073.15 536.953
751 0 77.2145 14 1081 54.0814 1073.15 533.97
752 0 82.1774 12.8624 1057 54.5743 1072.89 536.746
753 0 83.0942 14.4776 1203 54.0216 1072.57 533.247
754 0 87.2055 14.2078 1239 53.8894 1072.78 531.255
755 0 88.2426 12.579 1110 55.3973 1072.2 529.911
756 0 92.314 13.8007 1274 53.8893 1073.03 529.668
757 0 94.2598 13.2294 1247 54.1307 1073.07 527.125
758 0 94.2593 13.0173 1227 54.1125 1073.29 529.082
759 0 101.455 14.0654 1427 53.0203 1073.26 525.48
760 0 105.446 13.5994 1434 53.7859 1072.71 524.513
761 0 107.317 12.5889 1351 54.6358 1072.74 522.092
762 1 61.1283 12.6455 773 52.3182 1072.97 545.809
763 0 61.1976 11.8796 727 53.8707 1072.83 545.077
764 0 64.1152 13.2106 847 52.026 1072.58 545.085
765 0 66.2285 13.1363 870 51.6287 1072.69 544.494
766 0 68.1065 12.6273 860 52.864 1072.43 541.598
767 0 71.2929 12.6099 899 52.5595 1072.62 541.298
768 0 72.212 13.308 961 51.9906 1072.72 539.737
769 0 74.2476 13.4011 995 51.7558 1072.9 538.965
770 0 77.1807 14.0968 1088 51.1232 1072.7 537.342
771 0 79.2665 13.4231 1064 51.593 1072.64 537.037
772 0 81.3198 13.3178 1083 51.8901 1072.76 536.144
773 0 85.1641 13.7264 1169 51.6938 1072.51 533.153
774 0 87.2522 13.9939 1221 51.3014 1072.43 532.591
775 0 87.1743 12.8364 1119 53.0143 1072.11 533.064
776 0 93.3025 13.3223 1243 52.0893 1072.66 532.773
777 0 94.3086 14.0602 1326 52.2926 1072.33 529.093
778 0 96.1709 13.6632 1314 52.6126 1073.16 525.651
779 0 102.182 13.8087 1411 51.9745 1072.99 526.691
780 0 103.231 12.5447 1295 53.6849 1072.96 526.351
781 0 108.261 14.1603 1533 52.0783 1073.03 524.95
782 0 108.217 13.7132 1484 53.2642 1073.94 520.644
783 0 113.205 13.8421 1567 53.1557 1074.46 518.252
784 1 61.1277 12.5148 765 52.715 1074.47 541.684
785 0 64.2201 13.4537 864 52.3299 1074.27 543.087
786 0 66.1832 12.828 849 52.8716 1074.8 542.306
787 0 69.1532 13.6075 941 52.4453 1075.02 541.97
788 0 71.185 12.2217 870 53.6023 1074.82 541.107
789 0 71.2005 13.2443 943 53.2036 1074.86 540.016
790 0 76.1819 13.6647 1041 52.3497 1075.11 541.532
791 0 76.1819 13.6778 1042 153.075 1076.12 541.537
792 0 81.4046 13.8199 1125 53.4916 1075.69 535.104
793 0 82.2375 13.7529 1131 54.2122 1075.17 533.81
794 0 82.248 13.3499 1098 55.3862 1075.72 533.392
795 0 88.3834 13.5772 1200 54.7492 1075.47 530.313
796 0 88.2701 13.1302 1159 55.5272 1075.58 530.987
797 0 92.2733 13.5359 1249 55.3691 1075.67 525.955
798 0 96.2621 13.9099 1339 54.8402 1076.18 526.197
799 0 97.2432 13.7799 1340 55.5119 1076.74 526.37
800 1 58.3118 10.3581 604 55.043 1076.61 547.187
801 0 58.2165 11.3713 662 54.4169 1076.44 546.699
802 0 59.3994 11.4816 682 54.6056 1076.86 545.425
803 0 60.144 11.3228 681 54.8341 1077.15 544.27
804 0 62.2413 14.4438 899 52.6808 1077.41 543.509
805 0 65.1473 13.646 889 52.9471 1076.84 540.054
806 0 67.2787 12.5151 842 53.2316 1077.13 541.215
807 0 70.3892 14.0789 991 51.3532 1077.39 537.876
808 0 72.2288 12.1143 875 52.6811 1076.89 538.992
809 0 74.1318 13.0308 966 51.793 1077.4 538.132
810 0 80.3285 13.5942 1092 51.0907 1077.12 534.363
811 0 80.3933 12.7996 1029 51.9359 1077.42 532.281
812 0 85.453 14.4992 1239 49.8095 1077.56 535.78
813 0 85.4494 13.6923 1170 51.4197 1077.72 529.437
814 0 87.2385 13.7439 1199 51.5046 1077.59 530.661
815 0 91.4291 13.2562 1212 51.7492 1077.97 529.414
816 0 91.4342 13.3757 1223 52.0662 1077.87 526.275
817 0 95.4874 14.1066 1347 50.9451 1077.48 526.336
818 0 99.3921 13.7536 1367 50.9802 1077.58 524.327
819 0 103.535 15.3088 1585 50.1136 1077.71 522.526
820 0 105.679 14.194 1500 50.846 1077.38 521.495
821 1 58.2279 13.1037 763 50.2241 1077.24 544.86
822 0 59.2032 12.8034 758 50.7955 1077.16 544.245
823 0 59.199 12.1961 722 50.2119 1077.04 545.032
824 0 59.199 12.2468 725 154.251 1078.05 545.088
825 0 65.139 13.3868 872 48.5894 1076.85 541.826
826 0 65.2518 12.5667 820 49.6427 1076.9 539.862
827 0 70.2184 11.7491 825 49.5939 1076.93 541.382
828 0 69.3151 12.2484 849 49.7456 1077.51 539.351
829 0 75.2857 14.9829 1128 47.2509 1077.03 537.223
830 0 77.362 14.1025 1091 48.4253 1076.76 536.663
831 0 79.249 13.3377 1057 49.5866 1076.5 534.434
832 0 82.3224 14.0545 1157 49.5315 1076.72 532.387
833 0 84.6088 13.8638 1173 49.9599 1076.11 531.766
834 1 48.2589 12.1636 587 49.1107 1075.99 548.782
835 0 46.2221 9.86541 456 50.5461 1075.39 550.706
836 0 47.1867 10.6386 502 50.1096 1075.25 547.837
837 0 52.3724 11.7046 613 48.8646 1075.09 548.103
838 0 52.1876 12.7233 664 48.6717 1075.17 549.369
839 0 53.1525 11.6834 621 50.4831 1075.34 546.924
840 0 54.1766 12.7546 691 49.9537 1075.38 545.867
841 0 57.2708 13.2179 757 49.6684 1076 545.061
842 0 59.2372 12.6103 747 50.6131 1075.52 545.122
843 0 61.2082 11.7795 721 50.9001 1075.71 545.882
844 0 63.3081 14.1846 898 49.9699 1075.31 542.413
845 0 66.1858 11.8908 787 51.2567 1075.36 544.964
846 0 68.2516 12.8202 875 51.0834 1075.04 542.978
847 0 68.1284 13.1663 897 51.3456 1074.55 542.931
848 0 68.1934 14.1069 962 51.5437 1074.5 540.187
849 0 70.3572 13.9005 978 51.9571 1074.72 539.099
850 0 73.3316 15.7504 1155 50.8242 1074.6 537.821
851 0 73.1211 14.9888 1096 52.2299 1074.8 537.968
852 0 77.1828 14.4592 1116 52.4588 1074.69 536.418
853 0 79.2258 14.0106 1110 53.255 1075.07 535.468
854 0 84.4332 15.6574 1322 51.4009 1075.57 531.903
855 0 85.4351 15.5089 1325 52.043 1075.43 530.886
856 0 82.3184 14.8691 1224 53.9224 1074.86 531.227
857 0 82.3635 13.6347 1123 55.0766 1074.7 532.183
858 0 86.4321 12.6458 1093 55.7795 1074.96 534.237
859 0 85.3918 11.3126 966 56.1542 1074.36 535.459
860 0 83.3433 10.7867 899 57.0067 1074.24 535.256
861 0 85.2113 10.5855 902 57.1663 1074.59 536.4
862 1 57.1633 12.4555 712 56.375 1074.44 545.302
863 0 57.2082 13.1974 755 56.3523 1075.24 544.676
864 0 58.1562 13.6701 795 56.2038 1074.4 545.727
865 0 61.1115 13.1235 802 57.1172 1074.03 545.059
866 0 62.0918 14.3336 890 57.036 1073.58 542.999
867 0 64.1261 14.222 912 57.3443 1073.32 542.194
868 0 69.048 16.1627 1116 54.5815 1074.13 540.729
869 0 73.0378 14.5815 1065 56.2038 1074.16 539.333
870 0 72.168 14.5494 1050 57.2933 1073.43 539.179
871 0 74.1824 14.3026 1061 57.7531 1073.01 538.576
872 0 77.2092 15.4904 1196 56.1856 1073.73 535.739
873 0 81.0671 14.4818 1174 56.3075 1073.3 536.526
874 0 82.1617 15.1409 1244 56.2902 1072.95 534.4
875 0 84.2629 14.5734 1228 57.1963 1072.81 534.046
876 0 87.1443 15.3883 1341 56.4154 1073.48 533.97
877 0 89.1534 13.8413 1234 58.2836 1073.15 532.871
878 0 89.095 15.1299 1348 57.595 1073.34 531.289
879 0 93.129 14.5068 1351 58.2842 1073.12 529.717
880 0 98.1565 15.8624 1557 56.8587 1072.88 526.604
881 0 102.134 16.5469 1690 56.2438 1073 526.314
882 0 104.183 14.3689 1497 58.5872 1072.81 525.592
883 0 108.23 15.3377 1660 57.8048 1073.06 524.511
884 0 109.208 15.1821 1658 58.7594 1072.88 522.516
885 0 111.276 15.1246 1683 58.9436 1072.73 522.622
886 1 61.1647 13.668 836 60.9797 1073.37 546.502
887 0 62.2059 13.809 859 63.5995 1073.3 545.494
888 0 66.0692 14.9237 986 64.8844 1073.53 544.08
889 0 67.1252 15.4041 1034 66.9807 1073.08 539.217
890 0 72.1912 15.3481 1108 81.4323 1073.88 539.822
891 0 72.1133 14.1999 1024 80.792 1073.57 540.748
892 0 74.1278 16.1073 1194 57.9715 1073.88 537.502
893 0 78.2827 15.8145 1238 57.6817 1074.02 537.082
894 0 80.1518 15.0464 1206 58.6318 1074.49 536.899
895 0 81.1437 15.4048 1250 59.264 1074.4 533.4
896 0 84.1093 15.4204 1297 59.0933 1074.45 533.05
897 0 86.1063 15.4809 1333 58.817 1074.58 532.246
898 0 87.19 14.887 1298 60.2226 1075.02 529.563
899 0 91.0557 13.9475 1270 60.1732 1075.11 530.702
900 0 97.0584 15.9389 1547 57.7679 1075.18 529.478
901 0 97.0786 14.3286 1391 59.8756 1075.43 527.219
902 0 98.1444 13.5107 1326 61.3401 1075.71 524.681
903 1 54.0696 12.7058 687 60.7176 1075.56 544.882
904 0 57.1081 12.5201 715 59.4909 1075.63 545.474
905 0 60.0608 13.9192 836 58.3995 1076.08 543.912
906 0 61.0651 14.5582 889 57.6243 1075.86 542.592
907 0 61.0582 13.2824 811 59.7448 1075.54 540.826
908 0 66.1502 14.7392 975 57.7108 1075.81 538.071
909 0 69.1555 12.8551 889 58.5838 1075.8 539.624
910 0 69.1693 13.4886 933 59.254 1076.36 537.188
911 0 69.2155 13.8697 960 59.3271 1076.8 537.588
912 0 72.2231 14.9675 1081 58.8779 1076.89 535.111
913 0 72.1356 13.7796 994 59.2435 1076.6 537.176
914 0 77.1423 15.1279 1167 58.5107 1077.04 532.943
915 0 79.2591 13.7019 1086 60.0589 1077.34 531.484
916 0 82.2495 15.2098 1251 58.765 1077.51 529.355
917 0 84.3112 15.1819 1280 58.7734 1077.14 528.256
918 0 89.2813 14.3479 1281 59.4715 1077.54 526.524
919 0 91.3337 14.8248 1354 59.339 1077.74 524.205
920 0 94.3008 14.8249 1398 58.6202 1077.97 524.698
921 1 53.1412 11.9117 633 59.8452 1077.67 544.962
922 0 53.1508 10.4984 558 62.0645 1077.89 543.713
923 0 56.1042 10.6944 600 61.0067 1078.45 542.935
924 0 56.086 13.1584 738 58.8537 1078.99 542.081
925 0 60.1542 14.3963 866 57.1986 1079.05 539.684
926 0 63.0867 13.0614 824 57.9818 1078.58 540.279
927 0 65.0895 13.274 864 57.9109 1079.57 537.667
928 0 67.0833 13.3863 898 57.8185 1079.42 537.4
929 0 69.1336 13.8283 956 57.4623 1078.73 537.119
930 0 69.0698 13.3054 919 58.5147 1079.08 535.471
931 0 72.1394 13.9729 1008 58.3492 1079.01 533.99
932 0 76.1338 13.844 1054 58.7116 1079.01 532.758
933 0 78.065 14.8722 1161 57.528 1078.85 532.982
934 0 81.2317 14.2063 1154 58.4662 1078.76 531.978
935 0 82.2631 13.8337 1138 59.1221 1078.18 530.128
936 0 84.1018 13.8998 1169 59.8152 1077.89 528.403
937 0 87.1113 13.8788 1209 60.3606 1078.06 526.919
938 0 91.1034 14.8403 1352 59.0658 1077.6 525.665
939 0 94.2217 14.7737 1392 59.3161 1077.25 523.561
940 0 98.249 14.4327 1418 59.2976 1077.99 523.841
941 0 99.4639 13.9649 1389 60.3326 1077.97 523.791
942 0 101.2 14.2293 1440 60.5014 1077.46 520.742
943 0 105.321 14.8974 1569 60.2568 1077.46 516.657
944 0 106.207 15.0555 1599 60.267 1077.09 515.312
945 0 112.343 14.3578 1613 60.4309 1076.93 515.4
946 0 116.325 14.4251 1678 60.5948 1076.93 513.545
947 0 120.308 15.0282 1808 59.8114 1076.87 512.442
948 0 124.269 15.217 1891 59.7472 1076.92 507.818
949 0 127.219 14.1252 1797 60.7318 1076.73 507.51
950 1 64.1202 10.5115 674 60.2107 1076.65 538.295
951 0 69.1979 11.7056 810 57.9938 1076.56 540.063
952 0 69.136 12.6562 875 59.8011 1076.35 536.67
953 0 72.1779 12.5385 905 59.3635 1076.34 536.644
954 0 72.1475 11.9616 863 58.2352 1075.97 535.153
955 0 78.1883 14.5034 1134 55.5908 1075.86 533.02
956 0 80.1494 13.4998 1082 56.8826 1075.92 532.213
957 0 83.1204 12.7406 1059 57.5156 1075.9 531.064
958 0 85.1665 12.9159 1100 56.6727 1076.16 531.055
959 0 86.1546 12.8954 1111 57.8785 1075.93 528.917
960 0 89.1341 12.599 1123 56.9279 1076.13 531.605
961 0 90.1861 12.6738 1143 57.9554 1076.04 526.472
962 0 96.0986 13.7567 1322 56.2277 1076.11 525.346
963 0 96.187 12.5485 1207 57.5742 1076.41 525.06
964 1 57.0794 9.4605 540 56.0574 1076.44 547.311
965 0 57.0579 11.5146 657 55.0548 1075.89 542.721
966 0 59.1091 10.9628 648 54.6389 1076.06 543.383
967 0 61.0326 11.4365 698 54.6977 1075.57 541.781
968 0 63.1352 12.101 764 53.2683 1075.67 540.884
969 0 64.1077 12.557 805 52.5466 1075.26 540.912
970 0 68.139 12.5772 857 52.5811 1075.62 542.322
971 0 70.0827 14.0976 988 51.5455 1074.7 539.311
972 0 70.1732 11.7566 825 54.4048 1074.77 536.902
973 0 72.252 10.7125 774 55.2519 1075.6 537.895
974 0 75.1402 12.3902 931 54.0322 1075.85 535.11
975 0 78.3229 12.7421 998 53.8236 1075.29 535.622
976 0 81.1724 14.229 1155 52.3688 1075.27 532.878
977 0 80.1315 12.4046 994 55.0825 1074.85 531.091
978 0 84.1477 12.1928 1026 54.7612 1074.86 532.13
979 0 88.193 13.289 1172 54.4991 1074.65 529.608
980 0 90.4346 12.3072 1113 54.8518 1074.7 529.849
981 0 92.2243 12.9359 1193 54.6999 1074.48 528.154
982 0 94.1758 12.3068 1159 54.8835 1074.52 526.865
983 0 98.413 13.2909 1308 54.1934 1074.31 525.774
984 0 99.3634 12.6002 1252 54.8986 1074.24 525.426
985 0 101.397 12.456 1263 55.4529 1074.4 524.127
986 0 103.315 12.486 1290 55.7977 1074.12 521.581
987 0 107.353 12.715 1365 55.3832 1074.06 520.475
988 0 111.466 13.9595 1556 53.57 1073.85 520.44
989 0 114.427 13.6506 1562 53.8912 1073.56 518.757
990 0 117.694 14.0364 1652 53.5956 1073.34 516.378
991 0 123.539 15.4526 1909 51.6438 1073.74 515.704
992 0 125.589 14.1573 1778 53.2137 1073.49 510.819
993 0 125.537 11.6619 1464 56.4768 1073.4 509.723
994 0 132.627 15.8867 2107 52.0062 1073.82 502.998
995 0 136.659 15.0008 2050 52.841 1073.74 506.714
996 0 139.468 13.9889 1951 53.7207 1073.87 505.954
997 0 142.612 14.3466 2046 53.7869 1073.77 502.342
998 0 145.798 14.0948 2055 54.0501 1074.02 501.174
999 0 147.737 13.9031 2054 54.7191 1073.41 497.96
1000 0 152.69 14.1005 2153 54.7255 1074.3 491.475
1001 0 155.655 13.8833 2161 55.0801 1073.88 492.282
1002 0 158.644 15.1471 2403 53.4453 1073.55 490.389
1003 0 164.571 15.1546 2494 53.7546 1073.17 485.864
1004 0 166.67 13.8657 2311 55.6954 1073.45 484.135
1005 0 175.707 14.3136 2515 55.2549 1073.44 483.245
1006 0 179.646 14.1946 2550 55.2608 1074.01 483.275
1007 0 186.682 16.2469 3033 53.4276 1074.12 478.76
1008 0 191.684 15.2595 2925 54.7716 1073.91 476.933
1009 0 194.544 15.287 2974 55.2108 1073.98 475.108
1010 0 200.585 14.3381 2876 56.1603 1073.84 468.662
1011 1 158.513 13.532 2145 58.5641 1074.16 490.71
1012 0 166.301 12.8803 2142 58.2988 1073.6 493.041
1013 0 169.339 14.3027 2422 58.0987 1073.64 486.469
1014 0 175.246 14.7564 2586 57.9749 1073.89 482.707
1015 0 182.415 15.5689 2840 56.3246 1074.01 487.025
1016 0 186.394 16.3363 3045 56.3622 1074.28 475.006
1017 0 194.266 14.7735 2870 57.5899 1073.76 479.032
1018 0 201.563 15.5336 3131 56.6193 1074.11 475.869
1019 0 206.597 14.7679 3051 57.6896 1074.22 471.364
1020 0 214.681 14.8313 3184 57.7632 1074.33 465.847
1021 0 222.453 15.5134 3451 56.9336 1074.68 462.79
1022 1 180.57 13.2304 2389 59.4579 1074.51 488.08
1023 0 186.504 14.4608 2697 59.033 1074.44 481.845
1024 0 192.541 15.0929 2906 58.714 1074.58 475.823
1025 0 197.457 14.3018 2824 59.6296 1074.54 472.667
1026 0 206.542 15.5417 3210 58.0956 1074.74 468.862
1027 0 211.665 14.4379 3056 59.6224 1074.57 469.542
1028 0 218.465 14.7163 3215 59.5033 1075.22 465.464
1029 0 226.39 15.3364 3472 58.8911 1075.57 462.953
1030 0 234.467 15.6398 3667 58.8876 1075.67 458.618
1031 0 240.426 15.0857 3627 59.4409 1075.7 456.068
1032 0 247.699 15.1111 3743 59.3211 1075.51 451.11
1033 0 253.455 15.7661 3996 58.496 1075.59 446.945
1034 0 263.346 16.1499 4253 58.1815 1075.59 443.944
1035 1 195.51 14.8995 2913 60.7878 1075.73 476.954
1036 0 202.337 15.8004 3197 60.3754 1075.9 474.664
1037 0 211.236 16.749 3538 59.3488 1076.27 469.596
1038 0 218.321 16.2971 3558 59.7462 1076.67 460.708
1039 0 226.477 15.5159 3514 60.3657 1076.88 459.102
1040 0 235.413 16.3543 3850 59.4078 1077.16 455.207
1041 0 242.466 16.1094 3906 59.627 1077.36 451.816
1042 0 250.432 17.3939 4356 58.1143 1077.84 441.603
1043 0 258.374 17.5289 4529 57.9567 1077.82 438.293
1044 0 267.49 17.5483 4694 58.0605 1077.51 436.64
1045 0 276.495 17.5772 4860 57.9346 1077.24 433.105
1046 1 67.1959 10.9977 739 54.9432 1078.39 537.594
1047 0 70.1791 12.1831 855 54.4503 1077.83 537.778
1048 0 73.2569 12.5039 916 54.202 1077.57 536.314
1049 0 75.294 12.0594 908 54.63 1078.28 534.725
1050 0 79.34 13.3098 1056 53.1951 1077.83 533.929
1051 0 80.1256 12.7051 1018 54.0756 1078.22 533.318
1052 0 82.1444 12.6485 1039 54.8017 1078.79 530.509
1053 0 87.2189 12.8757 1123 53.3874 1078.81 531.241
1054 0 88.1073 12.2237 1077 54.7038 1078.64 527.135
1055 0 92.1493 12.6642 1167 54.2022 1079.2 525.83
1056 0 97.1351 13.0437 1267 53.453 1079.01 524.346
1057 0 98.2473 12.7434 1252 54.1693 1078.39 519.562
1058 0 102.162 13.1555 1344 53.5521 1078.38 517.733
1059 0 102.162 13.1555 1344 139.329 1079.38 517.733
1060 0 108.265 12.0445 1304 53.7853 1077.7 516.65
1061 0 115.201 12.8037 1475 52.8217 1077.85 516.425
1062 1 62.1115 10.8837 676 52.3402 1077.86 541.416
1063 0 64.1631 12.4994 802 51.5 1078.02 540.175
1064 0 64.0929 12.4663 799 52.0088 1078.49 539.272
1065 0 67.0921 12.5201 840 52.1583 1078.31 539.261
1066 0 69.2897 12.3251 854 52.9274 1078.43 537.399
1067 0 70.1756 12.768 896 52.9888 1078.6 537.46
1068 0 71.1358 11.3586 808 55.0037 1077.85 535.976
1069 0 74.1228 12.4253 921 54.6906 1077.92 532.781
1070 0 75.0769 12.2541 920 55.0359 1078.12 534.123
1071 0 77.0436 12.2788 946 55.7008 1077.81 532.936
1072 0 79.0601 11.7632 930 56.5677 1078.15 532
1073 0 83.1121 12.9825 1079 55.3614 1078.04 530.76
1074 0 85.0561 12.3683 1052 56.192 1078.09 529.707
1075 0 86.1778 12.4974 1077 57.1142 1076.9 528.097
1076 0 88.0925 13.4518 1185 55.9536 1076.64 527.748
1077 0 92.0794 13.749 1266 55.7449 1077.35 525.378
1078 0 95.1395 13.044 1241 56.5455 1077.14 524.528
1079 0 99.1136 13.2071 1309 56.3476 1076.48 522.84
1080 1 53.0171 10.0722 534 58.2303 1076.83 545.255
1081 0 55.0732 10.7493 592 57.4747 1076.46 543.61
1082 0 56.2686 11.534 649 56.1849 1075.83 544.419
1083 0 60.2471 12.6977 765 55.4105 1075.52 542.742
1084 0 62.147 12.7601 793 55.9962 1076.23 540.832
1085 0 62.199 12.3957 771 56.69 1076.2 541.357
1086 0 64.2117 13.3932 860 55.8407 1075.98 538.922
1087 0 68.2764 12.259 837 56.5532 1076.14 539.256
1088 0 69.2695 12.8051 887 56.2052 1076.39 537.936
1089 0 72.1772 13.3976 967 55.4292 1076.5 537.34
1090 0 71.195 13.2032 940 55.8904 1075.63 536.735
1091 0 75.1342 12.2181 918 57.0076 1075.81 534.89
1092 0 76.1744 14.9525 1139 54.4873 1076.07 534
1093 0 79.185 13.2853 1052 55.5447 1075.67 533.535
1094 0 80.1346 13.2402 1061 55.9123 1075.09 535.065
1095 0 84.1257 12.8974 1085 55.4258 1075.44 531.055
1096 0 84.1826 12.5679 1058 55.9858 1075.05 531.118
1097 0 88.0991 13.1329 1157 55.0406 1075.75 529.513
1098 0 90.1931 12.9943 1172 55.8379 1075.64 526.811
1099 0 91.2046 12.2362 1116 56.5538 1076.2 528.089
1100 1 51.0714 9.45735 483 57.795 1076.61 546.201
1101 0 54.1789 11.259 610 56.0164 1076.44 545.848
1102 0 57.2214 12.4604 713 54.0182 1075.91 543.84
1103 0 56.2124 11.7768 662 55.6813 1075.94 543.008
1104 0 56.1762 10.6807 600 54.285 1074.08 538.762
1105 0 58.3006 11.9553 697 54.5222 1073.9 537.973
1106 0 62.0675 14.3876 893 50.9283 1073.67 539.431
1107 0 66.2035 13.2772 879 52.3299 1074.53 541.943
1108 0 65.1531 11.0355 719 54.7594 1074.1 542.11
1109 0 67.2371 12.9244 869 53.1392 1074.48 540.796
1110 0 67.1848 13.4852 906 52.7572 1074.28 539.593
1111 0 71.1592 13.2239 941 51.7418 1074.62 540.68
1112 0 73.3066 12.6319 926 52.2549 1075.22 539.563
1113 0 75.3345 13.1679 992 51.6905 1074.64 538.142
1114 0 76.2475 12.8529 980 52.7592 1074.87 537.569
1115 0 80.2022 13.7777 1105 51.8326 1074.63 535.015
1116 0 79.4681 12.5962 1001 52.9111 1073.86 535.875
1117 0 86.2378 13.5671 1170 51.6556 1074.01 532.224
1118 0 87.1929 13.0745 1140 52.5096 1073.9 532.625
1119 0 90.4062 14.3021 1293 51.3457 1074 531.88
1120 0 92.2697 14.2409 1314 51.6446 1073.85 530.398
1121 0 98.4002 14.4715 1424 51.2746 1074.54 529.395
1122 0 100.283 14.6187 1466 51.6166 1074.86 525.157
1123 1 54.2672 10.6878 580 51.9103 1074.02 550.002
1124 0 57.2258 11.2012 641 52.103 1074.35 547.251
1125 0 62.2109 11.252 700 51.2843 1074.7 546.81
1126 0 59.3115 11.4312 678 52.3097 1074.82 546.111
1127 0 64.4529 12.3811 798 51.2105 1075.07 542.516
1128 0 66.2877 13.0039 862 51.319 1074.26 543.905
1129 0 65.41 12.5975 824 52.4551 1074.24 543.672
1130 0 68.3639 12.1848 833 52.8643 1074.37 540.533
1131 0 71.3896 12.6909 906 52.1402 1074.3 539.768
1132 0 74.6313 13.3188 994 51.3873 1074.92 538.008
1133 0 75.649 13.2718 1004 52.506 1074.92 534.966
1134 0 77.7069 13.6539 1061 52.0942 1074.89 533.624
1135 0 80.7387 13.3765 1080 52.3722 1074.73 533.492
1136 0 83.7148 14.3224 1199 51.5113 1074.76 531.299
1137 0 86.7974 14.3783 1248 51.8357 1075.37 530.958
1138 0 86.6714 13.3493 1157 53.7848 1075.69 527.839
1139 0 90.6228 15.4597 1401 51.4618 1075.79 525.513
1140 0 93.7082 12.6777 1188 54.0446 1076.15 525.53
1141 0 98.6384 13.6154 1343 54.2896 1075.92 524.321
1142 0 98.4884 13.8087 1360 55.1302 1076.03 523.15
1143 0 104.772 13.8873 1455 54.4536 1075.65 522.915
1144 0 106.508 13.7361 1463 55.5017 1075.69 520.444
1145 0 109.537 14.0318 1537 55.5329 1075.8 516.874
1146 0 112.4 14.5462 1635 55.3058 1075.47 516.474
1147 0 112.4 14.5373 1634 155.496 1075.46 516.48
1148 0 119.433 13.899 1660 56.3126 1076.1 512.362
1149 1 61.2514 10.661 653 56.7014 1076.22 542.3
1150 0 63.1963 10.9025 689 56.2729 1076.56 540.97
1151 0 67.1924 11.7424 789 55.2066 1077.33 540.466
1152 0 69.2737 11.8227 819 55.3443 1077.28 539.558
1153 0 73.1115 13.2674 970 53.9113 1078.09 539.466
1154 0 74.2093 11.9931 890 56.191 1077.53 537.115
1155 0 75.091 13.6101 1022 54.6712 1078.28 535.26
1156 0 77.1354 12.679 978 57.1145 1077.64 532.627
1157 0 79.1947 12.9049 1022 57.1712 1078.88 531.43
1158 0 84.2598 13.6601 1151 55.7663 1079.07 529.05
1159 0 87.4868 13.8421 1211 55.545 1079.67 528.237
1160 0 90.4251 14.1554 1280 55.1492 1079.71 527.06
1161 0 93.4331 12.9826 1213 56.4279 1079.35 526.802
1162 0 95.3309 13.4374 1281 56.2022 1079.72 524.933
1163 0 100.356 14.2194 1427 55.424 1080.06 521.568
1164 0 103.243 13.3278 1376 56.4651 1079.87 521.324
1165 0 104.143 13.9232 1450 55.8117 1079.96 519.937
1166 0 111.202 14.0195 1559 54.6318 1076.74 516.799
1167 0 115.129 13.4371 1547 55.68 1078.48 515.55
1168 0 117.334 13.9772 1640 55.2604 1078.89 515.913
1169 0 115.598 12.6127 1458 57.2805 1078.88 515.533
1170 0 122.452 13.0418 1597 56.6086 1078.96 514.25
1171 1 66.3035 12.8198 850 54.4447 1080.36 540.208
1172 0 65.1828 11.951 779 55.7407 1080.24 538.558
1173 0 69.1554 12.5659 869 54.9724 1080.32 538.163
1174 0 70.1615 12.1149 850 55.3882 1081.42 539.391
1175 0 73.161 12.3837 906 55.0552 1081.24 536.828
1176 0 75.2052 13.4033 1008 54.2073 1081.18 536.293
1177 0 77.1385 12.6915 979 55.5015 1081.07 534.434
1178 0 77.1183 12.5911 971 56.7116 1080.81 532.086
1179 0 78.1622 11.9367 933 57.4416 1081.05 533.419
1180 0 85.2051 13.6729 1165 54.9322 1080.38 530.651
1181 0 86.2079 12.957 1117 56.2202 1079.29 528.791
1182 0 89.1795 13.3215 1188 55.9983 1079.87 526.862
1183 0 91.1927 12.6984 1158 56.4214 1079.6 527.604
1184 0 97.2125 14.0414 1365 54.778 1079.76 523.292
1185 1 54.1494 11.5237 624 55.3974 1080.41 545.271
1186 0 54.0557 11.3032 611 56.2684 1080.17 544.339
1187 0 56.1593 12.518 703 53.6871 1078.58 543.733
1188 0 55.2239 11.1003 613 55.6085 1079.6 541.006
1189 0 58.2703 12.5793 733 53.8963 1079.65 539.265
1190 0 60.1292 11.5751 696 55.6351 1079.67 540.626
1191 0 64.3747 12.5671 809 55.2064 1079.35 537.932
1192 0 64.2158 12.676 814 55.1622 1079.36 538.068
1193 0 65.2599 12.6111 823 55.6525 1079.12 537.224
1194 0 67.1726 12.6242 848 55.7866 1079.17 535.932
1195 0 67.1324 13.168 884 56.0826 1079.87 536.994
1196 0 70.1643 13.7962 968 56.0021 1076.2 535.726
1197 0 73.081 13.615 995 55.6523 1077.5 535.48
1198 0 74.4149 13.4785 1003 56.6132 1077.77 533.907
1199 0 74.1904 13.681 1015 56.7724 1078.91 533.122
1200 0 75.2362 13.0389 981 57.213 1078.62 532.213
1201 0 80.352 13.1671 1058 56.2817 1078.49 529.495
1202 0 82.3946 14.3699 1184 55.364 1078.68 528.003
1203 0 84.3487 14.2504 1202 55.9884 1078.22 526.649
1204 0 86.4463 14.0434 1214 56.64 1077.91 524.942
1205 0 90.2803 12.9375 1168 58.5959 1077.78 526.578
1206 1 48.2746 10.3781 501 58.6427 1078.73 547.321
1207 0 50.3102 11.2701 567 58.5908 1078.42 545.33
1208 0 49.2321 11.131 548 58.7847 1078.25 546.308
1209 0 51.2181 11.246 576 59.3594 1077.62 545.873
1210 0 54.083 11.8706 642 57.8193 1075.99 545.361
1211 0 56.1522 13.4278 754 56.7719 1077.21 542.981
1212 0 58.1001 13.5284 786 57.1438 1075.89 542.81
1213 0 61.1081 13.4843 824 56.1323 1075.88 542.812
1214 0 63.1604 12.9353 817 56.9804 1076.45 542.302
1215 0 65.1784 13.5014 880 55.3943 1076.77 542.018
1216 0 66.2051 13.0352 863 55.7057 1076.27 543.075
1217 0 67.1646 12.4917 839 56.4803 1076.58 541.355
1218 0 71.0691 13.3391 948 55.2394 1075.97 540.097
1219 0 73.1272 12.9227 945 55.5048 1075.37 536.875
1220 0 77.177 12.3094 950 55.9874 1075.15 535.377
1221 0 78.3021 12.273 961 55.7565 1074.87 533.696
1222 0 82.2758 12.9807 1068 54.676 1074.81 532.887
1223 1 45.1527 10.4313 471 54.586 1072.39 551.028
1224 0 46.1281 9.6904 447 54.6622 1073.19 552.613
1225 0 48.0698 10.3391 497 54.336 1071.76 552.298
1226 0 47.0834 10.8531 511 55.5988 1072.66 549.902
1227 0 51.151 11.4367 585 54.4632 1073.73 548.441
1228 0 52.2571 12.3811 647 51.9397 1075.89 547.793
1229 0 54.1347 12.4135 672 52.0179 1075.53 548.094
1230 0 55.2635 13.5171 747 50.8554 1075.82 548.644
1231 0 55.1064 12.5212 690 52.6159 1075.46 548.481
1232 0 56.1461 12.4853 701 52.883 1075.35 546.086
1233 0 59.1046 12.0803 714 53.1008 1075.3 545.868
1234 0 60.16 13.248 797 51.744 1072.84 545.808
1235 0 61.1417 11.6942 715 53.8951 1073.25 545.01
1236 0 61.2684 12.2249 749 54.0427 1074.13 543.339
1237 0 66.2207 13.4701 892 52.3845 1074.27 542.349
1238 0 69.2598 13.9475 966 51.4627 1074.47 542.584
1239 0 69.2328 13.8663 960 52.5198 1074.06 540.633
1240 0 70.4041 12.9112 909 52.9318 1074.16 541.827
1241 0 71.2714 11.7859 840 54.2298 1074.04 539.384
1242 0 76.4073 12.669 968 53.1126 1074.16 536.261
1243 0 78.3024 13.7671 1078 52.2217 1075.26 537.759
1244 0 79.3014 12.5218 993 54.1843 1075.09 534.794
1245 0 84.5595 13.9074 1176 52.625 1074.72 536.005
1246 0 84.577 13.1478 1112 54.018 1073.94 532.83
1247 0 88.9124 14.025 1247 54.0265 1074.51 527.342
1248 0 89.7449 12.3461 1108 57.4738 1074.17 526.277
1249 1 48.6234 11.188 544 56.943 1073.67 549.467
1250 0 49.4624 11.7665 582 55.4914 1073.09 547.796
1251 0 50.6661 10.8554 550 57.1291 1072.76 546.529
1252 0 55.5837 12.8455 714 54.0308 1073.56 547.316
1253 0 55.3007 12.206 675 55.163 1072.11 547.089
1254 0 58.2514 12.7722 744 54.3427 1073.93 546.259
1255 0 59.2181 12.1078 717 55.523 1074.4 545.706
1256 0 60.1232 12.5409 754 56.0517 1074.82 544.329
1257 0 62.1429 13.5333 841 55.2069 1075.47 543.824
1258 0 64.1284 11.82 758 57.1161 1076.21 543.476
1259 0 67.1404 13.0622 877 56.0924 1074.86 541.635
1260 0 67.155 13.3869 899 56.1212 1075.5 539.845
1261 0 69.2774 12.1685 843 57.5658 1075.47 540.446
1262 0 72.3008 13.7481 994 56.5332 1074.64 536.998
1263 0 73.295 12.8931 945 57.8921 1075.03 537.664
1264 0 73.4509 11.8446 870 59.9874 1075.83 536.349
1265 0 76.3622 12.48 953 58.9119 1075.72 535.76
1266 0 79.6446 12.5307 998 59.5541 1075.54 531.493
1267 0 82.3687 13.646 1124 58.2091 1075.69 532.3
1268 0 85.3978 13.0565 1115 59.1937 1075.74 530.827
1269 0 88.6258 13.337 1182 59.0448 1076.05 527.574
1270 1 46.3144 11.9401 553 58.5479 1075.73 548.304
1271 0 47.563 10.7647 512 59.3281 1076.2 548.947
1272 0 47.3334 11.4718 543 58.5488 1076.84 548.033
1273 0 48.3183 11.238 543 62.2412 1077.61 545.634
1274 0 49.4886 11.9017 589 59.6927 1077.4 547.482
1275 0 48.3653 12.5297 606 59.7195 1077.62 545.668
1276 0 49.5249 12.0545 597 59.5796 1077.59 545.342
1277 0 52.2332 11.9081 622 58.6447 1079.14 541.953
1278 0 53.3892 12.8116 684 55.8348 1078.53 541.491
1279 0 54.3684 13.1142 713 55.9369 1079.61 544.456
1280 0 57.1866 12.9401 740 57.3405 1078.96 544.849
1281 0 59.0667 12.4097 733 57.9877 1078.83 543.025
1282 0 61.0226 13.2574 809 57.2954 1080.59 543.578
1283 0 62.0796 13.0478 810 57.5025 1080.5 542.214
1284 0 64.0996 13.9626 895 56.0223 1081.07 540.403
1285 0 66.0888 12.695 839 57.5697 1081.07 540.117
1286 0 70.1863 13.279 932 57.0215 1078.48 537.427
1287 0 71.253 12.9117 920 57.1804 1079.05 536.295
1288 0 74.2769 14.0151 1041 56.0096 1079.45 536.615
1289 0 76.2862 13.528 1032 57.2151 1080.01 533.114
1290 0 77.27 13.4722 1041 57.1239 1079.9 534.111
1291 0 81.2527 12.6519 1028 57.609 1079.93 532.421
1292 0 84.4885 13.2799 1122 57.0873 1079.76 528.554
1293 1 45.1806 12.9259 584 55.8236 1080.05 549.178
1294 0 47.2199 11.6476 550 56.3236 1079.72 549.025
1295 0 48.2253 12.255 591 54.4805 1078.81 546.447
1296 0 50.0407 12.1501 608 55.2007 1079.94 546.258
1297 0 49.2541 12.6284 622 55.2154 1080.74 546.047
1298 0 53.2382 13.0921 697 55.4849 1080.82 545.598
1299 0 54.1819 13.4547 729 54.6763 1081.02 545.897
1300 0 56.1432 14.1958 797 54.1518 1080.97 544.087
1301 0 58.0688 13.4668 782 54.8862 1080.65 543.747
1302 0 60.138 13.5023 812 54.3165 1080.5 545.945
1303 0 60.1654 13.1138 789 55.3701 1080.63 544.541
1304 0 63.1443 13.3345 842 54.7363 1081 542.682
1305 0 64.1268 13.7852 884 54.9864 1080.48 540.676
1306 0 64.1755 13.5722 871 55.8071 1079.97 539.674
1307 0 68.2065 13.1659 898 55.8519 1080.44 539.947
1308 0 70.1118 13.3929 939 55.7444 1079.73 538.49
1309 0 71.1348 13.0035 925 56.2357 1079.94 538.524
1310 0 74.1675 13.6043 1009 55.7572 1079.81 536.621
1311 0 77.2263 14.1791 1095 55.7571 1079.35 534.095
1312 0 80.1635 13.1481 1054 57.0408 1079.24 532.822
1313 0 82.2588 14.1626 1165 56.0764 1079.04 534.397
1314 0 86.1698 14.0536 1211 56.0248 1078.72 531.715
1315 1 49.0184 10.9959 539 57.1948 1079.12 549.772
1316 0 47.0329 11.9703 563 57.7567 1078.66 551.123
1317 0 50.0882 14.1351 708 55.0819 1078.35 549.702
1318 0 49.1109 12.4412 611 57.5156 1078.18 549.429
1319 0 51.0756 13.2157 675 56.4237 1078.71 547.762
1320 0 53.0401 12.877 683 57.7072 1077.69 546.572
1321 0 53.0354 12.5765 667 58.2564 1077.43 546.504
1322 0 54.1453 12.7989 693 57.8947 1077.42 546.092
1323 0 56.1098 12.7785 717 57.8466 1076.91 545.074
1324 0 58.1347 13.2451 770 56.1338 1077.05 545.331
1325 0 60.073 12.901 775 56.4697 1076.9 545.106
1326 0 61.1795 13.2888 813 56.2066 1076.79 544.448
1327 0 66.2224 13.7567 911 55.2009 1076.41 545.766
1328 0 65.0628 13.6176 886 56.5158 1076.75 541.634
1329 0 68.1567 13.7771 939 56.6315 1076.6 541.784
1330 0 71.2119 13.0737 931 57.5897 1077.02 539.288
1331 0 72.0808 14.2895 1030 56.3214 1076.63 539.369
1332 0 75.3355 13.5527 1021 56.9089 1076.58 535.546
1333 0 75.0913 12.8244 963 59.1547 1076.24 537.584
1334 0 80.2411 14.4938 1163 58.1187 1076.73 536.197
1335 1 40.0326 10.4665 419 61.2363 1077.02 554.363
1336 0 41.1445 10.9128 449 60.6147 1076.92 552.947
1337 0 45.2088 10.9492 495 59.4222 1076.27 551.745
1338 0 45.1097 11.5053 519 59.1175 1076.27 550.871
1339 0 47.0633 12.6425 595 57.121 1076.42 551.111
1340 0 49.0704 12.7368 625 56.4768 1076.26 549.539
1341 0 50.2557 13.4512 676 56.9985 1076.08 550.697
1342 0 53.152 13.5649 721 55.9265 1077.05 549.418
1343 0 53.1036 12.1272 644 57.1972 1076.82 547.904
1344 0 54.0745 13.4629 728 54.875 1076.45 548.915
1345 0 55.1146 13.0093 717 56.0432 1076.69 546.81
1346 0 58.1421 12.4007 721 56.2718 1076.68 548.415
1347 0 59.1506 12.6626 749 56.279 1076.87 545.869
1348 0 61.2068 12.4169 760 56.8013 1076.67 544.668
1349 0 62.0973 13.5916 844 55.6126 1076.8 544.603
1350 0 64.0906 12.4979 801 56.9376 1075.92 543.76
1351 0 67.2035 12.291 826 57.4564 1075.64 541.546
1352 0 69.0901 13.4173 927 56.9773 1075.76 540.962
1353 0 72.0857 13.4562 970 56.5464 1075.81 539.948
1354 0 74.0926 12.5384 929 57.0011 1075.2 538.784
1355 0 76.0997 12.9041 982 57.0998 1074.9 537
1356 1 43.0342 10.968 472 57.7352 1075.78 554.892
1357 0 44.0713 10.9141 481 57.4179 1075.67 556.079
1358 0 46.039 12.0333 554 56.9278 1075.97 554.451
1359 0 47.1088 12.5879 593 56.3845 1075.71 552.31
1360 0 50.0683 11.5043 576 55.7326 1075.37 551.641
1361 0 50.0476 13.3473 668 56.6512 1075.37 549.722
1362 0 51.0286 13.0711 667 57.3673 1075.85 550.762
1363 0 53.0734 11.2297 596 58.552 1075.04 551.052
1364 0 52.1617 12.2504 639 58.9687 1075.29 550.014
1365 0 55.1278 12.8973 711 57.8368 1075.11 549.654
1366 0 56.3197 11.8076 665 60.0932 1074.59 548.959
1367 0 57.1629 12.7705 730 58.737 1074.62 548.925
1368 0 59.0834 13.3032 786 58.3486 1074.13 546.959
1369 0 59.075 12.7127 751 59.755 1073.98 547.003
1370 0 64.1291 13.1454 843 58.6928 1074.17 545.751
1371 0 63.0657 13.7793 869 58.6041 1074.07 545.235
1372 0 67.1475 13.0161 874 59.6053 1073.7 544.586
1373 0 67.1811 12.8756 865 60.4682 1074.15 542.846
1374 0 69.2194 12.092 837 61.1063 1074.46 542.891
1375 0 72.0499 14.0181 1010 58.8139 1074.58 540.436
1376 0 73.0958 13.9817 1022 59.9824 1074.17 538.091
1377 0 74.078 12.3383 914 62.1171 1074.33 538.881
1378 0 76.0505 12.518 952 62.0956 1074.63 538.512
1379 0 81.1093 14.0058 1136 60.3037 1073.98 537.746
1380 0 83.2108 14.0006 1165 60.0687 1074.08 536.628
1381 0 86.1732 13.2408 1141 61 1074.22 534.179
1382 0 86.1732 13.2408 1141 165.617 1075.22 534.179
1383 1 47.0644 10.645 501 57.8942 1074.52 554.04
1384 0 50.1855 10.3018 517 61.0522 1073.95 554.571
1385 0 50.1824 11.8169 593 60.253 1074.37 550.703
1386 0 51.212 11.8136 605 60.4959 1074.06 550.474
1387 0 52.3449 12.1502 636 60.5472 1073.82 547.524
1388 0 53.3517 11.8834 634 60.5174 1074.25 546.046
1389 0 56.1589 13.355 750 59.052 1075.58 545.569
1390 0 57.1785 13.1518 752 59.367 1076.09 546.35
1391 0 60.1761 12.8955 776 59.183 1076.09 545.015
1392 0 61.0967 13.3068 813 59.0787 1076.34 543.197
1393 0 63.1085 13.5639 856 58.8002 1076.35 542.714
1394 0 66.0496 13.2325 874 59.0973 1076.52 542.06
1395 0 68.1742 13.5095 921 59.0304 1076.64 540.941
1396 0 68.1505 13.4995 920 59.3163 1076.64 539.61
1397 0 72.131 13.1705 950 59.1263 1076.76 538.812
1398 0 74.1222 14.1253 1047 58.2923 1077 538.838
1399 0 77.1131 13.2922 1025 58.9259 1076.85 538.046
1400 0 80.1166 14.2792 1144 57.6145 1076.84 534.891
1401 0 81.2673 14.3846 1169 57.5748 1076.84 535.043
1402 0 84.2694 13.528 1140 58.7596 1077.15 532.623
1403 0 88.3734 14.5745 1288 57.1894 1077.39 531.581
1404 0 88.2693 14.4558 1276 57.4561 1077.45 529.922
1405 0 93.4557 14.7343 1377 56.7705 1077.62 527.566
1406 0 95.3441 14.1487 1349 57.4596 1078.16 528.181
1407 0 97.3072 14.6957 1430 56.8594 1078.24 524.306
1408 0 102.178 15.2088 1554 56.0109 1078.71 523.402
1409 0 103.272 15.6092 1612 55.8052 1078.9 520.432
1410 0 106.347 15.0828 1604 56.7556 1078.77 519.164
1411 0 110.304 14.8861 1642 56.3276 1079.17 518.849
1412 0 115.27 15.5635 1794 55.257 1079.43 515.278
1413 0 115.372 15.0903 1741 55.5916 1079.28 513.997
1414 0 119.279 14.9482 1783 55.4083 1079.07 513.275
1415 0 123.247 14.4588 1782 55.8328 1079.89 510.652
1416 0 127.321 14.6323 1863 55.2029 1079.8 508.02
1417 1 70.2036 11.5806 813 55.1132 1080.03 539.24
1418 0 73.224 12.9056 945 54.4381 1079.43 537.376
1419 0 77.0725 12.8191 988 53.5283 1080.27 534.079
1420 0 78.0988 13.3677 1044 52.728 1080.31 532.858
1421 0 84.2502 13.9347 1174 52.4693 1080.92 531.424
1422 0 86.1735 13.2059 1138 53.5571 1080.62 529.523
1423 0 88.1572 13.4646 1187 52.9688 1080.22 527.183
1424 0 92.2126 12.8507 1185 53.276 1080.02 527.856
1425 0 97.2426 14.0062 1362 51.9706 1079.43 524.986
1426 0 97.2698 13.6425 1327 52.9337 1079.36 521.946
1427 0 101.251 13.432 1360 52.6324 1079.48 522.99
1428 0 104.184 14.3112 1491 52.1402 1079.69 518.953
1429 0 109.375 14.4914 1585 51.0738 1079.84 516.895
1430 0 112.329 14.6445 1645 50.7763 1079.59 515.165
1431 0 114.393 14.3366 1640 51.4128 1079.68 513.977
1432 0 120.578 13.1451 1585 51.8536 1078.97 513.822
1433 0 124.227 13.7812 1712 51.3096 1079.31 511.932
1434 0 128.669 14.3158 1842 51.8854 1079.31 510.554
1435 0 133.485 14.0615 1877 52.2376 1079.11 509.303
1436 1 67.1259 12.0371 808 53.3948 1078.46 540.047
1437 0 71.1691 13.4328 956 52.1025 1079.53 538.074
1438 0 73.1587 12.2474 896 53.3337 1079.19 538.143
1439 0 73.1321 12.6073 922 53.4794 1078.32 535.672
1440 0 77.221 13.4419 1038 52.6628 1078.36 533.851
1441 0 80.1426 14.3619 1151 51.6116 1078.38 533.717
1442 0 83.1354 13.2314 1100 52.8355 1078.22 532.176
1443 0 87.1542 13.7343 1197 51.944 1078.12 530.696
1444 0 88.1794 13.8127 1218 52.4319 1078.24 530.007
1445 0 92.1468 14.0971 1299 52.0585 1077.93 527.476
1446 0 93.2723 13.155 1227 53.8329 1078.26 524.765
1447 0 97.2688 13.4267 1306 53.7205 1077.84 524.061
1448 0 100.298 15.135 1518 52.0902 1078.09 523.608
1449 0 104.281 15.1226 1577 52.0945 1077.78 521.697
1450 0 107.274 13.0321 1398 54.1323 1077.85 520.454
1451 0 111.313 15.2004 1692 52.1862 1077.69 517.166
1452 1 58.2191 11.3708 662 53.6616 1077.16 545.586
1453 0 59.1188 11.6883 691 53.3632 1077.2 544.657
1454 0 60.2273 11.9215 718 53.702 1076.07 540.811
1455 0 63.1622 12.65 799 53.2053 1076.04 539.934
1456 0 67.1515 14.028 942 51.8408 1075.92 540.528
1457 0 70.1151 14.1624 993 52.5176 1076.55 538.599
1458 0 72.1191 13.2697 957 53.465 1076.19 537.961
1459 0 75.2743 14.1615 1066 52.7233 1076.07 538.499
1460 0 77.1735 14.5776 1125 52.5404 1076.47 535.418
1461 0 80.1408 13.8756 1112 53.3741 1076.99 535.591
1462 0 80.1408 13.9005 1114 154.892 1077.02 535.647
1463 0 84.196 14.6325 1232 52.7995 1076.31 533.079
1464 0 86.2952 14.6358 1263 52.8108 1075.57 532.297
1465 0 87.4424 13.9177 1217 53.9195 1075.43 530.213
1466 0 90.3838 14.1729 1281 53.9188 1074.96 529.583
1467 0 92.3368 13.8298 1277 54.4393 1074.84 528.679
1468 0 97.4638 13.9231 1357 53.6242 1074.76 527.429
1469 0 98.5684 13.7367 1354 54.6145 1074.99 524.826
1470 0 101.522 14.5387 1476 53.9919 1074.49 523.546
1471 0 104.519 13.9878 1462 54.3912 1074.3 522.092
1472 0 109.504 14.036 1537 53.8204 1074.15 521.02
1473 0 111.446 14.6529 1633 53.4819 1074.2 517.536
1474 0 115.447 15.0978 1743 53.0195 1074.82 517.696
1475 0 116.522 14.4693 1686 54.2622 1074.39 514.424
1476 0 122.458 14.5683 1784 53.6267 1074.52 515.379
1477 0 127.423 14.0085 1785 54.0969 1074.5 512.365
1478 0 128.369 13.5313 1737 54.3195 1074.24 513.164
1479 1 73.439 11.6015 852 53.9542 1073.5 538.761
1480 0 74.2545 12.74 946 53.3573 1073.94 537.17
1481 0 77.1871 13.2146 1020 52.9931 1073.78 535.276
1482 0 78.4617 12.401 973 54.0576 1074.25 533.804
1483 0 83.4679 13.3345 1113 53.0198 1073.91 533.863
1484 0 84.259 12.8532 1083 53.9344 1073.62 533.579
1485 0 88.3407 12.8253 1133 53.0812 1073.21 532.026
1486 0 90.4595 12.8124 1159 53.4167 1073.63 529.55
1487 0 93.4399 12.3823 1157 54.1193 1074 527.87
1488 0 95.4562 12.9693 1238 53.2795 1073.12 527.779
1489 0 98.4084 13.4541 1324 53.108 1073.59 524.335
1490 0 103.31 13.6676 1412 52.1339 1074.08 523.535
1491 0 105.621 12.4975 1320 53.0333 1074.21 521.939
1492 0 109.503 14.8123 1622 51.262 1074.01 517.392
1493 0 112.467 12.786 1438 52.8901 1074.83 517.892
1494 1 57.2612 11.823 677 50.7223 1074.36 546.575
1495 0 59.3908 12.3757 735 50.3211 1074.46 545.882
1496 0 60.3046 11.5414 696 51.1092 1075.7 544.84
1497 0 62.5445 12.4231 777 50.3938 1075.57 542.244
1498 0 64.4327 12.7575 822 49.8917 1075.41 541.274
1499 0 69.6542 13.0645 910 49.6253 1075.55 540.325
1500 0 71.5506 13.0397 933 50.6967 1075.91 539.401
1501 0 70.6851 11.2188 793 52.3972 1075.99 538.918
1502 0 74.5447 11.8587 884 51.9253 1076.22 536.65
1503 0 76.3851 12.8952 985 50.8711 1076.65 535.157
1504 0 79.3209 13.8047 1095 50.4055 1076.72 533.139
1505 0 79.4224 11.9865 952 52.5452 1077.04 532.471
1506 0 82.5207 12.5423 1035 52.2213 1076.82 528.736
1507 0 88.6877 13.1022 1162 51.1446 1077.06 530.576
1508 0 91.5168 13.8335 1266 50.7607 1076.83 528.658
1509 1 50.3545 11.3595 572 50.7587 1076.82 548.808
1510 0 49.6632 9.04091 449 52.2561 1077.27 550.693
1511 0 52.3601 10.4851 549 51.3097 1077.06 548.47
1512 0 52.4111 10.8183 567 51.6226 1077.8 547.201
1513 0 51.3722 9.81076 504 53.0397 1077.81 546.812
1514 0 54.3377 11.5574 628 50.1226 1077.91 546.675
1515 0 55.5651 12.5258 696 50.1322 1078.09 544.703
1516 0 58.2449 13.2544 772 49.7642 1078.36 545.553
1517 0 59.4115 12.1357 721 51.9945 1078.54 544.268
1518 0 63.4393 12.3898 786 50.6221 1078.46 542.333
1519 0 63.348 13.4653 853 50.3845 1078.5 542.77
1520 0 64.2857 13.02 837 50.8734 1078.32 539.35
1521 0 65.6662 13.7361 902 50.7251 1078.82 538.192
1522 0 69.4208 13.6847 950 50.6326 1079.08 538.312
1523 0 71.6498 14.208 1018 50.2132 1079.12 536.983
1524 0 71.7001 12.6639 908 52.174 1079.62 537.7
1525 0 75.5455 14.1769 1071 50.7134 1079.58 534.297
1526 0 76.6497 13.8552 1062 51.1441 1079.9 533.52
1527 0 78.6032 14.2233 1118 51.3005 1079.12 531.018
1528 0 81.6284 13.3042 1086 52.0838 1080.12 533.215
1529 0 84.8235 13.534 1148 51.8049 1080.07 531.508
1530 0 87.6263 14.7672 1294 51.1252 1080.34 529.964
1531 0 90.7233 13.1168 1190 53.2134 1080.33 528.369
1532 0 90.6668 12.9816 1177 54.9601 1080.27 525.881
1533 0 95.6033 13.2945 1271 55.0323 1080.32 523.589
1534 0 98.4836 13.7891 1358 54.5471 1080.34 524.522
1535 0 101.55 14.8399 1507 53.7704 1079.96 521.593
1536 0 103.586 12.9169 1338 55.8572 1079.86 521.021
1537 0 108.457 13.9686 1515 54.7003 1079.98 521.191
1538 1 58.3699 11.4271 667 56.6956 1079.07 543.505
1539 0 60.3176 13.1305 792 55.3308 1079.43 542.734
1540 0 62.1962 12.139 755 56.5589 1079.24 541.021
1541 0 66.1598 12.5605 831 55.5367 1079.39 538.06
1542 0 66.0542 12.9288 854 55.1862 1079.7 540.151
1543 0 68.0757 13.1324 894 55.1879 1080.14 538.097
1544 0 70.1 13.1526 922 55.4414 1079.91 537.038
1545 0 75.1218 13.8841 1043 54.8562 1080.09 535.22
1546 0 75.2796 14.0011 1054 55.407 1079.95 536.14
1547 0 78.0997 13.5468 1058 56.3677 1079.59 532.688
1548 0 80.1038 13.7572 1102 56.4156 1079.65 532.166
1549 0 85.1044 14.3588 1222 55.3404 1079.42 532.158
1550 0 86.1569 14.2066 1224 56.1985 1079.12 530.026
1551 0 89.0821 14.0096 1248 56.3093 1079.38 529.851
1552 0 92.0787 14.8677 1369 55.6172 1078.94 527.842
1553 0 96.0928 14.1946 1364 56.2683 1078.8 527.941
1554 0 97.0772 14.3494 1393 56.3977 1079.31 524.832
1555 0 103.383 14.6252 1512 56.2103 1079.12 523.498
1556 0 108.234 15.023 1626 55.5172 1079.1 521.419
1557 1 58.1664 11.9829 697 57.2912 1078.58 543.88
1558 0 62.127 12.2491 761 56.954 1078.06 543.928
1559 0 62.1448 12.9697 806 57.2146 1077.84 538.898
1560 0 65.015 13.4892 877 57.1688 1078.29 539.496
1561 0 67.071 14.179 951 57.1493 1078.2 538.525
1562 0 67.3234 13.7545 926 58.4449 1078.02 519.653
1563 0 71.5489 13.6969 980 58.0592 1077.24 521.324
1564 0 73.2636 13.7722 1009 57.9911 1077.05 520.741
1565 0 75.4852 12.7045 959 60.1575 1076.68 519.686
1566 0 78.3331 13.6341 1068 59.1545 1076.72 520.33
1567 0 81.286 14.5412 1182 58.1438 1076.62 522.228
1568 0 83.204 14.6748 1221 58.7699 1077.16 523.073
1569 0 87.1533 15.0884 1315 58.3962 1076.97 523.524
1570 0 87.2732 13.9676 1219 60.5094 1076.74 525.51
1571 0 91.2699 13.5203 1234 60.5713 1076.79 526.375
1572 0 93.2622 14.679 1369 58.9028 1077.14 524.191
1573 0 97.2682 14.0436 1366 59.8529 1077.05 518.526
1574 0 101.3 14.6792 1487 59.1708 1076.87 520.379
1575 0 103.273 14.1857 1465 60.398 1076.68 518.444
1576 1 52.2969 10.9376 572 61.6696 1077.38 545.872
1577 0 56.2761 11.9233 671 60.0566 1077.13 539.306
1578 0 55.3162 12.076 668 61.491 1076.94 538.344
1579 0 59.2017 11.4017 675 62.1659 1075.81 540.044
1580 0 60.3676 13.3515 806 59.4826 1075.67 540.257
1581 0 66.1518 13.9225 921 59.3985 1075.14 533.495
1582 0 67.2776 14.3435 965 59.3793 1075.05 531.805
1583 0 68.4318 13.8532 948 59.9019 1075.28 535.26
1584 0 69.2598 13.2544 918 60.183 1074.2 539.208
1585 0 71.3004 13.5203 964 59.9284 1075 539.461
1586 0 74.2493 14.8419 1102 58.7967 1074.98 535.746
1587 0 76.3594 13.5019 1031 59.7575 1074.95 537.808
1588 0 80.2415 13.6962 1099 59.7034 1074.49 534.864
1589 0 82.4308 13.5872 1120 59.5652 1074.34 535.277
1590 0 83.3771 13.8887 1158 59.7401 1074.33 531.656
1591 0 88.2566 14.2199 1255 58.8327 1074.43 532.088
1592 0 90.3452 13.6698 1235 59.2389 1074.37 532.117
1593 0 93.4512 13.7291 1283 59.4131 1074.48 529.228
1594 0 95.4891 14.8289 1416 57.8072 1074.44 527.766
1595 0 98.2481 13.4252 1319 59.4397 1074.78 526.221
1596 0 101.585 12.9448 1315 59.581 1074.82 524.532
1597 1 54.2585 11.5742 628 60.0573 1074.81 546.107
1598 0 58.1846 11.3432 660 58.9985 1074.41 545.558
1599 0 57.2002 11.0839 634 60.3754 1074.9 544.207
1600 0 58.2809 12.2853 716 59.1355 1075.12 542.637
1601 0 62.2686 12.703 791 59.0316 1074.8 541.727
1602 0 64.2612 12.7293 818 58.6993 1075.09 540.78
1603 0 68.2957 13.5294 924 57.7392 1075.04 537.685
1604 0 72.1393 14.6661 1058 56.1352 1076.25 538.321
1605 0 73.1855 13.295 973 58.1901 1075.93 535.273
1606 0 76.2497 13.1279 1001 57.8891 1075.7 536.129
1607 0 77.3072 13.414 1037 58.1842 1076.52 533.069
1608 0 82.1764 14.2742 1173 56.3248 1076.7 533.538
1609 0 81.0952 13.1944 1070 58.486 1077.08 529.267
1610 0 83.1046 13.7538 1143 58.2353 1076.92 528.484
1611 0 88.123 13.4131 1182 57.2868 1077.19 529.345
1612 0 90.1973 13.3374 1203 57.685 1077.27 527.096
1613 0 94.2717 14.8189 1397 55.6886 1077.47 526.58
1614 0 94.1988 13.4503 1267 57.1918 1078.12 525.309
1615 0 98.2098 13.6748 1343 57.2211 1078.02 523.798
1616 0 102.314 14.2796 1461 56.5496 1078.32 521.281
1617 0 105.175 13.5868 1429 57.7418 1078.98 521.689
1618 0 108.17 13.5898 1470 58.3326 1078.78 517.853
1619 0 112.126 13.681 1534 58.058 1079.32 515.879
1620 1 60.0408 11.3256 680 59.6926 1079.61 538.881
1621 0 65.1636 12.4916 814 57.3993 1079.98 540.068
1622 0 67.1221 12.9168 867 57.5075 1079.96 537.574
1623 0 72.116 12.785 922 56.5434 1080.32 536.694
1624 0 72.0765 13.1666 949 56.3667 1080.62 533.569
1625 0 76.0481 15.0694 1146 53.3595 1080.7 532.072
1626 0 77.1394 13.3395 1029 55.4295 1080.84 529.557
1627 0 77.074 13.5714 1046 54.8375 1080.97 529.409
1628 0 81.1481 14.5043 1177 53.9048 1081.39 528.004
1629 0 84.2598 13.1617 1109 54.8287 1081.58 528.492
1630 0 85.2642 13.8276 1179 54.1128 1081.39 525.618
1631 0 89.2978 14.5804 1302 52.6075 1081.49 524.827
1632 0 92.184 14.0371 1294 53.2743 1081.48 523.628
1633 0 96.1564 15.61 1501 51.1812 1081.01 520.016
1634 0 97.387 13.4617 1311 53.0984 1081.29 521.018
1635 0 99.2614 13.6206 1352 52.8047 1081.35 518.011
1636 0 103.082 13.7949 1422 52.7412 1081.36 515.901
1637 0 107.154 14.6518 1570 51.7064 1081.31 515.96
1638 0 108.222 14.7105 1592 51.9447 1081.34 512.154
1639 0 114.236 14.8377 1695 51.3929 1081.64 511.552
1640 0 117.085 14.1777 1660 51.8386 1080.98 509.878
1641 0 117.285 14.3241 1680 52.2464 1081.35 511.637
1642 0 120.225 13.8906 1670 52.7623 1081.66 510.338
1643 0 125.175 15.1628 1898 51.3114 1081.59 508.174
1644 1 64.0781 11.7513 753 51.9734 1081.55 537.137
1645 0 67.2036 11.294 759 51.7444 1081.52 537.742
1646 0 69.2434 12.8243 888 51.0574 1081.36 534.979
1647 0 71.1782 12.9956 925 50.88 1080.29 533.985
1648 0 74.1204 13.3432 989 50.364 1081.15 533.383
1649 0 78.1217 13.4022 1047 50.7641 1080.02 532.221
1650 0 78.1227 13.4404 1050 51.3657 1079.92 529.659
1651 0 82.0762 12.6224 1036 51.9237 1079.97 529.526
1652 0 84.1553 13.7722 1159 51.0017 1080.28 527.141
1653 0 88.1688 14.0866 1242 50.4122 1079.61 524.223
1654 0 89.1643 13.5032 1204 51.1852 1080.05 521.405
1655 0 96.3422 13.504 1301 50.8801 1079.77 522.403
1656 0 96.1156 14.3785 1382 50.5007 1079.41 518.896
1657 0 101.158 13.8101 1397 50.6664 1079.31 519.545
1658 1 54.1165 11.5307 624 51.5369 1079.21 540.986
1659 0 56.0242 11.9413 669 51.7205 1079.53 539.578
1660 0 57.1013 12.1013 691 51.657 1079.33 539.245
1661 0 59.0632 13.3078 786 50.9707 1079.2 536.698
1662 0 60.201 12.9566 780 51.4154 1078.98 532.917
1663 0 61.0401 13.057 797 51.7666 1078.88 533.79
1664 0 68.1138 13.7123 934 49.9572 1079.07 534.253
1665 0 69.1166 13.7449 950 50.6537 1079.04 533.62
1666 0 69.2859 12.0082 832 52.732 1079.35 531.708
1667 0 72.3183 13.7033 991 50.6458 1078.95 531.999
1668 0 72.2296 11.9618 864 52.4444 1078.92 532.37
1669 0 76.1201 14.0699 1071 50.5406 1078.88 529.612
1670 0 79.4375 13.0417 1036 51.5328 1078.5 527.248
1671 0 80.2943 14.1355 1135 51.0018 1078.67 524.937
1672 0 85.2321 14.7832 1260 50.4143 1078.46 526.153
1673 0 87.3544 14.8018 1293 50.4432 1078.27 524.528
1674 0 89.2943 14.8386 1325 50.5842 1078.42 523.484
1675 0 93.3764 14.3612 1341 51.3371 1077.85 521.831
1676 0 94.4646 13.8465 1308 51.9335 1077.69 523.33
1677 0 96.5916 15.1462 1463 51.3465 1077.76 519.647
1678 0 105.323 14.8021 1559 50.9962 1077.35 517.999
1679 0 103.551 13.5295 1401 53.2113 1077.02 513.612
1680 1 60.4504 11.0669 669 52.2407 1077.19 540.602
1681 0 61.3652 11.0486 678 53.3584 1077.36 538.043
1682 0 62.3537 11.8357 738 52.958 1076.77 536.839
1683 0 63.4129 11.6065 736 53.9592 1076.82 534.897
1684 0 66.5242 12.1009 805 51.7503 1077.11 536.067
1685 0 66.322 12.5147 830 52.3361 1076.72 532.183
1686 0 73.2432 12.8886 944 51.2235 1076.68 532.453
1687 0 73.6621 12.7474 939 52.3802 1076.74 531.86
1688 0 78.2362 13.1653 1030 51.3544 1076.43 531.233
1689 0 79.4072 13.7771 1094 51.1664 1075.82 530.633
1690 0 83.3957 14.1974 1184 50.5498 1075.3 532.791
1691 0 83.2997 13.7215 1143 52.3491 1075.07 526.457
1692 0 87.2213 13.0243 1136 52.6382 1074.84 526.79
1693 0 87.3329 12.4581 1088 53.693 1075.22 523.696
1694 0 96.3119 13.8612 1335 51.382 1075.18 525.297
1695 0 98.2802 14.1127 1387 51.7058 1075.61 523.744
1696 0 101.231 13.1877 1335 52.9124 1075.62 522.345
1697 0 102.221 13.3534 1365 53.1018 1075.42 520.712
1698 1 55.1569 10.0622 555 52.2613 1074.86 546.575
1699 0 59.0962 11.5405 682 51.8284 1075.18 543.416
1700 0 60.1132 11.6114 698 51.8696 1075.36 544.35
1701 0 60.0527 12.4058 745 51.7638 1075.49 542.192
1702 0 65.0976 12.4736 812 50.4865 1075.49 542.055
1703 0 65.057 12.466 811 51.6289 1074.75 540.524
1704 0 68.1305 12.9017 879 50.7349 1074.9 541.321
1705 0 71.0797 12.4086 882 51.034 1075.3 539.634
1706 0 70.0804 12.1289 850 52.0376 1075.69 536.111
1707 0 70.0804 12.1717 853 157.155 1076.7 536.108
1708 0 78.1458 13.9995 1094 50.3784 1075.24 535.332
1709 0 79.3976 12.8216 1018 51.4489 1075.7 534.734
1710 0 83.1778 14.7996 1231 50.1105 1075.57 532.109
1711 0 84.2414 13.3663 1126 51.5178 1075.61 531.977
1712 0 87.1882 13.5684 1183 51.5892 1075.74 531.385
1713 0 88.3382 13.437 1187 51.5872 1075.56 530.082
1714 0 94.1327 13.7147 1291 51.2711 1075.59 528.96
1715 0 93.0639 13.8614 1290 51.6163 1075.64 529.207
1716 0 97.2807 14.4222 1403 51.3735 1076.32 527.625
1717 0 99.1531 14.3112 1419 51.5314 1076.59 524.132
1718 0 104.084 14.7862 1539 50.7342 1076.73 522.502
1719 0 105.37 14.8334 1563 51.1779 1076.78 520.326
1720 0 109.264 12.877 1407 52.7782 1077.49 520.637
1721 0 112.315 14.1032 1584 51.7172 1077.19 518.585
1722 0 115.358 14.5287 1676 51.6665 1077.31 514.989
1723 0 121.328 14.4073 1748 51.6322 1077.6 514.776
1724 1 69.3351 11.2786 782 51.4194 1077.73 540.941
1725 0 68.2275 11.9014 812 51.9397 1078.08 539.441
1726 0 68.2275 11.9746 817 153.837 1079.09 539.349
1727 0 75.2135 13.9603 1050 49.8924 1077.81 535.681
1728 0 77.3443 13.0326 1008 50.0794 1077.72 534.824
1729 0 79.3711 13.2668 1053 49.2118 1077.82 533.86
1730 0 83.2902 13.6631 1138 48.7417 1077.7 531.67
1731 0 83.3304 13.7405 1145 48.2926 1077.97 530.525
1732 0 87.364 13.1862 1152 48.4358 1078.24 529.09
1733 0 88.5235 13.6009 1204 48.6478 1078.33 527.58
1734 0 94.3523 14.4141 1360 48.8846 1078.93 526.317
1735 0 94.3523 14.4353 1362 158.223 1078.93 526.413
1736 0 96.3182 14.0887 1357 52.2601 1079.5 523.553
1737 0 99.2265 13.9177 1381 53.4656 1079.75 522.421
1738 0 101.229 14.1362 1431 53.5898 1079.98 519.059
1739 0 104.294 14.0277 1463 53.201 1080.12 519.08
1740 0 108.414 14.7121 1595 52.2627 1080.05 518.142
1741 0 110.228 13.8259 1524 52.8294 1080.16 516.293
1742 0 113.334 14.0029 1587 53.9798 1080.45 514.189
1743 0 116.381 13.9885 1628 53.4423 1081.02 511.927
1744 0 120.519 14.2882 1722 52.1963 1081.12 509.966
1745 0 124.301 15.0763 1874 51.1163 1081.43 504.943
1746 1 67.0553 9.9321 666 52.3288 1081.89 536.925
1747 0 70.1438 11.7758 826 51.1368 1081.35 535.602
1748 0 72.1878 10.8606 784 52.4031 1081.15 533.413
1749 0 73.083 12.821 937 51.2113 1081.99 530.728
1750 0 78.1954 12.9036 1009 51.1288 1082.39 534.044
1751 0 80.2058 12.5303 1005 52.0736 1082.38 532.483
1752 0 83.2966 12.5575 1046 51.6147 1082.56 530.842
1753 0 86.0782 13.2089 1137 51.1354 1082.52 529.994
1754 0 87.0606 12.8761 1121 51.4255 1082.12 526.278
1755 0 90.1049 13.1291 1183 51.2832 1082.43 524.516
1756 0 94.1833 13.2189 1245 51.155 1082.24 524.063
1757 0 97.2132 13.4653 1309 51.1658 1082.04 521.887
1758 0 99.2558 13.5005 1340 51.2836 1082.24 519.607
1759 0 102.236 12.745 1303 51.4965 1082.36 517.477
1760 0 107.301 12.9076 1385 50.904 1082.58 518.251
1761 0 110.25 13.3787 1475 50.7308 1082.92 515.141
1762 0 114.285 12.9239 1477 51.6473 1082.7 513.437
1763 0 117.389 13.2722 1558 51.3228 1083.01 511.279
1764 1 63.1847 10.9837 694 50.6686 1082.49 540.945
1765 0 65.1131 11.3495 739 51.0081 1082.6 538.478
1766 0 67.2547 12.2073 821 50.3776 1082.58 539.462
1767 0 69.2522 12.736 882 50.2211 1082.33 537.033
1768 0 71.3255 13.2211 943 49.4019 1083.01 536.716
1769 0 74.1754 13.1176 973 49.1202 1082.75 537.847
1770 0 77.0852 13.2062 1018 49.8428 1082.61 535.194
1771 0 79.1545 13.1641 1042 50.0614 1082.61 532.316
1772 0 80.2302 13.4987 1083 50.7572 1082.06 534.173
1773 0 82.1431 13.4156 1102 51.9038 1081.6 531.59
1774 0 84.3096 13.4504 1134 52.5829 1081.87 529.188
1775 0 87.0894 13.3771 1165 53.5931 1081.7 528.583
1776 0 89.3179 13.2112 1180 53.1203 1081.24 527.306
1777 0 93.2818 13.3252 1243 52.8986 1081.28 525.134
1778 0 98.1764 13.5267 1328 52.7477 1080.9 523.43
1779 1 55.1244 11.1022 612 53.4706 1081.33 545.712
1780 0 57.076 12.0891 690 52.4507 1080.16 544.183
1781 0 58.0564 11.4716 666 53.0135 1079.99 543.258
1782 0 59.0322 12.2137 721 52.1956 1079.35 542.166
1783 0 61.2121 13.249 811 51.3329 1080.16 540.179
1784 0 64.0754 13.2032 846 51.0437 1079.96 541.872
1785 0 66.1655 13.5871 899 50.6151 1079.88 540.608
1786 0 66.1106 13.8102 913 50.9299 1079.85 539.664
1787 0 71.2312 14.6705 1045 49.1196 1079.47 540.242
1788 0 70.1494 12.901 905 51.874 1079.09 539.356
1789 0 74.1418 13.6495 1012 51.3429 1079.04 536.322
1790 0 76.134 13.5551 1032 51.7422 1078.96 533.786
1791 0 79.2426 13.5028 1070 51.5869 1078.7 535.318
1792 0 79.3132 13.39 1062 52.242 1078.98 533.918
1793 0 82.4299 13.4296 1107 52.6052 1079.04 530.612
1794 0 87.0897 13.2737 1156 52.3997 1079.2 530.829
1795 0 91.291 15.2808 1395 50.2301 1079.18 528.122
1796 0 92.1717 14.5164 1338 51.7309 1079.01 524.63
1797 0 96.2278 14.6423 1409 51.6302 1078.41 525.566
1798 0 99.2108 13.2244 1312 53.1006 1078.47 524.23
1799 0 101.563 13.7255 1394 52.8207 1077.9 522.725
1800 1 57.1334 12.4446 711 53.8734 1077.71 542.042
1801 0 58.1229 12.1639 707 53.785 1077.85 542.942
1802 0 60.2866 12.8221 773 53.0673 1077.49 542.376
1803 0 62.2088 12.6349 786 54.3613 1077.2 539.246
1804 0 66.3428 13.2192 877 53.4208 1077.48 539.04
1805 0 67.0876 14.4736 971 52.9743 1077.25 535.718
1806 0 69.1898 13.8749 960 53.5542 1077.18 535.432
1807 0 72.2024 13.7668 994 53.6489 1077.36 533.746
1808 0 75.0465 13.5116 1014 53.5848 1077.52 533.178
1809 0 78.0616 14.2452 1112 53.08 1077.16 532.099
1810 0 80.1415 13.6384 1093 53.9048 1077.29 531.041
1811 0 83.1098 14.2221 1182 53.4594 1076.95 529.853
1812 0 83.0564 13.6052 1130 54.938 1077.02 526.274
1813 0 87.2679 13.6935 1195 54.6226 1076.96 525.863
1814 0 92.155 14.2152 1310 53.7114 1076.72 524.695
1815 0 94.2454 13.1571 1240 55.125 1076.66 523.394
1816 0 96.146 14.062 1352 54.7922 1076.7 520.131
1817 0 102.143 14.6755 1499 53.567 1076.65 522.119
1818 0 104.138 14.3656 1496 54.2774 1076.39 518.896
1819 0 105.282 13.611 1433 55.6616 1076.2 515.686
1820 0 111.306 15.0846 1679 53.6724 1076.69 511.94
1821 1 58.076 11.8293 687 54.9243 1076.07 537.953
1822 0 58.076 11.8465 688 163.259 1076.08 538.02
1823 0 62.1177 11.6714 725 53.8193 1076.13 538.748
1824 0 63.1594 12.0014 758 53.8839 1076.89 536.385
1825 0 65.1005 12.811 834 53.5132 1077.75 533.854
1826 0 67.2854 12.499 841 53.648 1077.78 534.606
1827 0 71.3522 14.1972 1013 52.2004 1077.24 533.696
1828 0 74.3838 12.8792 958 54.3841 1077.55 533.228
1829 0 78.5912 14.3146 1125 52.7813 1077.42 532.749
1830 0 80.5234 13.5985 1095 53.4721 1077.78 533.145
1831 0 83.4928 13.043 1089 54.4086 1077.53 530.587
1832 0 85.5253 13.5866 1162 54.574 1078.29 528.523
1833 0 89.4804 14.6289 1309 52.9862 1078.29 528.452
1834 0 91.7638 13.295 1220 54.8664 1078.41 526.15
1835 0 94.7292 13.9978 1326 54.9268 1078.65 523.941
1836 0 98.8591 14.1616 1400 53.6764 1078.46 520.454
1837 0 97.5794 13.9784 1364 54.2808 1078.41 517.642
1838 0 103.558 14.7261 1525 53.0603 1078.78 518.088
1839 0 103.408 14.7184 1522 54.0992 1079.23 514.396
1840 0 108.552 13.4774 1463 55.2932 1079.37 513.813
1841 0 111.431 14.278 1591 54.5192 1079.32 509.696
1842 0 114.352 14.9888 1714 53.7608 1079.93 509.735
1843 0 117.611 14.2674 1678 54.7342 1080.54 507.054
1844 0 124.379 14.2468 1772 54.1665 1081.38 506.734
1845 1 63.5087 11.4158 725 54.1159 1081.45 536.364
1846 0 65.2875 12.7896 835 52.6 1081.02 535.264
1847 0 67.3432 12.5328 844 53.3116 1080.97 532.244
1848 0 68.2619 12.6278 862 53.6891 1081.05 528.769
1849 0 73.5867 13.3312 981 51.9215 1081.05 530.394
1850 0 77.7904 13.2664 1032 52.1347 1080.58 526.849
1851 0 80.7216 13.1563 1062 51.6196 1080.78 526.286
1852 0 84.05 12.5759 1057 52.2999 1080.95 523.643
1853 0 84.8446 12.517 1062 51.3465 1081.44 521.515
1854 0 85.9548 12.3553 1062 51.7637 1081.36 520.715
1855 0 93.8308 14.0785 1321 49.299 1080.68 520.163
1856 0 94.9919 13.717 1303 50.0798 1080.69 519.179
1857 0 97.8012 13.3536 1306 50.4732 1080.85 516.505
1858 0 99.6448 12.3639 1232 51.1851 1081.3 516.76
1859 0 101.731 13.4768 1371 50.6492 1080.45 512.887
1860 1 56.5142 12.2978 695 48.6561 1080.26 537.888
1861 0 59.9106 11.2334 673 50.0149 1079.88 537.207
1862 0 60.776 11.6164 706 50.0467 1079.74 536.463
1863 0 60.9425 11.3222 690 50.7942 1079.54 536.5
1864 0 65.1316 12.7741 832 49.524 1079.72 533.978
1865 0 65.8226 13.7643 906 48.3201 1079.18 535.032
1866 0 68.47 12.3266 844 49.4609 1079.6 536.498
1867 0 69.7872 13.1686 919 48.8912 1079.19 535.298
1868 0 69.7163 12.8664 897 49.7603 1078.7 533.649
1869 0 72.7928 13.1332 956 49.4226 1079.2 531.266
1870 0 75.6076 13.6891 1035 49.001 1078.86 528.418
1871 0 78.9544 13.8308 1092 48.0888 1078.75 527.915
1872 0 81.0082 12.9987 1053 49.1225 1078.84 525.703
1873 0 83.6462 12.4931 1045 49.5014 1078.23 526.711
1874 0 85.8935 12.3292 1059 50.1294 1078.51 525.869
1875 0 88.2525 12.6569 1117 50.4172 1078.52 522.729
1876 0 90.997 13.8796 1263 49.5661 1078.19 521.544
1877 0 92.9023 13.4119 1246 50.1485 1078.11 521.577
1878 0 98.0642 13.95 1368 49.617 1078.16 520.092
1879 0 99.6069 12.8405 1279 50.588 1078.46 520.826
1880 0 103.906 13.1657 1368 51.0132 1079.11 516.151
1881 0 105.729 12.9955 1374 51.4192 1078.79 517.305
1882 1 56.6381 11.8648 672 50.2664 1077.71 542.115
1883 0 60.459 11.9585 723 49.5532 1078.1 542.415
1884 0 60.721 11.841 719 50.2559 1077.99 542.598
1885 0 64.6271 13.2297 855 49.7895 1078.7 541.076
1886 0 66.3561 13.0357 865 49.2254 1078.34 541.303
1887 0 69.4155 12.5476 871 49.341 1078.31 541.77
1888 0 68.4358 12.4789 854 50.2904 1077.97 539.526
1889 0 70.3526 12.5369 882 50.5329 1077.82 537.416
1890 0 74.4839 14.916 1111 48.3582 1077.86 535.256
1891 0 75.5159 13.0966 989 50.3145 1078.14 535.055
1892 0 79.5938 12.9156 1028 50.6284 1078.66 533.792
1893 0 79.8476 12.8745 1028 51.2237 1078.42 532.574
1894 0 83.6604 13.758 1151 50.523 1078.17 531.134
1895 0 85.6013 13.2241 1132 51.1051 1078.03 531.193
1896 0 88.7115 14.2372 1263 49.6778 1077.94 532.267
1897 0 92.7483 13.5205 1254 50.9386 1077.97 529.558
1898 0 92.7594 13.659 1267 51.4578 1078.1 525.986
1899 0 98.015 13.5693 1330 51.0218 1077.1 523.589
1900 0 98.8126 12.8729 1272 52.2296 1077.15 523.561
1901 0 103.692 14.5624 1510 50.1225 1076.92 520.991
1902 1 59.4912 11.0268 656 50.9344 1076.9 543.427
1903 0 61.4853 12.7022 781 49.3726 1076.59 540.791
1904 0 60.5752 12.1172 734 50.7493 1076.65 538.136
1905 0 64.4285 13.1929 850 49.5353 1076.95 540.64
1906 0 66.2353 13.1954 874 50.0927 1076.33 541.267
1907 0 68.3407 12.5694 859 50.6659 1076.39 540.775
1908 0 71.2827 13.9445 994 49.501 1076.62 540.368
1909 0 74.1762 14.0072 1039 49.3388 1076.37 537.888
1910 0 76.2808 13.5421 1033 49.728 1076.23 539.387
1911 0 76.275 12.8351 979 50.8376 1075.99 537.916
1912 0 80.3868 13.0494 1049 50.6263 1075.79 535.897
1913 0 80.3868 13.0992 1053 159.21 1075.79 536.022
1914 0 87.5236 13.9962 1225 49.2816 1075.37 532.532
1915 0 87.4872 13.442 1176 50.534 1075.16 530.95
1916 0 88.54 12.9885 1150 51.4 1075.31 530.778
1917 0 92.5822 14.2252 1317 50.0668 1074.54 528.342
1918 0 96.5574 14.0849 1360 51.0118 1074.79 526.496
1919 0 101.756 14.4759 1473 50.6354 1075.26 523.063
1920 1 56.4694 11.0325 623 51.6003 1075.61 545.632
1921 0 57.3985 11.3592 652 51.5307 1074.54 546.419
1922 0 59.3281 11.8494 703 51.7937 1075.06 545.718
1923 0 62.1733 13.4463 836 50.6435 1075.46 544.304
1924 0 62.1652 12.0003 746 52.6461 1075.71 544.365
1925 0 67.0838 12.3577 829 51.971 1075.9 542.944
1926 0 67.1352 12.6163 847 51.7863 1075.83 544.235
1927 0 70.1271 12.7483 894 51.7293 1075.58 540.808
1928 0 70.1728 13.7803 967 51.1158 1075.38 539.838
1929 0 74.122 13.7611 1020 50.7971 1075.22 537.838
1930 0 74.1789 12.4024 920 52.5413 1075.27 535.414
1931 0 80.155 13.2493 1062 51.3041 1075.36 536.437
1932 0 82.1214 14.0767 1156 50.3728 1075.05 536.688
1933 0 83.2341 14.0808 1172 51.1903 1075.18 532.973
1934 0 85.1785 12.8671 1096 52.0557 1075.02 531.932
1935 1 46.095 10.8905 502 51.249 1074.9 550.693
1936 0 47.2631 12.039 569 50.8506 1074.81 549.436
1937 0 47.2773 11.8873 562 50.6246 1074.54 548.187
1938 0 50.2517 12.4772 627 50.0797 1074.58 549.485
1939 0 53.2595 12.0354 641 51.0484 1074.76 548.253
1940 0 54.1141 12.2149 661 51.2693 1075.63 548.378
1941 0 56.1708 13.2631 745 50.2081 1075.66 548.958
1942 0 57.1708 12.5064 715 51.3203 1075.57 545.424
1943 0 59.0462 13.4979 797 50.8908 1075.72 544.842
1944 0 61.1148 13.5974 831 49.9483 1075.68 542.909
1945 0 63.084 14.0606 887 49.4667 1075.88 541.88
1946 0 63.0751 14.0785 888 49.4493 1076.08 540.679
1947 0 67.0592 12.9885 871 49.7807 1076.02 541.501
1948 0 68.0865 13.2332 901 50.222 1075.97 538.877
1949 0 72.0932 14.4535 1042 48.6152 1076.01 537.966
1950 0 71.0558 12.0891 859 51.5576 1076.36 535.553
1951 0 76.0985 12.5889 958 50.524 1076.19 535.822
1952 0 77.1003 13.7613 1061 49.4562 1076.45 536.692
1953 0 79.1149 13.6384 1079 50.3012 1076.58 533.086
1954 0 82.1158 13.7245 1127 50.1304 1076.85 531.15
1955 0 83.1245 14.4241 1199 49.9174 1077.24 531.414
1956 0 87.1703 13.8465 1207 50.3041 1077.56 529.346
1957 0 91.124 14.4638 1318 49.692 1077.48 528.154
1958 0 94.1049 14.2075 1337 49.8646 1077.69 527.217
1959 0 98.2161 13.8776 1363 49.6236 1077.43 524.567
1960 1 55.1797 10.6017 585 50.4615 1077.72 546.019
1961 0 57.0812 11.4048 651 49.6636 1077.79 545.476
1962 0 59.3524 12.2994 730 49.2658 1077.72 544.918
1963 0 60.2817 13.0056 784 49.0408 1078.27 542.878
1964 0 62.4687 12.2782 767 49.5007 1078.44 542.675
1965 0 63.3013 13.5384 857 48.9988 1078.06 539.741
1966 0 65.389 12.9838 849 49.5607 1078.91 539.139
1967 0 68.2667 14.0625 960 48.2604 1079.24 538.158
1968 0 68.1078 13.4933 919 49.0609 1079.76 537.385
1969 0 71.1761 13.8249 984 48.8608 1079.98 534.824
1970 0 73.3728 13.6154 999 49.2032 1079.89 533.951
1971 0 74.2105 13.0844 971 50.1112 1080.27 533.608
1972 0 77.2365 13.5817 1049 49.7693 1079.9 532.288
1973 0 80.2339 14.3082 1148 48.9721 1080.44 532.027
1974 0 83.331 13.7524 1146 49.6632 1080.62 530.516
1975 0 87.4402 13.6093 1190 50.216 1080.46 526.889
1976 0 88.2147 14.0226 1237 50.1059 1080.43 526.512
1977 0 92.5151 13.9653 1292 49.8266 1080.69 524.125
1978 0 94.2749 14.0016 1320 50.6008 1080.39 521.411
1979 0 95.3352 14.4962 1382 50.1679 1079.99 522.465
1980 0 99.3279 14.5981 1450 50.5828 1080.22 520.759
1981 0 99.2096 14.0309 1392 52.0172 1080.32 519.18
1982 0 104.453 14.3797 1502 51.6538 1080.96 516.32
1983 0 106.403 14.8586 1581 51.4029 1080.64 515.806
1984 0 111.284 14.5214 1616 51.2599 1080.4 515.28
1985 0 114.405 14.8158 1695 51.7316 1080.63 511.257
1986 0 120.359 14.814 1783 51.3522 1081.02 508.058
1987 0 122.365 14.5303 1778 51.7627 1080.56 508.316
1988 1 68.2128 11.8453 808 52.5854 1080.04 534.735
1989 0 68.1655 13.4526 917 51.9477 1080.45 532.968
1990 0 70.2111 12.1918 856 52.5689 1081.2 535.148
1991 0 75.1985 13.7636 1035 51.7217 1080.98 531.993
1992 0 74.1693 13.6984 1016 52.5325 1080.77 531.992
1993 0 78.4706 14.1709 1112 52.0692 1080.54 528.473
1994 0 80.2388 13.8836 1114 52.649 1080.17 527.496
1995 0 83.1855 12.7426 1060 53.767 1081.22 526.242
1996 0 86.2431 13.5199 1166 52.8671 1081.32 525.503
1997 0 89.3079 13.4479 1201 53.02 1080.58 523.825
1998 0 93.4161 14.6442 1368 51.5278 1080.31 521.8
1999 0 96.3807 13.7476 1325 52.474 1080.66 520.104
2000 0 99.5505 13.8121 1375 52.4655 1080.19 517.468
2001 0 101.509 14.7179 1494 51.7062 1079.99 517.319
2002 0 105.426 14.0477 1481 52.0776 1079.76 514.885
2003 0 107.394 13.7717 1479 52.5558 1079.59 512.757
2004 0 116.484 13.5126 1574 52.3755 1079.06 512.448
2005 0 116.432 13.9395 1623 52.6205 1078.95 511.057
2006 0 120.495 13.7101 1652 52.8656 1078.64 507.512
2007 1 64.2509 10.8792 699 53.2403 1078.84 534.827
2008 0 69.3184 11.5265 799 52.1402 1078.57 534.957
2009 0 71.2826 11.3071 806 51.7122 1078.13 534.854
2010 0 72.1625 11.876 857 51.9393 1078.96 533.15
2011 0 76.3277 12.9311 987 50.6808 1079.14 532.469
2012 0 78.0905 12.0245 939 50.8988 1079.33 530.868
2013 0 82.2543 12.6316 1039 50.1896 1079.24 529.506
2014 0 85.2514 12.598 1074 50.46 1079.27 527.32
2015 0 85.1843 12.1853 1038 51.0848 1079.17 527.543
2016 0 88.2013 12.1767 1074 51.3966 1078.96 525.194
2017 0 94.2101 13.0665 1231 50.1503 1079.04 524.972
2018 0 94.2622 12.3804 1167 51.2125 1079.4 521.229
2019 0 98.3644 13.2162 1300 50.3738 1079.07 522.813
2020 0 100.194 13.1245 1315 50.8479 1078.87 519.61
2021 0 105.246 13.2926 1399 50.361 1079.07 519.317
2022 0 107.19 13.2568 1421 51.1056 1078.88 514.557
2023 0 109.3 12.827 1402 51.6127 1079.19 514.186
2024 0 115.211 13.0196 1500 50.9973 1078.65 515.602
2025 0 118.201 13.68 1617 50.9876 1079.07 513.104
2026 1 68.068 10.6364 724 52.1174 1078.69 537.46
2027 0 71.0594 12.4262 883 49.5334 1079.13 537.698
2028 0 74.2967 12.652 940 48.6074 1079.16 537.387
2029 0 75.2951 13.4936 1016 48.6053 1077.94 536.328
2030 0 77.1994 12.2669 947 49.7033 1078.64 536.958
2031 0 79.1688 12.8207 1015 49.7379 1078.57 533.862
2032 0 81.2446 13.0347 1059 50.1558 1078.8 533.057
2033 0 83.1372 12.4974 1039 51.1068 1078.16 530.898
2034 0 86.231 13.5102 1165 50.394 1078.24 531.112
2035 0 88.1455 12.6155 1112 51.9775 1077.68 530.098
2036 0 89.3418 12.8495 1148 52.135 1077.13 527.161
2037 0 92.3896 13.1617 1216 52.3084 1076.38 499.178
2038 0 94.2513 12.2969 1159 52.3184 1076.2 500.368
2039 0 99.3169 14.3782 1428 50.5728 1076.07 504.543
2040 0 103.426 13.6136 1408 51.375 1075.86 506.55
2041 0 102.306 12.9123 1321 52.6374 1075.74 508.636
2042 0 106.341 13.3438 1419 52.4101 1076.23 507.495
2043 0 108.285 13.0397 1412 52.9242 1075.96 508.64
2044 0 115.269 14.2362 1641 51.4893 1075.76 508.856
2045 0 115.274 12.9952 1498 53.7069 1075.69 506.738
2046 0 120.349 14.2669 1717 51.8323 1075.95 508.681
2047 1 63.2068 9.80907 620 54.2355 1075.18 539.847
2048 0 68.2421 12.3091 840 52.0262 1075.09 538.476
2049 0 66.1931 10.8773 720 54.1722 1074.54 536.853
2050 0 71.2814 12.64 901 52.0954 1074.95 535.434
2051 0 72.1711 12.5535 906 52.9812 1075 529.223
2052 0 76.1099 12.7447 970 52.5103 1074.33 531.415
2053 0 76.1147 11.2593 857 54.3606 1074.47 533.324
2054 0 77.2495 13.2816 1026 54.7261 1074.24 531.418
2055 0 81.1391 13.064 1060 54.2915 1075.14 529.926
2056 0 83.2561 12.924 1076 55.0139 1074.83 530.229
2057 0 89.0812 14.7057 1310 52.5145 1074.98 526.4
2058 0 90.2456 14.117 1274 53.8469 1075.23 526.568
2059 0 92.2217 14.5519 1342 53.8197 1074.95 529.667
2060 0 95.1399 13.4959 1284 55.3248 1074.24 526.616
2061 0 97.2896 13.9789 1360 54.8875 1074.53 524.783
2062 0 103.19 14.0324 1448 54.5394 1074.94 523.121
2063 0 104.124 13.2631 1381 55.0362 1074.46 523.395
2064 0 108.224 12.2708 1328 56.1988 1075.06 521.776
2065 0 114.389 14.1097 1614 54.0954 1075.21 518.256
2066 0 118.452 13.5582 1606 54.4122 1075.06 513.74
2067 0 120.15 13.2751 1595 54.9204 1075.36 512.562
2068 1 62.1542 11.6967 727 51.099 1076.11 544.966
2069 0 61.1524 11.2996 691 52.2981 1075.88 543.957
2070 0 64.1675 10.5817 679 52.9823 1075.99 543.432
2071 0 65.2853 11.8556 774 54.1176 1075.09 540.083
2072 0 69.1755 12.0997 837 54.1482 1075.56 538.333
2073 0 71.1207 11.8953 846 54.74 1075.09 537.152
2074 0 72.0898 11.4441 825 55.0715 1075.62 538.907
2075 0 75.1956 12.6337 950 53.6895 1076.24 535.73
2076 0 78.1214 13.2998 1039 52.9962 1076.18 535.064
2077 0 80.1641 11.3268 908 54.1685 1076.51 535.946
2078 0 83.2131 12.2937 1023 53.8485 1076.79 530.628
2079 0 84.201 12.8858 1085 53.8 1076.88 529.025
2080 0 85.1405 12.403 1056 53.91 1077.19 529.024
2081 0 88.0859 12.59 1109 53.7223 1076.88 528.856
2082 0 92.1406 12.9693 1195 53.4184 1077.97 527.9
2083 0 93.1794 13.3613 1245 54.1839 1077.62 525.929
2084 0 96.185 12.871 1238 54.4459 1078.15 524.839
2085 0 99.1341 12.9421 1283 54.5386 1077.69 521.12
2086 0 103.195 13.334 1376 53.9142 1077.78 520.984
2087 0 104.175 13.7557 1433 53.6015 1077.9 519.107
2088 0 106.156 13.0092 1381 54.8508 1078.41 519.17
2089 0 111.255 13.6623 1520 53.9776 1078.45 516.155
2090 0 114.12 13.6085 1553 54.3619 1078.44 515.026
2091 0 117.116 13.3372 1562 54.5013 1078.43 513.373
2092 1 65.1257 11.6083 756 54.1349 1079.29 538.396
2093 0 67.1422 10.7235 720 54.5 1078.94 537.535
2094 0 71.0699 11.9178 847 54.6104 1079.09 536.386
2095 0 71.2022 12.7243 906 54.064 1079.72 535.86
2096 0 75.2189 12.909 971 53.4058 1079.51 534.819
2097 0 74.1769 12.3354 915 54.7705 1079.22 533.321
2098 0 77.1329 12.8479 991 54.45 1079.35 532.773
2099 0 79.1838 12.9193 1023 53.7253 1079.58 530.117
2100 0 82.3944 12.8528 1059 54.1832 1079.57 529.651
2101 0 85.3858 12.7539 1089 54.505 1079.29 529.755
2102 0 87.1791 12.4112 1082 55.2338 1079.88 528.118
2103 0 88.2579 11.7043 1033 56.0581 1079.52 527.694
2104 0 93.233 12.5385 1169 55.4551 1080.47 525.297
2105 0 94.3652 12.5788 1187 56.0666 1080.32 522.389
2106 0 98.2197 13.7141 1347 54.3385 1080.81 522.128
2107 0 100.313 12.6405 1268 55.6901 1080.73 521.4
2108 0 103.611 12.4407 1289 56.1528 1080.45 520.521
2109 0 106.292 13.0866 1391 56.353 1080.47 517.661
2110 0 108.422 13.0417 1414 55.9378 1080.26 515.314
2111 0 111.331 13.159 1465 55.5242 1080.51 514.625
2112 0 114.438 14.0775 1611 55.1248 1080.33 511.512
2113 0 117.392 12.9991 1526 56.0026 1080.24 513.336
2114 0 121.429 13.5799 1649 56.322 1080.68 510.015
2115 1 71.2137 11.4304 814 55.93 1079.92 537.042
2116 0 75.2171 12.3775 931 54.0687 1079.98 534.144
2117 0 76.2741 11.7864 899 55.1246 1079.78 533.207
2118 0 78.1294 12.9913 1015 53.7409 1080.93 529.818
2119 0 83.2004 13.3052 1107 52.4155 1079.88 531.086
2120 0 84.1658 12.7605 1074 53.1872 1080.35 528.804
2121 0 88.178 13.5748 1197 52.6633 1080.77 528.074
2122 0 90.1763 13.4514 1213 52.6785 1080 526.825
2123 0 93.2472 13.6626 1274 52.5196 1080.5 524.469
2124 0 96.1429 13.7192 1319 52.4617 1079.97 522.914
2125 0 98.0991 13.2825 1303 53.1873 1079.85 521.362
2126 0 103.287 13.5642 1401 51.935 1079.19 521.68
2127 0 105.272 13.3274 1403 52.9922 1078.57 518.368
2128 0 109.324 12.934 1414 52.8253 1078.56 517.53
2129 0 112.46 13.4448 1512 53.0251 1078.17 514.698
2130 0 115.272 14.3313 1652 51.8747 1078.09 514.978
2131 0 117.293 13.1807 1546 53.7717 1078.44 512.283
2132 0 123.342 13.345 1646 53.2722 1078.54 511.442
2133 0 125.362 13.6724 1714 53.2001 1078.71 508.714
2134 1 65.3469 10.4825 685 52.327 1078.52 541.712
2135 0 66.3043 11.2813 748 51.3663 1078.52 541.554
2136 0 67.3114 10.7857 726 52.0482 1077.07 538.256
2137 0 70.3483 13.3194 937 49.8239 1079.59 538.75
2138 0 70.3406 13.7616 968 50.5207 1079.08 534.809
2139 0 72.5849 12.9366 939 50.9255 1079.08 539.348
2140 0 75.2837 12.3798 932 51.3755 1078.6 538.514
2141 0 80.5516 12.4765 1005 51.4149 1078.5 535.57
2142 0 80.4269 13.4408 1081 51.3728 1078.35 533.331
2143 0 83.5137 13.7582 1149 50.9304 1078.47 532.648
2144 0 83.5137 13.7463 1148 151.359 1078.47 532.55
2145 0 89.521 12.8685 1152 52.3637 1078.13 530.633
2146 0 90.5745 12.7851 1158 53.0199 1077.9 526.794
2147 0 95.8094 13.2137 1266 52.4305 1077.6 524.491
2148 0 98.7198 13.1078 1294 52.4482 1077.37 526.163
2149 0 100.467 13.3576 1342 52.4464 1077.82 523.802
2150 0 104.598 13.0691 1367 53.0007 1078.23 521.042
2151 0 106.573 13.3148 1419 53.1008 1077.34 521.006
2152 0 107.513 13.4123 1442 53.38 1077.56 519.494
2153 0 110.329 13.206 1457 53.4276 1077.46 516.83
2154 0 113.285 13.3998 1518 53.5105 1077.21 512.053
2155 1 64.2322 11.4584 736 52.9076 1076.87 540.05
2156 0 64.367 11.1392 717 53.6625 1076.93 538.619
2157 0 67.2074 13.1533 884 51.7149 1077.09 536.958
2158 0 70.1329 12.5191 878 52.5376 1077.05 536.525
2159 0 74.2148 13.8921 1031 51.161 1077.18 537.633
2160 0 73.1599 13.0946 958 52.2015 1077.41 536.599
2161 0 76.3726 13.277 1014 52.6568 1076.68 532.69
2162 0 78.3729 13.3975 1050 52.5181 1077.01 531.285
2163 0 81.4083 12.9225 1052 53.0874 1076.66 529.119
2164 0 81.3804 13.5905 1106 52.9548 1076.11 528.403
2165 0 85.1988 13.5917 1158 52.8774 1075.82 529.155
2166 0 87.4051 13.0313 1139 53.8876 1076.2 527.543
2167 0 91.3204 12.823 1171 54.3817 1076.24 525.313
2168 0 94.251 14.3022 1348 52.678 1076.35 525.386
2169 0 95.3653 13.4011 1278 54.2825 1075.95 525.232
2170 0 99.4226 13.7896 1371 53.8111 1076.2 523.327
2171 0 103.4 14.2359 1472 53.1855 1076.07 522.99
2172 0 105.311 13.6263 1435 54.062 1075.69 522.376
2173 0 108.386 13.7379 1489 54.1195 1076.11 521.507
2174 0 112.341 14.3314 1610 53.7838 1075.59 517.294
2175 0 117.298 15.141 1776 52.2888 1076.02 512.328
2176 0 119.409 13.2486 1582 54.5891 1075.5 514.914
2177 1 64.0925 11.8267 758 55.8668 1075.71 541.61
2178 0 68.2157 12.0207 820 55.0683 1075.8 541.538
2179 0 71.101 13.6285 969 53.838 1074.88 537.389
2180 0 74.2105 12.9766 963 54.9637 1076 537.233
2181 0 78.1915 14.618 1143 53.5022 1076.65 536.157
2182 0 79.227 13.4298 1064 54.7895 1076.62 536.795
2183 0 80.2095 13.7016 1099 55.4286 1076.5 533.393
2184 0 87.1777 16.7703 1462 50.8153 1076.58 530.967
2185 0 86.1466 13.2681 1143 54.8749 1076.17 531.685
2186 0 90.218 14.2765 1288 54.3331 1076.55 529.981
2187 0 90.1108 13.783 1242 55.7504 1076.59 528.384
2188 0 95.2213 13.8204 1316 55.3298 1076.6 526.913
2189 0 99.191 13.6504 1354 55.1521 1077.03 526.338
2190 0 100.116 13.6242 1364 55.4333 1077.03 523.521
2191 1 55.0737 12.4924 688 54.5741 1077.92 548.153
2192 0 56.1899 13.8993 781 53.8297 1077.92 545.695
2193 0 58.0358 13.1643 764 54.9267 1078.1 543.469
2194 0 59.0245 14.062 830 54.0964 1078.58 544.252
2195 0 61.1317 14.5915 892 53.565 1078.51 544.25
2196 0 63.0299 14.7232 928 53.5625 1078.25 543.692
2197 0 67.1041 14.3508 963 52.8349 1078.54 541.366
2198 0 67.0843 14.6979 986 53.5791 1079.13 538.7
2199 0 69.1046 14.63 1011 54.0049 1079.15 537.834
2200 0 71.1424 14.4499 1028 53.7257 1079.33 538.465
2201 0 73.2483 14.4031 1055 54.5507 1079.53 535.492
2202 0 74.1308 15.1084 1120 53.4714 1080.06 534.874
2203 0 76.0894 14.3515 1092 55.1832 1079.76 532.935
2204 0 77.1642 13.7888 1064 56.1353 1080.26 533.162
2205 0 82.1294 13.9779 1148 55.2848 1079.99 532.369
2206 0 84.234 14.8277 1249 54.779 1080.32 529.536
2207 0 86.2052 15.0107 1294 54.7056 1080.72 529.39
2208 0 87.2694 14.0255 1224 56.2075 1080.56 528.003
2209 0 90.1714 14.051 1267 56.633 1081.28 526.234
2210 0 92.1945 13.6451 1258 57.2774 1081.03 525.752
2211 0 96.0958 14.319 1376 56.4302 1080.72 523.788
2212 0 99.2926 14.7443 1464 55.5902 1081.17 522.107
2213 0 102.222 15.0262 1536 55.569 1080.9 522.441
2214 1 55.2824 12.3005 680 57.8632 1081.49 545.385
2215 0 56.1055 12.9221 725 58.2869 1081.09 542.69
2216 0 60.1053 13.8923 835 57.0084 1081.61 542.231
2217 0 63.2733 14.4453 914 57.035 1081.7 538.637
2218 0 64.1223 13.4275 861 57.8583 1082.32 537.995
2219 0 66.077 13.6961 905 57.9138 1082.24 536.903
2220 0 70.1063 15.1484 1062 56.5584 1081.31 535.139
2221 0 72.1431 14.7762 1066 57.7101 1081.7 534.778
2222 0 74.1752 15.5712 1155 57.0286 1081.74 533.635
2223 0 76.2841 14.6426 1117 58.2301 1081.92 532.771
2224 0 80.0464 14.9039 1193 57.8324 1082.04 531.366
2225 0 83.0713 15.1316 1257 58.0453 1081.92 529.827
2226 0 84.1848 14.9908 1262 58.813 1081.67 527.493
2227 0 90.2536 15.3346 1384 57.2767 1081.79 527.085
2228 0 92.0967 14.8214 1365 58.6403 1081.86 525.599
2229 0 94.1758 14.1862 1336 60.5928 1081.81 524.924
2230 0 98.1371 14.653 1438 60.21 1081.82 523.117
2231 0 100.208 14.2903 1432 60.8694 1081.93 522.111
2232 0 104.206 15.2102 1585 59.4006 1081.32 518.352
2233 0 108.134 15.342 1659 58.8463 1081.38 519.901
2234 1 59.0878 13.0822 773 60.5045 1080.43 541.893
2235 0 62.0632 13.5346 840 60.6417 1080.34 539.346
2236 0 63.1131 14.1809 895 60.2927 1080.18 537.134
2237 0 66.2283 14.752 977 59.1474 1080.13 537.505
2238 0 69.153 14.909 1031 58.5897 1080.03 536.776
2239 0 72.0381 15.3669 1107 57.9801 1079.81 535.031
2240 0 75.179 15.7757 1186 57.8246 1079.99 533.283
2241 0 76.1016 14.9274 1136 58.7157 1080.31 532.278
2242 0 79.1292 15.8349 1253 57.4302 1080.12 532.294
2243 0 83.1658 14.91 1240 58.404 1080.72 531.047
2244 0 85.1727 14.5117 1236 59.0089 1081.46 529.003
2245 0 89.1747 15.251 1360 57.9544 1080.52 527.496
2246 0 89.2186 14.6718 1309 59.2735 1079.54 526.518
2247 0 92.157 15.1589 1397 58.7953 1079.98 524.115
2248 0 95.0916 15.5745 1481 58.4072 1079.2 524.296
2249 0 99.2137 15.6531 1553 58.4791 1079.28 522.945
2250 0 102.165 14.6723 1499 60.0454 1079.46 519.335
2251 0 104.315 16.3159 1702 58.4036 1079.63 518.4
2252 0 108.154 15.5796 1685 59.7276 1079.66 516.132
2253 0 112.207 15.9705 1792 59.2444 1079.15 515.629
2254 0 116.307 15.8546 1844 59.538 1079.14 512.35
2255 0 119.266 15.6122 1862 59.9463 1079.05 513.734
2256 0 124.246 15.6544 1945 60.1748 1078.99 510.826
2257 0 129.23 15.6698 2025 59.8716 1078.7 508.543
2258 0 132.423 16.0017 2119 59.7197 1078.64 505.213
2259 0 137.381 15.4898 2128 60.3083 1078.29 501.777
2260 0 140.485 15.4109 2165 61.0217 1078.53 501.664
2261 0 147.327 16.0256 2361 60.4015 1078.48 500.337
2262 0 149.294 15.8747 2370 61.0599 1079.03 496.229
2263 0 155.465 15.5469 2417 61.1986 1078.97 493.188
2264 0 162.573 16.3434 2657 60.5472 1079.16 490.645
2265 0 168.466 16.7096 2815 60.2423 1079.42 488.12
2266 0 174.576 16.0961 2810 60.9199 1078.82 488.207
2267 0 178.828 15.9986 2861 61.2576 1079.66 485.351
2268 0 185.668 16.0286 2976 61.8283 1079.33 483.735
2269 0 189.972 16.1339 3065 61.7896 1079.42 480.422
2270 0 195.076 15.6144 3046 63.128 1079.31 477.822
2271 0 202.594 16.733 3390 61.7965 1079.29 473.47
2272 0 209.576 16.2376 3403 62.0106 1079.34 471.358
2273 0 217.742 16.4369 3579 62.0344 1078.9 466.585
2274 0 225.906 16.6928 3771 61.6982 1079.13 464.719
2275 0 234.929 16.7497 3935 61.2882 1079 459.04
2276 0 241.746 16.9931 4108 60.9735 1078.69 454.572
2277 0 249.782 17.2471 4308 60.6662 1078.34 449.23
2278 0 249.782 17.2471 4308 172.206 1078.34 449.23
2279 1 206.741 16.1845 3346 62.5846 1078.77 475.892
2280 0 213.829 16.6208 3554 62.3075 1078.41 470.104
2281 0 220.485 16.4002 3616 62.6363 1078.47 465.866
2282 0 228.616 16.0662 3673 62.8745 1078.49 464.434
2283 0 237.664 16.0773 3821 62.4789 1078.05 460.016
2284 0 245.584 16.7153 4105 61.9722 1078.2 455.766
2285 1 58.4392 13.7408 803 62.2877 1078.32 545.36
2286 0 59.3961 13.8561 823 62.2746 1078.41 544.221
2287 0 60.2798 14.1341 852 62.4249 1077.97 544.323
2288 0 65.209 14.0932 919 62.1795 1078.29 543.897
2289 0 66.3308 15.0609 999 61.1742 1078.21 544.423
2290 0 68.2336 15.5642 1062 60.1422 1078.17 543.336
2291 0 71.134 15.028 1069 60.985 1077.88 541.534
2292 0 76.0711 15.4066 1172 59.3063 1078.13 538.23
2293 0 76.1918 14.4241 1099 60.8817 1077.67 538.809
2294 0 79.2295 15.941 1263 59.6706 1077.16 535.372
2295 0 80.302 15.4791 1243 60.5712 1077.87 533.975
2296 0 84.2438 14.8142 1248 60.6034 1078.01 532.917
2297 0 88.4375 15.6947 1388 59.7514 1077.75 533.211
2298 0 91.2831 15.808 1443 59.7852 1077.8 531.166
2299 1 51.2541 13.2087 677 61.2526 1077.71 549.47
2300 0 51.3273 13.638 700 60.3814 1077.44 550.691
2301 0 54.1604 13.4969 731 60.5376 1077.18 548.531
2302 0 55.3907 13.9193 771 60.5655 1077.62 547.853
2303 0 57.3568 14.0873 808 61.1485 1077.39 546.385
2304 0 60.4596 14.7536 892 59.861 1077.04 545.05
2305 0 62.4085 14.341 895 60.1844 1077.09 544.684
2306 0 63.3607 14.2833 905 60.9459 1076.82 544.354
2307 0 64.8654 14.7074 954 60.5723 1077.03 542.738
2308 0 68.5181 15.1493 1038 60.1031 1076.66 540.195
2309 0 67.3065 13.8768 934 62.4154 1076.87 540.42
2310 0 72.5069 14.5366 1054 61.1385 1076.99 537.977
2311 0 75.8099 14.8793 1128 60.6108 1076.93 537.523
2312 0 79.5641 14.768 1175 60.303 1076.9 537.395
2313 0 79.6208 14.23 1133 61.6734 1077.22 532.793
2314 0 84.6314 14.4627 1224 60.9698 1077.15 533.114
2315 1 45.2846 9.82674 445 61.4427 1077 552.369
2316 0 48.5508 12.5847 611 60.234 1077.09 549.11
2317 0 49.4277 12.139 600 59.9117 1076.94 549.507
2318 0 51.5005 12.6989 654 59.4251 1077.32 548.242
2319 0 52.5216 13.2707 697 59.2066 1077.52 546.436
2320 0 53.3712 13.0782 698 59.9427 1077.79 546.458
2321 0 58.7784 13.6955 805 58.605 1078.07 545.436
2322 0 58.5861 13.7063 803 58.9116 1077.93 545.254
2323 0 58.5117 13.9288 815 59.6245 1077.94 543.47
2324 0 60.65 14.2786 866 59.1871 1078.4 541.345
2325 0 60.65 14.2457 864 154.101 1078.4 541.341
2326 0 65.5287 14.2228 932 58.9066 1078.44 538.346
2327 0 66.5795 13.5477 902 60.0953 1079.31 537.336
2328 0 70.6239 13.1117 926 60.2171 1079.14 536.231
2329 0 71.2894 13.6626 974 60.3491 1079.18 535.243
2330 0 72.4754 14.3635 1041 59.5975 1079.33 534.225
2331 0 74.498 14.6581 1092 59.7079 1079.83 532.344
2332 0 77.3656 14.3862 1113 59.77 1080.02 531.798
2333 0 78.2251 13.6273 1066 60.9653 1079.76 530.946
2334 0 82.3763 14.0332 1156 60.7673 1079.63 529.311
2335 0 85.2438 14.4409 1231 60.5329 1079.92 526.683
2336 0 88.3362 13.5165 1194 61.3794 1080.12 526.405
2337 0 91.2379 15.1143 1379 59.4779 1079.86 524.553
2338 0 94.2546 14.0258 1322 60.9395 1080.15 523.533
2339 0 96.5048 13.9889 1350 61.297 1080.43 521.105
2340 0 100.33 15.2297 1528 59.5622 1080.35 521.486
2341 0 101.266 14.5261 1471 60.758 1080.3 518.369
2342 1 60.2071 12.3906 746 59.6019 1081.01 540.536
2343 0 61.2636 11.7525 720 59.3236 1081.35 539.861
2344 0 65.1865 12.4566 812 58.5394 1081.57 539.638
2345 0 68.2766 13.2988 908 57.1454 1081.53 535.795
2346 0 68.3683 12.6959 868 58.0876 1081.43 535.283
2347 0 71.1971 12.5988 897 57.4671 1081.36 534.778
2348 0 71.1971 12.5848 896 168.843 1080.35 534.662
2349 0 77.4057 13.8104 1069 55.1151 1082.22 533.867
2350 0 78.3702 13.3469 1046 56.3681 1082.13 532.053
2351 0 80.4209 14.2252 1144 55.7745 1081.53 531.495
2352 0 84.387 13.6395 1151 56.5734 1081.86 528.974
2353 0 88.4215 14.3404 1268 55.3793 1081.94 529.139
2354 0 90.4192 13.4485 1216 57.0888 1081.51 526.203
2355 0 93.6885 13.6196 1276 56.6607 1081.47 524.769
2356 0 95.448 14.2696 1362 56.1153 1081.69 523.565
2357 0 101.705 14.6011 1485 55.4465 1081.62 520.946
2358 0 102.542 13.8675 1422 57.5211 1081.84 518.178
2359 0 102.4 14.1308 1447 57.5577 1081.88 518.138
2360 0 105.407 13.4811 1421 58.7396 1081.5 517.163
2361 0 111.353 13.9287 1551 58.5584 1081.06 514.99
2362 0 114.328 14.3884 1645 57.9556 1081.39 515.328
2363 1 65.4002 12.5382 820 56.361 1081.52 541.121
2364 0 65.1568 11.3112 737 58.7775 1081.35 540.042
2365 0 69.0939 13.46 930 57.3355 1080.9 537.468
2366 0 69.0838 12.7816 883 58.2174 1081 536.21
2367 0 73.1377 14.0557 1028 56.6119 1080.56 534.778
2368 0 76.1329 14.698 1119 55.9839 1080.2 534.239
2369 0 79.1489 14.1758 1122 56.2977 1080.17 533.234
2370 0 80.1546 14.0853 1129 57.1532 1080.19 531.406
2371 0 82.2271 14.4235 1186 56.6282 1079.74 528.487
2372 0 84.1675 14.1504 1191 57.4265 1079.61 528.783
2373 0 87.1307 14.7135 1282 57.0421 1079.56 528.42
2374 0 90.3345 13.8485 1251 57.8473 1079.14 527.851
2375 0 94.2771 14.6695 1383 57.1273 1079.5 524.189
2376 0 98.2624 15.0007 1474 56.9688 1079.28 523.968
2377 0 99.178 13.5211 1341 58.7278 1079.26 523.071
2378 1 56.0571 12.2732 688 57.9913 1079.72 544.656
2379 0 56.074 13.2682 744 57.8401 1079.38 543.418
2380 0 58.0891 12.6358 734 59.0817 1079.53 543.852
2381 0 60.1135 14.0068 842 54.8337 1079.07 541.724
2382 0 65.1718 14.5769 950 53.1842 1079.03 541.03
2383 0 65.1103 14.5138 945 53.9185 1078.71 539.852
2384 0 68.3425 14.7785 1010 53.1228 1078.96 540.858
2385 0 69.1328 14.4505 999 53.8458 1079.18 538.371
2386 0 72.134 14.0572 1014 54.7929 1079.21 537.545
2387 0 74.1273 15.2575 1131 53.4925 1079.59 535.706
2388 0 75.196 14.7481 1109 54.5636 1079.35 535.259
2389 0 79.2603 15.1148 1198 53.7913 1079.44 534.275
2390 0 81.1867 14.5467 1181 54.5453 1079.56 533.335
2391 0 83.1451 14.625 1216 54.329 1079.48 532.38
2392 0 85.1302 13.7202 1168 55.3485 1078.91 530.347
2393 0 90.2244 14.7521 1331 54.2126 1079.24 527.688
2394 0 92.128 14.621 1347 54.4336 1078.85 526.794
2395 0 96.1839 14.8881 1432 53.8813 1079.04 526.027
2396 0 99.2582 14.9811 1487 53.9018 1079.35 524.375
2397 1 55.1302 12.3526 681 56.348 1079.49 545.985
2398 0 57.2758 12.9199 740 56.2878 1079.56 544.1
2399 0 61.0863 12.9816 793 55.8184 1079.87 544.145
2400 0 61.1734 13.6988 838 56.1706 1078.93 542.611
2401 0 63.2003 14.4936 916 55.8013 1078.85 541.147
2402 0 66.229 14.9934 993 55.1128 1078.73 539.681
2403 0 68.6406 14.5832 1001 55.6494 1078.32 540.73
2404 0 70.2859 15.2093 1069 54.7596 1077.43 539.997
2405 0 72.5333 14.9724 1086 54.6455 1077.52 538.683
2406 0 73.0996 14.8017 1082 55.4177 1077.72 536.521
2407 0 76.3546 15.3625 1173 54.78 1077.15 536.457
2408 0 79.441 16.1504 1283 54.265 1077.32 533.334
2409 0 82.2912 14.7646 1215 55.3926 1076.82 533.757
2410 0 86.1225 15.4779 1333 55.0045 1076.51 532.11
2411 0 88.5884 14.494 1284 55.5366 1076.74 531.154
2412 1 44.1613 13.2242 584 57.3716 1076.76 550.678
2413 0 46.5997 12.8756 600 57.0983 1076.79 551.153
2414 0 50.6373 12.4809 632 57.538 1076.87 549.668
2415 0 51.2088 14.5092 743 57.0808 1076.67 548.256
2416 0 51.6535 14.7521 762 56.9121 1076.98 548.213
2417 0 52.2333 15.6414 817 56.3892 1076.87 547.787
2418 0 56.2612 15.1081 850 55.9635 1077.32 547.955
2419 0 57.3811 16.1377 926 55.5097 1076.87 545.941
2420 0 60.1651 16.222 976 54.6496 1077 546.052
2421 0 62.3337 15.5774 971 55.172 1076.96 545.043
2422 0 65.2337 15.9427 1040 54.8558 1076.97 542.956
2423 0 66.2641 15.8759 1052 54.981 1076.6 541.829
2424 0 68.3258 15.9091 1087 55.4673 1076.67 539.086
2425 0 71.2382 16.6624 1187 54.3926 1076.71 541
2426 0 75.2618 17.18 1293 53.6566 1076.52 538.932
2427 0 76.4466 16.1158 1232 55.2175 1076.73 538.942
2428 0 76.4466 16.1682 1236 162.89 1076.75 538.998
2429 0 80.2831 16.4418 1320 54.9621 1076.75 535.347
2430 0 82.3623 16.476 1357 54.9455 1076.51 534.618
2431 0 88.31 16.4081 1449 54.5348 1076.33 532.66
2432 0 90.2722 16.5278 1492 54.2976 1076.93 533.296
2433 0 94.5131 16.5797 1567 54.0268 1077.01 530.359
2434 1 46.4814 15.3395 713 55.9509 1076.97 552.478
2435 0 48.3467 14.8511 718 56.4109 1077.14 552.227
2436 0 53.1606 14.9171 793 56.3909 1077.36 548.979
2437 0 52.6486 15.2711 804 56.8284 1077.02 551.637
2438 0 50.7283 14.7058 746 59.6434 1077.4 550.865
2439 0 51.2144 14.7419 755 59.9404 1077.47 548.347
2440 0 53.5003 14.8971 797 59.2459 1077.71 548.842
2441 0 54.1535 15.2529 826 59.4964 1077.32 546.754
2442 0 56.2927 15.8635 893 59.6193 1077.59 546.486
2443 0 59.2902 16.0903 954 59.1352 1077.71 546.768
2444 0 58.1591 16.2313 944 59.8061 1077.59 545.179
2445 0 60.22 16.2238 977 60.5619 1077.71 544.194
2446 0 62.2402 16.2757 1013 60.5676 1077.62 543.703
2447 0 62.1423 16.4622 1023 61.2258 1077.52 542.504
2448 0 65.6031 16.5541 1086 60.7744 1077.38 542.329
2449 0 67.3824 15.7311 1060 61.884 1077.42 542.274
2450 0 68.5886 16.2564 1115 61.8126 1077.49 541.311
2451 0 71.1669 16.9039 1203 61.192 1077.6 539.968
2452 0 73.2837 17.057 1250 61.1816 1077.58 539.442
2453 0 72.1728 15.8786 1146 63.8185 1077.68 537.93
2454 0 75.1933 16.411 1234 61.0008 1078.09 537.792
2455 0 77.189 15.9738 1233 61.7145 1078.51 536.448
2456 0 78.1984 17.1103 1338 61.1286 1078.6 535.297
2457 0 78.5785 16.5312 1299 62.7444 1078.6 534.468
2458 0 80.2746 16.0823 1291 63.8156 1078.93 535.303
2459 0 82.0922 17.2976 1420 63.2704 1079.08 533.227
2460 0 85.4411 17.4272 1489 62.7529 1079.27 532.813
2461 0 86.295 16.7681 1447 64.3234 1078.89 531.498
2462 0 90.1331 17.7293 1598 62.9612 1079.25 532.367
2463 0 91.0659 16.8449 1534 64.603 1079.45 529.895
2464 0 95.4639 17.1059 1633 63.8647 1080.36 528.737
2465 0 99.4296 17.0975 1700 64.2794 1080.28 526.963
2466 0 101.576 17.455 1773 64.0677 1080.7 523.338
2467 0 105.151 17.6318 1854 63.5237 1081.24 523.176
2468 0 106.273 17.2952 1838 64.5103 1081.28 521.015
2469 0 111.484 16.9441 1889 64.6008 1081.14 519.21
2470 0 114.29 17.543 2005 64.6224 1081.49 516.879
2471 1 49.0794 15.3221 752 68.1529 1081.15 547.87
2472 0 50.3059 15.7437 792 66.9205 1081.33 547.242
2473 0 50.2909 16.0864 809 67.2522 1081.81 546.34
2474 0 51.0549 16.0611 820 68.9341 1081.99 545.816
2475 0 51.164 15.9878 818 71.044 1081.84 546.253
2476 0 49.1469 16.8678 829 71.9891 1081.82 545.229
2477 0 49.1136 16.4109 806 74.7109 1081.57 543.417
2478 1 85.3395 17.2956 1476 63.1667 1082.06 472.521
2479 0 89.1243 19.0745 1700 60.1982 1082.28 470.815
2480 0 91.1394 18.9051 1723 60.6854 1082.11 470.446
2481 0 92.099 18.4475 1699 61.9017 1082.28 467.735
2482 0 94.1983 19.9473 1879 59.9814 1082.41 465.63
2483 0 97.2043 19.1041 1857 61.5401 1082.48 466.715
2484 0 99.0964 19.365 1919 61.7113 1081.89 465.308
2485 0 103.137 18.2282 1880 62.5803 1082.17 464.043
2486 0 103.246 19.962 2061 61.1713 1081.92 436.359
2487 0 102.176 19.5644 1999 62.991 1082.03 411.756
2488 0 109.239 19.4528 2125 61.4113 1082.25 386.585
2489 0 103.286 18.3664 1897 65.3853 1081.91 376.791
2490 1 50.0689 13.6811 685 71.5562 1081.74 397.803
2491 0 50.0225 13.8937 695 71.5453 1081.35 393.694
