time division length width area intensity CMx CMy
0 0 105.171 13.8346 1455 80.4893 1299.51 548.687
1 0 110.178 13.6506 1504 80.6941 1299.25 547.155
2 0 110.281 13.6289 1503 81.9794 1299.54 544.675
3 0 116.071 14.1552 1643 80.8868 1299.5 541.798
4 0 120.124 14.177 1703 79.8743 1299.63 541.213
5 0 125.272 13.3071 1667 80.838 1299.74 537.861
6 1 70.1217 12.7493 894 77.4362 1299.31 566.232
7 0 72.1554 12.9027 931 78.3706 1299.47 562.495
8 0 74.0405 13.0469 966 78.8199 1299.89 563.153
9 0 76.1022 12.4044 944 81.0064 1299.76 562.332
10 0 81.3384 13.2287 1076 79.5149 1300.77 560.325
11 0 82.1678 12.9004 1060 80.0094 1300.94 560.78
12 0 86.1385 13.6873 1179 79.3172 1300.63 556.137
13 0 90.1712 13.5631 1223 78.4595 1300.57 556.171
14 0 93.1135 13.3815 1246 79.0971 1300.27 553.135
15 0 98.072 13.4595 1320 77.3985 1300.88 553.309
16 0 99.1426 14.3329 1421 77.0992 1301.06 548.973
17 0 102.252 13.2515 1355 78.1668 1300.48 548.956
18 0 107.149 13.4113 1437 77.437 1301 546.837
19 1 55.0744 11.4027 628 78.129 1300.71 573.037
20 0 56.1491 12.2531 688 78.1628 1301.02 571.754
21 0 57.0741 12.1947 696 78.1063 1301.08 569.912
22 0 61.2382 12.3289 755 77.2848 1301.45 569.082
23 0 65.366 13.5239 884 74.5905 1301.83 567.136
24 0 67.1585 13.6691 918 74.3802 1301.44 565.475
25 0 69.181 13.3707 925 75.2714 1301.72 564.536
26 0 71.1138 13.7807 980 74.7704 1301.32 561.87
27 0 72.2275 12.9867 938 76.5203 1301.7 561.8
28 0 77.3615 13.2495 1025 75.1561 1301.07 559.982
29 0 80.2716 13.118 1053 75.1045 1301.32 559.648
30 0 81.3541 13.472 1096 74.8102 1301.49 558.17
31 0 84.449 13.6887 1156 74.782 1301.79 556.702
32 0 89.3213 13.3675 1194 75.1499 1301.88 555.324
33 0 92.3873 13.1512 1215 75.6502 1302 553.838
34 0 95.392 13.1982 1259 75.6442 1301.9 552.505
35 1 48.2006 11.9501 576 77.1979 1301.91 573.014
36 0 51.2016 12.5387 642 74.852 1301.94 573.983
37 0 52.1482 11.6591 608 76.9605 1302.11 572.836
38 0 54.2678 12.8437 697 74.6643 1302.16 572.273
39 0 56.4378 13.3776 755 73.9603 1301.76 569.902
40 0 59.5175 12.6517 753 74.2284 1301.72 570.633
41 0 59.4173 12.286 730 75.2603 1302.17 568.749
42 0 62.345 12.9762 809 73.9394 1302.22 567.022
43 0 64.2251 13.188 847 73.1913 1301.74 566.898
44 0 67.5909 12.6052 852 74.6244 1301.99 565.293
45 0 69.3595 13.0768 907 74.0584 1302.88 563.089
46 0 71.5013 12.8949 922 73.936 1302.29 563.051
47 0 73.5102 13.0866 962 74.5977 1302.35 560.703
48 0 75.315 12.9058 972 75.5175 1302.2 559.532
49 0 79.2287 12.7858 1013 74.4393 1302.14 560.157
50 0 82.3752 13.4871 1111 73.1404 1301.48 558.266
51 0 85.4489 13.2945 1136 74.3292 1301.77 557.542
52 0 88.4984 13.2206 1170 74.4761 1301.86 554.564
53 0 91.2722 13.9582 1274 72.956 1301.32 554.686
54 0 93.511 12.8006 1197 67.005 1300.71 550.368
55 0 97.4291 14.3386 1397 65.816 1300.93 546.36
56 1 49.4012 11.0726 547 69.192 1300.72 571.397
57 0 49.4012 11.0321 545 180.833 1301.72 571.479
58 0 52.3683 11.5719 606 68.8086 1301.07 569.279
59 0 54.4556 13.1851 718 66.1797 1301.27 567.818
60 0 56.3616 13.2892 749 66.8144 1301.48 566.662
61 0 57.2527 12.5933 721 69.1983 1301.9 568.546
62 0 60.2006 13.3055 801 68.1161 1301.79 567.414
63 0 62.225 12.953 806 68.3797 1301.17 565.86
64 0 65.2992 14.1656 925 66.3405 1301.51 564.742
65 0 66.2024 14.1385 936 67.1912 1301.71 563.565
66 0 68.3367 13.7993 943 67.6013 1301.55 563.818
67 0 71.2195 14.2377 1014 67.6538 1301.92 560.91
68 0 71.2195 14.2377 1014 171.727 1302.92 560.91
69 0 72.3379 13.7134 992 69.1643 1302.37 559.699
70 0 76.258 13.6248 1039 69.7382 1302.56 557.436
71 0 77.4406 13.8041 1069 69.4387 1302.61 555.485
72 0 82.4429 13.9491 1150 68.1478 1302.8 553.73
73 0 84.2899 13.5722 1144 69.0577 1302.98 552.758
74 0 86.4447 14.1362 1222 68.4468 1303.09 551.132
75 0 91.4076 14.1126 1290 67.6543 1303.56 548.453
76 0 90.4162 13.3051 1203 69.9892 1303.81 545.904
77 1 46.0887 11.1524 514 70.3735 1303.52 568.152
78 0 50.0602 11.5261 577 68.4263 1303.27 568.102
79 0 50.0435 11.7298 587 69.2572 1304.34 566.789
80 0 52.0428 12.6242 657 68.7641 1304.98 564.589
81 0 56.0294 12.5648 704 68.1321 1305.13 563.682
82 0 57.0887 12.5069 714 69.0042 1305.42 561.036
83 0 60.101 13.261 797 67.2999 1306 562.148
84 0 60.1091 12.993 781 68.7478 1305.99 560.097
85 0 60.0324 12.9597 778 69.3856 1306.23 559.981
86 0 65.1005 13.6097 886 67.4221 1306.51 557.827
87 0 65.0923 12.7204 828 68.6908 1306.41 558.048
88 0 67.1785 12.0723 811 69.4562 1306.85 556.086
89 0 70.0851 13.5264 948 66.5116 1306.87 553.617
90 0 73.1557 13.2184 967 67.5832 1306.93 552.464
91 0 75.1365 13.4422 1010 69.1347 1307.4 550.757
92 0 78.1331 14.4369 1128 68.5177 1307.4 549.899
93 0 79.1049 13.6528 1080 69.7759 1307.51 548.794
94 0 82.2291 13.8759 1141 68.7178 1307.85 546.657
95 0 84.2763 13.7642 1160 67.7259 1307.93 544.794
96 0 85.0938 13.4675 1146 68.2234 1308.32 544.68
97 0 91.1538 13.3291 1215 90.8461 1308.19 546.346
98 0 94.1557 14.2636 1343 65.8474 1308.15 542.197
99 0 95.1426 13.7057 1304 67.4793 1307.89 540.39
100 0 97.2826 13.5996 1323 69.0491 1308.37 540.119
101 0 102.328 13.8183 1414 68.5644 1308.55 536.298
102 1 55.0745 11.0941 611 69.1604 1308.9 559.62
103 0 57.0246 11.1531 636 70.1934 1309.19 558.189
104 0 60.06 12.2045 733 69.2933 1309.24 556.085
105 0 62.0696 12.6471 785 70.3376 1309.05 554.876
106 0 63.1009 13.1852 832 69.6202 1309.34 555.188
107 0 66.2533 12.9352 857 70.4352 1309.3 553.515
108 0 69.1198 13.0064 899 69.3437 1308.86 553.482
109 0 71.1155 13.1054 932 68.4646 1309.21 551.417
110 0 72.4044 12.5407 908 69.5374 1309.26 550.404
111 0 73.1101 13.1582 962 69.4252 1308.54 549.87
112 0 77.1193 13.7579 1061 68.033 1308.74 547.866
113 0 80.1226 13.4294 1076 68.3123 1308.65 546.717
114 0 83.0955 13.8034 1147 67.4882 1308.97 544.999
115 0 84.2023 13.9426 1174 68.2487 1308.7 543.263
116 0 88.1253 13.6283 1201 68.5021 1308.83 542.575
117 0 91.2555 13.6759 1248 68.6466 1308.76 541.152
118 0 92.2359 14.2136 1311 68.9001 1308.61 539.132
119 0 97.188 14.4257 1402 68.5292 1308.21 538.721
120 1 53.0546 11.2526 597 69.5059 1307.65 561.936
121 0 55.0888 11.9806 660 68.347 1307.87 561.002
122 0 55.1043 12.3402 680 68.5721 1307.84 559.253
123 0 57.1039 12.6787 724 68.5 1308.07 559.413
124 0 59.1026 13.1128 775 68.0206 1307.78 558.425
125 0 61.0897 13.03 796 67.7312 1307.86 558.716
126 0 63.0943 12.5843 794 69.0088 1308.08 556.363
127 0 63.1083 12.6608 799 69.5294 1308.16 555.504
128 0 66.1739 13.5098 894 67.8624 1308.16 553.248
129 0 67.1502 12.7773 858 69.6061 1308.27 552.411
130 0 71.218 12.9181 920 68.9848 1308.27 550.632
131 0 73.1301 13.5375 990 68 1307.74 552.23
132 0 73.178 13.6106 996 69.1737 1307.43 549.423
133 0 78.3484 13.0954 1026 69.0419 1307.23 549.804
134 0 80.4005 13.3084 1070 68.8785 1307.11 548.533
135 0 80.1732 12.9969 1042 70.8052 1307.14 546.1
136 1 46.1287 10.384 479 69.2463 1306.98 565.996
137 0 48.1494 11.4643 552 69.0199 1306.95 564.259
138 0 49.0968 11.6708 573 69.6422 1307.09 563.07
139 0 49.1854 11.8124 581 70.4733 1306.85 562.41
140 0 52.1924 12.818 669 67.6577 1306.59 561.717
141 0 52.1302 12.3537 644 69.1258 1306.33 561.998
142 0 54.0783 11.9087 644 70.1693 1306.78 560.93
143 0 57.1311 12.9002 737 67.9077 1306.41 560.711
144 0 56.1498 12.3598 694 70.1167 1306.5 560.695
145 0 60.1419 12.2377 736 69.5245 1306.99 559.135
146 0 61.1429 12.5117 765 68.834 1305.94 558.841
147 0 62.0602 11.9078 739 69.8484 1306.27 557.885
148 0 65.0929 13.2273 861 67.8223 1306.31 556.548
149 0 67.0877 12.7445 855 68.9018 1306.29 553.994
150 1 36.0107 10.9412 394 67.4695 1305.76 570.34
151 0 37.052 10.5258 390 68.6103 1305.98 570.338
152 0 38.0557 10.2744 391 69.6394 1305.92 569.777
153 0 39.0222 10.8912 425 68.4118 1305.85 569.812
154 0 42.0309 11.6105 488 68.0389 1306.47 568.922
155 0 43.1777 12.2054 527 67.5484 1307.56 568.882
156 0 45.162 12.5105 565 67.292 1307.61 568.779
157 0 44.3086 11.4876 509 69.9293 1307.59 568.509
158 0 45.1989 12.0357 544 69.6801 1307.28 566.936
159 0 47.1631 12.637 596 68.9362 1307.3 565.854
160 0 49.1079 12.5438 616 69.2127 1307.03 566.037
161 0 50.2475 12.2593 616 70.0601 1307.12 564.412
162 0 53.2139 13.192 702 67.7151 1307.22 564.493
163 0 53.0897 12.4883 663 70.5083 1306.84 563.271
164 0 55.1987 13.08 722 69.2632 1306.8 561.852
165 0 55.2247 12.6212 697 70.4362 1307.1 561.143
166 0 56.1631 12.9444 727 70.4099 1306.88 561.38
167 0 58.1704 13.0135 757 70.5099 1307.39 560.052
168 0 61.2976 12.6759 777 70.5212 1308.27 559.241
169 0 62.1382 13.0998 814 70.1867 1308.04 559.311
170 0 64.2786 12.9592 833 70.3097 1308.35 557.273
171 0 65.2213 13.4619 878 70.2973 1308.98 555.96
172 0 67.1741 13.5618 911 69.7234 1308.66 554.209
173 0 70.1601 13.6545 958 69.048 1308.72 554.808
174 0 72.0601 13.1557 948 70.0844 1308.53 552.988
175 0 74.1271 14.1109 1046 68.5554 1308.72 552.441
176 1 36.1398 10.238 370 71.9541 1308.78 569.965
177 0 40.1555 11.4057 458 70.238 1308.84 567.843
178 0 40.104 11.2208 450 69.9778 1309.1 568.32
179 0 41.1077 11.7983 485 70.9052 1308.79 566.666
180 0 42.1498 10.9846 463 71.3369 1309.12 567.268
181 0 42.2318 12.2893 519 70.6416 1309.21 566.281
182 0 44.1592 12.1606 537 70.8939 1309.25 564.088
183 0 45.1835 12.1504 549 71.051 1308.83 564.668
184 0 47.1842 13.4367 634 69.0174 1309.67 563.986
185 0 49.1587 12.5512 617 70.8768 1309.34 563.01
186 0 50.201 13.4061 673 70.4755 1309.86 562.449
187 0 53.2304 12.8874 686 70.0408 1309.98 560.79
188 0 52.1328 12.8518 670 71.6373 1310.06 559.097
189 0 54.1102 13.0659 707 71.3607 1309.7 558.233
190 0 54.1892 12.6963 688 72.9913 1309.54 558.734
191 0 58.0654 13.7431 798 70.5602 1309.56 556.721
192 0 61.1094 13.2385 809 70.6378 1310.01 556.895
193 0 61.1304 12.6124 771 70.9455 1310.35 556.824
194 0 63.3499 13.5912 861 68.1487 1310.45 555.53
195 0 66.2045 13.8963 920 66.375 1311.1 554.833
196 0 66.2045 13.851 917 175.896 1312.12 554.905
197 0 69.271 13.5843 941 67.5505 1310.56 551.891
198 0 69.2319 12.7976 886 71.1208 1310.72 550.59
199 0 72.2196 13.1543 950 70.8684 1310.47 549.862
200 0 76.3503 12.9273 987 70.8278 1310.72 547.913
201 0 77.233 13.0255 1006 71.162 1310.9 546.232
202 0 79.2257 12.8494 1018 70.9558 1310.78 544.631
203 1 44.1395 10.7613 475 69.4884 1310.85 564.267
204 0 43.0865 10.9547 472 70.2881 1310.98 562.034
205 0 45.1249 11.856 535 68.6579 1311.02 560.901
206 0 47.0993 12.2932 579 67.9758 1310.74 559.575
207 0 48.0461 11.6763 561 68.8093 1310.88 558.196
208 0 50.0404 12.9895 650 67.78 1310.68 559.398
209 0 51.0267 13.0912 668 67.3338 1310.47 559.124
210 0 53.1394 12.3261 655 67.5176 1310.53 558.518
211 0 58.1303 13.2461 770 65.2519 1310.46 556.883
212 0 58.1058 12.3912 720 66.0889 1310.32 558.021
213 0 59.3878 12.2247 726 66.6267 1310.36 558.302
214 0 61.1345 12.039 736 66.4986 1310.56 556.031
215 0 62.1708 12.8999 802 65.5686 1310.17 554.208
216 0 65.2425 13.1663 859 65.234 1310.14 552.286
217 0 69.1685 12.8093 886 64.9108 1309.87 552.396
218 0 71.0838 13.2379 941 64.5452 1309.52 550.286
219 0 73.2361 13.2175 968 65.1002 1309.23 549.202
220 0 75.1314 12.9107 970 65.6845 1308.58 548.987
221 1 39.1178 11.197 438 66.5982 1308.68 566.749
222 0 42.1335 12.1044 510 65.6373 1308.59 564.114
223 0 43.0738 11.1669 481 66.2516 1308.23 566.183
224 0 44.1507 12.2082 539 66.2393 1308.86 562.401
225 0 47.3706 11.9061 564 66.0124 1308.5 562.713
226 0 47.3406 12.1671 576 66.8003 1308.38 562.444
227 0 47.3406 12.2728 581 157.351 1307.39 562.413
228 0 49.2522 13.1771 649 66.5285 1307.73 560.974
229 0 52.3195 13.15 688 66.7863 1308.16 560.836
230 0 53.3119 12.6238 673 67.9703 1308.16 560.666
231 0 55.414 12.9931 720 68.2542 1308 558.186
232 0 56.4532 12.5945 711 69.526 1307.8 558.496
233 0 58.525 13.5156 791 68.3097 1307.66 557.373
234 0 60.5868 13.6994 830 68.0542 1307.47 555.664
235 0 61.4992 13.7237 844 68.9562 1307.65 553.805
236 0 63.4783 12.902 819 70.768 1307.74 553.226
237 0 66.5401 13.7361 914 69.4278 1307.48 551.549
238 0 66.6937 13.2846 886 71.7314 1307.43 550.292
239 0 68.5028 13.7513 942 71.7527 1307.44 550.417
240 0 70.5775 13.6871 966 71.6542 1307.39 549.119
241 0 72.701 12.7921 930 73.4849 1307.06 548.371
242 0 76.4591 13.759 1052 71.7605 1306.79 547.424
243 0 80.7904 13.5536 1095 72.1132 1306.74 546.216
244 0 83.4637 14.0061 1169 72.4628 1306.76 545.052
245 0 85.6559 13.4725 1154 73.9255 1306.89 543.883
246 0 88.5965 13.601 1205 74.2465 1306.66 541.549
247 0 90.4334 14.1541 1280 74.0734 1306.7 539.63
248 0 93.5184 13.4091 1254 75.1491 1306.73 540.313
249 0 98.3629 13.4095 1319 75.1524 1306.76 536.837
250 1 48.3821 11.4919 556 73.5234 1306.96 562.96
251 0 52.3123 11.9666 626 72.2284 1307.34 561.946
252 0 53.1745 11.9042 633 72.8167 1307.62 560.528
253 0 55.3122 12.1311 671 72.4232 1307.65 559.92
254 0 56.1874 12.1557 683 73 1307.64 560.233
255 0 61.305 12.8701 789 70.8378 1307.86 559.641
256 0 61.2497 12.4735 764 72.0707 1307.7 557.09
257 0 62.2351 12.3242 767 72.292 1307.44 557.468
258 0 66.3078 12.4721 827 71.8138 1307.72 554.865
259 0 69.3102 12.9274 896 70.2656 1307.87 555.352
260 0 72.2055 13.2538 957 69.2581 1307.31 554.327
261 0 75.1742 12.9566 974 69.4466 1307.29 553.431
262 0 75.1996 12.1011 910 71.811 1307.11 551.627
263 0 80.2684 12.9316 1038 69.6146 1307.15 550.937
264 0 81.281 12.9181 1050 70.5857 1306.8 550.033
265 1 45.1849 10.7558 486 70.7695 1306.69 569.086
266 0 46.1642 9.8128 453 73.9603 1306.77 567.607
267 0 47.1293 11.1608 526 71.6008 1306.54 566.793
268 0 49.1354 11.6413 572 69.6154 1306.09 566.108
269 0 50.0744 11.6427 583 69.6415 1305.54 563.839
270 0 52.1135 12.3193 642 68.9034 1306.04 562.785
271 0 53.1874 12.1269 645 68.645 1306.56 563.088
272 0 53.3203 11.7404 626 70.016 1306.49 562.045
273 0 58.2904 12.3176 718 67.9596 1306.63 560.114
274 0 59.1605 12.4745 738 68.4499 1306.77 559.585
275 0 60.2637 12.1134 730 68.9233 1307.65 559.21
276 0 63.2386 13.1565 832 67.1214 1307.82 558.214
277 0 65.2728 11.9958 783 68.6539 1308.18 556.824
278 0 67.2257 13.001 874 67.2769 1308.4 554.912
279 0 68.2902 12.1394 829 68.9493 1308.04 555.789
280 0 72.4984 12.3313 894 68.1421 1308.66 553.794
281 0 71.384 12.776 912 68.3695 1308.5 551.277
282 0 76.5976 13.9169 1066 65.5976 1308.67 550.72
283 0 78.4545 12.2491 961 67.3621 1308.43 548.8
284 1 40.3877 10.0031 404 67.5 1307.43 568.832
285 0 42.3394 11.2189 475 66.5832 1307.68 566.72
286 0 42.1282 11.7736 496 66.6633 1308.94 566.562
287 0 44.0785 11.7744 519 66.1195 1309.08 566.651
288 0 49.1007 11.5273 566 66.0972 1309.21 564.387
289 0 49.0216 12.9739 636 62.7547 1308.18 563.123
290 0 48.1418 12.8786 620 64.479 1308.64 561.769
291 0 52.0278 12.7624 664 64.0798 1309.11 560.997
292 0 50.178 12.4357 624 66.0513 1310 560.881
293 0 50.1788 12.4754 626 160.625 1310.01 560.802
294 0 52.1335 13.1202 684 65.6389 1310.38 558.632
295 0 55.2819 13.5668 750 64.7453 1310.38 557.276
296 0 57.1706 13.3285 762 65.1352 1310.69 556.741
297 0 57.1284 12.8307 733 66.9332 1310.66 555.01
298 0 62.1199 13.1842 819 65.3089 1310.5 554.828
299 0 63.0875 13.5209 853 65.1712 1310.82 553.784
300 0 62.1306 12.3771 769 67.9532 1310.98 553.527
301 0 65.1178 13.6829 891 65.8182 1311.24 552.31
302 0 67.0296 12.8451 861 67.2137 1311.22 551.408
303 0 68.1584 14.657 999 65.1602 1311.53 550.899
304 0 71.0992 14.2196 1011 65.8259 1311.21 549.645
305 0 73.1555 13.4781 986 67.4594 1311.65 548.815
306 0 76.1042 14.2305 1083 66.2789 1311.73 546.918
307 0 76.2411 14.1131 1076 67.5381 1311.76 545.751
308 0 79.0794 13.8721 1097 68.3428 1311.84 544.405
309 0 82.1241 14.0641 1155 68.1965 1311.97 542.343
310 0 85.1361 13.7544 1171 68.2297 1311.87 541.212
311 0 89.1041 14.1183 1258 67.6606 1311.3 539.837
312 0 89.1041 14.1295 1259 169.38 1311.32 539.944
313 1 49.0625 11.6382 571 69.9912 1311.12 559.844
314 0 50.1051 11.4958 576 70.8125 1311.39 558.559
315 0 53.1414 12.1186 644 69.559 1310.96 558.227
316 0 53.1414 12.1563 646 172.381 1310.98 558.17
317 0 58.0893 13.4965 784 66.2768 1310.97 556.926
318 0 59.1307 12.8021 757 67.5746 1311.31 555.061
319 0 59.1162 13.0929 774 68.1757 1311.43 553.652
320 0 61.08 13.5396 827 67.6481 1311.32 552.612
321 0 65.2976 13.4767 880 66.2705 1311.47 552.28
322 0 67.0658 13.0618 876 66.855 1311.17 551.179
323 0 68.1522 13.9834 953 66.3746 1311.17 548.738
324 0 71.1042 13.0513 928 67.4364 1310.56 548.089
325 0 73.1241 13.5523 991 67.2957 1310.26 546.219
326 0 75.0595 13.2428 994 68.2274 1310.28 544.844
327 0 80.1633 13.8467 1110 66.4721 1310.52 545.709
328 0 78.2658 13.3008 1041 69.3814 1310.35 542.82
329 0 84.1527 14.6638 1234 66.846 1310.2 542.725
330 1 44.0302 11.5148 507 69.2308 1309.43 561.032
331 0 46.0488 11.0318 508 69.7441 1308.65 561.14
332 0 48.078 11.2525 541 69.207 1309.38 561.482
333 0 46.0331 12.0348 554 70.5181 1309.38 558.792
334 0 51.1379 12.3783 633 69.2338 1309.27 559.155
335 0 52.1241 12.0865 630 69.9508 1309.28 560.362
336 0 52.0946 12.1894 635 70.7528 1308.94 557.95
337 0 55.1432 13.0206 718 69.1741 1308.84 557.038
338 0 55.1 12.1416 669 70.9701 1308.81 558.015
339 0 57.0768 12.8423 733 69.7735 1308.23 556.794
340 0 58.0575 12.5565 729 70.5199 1308.43 555.853
341 0 60.0532 13.2216 794 69.733 1308.19 554.432
342 0 63.0929 12.5688 793 70.43 1308.47 553.927
343 0 64.1106 13.2427 849 69.9352 1308.3 552.313
344 0 67.1037 12.9501 869 69.4016 1308.09 552.71
345 0 70.1448 13.2013 926 69.0205 1308.06 550.416
346 0 72.1309 13.0735 943 69.3977 1308.51 548.266
347 0 75.177 12.7034 955 69.6314 1307.96 548.309
348 0 77.1578 13.1937 1018 68.7407 1308.02 547.821
349 0 81.0704 13.8275 1121 67.4657 1307.9 546.012
350 0 85.1388 13.2255 1126 67.786 1308.89 544.862
351 1 49.035 11.0125 540 68.3907 1308.25 560.385
352 0 49.1667 10.6169 522 68.7452 1308.3 561.531
353 0 50.0482 11.0693 554 67.9783 1307.87 561.726
354 0 53.0187 11.6563 618 66.7346 1308.3 560.775
355 0 55.088 12.2531 675 65.4785 1308.33 560.231
356 0 57.0806 11.8429 676 66.1982 1307.47 559.198
357 0 60.081 12.6163 758 64.1636 1306.94 558.084
358 0 59.1917 11.6064 687 66.2198 1306.27 558.846
359 0 62.1581 13.0474 811 64.1208 1306.84 555.914
360 0 62.1622 12.757 793 64.8537 1307.21 555.648
361 0 66.1075 12.7066 840 64.706 1307.15 554.11
362 0 68.0965 12.82 873 64.1478 1307.05 552.638
363 0 72.0688 12.5991 908 64.163 1306.88 552.041
364 0 72.1237 13.3382 962 63.6913 1307.13 550.736
365 0 74.1208 12.9923 963 64.9086 1307.1 548.532
366 0 78.12 12.6472 988 64.8907 1307.78 547.416
367 0 81.2327 13.3936 1088 63.8162 1307.7 545.853
368 0 83.0846 12.7701 1061 64.9171 1307.75 544.769
369 0 88.1998 13.254 1169 63.3379 1308.5 544.916
370 1 45.0337 10.2812 463 63.0259 1308.65 565.693
371 0 47.0355 10.9279 514 62.4708 1308.53 564.14
372 0 49.0875 11.0823 544 62.5386 1308.71 562.504
373 0 49.1315 11.0113 541 62.854 1309.26 561.893
374 0 50.109 11.5149 577 62.1664 1309.48 561.237
375 0 52.2273 10.799 564 62.7855 1309.02 560.261
376 0 51.1296 11.6567 596 61.6661 1308.79 560.312
377 0 54.1137 11.6237 629 60.8124 1308.41 559.281
378 0 58.1357 11.6796 679 60.0515 1309.11 558.14
379 0 60.0934 11.5487 694 59.7147 1309.07 556.641
380 0 62.1329 12.2158 759 59.0461 1309.22 555.215
381 0 63.1606 12.682 801 58.9775 1309.75 555.655
382 0 64.1781 12.1693 781 60.1165 1309.11 554.351
383 0 65.1564 12.1554 792 60.7361 1309.07 551.662
384 0 67.1842 12.0713 811 60.5697 1309.41 551.837
385 0 69.1554 12.4502 861 60.4762 1309.48 549.948
386 0 72.1511 11.8085 852 60.8157 1309.87 549.729
387 0 75.0969 12.131 911 60.8847 1310.35 547.132
388 0 78.1907 11.6894 914 60.8381 1310.53 546.889
389 0 81.121 12.5245 1016 60.1703 1310.35 544.887
390 1 40.0232 10.1691 407 59.4324 1309.46 564.767
391 0 40.1055 10.1482 407 60.1671 1309.72 564.096
392 0 44.084 10.2985 454 59.5529 1309.73 563.568
393 0 46.072 10.5053 484 59.031 1309.92 562.727
394 0 44.1932 10.7483 475 60.8632 1310.15 561.051
395 0 46.2681 10.785 499 60.8156 1310.58 560.269
396 0 47.2227 11.5199 544 60.1618 1311.4 559.217
397 0 49.1947 12.0542 593 59.1551 1311.08 559.147
398 0 52.225 12.3121 643 58.8538 1311.83 557.983
399 0 52.2106 11.3578 593 61.6408 1311.48 557.089
400 0 55.1471 11.7685 649 60.2897 1311.9 554.826
401 0 57.11 12.1695 695 59.4086 1311.76 555.25
402 0 58.1545 12.8623 748 59.1243 1312.05 552.798
403 0 60.2193 12.4877 752 59.2726 1311.8 552.269
404 0 61.1841 13.157 805 59.0658 1312.18 551.104
405 0 61.1796 12.21 747 60.3079 1311.8 551.764
406 0 64.121 12.7883 820 59.7561 1312.11 550.355
407 0 64.2276 13.0162 836 60.0981 1312.11 549.339
408 0 67.3278 12.6248 850 60.8459 1312.21 549.588
409 0 70.1122 13.0363 914 60.8042 1311.88 547.06
410 0 72.1022 12.6765 914 60.9311 1312.02 547.574
411 0 74.1488 13.0548 968 61.0176 1311.81 546.158
412 0 77.1242 13.381 1032 60.6725 1311.9 542.753
413 0 79.1249 12.9668 1026 61.2856 1311.67 543.283
414 0 82.3345 13.3116 1096 60.7765 1311.4 542.137
415 0 84.1205 13.2429 1114 62.3716 1311.23 540.155
416 1 44.0699 10.506 463 64.3024 1310.48 559.091
417 0 46.0395 9.92626 457 64.6827 1310.61 559.131
418 0 47.0652 10.4961 494 63.9858 1310.35 558.824
419 0 47.0685 10.4954 494 172.061 1310.37 558.769
420 0 49.0489 12.5385 615 62.8374 1309.6 556.811
421 0 53.1106 11.8809 631 61.8447 1310.5 557.719
422 0 52.0912 12.0942 630 64.0714 1309.55 556.222
423 0 54.14 12.3938 671 63.6498 1308.83 556.404
424 0 57.1608 12.2986 703 63.6074 1309.35 555.861
425 0 58.0682 13.002 755 63.3589 1308.76 554.54
426 0 60.0677 12.1363 729 64.7723 1308.64 554.084
427 0 60.1145 11.9272 717 65.2901 1308.56 554.672
428 0 61.1041 13.0597 798 64.4286 1308.36 552.249
429 0 65.153 12.9695 845 64.1503 1308.67 552.006
430 0 67.0936 12.8626 863 64.6396 1308.65 551.672
431 0 67.0922 12.9374 868 65.4677 1308.4 549.97
432 0 69.1519 12.9425 895 65.2737 1308.51 549.42
433 0 72.1589 12.8882 930 64.6548 1308.25 548.88
434 0 74.1577 12.4734 925 65.3968 1308.3 546.262
435 0 79.1822 13.9425 1104 62.1096 1308.12 546.134
436 0 81.1092 13.303 1079 62.8007 1308.14 545.735
437 0 82.2731 13.0784 1076 63.6599 1308.15 543.648
438 1 44.0447 10.6937 471 63.3503 1307.12 562.979
439 0 47.1291 11.564 545 61.8073 1307.29 562.193
440 0 46.0337 10.8833 501 63.0838 1307.24 561.054
441 0 49.1642 11.9396 587 62.046 1307.86 560.542
442 0 51.1495 12.18 623 61.2087 1307.46 558.953
443 0 52.1154 12.6066 657 61.2253 1307.89 559.58
444 0 54.145 12.2634 664 61.988 1308.02 559.61
445 0 55.1562 12.4193 685 62.1942 1308.18 560.064
446 0 57.1734 12.4009 709 62.3343 1307.79 558.032
447 0 59.2088 12.971 768 61.4831 1307.83 556.598
448 0 61.2243 12.1847 746 62 1307.58 556.966
449 0 63.2215 12.0212 760 61.6711 1307.99 556.449
450 0 65.1477 13.0166 848 61.0342 1307.99 552.956
451 0 68.1513 11.3277 772 62.4028 1308.26 552.76
452 0 68.1968 12.4639 850 61.2306 1307.61 551.716
453 0 71.161 13.2657 944 60.1282 1306.83 551.558
454 0 75.2385 13.1183 987 59.9574 1306.86 549.725
455 0 77.1153 12.7082 980 60.9235 1307.28 547.117
456 0 79.19 12.1227 960 61.8979 1307.05 546.212
457 0 82.1244 12.9925 1067 60.7741 1307.12 544.291
458 0 83.2305 12.7597 1062 61.7345 1306.9 543.905
459 0 88.0848 12.5107 1102 61.5082 1307.17 543.576
460 1 49.0235 10.1584 498 62.761 1306.96 562.319
461 0 48.0271 10.6398 511 62.4951 1306.43 562.186
462 0 51.0335 11.1691 570 61.2298 1306.73 562.596
463 0 50.0161 10.9165 546 62.8553 1305.93 562.59
464 0 55.0624 11.6413 641 61.4041 1306.28 559.856
465 0 56.0346 12.3674 693 61.0404 1306.5 558.675
466 0 54.1294 12.1006 655 61.0443 1307.17 559.731
467 0 59.1794 12.4705 738 60.019 1306.84 558.473
468 0 59.1858 12.0637 714 61.6457 1306.4 557.927
469 0 60.3102 11.2419 678 62.9366 1306.81 558.24
470 0 62.1449 12.5674 781 61.4827 1306.57 554.896
471 0 63.1073 11.7736 743 62.8412 1306.68 555.713
472 0 66.1839 12.6315 836 61.9569 1306.85 553.917
473 0 68.179 12.2325 834 62.5683 1306.48 552.62
474 0 70.2454 12.2001 857 62.7293 1306.87 552.758
475 0 73.2153 13.2486 970 61.2052 1307.2 551.824
476 0 76.2722 12.888 983 61.7233 1307.2 550.919
477 0 78.0956 13.0609 1020 61.4716 1307.33 547.89
478 0 81.0907 13.3924 1086 61.1961 1307.16 547.085
479 1 45.0349 10.3475 466 63.8219 1306.29 564.785
480 0 46.0405 10.7731 496 63.4456 1306.76 564.821
481 0 49.0841 10.7163 526 63.1236 1306.54 564.692
482 0 50.0133 10.5172 526 64.2148 1306.5 563.268
483 0 51.0482 11.3618 580 62.1293 1306.82 562.445
484 0 51.0285 12.0129 613 62.1175 1306.72 561.326
485 0 54.0268 12.3272 666 61.461 1307.08 561.803
486 0 54.1134 11.8455 641 63.1076 1308.09 561.105
487 0 57.1879 12.3103 704 62.8068 1308.16 559.357
488 0 59.2007 12.4154 735 63.0272 1307.93 559.371
489 0 59.1106 12.4851 738 63.7033 1307.88 558.011
490 0 61.1483 12.2489 749 64.1135 1307.99 557.689
491 0 64.1073 12.9938 833 63.2953 1308.22 557.232
492 0 65.1257 13.5123 880 62.4955 1308.37 555.653
493 0 67.1668 13.6228 915 62.8568 1308.14 553.59
494 0 68.1337 13.1653 897 63.699 1308.39 551.759
495 0 70.3147 13.2547 932 63.6996 1308.21 550.8
496 0 73.1595 13.4091 981 63.0316 1308.09 550.514
497 0 71.1367 12.4971 889 65.8088 1307.82 547.381
498 0 76.1209 12.4539 948 65.3555 1308.39 546.552
499 0 80.2322 13.4859 1082 63.2939 1308.09 545.723
500 0 83.2048 13.9175 1158 62.4827 1308.07 545.636
501 0 82.1769 12.9355 1063 64.9229 1308.74 543.186
502 0 87.2313 13.8024 1204 63.5664 1308.5 540.928
503 0 88.1736 13.7343 1211 64.213 1308.64 540.088
504 0 91.2727 13.2131 1206 65.1758 1308.85 538.682
505 0 92.146 13.4026 1235 65.8534 1309.03 536.642
506 0 95.2111 13.4228 1278 66.1768 1308.62 534.834
507 0 99.1201 13.4887 1337 66.1167 1309.36 533.159
508 0 103.375 14.491 1498 64.2477 1309.16 531.073
509 1 53.0916 10.2653 545 66.8917 1308.94 557.969
510 0 55.0344 10.9023 600 66.4083 1308.89 557.342
511 0 57.1271 12.8135 732 64.4577 1309.54 553.898
512 0 58.1327 12.0414 700 65.5157 1309.66 554.45
513 0 61.0471 12.302 751 65.4953 1309.37 554.17
514 0 63.1666 12.9024 815 65.4933 1309.32 554.721
515 0 65.1927 12.7468 831 65.4404 1308.26 554.248
516 0 65.0639 12.7567 830 65.2602 1308.43 551.476
517 0 68.1266 13.2107 900 64.1267 1308.46 550.902
518 0 72.119 13.4639 971 62.8816 1308.57 550.519
519 0 73.1636 12.5609 919 64.4298 1308.27 550.319
520 0 74.1091 13.4127 994 63.2767 1308.59 548.339
521 0 79.3794 13.5174 1073 62.5294 1308.64 546.323
522 0 81.3415 13.3634 1087 62.4995 1309.02 545.978
523 0 81.3415 13.3634 1087 162.9 1310.02 545.978
524 0 83.2819 13.4843 1123 63.0116 1310.02 544.289
525 0 87.2225 12.4738 1088 64.3667 1310.14 541.28
526 0 90.3891 13.0436 1179 63.5852 1310.38 539.022
527 1 48.2833 11.3083 546 63.0165 1310.13 561.742
528 0 47.3439 10.9623 519 63.9788 1310.46 560.759
529 0 51.1965 11.8367 606 62.033 1310.86 561.213
530 0 50.216 11.3908 572 63.7483 1310.59 558.038
531 0 54.1323 12.8759 697 61.1722 1311.03 558.679
532 0 55.131 12.2254 674 62.5994 1310.57 557.205
533 0 57.1014 12.5741 718 61.8565 1310.69 556.096
534 0 59.139 13.6627 808 60.4245 1311.26 553.278
535 0 61.1322 13.8389 846 59.7128 1311 553.81
536 0 63.1707 13.6772 864 59.978 1311 552.734
537 0 65.1738 13.2722 865 60.3376 1310.6 552.036
538 0 66.1661 13.1487 870 60.6161 1311.15 551.051
539 0 69.1632 13.244 916 60.3996 1311.43 549.309
540 0 71.1806 13.0232 927 60.5685 1310.9 548.304
541 0 72.1703 13.5374 977 60.6735 1311.14 547.118
542 0 74.2737 13.0733 971 61.1514 1310.47 546.069
543 0 78.1479 13.7176 1072 60.3722 1310.64 546.246
544 0 81.0778 14.0236 1137 59.6922 1310.22 542.934
545 0 82.1807 12.7767 1050 61.9638 1310.28 542.967
546 0 85.1269 13.0276 1109 61.6916 1309.89 542.06
547 0 90.0587 13.7022 1234 60.4449 1309.59 540.709
548 0 90.1734 13.4851 1216 61.5913 1309.75 537.737
549 1 51.0192 11.0351 563 62.8757 1309.37 557.435
550 0 53.049 11.2538 597 62.4171 1309.02 558.161
551 0 52.1189 11.5121 600 63.3233 1309.23 558.807
552 0 57.0333 12.8346 732 61.8784 1309.53 557.06
553 0 58.0889 13.0662 759 62.2464 1310.07 555.631
554 0 59.05 13.1753 778 62.3278 1309.48 555.627
555 0 61.0627 13.0849 799 62.8523 1310.35 554.416
556 0 64.144 13.8594 889 61.3273 1310.14 554.393
557 0 65.0684 13.7394 894 62.0548 1309.65 552.507
558 0 67.1107 13.3362 895 62.9274 1309.88 551.959
559 0 69.1238 12.7597 882 64.0522 1309.22 550.655
560 0 73.1705 13.571 993 63.2951 1309.41 548.759
561 0 74.2075 13.3006 987 64.2857 1308.98 547.842
562 0 77.1489 14.1415 1091 62.8781 1309.18 547.538
563 0 79.0848 12.5561 993 65.6939 1308.78 546.749
564 1 44.1236 10.9012 481 64.8212 1308.22 564.139
565 0 45.1445 11.6736 527 64.2087 1308.03 563.461
566 0 46.0747 12.0674 556 64.3147 1307.73 561.54
567 0 48.034 12.5744 604 64.7384 1308.11 559.753
568 0 51.0733 13.0401 666 63.7973 1308.65 559.961
569 0 52.1462 12.8868 672 63.6935 1308.76 560.262
570 0 51.194 12.7163 651 65.3257 1308.82 559.834
571 0 53.0664 12.8518 682 65.9692 1308.79 558.507
572 0 54.0668 12.9285 699 65.5422 1308.75 557.82
573 0 55.1338 12.6238 696 66.9598 1308.85 557.296
574 0 56.1444 12.6994 713 66.3086 1308.79 556.879
575 0 61.1475 12.6579 774 65.7778 1308.4 556.016
576 0 61.0618 12.8558 785 66.7146 1308.19 555.293
577 0 62.088 13.2876 825 66.1782 1307.69 554.754
578 0 65.0731 13.0161 847 66.0531 1307.34 554.809
579 0 68.1066 13.3027 906 64.5066 1307.88 554.507
580 0 70.2041 12.9337 908 65.6795 1307.31 551.808
581 0 73.0787 12.986 949 64.8114 1307.32 550.599
582 0 74.253 13.2655 985 64.4792 1307.6 548.572
583 0 77.1506 12.9098 996 64.6727 1306.89 548.045
584 0 82.094 14.3859 1181 61.9949 1307.13 548.456
585 0 83.0788 13.5775 1128 63.9255 1307.14 544.659
586 1 46.0915 11.7592 542 63.8303 1307.14 565.22
587 0 46.0396 11.9462 550 63.7255 1306.12 564.625
588 0 48.0307 12.3671 594 63.8316 1306.69 563.783
589 0 49.0744 12.6746 622 62.9662 1306.52 562.309
590 0 48.2026 12.3437 595 64.0739 1306.51 561.509
591 0 53.2236 12.3254 656 63.0655 1306.31 561.506
592 0 53.1834 12.4851 664 62.7605 1306.06 561.405
593 0 55.1665 12.2719 677 63.1787 1306 560.973
594 0 55.2052 11.6293 642 64.6168 1306.29 558.145
595 0 58.1375 12.9005 750 61.456 1306.32 558.528
596 0 60.1886 13.574 817 59.951 1306.43 558.536
597 0 63.1214 13.3711 844 60.3732 1306.29 556.329
598 0 65.1549 12.9691 845 59.6414 1306.47 556.946
599 0 66.1376 12.4589 824 60.517 1306.52 553.297
600 0 67.1438 12.4807 838 60.7399 1306.46 553.222
601 0 71.1002 13.4317 955 58.5958 1305.88 553.691
602 0 73.1649 12.8067 937 59.5155 1306.17 552.039
603 0 74.1819 12.7255 944 59.5127 1306.17 549.804
604 0 79.2066 13.1807 1044 57.5862 1305.85 550.287
605 0 82.2318 13.2187 1087 57.6771 1306.57 549.184
606 0 86.1716 13.0205 1122 57.4207 1306.15 547.119
607 0 88.2115 12.3453 1089 58.7466 1306.42 545.546
608 0 91.3302 12.8982 1178 58.8455 1306.06 543.127
609 1 50.0547 10.948 548 59.1588 1305.51 561.757
610 0 53.1341 12.4402 661 57.7716 1305.62 560.821
611 0 53.143 11.0269 586 60.2662 1305.67 560.191
612 0 54.1129 11.5499 625 59.6224 1305.96 560.475
613 0 57.0486 12.4631 711 59.1336 1306.68 558.878
614 0 57.0896 12.1914 696 59.7529 1306.6 557.682
615 0 59.1028 12.5036 739 59.6089 1306.86 555.923
616 0 62.0774 12.8066 795 59.1082 1306.55 555.146
617 0 66.0786 12.6516 836 59.0981 1306.92 553.115
618 0 67.1909 13.4989 907 58.0485 1306.91 553.006
619 0 70.1193 13.42 941 57.6727 1306.94 552.05
620 0 71.2594 12.5176 892 58.9709 1306.88 550.974
621 0 73.1894 13.1166 960 58.9594 1306.52 549.735
622 0 75.2721 13.046 982 59.6375 1307.01 548.395
623 0 80.3884 13.2357 1064 59.0348 1307.13 547.306
624 0 80.2349 12.8373 1030 60.2408 1306.83 544.794
625 0 83.5099 12.9565 1082 59.39 1307.23 542.405
626 0 87.4411 13.6778 1196 58.3679 1307.67 540.491
627 1 43.2464 10.6136 459 60.6362 1308.15 561.991
628 0 47.1617 11.7256 553 59.4051 1308 560.421
629 0 50.2818 12.3703 622 58.5804 1307.93 561.289
630 0 50.0848 11.9198 597 60.206 1307.58 561.911
631 0 51.0693 12.2774 627 60.8628 1307.2 560.949
632 0 52.0582 11.9482 622 60.828 1307.36 560.952
633 0 55.0606 12.8222 706 59.5992 1307.61 558.769
634 0 56.0897 12.1591 682 60.7346 1307.33 558.754
635 0 59.1692 13.1149 776 59.3918 1308.01 557.175
636 0 62.0287 13.0101 807 59.2689 1307.67 555.7
637 0 63.0402 13.6579 861 58.547 1308.16 554.747
638 0 64.232 13.3111 855 59.6269 1308.45 553.09
639 0 66.2703 13.4902 894 58.7841 1308.75 553.324
640 0 70.136 13.1887 925 58.9416 1308.7 552.279
641 0 70.136 13.1316 921 154.772 1307.7 552.246
642 0 71.2414 13.5315 964 59.7448 1309.61 549.814
643 0 76.2596 13.9261 1062 58.6949 1310.14 548.35
644 0 78.1223 13.5685 1060 59.1066 1310.45 545.582
645 1 43.0893 10.9076 470 62.4128 1311.07 561.687
646 0 44.1202 10.4487 461 62.6898 1311.02 561.989
647 0 46.1406 11.4216 527 60.6338 1311.73 562.15
648 0 48.1581 12.5628 605 59.3058 1311.66 561.185
649 0 48.0731 12.4186 597 60.5662 1310.96 559.709
650 0 51.0315 12.2081 623 60.3451 1310.59 558.708
651 0 51.4133 13.09 673 60.0342 1309.18 557.618
652 0 52.2847 12.6997 664 60.6536 1308.9 556.846
653 0 54.1446 13.2608 718 59.7981 1309.08 557.68
654 0 57.2681 12.782 732 60.2527 1309.41 556.097
655 0 58.1442 13.8793 807 59.223 1310.07 554.617
656 0 62.1946 13.9883 870 58.5816 1309.73 553.285
657 0 61.1193 13.0073 795 60.5333 1309.91 553.356
658 0 66.1974 13.9129 921 58.5451 1310.12 550.663
659 0 68.2164 13.6038 928 58.8944 1310.14 550.165
660 0 69.2373 13.3165 922 59.4187 1310.5 549.671
661 0 74.1655 13.9553 1035 57.5498 1309.5 548.207
662 0 74.1061 14.0474 1041 57.9866 1309.68 546.678
663 0 78.1483 13.7303 1073 57.6841 1309.8 547.05
664 0 81.3235 14.0796 1145 57.1389 1309.71 545.545
665 0 84.0845 13.8432 1164 57.6787 1309.74 544.101
666 0 85.2187 13.4125 1143 58.958 1310.61 540.901
667 0 89.0815 14.0545 1252 57.5583 1310.62 537.944
668 0 90.2266 13.1114 1183 59.1708 1311.12 539.082
669 0 92.2336 14.1597 1306 58.0145 1311.02 536.041
670 0 95.1778 13.5221 1287 58.8586 1310.91 535.667
671 1 51.0764 11.6884 597 59.0268 1310.72 557.427
672 0 53.1408 10.9709 583 59.8937 1311.13 557.333
673 0 54.1054 12.7159 688 58.0756 1311.39 556.331
674 0 55.1269 12.2989 678 59.2891 1311.68 555.839
675 0 58.0995 12.6507 735 58.4912 1312.18 553.597
676 0 58.1339 12.3336 717 59.1283 1312.1 554.544
677 0 60.0691 12.9018 775 58.6748 1311.87 553.426
678 0 62.0533 13.1983 819 58.5751 1311.88 549.941
679 0 64.1298 12.9893 833 58.5474 1312.12 549.359
680 0 66.0839 13.5131 893 57.9115 1312.08 549.226
681 0 67.0926 12.8479 862 59.297 1312.39 549.049
682 0 71.0692 13.8879 987 57.4448 1312.32 548.594
683 0 72.1909 13.8245 998 58.2786 1312.74 547.391
684 0 74.1627 12.931 959 60.0292 1313.1 544.577
685 0 76.2361 13.209 1007 60.2493 1312.96 543.668
686 0 79.2494 12.7698 1012 60.8034 1312.63 542.718
687 0 83.1283 13.5814 1129 59.6572 1312.69 542.775
688 0 85.3132 14.4058 1229 59.0496 1312.51 539.233
689 0 86.132 13.8044 1189 60.8747 1312.27 536.901
690 0 92.2749 13.4164 1238 60.525 1312.13 537.46
691 0 93.1618 13.5571 1263 60.9279 1312.14 534.357
692 0 97.3845 13.8215 1346 60.0371 1312.08 533.43
693 0 98.2346 13.763 1352 60.4556 1311.99 532.396
694 0 103.218 13.3601 1379 60.5431 1311.26 532.135
695 0 106.229 13.6404 1449 60.2719 1311.44 529.876
696 0 109.366 13.8526 1515 60.1221 1312.05 527.185
697 0 113.356 14.3354 1625 59.3262 1311.92 525.428
698 1 58.1638 10.8143 629 61.9046 1311.96 552.199
699 0 61.0428 10.894 665 61.8947 1311.96 551.361
700 0 64.1698 12.6384 811 60.1319 1311.37 551.233
701 0 66.2444 11.0651 733 61.9714 1311.38 550.139
702 0 68.1636 12.6754 864 61.1644 1311.12 546.226
703 0 72.1309 13.323 961 60.0905 1310.9 547.426
704 0 73.0488 13.005 950 61.1453 1311.16 547.497
705 0 76.1215 13.1763 1003 60.9731 1310.59 545.014
706 0 80.1975 13.1052 1051 60.6242 1310.38 541.195
707 0 82.1343 13.2344 1087 60.5593 1310.36 541.141
708 0 86.2884 13.084 1129 60.4588 1309.94 539.399
709 0 87.2296 13.837 1207 60.0928 1309.73 537.394
710 0 94.3594 13.6075 1284 59.4424 1309.61 536.242
711 0 95.283 13.3077 1268 60.3281 1309.35 534.827
712 0 100.321 13.5963 1364 59.7683 1309.22 534.687
713 1 52.0728 11.6184 605 61.2264 1310.51 558.772
714 0 55.065 12.2946 677 60.1817 1310.23 557.313
715 0 54.4019 12.2606 667 61.4288 1310.12 556.282
716 0 57.0635 12.3196 703 60.9189 1309.75 557.853
717 0 57.0606 12.18 695 62.2446 1309.69 555.495
718 0 60.1007 12.8118 770 60.9481 1309.56 554.922
719 0 63.1181 11.9142 752 61.8484 1309.49 553.532
720 0 64.0699 13.1731 844 60.0296 1308.77 553.372
721 0 65.1574 12.5542 818 61.3802 1309.15 552.696
722 0 69.0347 13.0369 900 60.0844 1309.06 552.15
723 0 69.0596 12.8005 884 61.5464 1308.73 549.697
724 0 71.1489 12.9447 921 61.3474 1308.76 548.786
725 0 75.121 13.8843 1043 60.3547 1308.77 546.827
726 0 77.1793 13.3974 1034 60.2563 1308.35 547.086
727 0 78.2536 13.009 1018 61.1071 1307.63 544.342
728 0 82.2801 12.7491 1049 61.6969 1307.73 544.089
729 1 43.2212 11.1982 484 58.8616 1307.45 566.196
730 0 42.0998 10.5226 443 61.2889 1306.91 563.44
731 0 44.1468 10.533 465 61.4774 1306.71 562.92
732 0 45.2963 10.8177 490 61.3755 1306.83 561.631
733 0 46.3041 11.2085 519 60.7534 1307.07 561.927
734 0 48.3297 11.4009 551 60.7042 1307.18 560.947
735 0 49.3269 11.4947 567 59.4004 1307.03 560.224
736 0 52.4125 12.4016 650 57.9123 1306.8 559.266
737 0 53.0615 11.8542 629 59.194 1306.3 560.544
738 0 54.148 12.4474 674 59.1869 1306.35 558.488
739 0 56.1948 12.7948 719 57.9875 1306.18 558.967
740 0 57.2856 12.7606 731 58.6553 1305.86 557.112
741 0 59.4095 12.7084 755 58.8331 1306.33 556.16
742 0 60.1953 12.8083 771 58.8495 1306.57 556.201
743 0 63.4077 13.7207 870 57.5379 1306.29 554.811
744 0 62.358 12.2999 767 60.1695 1306.42 554.405
745 0 64.6684 13.2213 855 58.9626 1306.11 552.458
746 0 66.5891 12.5096 833 59.7779 1306.61 549.935
747 0 70.4702 13.7789 971 57.759 1305.85 551.098
748 0 70.6308 13.1387 928 58.7974 1306.01 551.168
749 0 73.5411 12.9723 954 58.9623 1305.95 547.444
750 0 75.6127 12.855 972 59.2027 1305.56 546.119
751 0 78.4585 13.4339 1054 58.0873 1305.25 546.992
752 0 80.4638 12.6889 1021 59.9109 1304.95 544.659
753 0 84.6528 13.5258 1145 58.7362 1304.73 545.213
754 0 84.7494 12.5665 1065 60.7052 1305.04 542.072
755 0 90.7824 13.6811 1242 58.7407 1304.83 541.11
756 0 92.5769 13.5239 1252 59.5966 1304.81 540.201
757 0 94.3896 13.3489 1260 60.4675 1305.1 536.565
758 1 54.4466 11.1302 606 61.0677 1304.71 559.314
759 0 56.3177 11.3463 639 61.169 1304.9 558.579
760 0 57.2467 11.6513 667 62.5892 1304.91 558.349
761 0 60.3585 12.2269 738 61.145 1304.95 555.45
762 0 61.2334 12.6238 773 61.1332 1305.07 554.731
763 0 62.2067 11.3814 708 63.2994 1305.13 554.951
764 0 64.1722 12.3418 792 62.6995 1305.08 553.894
765 0 68.2359 13.0283 889 60.9111 1304.37 553.538
766 0 72.2771 13.7941 997 59.7753 1304.03 551.55
767 0 73.1222 12.1851 891 62.908 1304.31 550.089
768 0 75.3041 12.7881 963 61.2575 1304.24 550.01
769 0 79.1821 13.0333 1032 61.2287 1304.38 546.631
770 0 81.116 13.6964 1111 60.324 1304.31 545.699
771 0 83.2389 13.1549 1095 61.705 1304.75 544.722
772 0 84.2613 12.39 1044 63.2414 1305.01 542.974
773 0 88.181 13.0187 1148 62.6402 1304.53 541.853
774 0 90.1863 14.3481 1294 60.6847 1304.55 541.077
775 0 91.2412 12.878 1175 63.5149 1304.67 539.708
776 1 53.1297 10.3144 548 61.5456 1304.79 558.719
777 0 52.0637 8.68167 452 61.8938 1305.03 560.551
778 0 53.13 10.6719 567 60.7196 1305.21 556.42
779 0 55.1411 10.4278 575 61.5078 1305.23 555.137
780 0 58.0628 11.9009 691 60.1896 1304.91 554.644
781 0 57.1812 10.6853 611 62.0131 1304.93 555.732
782 0 60.1293 10.5772 636 62.8035 1305.56 555.164
783 0 63.0887 12.1258 765 62.7477 1306.16 556.09
784 0 66.2834 12.2203 810 62.3148 1306.62 557.005
785 0 69.0528 11.9763 827 62.7013 1306.61 554.914
786 0 68.1921 11.6289 793 63.9521 1306.74 553.839
787 0 72.1321 12.4217 896 63.0513 1306.69 552.708
788 0 74.1755 13.1715 977 62.0471 1306.67 552.293
789 0 76.1586 12.9861 989 62.7877 1306.76 551.253
790 0 78.2116 12.1593 951 63.816 1307.26 549.53
791 0 79.1534 12.3179 975 63.9344 1307.4 547.912
792 0 83.2137 12.6782 1055 63.8938 1308.02 544.761
793 1 45.1512 10.5424 476 62.3277 1307.84 565.775
794 0 46.0817 10.7635 496 61.8669 1307.25 565.966
795 0 48.1357 11.4052 549 62.0364 1307.51 562.805
796 0 49.0396 11.1542 547 61.3766 1307.2 562.717
797 0 50.2922 12.3479 621 61.4509 1308.09 561.575
798 0 52.3495 11.9581 626 61.2045 1308.21 560.438
799 0 53.2874 12.5358 668 60.6527 1308.21 561.12
800 0 56.2743 13.5053 760 58.6776 1308.32 560.642
801 0 56.2212 11.8994 669 60.9193 1308.92 558.795
802 0 58.0962 12.5137 727 60.2834 1308.56 557.402
803 0 58.1092 12.7691 742 59.8315 1309.18 555.722
804 0 59.2064 12.1271 718 60.7883 1309.17 556.539
805 0 62.2921 12.5056 779 59.9307 1309.34 554.913
806 0 65.1473 12.6176 822 59.4891 1309.3 553.533
807 0 66.1918 12.358 818 59.3851 1309.75 552.039
808 0 67.1536 11.5407 775 60.2206 1309.99 552.044
809 0 72.1526 13.0141 939 57.6997 1309.46 550.367
810 0 71.0716 12.2412 870 58.8793 1309.59 549.432
811 0 74.3245 11.8265 879 59.1195 1309.66 547.21
812 0 79.2882 12.1834 966 57.9265 1309.7 547.734
813 0 81.2362 12.6175 1025 57.6683 1310.12 543.637
814 1 41.0544 10.6201 436 58.0482 1309.78 563.268
815 0 45.0573 11.2079 505 55.9168 1309.87 563.18
816 0 45.0457 10.9 491 56.2383 1309.93 562.919
817 0 47.0738 11.1314 524 55.5267 1310.54 562.794
818 0 47.0935 11.2542 530 55.4491 1310.61 562.226
819 0 49.0767 11.5126 565 55.0796 1310.79 560.202
820 0 51.0722 11.3173 578 54.5536 1310.36 561.522
821 0 51.2434 12.0991 620 54.3145 1309.5 560.129
822 0 53.1976 11.2599 599 55.3255 1309.38 557.628
823 0 54.1993 11.6976 634 55.347 1309.11 558.525
824 0 56.1556 12.501 702 53.933 1309.17 556.9
825 0 56.2179 11.4554 644 55.1273 1309.2 556.076
826 0 60.1928 12.8919 776 53.6418 1308.77 555.077
827 0 60.0731 12.5514 754 54.2639 1309.23 553.675
828 0 65.1887 12.1493 792 54.0669 1310.13 553.283
829 0 67.3587 12.3221 830 54.4036 1309.79 552.127
830 0 68.212 12.4612 850 54.3012 1309.41 550.818
831 1 38.2903 9.4541 362 53.5497 1308.77 569.459
832 0 36.1111 10.08 364 55.9313 1308.82 566.426
833 0 41.0797 10.3701 426 54.3357 1309.07 566.427
834 0 40.1041 10.9216 438 54.5731 1308.08 566.105
835 0 42.0278 10.8975 458 55.1441 1307.24 563.972
836 0 42.0978 11.402 480 55.0729 1308.58 562.856
837 0 45.1644 11.6685 527 54.1309 1308.01 563.275
838 0 45.1936 11.6388 526 54.711 1308.22 563.027
839 0 47.1593 11.6838 551 54.5082 1308 561.693
840 0 47.147 11.7929 556 55.2446 1307.91 561.099
841 0 48.1608 12.4375 599 54.8397 1308.17 560.511
842 0 50.2532 12.5763 632 54.837 1307.36 560.055
843 0 53.1492 12.7754 679 54.5714 1307.54 558.928
844 0 55.4423 12.6618 702 54.4302 1307.52 558.625
845 0 55.3608 12.1747 674 56.0089 1307.42 559.3
846 0 57.3083 11.9878 687 56.8355 1307.63 557.151
847 0 59.2654 13.3299 790 54.9873 1306.81 558.101
848 0 59.4082 12.2374 727 57.2036 1306.89 556.462
849 0 61.4556 12.0737 742 57.8841 1306.79 554.655
850 0 65.3988 13.0584 854 56.2412 1306.78 553.267
851 0 67.4264 12.9623 874 56.7243 1306.77 553.257
852 0 67.4716 12.8647 868 57.2661 1306.5 551.612
853 0 71.5808 13.6349 976 56.0512 1306.18 550.436
854 0 72.3934 13.0122 942 57.5934 1306.49 548.203
855 1 37.4685 10.3821 389 57.9614 1306.18 567.283
856 0 39.5052 10.6315 420 58.0143 1306.17 565.44
857 0 38.3657 11.3383 435 56.8437 1306.31 566.811
858 0 40.4239 10.6373 430 58.407 1306.34 564.749
859 0 41.2713 11.2911 466 57.3541 1306.04 565.74
860 0 43.3584 11.9239 517 56.0812 1306.37 565.358
861 0 44.2126 12.1459 537 56.5698 1306.45 565.289
862 0 45.2146 12.5623 568 56.4507 1306.2 564.866
863 0 45.1596 12.6883 573 56.9476 1306.33 565.4
864 0 46.1807 11.8664 548 58.5347 1306.24 564.113
865 0 47.2497 11.9366 564 58.9273 1305.84 562.904
866 0 48.1191 12.3028 592 59.9307 1306.25 561.338
867 0 51.3446 13.5165 694 58.2233 1306.47 561.506
868 0 52.0908 12.3438 643 60.493 1306.7 561.16
869 0 53.1989 12.613 671 60.9106 1306.54 560.173
870 0 54.1805 13.1597 713 60.3478 1306.13 560.048
871 0 55.063 12.6582 697 62.0818 1305.84 558.631
872 0 56.3329 13.5977 766 60.7245 1305.85 558.111
873 0 58.2557 13.0116 758 61.4274 1305.64 556.983
874 0 59.2588 12.3357 731 62.6553 1305.55 556.415
875 0 62.3729 13.4514 839 61.1466 1305.08 553.53
876 0 65.2473 12.8741 840 61.7619 1305.5 553.43
877 0 66.2543 13.1765 873 61.992 1305.44 553.241
878 0 68.0806 13.0581 889 63.5354 1305.79 553.438
879 0 70.3838 13.4974 950 66.9158 1305.53 552.986
880 0 73.3034 13.41 983 67.0692 1305.4 550.379
881 0 76.2585 13.3362 1017 67.765 1305.26 549.706
882 0 77.3214 13.3857 1035 68.8686 1305.04 548.151
883 0 80.1936 12.9686 1040 70.3135 1305.21 547.483
884 0 84.4543 13.5576 1145 70.607 1305.03 545.064
885 1 45.2513 11.2925 511 71.818 1304.41 562.605
886 0 46.22 10.5149 486 74.9691 1305.26 564.599
887 0 48.0699 11.9409 574 75.0244 1305.46 562.941
888 0 48.2355 11.506 555 82.6054 1306.03 563.276
889 0 52.1182 13.0856 682 87.8167 1305.95 562.355
890 0 53.1717 12.0929 643 75.93 1305.4 562.184
891 0 52.1201 12.241 638 64.1818 1306.43 561.669
892 0 55.136 12.3331 680 62.9456 1306.63 560.713
893 0 55.2055 11.9734 661 63.8593 1306.97 559.292
894 0 55.2055 11.9191 658 172.777 1306.98 559.409
895 0 60.1868 11.9628 720 65.6042 1306.94 556.714
896 0 63.2121 12.2919 777 64.7568 1306.89 556.909
897 0 64.1936 12.5558 806 65.0062 1306.93 554.865
898 0 65.2367 13.1061 855 65.1462 1307.2 554.185
899 0 68.2572 13.0096 888 64.8176 1307.53 553.193
900 0 70.1288 12.9191 906 65.7318 1308.08 551.667
901 0 73.293 13.3846 981 65.0785 1308.31 550.235
902 0 73.2714 13.1156 961 67.0718 1308.42 548.672
903 0 76.3446 13.4522 1027 66.0613 1308.63 548.041
904 0 79.2878 13.1672 1044 67.1686 1308.99 545.193
905 0 82.346 13.6983 1128 66.3271 1309.17 543.836
906 1 45.1642 10.8493 490 69.3347 1309.4 560.812
907 0 48.1936 11.2048 540 66.9833 1309.09 562.256
908 0 47.2157 10.7168 506 68.8913 1308.91 560.447
909 0 47.2054 11.9054 562 67.8861 1309.15 560.13
910 0 48.2308 12.0877 583 67.7427 1309.3 559.702
911 0 49.1459 11.4353 562 68.7651 1309.31 559.776
912 0 52.312 12.1387 635 68.9449 1309.92 558.351
913 0 54.18 12.4031 672 67.0045 1309.61 558.562
914 0 57.1635 12.368 707 67.041 1309.74 557.18
915 0 59.2443 12.5582 744 66.5914 1309.88 555.671
916 0 59.1571 12.6443 748 66.8676 1309.98 555.578
917 0 62.1578 13.1118 815 65.919 1309.98 554.277
918 0 64.1621 12.7178 816 66.576 1310.53 553.391
919 0 67.1125 13.7232 921 64.6374 1310.24 551.446
920 0 67.2714 13.78 927 65.1359 1310.36 550.478
921 0 71.2722 12.4032 884 66.3088 1310.27 548.984
922 0 73.1895 13.7861 1009 63.9227 1310.35 548.482
923 0 76.1398 14.1844 1080 63.7963 1310.38 546.769
924 0 77.1581 12.9474 999 66.3774 1310.57 544.738
925 0 79.18 13.3241 1055 65.6076 1310.69 543.95
926 0 82.1144 13.2498 1088 65.9412 1310.28 544.771
927 0 85.1101 13.2299 1126 65.873 1310.47 540.876
928 0 88.1552 12.8296 1131 66.6561 1310.68 540.064
929 0 93.1807 14.0909 1313 64.3534 1310.42 538.493
930 0 94.1735 13.284 1251 66.3102 1311.16 535.944
931 0 96.1836 13.3599 1285 65.5767 1310.72 535.653
932 0 101.113 13.3415 1349 65.9073 1311.07 534.504
933 1 53.0414 11.4439 607 66.9703 1310.3 559.835
934 0 55.1051 11.2875 622 67.5466 1311.45 558.426
935 0 57.1246 11.9388 682 66.5777 1310.44 558.17
936 0 57.1426 12.3376 705 67.3986 1310.64 555.922
937 0 61.1397 12.7577 780 66.8628 1310.42 554.586
938 0 63.1972 12.4531 787 67.0508 1309.76 554.51
939 0 65.0646 13.8631 902 65.3902 1310 553.418
940 0 66.0483 13.6718 903 65.7309 1310.54 551.256
941 0 68.124 13.7103 934 65.6253 1309.81 550.294
942 0 71.1859 13.9915 996 65.1536 1309.82 546.913
943 0 72.2373 13.691 989 66.2103 1310.07 545.981
944 0 74.1575 13.7006 1016 66.5522 1309.81 546.129
945 0 75.1525 13.5458 1018 67.3114 1309.86 545.922
946 0 78.214 13.6676 1069 67.3863 1309.72 544.221
947 0 81.2675 13.8555 1126 67.1723 1308.96 542.869
948 0 85.1626 13.9146 1185 66.735 1309.32 540.779
949 0 88.2648 15.2269 1344 64.7195 1309.67 536.451
950 0 89.2596 14.7323 1315 66.0403 1309.29 536.889
951 0 92.228 13.7377 1267 68.0095 1308.82 536.199
952 0 96.2629 14.1799 1365 67.5465 1308.7 535.621
953 0 99.1917 13.4789 1337 68.356 1308.59 533.593
954 0 102.287 14.0683 1439 67.9437 1308.5 533.481
955 0 102.329 12.8897 1319 70.8666 1308.55 531.788
956 1 54.0646 11.7452 635 68.6709 1309.28 559.027
957 0 54.0459 11.3977 616 69.7646 1308.97 557.313
958 0 56.04 12.1699 682 67.7537 1308.45 560.257
959 0 57.1449 13.037 745 67.8886 1307.71 556.119
960 0 60.4017 12.5162 756 68.0344 1307.47 555.631
961 0 61.2132 13.1181 803 66.6252 1307.69 554.892
962 0 65.2709 13.038 851 64.9001 1307.75 553.74
963 0 67.1047 12.1601 816 65.6348 1307.8 552.05
964 0 70.0565 12.9181 905 64.3017 1307.25 551.423
965 0 71.1037 13.1217 933 64.2465 1307.31 549.377
966 0 73.0778 13.4377 982 63.3931 1307.46 548.674
967 0 75.1007 12.6763 952 64.75 1307.37 546.513
968 0 76.1468 12.6335 962 64.7069 1307.56 546.285
969 0 79.1265 12.1451 961 65.538 1307.53 545.536
970 0 83.2425 12.806 1066 64.122 1307.64 544.917
971 0 86.3515 12.9934 1122 64.0615 1307.78 542.905
972 0 89.1918 13.1851 1176 63.5119 1307.99 540.748
973 0 90.3335 12.8856 1164 64.4064 1307.94 540.032
974 0 93.5169 13.5483 1267 63.2423 1307.5 538.698
975 0 98.5889 12.9934 1281 63.5183 1307.19 535.081
976 0 102.478 13.3687 1370 62.5073 1306.89 534.794
977 0 102.487 12.665 1298 64.6479 1306.56 531.84
978 1 55.3312 10.0486 556 63.8579 1305.79 556.059
979 0 58.3789 10.6717 623 63.7368 1305.83 555.541
980 0 61.2325 11.2522 689 62.9753 1306.97 554.364
981 0 64.3277 12.6384 813 61.3542 1306.69 552.028
982 0 65.2498 13.2108 862 61.6578 1305.86 552.919
983 0 66.2553 13.1612 872 62.2133 1305.75 552.484
984 0 66.2121 12.3542 818 63.8814 1305.97 552.441
985 0 68.2396 12.7785 872 63.4736 1306.2 552.811
986 0 71.1701 12.7863 910 63.9912 1306.28 550.118
987 0 73.1364 12.3605 904 64.5277 1306.49 549.291
988 0 78.1412 12.4646 974 62.9671 1306.48 547.934
989 0 79.2634 13.1713 1044 63.1149 1305.83 545.406
990 0 82.2529 12.7898 1052 63.8432 1305.67 546.638
991 1 44.055 10.3507 456 64.4846 1305.89 565.09
992 0 46.1138 11.4933 530 63.2736 1305.69 564.064
993 0 48.2305 11.4865 554 63.0379 1305.02 563.056
994 0 50.4752 11.8474 598 63.0803 1304.58 561.669
995 0 49.3459 11.4295 564 65.4113 1305 561.401
996 0 51.1373 12.5153 640 63.1 1306.14 561.992
997 0 53.1895 12.7093 676 63.2456 1306.36 560.794
998 0 54.4298 11.8869 647 64.4683 1306.23 559.595
999 0 57.0953 11.9625 683 64.2387 1305.96 558.365
1000 0 59.1943 11.9775 709 63.5755 1306.94 558.339
1001 0 58.1484 12.2961 715 62.6755 1305.64 553.031
1002 0 58.1484 12.2961 715 173.702 1304.64 553.031
1003 0 64.1394 13.0029 834 59.8561 1305.01 553.103
1004 0 64.1263 13.0835 839 60.174 1304.64 551.628
1005 0 68.317 13.3349 911 59.281 1304.69 552
1006 0 70.1968 12.5789 883 60.3035 1305.09 551.294
1007 0 71.1362 12.5674 894 60.7852 1305.32 548.199
1008 0 72.3449 12.8274 928 60.5183 1305.45 547.998
1009 0 76.1726 13.6007 1036 59.1236 1305.7 547.775
1010 0 77.1708 13.1008 1011 60.095 1305.48 547.483
1011 0 82.3201 13.8241 1138 59.7047 1305.96 546.623
1012 0 83.2995 13.3014 1108 60.3032 1305.71 545.31
1013 0 86.2888 12.3191 1063 61.6877 1305.23 543.327
1014 1 46.1128 10.5394 486 61.8148 1304.61 562.144
1015 0 50.0886 10.8009 541 59.7283 1304.46 563.196
1016 0 50.1445 10.9883 551 60.7568 1304.35 560.546
1017 0 52.1629 11.9625 624 59.8173 1304.4 559.013
1018 0 52.0247 10.9948 572 60.472 1305.18 557.524
1019 0 55.1098 12.1757 671 59.4322 1306.95 557.267
1020 0 56.1741 12.1942 685 60.5591 1306.86 557.931
1021 0 58.0929 12.6005 732 59.8743 1306.87 557.305
1022 0 59.1138 11.6386 688 61.266 1307.41 557.714
1023 0 62.1033 12.8335 797 59.5985 1307.15 556.107
1024 0 63.1805 12.678 801 60.4207 1307.35 554.385
1025 0 66.0933 13.1935 872 58.9599 1307.27 554.209
1026 0 66.0671 12.6387 835 60.1581 1307.33 553.231
1027 0 71.0889 13.0963 931 58.5585 1307.54 552.107
1028 0 71.0889 13.1104 932 158.564 1307.53 552.102
1029 0 76.2201 13.2642 1011 57.6568 1308.47 549.065
1030 0 77.0757 12.9353 997 58.4213 1308.28 547.503
1031 0 81.3114 13.0732 1063 57.8504 1308.17 545.293
1032 0 84.1622 13.0225 1096 57.4617 1308.06 543.574
1033 0 86.1432 13.0945 1128 57.1179 1308.53 542.043
1034 0 89.1947 12.994 1159 57.2114 1308.58 541.794
1035 1 47.1043 9.55327 450 58.3622 1308.57 562
1036 0 50.0802 11.1821 560 57.0232 1307.35 563.525
1037 0 50.091 11.6189 582 57.6048 1307.4 561.481
1038 0 51.1089 11.3092 578 58.7093 1308.39 559.957
1039 0 55.1054 11.2693 621 55.934 1308.08 557.601
1040 0 55.0881 11.3636 626 57.6422 1308.63 559.11
1041 0 55.0574 11.8422 652 57.5092 1308.78 558.015
1042 0 60.0441 11.6914 702 56.8632 1308.87 556.358
1043 0 61.1146 11.7975 721 55.9584 1309.03 541.993
1044 0 63.1235 12.4835 788 55.8325 1309.32 543.532
1045 0 66.2295 11.4752 760 56.1816 1309.42 540.584
1046 0 67.1781 12.7423 856 54.854 1309.4 541.46
1047 0 69.0986 12.9525 895 54.2637 1309.29 544.655
1048 0 71.0397 11.7399 834 55.8597 1309.35 544.39
1049 0 72.1282 12.353 891 55.3221 1309.35 540.099
1050 0 75.1782 11.8784 893 55.6663 1309.58 540.334
1051 0 78.1857 12.125 948 55.7605 1309.56 540.083
1052 0 80.2644 11.9978 963 56.1558 1309.98 545.542
1053 0 84.2207 12.5741 1059 55.1483 1309.6 544.669
1054 0 85.1805 12.4089 1057 56.0549 1310.14 543.246
1055 1 47.0624 9.60426 452 56.792 1309.38 561.996
1056 0 48.0481 10.4687 503 54.9742 1309.88 561.761
1057 0 48.0481 10.5311 506 156.387 1310.85 561.704
1058 0 51.1708 11.1782 572 55.4773 1310.02 560.418
1059 0 53.2777 11.2617 600 56.4383 1310.92 559.567
1060 0 56.2025 12.3304 693 55.0361 1310.8 558.697
1061 0 56.3223 11.5762 652 56.2868 1310.6 557.503
1062 0 57.2171 11.6748 668 55.9012 1310.24 555.853
1063 0 59.2427 11.6808 692 56.2847 1309.95 554.845
1064 0 62.2345 11.5209 717 56.5258 1310.13 556.132
1065 0 64.1527 12.8599 825 55.4085 1310.1 554.316
1066 0 65.1796 13.317 868 54.7869 1310.26 553.73
1067 0 68.1841 12.2023 832 56.2608 1310.44 553.081
1068 0 67.1571 12.2697 824 56.9102 1310.11 551.34
1069 0 70.195 12.6647 889 56.0394 1309.91 551.017
1070 0 70.1644 13.2118 927 56.2859 1309.55 549.326
1071 0 73.123 13.0875 957 56.1829 1309.63 549.106
1072 0 75.1869 12.7017 955 56.9016 1309.88 547.248
1073 0 77.23 12.1844 941 57.458 1309.65 547.273
1074 0 78.4198 13.5935 1066 56.1257 1309.28 545.27
1075 0 80.2736 12.856 1032 57.3595 1308.66 544.641
1076 0 83.4291 12.8852 1075 57.2121 1308.44 542.228
1077 0 87.6071 13.2524 1161 57.0947 1308.25 540.827
1078 0 91.487 13.062 1195 56.7824 1308.26 541.064
1079 0 93.5503 13.2763 1242 57.1047 1308.29 536.3
1080 0 95.8191 13.5985 1303 56.647 1308.09 535.101
1081 0 98.7243 12.8742 1271 57.4076 1307.97 534.307
1082 0 99.3512 13.105 1302 57.8379 1308.33 531.178
1083 1 54.9647 9.95185 547 58.5759 1308.3 555.452
1084 0 56.6465 11.4041 646 56.726 1308.14 554.389
1085 0 56.5959 10.4955 594 59.0471 1308.3 554.934
1086 0 57.5771 12.7134 732 56.8852 1307.99 554.037
1087 0 62.7087 12.5182 785 56.7057 1307.94 552.293
1088 0 62.4112 12.4497 777 57.0952 1308.21 553.187
1089 0 62.4736 12.5013 781 57.3496 1307.94 553.228
1090 0 63.663 12.362 787 57.6709 1307.87 550.464
1091 0 64.8256 12.4951 810 57.0963 1307.81 550.564
1092 0 67.8389 11.9843 813 58.4576 1308.22 548.403
1093 0 69.7864 12.7532 890 57.3551 1307.94 548.776
1094 0 71.9005 11.8219 850 59.0435 1307.69 546.555
1095 0 73.8383 12.8118 946 57.9059 1307.7 546.679
1096 0 77.5331 12.8848 999 57.1532 1307.27 544.995
1097 0 78.7742 12.9611 1021 56.2321 1307.36 540.896
1098 0 81.5839 13.6179 1111 55.5284 1307.84 539.841
1099 0 84.7575 12.9782 1100 56.2345 1307.68 539.309
1100 1 46.474 10.5435 490 56.2082 1307.11 557.953
1101 0 44.4856 9.95828 443 57.3567 1306.43 557.788
1102 0 46.3422 11.3288 525 56.7581 1306.67 557.375
1103 0 51.4776 11.3059 582 56.6753 1307.11 557.914
1104 0 50.1823 11.8767 596 57.0688 1307.76 557.943
1105 0 54.047 11.9896 648 56.1543 1307.1 558.184
1106 0 55.0752 12.5465 691 56.0492 1307.97 556.686
1107 0 57.2548 11.6497 667 56.8711 1307.66 558.244
1108 0 58.07 11.2451 653 57.9923 1306.89 555.715
1109 0 61.107 12.879 787 56.1817 1306.71 556.789
1110 0 62.2392 11.97 745 57.0993 1306.87 554.607
1111 0 65.0941 12.889 839 55.5745 1306.61 554.296
1112 0 67.2675 12.3834 833 56.8295 1306.71 553.635
1113 0 69.1458 13.2908 919 55.7388 1306.81 552.848
1114 0 72.3292 12.9961 940 55.3681 1306.98 551.507
1115 0 72.1947 12.494 902 56.5067 1306.25 550.743
1116 0 74.2832 12.062 896 56.9096 1306.17 548.916
1117 1 37.1602 9.76851 363 55.5041 1306.86 567.725
1118 0 39.1037 9.71775 380 55.2842 1306.79 568.366
1119 0 41.2101 11.0652 456 54.3662 1306.86 566.11
1120 0 42.2135 10.968 463 54.3283 1307.04 565.395
1121 0 45.111 12.4582 562 53.1068 1306.06 565.148
1122 0 46.1197 12.0556 556 53.5162 1305.72 564.408
1123 0 45.1635 12.023 543 54.3315 1305.1 562.864
1124 0 46.0701 11.2437 518 54.8861 1305.47 563.537
1125 0 48.0962 10.8117 520 55.1942 1305.96 562.756
1126 0 49.0753 12.2057 599 54.5292 1306.29 562.626
1127 0 51.0505 11.3809 581 55.4406 1305.59 560.943
1128 0 52.1317 11.8354 617 55.4781 1305.99 560.138
1129 0 54.0639 11.7084 633 55.4013 1305.64 561.079
1130 0 55.0391 11.4101 628 56.4395 1305.98 561.139
1131 0 54.1553 11.8179 640 56.7172 1305.91 560.673
1132 0 55.1075 10.9604 604 58.1225 1306.45 559.664
1133 0 59.1391 12.1409 718 56.3343 1305.63 559.487
1134 0 60.1699 12.7639 768 56.2682 1306.29 558.633
1135 0 61.1631 12.7855 782 56.9066 1306.14 554.582
1136 0 64.111 13.1023 840 56.831 1305.7 554.237
1137 0 65.1758 13.011 848 57.1804 1306.2 555.981
1138 0 66.326 12.6647 840 57.8119 1306.64 553.863
1139 0 68.1448 12.7669 870 57.977 1306.73 552.422
1140 0 70.1476 12.4309 872 58.4897 1307.19 551.177
1141 0 71.139 13.3682 951 59.0536 1307.56 548.878
1142 0 74.1178 13.0198 965 59.9679 1307.77 547.514
1143 0 78.2579 13.2511 1037 59.0608 1307.81 545.474
1144 0 78.2321 13.0509 1021 60.2958 1308.04 545.347
1145 0 81.3677 13.6418 1110 59.7108 1308.34 543.277
1146 0 82.232 13.7051 1127 59.8146 1308.16 543.024
1147 0 85.3316 13.3714 1141 60.6731 1308.48 539.429
1148 0 89.3619 13.4845 1205 60.1751 1308.5 541.476
1149 0 90.3845 13.8187 1249 59.7638 1308.77 539.35
1150 0 95.3198 14.3307 1366 58.9173 1309.18 537.63
1151 0 98.476 14.2167 1400 59.4214 1309.38 534.961
1152 0 101.403 14.5952 1480 58.6669 1310.07 533.601
1153 0 102.454 13.4108 1374 60.5757 1310.54 533.42
1154 0 104.321 13.4681 1405 61.0932 1310.72 530.911
1155 0 108.513 13.7679 1494 60.6185 1310.67 530.134
1156 0 111.268 13.9303 1550 60.7361 1311.05 528.82
1157 0 112.358 13.2878 1493 62.2954 1311.1 526.153
1158 0 117.41 14.2322 1671 60.0963 1311.28 526.23
1159 0 122.256 13.668 1671 60.8677 1311.34 524.893
1160 0 124.329 13.6252 1694 61.402 1311.65 521.928
1161 0 128.295 13.508 1733 61.6642 1311.45 522.046
1162 0 133.269 14.602 1946 60.4599 1311.72 518.423
1163 0 136.271 13.6493 1860 61.8435 1311.6 516.247
1164 0 142.408 14.5357 2070 59.9971 1311.68 512.727
1165 0 149.27 14.1957 2119 60.1779 1311.31 511.466
1166 0 152.38 14.2539 2172 60.5203 1308.46 508.369
1167 0 156.267 14.7248 2301 59.8305 1310.25 507.264
1168 0 162.292 14.4924 2352 60.287 1312.87 504.577
1169 0 165.343 13.7714 2277 61.5683 1312.51 501.915
1170 0 172.393 13.8579 2389 61.365 1312.78 498.219
1171 1 92.2985 12.0912 1116 63.7231 1312.59 535.911
1172 0 93.3001 11.3719 1061 64.4043 1312.26 534.111
1173 0 99.2293 12.7986 1270 62.6551 1312.14 531.093
1174 0 102.226 12.8344 1312 62.6532 1312.35 530.879
1175 0 105.193 12.7765 1344 62.9167 1312.08 528.833
1176 0 107.291 12.508 1342 63.6878 1312.35 525.068
1177 0 114.259 12.9705 1482 62.5385 1312.6 525.874
1178 0 117.391 13.1952 1549 62.468 1312.56 525.133
1179 0 122.262 13.5119 1652 61.9915 1312.67 521.117
1180 0 124.396 14.0036 1742 61.5195 1312.77 517.1
1181 0 129.343 13.6459 1765 61.7921 1312.84 518.488
1182 0 134.273 13.8599 1861 61.3143 1312.52 515.437
1183 0 138.351 13.1477 1819 62.2655 1312.05 512.843
1184 0 142.138 12.7903 1818 62.6821 1311.71 511.492
1185 1 81.3034 10.2579 834 61.1355 1311.48 543.258
1186 0 85.2382 10.6877 911 60.7816 1311.65 542.45
1187 0 88.171 11.8747 1047 59.7593 1312.09 540.915
1188 0 89.3213 11.9456 1067 59.9859 1312.34 537.353
1189 0 95.3381 12.2197 1165 59.5004 1312.3 535.427
1190 0 96.4023 12.4893 1204 59.5723 1312.04 534.391
1191 0 97.29 13.0743 1272 59.4654 1311.95 533.278
1192 0 102.355 11.9682 1225 61.0718 1311.68 533.447
1193 0 102.347 11.2266 1149 62.5109 1311.64 528.16
1194 0 108.398 13.7087 1486 58.7921 1311.97 527.62
1195 0 109.431 12.9762 1420 60.7 1311.77 525.871
1196 0 112.493 12.6053 1418 61.543 1309.08 523.589
1197 0 115.365 12.7508 1471 62.0163 1309.9 523.969
1198 0 119.383 13.687 1634 61.1628 1309.78 521.856
1199 0 120.44 12.4958 1505 63.3455 1310.01 520.596
1200 0 124.48 13.1909 1642 62.7844 1310.19 515.575
1201 0 128.423 13.4711 1730 62.4734 1310.33 518.935
1202 0 133.349 12.9735 1730 63.2879 1310.38 516.875
1203 0 138.37 13.977 1934 61.8232 1310.47 511.865
1204 0 141.546 12.8298 1816 63.9637 1310.42 510.617
1205 0 148.545 13.4504 1998 63.1947 1310.03 507.597
1206 0 151.421 13.4988 2044 63.3615 1310.28 508.049
1207 1 83.1491 10.8841 905 64.1812 1310.47 542.146
1208 0 85.1192 11.4898 978 63.3303 1309.11 542.193
1209 0 88.13 12.0504 1062 62.9068 1309.37 540.041
1210 0 91.1975 11.7328 1070 62.4729 1309.52 539.186
1211 0 96.1834 12.4138 1194 61.0377 1308.17 539.418
1212 0 96.258 12.2899 1183 60.8571 1307.82 538.145
1213 0 100.298 13.1509 1319 59.4594 1308.17 537.337
1214 0 103.198 12.4421 1284 60.4213 1308.32 533.992
1215 0 106.305 13.132 1396 60.6089 1308.12 532.766
1216 0 108.372 12.7616 1383 60.8604 1307.57 531.926
1217 0 111.373 11.9239 1328 60.7937 1307.43 531.566
1218 0 115.496 12.4506 1438 61.0188 1307.22 526.168
1219 0 120.332 13.0556 1571 59.6283 1307.18 528.851
1220 0 120.379 12.2945 1480 61.8297 1307.15 523.343
1221 0 124.45 12.0129 1495 61.7371 1307.35 523.914
1222 0 127.573 12.6124 1609 60.2405 1307.6 517.214
1223 0 131.732 12.2977 1620 60.0438 1306.13 519.107
1224 0 134.638 12.4036 1670 59.9527 1306.29 515.871
1225 1 79.4538 10.7232 852 58.9519 1304.49 545.406
1226 0 80.4036 10.211 821 60.0024 1305.65 543.041
1227 0 86.4924 10.4749 906 58.4581 1306.66 543.184
1228 0 85.509 10.3147 882 59.4444 1307.06 541.362
1229 0 90.5112 12.3079 1114 57.1795 1306.7 538.381
1230 0 92.3516 12.0734 1115 56.8951 1306.77 538.251
1231 0 94.2987 12.2377 1154 57.195 1306.75 537.652
1232 0 99.252 13.2692 1317 55.4837 1306.52 537.609
1233 0 102.264 12.6535 1294 56.7913 1305.98 533.212
1234 0 104.393 12.8265 1339 56.7707 1305.26 530.743
1235 0 108.317 13.442 1456 55.921 1305.41 531.244
1236 0 109.289 12.1055 1323 58.068 1306.32 529.594
1237 0 112.417 11.7598 1322 58.59 1305.94 526.697
1238 0 117.345 12.6039 1479 56.9189 1306.13 528.201
1239 0 119.28 12.894 1538 57.0618 1305.91 523.119
1240 0 123.36 12.7594 1574 57.0737 1306.5 525.311
1241 0 126.367 13.7377 1736 56.25 1306.37 524.001
1242 0 129.43 12.5782 1628 57.2475 1306 521.838
1243 0 134.415 13.4881 1813 56.1853 1306.86 519.054
1244 0 137.382 13.2259 1817 56.7914 1306.91 516.261
1245 0 142.484 13.798 1966 55.7594 1307.43 515.544
1246 0 145.459 13.7771 2004 55.8393 1306.44 514.103
1247 0 147.254 12.93 1904 57.6502 1306.49 510.527
1248 0 152.393 13.5505 2065 57.7797 1306.61 507.831
1249 0 159.473 14.1529 2257 56.8325 1306.54 506.088
1250 1 94.3489 11.7966 1113 56.6703 1306.9 540.915
1251 0 96.4191 11.8649 1144 56.7893 1306.56 537.884
1252 0 99.4154 11.97 1190 57.0697 1307.18 534.82
1253 0 101.463 12.1325 1231 57.2778 1306.83 533.736
1254 0 102.304 12.4433 1273 57.7486 1306.63 532.218
1255 0 106.535 13.573 1446 56.4274 1306.54 534.064
1256 0 108.444 13.288 1441 57.2186 1306.9 532.493
1257 0 112.441 13.1802 1482 57.0506 1306.93 531.132
1258 0 114.489 13.1803 1509 57.8847 1307.68 529.86
1259 0 116.454 13.0266 1517 58.8293 1307.57 525.259
1260 0 120.39 13.2652 1597 57.928 1308.25 524.813
1261 0 124.527 13.6677 1702 58.2192 1308.18 523.71
1262 0 130.524 13.8978 1814 57.9895 1307.93 521.854
1263 0 135.582 14.3234 1942 57.5237 1308.33 518.751
1264 0 136.524 13.9683 1907 58.5071 1308.72 515.875
1265 0 139.436 13.7912 1923 58.7358 1309.23 511.651
1266 0 140.42 13.0893 1838 60.3482 1309.41 508.104
1267 1 67.2216 9.08933 611 59.6858 1309.13 548.268
1268 0 71.3493 9.88096 705 58.4184 1308.9 549.16
1269 0 71.333 10.444 745 57.5732 1308.94 549.123
1270 0 75.2698 11.6514 877 57.5393 1309.65 546.09
1271 0 77.1545 12.0019 926 57.5659 1310.02 545.157
1272 0 81.1511 12.5198 1016 56.685 1310.69 544.117
1273 0 83.2245 11.7393 977 57.3603 1311.33 545.355
1274 0 85.1858 11.9856 1021 57.6239 1311.95 543.177
1275 0 87.1836 11.883 1036 58.1264 1311.94 542.411
1276 0 90.201 11.9067 1074 58.0019 1312.08 540.386
1277 0 93.2824 12.4354 1160 57.3069 1312.23 536.315
1278 0 96.3159 11.7841 1135 57.7357 1312.52 534.612
1279 0 102.265 12.1058 1238 57.164 1312.44 533.603
1280 0 105.223 12.6493 1331 57.2149 1312.41 532.446
1281 0 108.214 11.7729 1274 58.3964 1312.09 529.99
1282 1 57.0376 10.2564 585 58.0291 1312.46 553.699
1283 0 60.0858 11.0342 663 56.6546 1313.1 553.735
1284 0 62.2656 11.2743 702 57.1396 1311.97 551.443
1285 0 62.2691 12.0284 749 56.8518 1311.64 550.004
1286 0 62.1615 11.6793 726 57.8609 1311.07 549.858
1287 0 65.1669 11.601 756 57.4643 1311.38 549.618
1288 0 66.1235 11.0551 731 58.4542 1311.61 546.877
1289 0 67.152 12.2111 820 56.5476 1310.96 548.14
1290 0 71.1742 12.4202 884 56.1075 1311.15 545.696
1291 0 71.1312 12.6949 903 56.2946 1310.98 546.358
1292 0 74.1914 11.9556 887 57.3224 1311.07 545.697
1293 0 77.1204 12.8241 989 56.2659 1311.22 544.462
1294 0 78.3197 12.6405 990 56.4687 1311.29 542.437
1295 0 80.2025 12.3313 989 57.4044 1311.09 541.805
1296 0 82.2159 12.8929 1060 57.1557 1311.21 541.454
1297 0 86.2604 12.4739 1076 57.6859 1311.25 539.77
1298 0 87.2858 11.8118 1031 58.6081 1311.85 539.261
1299 0 88.1535 12.1946 1075 58.9702 1311.95 537.668
1300 0 93.269 12.9196 1205 57.995 1312.34 536.311
1301 0 95.271 13.7817 1313 57.2247 1311.83 534.808
1302 0 100.226 14.6071 1464 56.2042 1312.23 534.925
1303 0 103.441 13.7566 1423 57.8384 1312.52 532.391
1304 1 57.075 11.3184 646 57.7848 1312.63 556.427
1305 0 55.0735 11.1306 613 58.9462 1313.44 555.68
1306 0 58.0391 12.5433 728 57.9382 1313.54 553.975
1307 0 60.0488 12.3566 742 58.0714 1313.38 552.984
1308 0 60.0209 12.8955 774 58.9884 1313.03 553.24
1309 0 64.04 12.8982 826 58.2119 1312.67 553.061
1310 0 63.029 13.1368 828 58.9384 1312.37 551.379
1311 0 65.0599 12.4808 812 59.5739 1312.78 551.36
1312 0 67.103 12.4286 834 59.7326 1312.41 549.463
1313 0 69.1885 13.7306 950 58.1958 1311.94 548.943
1314 0 69.1 12.6339 873 60.1478 1310.89 548.491
1315 0 72.1088 13.4935 973 58.4748 1310.57 547.326
1316 0 73.108 13.5416 990 59.4535 1310.12 549.277
1317 0 77.1932 13.2395 1022 59.365 1310.14 548.254
1318 0 77.1715 12.388 956 61.2877 1310.02 545.796
1319 0 80.1516 13.3497 1070 59.5215 1310.05 541.392
1320 0 81.1909 12.1442 986 61.7312 1309.89 544.608
1321 1 44.0651 11.0972 489 60.4438 1310.69 563.796
1322 0 45.0948 11.1321 502 60.6175 1309.92 562.39
1323 0 47.0369 11.1614 525 60.3276 1310.02 561.638
1324 0 47.0763 11.6407 548 60.365 1310.09 562.005
1325 0 48.1355 12.2155 588 59.7262 1308.4 561.592
1326 0 50.1624 13.1772 661 58.1256 1308.89 560.277
1327 0 52.1896 12.3588 645 59.6124 1308.76 560.285
1328 0 52.2466 12.3262 644 59.3882 1308.79 560.879
1329 0 53.0978 11.7896 626 60.3754 1309 560.355
1330 0 55.1088 13.1195 723 58.5602 1308.93 560.047
1331 0 56.1847 12.6013 708 59.3051 1308.61 558.822
1332 0 59.1322 13.2753 785 56.9809 1308.3 557.243
1333 0 58.1332 13.8819 807 58.4857 1307.77 557.084
1334 0 60.1398 13.9176 837 60.0179 1308.42 556.811
1335 0 61.2151 13.4771 825 60.0121 1308.22 555.678
1336 0 64.1079 13.1809 845 59.6805 1308.18 554.192
1337 0 64.174 13.9932 898 59.1002 1307.86 553.557
1338 0 66.1812 14.2337 942 58.5711 1307.97 552.275
1339 0 69.0934 13.5614 937 59.1996 1308.51 550.705
1340 0 70.0842 13.284 931 59.1364 1308.08 551.538
1341 0 74.0657 12.8264 950 59.1053 1307.98 551.112
1342 1 41.0612 10.9593 450 58.78 1308.74 565.784
1343 0 41.0806 10.3699 426 59.331 1308.18 565.852
1344 0 42.1012 10.6173 447 59.6488 1307.77 565.949
1345 0 44.1138 11.6743 515 57.9573 1307.96 564.61
1346 0 46.0589 11.2682 519 57.7803 1308.65 566.353
1347 0 45.0675 11.982 540 58.3685 1308.19 564.581
1348 0 46.0738 12.2195 563 58.1918 1308.26 564.627
1349 0 47.0728 11.684 550 59.34 1308 563.436
1350 0 49.0423 12.2955 603 58.5854 1307.64 562.126
1351 0 51.1526 12.9221 661 57.1422 1307.33 561.068
1352 0 51.163 12.7436 652 58.592 1307.49 560.564
1353 0 53.15 13.2832 706 57.6204 1307.21 561.058
1354 0 54.0882 12.0729 653 59.6279 1307.42 560.505
1355 0 55.121 11.9555 659 60.352 1307.03 559.252
1356 0 58.0887 13.8065 802 58.6983 1307.01 559.091
1357 0 59.0799 12.6439 747 60.4659 1306.63 560.141
1358 0 58.09 12.1536 706 62.1246 1306.89 557.8
1359 0 63.1127 13.4204 847 60.3341 1306.55 556.032
1360 0 65.1398 13.1103 854 60.9883 1306.7 555.286
1361 0 65.0916 12.4747 812 62.2845 1306.51 556.799
1362 0 66.1305 12.5812 832 63.4435 1306.78 555.438
1363 0 70.1643 12.5135 878 62.992 1306.35 553.441
1364 0 72.2557 12.8848 931 62.7884 1306.26 552.298
1365 0 74.142 12.9481 960 62.874 1306.16 552.095
1366 0 74.3213 12.0154 893 64.813 1306.11 549.422
1367 1 41.3539 11.7764 487 62.3162 1306.24 568.616
1368 0 42.2068 10.7803 455 63.4308 1305.63 567.525
1369 0 42.1997 12.2513 517 62.4043 1305.81 567.665
1370 0 42.1778 11.3093 477 64.8407 1306.1 567.465
1371 0 46.1066 12.2325 564 62.9539 1306.71 567.069
1372 0 46.1462 12.2004 563 64.222 1305.72 565.744
1373 0 47.0581 12.3039 579 64.9758 1305.18 565.801
1374 0 47.0575 12.4316 585 65.7094 1305.2 564.325
1375 0 48.0278 11.4933 552 67.3261 1305.69 564.612
1376 0 51.0584 12.8089 654 64.9893 1305.88 563.566
1377 0 51.028 12.6989 648 65.9306 1305.95 563.836
1378 0 54.0838 12.9244 699 65.8398 1305.94 562.186
1379 0 54.048 13.155 711 65.8284 1305.76 561.575
1380 0 55.0733 13.0009 716 66.3254 1305.8 562.504
1381 0 57.1308 13.3903 765 65.2314 1305.95 561.664
1382 0 59.1303 13.2419 783 62.7139 1305.84 558.981
1383 0 60.1022 12.512 752 63.9588 1306.01 559.31
1384 0 63.2789 13.6854 866 64.0289 1305.91 559.073
1385 0 64.1517 13.9981 898 64.7595 1306.08 555.447
1386 0 66.1963 14.5023 960 63.7563 1306.24 555.082
1387 0 68.2047 14.1632 966 64.0259 1306.24 554.058
1388 0 71.1549 13.6182 969 64.547 1306.39 553.338
1389 0 72.2958 13.6799 989 65.1426 1306.75 550.703
1390 0 72.1248 14.059 1014 65.6677 1307.46 549.925
1391 0 77.3226 14.6012 1129 64.1258 1307.6 550.412
1392 0 79.444 14.9539 1188 63.7609 1308.13 547.051
1393 0 82.3646 14.7272 1213 63.8137 1308.18 545.764
1394 0 84.3799 14.6006 1232 64.2849 1308.18 545.415
1395 0 86.3894 14.2842 1234 65.47 1308.53 542.159
1396 1 43.2647 11.8341 512 67.291 1308.64 563.65
1397 0 47.195 11.5267 544 66.5938 1308.18 563.772
1398 0 49.1625 11.9603 588 66.1939 1308.27 564.201
1399 0 49.1292 12.0295 591 67.1421 1308.19 562.22
1400 0 51.0442 12.1855 622 66.2492 1309.48 560.879
1401 0 53.1338 12.8167 681 65.2438 1309.55 560.965
1402 0 55.1721 13.7388 758 64.3087 1308.98 560.553
1403 0 57.0863 13.0855 747 64.8461 1308.87 559.478
1404 0 59.1486 12.849 760 64.6539 1309.18 559.889
1405 0 60.0886 13.7464 826 63.8366 1309.35 556.347
1406 0 62.2792 12.7972 797 64.5784 1309.63 555.215
1407 0 63.1513 14.109 891 63.3771 1310.14 552.865
1408 0 64.2881 13.6417 877 63.6967 1310.87 552.219
1409 0 67.1313 13.63 915 64.1038 1311.17 551.834
1410 0 69.0621 12.9593 895 64.4827 1311.43 550.942
1411 0 69.2393 13.1284 909 64.253 1311.99 549.435
1412 0 74.3857 14.1963 1056 62.4536 1312.24 547.907
1413 0 76.1969 13.2551 1010 62.6941 1312.07 546.888
1414 0 76.4537 13.7207 1049 62.4766 1311.93 545.201
1415 0 80.2855 13.0036 1044 62.6561 1311.87 546.255
1416 0 84.2738 13.5273 1140 61.9132 1311.99 543.272
1417 1 44.2642 11.0247 488 62.6926 1311.73 561.781
1418 0 46.2479 10.3788 480 63.0688 1311.49 561.75
1419 0 45.2642 10.759 487 63.0164 1311.55 560.294
1420 0 45.2803 11.4619 519 62.4297 1311.34 560.304
1421 0 47.1578 12.0871 570 61.4456 1311.91 558.796
1422 0 48.0385 11.9279 573 62.0436 1312.18 556.827
1423 0 51.0488 11.8906 607 61.4745 1312.02 557.331
1424 0 51.2072 12.9279 662 60.9169 1312.03 554.9
1425 0 54.0864 12.6279 683 60.5051 1311.83 555.357
1426 0 58.2292 12.4508 725 59.9862 1311.7 554.479
1427 0 57.1668 12.3673 707 60.9929 1311.74 553.55
1428 0 58.0743 13.4483 781 60.4558 1311.92 551.944
1429 0 62.333 13.2514 826 59.3499 1311.61 550.962
1430 0 64.2628 12.6045 810 60.6235 1311.34 549.302
1431 0 65.5366 13.1835 864 60.3681 1310.86 548.694
1432 0 66.5462 14.0955 938 59.3731 1310.63 547.861
1433 0 69.3066 14.3998 998 59.4269 1310.79 547.65
1434 0 71.5215 13.842 990 61.097 1311.14 547.597
1435 0 75.513 14.183 1071 60.662 1311.47 546.55
1436 0 76.588 14.2451 1091 61.5949 1311.14 543.484
1437 0 81.0254 13.9586 1131 62.1132 1311.07 542.032
1438 0 82.4665 13.1811 1087 64.4232 1310.75 540.169
1439 1 39.2276 10.4008 408 65.9804 1309.91 560.539
1440 0 40.3295 10.6374 429 65.1072 1309.52 559.809
1441 0 43.4558 11.2528 489 64.4581 1309.97 559.389
1442 0 42.2715 12.0649 510 64.5098 1309.95 558.422
1443 0 44.2824 12.1041 536 64.2799 1309.39 561.453
1444 0 47.2129 12.4754 589 63.4652 1309.08 559.854
1445 0 48.172 12.3516 595 64.1647 1308.9 558.708
1446 0 51.5158 12.4234 640 63.1078 1309.12 557.966
1447 0 51.4994 12.7963 659 63.4401 1309.18 557.407
1448 0 53.5672 12.937 693 63.4127 1309.81 557.257
1449 0 54.6915 12.5065 684 64.0102 1309.65 554.708
1450 0 55.5663 12.4896 694 64.0303 1309.49 554.728
1451 0 61.5259 12.45 766 63.2663 1309.16 554.154
1452 0 61.7819 13.3534 825 62.1927 1308.96 551.925
1453 0 63.4695 14.0225 890 61.8236 1308.46 551.147
1454 0 63.7063 12.385 789 64.6971 1308.77 551.309
1455 0 66.6886 13.2107 881 63.4801 1308.37 549.596
1456 0 69.53 13.3899 931 63.8561 1307.73 550.725
1457 0 70.6778 12.6207 892 65.4966 1308.19 548.084
1458 0 75.6198 12.9728 981 64.9653 1308.21 547.004
1459 0 78.606 14.2356 1119 63.0751 1307.92 546.646
1460 0 78.7402 13.1191 1033 65.5247 1308.17 543.852
1461 0 81.6676 13.6774 1117 64.4387 1307.86 544.215
1462 0 82.4903 13.0076 1073 65.4362 1307.71 541.423
1463 0 86.5757 12.8558 1113 65.8958 1308.21 541.065
1464 0 87.4683 14.108 1234 64.4149 1307.38 536.814
1465 0 91.3371 14.2768 1304 63.7669 1307.4 536.559
1466 0 94.5178 13.3202 1259 65.1676 1307.15 535.131
1467 1 49.2707 11.1831 551 64.5445 1306.44 558.223
1468 0 49.3732 11.8688 586 62.3481 1306.34 557.894
1469 0 52.0951 11.2678 587 62.9574 1306.16 555.158
1470 0 53.0213 12.0329 638 62.4044 1307.85 555.172
1471 0 55.1384 13.185 727 59.5378 1307.38 555.713
1472 0 57.2518 12.6983 727 61.2283 1307.14 558.017
1473 0 59.3449 12.1325 720 61.7375 1307.22 556.514
1474 0 60.2691 11.8635 715 62.214 1307.29 556.031
1475 0 64.202 12.741 818 60.6638 1306.9 556.515
1476 0 63.1284 12.3241 778 61.9473 1306.92 555.632
1477 0 64.1186 12.2429 785 62.8701 1307.18 554.971
1478 0 66.1821 12.103 801 62.3146 1307.05 553.131
1479 0 71.3747 13.184 941 60.4612 1306.14 552.099
1480 0 71.3747 13.268 947 161.742 1305.14 552.094
1481 0 76.3367 13.2571 1012 60.8379 1306.24 550.672
1482 0 77.25 12.9191 998 62.1633 1307 549.846
1483 0 80.2669 13.0689 1049 62.0458 1306.65 548.719
1484 0 81.1103 13.2659 1076 62.5428 1306.43 546.923
1485 0 83.1525 12.9281 1075 62.9488 1306.25 548.21
1486 0 85.0797 13.0231 1108 63.7428 1306.69 545.11
1487 0 88.1536 12.8979 1137 64.0827 1306.56 544.071
1488 0 91.1452 13.462 1227 63.6267 1306.19 542.258
1489 1 47.088 10.8733 512 64.3359 1305.76 564.758
1490 0 49.0862 11.4289 561 62.9786 1305.87 565.021
1491 0 50.2412 10.37 521 64.6123 1306.17 564.079
1492 0 53.1912 12.7089 676 62.4393 1306.16 561.383
1493 0 55.0504 12.3523 680 62.6485 1306.05 560.61
1494 0 57.1824 13.0809 748 61.6845 1307.43 560.012
1495 0 58.0692 12.6918 737 63.1018 1307.43 558.72
1496 0 60.0348 12.576 755 63.2583 1307.27 559.762
1497 0 62.1233 12.5557 780 63.441 1307.56 557.294
1498 0 62.1952 12.2518 762 64.7073 1307.3 556.213
1499 0 66.1325 13.8359 915 62.6962 1307.69 555.94
1500 0 67.2522 12.9512 871 65.07 1308.27 553.736
1501 0 69.1058 13.4432 929 63.9752 1308.06 555.447
1502 0 70.1499 13.3999 940 64.45 1308.37 554.388
1503 0 73.1532 13.6289 997 63.9308 1309.02 552.36
1504 0 74.2378 13.5645 1007 64.7448 1308.9 550.319
1505 0 76.2186 12.4773 951 65.7802 1308.81 548.05
1506 0 76.241 13.2475 1010 65.4168 1308.69 548.204
1507 0 81.2034 13.9896 1136 62.9173 1309.17 548.17
1508 0 82.1472 13.6828 1124 64.1655 1309.19 546.22
1509 0 83.3185 13.8985 1158 63.4577 1309.11 547.101
1510 0 86.2421 13.1374 1133 65.0494 1308.87 544.419
1511 0 88.1679 13.6217 1201 65.025 1308.8 542.431
1512 0 90.3463 14.1566 1279 64.1712 1309.62 541.261
1513 0 92.2633 14.1226 1303 64.3684 1309.83 542.019
1514 0 97.315 14.6021 1421 63.2688 1310.13 538.382
1515 0 98.2242 13.7339 1349 65.0133 1309.92 535.844
1516 1 52.1007 10.902 568 65.0739 1310.41 560.222
1517 0 55.173 10.4943 579 64.7064 1310.79 559.85
1518 0 54.1212 11.1232 602 66.113 1311.39 556.703
1519 0 59.3663 12.1618 722 63.5748 1311.98 557.193
1520 0 59.1725 11.8129 699 64.4063 1311.46 555.652
1521 0 62.2046 12.4267 773 63.7516 1311.23 555.498
1522 0 64.1443 12.4407 798 63.1504 1311.36 555.315
1523 0 66.0872 13.0888 865 62.6832 1311.38 553.108
1524 0 70.0873 13.1408 921 61.7068 1311.5 550.659
1525 0 71.1333 12.9194 919 62.2459 1311.77 549.232
1526 0 74.0605 12.9219 957 61.7137 1312.15 549.844
1527 0 76.1726 12.6817 966 61.1418 1311.38 548.229
1528 0 78.1913 13.0961 1024 60.7402 1311.92 546.005
1529 0 81.1012 13.0947 1062 60.3559 1312 545.212
1530 0 86.1001 14.0069 1206 58.6343 1312.59 543.047
1531 0 89.0842 13.2459 1180 59.2068 1312.55 542.652
1532 0 91.253 13.5448 1236 60.2921 1312.88 539.376
1533 0 94.3555 12.5801 1187 61.3715 1313.33 539.398
1534 1 51.0466 10.99 561 61.3725 1312.7 560.868
1535 0 52.119 11.1092 579 61.772 1312.16 557.995
1536 0 52.0228 11.8602 617 60.8331 1312.67 559.178
1537 0 54.0518 12.969 701 59.8787 1313.74 556.979
1538 0 56.0386 12.6341 708 60.3503 1313.64 557.445
1539 0 58.0582 12.5391 728 60.6236 1313.76 554.176
1540 0 60.1121 11.5451 694 61.2363 1312.79 555.86
1541 0 62.0588 11.7308 728 61.2569 1312.57 554.732
1542 0 66.0526 12.6414 835 59.818 1312.42 552.774
1543 0 68.1065 13.2146 900 58.6344 1312.6 552.039
1544 0 68.152 12.7656 870 59.8207 1312.55 551.248
1545 0 71.1024 12.9672 922 59.256 1311.52 549.687
1546 0 71.1127 12.7825 909 60.0286 1311.63 548.141
1547 0 75.2391 12.5733 946 60.2326 1311.22 547.57
1548 1 42.0227 10.3278 434 60.3018 1311.53 564.376
1549 0 42.0388 9.89562 416 60.4087 1311.23 565.101
1550 0 43.0165 11.112 478 59.6339 1311.36 564.176
1551 0 47.0753 10.9187 514 59.572 1311.18 562.984
1552 0 49.1415 11.3753 559 58.966 1310.68 562.047
1553 0 48.1197 11.6584 561 59.6364 1310.97 560.43
1554 0 52.0421 12.6628 659 57.7633 1310.69 560.302
1555 0 51.064 12.2983 628 59.3551 1311.6 560.056
1556 0 51.0443 12.1659 621 60.3172 1311.4 558.419
1557 0 55.0333 11.9019 655 60.458 1310.9 557.861
1558 0 56.0588 13.0756 733 59.0696 1311.72 556.548
1559 0 60.05 13.1557 790 59.1354 1311.25 553.995
1560 0 61.0215 12.9463 790 59.1886 1311.92 555.124
1561 0 62.0187 13.5443 840 59.2095 1311.77 554.813
1562 0 62.081 13.128 815 60.1718 1311.78 553.557
1563 0 65.073 13.6155 886 59.6738 1309.8 552.631
1564 0 68.129 13.2396 902 59.8792 1309.5 550.864
1565 0 70.0783 14.3268 1004 58.9392 1309.2 549.249
1566 0 71.1201 13.2593 943 60.6914 1309.09 549.488
1567 0 73.0722 13.343 975 61.3631 1309.17 549.027
1568 0 74.0855 13.5519 1004 61.002 1308.7 550.004
1569 0 77.1101 14.0967 1087 60.6182 1308.92 547.787
1570 0 80.2223 12.9764 1041 62.1595 1309.49 545.296
1571 0 83.1434 14.3246 1191 59.7935 1308.65 543.923
1572 0 86.0818 14.1029 1214 60.1507 1309.17 543.906
1573 0 89.1653 13.8507 1235 60.4089 1309.04 541.564
1574 0 92.1361 13.9685 1287 60.4514 1308.69 541.309
1575 0 94.2204 13.0863 1233 61.4599 1308.68 538.979
1576 1 51.0728 11.65 595 62.3025 1309.29 560
1577 0 52.0171 11.131 579 63.7841 1309.1 559.169
1578 0 55.0212 11.959 658 62.3723 1309.43 558.377
1579 0 57.117 12.168 695 61.9971 1308.82 558.197
1580 0 58.0677 13.5532 787 61.2122 1307.84 555.581
1581 0 60.0996 12.2796 738 62.7033 1308.55 556.86
1582 0 64.1417 13.6261 874 60.73 1307.64 555.311
1583 0 65.1526 13.0463 850 61.8165 1307.68 554.241
1584 0 65.3186 12.9825 848 62.3844 1307.53 553.684
1585 0 68.1431 13.1488 896 61.5067 1307.2 553.107
1586 0 69.078 13.492 932 61.4024 1307.82 550.546
1587 0 69.1815 13.5152 935 62.107 1307.85 550.529
1588 0 74.1395 13.0025 964 62.0425 1307.95 550.398
1589 0 76.1498 13.3684 1018 61.5766 1308.58 548.012
1590 0 78.0969 13.0735 1021 61.4887 1308.75 547.51
1591 0 81.0374 13.611 1103 60.5313 1308.26 545.636
1592 0 83.0272 12.6585 1051 61.9496 1307.94 542.646
1593 0 87.0726 14.3329 1248 59.3325 1307.98 541.017
1594 0 89.1484 12.754 1137 60.8109 1307.62 539.653
1595 0 94.0776 14.1798 1334 58.0172 1307.97 539.151
1596 1 51.1085 10.1549 519 59.1272 1307.33 561.657
1597 0 52.1338 10.7608 561 60.1462 1307.3 559.909
1598 0 53.1725 11.8858 632 59.8797 1308.17 558.456
1599 0 57.1046 12.0481 688 58.6701 1308.72 558.395
1600 0 57.1046 12.013 686 156.78 1308.72 558.402
1601 0 62.2097 12.5222 779 57.2811 1307.99 556.411
1602 0 61.1071 12.1426 742 58.5606 1308.46 554.186
1603 0 64.1507 12.2212 784 57.477 1308.42 554.812
1604 0 66.3054 12.367 820 56.989 1308.66 553.33
1605 0 69.2066 11.5885 802 57.6933 1308.88 552.291
1606 0 71.1591 12.3245 877 56.9122 1308.61 551.843
1607 0 73.3403 12.0943 887 56.956 1309.04 549.989
1608 0 74.4572 13.2022 983 55.7843 1308.94 547.98
1609 0 78.2067 13.0168 1018 55.6336 1309.05 546.839
1610 1 43.114 9.34731 403 57.4615 1308.72 563.169
1611 0 42.0879 9.62271 405 57.2074 1309.15 563.664
1612 0 46.1313 11.2939 521 55.7812 1309.51 562.877
1613 0 48.125 11.6779 562 54.0587 1310 562.813
1614 0 48.1342 10.8031 520 55.375 1310.37 560.488
1615 0 49.1121 10.7305 527 55.7381 1310.08 559.806
1616 0 51.1015 11.6631 596 54.6141 1310.38 560.034
1617 0 53.0461 11.5748 614 54.4446 1310.45 557.295
1618 0 55.0566 11.5517 636 55.2987 1311.02 557.579
1619 0 56.0799 11.4123 640 55.6234 1311.21 557.173
1620 0 56.0736 11.3779 638 56.0329 1311.69 556.183
1621 0 61.1401 11.8417 724 54.6782 1311.87 555.188
1622 0 62.0674 12.2609 761 54.6767 1312.13 553.414
1623 0 63.0869 12.7285 803 54.2354 1312.2 551.971
1624 0 63.0801 12.3811 781 54.5416 1312.05 551.246
1625 0 67.2121 11.977 805 54.923 1312.33 549.036
1626 0 70.2443 12.6558 889 53.4859 1312.61 549.256
1627 0 71.3377 12.8544 917 53.494 1312.69 549.044
1628 0 73.321 12.5203 918 53.8072 1313.31 547.014
1629 0 75.2562 12.7564 960 53.4354 1313.37 546.365
1630 0 77.3335 12.75 986 53.3905 1313.62 544.555
1631 1 44.0936 10.5004 463 53.2052 1313.02 562.272
1632 0 45.0964 9.93426 448 53.8906 1313.51 562.556
1633 0 46.2005 10.3246 477 53.7736 1313.08 561.751
1634 0 44.208 10.066 445 55.2382 1313.91 560.613
1635 0 46.4064 11.1192 516 53.7771 1314.73 558.428
1636 0 48.3282 11.6702 564 53.0957 1314.42 559.209
1637 0 50.1638 11.7615 590 54.0746 1314.11 558.253
1638 0 49.0515 11.8447 581 55.012 1313.95 558.112
1639 0 53.1024 11.8639 630 54.7413 1315.06 555.079
1640 0 54.0124 12.7563 689 54.2163 1314.51 555.154
1641 0 58.1222 12.7834 743 53.0848 1314.6 554.451
1642 0 56.0276 12.1369 680 55.0162 1314.9 552.696
1643 0 60.0868 13.2142 794 53.3426 1314.82 553.006
1644 0 59.1505 13.1022 775 53.8065 1314.5 551.071
1645 0 62.0663 13.115 814 53.7604 1314.49 551.092
1646 0 64.074 12.2671 786 55.2366 1314.49 551.463
1647 0 66.1139 13.2196 874 54.3673 1314.69 549.121
1648 0 65.0543 13.5272 880 55.0841 1314.69 548.052
1649 0 68.0959 13.6719 931 54.6552 1314.13 549.013
1650 0 70.0259 12.424 870 56.2862 1313.7 547.325
1651 0 75.0938 13.4765 1012 54.2441 1313.22 548.721
1652 0 73.0309 12.6659 925 56.2086 1313.24 547.23
1653 0 76.1064 13.3366 1015 55.3911 1312.75 546.762
1654 0 79.0642 12.8503 1016 55.5728 1312.92 544.028
1655 1 44.0373 11.2405 495 55.7111 1312.69 562.17
1656 0 45.0287 12.5031 563 54.73 1311.86 561.872
1657 0 47.1426 12.1758 574 55.2265 1311.48 560.096
1658 0 48.0256 12.0977 581 54.9053 1312.75 560.635
1659 0 50.0257 12.4536 623 54.8106 1312.85 559.655
1660 0 51.0731 12.1786 622 55.4952 1312.5 559.286
1661 0 53.0329 13.5388 718 53.3942 1312.49 558.097
1662 0 54.0465 13.0628 706 54.5907 1312.73 555.586
1663 0 56.1253 13.3986 752 53.8604 1311.85 555.5
1664 0 60.1177 13.2906 799 52.9975 1311.78 557.106
1665 0 60.0563 14.5364 873 52.8591 1311.56 553.512
1666 0 62.0754 12.517 777 54.982 1311.84 553.771
1667 0 65.0274 13.6404 887 52.0259 1312.27 533.976
1668 0 67.0939 12.952 869 52.9321 1312.03 534.618
1669 0 68.0713 13.8384 942 52.362 1311.91 532.409
1670 0 72.1242 14.6691 1058 51.1059 1311.55 530.506
1671 0 71.0841 12.9565 921 53.4647 1311.91 530.579
1672 0 72.0887 13.6915 987 53.6069 1311.44 529.587
1673 0 75.1589 13.9571 1049 53.2278 1311.17 529.069
1674 0 78.0412 13.826 1079 53.316 1311.15 529.197
1675 0 80.0403 13.1184 1050 53.9276 1311.04 525.808
1676 0 84.1423 14.0833 1185 53.3873 1310.75 523.504
1677 0 86.2124 14.0119 1208 53.7781 1310.84 531.084
1678 1 46.1399 10.9233 504 56.3929 1310.47 556.103
1679 0 50.0554 12.1865 610 54.8115 1309.22 558.88
1680 0 50.0771 11.8617 594 55.5909 1310.42 557.828
1681 0 51.1192 11.9916 613 55.8564 1310.41 557.321
1682 0 54.1361 12.0068 650 56.5585 1311.32 557.062
1683 0 58.0223 13.9601 810 53.3543 1309.58 555.028
1684 0 61.0972 15.3526 938 50.4478 1309.71 555.693
1685 0 59.0517 12.3282 728 54.9464 1308.59 555.933
1686 0 61.0843 13.0639 798 53.896 1308.96 553.823
1687 0 64.0795 13.3896 858 53.9557 1309.21 554.099
1688 0 63.0744 12.4932 788 55.0076 1308.55 553.954
1689 0 67.1329 13.1083 880 54.3034 1308.35 552.297
1690 0 69.0699 14.0872 973 53.2734 1308.32 549.664
1691 0 71.0614 13.4954 959 53.8123 1307.88 550.164
1692 0 73.06 12.9346 945 54.1407 1307.57 548.839
1693 0 75.0816 13.5319 1016 53.4331 1307.95 548.39
1694 0 78.101 14.4172 1126 52.3037 1307.71 547.175
1695 0 80.1551 13.5737 1088 53.3658 1307.85 546.517
1696 0 84.1987 13.5513 1141 52.3322 1308.92 545.448
1697 1 43.0527 9.19802 396 55.9646 1307.56 562.962
1698 0 45.0703 11.2935 509 53.1493 1307.75 563.729
1699 0 47.1509 10.5194 496 53.8609 1307.56 562.016
1700 0 51.0483 12.5175 639 51.349 1307.16 561.03
1701 0 52.026 11.4942 598 51.7007 1306.55 561.472
1702 0 51.0525 12.0856 617 52.6921 1307.07 558.131
1703 0 55.0654 13.1843 726 50.4945 1306.53 559.014
1704 0 56.2316 12.3952 697 52.0201 1306.38 557.857
1705 0 57.1516 12.8255 733 52.1555 1306.9 558.557
1706 0 58.3035 12.4864 728 52.1346 1307.11 560.133
1707 0 61.1107 12.2892 751 52.1944 1307.48 556.872
1708 0 63.1321 12.8461 811 51.6005 1307.42 557.186
1709 0 63.2378 13.0302 824 51.8701 1307.74 554.22
1710 0 65.1695 13.089 853 52.4021 1307.6 553.927
1711 0 68.1264 13.1667 897 51.2163 1308.06 551.301
1712 0 69.106 13.4431 929 51.4736 1308.08 552.086
1713 0 73.261 13.8546 1015 50.6542 1307.76 549.366
1714 0 75.0952 13.5029 1014 51.5197 1307.35 547.755
1715 0 75.0836 13.0654 981 52.1733 1307.44 545.723
1716 0 80.1223 13.2547 1062 51.8701 1307.35 547.324
1717 0 83.1338 12.7746 1062 52.8531 1308.06 544.542
1718 1 43.1012 9.4429 407 53.6314 1307.63 565.047
1719 0 44.0376 11.036 486 52.4506 1308.43 564.722
1720 0 46.1075 11.4949 530 51.8 1308.96 563.842
1721 0 49.4061 11.9418 590 51.378 1308.22 562.064
1722 0 50.2389 12.8586 646 51.0372 1308.57 561.084
1723 0 52.1464 12.043 628 52.1178 1309.25 560.925
1724 0 52.1147 12.012 626 53.0288 1309.6 560.337
1725 0 54.0885 13.3115 720 52.1222 1309.71 559.542
1726 0 54.0885 13.293 719 157.815 1309.72 559.531
1727 0 57.0998 13.1699 752 52.1729 1309.32 557.513
1728 0 60.1765 11.8319 712 52.9073 1309.38 557.888
1729 0 63.1379 13.3834 845 50.9858 1309.59 554.159
1730 0 66.2337 13.3316 883 50.7203 1309.65 553.803
1731 0 66.3869 13.4665 894 51.5492 1309.57 551.333
1732 0 68.3101 13.3362 911 51.3238 1310.74 552.824
1733 0 69.1514 12.8703 890 52.827 1310.36 551.276
1734 0 74.1539 12.528 929 52.8633 1310.71 550.635
1735 0 74.1128 13.0207 965 53.2218 1311.2 548.347
1736 0 77.1128 13.4867 1040 52.8029 1310.7 547.931
1737 1 42.0814 10.5272 443 53.0474 1310.87 564.849
1738 0 41.2172 10.9906 453 54.4503 1311.31 562.865
1739 0 43.1768 10.4686 452 54.75 1311.27 564.81
1740 0 46.0919 11.3903 525 55 1311.37 559.8
1741 0 47.234 12.8297 606 53.8564 1312.1 561.464
1742 0 49.1773 13.0955 644 52.5016 1312.55 560.075
1743 0 50.0655 12.4237 622 54.0064 1312.69 558.486
1744 0 53.0874 12.583 668 54.0988 1313.57 559.109
1745 0 53.0423 12.82 680 54.7926 1313.13 557.004
1746 0 55.129 13.7859 760 52.8895 1313.12 556.034
1747 0 59.1461 12.7312 753 53.49 1313.05 554.219
1748 0 59.2435 12.6596 750 55.0413 1313.33 552.356
1749 0 60.1313 12.7887 769 55.2328 1313.83 552.264
1750 0 62.1269 13.5046 839 54.5232 1314.25 551.728
1751 0 63.075 11.4308 721 57.0693 1314.64 551.105
1752 0 68.1054 12.6569 862 54.5209 1315.18 550.976
1753 0 69.1766 13.0536 903 54.1728 1314.94 552.079
1754 0 71.1237 12.9493 921 55.3018 1314.7 548.584
1755 0 74.2777 13.3957 995 54.4894 1314.81 548.518
1756 0 74.1842 13.3991 994 54.9467 1315.11 547.39
1757 1 42.0414 11.0605 465 55.9763 1315.26 564.394
1758 0 41.0193 11.3849 467 55.5225 1314.93 563.595
1759 0 43.0849 11.489 495 55.3333 1315 561.6
1760 0 44.1225 11.3774 502 56.2331 1314.93 559.972
1761 0 46.2471 13.3414 617 54.7358 1313.51 560.227
1762 0 47.0982 12.4633 587 55.8978 1313.7 559.772
1763 0 47.036 12.8837 606 56.599 1313.55 559.658
1764 0 50.0654 12.8632 644 56.5916 1313.55 556.579
1765 0 52.0467 13.7761 717 55.7448 1313.28 556.495
1766 0 54.0697 12.5949 681 57.5918 1313.32 555.207
1767 0 55.0911 13.759 758 56.2454 1313.34 555.16
1768 0 56.0466 13.3639 749 57.0147 1313.12 555.263
1769 0 59.0685 12.8834 761 56.9711 1313 553.515
1770 0 59.1589 13.4215 794 57.3715 1313.27 552.649
1771 0 61.3671 13.1178 805 57.6323 1313.45 551.775
1772 0 63.1324 13.2737 838 58.2959 1313.92 551.681
1773 0 65.197 13.3595 871 58.6648 1313.49 550.693
1774 0 66.165 12.4991 827 59.8779 1313.12 549.519
1775 0 70.3153 13.8092 971 58.0618 1313.03 547.502
1776 0 69.2212 13.6519 945 57.5873 1312.39 547.766
1777 0 70.3217 14.4479 1016 56.5413 1312.31 546.162
1778 0 76.2685 15.0914 1151 55.7324 1312.02 544.172
1779 0 74.201 13.2208 981 59.2283 1311.76 542.593
1780 0 78.2734 13.4912 1056 58.6278 1311.93 543.271
1781 0 81.3825 15.593 1269 56.1221 1311.86 542.273
1782 0 82.3977 13.2164 1089 58.8604 1311.87 537.405
1783 0 83.212 13.9283 1159 58.4961 1311.96 536.349
1784 0 89.4904 13.8339 1238 57.4693 1311.33 534.63
1785 0 91.3018 13.899 1269 57.8132 1311.36 535.262
1786 0 91.641 13.5202 1239 58.4221 1311.44 534.894
1787 0 93.2662 13.3167 1242 58.8398 1311.15 533.299
1788 0 97.5176 13.9052 1356 58.2581 1310.9 531.504
1789 0 99.4954 13.9403 1387 58.3259 1310.7 530.268
1790 0 103.55 13.9932 1449 58.1532 1310.24 527.574
1791 0 105.329 13.7664 1450 58.5993 1310.05 526.219
1792 0 111.57 14.3498 1601 57.2117 1309.84 526.365
1793 1 61.2181 11.0098 674 58.454 1309.55 551.85
1794 0 64.5385 11.4505 739 57.9445 1310.01 550.855
1795 0 64.3967 11.4913 740 58.3149 1310.53 549.555
1796 0 67.2444 12.581 846 56.734 1310.09 546.814
1797 0 69.3928 13.3155 924 57.119 1309.95 548.372
1798 0 73.2494 13.2424 970 56.7361 1309.92 547.754
1799 0 75.3546 13.8412 1043 56.0326 1310 544.632
1800 0 78.2521 13.1754 1031 56.4694 1310.11 544.648
1801 0 79.4955 13.2586 1054 56.4175 1309.91 542.982
1802 0 82.3066 12.5992 1037 56.8158 1309.92 541.331
1803 0 86.3285 13.5645 1171 55.8668 1309.57 539.402
1804 0 88.2875 12.0855 1067 57.687 1309.2 538.84
1805 0 94.3788 13.6789 1291 55.3641 1309.33 537.671
1806 1 48.1779 10.8348 522 56.1954 1309.44 558.964
1807 0 52.1969 11.2267 586 54.7099 1308.93 558.715
1808 0 52.2155 11.6249 607 54 1309.11 558.689
1809 0 55.1412 11.8967 656 53.9284 1309.46 557.578
1810 0 54.2101 10.8651 589 54.4482 1308.88 556.351
1811 0 59.238 12.7114 753 52.2829 1309.02 556.203
1812 0 59.0931 12.7426 753 52.8938 1309.26 553.684
1813 0 62.1006 12.3831 769 52.316 1308.99 554.687
1814 0 64.3885 13.4496 866 51.3037 1309.3 551.711
1815 0 68.2922 13.6912 935 50.4374 1309.26 552.161
1816 0 66.3492 12.4493 826 52.5424 1309.24 552.079
1817 0 71.3516 12.7818 912 51.9452 1309.35 550.638
1818 0 71.2467 12.6602 902 52.1086 1308.84 547.65
1819 0 73.3404 12.7488 935 51.9005 1309.01 546.813
1820 0 78.2513 13.6356 1067 50.7123 1309.22 545.574
1821 0 79.2285 12.7606 1011 51.9941 1309.1 543.001
1822 0 84.48 13.4825 1139 50.4636 1309.38 544.857
1823 0 86.5215 14.1005 1220 50.3492 1309.91 541.311
1824 0 88.5676 13.0296 1154 51.2929 1310.53 540.019
1825 0 91.4348 14.01 1281 50.1655 1310.23 538.477
1826 0 94.4164 13.1545 1242 50.9155 1310.32 536.514
1827 0 99.6536 13.4265 1338 50.8124 1309.45 533.198
1828 1 48.2682 12.3891 598 48.5719 1309.09 559.268
1829 0 48.2233 10.8039 521 49.7466 1310.11 557.873
1830 0 51.086 11.5492 590 48.8271 1310.77 558.334
1831 0 51.0994 11.7614 601 49.4592 1310.65 555.692
1832 0 53.0523 12.3652 656 48.5152 1310.64 555.61
1833 0 56.0622 11.6656 654 48.5719 1310.97 554.898
1834 0 58.0586 12.5391 728 47.4835 1311.34 554.842
1835 0 58.1278 12.5929 732 48.362 1311.09 552.691
1836 0 60.167 12.2492 737 48.4125 1310.86 551.541
1837 0 62.1494 11.9551 743 48.1494 1311.6 549.572
1838 0 62.1298 11.7013 727 48.8294 1311.67 550.01
1839 0 65.4324 13.128 859 47.2794 1311.62 548.689
1840 0 67.4692 12.8355 866 47.4977 1311.83 548.475
1841 0 69.5523 14.3633 999 46.1101 1311.68 547.961
1842 0 72.3016 12.5032 904 47.9469 1311.92 545.377
1843 0 75.7365 13.4149 1016 46.75 1312.19 545.399
1844 0 76.3133 13.3135 1016 47.8642 1312.82 542.801
1845 0 78.2547 13.0855 1024 48.2832 1312.88 540.982
1846 0 77.276 11.9183 921 49.8621 1313.09 539.871
1847 0 84.4191 12.047 1017 49.1504 1313.42 539.85
1848 1 48.2926 10.8505 524 49.1489 1312.55 556.485
1849 0 50.1936 11.097 557 49.1939 1313.16 556.63
1850 0 51.1826 12.1721 623 49.1364 1312.29 553.833
1851 0 53.1639 11.869 631 49.3788 1312.3 552.456
1852 0 56.2859 12.2233 688 48.3474 1312.38 552.919
1853 0 56.3737 12.7187 717 47.5704 1313.23 549.647
1854 0 56.2405 13.46 757 47.3395 1313.44 548.884
1855 0 60.2891 12.4235 749 47.7089 1313.28 549.037
1856 0 60.2227 12.6696 763 48.1075 1313.22 547.746
1857 0 62.4963 13.1048 819 47.7387 1312.82 547.098
1858 0 65.3647 13.0957 856 47.4042 1313.25 547.201
1859 0 66.3277 12.9358 858 47.6632 1312.85 547.361
1860 0 66.3473 11.9975 796 48.9585 1312.89 544.274
1861 0 70.4793 12.7981 902 47.9933 1312.92 541.727
1862 0 71.4375 13.1864 942 48.0573 1312.66 542.027
1863 0 77.6134 12.4205 964 47.9699 1313.03 539.609
1864 1 41.3819 9.0861 376 48.6543 1313.04 557.902
1865 0 44.3269 10.7835 478 47.4979 1312.8 557.345
1866 0 46.5411 10.3135 480 47.5708 1312.58 556.471
1867 0 47.2981 12.1569 575 46.8643 1311.61 553.981
1868 0 48.1586 11.3583 547 47.2413 1310.98 554.967
1869 0 51.2848 11.9334 612 47.1552 1310.94 552.74
1870 0 51.0895 11.7049 598 47.6906 1310.32 552.299
1871 0 53.173 12.7132 676 46.1583 1310.96 550.703
1872 0 53.2054 13.2693 706 45.9448 1311.64 552.639
1873 0 58.3411 12.4783 728 46.3599 1311.65 551.391
1874 0 58.34 12.8043 747 46.9531 1311.28 551.841
1875 0 62.3238 13.0608 814 46.2764 1310.68 551.681
1876 0 64.2511 13.743 883 45.2106 1309.99 551.216
1877 0 63.1797 13.2479 837 46.1685 1310.7 549.993
1878 0 67.3615 12.6036 849 46.4653 1310.49 550.314
1879 0 68.2588 13.273 906 45.8466 1311.29 547.672
1880 0 68.2588 13.2584 905 160.981 1311.28 547.657
1881 0 72.427 12.7163 921 46.5114 1312.36 546.253
1882 0 76.8507 14.1053 1084 44.9732 1312.16 547.861
1883 0 78.309 13.4978 1057 45.9347 1311.62 545.923
1884 0 79.5196 13.3049 1058 46.7391 1311.64 544.073
1885 0 83.6202 13.2982 1112 46.7014 1312.12 542.013
1886 0 85.5216 13.0376 1115 47.052 1311.46 542.491
1887 0 88.5474 12.9761 1149 47.6084 1311.33 538.6
1888 1 47.3572 9.4389 447 48.3669 1311.33 557.275
1889 0 50.3069 12.0659 607 45.6722 1311.34 559.415
1890 0 51.2651 11.6258 596 46.4748 1311.05 558.24
1891 0 50.509 9.50325 480 48.8729 1310.93 557.175
1892 0 55.4007 11.6786 647 47.1128 1310.74 556.7
1893 0 58.4154 13.0103 760 46.0789 1311.07 554.893
1894 0 57.3817 11.8156 678 47.7375 1310.76 554.611
1895 0 60.5061 14.0812 852 46.0552 1311.04 551.241
1896 0 60.1196 12.7246 765 47.681 1311.32 554.03
1897 0 63.2683 12.85 813 47.5535 1311.17 553.506
1898 0 64.3205 12.1112 779 48.018 1311.16 554.805
1899 0 66.1385 12.9274 855 47.6515 1310.53 553.449
1900 0 67.4425 12.4847 842 48.5214 1310.37 550.138
1901 0 70.4106 14.9267 1051 46.216 1310.1 549.826
1902 0 68.7234 12.6158 867 49.2537 1310.07 547.345
1903 0 68.7234 12.6158 867 158.9 1310.07 547.314
1904 0 74.4985 13.9063 1036 47.9093 1309.49 546.822
1905 0 78.656 13.8451 1089 47.5785 1309.38 547.267
1906 0 80.3455 13.6784 1099 47.6015 1308.71 545.381
1907 0 81.5996 12.7819 1043 48.535 1308.47 542.976
1908 0 85.5955 13.3886 1146 47.9119 1308.75 542.859
1909 0 89.6441 13.6094 1220 47.1754 1308.52 543.108
1910 0 91.5585 13.2702 1215 47.6206 1308.26 539.932
1911 1 50.3938 10.0211 505 48.4792 1308.75 561.901
1912 0 53.4451 10.9458 585 47.7231 1308.94 561.356
1913 0 55.4189 11.4401 634 47.858 1309.12 558.826
1914 0 55.173 11.4549 632 48.0522 1307.89 560.742
1915 0 56.0914 12.444 698 47.8496 1307.36 559.49
1916 0 58.2225 13.019 758 47.5726 1307.6 557.6
1917 0 60.1703 13.3953 806 47.2519 1306.86 558.149
1918 0 63.2193 13.2554 838 48.3329 1306.89 558.285
1919 0 64.2112 13.9851 898 48.1314 1307.36 556.018
1920 0 66.1789 13.3275 882 49.0862 1308.35 553.837
1921 0 67.213 14.0598 945 49.1884 1307.93 553.185
1922 0 69.2396 12.9839 899 50.0234 1307.43 553.794
1923 0 72.2662 13.644 986 49.5811 1307.94 552.721
1924 0 73.2713 13.0747 958 50.6795 1308 550.151
1925 0 73.3912 14.3205 1051 50 1308.07 549.704
1926 0 76.3338 13.4672 1028 50.9825 1308.04 549.431
1927 0 78.497 13.8604 1088 50.6572 1307.69 548.225
1928 0 81.3402 13.7324 1117 51.0063 1307.74 546.386
1929 0 83.2348 13.7202 1142 51.1961 1307.55 547.513
1930 0 85.2376 14.2308 1213 51.0354 1307.39 545.558
1931 0 87.4 13.9016 1215 51.4905 1307.23 545.732
1932 0 91.2154 14.0217 1279 51.4144 1306.75 542.767
1933 0 93.1605 13.9866 1303 51.9202 1307.24 542.388
1934 0 96.2343 13.623 1311 52.5873 1307.61 540.931
1935 0 99.3581 13.869 1378 52.6415 1307.35 537.492
1936 0 101.171 13.5316 1369 53.1183 1307.15 536.62
1937 1 60.0717 10.9369 657 52.4414 1307.87 559.079
1938 0 59.0932 11.7442 694 52.634 1307.53 557.602
1939 0 62.0456 11.4916 713 52.5035 1306.63 557.951
1940 0 63.1928 12.6755 801 51.5506 1306.24 556.618
1941 0 65.2159 13.9077 907 50.0165 1306.85 557.499
1942 0 66.1545 12.6068 834 51.4376 1306.61 554.944
1943 0 68.2165 13.6184 929 50.9483 1306.75 553.752
1944 0 70.1353 13.3029 933 49.4866 1307.05 551.951
1945 0 73.2138 13.3718 979 49.5301 1307.23 551.13
1946 0 74.062 12.6516 937 50.2999 1307.19 550.637
1947 0 79.0989 12.9585 1025 50.002 1306.94 548.357
1948 0 80.0967 12.9469 1037 50.1398 1307.14 545.788
1949 0 81.0606 13.2123 1071 49.8992 1307.1 545.746
1950 0 85.1177 14.0041 1192 49.0805 1307.74 543.971
1951 0 87.0996 12.8703 1121 50.3613 1307.75 543.016
1952 0 91.1978 13.9696 1274 49.2959 1307.97 542.188
1953 0 92.1872 13.6895 1262 49.8193 1308.22 539.009
1954 0 97.0565 14.1258 1371 49.07 1309.11 540.253
1955 0 97.0814 13.4114 1302 50.2719 1309.19 537.468
1956 0 102.165 14.0752 1438 49.4944 1309.17 536.894
1957 0 105.144 14.3613 1510 49.3278 1309.66 534.83
1958 1 59.0509 10.0591 594 49.5623 1310.42 560.936
1959 0 60.0598 11.372 683 49.2709 1310.68 557.988
1960 0 61.0748 10.7573 657 50.0594 1310.88 557.152
1961 0 66.143 12.6544 837 48.448 1310.6 554.478
1962 0 65.0519 12.5592 817 49.1224 1310.22 553.832
1963 0 66.0899 13.0428 862 48.8724 1311.15 552.385
1964 0 68.0665 12.9138 879 49.2184 1311.28 551.424
1965 0 71.1468 12.6639 901 49.2986 1311.07 548.93
1966 0 72.0651 13.4601 970 48.6804 1311.26 550.63
1967 0 77.0409 13.7849 1062 48.0395 1311.82 549.149
1968 0 79.1191 13.8399 1095 47.5443 1311.95 548.57
1969 0 81.1438 13.9629 1133 47.9162 1311.87 545.372
1970 0 84.159 13.8191 1163 48.7094 1312.36 543.594
1971 0 85.215 13.6596 1164 49.0979 1312.11 543.295
1972 0 88.2432 14.392 1270 48.5866 1312.15 539.924
1973 0 89.3655 12.5552 1122 50.1943 1311.98 539.857
1974 0 92.328 12.748 1177 50.4299 1312.37 537.189
1975 0 99.2656 14.0028 1390 49.223 1312.61 536.374
1976 0 99.2656 13.9625 1386 151.829 1311.6 536.321
1977 0 103.248 13.3949 1383 50.3297 1313.6 532.634
1978 1 57.307 11.9881 687 49.6026 1313.79 557.969
1979 0 58.0941 12.1699 707 49.918 1312.85 555.204
1980 0 61.1001 12.6677 774 49.9548 1312.64 556.323
1981 0 62.1242 12.7004 789 50.616 1312.81 552.911
1982 0 63.2682 12.202 772 51.5466 1313.36 552.101
1983 0 62.0929 12.433 772 51.8161 1313.07 552.013
1984 0 67.1085 13.888 932 49.8777 1313.22 550.219
1985 0 69.1812 12.301 851 51.8167 1313.1 546.388
1986 0 74.2561 13.5208 1004 49.6345 1313.14 548.475
1987 0 75.13 13.1239 986 50.7911 1313.02 549.082
1988 0 76.1556 13.9845 1065 50.4329 1312.95 546.9
1989 0 77.2229 13.4416 1038 51.0848 1312.48 546.783
1990 0 79.1863 14.0555 1113 51.1249 1312.43 544.435
1991 0 83.2505 14.066 1171 51.1341 1312.85 542.279
1992 0 86.1707 13.3572 1151 51.8401 1312.96 541.374
1993 0 87.2891 13.2663 1158 52.4456 1312.55 537.759
1994 0 92.2406 14.1586 1306 50.9824 1312.01 537.14
1995 0 96.2716 13.919 1340 50.9194 1312.18 536.675
1996 1 52.1168 10.7451 560 52.9571 1312.31 556.005
1997 0 54.1331 10.4927 568 52.757 1312.26 557.19
1998 0 57.1047 12.013 686 51.5802 1312.08 555.204
1999 0 56.2339 12.039 677 51.9867 1312.17 554.309
2000 0 60.156 12.933 778 50.3959 1312.11 554.292
2001 0 60.0657 12.453 748 51.7687 1311.96 551.984
2002 0 63.1571 13.1577 831 50.5548 1311.85 550.225
2003 0 67.3357 12.8164 863 50.2364 1311.85 551.066
2004 0 66.2796 12.4322 824 51.6117 1311.51 548.86
2005 0 69.2345 13.3315 923 51.4713 1311.28 546.754
2006 0 70.1551 12.9 905 52.316 1310.59 547.502
2007 0 73.2646 12.5845 922 52.5315 1310.57 546.117
2008 0 74.1796 13.3864 993 52.2326 1310.66 544.507
2009 0 76.2737 12.9796 990 53.0212 1310.28 544.983
2010 0 78.1162 13.0575 1020 53.4725 1310.63 543.846
2011 0 79.1492 13.3672 1058 53.5378 1311.04 543.79
2012 0 83.1088 13.3801 1112 53.366 1311.05 542.954
2013 0 87.1528 13.3329 1162 53.5379 1311.43 542.283
2014 0 90.1694 13.1308 1184 54.1647 1311.36 541.026
2015 0 91.2481 13.2386 1208 54.8609 1311.18 540.732
2016 0 96.2713 14.0333 1351 53.7594 1310.74 538.762
2017 0 98.2089 14.2961 1404 54.3846 1310.66 537.589
2018 1 56.1489 10.9886 617 56.0908 1311.8 557.006
2019 0 58.0597 12.2632 712 53.9396 1310.97 559.014
2020 0 57.0914 10.9999 628 56.7675 1311.11 557.212
2021 0 59.1192 11.6882 691 55.9276 1310.58 555.8
2022 0 61.1191 12.811 783 55.834 1309.86 553.946
2023 0 63.1254 12.1504 767 56.7705 1311 553.107
2024 0 67.1652 13.7869 926 54.6803 1310.37 551.825
2025 0 67.1065 12.7856 858 56.2634 1310.65 549.795
2026 0 70.1521 13.2284 928 55.4925 1310.44 549.781
2027 0 73.0933 13.0381 953 55.3652 1310.8 548.967
2028 0 77.2624 13.9007 1074 54.1629 1310.19 548.682
2029 0 78.2495 13.4314 1051 55.0504 1309.93 546.936
2030 0 78.091 12.9592 1012 56.0158 1309.69 545.133
2031 0 83.1918 13.4749 1121 55.1169 1309.83 544.737
2032 0 86.1502 13.3023 1146 55.2304 1310.49 543.746
2033 0 89.2809 12.5335 1119 56.1618 1310.06 542.709
2034 0 94.5532 14.394 1361 53.3483 1310.11 540.816
2035 1 47.2187 10.3984 491 56.556 1309.51 562.434
2036 0 53.3035 11.7816 628 53.5159 1310.05 562.217
2037 0 50.4305 12.2941 620 55.3177 1309.61 558.924
2038 0 55.6093 13.0014 723 53.2337 1309.44 558.696
2039 0 55.0827 12.5629 692 54.8208 1307.78 557.551
2040 0 57.0843 13.191 753 54.2457 1307.87 556.964
2041 0 59.1791 12.6565 749 54.4606 1307.87 556.562
2042 0 61.0184 12.1439 741 54.9487 1308.21 556.3
2043 0 64.1824 12.2775 788 54.7766 1307.8 555.264
2044 0 65.3495 12.6703 828 54.1329 1308.11 555.487
2045 0 67.068 12.6737 850 53.9059 1308.25 553.592
2046 0 68.0806 13.1315 894 53.4508 1307.68 550.065
2047 0 72.1434 13.2514 956 52.5628 1307.64 551.362
2048 0 72.1453 14.1243 1019 52.4956 1307.98 548.802
2049 0 75.142 12.5895 946 53.9979 1307.41 549.672
2050 0 76.1646 12.7618 972 53.5185 1307.39 548.101
2051 0 76.1263 12.0852 920 55.2924 1307.42 544.416
2052 0 80.197 13.0928 1050 53.8905 1307.79 544.932
2053 0 82.1621 13.0474 1072 55.597 1307.67 544.725
2054 0 83.1038 12.695 1055 56.655 1307.24 542.125
2055 0 87.1068 12.8004 1115 56.1112 1308.02 540.662
2056 0 90.2514 13.3959 1209 55.244 1307.98 541.203
2057 0 93.078 13.2899 1237 55.7664 1307.43 541.006
2058 1 52.1691 9.64171 503 56.7058 1307.7 562.586
2059 0 52.028 10.8211 563 55.833 1307.81 562.151
2060 0 54.1221 11.511 623 56.0562 1307.45 560.483
2061 0 56.1893 11.7994 663 55.3258 1307.34 559.252
2062 0 60.1302 12.606 758 53.872 1306.54 560.125
2063 0 61.0858 12.3597 755 54.4993 1306.61 558.057
2064 0 60.0719 12.6016 757 54.4993 1306.57 557.621
2065 0 62.0923 11.95 742 55.1038 1306.89 557.097
2066 0 64.183 12.1216 778 54.8522 1307.07 555.879
2067 0 67.0751 12.9109 866 53.8176 1307.66 554.995
2068 0 69.1116 12.6173 872 54.0161 1307.11 552.062
2069 0 72.238 12.7218 919 53.7443 1308.31 552.296
2070 0 73.179 12.8862 943 54.1888 1308.03 550.318
2071 0 74.4166 12.1747 906 55.9746 1308.3 548.667
2072 0 76.1583 12.6841 966 55.6366 1308.08 546.648
2073 0 78.1057 12.7263 994 55.8441 1308.52 546.055
2074 0 83.2852 13.844 1153 54.3807 1308.9 545.509
2075 0 86.2861 14.5446 1255 53.3195 1308.23 545.692
2076 0 87.1896 13.5337 1180 55.1881 1308.52 543.93
2077 0 89.3268 12.8853 1151 56.3771 1308.92 541.289
2078 0 94.1569 14.0085 1319 55.2146 1309.07 539.046
2079 0 97.235 13.9559 1357 55.3714 1309.02 538.363
2080 0 100.214 13.6807 1371 55.8665 1309.04 537.791
2081 0 101.235 13.7996 1397 56.5319 1308.61 533.31
2082 0 104.37 14.1229 1474 56.0943 1309.3 532.814
2083 0 108.243 13.7284 1486 56.7234 1309.61 530.097
2084 0 111.317 14.3374 1596 56.2607 1309.83 527.125
2085 0 114.211 13.2123 1509 57.7396 1309.81 525.893
2086 0 117.191 13.3799 1568 57.5395 1309.89 522.854
2087 0 121.408 13.5988 1651 57.6069 1310.1 520.926
2088 0 127.282 14.4089 1834 56.349 1310.04 520.427
2089 1 71.3041 11.1915 798 56.1541 1310.08 551.078
2090 0 72.1148 11.5094 830 56.8578 1309.91 546.989
2091 0 76.1254 11.9802 912 56.4583 1309.76 546.849
2092 0 79.0641 12.7112 1005 56.0149 1310.09 545.793
2093 0 80.1672 11.95 958 57.3017 1309.98 543.895
2094 0 83.1038 13.6937 1138 55.5641 1310.41 542.51
2095 0 84.1099 13.0187 1095 56.8566 1310.95 542.056
2096 0 86.1781 13.7622 1186 56.5936 1311.05 538.159
2097 0 89.1636 13.3238 1188 56.8148 1311.1 539.306
2098 0 93.1147 12.6511 1178 57.4975 1310.5 536.02
2099 0 95.3221 13.019 1241 57.4746 1311.02 534.961
2100 0 98.2342 14.0786 1383 56.5315 1311.03 532.454
2101 0 100.194 13.3641 1339 57.4511 1311.02 532.704
2102 0 103.13 12.6733 1307 58.7307 1311.24 529.951
2103 0 104.316 12.7881 1334 58.6102 1311.01 528.856
2104 0 108.34 13.3653 1448 58.1236 1311.66 527.266
2105 1 58.1033 9.31101 541 58.573 1311.74 553.745
2106 0 62.1607 11.1807 695 57.0086 1312.37 551.521
2107 0 63.1907 12.2961 777 56.4775 1312.31 548.709
2108 0 66.0598 11.8983 786 56.4288 1312.82 550.413
2109 0 67.0766 12.3739 830 56.1386 1313.07 547.998
2110 0 69.0889 12.6938 877 56.6978 1313.75 546.899
2111 0 72.3342 13.4238 971 55.4542 1313.71 547.519
2112 0 74.4537 12.6522 942 57.0064 1313.5 545.93
2113 0 77.2492 12.9192 998 56.3226 1313.35 546.637
2114 0 79.4862 12.996 1033 56.5837 1313.3 543.298
2115 0 81.3227 13.9444 1134 55.6764 1312.22 542.577
2116 0 84.2378 13.6162 1147 55.6181 1312.15 539.796
2117 0 87.2492 12.8253 1119 56.3762 1311.99 539.458
2118 0 87.2544 12.8246 1119 56.9267 1312.19 538.241
2119 0 92.282 13.6972 1264 55.4043 1311.78 537.403
2120 0 94.2172 12.917 1217 56.5941 1311.84 535.973
2121 0 97.3205 13.3374 1298 56.4453 1311.67 533.429
2122 0 100.321 12.9285 1297 56.7911 1311.73 532.931
2123 0 103.288 13.5736 1402 56.2454 1311.46 528.393
2124 0 107.326 13.1562 1412 56.3137 1311.43 527.44
2125 0 111.273 14.0825 1567 55.2374 1311.38 526.127
2126 0 114.258 13.5046 1543 55.7583 1310.85 522.141
2127 0 120.318 13.6223 1639 55.0049 1310.79 522.634
2128 1 67.1796 11.8786 798 54.5251 1310.35 549.439
2129 0 69.2928 12.2957 852 54.1573 1310.83 549.302
2130 0 71.363 12.3453 881 54.4484 1311.04 548.198
2131 0 73.2332 12.7265 932 54.4603 1310.68 547.447
2132 0 74.3854 12.5562 934 55.303 1310.84 546.452
2133 0 76.2797 13.5685 1035 54.0744 1310.86 545.309
2134 0 77.6104 12.756 990 55.4121 1311.18 542.809
2135 0 81.319 13.3548 1086 54.454 1310.95 544.486
2136 0 83.287 13.2674 1105 54.7412 1310.63 542.479
2137 0 88.6146 13.1468 1165 54.6189 1311.07 540.087
2138 0 89.4054 12.6614 1132 55.7845 1310.95 538.507
2139 0 95.63 14.0646 1345 53.3056 1310.77 540.573
2140 0 96.5957 13.8205 1335 54.7333 1310.46 536.075
2141 0 97.575 12.8312 1252 56.4601 1310.86 534.113
2142 0 102.353 13.2873 1360 56.0765 1310.68 535.922
2143 0 106.331 14.643 1557 54.2524 1310.76 533.754
2144 1 58.2564 10.3165 601 56.2978 1311.15 558.225
2145 0 59.4616 11.2846 671 55.7452 1310.62 558.58
2146 0 63.2704 12.1542 769 55.3953 1310.63 553.802
2147 0 65.3054 12.2042 797 54.8105 1309.57 556.531
2148 0 66.2462 12.1215 803 56.0311 1309.27 553.609
2149 0 67.3244 12.3878 834 55.6595 1309.35 553.74
2150 0 70.3276 12.6408 889 55.1237 1309.43 552.666
2151 0 70.2682 13.605 956 54.773 1309.37 550.211
2152 0 72.4127 12.8154 928 55.5959 1309.51 549.758
2153 0 75.6025 13.28 1004 54.9472 1309.48 548.508
2154 0 79.6484 14.1371 1126 53.9263 1309.47 547.457
2155 0 82.6057 13.2436 1094 54.7861 1309.27 546.244
2156 0 84.5421 13.4489 1137 54.9191 1309.37 543.03
2157 0 88.5913 14.2 1258 53.7114 1309.38 542.079
2158 0 89.3826 13.3695 1195 54.9715 1309.41 540.112
2159 1 52.4067 12.0023 629 53.8124 1309.89 562.539
2160 0 51.2732 10.7659 552 54.942 1309.8 562.21
2161 0 54.3438 11.3352 616 54.9123 1308.86 560.211
2162 0 55.1771 12.8314 708 53.7076 1309.19 559.061
2163 0 57.2205 12.5829 720 54.4236 1308.75 559.011
2164 0 59.3229 13.3001 789 53.8264 1308.59 559.24
2165 0 58.2183 12.8997 751 55.257 1308.23 558.651
2166 0 61.423 12.764 784 55.5383 1308.76 556.968
2167 0 62.3005 14.1411 881 54.403 1309.05 555.065
2168 0 65.2722 13.5433 884 54.7149 1309.33 554.41
2169 0 66.3452 13.475 894 55.3993 1308.82 553.28
2170 0 67.4159 13.8395 933 55.0054 1308.96 554.213
2171 0 70.7028 14.0871 996 54.5 1308.75 554.895
2172 0 70.6702 13.6691 966 55.5528 1308.88 552.325
2173 0 72.5126 13.7907 1000 55.501 1308.58 552.632
2174 0 74.4789 13.722 1022 55.8571 1307.6 551.088
2175 0 76.4218 14.0667 1075 55.3126 1307.95 549.623
2176 0 79.6961 13.7021 1092 55.6007 1307.79 548.277
2177 0 82.5438 13.9441 1151 55.722 1308.17 547.321
2178 0 87.0038 13.6316 1186 55.7201 1307.91 546.174
2179 0 87.5371 14.5081 1270 55.0535 1307.42 542.607
2180 0 90.7836 15.0027 1362 54.7504 1307.72 543.034
2181 0 93.501 14.2672 1334 55.2001 1308.02 543.337
2182 0 95.6633 14.1747 1356 55.5656 1307.87 539.466
2183 0 97.5886 14.9095 1455 54.7904 1308.15 538.951
2184 1 53.3424 12.5416 669 55.6353 1308.48 560.428
2185 0 55.4139 12.7224 705 55.1872 1308.6 559.862
2186 0 57.6751 12.4837 720 55.2361 1308.98 558.351
2187 0 60.4817 12.7807 773 54.8396 1309.11 557.594
2188 0 62.503 15.3593 960 52.4188 1309.41 556.243
2189 0 62.516 13.8045 863 54.8424 1309.76 555.605
2190 0 65.6514 14.2876 938 53.7846 1309.63 554.471
2191 0 66.6694 14.6544 977 53.7851 1310.09 552.154
2192 0 68.3135 14.0236 958 54.9395 1310 552.102
2193 0 70.8155 14.5166 1028 54.356 1310.35 550.926
2194 0 73.5518 14.6699 1079 53.3874 1310.74 550.776
2195 0 75.2959 14.5958 1099 54.2575 1310.15 549.086
2196 0 79.3701 14.5773 1157 54.0475 1310.82 545.962
2197 0 80.2934 14.6338 1175 54.5694 1310.66 545.777
2198 0 82.2673 15.0242 1236 54.1909 1311.47 544.706
2199 0 85.5201 13.7979 1180 55.739 1311.4 543.331
2200 0 89.3516 15.8587 1417 53.3522 1311.67 541.659
2201 0 92.4811 14.7381 1363 54.8327 1311.54 541.015
2202 0 95.4642 15.786 1507 53.6967 1312.64 538.873
2203 0 98.485 15.1089 1488 55.0833 1313 538.425
2204 0 100.509 14.4763 1455 56.2955 1313.06 534.707
2205 0 104.418 15.2943 1597 55.1465 1313.66 534.785
2206 1 56.2754 12.1367 683 58.1523 1313.66 556.41
2207 0 60.4435 12.4745 754 56.7029 1313.59 557.513
2208 0 61.2847 13.2823 814 57.5258 1313.38 554.48
2209 0 61.3244 14.6434 898 56.3307 1313.47 552.659
2210 0 63.3364 13.7993 874 57.6316 1313.6 552.033
2211 0 65.2256 14.2889 932 56.6749 1313.64 551.108
2212 0 66.1526 13.9828 925 57.5211 1313.54 549.187
2213 0 69.3432 14.2191 986 56.9797 1313.35 549.751
2214 0 70.4693 14.1906 1000 57.46 1313.76 548.402
2215 0 72.4017 14.3505 1039 57.4774 1314.06 546.26
2216 0 76.2035 13.5164 1030 57.6126 1314.61 546.026
2217 0 76.3643 14.4046 1100 57.2782 1314.96 544.749
2218 0 79.2897 14.365 1139 57.1923 1315.2 543.461
2219 0 82.3319 13.7006 1128 57.8785 1314.99 539.553
2220 0 85.3916 14.533 1241 56.5197 1314.71 539.386
2221 0 87.232 13.3208 1162 58.3442 1314.94 537.748
2222 0 91.3933 13.6881 1251 57.9392 1314.66 533.697
2223 0 95.5519 13.7203 1311 57.4073 1314.68 535.039
2224 0 96.4846 14.2613 1376 57.1868 1314.58 532.721
2225 0 99.3246 12.8971 1281 58.6729 1313.99 532.126
2226 0 103.334 13.6548 1411 57.8001 1314.36 530.95
2227 1 58.2297 11.1799 651 58.6575 1314.3 552.565
2228 0 60.169 9.97191 600 59.0983 1313.4 552.038
2229 0 63.2595 12.3776 783 57.9693 1313.78 551.246
2230 0 66.0831 12 793 58.2371 1313.43 547.091
2231 0 69.4279 13.2223 918 56.5185 1313.28 548.664
2232 0 71.2934 12.8343 915 56.5902 1313.39 545.659
2233 0 72.4145 14.2789 1034 55.7166 1313.67 544.425
2234 0 76.3777 13.3285 1018 56.1169 1313.54 543.399
2235 0 78.402 13.6093 1067 56.5408 1313.49 542.202
2236 0 81.2439 13.4041 1089 56.382 1313.17 540.166
2237 0 85.2727 13.709 1169 55.3618 1312.55 540.03
2238 0 89.4258 13.5867 1215 55.2543 1312.71 539.839
2239 0 91.3398 13.3786 1222 56.1768 1312.44 536.241
2240 0 92.3815 12.6757 1171 57.6635 1312.28 535.754
2241 0 95.3195 14.3307 1366 55.3367 1312.5 535.42
2242 1 53.4708 10.7348 574 56.3066 1312.74 556.401
2243 0 53.5513 10.0651 539 56.9017 1313.27 556.813
2244 0 55.1499 11.8767 655 55.8168 1313.87 553.344
2245 0 58.5505 13.2877 778 54.7391 1313.23 551.553
2246 0 60.2272 13.3163 802 55.2494 1312.45 552.094
2247 0 63.266 13.1824 834 54.735 1312.75 551.442
2248 0 65.3242 11.9251 779 56.4942 1311.85 550.746
2249 0 68.2689 13.4175 916 54.6954 1311.73 549.311
2250 0 69.5418 13.3157 926 55.0821 1311.88 547.738
2251 0 70.5365 13.0571 921 55.5722 1312.13 546.621
2252 0 72.5095 13.2396 960 55.3896 1311.84 546.434
2253 0 74.5468 13.4278 1001 55.9011 1311.7 545.395
2254 0 78.4427 13.4748 1057 55.8458 1311.82 544.687
2255 0 81.3919 12.9497 1054 56.7514 1311.62 541.11
2256 0 83.5655 13.5104 1129 56.4287 1311.6 542.704
2257 0 86.657 12.9591 1123 57.1167 1311.43 541.231
2258 0 90.6311 13.2515 1201 56.771 1311.28 540.634
2259 1 52.4191 10.5687 554 55.7635 1311.25 560.482
2260 0 53.391 12.268 655 55.4412 1311.14 559.157
2261 0 53.4076 11.7212 626 56.3722 1311.09 559.118
2262 0 56.4543 12.24 691 55.8177 1311.3 558.091
2263 0 57.1813 11.6646 667 56.7781 1311.01 556.712
2264 0 59.2457 12.5747 745 56.004 1310.89 555.411
2265 0 59.1999 13.0406 772 56.3756 1310.91 555.254
2266 0 62.1138 12.9601 805 56.7267 1310.46 554.497
2267 0 64.2011 13.2241 849 56.4711 1311.14 553.428
2268 0 66.2848 12.8385 851 56.9624 1311.1 553.215
2269 0 69.2694 13.2237 916 56.7052 1311.28 551.413
2270 0 70.338 12.8665 905 57.8265 1311.34 549.856
2271 0 73.2778 13.6467 1000 57.181 1311.25 550.637
2272 0 73.291 13.1531 964 58.6245 1311.14 548.171
2273 0 77.361 13.3788 1035 58.5072 1311.31 548.403
2274 0 78.3273 13.6989 1073 59.2274 1311.61 547.742
2275 0 81.1625 13.8118 1121 59.4567 1311.3 545.288
2276 0 84.3267 13.7442 1159 59.9733 1310.99 544.313
2277 0 85.1839 12.2441 1043 62.8121 1310.73 542.906
2278 0 86.3888 13.9023 1201 60.816 1310.31 541.057
2279 0 93.5451 13.7795 1289 60.5997 1310.63 539.064
2280 0 96.4793 14.6456 1413 59.8917 1310.19 537.876
2281 0 99.4701 13.8936 1382 61.3784 1310.49 535.593
2282 0 99.4701 13.8635 1379 167.236 1311.5 535.58
2283 0 105.58 13.6673 1443 62.4414 1310.32 533.069
2284 0 107.378 14.2394 1529 62.6651 1310.12 530.196
2285 1 59.5099 10.7713 641 63.0858 1310.11 557.047
2286 0 62.3004 10.4654 652 63.523 1310.34 556.548
2287 0 66.2245 12.5633 832 61.9315 1309.89 553.088
2288 0 68.3305 12.9225 883 61.3907 1310.24 554.005
2289 0 70.3292 13.0102 915 61.6055 1309.66 551.955
2290 0 72.1549 13.6373 984 61.127 1309.13 552.514
2291 0 74.1494 12.6366 937 62.7108 1308.81 551.388
2292 0 76.4467 13.565 1037 61.9277 1309.07 549.305
2293 0 76.2467 13.3514 1018 63.0265 1308.79 549.116
2294 0 81.2182 13.6546 1109 61.9829 1308.76 547.864
2295 0 82.383 13.7043 1129 62.6191 1309.11 544.89
2296 0 86.289 14.718 1270 60.6315 1309.09 544.172
2297 0 88.2339 13.0222 1149 62.9896 1309.37 545.026
2298 0 90.4503 13.7534 1244 62.9389 1309.65 543.356
2299 0 93.4733 14.4426 1350 60.9919 1309.94 544.714
2300 0 96.5055 13.9681 1348 61.701 1309.51 541.303
2301 0 98.4768 13.6073 1340 61.9261 1309.24 541.057
2302 0 103.473 14.4482 1495 60.2013 1309.62 539.938
2303 0 105.464 13.6256 1437 62.08 1309.45 536.031
2304 1 58.3153 12.1752 710 63.2437 1309.44 559.365
2305 0 58.5425 11.8034 691 62.9276 1309.39 559.891
2306 0 61.1407 12.8065 783 61.5096 1309.08 557.432
2307 0 62.28 13.359 832 60.7873 1309.22 556.225
2308 0 66.5256 14.3554 955 59.3749 1309.32 554.24
2309 0 70.4478 13.7549 969 59.2436 1309.99 554.626
2310 0 67.4574 12.734 859 62.0035 1309.56 552.313
2311 0 72.4179 13.1045 949 61.0358 1310.09 549.415
2312 0 75.3974 13.9395 1051 59.5347 1309.98 550.545
2313 0 77.4846 13.7447 1065 59.7831 1309.73 548.243
2314 0 81.4659 14.0304 1143 59.0744 1309.76 546.318
2315 0 82.4628 13.7395 1133 59.1024 1310.04 546.152
2316 0 86.5462 13.5072 1169 59.6775 1310.49 545.453
2317 0 87.5716 12.4127 1087 61.1178 1310.26 542.744
2318 0 93.5351 14.54 1360 58.0904 1310.62 541.785
2319 0 95.4643 13.5758 1296 59.6042 1310.74 539.204
2320 0 99.3265 13.4506 1336 59.6781 1310.77 535.525
2321 1 53.2275 10.6336 566 60.6148 1310.95 558.311
2322 0 57.2949 12.6538 725 58.731 1310.11 557.018
2323 0 58.2358 12.2433 713 58.7419 1310.61 558.245
2324 0 59.065 12.4609 736 59.5353 1310.09 556.133
2325 0 62.1384 13.6148 846 57.9173 1310.85 555.027
2326 0 64.1203 13.0848 839 58.9905 1310.58 554.271
2327 0 66.0646 12.9267 854 58.7857 1311.04 552.347
2328 0 67.1089 13.1279 881 58.7957 1311.47 551.075
2329 0 69.1475 12.8132 886 59.1038 1311.48 543.188
2330 0 74.0724 13.9188 1031 57.2211 1311.84 544.048
2331 0 75.1802 14.0064 1053 57.567 1311.97 542.325
2332 0 77.1674 14.9675 1155 56.6294 1312.25 543.423
2333 0 78.2439 13.0106 1018 59.3969 1312.35 543.265
2334 0 82.1 13.5566 1113 58.4933 1312.18 541.407
2335 0 85.1808 13.9938 1192 58.1586 1312.33 539.474
2336 0 86.25 13.7507 1186 58.7833 1312.49 538.268
2337 0 89.3173 13.8383 1236 58.7476 1312.23 538.4
2338 0 91.2633 13.1269 1198 60.3289 1312.21 536.676
2339 0 94.2794 14.5949 1376 58.564 1312.24 536.168
2340 0 99.3196 14.6295 1453 58.4659 1312.33 535.769
2341 1 54.107 11.8099 639 60.0203 1312.63 558.335
2342 0 55.1623 11.6928 645 61.1426 1312.96 557.158
2343 0 56.1479 12.9479 727 60.1224 1313.05 554.946
2344 0 58.1499 14.0499 817 58.9914 1313.45 552.494
2345 0 59.053 14.0721 831 59.3189 1313.53 550.645
2346 0 64.0995 14.2279 912 57.8399 1313.67 551.34
2347 0 64.0385 13.4607 862 59.1763 1313.77 549.471
2348 0 65.0731 13.9996 911 59.4116 1313.68 548.869
2349 0 69.1488 14.2157 983 58.4405 1313.91 548.489
2350 0 70.1422 14.4706 1015 58.1586 1313.68 547.561
2351 0 73.1242 14.1677 1036 58.7973 1314.05 545.944
2352 0 73.1605 14.2973 1046 59.5258 1314.35 546.283
2353 0 77.1181 14.4324 1113 58.9704 1313.18 544.986
2354 0 79.3137 14.4868 1149 58.7746 1313.35 544.189
2355 0 82.1778 14.6025 1200 58.7833 1312.93 539.019
2356 0 84.3057 14.2458 1201 58.8443 1313.31 540.548
2357 0 88.3556 14.3964 1272 58.7736 1313.08 538.094
2358 0 91.3971 15.1974 1389 58.0475 1312.73 537.994
2359 0 96.3123 14.9514 1440 57.8062 1312.4 536.971
2360 1 53.2163 12.0452 641 60.9189 1312.46 555.63
2361 0 56.3507 11.6591 657 61.4718 1312.28 554.998
2362 0 56.2263 13.0366 733 60.4557 1312 554.025
2363 0 57.2879 13.8773 795 59.7157 1311.93 553.447
2364 0 60.2332 14.4771 872 58.9736 1312.21 550.921
2365 0 61.3708 13.1007 804 60.7301 1311.52 550.944
2366 0 64.3756 14.8969 959 58.7351 1311.76 549.534
2367 0 65.1089 14.2991 931 59.6971 1311.44 549.126
2368 0 67.2264 14.6371 984 60.1077 1311.3 547.49
2369 0 68.4898 14.8343 1016 60.4144 1311.44 545.872
2370 0 71.3472 15.0251 1072 60.5336 1311.31 545.483
2371 0 72.4174 14.734 1067 60.716 1310.93 545.202
2372 0 77.4602 15.0658 1167 60.4207 1311.15 544.188
2373 0 77.3347 13.9911 1082 62.6543 1310.48 543.153
2374 0 82.3381 15.4485 1272 60.5668 1310.69 541.997
2375 0 85.4717 15.0225 1284 61.2695 1310.42 540.18
2376 0 89.2619 15.1128 1349 61.0074 1310.79 537.91
2377 0 92.4063 16.1677 1494 59.8293 1310.3 538.284
2378 0 93.399 15.4927 1447 61.0726 1310.11 536.883
2379 0 97.7509 14.7518 1442 61.7261 1310.33 533.883
2380 1 55.471 13.3223 739 63.1407 1309.71 556.614
2381 0 55.2834 11.2149 620 62.7661 1309.73 554.873
2382 0 59.3871 13.6562 811 60.1924 1309.86 553.561
2383 0 61.5148 13.8828 854 59.6159 1309.93 552.811
2384 0 62.2552 15.1795 945 58.6423 1310.2 551.235
2385 0 64.3574 14.5127 934 58.8951 1310.35 553.282
2386 0 67.4122 14.4929 977 58.9284 1310.61 549.979
2387 0 70.3656 15.6468 1101 56.8937 1311.02 549.611
2388 0 70.4703 14.2188 1002 59.1747 1310.52 547.919
2389 0 74.1431 14.499 1075 58.8465 1310.83 546.225
2390 0 76.4245 15.3354 1172 57.9974 1310.83 545.567
2391 0 79.3482 14.0142 1112 59.1933 1310.79 545.25
2392 0 81.3543 13.9145 1132 59.803 1311.04 543.393
2393 0 83.3113 14.5959 1216 59.0847 1310.52 542.245
2394 0 84.0846 14.533 1222 59.7881 1310.42 540.271
2395 0 89.1564 14.8391 1323 58.8692 1310.39 539.346
2396 0 92.2198 15.1052 1393 58.6963 1310.43 538.007
2397 0 95.2639 15.6827 1494 58.2858 1310.27 536.818
2398 0 99.1846 15.4258 1530 58.3608 1310.39 536.071
2399 0 103.353 16.5066 1706 56.9115 1310.59 533.917
2400 0 104.306 15.5983 1627 58.4813 1310.43 534.537
2401 0 107.12 14.6471 1569 59.8113 1310.5 531.642
2402 0 112.21 16.1928 1817 57.5349 1310.41 530.397
2403 0 116.304 15.322 1782 58.4955 1310.22 528.788
2404 1 66.122 13.3692 884 59.5136 1309.78 553.249
2405 0 69.109 13.5438 936 59.531 1309.49 551.575
2406 0 69.1561 13.7949 954 59.5535 1309.77 548.96
2407 0 74.1442 14.4583 1072 58.6763 1309.25 548.52
2408 0 76.1522 14.9306 1137 58.2128 1309.25 547.465
2409 0 78.1694 14.6477 1145 58.9459 1309.1 547.635
2410 0 80.1537 15.1459 1214 58.6911 1309.14 544.78
2411 0 82.1708 14.8471 1220 59.323 1308.77 542.531
2412 0 87.2468 14.3386 1251 59.4804 1309.4 543.699
2413 0 89.2944 15.1633 1354 58.4882 1308.68 543.776
2414 0 89.2944 15.1969 1357 170.023 1307.67 543.701
2415 0 95.2803 14.8614 1416 60.0056 1308.14 537.691
2416 0 99.1408 15.4023 1527 59.4866 1308.22 535.828
2417 0 101.185 14.6168 1479 60.3245 1308.29 537.56
2418 0 104.512 15.2996 1599 59.0644 1308.86 535.335
2419 0 104.512 15.3762 1607 172.093 1308.85 535.38
2420 1 62.2042 12.9734 807 60.3643 1308.42 556.366
2421 0 64.2382 13.9325 895 60.3408 1308.87 552.855
2422 0 68.2818 15.3482 1048 58.0649 1308.71 553.693
2423 0 69.2827 13.914 964 60.1151 1308.56 551.304
2424 0 70.4706 14.1336 996 60.4689 1308.52 548.777
2425 0 73.3636 14.653 1075 59.1935 1308.32 548.657
2426 0 79.4571 14.6117 1161 59.1637 1308.12 547.691
2427 0 81.2729 14.8143 1204 59.1852 1308.41 547.397
2428 0 85.6525 15.271 1308 57.8991 1307.97 545.232
2429 0 84.6756 13.9001 1177 60.4087 1308.37 542.954
2430 0 84.6756 13.9237 1179 171.087 1309.38 542.89
2431 0 93.5123 14.5756 1363 59.4718 1308.13 539.539
2432 0 95.5889 14.4996 1386 60.1602 1308.51 538.348
2433 0 97.2981 14.4504 1406 60.5078 1308.72 535.432
2434 0 103.572 15.2647 1581 58.9911 1308.64 536.17
2435 0 105.848 14.7475 1561 59.9507 1308.77 533.554
2436 0 109.58 15.4864 1697 59.0896 1309.06 531.407
2437 0 113.476 15.0253 1705 60.1038 1308.79 528.78
2438 0 116.391 15.2417 1774 60.2012 1308.6 528.671
2439 0 122.402 15.392 1884 59.2829 1308.44 526.426
2440 1 71.3847 12.4957 892 59.8655 1308.69 551.252
2441 0 74.1968 13.9629 1036 57.6853 1308.97 550.853
2442 0 75.3251 12.7049 957 60.5789 1309.23 548.705
2443 0 78.5204 14.0982 1107 59.3514 1308.98 547.573
2444 0 79.6449 12.9952 1035 60.8155 1309.09 546.635
2445 0 82.5187 13.5121 1115 60.322 1308.85 546.881
2446 0 85.441 12.9446 1106 61.3291 1309.03 543.636
2447 0 88.4262 13.107 1159 61.4685 1309.16 541.077
2448 0 89.381 12.5082 1118 62.6485 1309.26 539.601
2449 0 94.4557 13.4031 1266 61.3665 1309.13 537.734
2450 0 97.5333 12.5598 1225 62.711 1309.32 535.722
2451 0 100.273 13.7424 1378 61.5036 1309.45 533.081
2452 0 105.333 14.7532 1554 60.2272 1309.37 532.588
2453 0 109.345 15.1904 1661 59.6346 1309.48 532.237
2454 0 113.456 14.1024 1600 59.2263 1309.52 530.175
2455 0 115.383 14.2222 1641 58.9665 1309.63 529.104
2456 0 118.273 13.7901 1631 60.0129 1310.17 523.988
2457 0 122.382 13.8337 1693 59.6751 1310.03 524.112
2458 1 72.257 10.8917 787 60.4498 1310.89 549.957
2459 0 72.257 10.8502 784 171.46 1311.87 549.989
2460 0 76.4067 12.6167 964 59.1421 1311.31 547.822
2461 0 77.2854 13.3919 1035 58.5459 1311.16 547.721
2462 0 79.3213 13.2877 1054 59.5493 1310.96 543.611
2463 0 82.2543 12.8747 1059 59.797 1311.27 544.438
2464 0 84.2535 12.9253 1089 59.7971 1311.73 542.492
2465 0 84.2837 13.1342 1107 60.4598 1311.62 539.302
2466 0 90.2583 14.4031 1300 58.5408 1311.74 539.348
2467 0 93.3238 13.4585 1256 59.4363 1312.33 537.295
2468 0 95.4157 13.7189 1309 59.1245 1312.4 536.316
2469 0 100.312 14.3353 1438 58.4569 1312.43 534.624
2470 0 102.298 15.1127 1546 57.8001 1312.67 531.75
2471 0 105.22 13.6856 1440 59.8049 1312.76 529.751
2472 0 106.286 13.9435 1482 59.3927 1313.36 529.415
2473 0 110.37 14.2611 1574 59.1582 1313.48 529.743
2474 0 115.305 14.5788 1681 58.6562 1314.04 525.94
2475 0 120.428 14.8387 1787 57.7292 1313.87 523.958
2476 1 69.3926 10.7648 747 59.6145 1314.36 546.759
2477 0 73.2082 12.1434 889 57.4679 1314.24 548.038
2478 0 74.5112 12.2398 912 58.2379 1314.02 545.822
2479 0 79.2057 13.143 1041 56.2872 1313.81 543.655
2480 0 77.2466 12.6737 979 57.7497 1313.49 542.171
2481 0 82.2369 12.768 1050 57.4 1313.67 541.102
2482 0 83.3993 13.1656 1098 57.7869 1313.09 538.436
2483 0 85.3161 12.483 1065 58.4404 1313.17 538.743
2484 0 89.3426 12.7487 1139 58.3538 1312.91 536.98
2485 0 93.4049 13.1149 1225 58.3486 1313.16 534.77
2486 0 95.4339 14.3869 1373 57.2032 1313.35 532.758
2487 0 98.4056 14.0134 1379 57.4133 1313.39 532.08
2488 0 102.4 13.9649 1430 57.3895 1313.22 531.236
2489 0 103.37 13.7177 1418 58.6439 1313.41 527.84
2490 0 108.293 14.1838 1536 57.7721 1313.42 528.417
2491 0 110.452 14.1509 1563 58.2617 1313.18 524.354
2492 0 113.384 15.1433 1717 56.9377 1313.21 525.483
2493 0 116.259 14.2613 1658 58.4035 1312.87 523.027
2494 0 119.449 14.2823 1706 58.4009 1312.14 521.443
2495 0 124.541 14.9187 1858 57.4473 1312.28 519.078
2496 0 126.507 14.1178 1786 58.8393 1312.3 515.123
2497 1 70.4534 10.9434 771 58.6485 1312.21 544.178
2498 0 73.4859 11.9887 881 57.6425 1312.23 544.739
2499 0 77.6035 12.7056 986 57.2221 1312.55 541.261
2500 0 79.3947 13.7793 1094 55.7194 1312.65 542.425
2501 0 83.6284 12.998 1087 56.6688 1312.1 541.639
2502 0 85.4581 13.7143 1172 56.5427 1311.66 539.566
2503 0 86.4752 14.004 1211 56.4913 1311.61 538.095
2504 0 90.7402 13.5221 1227 57.0839 1311.4 534.587
2505 0 91.6541 13.3 1219 57.5759 1311.71 532.938
2506 0 98.4758 14.105 1389 56.09 1311.34 532.456
2507 0 101.413 13.7457 1394 56.2353 1311.35 532.448
2508 0 104.575 14.5924 1526 55.3788 1311.79 530.392
2509 0 105.447 14.5286 1532 56.5457 1311.34 528.77
2510 0 109.38 13.8691 1517 57.1595 1311.37 528.49
2511 0 111.372 15.1025 1682 56.2979 1311.27 525.411
2512 0 114.205 14.6053 1668 56.7914 1311.34 523.062
2513 0 119.501 14.6275 1748 56.1104 1311.59 523.737
2514 0 121.644 13.9341 1695 57.3068 1311.41 520.253
2515 0 126.851 15.1753 1925 55.7049 1311.61 516.594
2516 1 72.5404 11.2213 814 57.5 1311.33 546.294
2517 0 73.376 11.993 880 56.7352 1311.39 545.675
2518 0 75.4178 11.8937 897 57.4058 1310.67 542.868
2519 0 79.3611 13.5457 1075 55.4158 1310.54 541.073
2520 0 78.3471 12.6616 992 57.2823 1310.31 540.053
2521 0 82.265 12.7636 1050 57.0029 1310.55 538.806
2522 0 84.4421 13.4648 1137 56.54 1310.23 539.328
2523 0 86.3636 13.1421 1135 56.9427 1310.8 538.71
2524 0 90.3019 13.1116 1184 56.8285 1310.22 537.532
2525 0 93.5509 14.0245 1312 55.497 1310.35 535.556
2526 0 96.5269 13.8407 1336 56.0022 1310.23 532.043
2527 0 98.4317 14.1011 1388 56.2536 1310.37 530.228
2528 0 101.429 14.8479 1506 55.0133 1310.14 531.527
2529 0 104.288 13.5106 1409 56.8098 1310.11 527.879
2530 0 107.547 14.9237 1605 55.0673 1309.77 528.419
2531 0 109.584 13.7794 1510 56.4086 1309.44 526.866
2532 0 114.634 15.2224 1745 54.8155 1309.64 523.457
2533 0 117.349 15.8671 1862 54.0784 1309.46 522.921
2534 0 122.429 14.7759 1809 54.9353 1309.58 522.174
2535 0 123.283 14.5681 1796 55.6821 1309.73 518.283
2536 0 127.424 14.8717 1895 55.2781 1309.38 516.361
2537 0 132.431 14.7473 1953 55.296 1309.73 515.038
2538 0 137.423 14.5245 1996 56.5586 1309.59 512.354
2539 0 141.323 14.9374 2111 56.3382 1309.92 511.722
2540 1 84.323 10.021 845 57.6414 1310.16 544.073
2541 0 86.2923 12.7937 1104 56.2138 1309.48 540.003
2542 0 86.2903 12.9447 1117 56.3975 1309.37 536.706
2543 0 91.3237 12.6254 1153 56.0286 1308.65 540.051
2544 0 95.3613 13.3283 1271 55.797 1308.95 535.661
2545 0 99.2884 13.496 1340 55.2209 1309.45 536.046
2546 0 100.372 13.3703 1342 55.927 1309.33 534.566
2547 0 103.357 14.0871 1456 55.1504 1309.21 533.886
2548 0 107.524 14.1642 1523 54.8759 1308.89 531.489
2549 0 111.379 13.7818 1535 55.0795 1309.31 530.137
2550 0 112.455 13.721 1543 55.3558 1309.23 526.883
2551 0 117.311 14.176 1663 55.0698 1309.16 522.948
2552 0 121.371 14.3857 1746 54.5309 1308.51 526.372
2553 0 122.213 13.4356 1642 56.4105 1308.93 520.924
2554 0 127.187 13.2482 1685 56.1804 1308.35 520.789
2555 0 132.275 14.1599 1873 55.2547 1308.25 518.959
2556 0 136.477 14.3394 1957 55.394 1308.47 516.708
2557 0 140.359 14.8547 2085 54.9185 1308.92 512.784
2558 0 144.29 15.3095 2209 54.215 1308.58 515.006
2559 0 151.332 15.1851 2298 54.218 1309.01 508.867
2560 1 87.2421 11.6228 1014 54.6598 1308.78 543.448
2561 0 91.1338 11.9385 1088 54.7178 1308.77 542.199
2562 0 90.1945 11.9409 1077 55.5831 1308.78 539.629
2563 0 97.2137 13.3109 1294 53.4614 1308.58 538.28
2564 0 98.206 13.2171 1298 54.1826 1309.1 537.038
2565 0 100.188 13.7242 1375 54.2975 1309.18 535.124
2566 0 103.204 12.7999 1321 56.598 1309.31 532.497
2567 0 107.233 14.0815 1510 55.2642 1309.31 532.258
2568 0 110.177 14.1046 1554 55.5051 1309.52 530.309
2569 0 113.208 13.2323 1498 56.0955 1309.65 530.166
2570 0 117.259 13.9265 1633 55.5671 1309.45 526.682
2571 0 120.199 13.8271 1662 55.7521 1309.3 525.082
2572 0 124.184 13.4558 1671 55.7882 1309.17 521.705
2573 0 130.401 15.644 2040 53.1324 1309.08 521.753
2574 0 133.247 14.7395 1964 54.164 1309.25 520.223
2575 0 137.287 13.9634 1917 55.144 1308.76 515.729
2576 0 141.199 15.2905 2159 52.9958 1308.86 517.95
2577 0 148.224 15.3956 2282 53.45 1307.99 514.66
2578 1 85.2553 10.275 876 54.9772 1308.26 544.063
2579 0 86.2476 10.9452 944 53.5572 1308.12 542.685
2580 0 90.3402 11.7334 1060 52.9877 1307.63 541.925
2581 0 91.2425 12.4942 1140 52.9702 1308.1 540.018
2582 0 95.4255 12.3133 1175 53.16 1307.8 539.217
2583 0 100.337 13.7636 1381 51.5742 1307.81 535.724
2584 0 103.422 14.349 1484 50.7763 1308.17 531.477
2585 0 105.525 12.5374 1323 53.0605 1308.42 531.036
2586 0 107.6 14.2658 1535 51.729 1308.67 530.659
2587 0 111.804 12.9691 1450 52.7917 1308.79 530.762
2588 0 114.286 13.3875 1530 52.8007 1308.99 526.772
2589 0 119.397 14.9251 1782 51.1958 1309.57 525.731
2590 0 121.728 14.1791 1726 52.4224 1309.5 522.191
2591 0 124.465 14.4779 1802 52.3851 1309.74 523.81
2592 0 129.455 14.2598 1846 52.6934 1309.74 519.658
2593 0 129.455 14.2366 1843 156.536 1309.74 519.703
2594 0 135.559 13.957 1892 53.6728 1309.66 512.621
2595 0 141.619 13.734 1945 53.8308 1309.49 513.249
2596 1 82.4432 11.6323 959 53.0907 1309.4 543.88
2597 0 84.5547 13.4824 1140 52.793 1310.1 540.152
2598 0 87.3951 12.8726 1125 53.7164 1309.74 535.413
2599 0 87.1059 12.0084 1046 54.4293 1309.65 536.771
2600 0 91.2083 12.4769 1138 54.2004 1310.33 535.655
2601 0 92.1654 12.7488 1175 54.7166 1310.76 533.707
2602 0 94.201 13.7578 1296 53.9444 1310.85 530.587
2603 0 98.2536 13.282 1305 54.2575 1311.1 531.157
2604 0 100.224 13.1905 1322 55.0076 1310.82 528.243
2605 0 104.261 12.9866 1354 55.257 1311.47 525.474
2606 0 106.517 13.7912 1469 54.322 1311.94 526.634
2607 0 113.333 14.4089 1633 53.5236 1311.9 524.324
2608 0 115.463 13.2251 1527 55.6058 1312.37 522.402
2609 0 116.203 14.2509 1656 54.8973 1312.97 521.473
2610 0 119.24 13.7202 1636 55.7671 1313.15 518.278
2611 0 126.305 14.5442 1837 54.3391 1313.19 517.957
2612 0 126.273 13.3045 1680 56.3601 1312.62 512.489
2613 0 130.349 13.7171 1788 55.9972 1312.88 512.561
2614 0 133.583 13.355 1784 56.3061 1312.63 508.718
2615 1 82.228 11.0911 912 54.4156 1313.1 539.198
2616 0 84.1966 10.808 910 55.1484 1313.43 539.659
2617 0 85.224 12.5669 1071 54.7638 1313.08 536.692
2618 0 87.0966 12.423 1082 54.7652 1313.27 536.956
2619 0 91.3297 13.2925 1214 53.8188 1313.35 536.373
2620 0 92.136 12.449 1147 55.8038 1313.24 534.916
2621 0 95.3117 13.1463 1253 55.0814 1313.67 533.333
2622 0 96.2776 12.5367 1207 56.309 1313.97 531.227
2623 0 101.358 12.668 1284 56.1745 1313.89 530.356
2624 0 101.244 13.6601 1383 56.1244 1314.3 527.745
2625 0 108.284 13.8432 1499 55.2468 1314.33 526.618
2626 0 109.373 13.1294 1436 56.5167 1314.28 526.016
2627 0 112.316 14.29 1605 54.9128 1313.98 523.424
2628 0 115.182 13.7001 1578 55.2364 1314.09 521.522
2629 0 119.3 13.0259 1554 56.2214 1313.68 518.597
2630 0 123.464 14.5468 1796 54.5791 1313.78 517.646
2631 0 125.372 13.4241 1683 56.1462 1313.16 516.409
2632 0 130.277 14.3924 1875 54.6 1312.93 516.393
2633 1 78.1377 10.7886 843 55.5884 1313.46 542.326
2634 0 80.2404 10.6929 858 55.4277 1312.88 542.457
2635 0 80.2187 12.3413 990 53.9636 1313.08 543.189
2636 0 82.2955 12.2971 1012 55.4358 1312.75 540.088
2637 0 87.1231 12.798 1115 54.6063 1313.22 540
2638 0 90.1997 13.836 1248 53.1619 1313.22 536.687
2639 0 91.1311 13.8043 1258 53.6264 1313.38 536.599
2640 0 94.211 15.0726 1420 52.2423 1312.94 535.102
2641 0 98.3585 14.4675 1423 52.5214 1312.53 533.213
2642 0 100.501 13.7909 1386 53.5007 1312.48 530.713
2643 0 102.453 13.5282 1386 54.3442 1312.1 529.025
2644 0 108.39 14.5401 1576 52.9537 1312.44 527.533
2645 0 108.32 13.2478 1435 54.7833 1312.21 526.098
2646 0 113.51 14.1309 1604 53.6496 1312.24 524.225
2647 0 112.394 13.0345 1465 55.2642 1312.24 521.124
2648 0 115.513 12.9942 1501 55.4217 1312.2 520.892
2649 0 121.405 14.5217 1763 53.5961 1311.93 520.033
2650 0 124.338 14.6456 1821 51.5228 1311.93 517.147
2651 0 128.262 14.5483 1866 51.5021 1312.27 518.051
2652 0 131.36 13.9464 1832 52.2003 1312.41 514.227
2653 0 135.322 14.5209 1965 52.057 1312.31 510.342
2654 0 139.364 14.3079 1994 52.4975 1313.1 507.361
2655 0 144.387 14.7589 2131 51.633 1311.93 510.629
2656 0 149.276 14.2421 2126 52.2074 1311.96 505.09
2657 1 87.1809 11.9751 1044 50.9282 1311.53 539.272
2658 0 89.4023 12.1585 1087 51.5584 1311.49 536.702
2659 0 91.3079 12.8028 1169 51.2635 1311.36 533.859
2660 0 95.1545 13.0314 1240 50.8573 1311.65 534.183
2661 0 96.2217 12.8453 1236 51.3463 1311.56 532.492
2662 0 99.3963 13.1091 1303 51.3945 1311.34 531.487
2663 0 101.326 12.3759 1254 52.319 1311.15 529
2664 0 104.396 13.0081 1358 52.0412 1311.35 529.231
2665 0 108.471 14.391 1561 50.4004 1311.29 528.512
2666 0 111.539 13.9054 1551 50.8356 1311.5 527.479
2667 0 113.394 13.625 1545 51.767 1310.81 523.638
2668 0 116.682 13.5325 1579 52.1089 1311.2 520.706
2669 0 120.301 13.7239 1651 51.4942 1311.21 526.216
2670 0 122.53 13.8089 1692 52.0662 1310.86 519.817
2671 0 128.486 14.6086 1877 51.1044 1311.2 518.47
2672 0 132.43 14.0905 1866 51.5879 1310.69 514.76
2673 0 136.352 13.8538 1889 52.1805 1310.35 512.817
2674 0 139.395 13.6949 1909 52.5474 1310.55 511.983
2675 0 142.455 14.3764 2048 52.3076 1310.34 508.463
2676 0 148.347 14.4863 2149 51.892 1310.48 508.597
2677 0 152.319 13.3536 2034 53.3324 1310.53 501.248
2678 1 92.217 9.92225 915 52.0459 1310.16 537.598
2679 0 93.2614 10.6475 993 51.7281 1310.47 535.69
2680 0 94.2645 11.4041 1075 51.6967 1310.09 533.689
2681 0 100.264 12.5568 1259 50.44 1310.2 533.718
2682 0 100.341 12.1984 1224 52.281 1310.05 530.021
2683 0 105.514 13.4485 1419 50.8288 1310.27 529.396
2684 0 107.633 12.4497 1340 52.4119 1310.27 527.737
2685 0 109.845 13.428 1475 51.482 1310.24 527.668
2686 0 115.758 13.3813 1549 51.5126 1309.92 526.593
2687 0 117.6 13.1548 1547 52.0821 1309.94 524.089
2688 0 122.81 13.3051 1634 51.6328 1310.1 523.043
2689 0 126.636 14.4114 1825 50.6022 1310.43 522.555
2690 0 129.495 13.6993 1774 51.4526 1309.69 520.334
2691 0 133.649 13.5279 1808 51.8805 1309.22 517.467
2692 0 136.601 13.7407 1877 51.9275 1308.97 512.875
2693 0 138.598 12.4027 1719 53.2629 1309.17 512.87
2694 1 81.5215 10.6475 868 51.6521 1309.52 542.336
2695 0 87.7157 11.4233 1002 50.51 1309.64 541.352
2696 0 86.4813 10.2797 889 52.3127 1309.72 539.857
2697 0 86.5054 10.0803 872 52.8544 1309.45 538.185
2698 0 92.4519 13.7369 1270 49.6465 1309.51 539.185
2699 0 96.7636 13.9722 1352 49.1753 1309.26 536.796
2700 0 97.6331 12.7006 1240 50.7129 1308.75 535.062
2701 0 99.5145 12.5911 1253 51.0559 1308.44 534.022
2702 0 103.733 12.1369 1259 51.5449 1308.45 532.191
2703 0 105.688 13.8142 1460 49.9733 1308.59 533.454
2704 0 110.78 13.5674 1503 50.1597 1308.54 529.904
2705 0 110.917 12.4688 1383 51.6522 1308.17 529.178
2706 0 116.065 12.3982 1439 51.9666 1308.68 526.09
2707 0 116.801 13.0735 1527 51.5737 1308.79 525.941
2708 0 121.785 13.3596 1627 51.37 1309.2 523.26
2709 0 124.565 14.1453 1762 50.2707 1309.5 524.34
2710 0 129.84 12.8774 1672 51.5472 1309.19 522.251
2711 0 132.904 12.5955 1674 52.2282 1309.13 518.33
2712 1 77.6996 11.0683 860 51.2616 1308.57 548.495
2713 0 82.7093 11.1354 921 50.949 1308.2 547.276
2714 0 83.6842 12.6786 1061 49.7766 1308.74 544.005
2715 0 87.6939 12.8401 1126 49.556 1308.96 544.353
2716 0 88.5571 13.7312 1216 48.9655 1309.09 542.34
2717 0 90.6597 13.2143 1198 49.5835 1308.73 540.77
2718 0 94.6585 12.656 1198 50.1252 1308.77 540.128
2719 0 95.9031 13.253 1271 49.7954 1308.35 538.89
2720 0 100.718 13.8009 1390 49.6784 1308.39 536.129
2721 0 102.787 13.9999 1439 49.5254 1308.48 535.425
2722 0 106.565 13.8038 1471 49.9307 1308.74 533.986
2723 0 108.865 13.5397 1474 50.4077 1308.28 532.692
2724 0 113.61 14.6025 1659 49.2869 1308.64 531.561
2725 0 115.56 13.7418 1588 50.0856 1308.14 531.191
2726 0 119.771 14.3441 1718 49.408 1308.24 531.044
2727 0 122.919 13.0818 1608 50.6835 1307.39 528.186
2728 0 125.81 14.3788 1809 50.0354 1307.74 523.72
2729 0 131.547 15.9411 2097 48.0291 1308.41 519.044
2730 0 135.697 15.1293 2053 49.1072 1308.58 521.631
2731 0 138.982 14.3112 1989 50.009 1308.86 520.232
