time division length width area intensity CMx CMy
0 0 34.0359 11.7229 399 159.481 1070.8 582.662
1 0 35.0801 11.0889 389 74.3728 1070.05 582.787
2 0 36.0147 11.8285 426 74.0516 1070.19 581.631
3 0 40.1128 12.041 483 72.441 1070.1 580.42
4 0 41.1331 12.8121 527 71.0152 1070.22 580.028
5 0 41.0369 12.3791 508 72.3878 1070.31 579.335
6 0 44.0811 12.8853 568 70.5053 1070.08 578.759
7 0 42.1769 13.0403 550 71.6836 1070.31 577.718
8 0 46.1191 12.0557 556 72.018 1070.85 577.477
9 0 46.1755 12.2576 566 72.9223 1070.75 576.034
10 0 48.2747 12.3874 598 73.0334 1071.31 575.338
11 0 48.0985 12.2665 590 73.7203 1071.28 574.847
12 0 51.0977 12.936 661 72.1256 1070.92 573.923
13 0 52.156 12.2901 641 73.7816 1070.98 572.632
14 0 54.0924 12.7559 690 72.742 1070.62 571.794
15 0 53.0818 12.8481 682 73.1657 1071.29 570.985
16 0 57.1168 13.0259 744 72.3011 1071.42 571.196
17 0 59.1327 12.7848 756 72.5556 1071 569.459
18 0 61.1541 13.4415 822 71.309 1071.49 567.822
19 0 63.1204 14.2901 902 70.0022 1071.26 567.174
20 0 64.1471 12.7831 820 73.4378 1071.62 565.845
21 0 68.1006 12.9368 881 72.3042 1071.35 565.333
22 0 68.108 12.8766 877 73.3968 1071.56 565.158
23 0 72.2138 13.1138 947 73.018 1071.85 563.076
24 0 74.198 13.4101 995 72.4724 1071.31 562.544
25 1 39.0083 10.1773 397 75.194 1071.65 579.035
26 0 41.0907 11.9735 492 72.6545 1071.48 577.734
27 0 42.0331 10.801 454 74.7863 1071.88 576.996
28 0 44.1079 12.0387 531 73.1055 1071.85 576.136
29 0 46.1996 12.4027 573 72.014 1072.09 576.553
30 0 46.1673 12.7146 587 72.8518 1071.98 575.09
31 0 48.1393 11.7991 568 74.1109 1072.17 574.255
32 0 50.1932 12.671 636 72.467 1072.14 573.494
33 0 50.1871 12.8519 645 73.3473 1072.21 572.388
34 0 53.2628 12.6542 674 73.1558 1072.08 572.264
35 0 54.2528 12.7367 691 73.6382 1072.1 571.181
36 0 55.1416 12.6402 697 74.0832 1072.23 571.174
37 0 54.2688 12.088 656 76.4238 1072.16 569.791
38 0 59.2508 12.7087 753 74.2961 1072.19 568.244
39 0 60.1822 13.1102 789 73.8086 1071.88 568.264
40 0 63.2698 13.0868 828 73.587 1072.02 567.639
41 0 65.2984 12.8946 842 73.8456 1072.35 565.904
42 1 35.2496 10.298 363 75.5565 1072.58 580.413
43 0 35.1649 11.0337 388 73.9562 1072.02 581.209
44 0 37.1275 10.2619 381 76.0026 1072.46 580.034
45 0 38.2211 11.198 428 73.8131 1073.06 579.935
46 0 39.155 11.7992 462 73.5238 1072.65 578.097
47 0 42.0932 12.8287 540 72.0481 1072.67 577.081
48 0 41.0739 12.4167 510 74.2922 1072.5 575.806
49 0 44.1032 12.5614 554 73.1787 1072.46 576.37
50 0 44.0644 12.6633 558 73.0502 1071.64 575.846
51 0 46.1305 12.1178 559 74.8014 1071.96 575.422
52 0 46.1218 13.0741 603 73.6551 1072.12 574.423
53 0 48.111 11.6605 561 76.1818 1071.5 574.522
54 0 49.1109 12.4412 611 66.6825 1070.91 572.637
55 0 52.1142 13.4896 703 65.7112 1070.98 572.498
56 0 53.1459 12.8891 685 67.508 1071.42 570.006
57 0 54.0932 13.5877 735 67.0014 1071.64 569.352
58 0 55.0695 12.8747 709 67.6855 1071.54 569.062
59 0 59.081 12.7283 752 67.2593 1071.41 569.996
60 0 59.0759 13.4911 797 67.4592 1071.78 568.605
61 0 59.1532 12.493 739 70.2057 1071.69 568.087
62 0 63.0547 13.8768 875 68.312 1071.82 566.919
63 0 65.0848 13.1828 858 69.2098 1071.13 567.04
64 0 69.1217 13.903 961 67.9396 1071.47 565.005
65 0 68.0648 12.7819 870 71.0506 1071.82 563.122
66 0 72.1031 14.1187 1018 68.6238 1071.65 561.219
67 0 74.069 13.0824 969 70.3818 1072.02 559.393
68 0 76.2121 12.7408 971 71.0278 1072.04 559.486
69 1 40.0666 11.406 457 69.7571 1072.2 575.586
70 0 43.0798 10.7475 463 69.7948 1073.55 576.475
71 0 45.0385 11.3237 510 69.5647 1074.31 574.375
72 0 46.0817 11.2626 519 70.4104 1074.33 573.042
73 0 48.0799 12.8536 618 67.6311 1074.33 572.188
74 0 49.0559 11.864 582 70.5859 1074.48 571.113
75 0 50.0635 12.624 632 69.0712 1074.89 570.987
76 0 50.1248 12.5886 631 69.6719 1074.45 569.306
77 0 55.1883 12.7926 706 67.8286 1074.73 569.248
78 0 56.2636 12.9924 731 67.7934 1074.54 567.774
79 0 56.2034 12.9708 729 68.6776 1075.11 566.676
80 0 56.1949 13.2574 745 68.7383 1075.22 565.361
81 0 60.2333 12.5014 753 69.494 1075.57 564.315
82 0 63.261 13.2467 838 68.1134 1076.08 562.789
83 0 64.1645 12.7173 816 69.0772 1076.54 561.955
84 0 68.1907 12.817 874 68.7643 1076.48 558.642
85 0 71.1357 12.9611 922 67.9056 1076.95 558.983
86 0 74.1315 13.7054 1016 66.4833 1077.08 556.858
87 0 74.1658 12.5934 934 68.6467 1076.91 554.833
88 0 78.1139 13.1475 1027 66.7838 1077.13 553.302
89 1 41.0319 10.3091 423 66.7258 1077.85 570.376
90 0 42.0491 11.0823 466 65.2275 1077.73 571.062
91 0 45.0089 11.4644 516 66.5078 1077.81 569.432
92 0 47.0644 11.9198 561 66.4367 1077.99 567.56
93 0 45.0172 11.9288 537 66.838 1078.34 566.3
94 0 48.0833 11.6672 561 65.9234 1078.5 566.497
95 0 50.0381 12.3706 619 63.6575 1078.64 565.128
96 0 51.018 12.0938 617 63.6305 1079.02 564.216
97 0 53.0377 11.8595 629 88.8426 1078.74 564.267
98 0 57.1433 13.7899 788 60.2259 1078.52 563.835
99 0 56.0559 13.0405 731 62.2025 1078.29 563.196
100 0 57.0377 12.4654 711 64.3305 1078.61 561.778
101 0 61.2217 13.1163 803 62.4682 1078.67 560.828
102 0 61.0752 12.4273 759 64.0962 1078.72 559.187
103 0 62.0399 12.7337 790 64.5949 1078.95 557.676
104 0 65.0891 14.58 949 62.1781 1078.94 556.643
105 0 69.0684 13.5518 936 63.5363 1079.16 555.91
106 0 70.0964 13.4529 943 64.334 1079.5 554.871
107 0 72.2705 14.2243 1028 63.6401 1079.43 553.402
108 0 75.0933 13.8228 1038 63.7736 1079.05 552.361
109 0 75.1615 13.6107 1023 63.3842 1079.24 551.352
110 0 80.1417 14.4494 1158 61.2582 1079.36 549.031
111 0 82.2675 13.5777 1117 62.9552 1078.64 547.596
112 0 84.2504 12.997 1095 63.3708 1078.68 546.425
113 0 87.2697 13.5671 1184 62.6351 1078.57 543.809
114 1 43.0807 10.9794 473 61.5074 1079 568.063
115 0 43.086 11.303 487 61.7803 1078.8 567.704
116 0 44.0806 10.4808 462 63.2965 1079.03 566.108
117 0 49.2098 12.213 601 60.6572 1078.83 564.088
118 0 49.1725 12.385 609 61.1872 1078.81 562.939
119 0 50.2328 12.462 626 60.2955 1078.8 564.318
120 0 50.1887 11.9549 600 62.2667 1078.79 562.525
121 0 52.1274 12.3352 643 61.0342 1078.87 562.054
122 0 56.1543 12.7862 718 59.8802 1078.88 559.83
123 0 59.0587 12.3267 728 60.0275 1079.15 559.901
124 0 58.0829 11.9484 694 61.4813 1078.61 558.767
125 0 60.1603 11.835 712 61.4368 1078.59 558.716
126 0 62.2033 12.1215 754 61.5119 1078.54 558.204
127 0 64.1933 12.7583 819 61.0195 1078.16 555.032
128 0 63.067 12.0665 761 62.8476 1078.02 555.618
129 0 67.1331 12.6316 848 61.8502 1078.15 555.051
130 0 69.213 12.7144 880 61.8511 1078.01 554.705
131 0 70.1337 13.3317 935 62.184 1077.65 554.224
132 0 75.1983 13.1652 990 62.3899 1077.15 552.233
133 0 77.228 12.858 993 62.9204 1076.96 551.746
134 0 78.1342 13.1569 1028 63.4484 1076.85 549.716
135 0 81.1846 13.2907 1079 63.798 1076.82 548.704
136 0 82.189 13.3716 1099 64.9181 1076.73 547.121
137 0 85.2207 13.424 1144 65.2124 1076.58 546.033
138 0 90.2213 13.5999 1227 65.0725 1076.85 544.751
139 0 92.1721 13.7894 1271 65.3304 1076.48 543.517
140 1 49.1229 10.545 518 67 1076.42 564.015
141 0 54.1274 10.3829 562 66.6459 1076.23 564.06
142 0 54.1391 11.2673 610 66.1344 1076.61 563.282
143 0 55.1309 12.1166 668 66.3293 1076.43 560.519
144 0 59.1106 11.6392 688 65.6352 1076.43 562.853
145 0 61.1942 12.4848 764 64.8495 1076.9 560.825
146 0 61.2658 11.393 698 67.6676 1076.41 559.057
147 0 64.3295 12.436 800 66.095 1076.72 558.275
148 0 67.3313 13.4113 903 65.0653 1076.53 555.115
149 0 68.2334 12.6624 864 66.7743 1076.56 555.325
150 0 71.2674 12.7407 908 66.6399 1076.73 554.447
151 0 71.1837 12.8962 918 67.5349 1076.82 554.389
152 0 74.3212 12.3922 921 68.5114 1076.71 552.802
153 0 78.3346 12.9828 1017 67.351 1076.61 552.824
154 0 79.1958 12.93 1024 69.0088 1077.06 549.933
155 0 81.2996 12.9029 1049 69.6454 1077.3 549.411
156 0 84.4232 12.7453 1076 70.0613 1077.43 548.808
157 0 85.3822 12.813 1094 71.1325 1077.46 547.669
158 0 90.3318 13.6054 1229 69.3914 1077.28 545.352
159 0 92.418 13.677 1264 69.6432 1077.31 543.608
160 0 96.365 13.646 1315 69.3202 1077.16 544.37
161 0 99.3017 12.598 1251 71.9544 1077.14 541.231
162 1 50.1677 10.2656 515 72.7087 1077.46 564.458
163 0 55.1596 11.6389 642 70.8178 1077.1 563.62
164 0 54.052 11.0634 598 72.5435 1077.22 562.344
165 0 58.1397 12.3324 717 70.7015 1077.66 559.204
166 0 61.3384 12.6022 773 69.2536 1076.67 559.444
167 0 61.2523 11.6567 714 70.7997 1078.28 558.683
168 0 63.3053 12.2423 775 70.3123 1078.92 557.778
169 0 65.2325 12.2485 799 70.0113 1078.69 556.985
170 0 69.3214 13.1561 912 68.3662 1078.66 554.178
171 0 69.4545 12.3822 860 70.3302 1079.04 553.658
172 0 72.2873 12.7547 922 70.0087 1078.51 552.659
173 0 75.3416 12.742 960 70.0198 1078.56 551.78
174 0 78.2411 13.4456 1052 68.7329 1078.64 551.279
175 0 80.3136 12.999 1044 69.6102 1078.71 548.18
176 0 82.2892 12.5654 1034 70.6315 1079.06 546.931
177 0 85.2784 12.8755 1098 69.9781 1079.04 546.097
178 0 89.287 14.2462 1272 67.7917 1079.25 542.836
179 0 91.2707 13.7065 1251 69.0663 1078.86 542.093
180 0 92.1986 13.0371 1202 70.6481 1079.17 541.245
181 0 96.2319 13.4779 1297 69.9915 1078.88 539.454
182 0 101.227 14.6305 1481 67.4294 1079.07 537.583
183 0 102.187 14.1799 1449 68.5024 1078.73 536.084
184 0 103.264 13.6931 1414 69.7362 1079.65 534.344
185 0 106.37 13.3966 1425 70.6582 1079.22 532.688
186 0 109.452 13.9422 1526 70.1042 1079.73 531.744
187 0 112.23 13.8109 1550 70.2226 1079.83 529.008
188 0 116.304 13.7141 1595 70.5003 1079.92 527.661
189 0 119.465 14.1464 1690 70.0787 1079.88 525.272
190 0 121.342 13.9852 1697 71.4549 1079.98 523.44
191 0 124.25 13.6902 1701 72.2816 1079.95 521.734
192 0 128.289 13.9918 1795 71.7632 1080.31 520.749
193 0 132.506 14.2862 1893 70.1273 1080.37 519.784
194 0 137.319 15.3292 2105 67.6793 1080.52 517.334
195 0 140.268 14.2584 2000 68.4915 1081.11 515.812
196 0 140.268 14.237 1997 173.582 1081.12 515.8
197 0 149.533 14.8529 2221 69.2508 1080.44 510.885
198 0 152.511 14.3989 2196 72.5305 1080.59 509.127
199 0 157.512 14.1513 2229 74.0561 1080.28 505.223
200 0 163.366 15.0888 2465 73.3412 1080.56 504.277
201 0 165.466 14.3534 2375 76.2455 1080.64 500.429
202 0 171.505 14.915 2558 75.2623 1080.42 499.896
203 0 176.417 14.7378 2600 76.0169 1080.28 496.407
204 0 181.496 15.1684 2753 76.0185 1080.33 495.131
205 0 183.533 14.8965 2734 77.7081 1080.46 491.826
206 0 187.544 14.4926 2718 80.1207 1080.45 488.046
207 0 194.351 14.7671 2870 79.7289 1080.53 486.222
208 0 201.409 15.759 3174 78.0731 1080.9 485.121
209 0 207.581 15.329 3182 79.5509 1080.65 480.632
210 0 210.369 15.0783 3172 80.9792 1080.59 477.259
211 0 217.573 15.5901 3392 80.0952 1080.48 473.072
212 0 224.563 15.2474 3424 81.2617 1080.13 469.298
213 0 229.365 15.2029 3487 82.3103 1080.14 471.326
214 0 235.53 15.3951 3626 82.6178 1080.36 464.255
215 0 245.773 15.7544 3872 81.976 1079.96 460.748
216 0 252.609 15.8862 4013 82.2783 1079.85 455.816
217 0 255.407 15.3167 3912 83.9121 1079.54 451.278
218 0 266.777 15.4399 4119 83.3183 1079.23 446.101
219 0 274.657 16.1765 4443 82.1094 1078.89 443.612
220 0 284.595 15.6503 4454 83.4198 1078.11 436.506
221 0 294.731 16.3301 4813 81.9636 1078.24 433.542
222 1 84.3714 9.11447 769 81.1183 1078.86 541.155
223 0 86.2683 11.0237 951 78.2776 1078.61 540.501
224 0 88.3087 10.6218 938 78.662 1079.03 537.281
225 0 91.2479 11.014 1005 77.608 1078.71 536.011
226 0 94.1818 11.4884 1082 76.4908 1078.93 539.628
227 0 94.1818 11.5309 1086 148.185 1078.92 539.41
228 0 99.218 11.893 1180 77.4085 1078.23 535.824
229 0 101.296 10.9974 1114 78.5548 1078.53 536.318
230 0 105.374 11.8815 1252 76.8714 1078.27 534.106
231 0 108.294 11.4965 1245 78.1398 1078.23 532.716
232 0 110.356 12.2694 1354 77.548 1077.9 529.398
233 0 111.21 11.6446 1295 78.9506 1078.12 530.883
234 0 116.307 11.5814 1347 78.614 1077.86 527.841
235 0 120.337 11.9332 1436 78.0035 1078.03 526.269
236 0 125.358 12.1572 1524 77.6339 1078.15 523.191
237 0 130.35 13.5558 1767 74.8093 1077.85 517.584
238 0 133.419 14.5032 1935 73.5328 1077.66 514.804
239 0 143.434 14.6339 2099 71.8375 1077.76 510.033
240 0 140.331 14.0168 1967 73.2145 1077.59 515.583
241 1 81.1015 10.3451 839 74.4827 1077.39 548.983
242 0 85.1136 11.1146 946 73.0634 1077.23 547.811
243 0 85.2161 10.8548 925 72.3514 1076.29 543.73
244 0 87.2486 11.3583 991 72.7053 1076.73 543.804
245 0 89.2109 12.4312 1109 73.55 1077.66 543.108
246 0 91.2183 12.3331 1125 73.6249 1077.3 542.851
247 0 93.1676 12.5902 1173 73.5439 1077.17 539.6
248 0 96.1944 12.7242 1224 73.1838 1077.22 539.475
249 0 97.2186 12.405 1206 74.1235 1077.11 538.841
250 0 99.2194 12.3363 1224 74.5645 1077.31 537.03
251 0 104.259 13.313 1388 72.652 1077.27 537.488
252 0 104.202 12.5237 1305 74.0996 1077.23 535.985
253 0 108.169 12.8687 1392 73.4986 1077.27 535.085
254 1 60.1997 10.9635 660 73.053 1077.39 559.197
255 0 61.1526 10.3348 632 73.5253 1077.65 559.723
256 0 64.0964 10.8743 697 72.3142 1077.59 557.824
257 0 66.1065 11.2848 746 71.5509 1077.22 557.265
258 0 66.108 11.2846 746 71.8083 1077.55 556.905
259 0 66.1486 11.7765 779 71.7266 1076.69 556.599
260 0 69.0994 11.838 818 70.8056 1077.16 555.91
261 0 69.0899 12.7805 883 69.8211 1078.07 554.097
262 0 71.2194 12.3421 879 70.7918 1076.81 552.296
263 0 71.2207 12.2015 869 71.5455 1076.99 553.51
264 0 74.2181 11.9108 884 71.6222 1076.78 553.818
265 0 76.1193 12.2045 929 70.9171 1076.67 552.679
266 0 80.1809 12.584 1009 70.6036 1076.73 550.592
267 0 81.2602 12.7615 1037 70.6114 1076.6 549.254
268 0 81.1493 12.705 1031 71.1309 1076.89 548
269 0 85.2508 12.7037 1083 70.9271 1076.83 546.978
270 0 89.2792 13.2394 1182 69.9137 1077.02 545.064
271 0 90.1708 12.554 1132 71.5742 1077.23 543.474
272 0 92.2133 13.0133 1200 70.6067 1077.1 541.819
273 0 95.1941 12.6899 1208 71.2111 1076.85 540.851
274 1 55.0831 9.78521 539 70.8126 1077.21 563.085
275 0 55.057 11.37 626 69.6613 1078.46 562.206
276 0 59.1932 11.0824 656 69.7652 1077.98 561.009
277 0 59.173 11.103 657 70.0639 1078.31 561.356
278 0 62.0831 12.1289 753 68.745 1078.54 558.968
279 0 63.1578 12.0334 760 70.5171 1078.26 556.554
280 0 64.1378 12.4264 797 69.3588 1078.8 556.381
281 0 67.194 12.5904 846 68.7411 1078.75 555.404
282 0 68.141 11.9605 815 69.4552 1079.14 554.497
283 0 71.2348 12.4518 887 68.124 1079.03 553.043
284 0 72.1845 12.8144 925 67.6368 1078.92 553.955
285 0 74.2184 12.3285 915 68.341 1078.57 551.792
286 0 75.1328 13.5493 1018 67.0393 1079.09 551.547
287 0 78.1351 13.2463 1035 67.2512 1078.58 549.992
288 0 80.2173 13.5008 1083 66.6796 1078.81 548.227
289 0 80.1407 13.2267 1060 67.5151 1078.9 545.682
290 0 86.3156 13.0104 1123 66.9715 1079.32 544.586
291 0 87.2949 12.4406 1086 68.5994 1079.78 542.371
292 0 89.1433 12.0817 1077 68.558 1080.38 542.549
293 0 89.1433 12.0705 1076 164.839 1081.38 542.511
294 1 48.0299 10.8058 519 66.8015 1081.69 562.112
295 0 52.021 10.5342 548 67.3212 1081.68 560.391
296 0 50.0664 10.566 529 67.5728 1081.48 559.524
297 0 54.0709 11.5034 622 66.2637 1081.44 558.416
298 0 55.1069 11.7952 650 66.2077 1081.26 556.988
299 0 57.1011 12.0838 690 65.7768 1081.52 555.27
300 0 59.1775 12.4879 739 64.3383 1081.4 556.507
301 0 58.1414 12.418 722 65.295 1081.51 554.771
302 0 60.2159 12.8205 772 64.671 1081.6 554.43
303 0 62.1812 13.2194 822 64.2883 1081.86 552.383
304 0 65.1433 12.8332 836 64.3469 1081.48 551.855
305 0 66.0863 12.5139 827 65.0895 1081.9 550.438
306 0 67.1909 12.6208 848 64.6946 1081.94 550.788
307 0 70.2574 13.1516 924 64.066 1081.98 548.641
308 0 72.2652 12.8278 927 64.658 1082.12 547.46
309 0 74.1905 13.6945 1016 63.7687 1082.26 546.806
310 0 76.1234 13.9642 1063 63.5447 1082.25 545.901
311 0 78.0791 13.7937 1077 64.1216 1081.53 544.402
312 0 78.0791 13.8193 1079 149.598 1081.54 544.348
313 0 86.3788 13.4871 1165 64.2936 1081.52 541.979
314 0 87.1496 12.8515 1120 65.9589 1081.52 539.738
315 1 48.0212 10.8494 521 65.9635 1081.72 560.551
316 0 48.0212 10.8494 521 169.42 1081.7 560.499
317 0 54.1621 11.1517 604 66.5215 1081.23 558.97
318 0 52.1192 11.5121 600 67.6633 1081.49 556.715
319 0 55.0952 11.9248 657 66.3059 1081.39 556.705
320 0 57.1387 11.8134 675 66.4326 1081.46 556.527
321 0 59.1585 13.3878 792 64.5631 1081.53 553.976
322 0 61.0922 13.6515 834 63.8393 1081.44 554.635
323 0 61.1237 12.9901 794 65.2217 1081.49 553.838
324 0 64.0922 13.9174 892 63.796 1081.02 552.037
325 0 67.0857 13.5498 909 64.3509 1080.52 551.238
326 0 68.1365 13.4143 914 64.4639 1080.65 550.141
327 0 71.1639 13.0825 931 65.2299 1080.75 549.057
328 0 74.0872 14.3345 1062 63.1563 1080.68 548.421
329 0 72.1092 13.2161 953 66.5582 1080.5 547.32
330 0 75.206 12.991 977 67.0307 1079.97 545.229
331 0 78.1867 13.3399 1043 66.8715 1079.29 544.37
332 0 81.0999 14.402 1168 65.5437 1079.53 544.053
333 0 86.1071 13.611 1172 66.6348 1079.12 540.954
334 0 89.1439 13.7643 1227 66.7278 1078.77 541.679
335 0 90.1589 13.931 1256 67.7229 1078.87 539.122
336 0 93.1661 13.4491 1253 68.1317 1078.44 539.348
337 0 97.1137 14.1278 1372 67.3703 1078.39 537.663
338 0 98.1561 14.0592 1380 68.3775 1078.4 536.687
339 0 103.223 14.2798 1474 67.4647 1077.87 534.02
340 0 105.242 13.9583 1469 68.6794 1077.91 532.137
341 0 108.186 14.3919 1557 68.1741 1077.44 530.608
342 0 112.095 14.3896 1613 68.2777 1077.84 528.426
343 1 62.1013 10.4668 650 69.7369 1077.21 553.906
344 0 66.1338 12.2328 809 67.9481 1077.24 553.892
345 0 66.1239 11.4633 758 69.7177 1077.25 551.864
346 0 69.049 11.6584 805 69.5354 1077.35 550.713
347 0 72.0813 12.472 899 70.0823 1077.09 550.608
348 0 73.05 13.306 972 68.2284 1077.21 551.891
349 0 74.2181 12.4767 926 70.2592 1077.04 549.302
350 0 76.2455 12.3155 939 70.7252 1079.23 548.931
351 0 81.1121 12.2177 991 70.6983 1078.64 544.695
352 0 85.1868 13.3237 1135 68.2529 1078.84 546.308
353 0 87.2927 13.5979 1187 68.4423 1078.33 543.769
354 0 89.2266 13.2584 1183 68.9079 1078.8 543.812
355 0 92.2139 12.677 1169 69.6373 1078.72 542.393
356 0 95.2025 13.4345 1279 68.6732 1078.15 541.136
357 0 99.3371 13.3988 1331 68.6777 1077.61 538.198
358 0 101.213 13.1801 1334 69.0217 1076.94 536.639
359 0 106.231 13.4612 1430 67.5713 1077.52 535.838
360 0 109.367 13.7152 1500 67.126 1077.76 533.505
361 0 112.235 13.6321 1530 66.9216 1077.75 532.904
362 0 115.285 13.2021 1522 67.8167 1077.47 529.549
363 1 62.1629 10.3438 643 67.4199 1078.56 557.443
364 0 65.281 11.5347 753 66.3174 1078.52 553.85
365 0 66.1631 11.3205 749 67.2283 1078.42 553.905
366 0 68.1725 12.3217 840 66.0738 1079.08 553.739
367 0 69.3202 11.4829 796 67.9271 1078.7 550.038
368 0 73.1162 13.1024 958 64.9301 1078.49 551.013
369 0 76.1638 13.681 1042 63.8023 1079.04 550.056
370 0 78.1586 12.6026 985 65.1503 1079.56 547.826
371 0 81.1629 13.1957 1071 64.127 1079.25 547.513
372 0 82.1759 13.179 1083 64.6085 1079.55 546.721
373 0 85.2008 13.0163 1109 65.0505 1079.38 544.156
374 0 87.3089 13.3091 1162 65.1386 1079.04 541.143
375 0 90.2744 13.1267 1185 64.8928 1078.76 539.725
376 0 95.1604 12.9571 1233 63.4323 1078.74 540.123
377 0 97.1706 13.9446 1355 62.3653 1078.29 536.303
378 0 100.202 13.7122 1374 62.1456 1078.77 537.259
379 1 52.1005 13.0325 679 59.704 1079.77 559.744
380 0 52.1844 10.8462 566 62.4452 1078.86 559.553
381 0 54.4237 11.9617 651 60.6329 1080.02 559.922
382 0 56.3007 12.6109 710 59.7268 1079.84 557.169
383 0 58.325 11.8474 691 60.7496 1079.71 557.004
384 0 61.4193 12.374 760 59.3105 1080.21 555.05
385 0 64.317 13.1536 846 57.9929 1080.37 555.22
386 0 65.3012 12.986 848 57.4175 1080.98 552.85
387 0 64.166 13.1378 843 58.0403 1081.63 553.001
388 0 67.2615 12.8603 865 58.0821 1081.69 550.49
389 0 70.2111 12.263 861 58.4971 1081.56 551.201
390 0 72.2048 12.9354 934 58.0139 1081.36 548.956
391 0 73.164 12.3831 906 59.1512 1081.61 547.825
392 0 77.1726 13.1005 1011 58.1553 1081.45 546.631
393 0 78.1156 12.7759 998 58.6172 1081.81 546.382
394 0 82.2171 13.1724 1083 57.9197 1081.69 544.825
395 0 86.2408 12.6158 1088 58.2969 1081.6 542.626
396 0 88.1352 12.9233 1139 58.2177 1082.46 541.047
397 0 90.126 13.115 1182 57.5406 1082.01 541.145
398 1 47.0947 10.5107 495 58.897 1082.6 560.903
399 0 48.0307 11.4094 548 57.9161 1081.6 559.482
400 0 50.1977 11.4149 573 56.7033 1083.21 559.436
401 0 53.3152 12.9607 691 55.0014 1082.77 557.226
402 0 52.3083 11.9484 625 56.8432 1083.03 557.048
403 0 54.3835 12.7796 695 56.0273 1082.7 556.203
404 0 57.4 12.6481 726 55.9146 1082.92 554.102
405 0 59.2655 12.8405 761 55.548 1082.54 553.359
406 0 60.1393 13.0031 782 55.4514 1082.71 552.469
407 0 63.2247 12.8431 812 55.4692 1082.75 553.346
408 0 63.1927 12.454 787 56.507 1082.67 550.942
409 0 66.1615 13.0136 861 55.5645 1082.33 549.729
410 0 68.0965 12.8054 872 55.6261 1082.47 549.955
411 0 70.2445 13.7235 964 54.8558 1082.28 548.868
412 0 70.2445 13.752 966 147.908 1081.26 548.832
413 0 73.2159 13.6173 997 55.8526 1081.85 544.632
414 0 76.1472 13.3294 1015 56.0847 1081.71 545.163
415 0 77.2061 12.7581 985 57.6518 1081.49 542.791
416 0 82.2438 13.7153 1128 56.0053 1081.48 540.499
417 0 83.2317 12.3631 1029 57.8212 1081.69 540.251
418 0 86.2015 13.9905 1206 56.3433 1081.39 538.536
419 0 90.182 13.8609 1250 55.8768 1081.08 539.058
420 0 93.2676 13.8633 1293 56.1176 1080.71 537.037
421 1 51.1305 10.4634 535 57.7682 1081.3 559.925
422 0 52.0408 11.2988 588 58.2891 1080.61 558.847
423 0 56.1251 11.9554 671 57.1714 1080.14 557.398
424 0 55.0729 12.311 678 57.1254 1079.53 555.973
425 0 59.1604 12.914 764 55.8115 1078.98 555.622
426 0 58.2073 12.4383 724 57.2845 1079.45 556.028
427 0 60.2212 12.6533 762 56.6404 1079.41 555.045
428 0 62.1761 13.1079 815 56.8515 1079.01 553.431
429 0 67.2832 13.9708 940 55.0053 1079.23 553.091
430 0 67.3361 13.6034 916 55.9323 1079.22 552.282
431 0 69.1237 13.6567 944 56.036 1078.82 550.822
432 0 71.1367 13.0875 931 56.8153 1078.92 550.503
433 0 75.2184 13.2016 993 56.3172 1078.7 548.737
434 0 75.1127 13.1136 985 57.3228 1078.77 547.736
435 0 80.2716 13.6786 1098 56.0811 1078.71 547.533
436 0 81.1676 14.1189 1146 56.1361 1078.66 546.85
437 0 84.1862 14.0522 1183 56.4125 1078.22 545.084
438 0 87.2903 13.5868 1186 57.457 1077.75 543.802
439 0 89.1354 13.3168 1187 58.2174 1077.65 541.463
440 1 47.1593 12.1503 573 58.2286 1077.86 563.07
441 0 48.1784 12.4537 600 58.2 1078.18 562.648
442 0 50.316 13.4152 675 57.1659 1077.6 560.85
443 0 51.3966 13.0359 670 58.2358 1077.72 561.23
444 0 51.3452 12.2504 629 59.9126 1078.16 561.079
445 0 53.2394 13.1669 701 59.0014 1078.28 560.997
446 0 55.2706 13.7505 760 58.0724 1077.84 560.468
447 0 55.2667 13.1001 724 59.3605 1077.52 558.581
448 0 59.201 13.5302 801 58.5581 1077.51 558.006
449 0 63.3653 14.377 911 56.8518 1078.02 557.667
450 0 62.1881 12.8642 800 59.41 1077.56 555.428
451 0 66.23 14.2987 947 57.0106 1077.78 554.878
452 0 66.257 13.6589 905 58.7591 1077.49 553.923
453 0 69.1459 13.7969 954 58.2411 1076.79 554.042
454 0 70.1663 13.0119 913 59.437 1076.92 551.115
455 0 73.1338 13.8924 1016 58.0472 1077.23 550.206
456 0 77.2927 13.7529 1063 57.7742 1077.01 548.992
457 0 79.3714 14.8164 1176 56.8036 1077.18 547.806
458 0 83.2824 14.6249 1218 56.6872 1077.08 546.755
459 0 84.3705 14.0452 1185 58.1122 1077.35 544.966
460 0 87.3018 13.4132 1171 59.0026 1077.8 543.02
461 1 48.2484 12.0211 580 58.9138 1077.31 565.153
462 0 47.2582 12.8866 609 59.8867 1077.48 562.074
463 0 48.149 12.5652 605 60.7289 1076.85 563.063
464 0 51.3578 13.221 679 59.7997 1077.17 560.925
465 0 53.2273 13.9402 742 59.3437 1077.29 558.484
466 0 54.2409 14.3619 779 59.8087 1077.21 559.472
467 0 55.1151 13.8438 763 60.8126 1077.13 558.699
468 0 58.2821 13.9151 811 60.4686 1076.54 558.29
469 0 59.2456 13.4525 797 61.5759 1076.92 558.136
470 0 63.0459 14.6877 926 59.2127 1076.71 556.597
471 0 65.2782 14.3386 936 59.7233 1076.91 556.495
472 0 65.1239 13.3284 868 61.8272 1076.94 555.21
473 0 67.2738 14.5376 978 60.4366 1076.62 554.802
474 0 70.3817 14.805 1042 59.501 1077.26 554.743
475 0 73.3478 14.4108 1057 60.299 1077.31 553.327
476 0 75.5706 14.675 1109 60.1903 1077.4 550.9
477 0 77.4788 14.5717 1129 60.4818 1077.23 549.678
478 0 80.4272 14.1121 1135 61.2987 1077.08 548.033
479 0 85.419 14.7391 1259 59.8245 1077.17 548.588
480 0 84.4638 14.302 1208 61.5952 1077.68 545.611
481 0 89.5895 14.4995 1299 60.8791 1077.6 544.596
482 1 47.2866 11.7792 557 62.4255 1077.75 565.673
483 0 45.3209 12.3122 558 63.3315 1077.5 563.833
484 0 48.1324 12.8396 618 62.568 1077.34 563.956
485 0 51.3588 13.4154 689 61.7388 1077.79 562.102
486 0 52.4155 14.0989 739 61.0027 1077.93 560.796
487 0 55.1576 13.815 762 61.2677 1078.22 560.797
488 0 56.3046 14.0841 793 61.0908 1078.24 560.139
489 0 57.5181 14.5867 839 60.6043 1078.07 558.849
490 0 60.2835 14.0669 848 61.204 1078.06 557.9
491 0 60.2857 13.9834 843 62.0712 1078.33 557.142
492 0 64.5112 14.4316 931 61.0451 1078.48 556.489
493 0 65.5115 13.677 896 62.3371 1078.29 555.17
494 0 68.4363 13.5601 928 62.8664 1078.52 552.546
495 0 68.5776 13.9842 959 62.6267 1078.29 550.595
496 0 72.5001 14.0414 1018 62.2957 1078.19 549.66
497 0 74.6769 13.7794 1029 62.8746 1077.96 548.102
498 0 76.5069 13.672 1046 62.738 1078.48 547.762
499 0 81.4668 13.8952 1132 62.0574 1078.27 545.895
500 0 82.4972 13.7096 1131 62.9337 1078.34 543.187
501 0 87.4336 14.5711 1274 60.9435 1078.81 543.611
502 0 90.3707 14.1196 1276 61.5549 1078.6 542.27
503 0 92.8034 14.2021 1318 61.9704 1078.65 539.678
504 1 51.2386 12.8614 659 60.6282 1078.58 563.555
505 0 51.4329 12.249 630 62.3413 1078.77 561.184
506 0 54.2489 12.7376 691 62.2721 1078.43 559.272
507 0 54.2418 12.9236 701 62.0842 1078.96 559.612
508 0 57.3446 13.2358 759 61.7101 1078.49 557.784
509 0 59.4445 13.2561 788 61.4162 1078.74 557.141
510 0 61.5631 13.4659 829 61.3679 1078.59 556.094
511 0 61.4184 12.9114 793 62.7251 1078.67 554.908
512 0 66.3669 13.6966 909 61.1045 1078.9 553.428
513 0 67.5296 13.6829 924 61.3842 1078.86 553.845
514 0 70.4667 13.141 926 62.446 1078.91 551.354
515 0 73.2838 12.8951 945 62.5302 1078.63 549.805
516 0 75.3133 12.8928 971 61.9145 1078.67 548.419
517 1 39.2667 11.5874 455 62.1253 1079 565.084
518 0 42.1488 11.5543 487 60.7947 1079.16 566.203
519 0 42.0743 12.5017 526 61.327 1078.83 565.576
520 0 46.1074 12.2323 564 61.2465 1079.27 563.344
521 0 47.1191 13.2006 622 60.574 1079.27 562.148
522 0 48.1126 12.8241 617 62.4084 1079.69 561.575
523 0 48.1126 12.8864 620 147.752 1079.7 561.477
524 0 51.0874 12.9582 662 62.9018 1080.55 561.29
525 0 51.1209 13.2627 678 62.9779 1080.54 559.667
526 0 54.1261 12.8589 696 63.3851 1080.28 559.399
527 0 56.2179 14.4438 812 61.4606 1080.69 558.255
528 0 56.2601 13.2065 743 63.4307 1080.72 557.969
529 0 60.3354 14.1542 854 61.9637 1081.15 557.057
530 0 61.2708 14.2809 875 62.6514 1080.7 555.336
531 0 61.379 14.0276 861 63.4019 1080.89 555.323
532 0 66.4173 14.6046 970 62.1155 1080.71 553.24
533 0 68.403 14.6923 1005 62.6398 1080.82 550.358
534 0 68.3927 14.5045 992 63.9183 1081.18 550.072
535 0 72.6669 15.2477 1108 62.6823 1080.99 547.904
536 0 73.4023 14.1276 1037 65.5448 1080.82 546.956
537 0 75.7766 14.0413 1064 65.6842 1080.47 546.623
538 0 79.3686 14.5902 1158 64.9007 1081.09 544.715
539 0 80.4543 13.9085 1119 66.378 1081.13 544.814
540 0 82.2498 14.614 1202 66.0125 1080.63 543.336
541 1 45.2833 12.8303 581 66.5026 1080.99 563.055
542 0 45.3199 13.1289 595 66.9143 1080.44 561.916
543 0 47.3703 13.3628 633 66.921 1080.58 562.227
544 0 49.1352 13.3916 658 67.3936 1080.05 559.688
545 0 48.1995 13.9006 670 68.2866 1080.08 559.781
546 0 51.1281 13.6324 697 68.3458 1079.83 559.059
547 0 53.2156 13.8681 738 67.584 1079.54 559.336
548 0 53.3578 14.206 758 67.8536 1079.8 556.645
549 0 56.2947 15.2235 857 65.923 1079.99 554.924
550 0 57.4487 14.4651 831 67.1083 1079.7 554.917
551 0 60.2833 15.1452 913 65.8664 1079.97 554.388
552 0 62.3742 14.5733 909 67.1573 1079.77 553.571
553 0 64.3759 14.6328 942 67.2962 1079.76 552.672
554 0 67.5943 14.6758 992 66.9294 1079.31 552.844
555 0 66.5131 15.1549 1008 67.5595 1080.14 551.083
556 0 69.6138 15.4136 1073 66.9916 1079.96 550.457
557 0 70.4296 14.9937 1056 69.0133 1079.57 549.336
558 0 74.4717 14.9721 1115 68.1444 1079.91 549.365
559 0 76.379 14.7554 1127 68.7507 1079.64 547.366
560 0 78.442 15.2852 1199 68.764 1079.8 545.503
561 0 80.4359 14.8317 1193 69.2766 1079.5 544.925
562 0 83.2746 14.8905 1240 69.0298 1079.37 543.627
563 0 85.2783 14.4703 1234 69.564 1078.99 543.786
564 0 89.2687 15.2909 1365 68.4542 1078.88 541.207
565 1 48.4904 12.5386 608 71.4408 1078.76 560.679
566 0 50.434 13.1062 661 69.997 1078.51 560.126
567 0 51.5045 14.1153 727 68.6891 1078.79 559.561
568 0 51.4208 13.6326 701 71.4479 1078.94 557.512
569 0 52.2811 13.7526 719 71.5007 1078.67 557.435
570 0 57.4361 13.9808 803 69.7447 1078.71 556.716
571 0 59.412 14.8792 884 68.586 1078.79 556.204
572 0 60.3016 14.3114 863 69.9676 1078.62 553.853
573 0 62.6794 14.3269 898 70.0434 1078.85 553.952
574 0 63.3619 14.7723 936 69.406 1078.84 552.384
575 0 67.5121 14.2049 959 70.2231 1078.37 551.147
576 0 68.5311 14.6065 1001 70.971 1078.15 549.804
577 0 69.4477 14.8889 1034 70.8598 1077.73 549.288
578 0 72.571 14.3859 1044 71.159 1077.22 549.502
579 0 76.4338 14.784 1130 69.9221 1077.81 547.345
580 0 78.4256 14.9313 1171 69.5756 1077.13 546.085
581 0 81.5459 14.2742 1164 70.4278 1077.06 545.669
582 0 85.4146 14.8452 1268 69.5757 1077.37 542.823
583 1 45.5493 12.5139 570 70.6053 1076.88 564.547
584 0 47.4844 11.667 554 71.6155 1077.07 565.105
585 0 49.6059 13.7484 682 69.2229 1077.13 562.6
586 0 50.4809 13.1931 666 70.3273 1077.49 562.125
587 0 50.3374 13.191 664 70.8976 1076.46 561.36
588 0 54.6117 13.8432 756 69.7368 1077.15 561.226
589 0 56.2892 14.1768 798 68.6454 1077.15 560.472
590 0 57.6532 13.7373 792 69.5707 1076.78 559.071
591 0 59.3686 14.351 852 69.0411 1076.65 559.406
592 0 63.4834 14.6022 927 67.8209 1076.47 557.716
593 0 63.3788 14.2161 901 70.0411 1076.32 556.757
594 0 64.5032 14.852 958 69.3904 1076.39 555.957
595 0 67.395 14.3037 964 68.9824 1076.54 555.255
596 0 71.4104 14.3817 1027 68.4041 1076.56 554.215
597 0 71.4329 14.6851 1049 69.3174 1076.38 552.775
598 0 75.2884 15.0886 1136 68.1514 1076.75 551.257
599 1 35.2296 11.7799 415 71.4458 1077.59 569.634
600 0 38.5015 12.1554 468 71.4103 1077.25 568.372
601 0 40.494 12.8908 522 69.0939 1076.78 569.239
602 0 42.3856 13.5659 575 68.7948 1076.92 567.616
603 0 43.2209 14.3449 620 67.4242 1077.02 566
604 0 44.2702 13.6435 604 68.3593 1076.71 565.767
605 0 47.2127 13.4286 634 67.847 1077.4 565.45
606 0 47.4447 13.7212 651 67.7066 1076.97 565.53
607 0 48.3646 13.605 658 68.6489 1077.06 563.922
608 0 50.3076 13.8746 698 68.8711 1076.68 563.872
609 0 52.413 13.6798 717 68.8661 1076.62 562.099
610 0 53.6408 13.87 744 68.4946 1077 561.539
611 0 56.4225 14.7105 830 66.9542 1076.76 561.57
612 0 56.5318 13.8329 782 68.9373 1076.61 559.884
613 0 57.5016 13.6518 785 69.8089 1077.25 558.482
614 0 61.5452 13.9085 856 68.6577 1077.33 558.735
615 0 61.7606 14.3781 888 68.607 1077.32 557.116
616 0 64.8068 14.196 920 68.913 1077 555.867
617 0 64.641 13.5363 875 70.1874 1077.18 554.557
618 0 67.4543 13.9947 944 69.6038 1077.13 554.18
619 0 71.5133 13.9415 997 68.5426 1077.09 552.701
620 0 72.34 14.653 1060 67.9726 1077.11 551.887
621 0 74.5367 14.5163 1082 68.7486 1076.68 551.202
622 0 77.4166 14.8547 1150 68.3791 1077.27 550.097
623 0 79.3165 14.6754 1164 69.0387 1077.38 546.798
624 0 82.322 14.4797 1192 69.0856 1077 546.096
625 0 84.3135 14.0903 1188 69.415 1077.12 545.169
626 0 88.3106 14.2905 1262 68.7702 1077.47 542.649
627 1 46.2947 12.1828 564 68.6897 1078.5 563.837
628 0 48.2478 12.6016 608 68.8849 1078.72 562.556
629 0 50.1283 12.5079 627 67.7512 1078.66 562.9
630 0 52.1182 12.4525 649 68.2851 1078.66 561.713
631 0 53.1186 12.5003 664 68.0949 1077.42 560.411
632 0 55.084 13.7245 756 66.4934 1077.45 558.165
633 0 58.1655 12.43 723 67.3223 1077.59 559.274
634 0 59.1373 12.936 765 66.9869 1077.36 557.102
635 0 61.111 12.4364 760 67.4342 1077.97 555.071
636 0 63.2095 12.9727 820 66.5756 1077.66 553.921
637 0 65.1052 14.1156 919 64.7933 1077.94 552.212
638 0 67.2411 13.1765 886 66.0914 1078.33 551.936
639 0 71.1433 13.1284 934 65.3758 1078.78 550.729
640 0 73.121 13.7443 1005 64.3045 1078.66 549.471
641 0 77.1044 13.0732 1008 64.7937 1079.07 548.711
642 0 78.0627 12.8743 1005 65.5353 1079.63 546.926
643 0 81.1445 12.9892 1054 64.9829 1079.97 544.501
644 0 84.1853 13.7435 1157 63.7131 1079.85 542.487
645 1 44.0964 10.2956 454 64.1806 1079.7 563.244
646 0 47.0205 10.5911 498 63.2811 1079.78 562.608
647 0 49.0374 11.1751 548 62.0401 1080.2 561.976
648 0 47.2399 11.558 546 62.0073 1081.77 560.502
649 0 49.2564 11.9172 587 61.0852 1081.14 560.048
650 0 53.1852 11.5446 614 60.8762 1080.87 560.399
651 0 53.3024 12.4385 663 60.4374 1080.39 558.689
652 0 54.2506 11.5575 627 61.4402 1080.04 557.491
653 0 58.2584 12.3416 719 60.1405 1080.32 557.618
654 0 60.4498 12.6386 764 59.9529 1080.51 554.869
655 0 61.3463 12.4702 765 60.4902 1080.86 553.899
656 0 63.2385 12.1919 771 60.6809 1080.32 554.084
657 0 65.2892 12.0387 786 60.7455 1080.44 552.137
658 0 66.255 12.4972 828 60.4505 1080.54 551.534
659 0 69.3214 11.7713 816 61.4007 1080.36 550.548
660 0 74.4255 12.2807 914 60.1204 1080.65 550.04
661 0 74.3826 13.0945 974 59.6201 1080.18 549.118
662 0 78.1593 12.8584 1005 59.7682 1080.02 545.191
663 0 81.3027 11.4879 934 61.1028 1080.24 544.46
664 0 81.4275 12.1458 989 61.0991 1080.18 542.848
665 0 85.6643 11.7318 1005 60.8189 1080.24 543.093
666 0 88.4399 12.3926 1096 60.5657 1080.59 539.175
667 1 47.0919 9.91679 467 60.1884 1081.32 560.73
668 0 48.1086 9.64484 464 60.3987 1081.72 559.72
669 0 49.1271 11.2565 553 59.4973 1081.65 558.55
670 0 50.0491 11.6486 583 59.307 1081.71 558.561
671 0 50.0858 10.8214 542 60.738 1082.01 556.758
672 0 52.1419 11.2002 584 59.1473 1082.1 557.31
673 0 56.0745 11.8771 666 57.6682 1082.03 557.038
674 0 56.0624 11.3267 635 59.0583 1082.29 555.871
675 0 55.0754 11.2936 622 59.4228 1082.4 553.764
676 0 58.0421 11.6639 677 58.7356 1082.55 552.939
677 0 60.1872 11.5307 694 58.6643 1081.74 552.745
678 0 62.1375 11.8608 737 57.9837 1081.75 550.099
679 0 64.1854 11.9498 767 57.3481 1082.32 549.923
680 0 67.1884 12.8296 862 56.0499 1082.3 549.143
681 0 71.217 11.3035 805 57.4969 1082.74 548.286
682 0 71.1599 11.9028 847 57.0921 1082.6 548.355
683 0 73.2043 11.8709 869 57.2014 1082.91 547.962
684 0 76.1712 12.787 974 56.5236 1083.11 543.142
685 0 77.3318 11.5218 891 57.7879 1083.04 542.673
686 1 43.0491 10.2209 440 55.8909 1083.69 561.789
687 0 44.0925 10.4099 459 56.2571 1083.83 561.453
688 0 45.1303 10.3478 467 56.6595 1083.36 559.45
689 0 47.0797 10.2804 484 57.8347 1083.21 559.031
690 0 49.0229 11.77 577 57.0867 1083.23 559.256
691 0 49.1071 11.6073 570 58.6825 1083.14 557.716
692 0 48.3582 12.0352 582 58.1357 1082.93 557.069
693 0 51.3463 12.1723 625 57.9872 1082.85 557.024
694 0 53.2472 11.4184 608 58.9391 1082.2 557.174
695 0 55.2634 12.5399 693 58.1688 1082.24 556.525
696 0 56.1642 11.5554 649 60.1464 1082.77 554.194
697 0 57.1868 12.6778 725 59.4772 1082.65 554.937
698 0 60.1577 13.1488 791 58.4589 1082.43 553.072
699 0 60.1867 12.644 761 59.8134 1082.43 553.951
700 0 61.1909 12.5999 771 60.1518 1081.86 554.578
701 0 62.1146 13.5073 839 59.8081 1081.96 551.669
702 0 65.2161 13.0643 852 60.3709 1081.76 550.079
703 0 66.3085 13.1356 871 60.7463 1081.41 550.821
704 0 69.2463 13.3292 923 61.1127 1081.72 550.308
705 0 69.354 13.2797 921 61.4593 1081.13 550.946
706 0 73.3805 13.0825 960 62.4927 1080.72 547.4
707 0 74.1933 12.8179 951 62.98 1080.61 546.822
708 0 76.161 13.2745 1011 62.8071 1080.05 545.295
709 0 78.1148 12.0848 944 64.2956 1079.83 545.626
710 0 82.1566 12.4762 1025 63.6976 1079.6 543.859
711 0 85.2656 13.0885 1116 63.0161 1079.51 541.945
712 0 87.3246 13.7647 1202 62.5391 1079.08 541.126
713 1 44.0465 10.5797 466 62.9785 1080.13 564.273
714 0 46.1118 10.9083 503 63.334 1079.74 562.223
715 0 45.1243 10.7481 485 64.0103 1079.44 561.907
716 0 48.091 10.7296 516 63.9767 1079.59 562.932
717 0 52.1238 12.1634 634 62.1577 1079.65 560.451
718 0 52.0918 12.478 650 63.5246 1079.69 559.305
719 0 54.3151 13.1823 716 62.1788 1079.68 558.142
720 0 58.0952 12.8582 747 61.7885 1078.74 558.553
721 0 59.0988 13.029 770 61.9662 1078.73 558.297
722 0 59.0971 12.8602 760 62.6908 1078.71 556.992
723 0 60.0582 13.3038 799 61.8373 1078.45 557.479
724 0 63.0757 13.0161 821 61.8185 1078.44 553.674
725 0 64.0536 13.6292 873 61.1856 1078.2 552.668
726 0 66.0779 13.1511 869 60.0207 1077.92 554.009
727 0 69.17 13.3439 923 59.6847 1077.62 552.863
728 0 71.0608 13.6362 969 60.1042 1077.68 552.076
729 0 72.2924 13.2517 958 61.4948 1077.91 550.49
730 0 75.2192 13.5737 1021 60.7669 1077.33 549.595
731 0 79.1075 13.5638 1073 60.0019 1077.08 548.455
732 0 80.2722 13.4169 1077 60.1597 1076.77 547.851
733 0 81.1501 13.4565 1092 61.0705 1077.32 544.853
734 0 84.1164 14.2897 1202 59.7321 1077.44 545.665
735 0 87.3963 13.2271 1156 60.0995 1077.13 544.247
736 1 46.1796 11.0655 511 59.8493 1076.43 565.299
737 0 47.1825 11.2966 533 59.925 1076.53 564.565
738 0 48.5301 11.5186 559 58.8247 1077.47 564.345
739 0 48.413 12.1455 588 59.3333 1076.95 562.015
740 0 52.3078 12.522 655 58.4351 1076.51 561.779
741 0 52.3532 12.6067 660 58.7924 1077.05 561.386
742 0 55.4648 13.3057 738 57.3659 1077.33 560.565
743 0 55.4874 12.6515 702 58.8875 1077.23 560.207
744 0 57.4166 13.3237 765 58.8379 1077.39 559.792
745 0 58.4777 13.8343 809 58.6502 1077.05 558.886
746 0 62.5653 12.9944 813 59.9754 1077.56 558.052
747 0 61.2583 13.0431 799 60.7685 1077.05 558.13
748 0 64.4906 13.0096 839 60.5828 1077.1 556.269
749 0 67.4477 13.1658 888 60.0878 1076.98 555.234
750 0 69.3482 12.5742 872 60.8761 1076.54 552.825
751 0 73.3967 13.5292 993 59.2105 1076.31 552.308
752 0 74.2955 12.8272 953 61.5058 1075.93 551.547
753 1 42.0765 11.0988 467 59.3298 1076.11 570.304
754 0 40.0664 10.0583 403 62.3102 1076.47 568.367
755 0 43.0931 10.9066 470 62.4383 1075.34 565.715
756 0 46.1383 11.9857 553 60.4304 1075.27 566.485
757 0 46.127 12.097 558 61.8387 1076.22 565.651
758 0 49.0466 12.2129 599 61.4324 1076.28 564.93
759 0 50.1368 12.2465 614 62.4674 1076.08 564.493
760 0 53.0743 13.3398 708 61.0452 1075.73 564.446
761 0 54.0862 12.4986 676 62.5281 1075.66 562.584
762 0 55.1713 13.449 742 61.4933 1075.55 561.499
763 0 56.2416 12.6241 710 62.9085 1075.8 562.034
764 0 57.2847 12.1324 695 64.6345 1075.72 562.165
765 0 61.2585 13.6797 838 61.9928 1075.28 560.476
766 0 62.2591 12.9459 806 63.964 1074.92 560.419
767 0 61.2177 12.6597 775 65.5406 1075.13 559.49
768 0 63.2773 13.0537 826 65.1259 1075.05 558.311
769 0 65.4025 13.0576 854 65.1159 1075.16 556.541
770 0 67.2881 12.9889 874 65.0446 1075.04 556.149
771 0 69.4134 13.2827 922 64.5846 1075.61 556.078
772 0 70.3183 13.2682 933 65.2905 1075.78 554.335
773 0 75.3403 14.0828 1061 63.3318 1075.17 553.363
774 0 77.3277 12.8803 996 64.7771 1075.07 552.579
775 0 79.1477 13.0389 1032 65.2733 1075.11 551.622
776 0 83.5582 12.961 1083 64.8726 1075.11 549.634
777 1 44.248 11.4356 506 63.4466 1075.57 569.589
778 0 43.1798 9.84256 425 65.9741 1075.72 568.746
779 0 46.1351 11.0545 510 64.8745 1075.77 566.288
780 0 49.019 11.8933 583 63.5935 1075.51 566.393
781 0 48.0451 11.9679 575 64.9861 1076.04 566.054
782 0 51.0296 12.6201 644 63.6537 1076.18 564.722
783 0 53.1147 12.6142 670 64.2418 1076.21 563.597
784 0 54.0687 12.7985 692 64.3425 1076.82 563.695
785 0 55.0093 12.6706 697 64.9656 1076.55 561.772
786 0 55.0277 12.3574 680 66.4779 1076.79 559.476
787 0 59.0353 13.5343 799 64.6758 1076.65 559.507
788 0 59.0615 13.0711 772 65.6192 1076.58 559.711
789 0 62.1165 13.2815 825 65.0679 1076.74 559.068
790 0 65.1216 13.16 857 64.4422 1077.26 558.114
791 0 67.0935 13.4737 904 64.1869 1077.45 555.582
792 0 67.1842 13.0239 875 66.096 1077.9 553.8
793 0 72.1117 13.4098 967 64.6143 1078.32 552.963
794 0 71.224 13.6331 971 65.0237 1077.73 551.701
795 0 75.1388 13.3886 1006 65.0089 1077.69 549.94
796 0 78.171 13.0355 1019 65.0913 1077.26 549.516
797 1 44.0372 11.2859 497 65.2435 1077.4 565.783
798 0 45.0979 11.6857 527 63.6433 1077.21 564.617
799 0 44.1224 12.1254 535 64.5925 1079.2 563.036
800 0 48.1161 12.4698 600 64.1433 1079.79 563.142
801 0 48.4006 12.1899 590 64.3475 1080.1 563.168
802 0 51.2206 13.1002 671 62.9747 1079.64 562.238
803 0 52.2983 13.3083 696 63.0963 1079.96 560.009
804 0 54.2255 13.0381 707 63.6365 1080.05 561.006
805 0 57.2238 13.2637 759 62.4032 1080.23 560.472
806 0 58.2013 12.9722 755 63.8278 1080.14 559.252
807 0 59.1576 12.8639 761 62.9645 1080.54 559.011
808 0 60.1366 13.5358 814 62.8206 1080.78 556.22
809 0 62.264 12.977 808 63.9653 1080.24 555.812
810 0 64.0918 12.6537 811 64.3637 1080.37 555.396
811 0 66.2462 13.2989 881 63.2304 1080.29 554.042
812 0 69.1526 14.1426 978 61.8558 1080.33 553.213
813 0 70.1988 13.2481 930 63.4075 1080.48 551.944
814 0 73.1979 13.3337 976 62.6465 1080.27 550.294
815 0 77.1862 13.5905 1049 62.021 1080.75 549.787
816 0 78.1722 13.5086 1056 62.7055 1081.01 546.88
817 0 82.2541 13.1787 1084 62.7509 1080.02 546.375
818 1 45.0858 10.7351 484 62.7521 1081.29 564.329
819 0 45.0793 12.0454 543 61.1713 1081.63 564.048
820 0 43.0459 9.91964 427 63.7026 1081.25 563.417
821 0 47.0296 11.3971 536 62.2836 1081.19 563.078
822 0 47.0825 11.448 539 62.6586 1081.08 563.473
823 0 50.1326 12.3472 619 60.7044 1080.67 562.351
824 0 49.0757 12.8985 633 60.6272 1079.15 559.94
825 0 53.0288 12.8798 683 59.9239 1079.17 560.507
826 0 54.0887 13.3115 720 60.475 1078.39 558.683
827 0 55.0659 13.3295 734 59.688 1078.45 559.286
828 0 59.0484 13.4297 793 58.9105 1079.04 558.571
829 0 57.0332 13.5535 773 60.4981 1078.63 555.812
830 0 61.1158 13.9898 855 59.7029 1078.17 555.556
831 0 62.1971 12.9749 807 60.4746 1077.99 555.834
832 0 64.2924 14.0763 905 59.4552 1077.81 553.899
833 0 67.1828 13.3516 897 60.4693 1078.08 552.828
834 0 69.1727 13.5458 937 60.651 1077.49 551.025
835 0 72.2849 13.5298 978 59.9151 1078.11 550.572
836 0 72.4515 13.195 956 60.9969 1078.27 548.948
837 0 75.3669 13.3878 1009 60.1269 1077.37 546.786
838 0 77.3605 13.3401 1032 59.625 1077.59 544.527
839 1 44.2445 10.0803 446 59.8117 1077.73 562.173
840 0 41.1545 10.4241 429 60.2121 1078.38 561.235
841 0 41.4033 10.8687 450 59.1244 1078.81 561.913
842 0 44.2243 10.7859 477 59.3208 1078.13 561.774
843 0 46.0912 11.7593 542 58.0959 1078.27 559.97
844 0 45.0175 12.2619 552 59.6975 1077.98 560.911
845 0 48.114 11.3481 546 59.6484 1075.68 561.698
846 0 51.1728 12.8389 657 57.4932 1076.34 561.059
847 0 50.1606 12.5995 632 59.4098 1076.33 559.177
848 0 52.1009 12.3606 644 59.2003 1076.55 561.391
849 0 55.1389 13.1486 725 59.1972 1076.58 560.381
850 0 57.0774 12.7196 726 60.2755 1076.62 558.313
851 0 59.0309 13.6369 805 58.8584 1076.1 558.425
852 0 59.045 13.5829 802 59.6771 1076.31 557.65
853 0 61.0397 12.4673 761 61.4849 1075.93 556.984
854 0 63.125 13.1485 830 60.6494 1076.17 555.392
855 0 66.086 14.0272 927 59.4391 1076.27 554.261
856 0 66.1209 12.8704 851 61.3043 1075.79 553.501
857 0 69.1864 13.6732 946 60.2463 1076.52 551.752
858 0 70.074 13.7426 963 59.9917 1076.34 553.298
859 0 72.0856 12.5961 908 62.6355 1075.91 548.887
860 0 77.2158 13.4428 1038 59.6233 1076.78 550.241
861 0 78.1962 13.0313 1019 60.2257 1076.8 550.277
862 0 81.194 12.5995 1023 60.8798 1076.65 549.232
863 1 44.0663 10.4842 462 62.8701 1077.78 566.584
864 0 45.1062 10.9076 492 63.3516 1077.54 564.89
865 0 46.0232 11.1248 512 63.7188 1076.93 563.418
866 0 48.2006 11.7011 564 63.3245 1077.12 562.977
867 0 50.1493 13.2604 665 61.9143 1076.97 561.361
868 0 49.0209 11.8521 581 65.0826 1076.93 560.182
869 0 52.2817 12.9873 679 62.6156 1076.52 561.931
870 0 53.4222 12.8598 687 63.6798 1076.22 561.45
871 0 55.2412 12.9794 717 63.8759 1075.89 560.887
872 0 56.2716 12.7773 719 64.1307 1075.97 559.391
873 0 59.1696 12.6585 749 63.8545 1075.76 558.805
874 0 58.1917 12.2354 712 65.4579 1075.55 558.104
875 0 61.0969 13.2904 812 64.0776 1075.09 556.35
876 0 62.1214 12.6848 788 65.2614 1075.65 555.326
877 0 65.0915 12.9664 844 64.5533 1075.48 554.821
878 0 67.1373 13.3756 898 66.8441 1075.86 552.497
879 0 69.277 13.7564 953 69.1773 1075.61 553.575
880 0 72.0848 14.1639 1021 68.8492 1075.42 552.547
881 0 76.1331 13.2794 1011 70.0119 1075.38 551.496
882 0 78.1695 13.2661 1037 70.6856 1075.16 550.675
883 0 80.1605 13.7849 1105 70.8633 1075.5 547.227
884 0 84.3159 14.3389 1209 70.8172 1075.32 547.532
885 0 87.2559 15.0133 1310 71.4198 1075.33 546.153
886 0 89.2084 14.2363 1270 76.3236 1075.25 543.927
887 0 92.1975 12.7986 1180 79.8814 1075.18 542.356
888 0 92.3716 14.9288 1379 84.5954 1075.52 542.073
889 0 98.2632 13.128 1290 95.655 1075.97 539.302
890 1 52.0718 12.6364 658 73.8845 1076.64 563.005
891 0 51.057 11.9866 612 63.8611 1076.73 560.165
892 0 53.2263 13.452 716 61.352 1076.47 556.979
893 0 54.2118 12.7832 693 62.9481 1077.02 557.257
894 0 54.2118 12.8016 694 169.197 1077.03 557.264
895 0 58.228 13.1037 763 63.017 1076.95 557.145
896 0 61.2236 13.3282 816 62.5821 1076.91 555.79
897 0 65.2955 13.4312 877 62.4607 1077.06 554.849
898 0 65.2369 13.29 867 63.7878 1077.47 553.632
899 0 68.2739 13.7534 939 62.475 1077.89 552.858
900 0 70.1967 13.8468 972 62.6564 1078.15 551.442
901 0 71.3576 13.7477 981 63.578 1078.65 549.81
902 0 75.2734 13.9491 1050 62.761 1078.62 548.507
903 0 76.1888 13.729 1046 63.3059 1078.84 546.892
904 0 80.2302 13.7978 1107 62.9404 1079.21 546.387
905 0 83.174 13.4177 1116 63.5349 1079.38 544.058
906 0 85.2384 12.9871 1107 64.43 1079.16 541.644
907 1 46.1197 10.3427 477 64.9413 1080.15 562.532
908 0 49.0914 11.8962 584 62.8339 1079.65 560.336
909 0 48.1564 11.4003 549 63.5537 1079.93 559.976
910 0 52.1905 11.3814 594 62.6549 1079.42 559.189
911 0 53.15 12.2107 649 62.7411 1079.05 558.197
912 0 54.4316 12.7132 692 61.0173 1079.98 559.397
913 0 54.2361 12.04 653 62.1899 1080.32 558.896
914 0 59.3827 12.3605 734 60.9019 1080.48 557.135
915 0 59.2602 12.116 718 61.9735 1080.72 555.554
916 0 62.1781 13.1718 819 60.4554 1080.96 554.088
917 0 63.3101 12.5888 797 61.3676 1080.88 553.261
918 0 64.2829 11.8072 759 62.6482 1081.39 552.393
919 0 66.3175 12.3195 817 62 1080.97 552.785
920 0 68.2776 12.4931 853 61.2591 1081.19 550.186
921 0 72.1732 13.7309 991 59.3491 1081.1 547.657
922 0 74.2578 13.2377 983 59.3255 1081.16 547.204
923 0 76.1805 13.5074 1029 59.243 1081.06 546.592
924 0 79.2105 13.5336 1072 58.7957 1081.14 543.856
925 0 80.2961 13.2385 1063 58.6698 1081.21 544.157
926 0 85.3569 12.6996 1084 59.0249 1080.83 543.72
927 0 87.1405 12.9331 1127 58.9441 1080.86 540.752
928 1 48.0345 9.47235 455 59.6637 1082.37 562.444
929 0 51.0904 10.7652 550 58.3109 1081.53 560.149
930 0 51.0476 9.67725 494 61.0506 1081.51 559.492
931 0 53.0853 11.6416 618 59.4029 1081.15 557.814
932 0 56.0934 11.6591 654 59.0856 1080.83 558.381
933 0 56.0772 12.1975 684 58.0965 1080.48 556.583
934 0 57.1435 12.1974 697 58.7202 1080.91 555.626
935 0 58.0742 11.7264 681 59.0808 1080.6 556.658
936 0 60.2296 12.3361 743 58.3069 1080.61 555.163
937 0 63.1532 12.2242 772 58.2254 1080.33 553.506
938 0 64.0655 13.5486 868 57.1544 1079.62 552.335
939 0 68.2142 13.311 908 56.5077 1079.84 553.02
940 0 69.1564 12.8405 888 57.4617 1079.74 549.157
941 0 72.061 12.4339 896 57.6842 1079.21 549.478
942 0 72.2513 12.069 872 58.9346 1079.23 546.43
943 0 74.1915 12.7643 947 57.9747 1079.47 546.731
944 0 77.176 12.4391 960 58.5427 1079.13 545.21
945 0 81.2503 13.5261 1099 56.869 1079.2 545.431
946 0 82.1727 13.0213 1070 57.8738 1079.07 544.942
947 0 85.207 13.567 1156 57.263 1078.5 542.585
948 0 87.4584 13.8809 1214 57.1252 1078.55 542.164
949 0 87.2887 11.8801 1037 59.1215 1078.38 539.897
950 0 92.5197 13.262 1227 56.8093 1078.06 539.614
951 0 96.4749 13.6305 1315 56.3779 1077.84 535.684
952 1 50.1964 10.1003 507 58.858 1077.31 557.698
953 0 53.2995 10.638 567 57.7037 1077.46 556.981
954 0 54.3056 10.8829 591 57.7225 1077.53 556.198
955 0 57.1097 11.5217 658 57.6869 1078.06 558.629
956 0 57.1856 11.8037 675 58.8593 1078.14 556.719
957 0 60.3455 12.2462 739 56.8133 1078.78 557.637
958 0 63.2701 13.0709 827 55.5562 1078.55 557.388
959 0 65.2921 12.6815 828 56.5085 1078.74 554.674
960 0 65.1755 12.2132 796 57.5151 1078.47 553.613
961 0 67.162 12.8049 860 56.586 1078.49 552.615
962 0 67.2879 12.0973 814 57.758 1078.59 551.517
963 0 73.2865 13.7406 1007 54.6445 1079.2 551.259
964 0 73.3811 13.3141 977 56.0205 1078.4 549.046
965 0 76.2007 13.3595 1018 56.0982 1078.13 546.939
966 0 78.3256 12.9587 1015 56.8099 1078.25 545.517
967 0 82.1598 13.6076 1118 55.4624 1077.97 544.339
968 0 84.2328 13.0234 1097 56.7566 1078.07 543.275
969 0 85.2793 13.063 1114 57.3151 1077.7 541.25
970 1 47.1864 10.3631 489 58.9325 1078.79 562.869
971 0 49.0897 11.6114 570 57.2667 1079.01 561.458
972 0 49.0643 12.0862 593 56.9949 1078.63 560.788
973 0 54.1362 12.9858 703 55.3499 1078.73 561.081
974 0 53.2363 12.7545 679 56.1767 1078.29 559.436
975 0 56.377 13.1791 743 55.3028 1077.79 558.482
976 0 57.5586 12.4395 716 56.5223 1077.36 558.06
977 0 58.2626 13.4906 786 55.3766 1077.86 556.748
978 0 61.1913 12.7142 778 55.2892 1077.5 556.198
979 0 62.1788 12.7535 793 55.8209 1077.18 554.701
980 0 63.2741 13.0069 823 55.6865 1077 553.146
981 0 64.2911 12.9256 831 56.0915 1076.85 552.081
982 0 66.1324 13.6544 903 55.1451 1075.65 552.93
983 0 69.1768 13.4005 927 55.7077 1075.62 550.413
984 0 71.1091 13.641 970 55.8711 1075.68 550.556
985 0 72.4492 13.3611 968 56.407 1076.23 549.871
986 0 74.3935 13.4286 999 56.8879 1076.29 549.51
987 0 77.3186 12.9076 998 57.8226 1076.39 547.077
988 0 79.3199 13.7166 1088 56.7482 1076.36 545.466
989 0 85.2531 14.9555 1275 55.0329 1075.78 546.296
990 0 85.342 14.8461 1267 56.4373 1074.84 544.122
991 0 86.3207 13.4267 1159 58.6549 1074.61 540.761
992 0 90.3983 14.9007 1347 57.1455 1074.31 539.554
993 0 91.4898 14.1218 1292 58.9389 1074.3 541.604
994 0 96.5374 14.8336 1432 57.8987 1074.71 541.432
995 0 98.3062 14.3226 1408 59.5845 1074.98 538.141
996 0 99.4702 15.0799 1500 58.856 1075 536.287
997 1 54.3248 10.5293 572 61.9948 1075.13 561.477
998 0 56.2787 10.3058 580 61.7586 1075.02 561.39
999 0 58.2195 12.4529 725 59.5724 1074.9 559.545
1000 0 58.4248 13.0424 762 59.9081 1075.89 557.205
1001 0 59.409 12.7927 760 61.1816 1075.5 557.841
1002 0 59.409 12.8095 761 168.836 1075.49 557.845
1003 0 63.4036 12.9803 823 60.5917 1075.73 556.721
1004 0 67.495 13.5418 914 59.7582 1075.22 553.768
1005 0 69.455 13.102 910 60.1198 1075.24 555.003
1006 0 70.5996 13.1729 930 60.3527 1075.36 552.463
1007 0 74.5261 13.0156 970 60.1072 1075.48 550.889
1008 0 78.4366 13.8966 1090 59.0303 1075.63 549.46
1009 1 40.4753 10.6732 432 59.213 1076.29 568.398
1010 0 41.5188 11.0793 460 58.5957 1076.25 569.163
1011 0 44.4723 11.1755 497 60.495 1076.14 567.404
1012 0 45.3885 12.2939 558 60.8548 1075.77 566.885
1013 0 45.5751 11.9583 545 61.5596 1075.55 567.336
1014 0 46.3559 12.2099 566 62.1555 1075.46 566.329
1015 0 47.355 12.2268 579 62.0812 1075.4 565.373
1016 0 49.3114 12.9585 639 61.5665 1075.44 564.224
1017 0 50.3992 11.1708 563 64.373 1075.37 562.957
1018 0 51.5083 12.0757 622 63.2299 1076.24 563.296
1019 0 53.3768 12.215 652 63.0936 1076.39 562.781
1020 0 53.28 12.0496 642 64.3925 1076.29 561.312
1021 0 56.544 13.5293 765 61.9059 1076.41 561.399
1022 0 58.2513 13.6306 794 62.1788 1076.68 559.675
1023 0 57.1544 13.1923 754 63.6737 1076.54 559.097
1024 0 59.2749 13.3277 790 63.6633 1076.72 559.67
1025 0 62.1188 12.9107 802 64.0374 1076.39 557.913
1026 0 64.224 12.9547 832 64.3389 1076.13 557.76
1027 0 65.2727 12.8997 842 64.6663 1076.35 555.236
1028 0 65.2727 12.8691 840 158.24 1077.35 555.29
1029 0 71.2721 13.4414 958 63.7234 1077.45 553.831
1030 0 73.3844 14.4581 1061 62.8275 1077.92 551.5
1031 0 74.2233 13.6211 1011 64.5806 1077.83 550.416
1032 0 77.4285 13.3672 1035 64.5585 1077.77 550.131
1033 0 77.3377 13.7966 1067 65.2755 1078.1 549.197
1034 0 80.2259 14.1351 1134 65.2707 1078.15 546.752
1035 0 84.3165 13.8288 1166 65.6055 1077.79 546.256
1036 0 86.3936 13.9246 1203 65.8529 1078.35 545.652
1037 0 88.1811 13.9486 1230 66.6431 1078.41 544.147
1038 0 91.2193 13.7142 1251 67.0887 1078.47 542.669
1039 0 94.3399 14.2994 1349 66.5819 1078.93 541.047
1040 1 49.3007 10.9126 538 68.9981 1079.89 563.875
1041 0 49.2292 11.2129 552 69.4638 1080.09 563.913
1042 0 54.295 12.1558 660 68.6182 1079.96 560.13
1043 0 56.2673 12.7427 717 66.7629 1079.87 560.519
1044 0 56.2761 13.2738 747 67.577 1080.23 561.191
1045 0 58.5333 12.4032 726 69.2438 1080.15 558.629
1046 0 59.2669 13.3802 793 67.2346 1080.03 558.932
1047 0 62.3804 13.3536 833 67.2173 1079.89 558.166
1048 0 64.3561 13.4874 868 67.0323 1080.04 556.528
1049 0 64.2301 13.4205 862 67.913 1080.03 555.599
1050 0 67.2969 13.5073 909 67.6656 1080.14 555.234
1051 0 70.1995 13.6468 958 68.2954 1079.98 551.961
1052 0 70.4187 13.1641 927 70.0129 1080.35 551.759
1053 0 72.208 13.5027 975 69.439 1080.19 551.778
1054 0 75.459 13.8353 1044 69.3697 1080.75 550.497
1055 0 76.3879 13.3398 1019 71.1776 1080.44 547.378
1056 0 80.2523 13.5323 1086 70.6832 1080.78 546.385
1057 0 80.2523 13.4825 1082 174.236 1081.76 546.41
1058 0 86.3421 13.9329 1203 69.7415 1080.71 543.91
1059 0 89.217 13.5737 1211 70.2931 1080.62 542.515
1060 0 91.2124 13.7701 1256 70.3917 1080.58 541.67
1061 0 94.3627 13.3209 1257 70.9069 1080.46 541.396
1062 1 49.3403 11.37 561 70.5989 1081.14 563.36
1063 0 50.2701 10.8812 547 72.3455 1080.74 562.294
1064 0 51.3252 11.1446 572 73.0734 1080.92 561.774
1065 0 54.1521 12.0032 650 72.1462 1081.08 560.952
1066 0 56.1796 13.3322 749 69.6208 1081.2 558.223
1067 0 59.143 13.0869 774 69.8747 1081.27 557.818
1068 0 61.0573 13.5119 825 68.72 1081.07 557.808
1069 0 61.065 12.7405 778 70.1208 1080.86 556.81
1070 0 64.1045 12.854 824 69.96 1080.55 554.87
1071 0 67.0692 13.4339 901 68.6471 1080.58 553.353
1072 0 68.1143 12.9782 884 69.7952 1080.69 552.647
1073 0 70.1124 12.8793 903 70.1008 1080.46 551.757
1074 0 73.2181 13.7671 1008 67.8353 1080.23 550.884
1075 0 74.089 13.5783 1006 69.1342 1079.53 548.413
1076 0 79.1138 14.2832 1130 66.3965 1079.12 548.892
1077 0 80.1441 13.6504 1094 68.5859 1078.89 547.884
1078 0 83.1693 13.6228 1133 68.6267 1078.83 546.05
1079 0 84.1479 13.1435 1106 69.4358 1078.93 544.09
1080 0 89.1218 13.4086 1195 68.2494 1078.73 543.157
1081 0 90.2566 14.3037 1291 67.0101 1078.52 541.699
1082 0 94.1195 14.0141 1319 67.3116 1078.74 538.083
1083 1 51.1186 11.4635 586 68.285 1079.9 561.773
1084 0 54.0486 10.4166 563 69.4849 1079.75 560.547
1085 0 55.0549 11.5521 636 68.2925 1079.92 559.549
1086 0 58.0841 11.931 693 66.4892 1079.49 558.954
1087 0 58.3377 12.7533 744 65.9288 1079.35 558.395
1088 0 60.3511 13.1895 796 66.0553 1078.99 556.928
1089 0 62.3229 13.2856 828 65.0254 1078.76 556.449
1090 0 63.3894 13.1252 832 66.7584 1078.86 556.28
1091 0 65.3325 12.8114 837 66.8041 1078.96 556.292
1092 0 68.3762 13.338 912 66.0559 1079.17 554.266
1093 0 70.3293 13.8491 974 64.6797 1078.88 552.859
1094 0 71.3507 13.0622 932 66.0858 1078.59 552.206
1095 0 74.3239 13.7775 1024 64.7129 1078.59 551.264
1096 0 75.4253 12.8869 972 66.4496 1078.06 550.204
1097 0 79.4343 14.1123 1121 63.9813 1078 549.522
1098 0 81.3963 13.6001 1107 65.1111 1078.11 546.928
1099 0 84.3588 13.4426 1134 65.0503 1077.96 546.649
1100 0 86.5169 14.448 1250 63.96 1078.04 543.973
1101 0 88.3139 13.3388 1178 66.2368 1077.46 544.027
1102 0 90.5714 13.4259 1216 66.7138 1077.46 542.578
1103 0 95.3745 14.7943 1411 63.9816 1077.32 541.423
1104 0 97.2536 13.6242 1325 65.8211 1077.34 541.542
1105 0 101.283 14.0004 1418 65.4718 1077.14 538.758
1106 0 103.165 13.7741 1421 65.6728 1076.46 535.234
1107 0 107.25 13.5478 1453 65.9016 1076.53 534.599
1108 0 109.105 13.1433 1434 66.0955 1077.22 532.478
1109 1 62.1421 11.522 716 65.9204 1077.23 560.184
1110 0 64.0574 11.9424 765 64.9333 1077.52 555.473
1111 0 66.0929 13.0271 861 63.1208 1076.32 555.812
1112 0 67.0888 13.1617 883 63.6093 1076.05 554.356
1113 0 70.2675 13.3348 937 63.0961 1076.9 553.196
1114 0 71.128 13.4124 954 62.7128 1076.95 551.679
1115 0 74.1905 13.2766 985 62.5635 1076.14 550.834
1116 0 77.1589 13.9323 1075 61.6735 1075.89 550.11
1117 0 79.0483 13.574 1073 62.0447 1075.73 547.844
1118 0 81.1584 13.4552 1092 61.9918 1076.16 548.578
1119 0 84.2458 13.9473 1175 61.6374 1076 546.205
1120 0 88.1243 13.7533 1212 61.4901 1075.82 545.201
1121 0 90.3804 13.1555 1189 62.9142 1076.75 542.614
1122 0 93.4284 14.0428 1312 61.7942 1076.64 542.01
1123 0 95.4153 13.1321 1253 62.9154 1075.93 539.287
1124 0 100.469 14.492 1456 60.3249 1076.47 538.535
1125 0 101.493 13.7349 1394 61.6069 1076.84 535.368
1126 0 105.454 14.1484 1492 61.9377 1076.98 533.876
1127 1 58.2864 10.4999 612 62.451 1076.94 559.737
1128 0 59.5357 11.7073 697 61.7991 1077.01 559.052
1129 0 60.4669 11.6427 704 62.8352 1076.57 558.435
1130 0 60.4669 11.6593 705 170.106 1075.56 558.394
1131 0 64.3783 13.0479 840 60.9012 1076.71 557.462
1132 0 65.2664 13.33 870 61.1598 1076.97 554.678
1133 0 67.2692 12.8885 867 61.6736 1076.01 556.119
1134 0 68.1319 13.151 896 62.5022 1076.46 554.153
1135 0 71.1588 12.8164 912 62.7248 1076.23 552.934
1136 0 74.2786 13.3551 992 62.6673 1075.83 552
1137 0 77.3865 13.2323 1024 63.1387 1076.22 550.248
1138 0 79.253 13.1351 1041 63.2459 1076.55 548.266
1139 0 81.3327 13.5247 1100 62.9482 1076.68 546.922
1140 0 83.2247 12.6044 1049 63.7712 1076.83 545.9
1141 0 87.5121 13.9409 1220 63.1107 1077.08 544.52
1142 0 88.4964 13.6955 1212 63.9348 1077.18 540.951
1143 0 91.5886 13.3969 1227 63.1002 1076.93 539.76
1144 0 93.542 13.4592 1259 64.1009 1077.13 537.394
1145 0 95.4302 13.3815 1277 63.758 1077.16 536.412
1146 0 98.5982 13.8948 1370 62.9701 1077.09 535.323
1147 0 101.425 13.8032 1400 63.6964 1077.53 529.948
1148 0 103.465 13.2219 1368 64.7251 1077.24 529.895
1149 0 106.933 13.6159 1456 63.7342 1077.6 528.829
1150 0 110.462 13.2897 1468 63.7323 1077.87 528.253
1151 0 115.527 14.2565 1647 62.1378 1078.19 524.665
1152 0 118.439 13.7708 1631 62.4482 1078.75 521.461
1153 0 123.026 13.8263 1701 61.9841 1079.33 520.527
1154 0 126.666 14.408 1825 61.1403 1079.5 519.707
1155 0 129.625 13.9017 1802 61.9822 1079.55 517.446
1156 0 135.778 13.8535 1881 62.1191 1080.04 517.61
1157 0 137.687 14.1045 1942 61.8785 1080.21 513.686
1158 0 143.78 13.771 1980 61.4778 1080.41 508.362
1159 0 149.425 14.1944 2121 60.7709 1080.45 508.798
1160 0 151.481 13.8961 2105 61.6147 1080.87 506.494
1161 0 158.68 14.4378 2291 60.7804 1080.7 501.778
1162 0 162.55 14.0634 2286 61.2332 1080.9 500.482
1163 0 168.53 14.0568 2369 61.0536 1080.86 496.163
1164 0 174.443 13.5517 2364 61.368 1081.14 491.785
1165 0 181.483 13.4668 2444 61.1563 1080.83 492.388
1166 0 188.443 14.8003 2789 59.7232 1077.88 483.81
1167 0 193.658 14.8045 2867 59.7 1079.98 479.795
1168 0 198.593 14.2402 2828 60.4409 1082.71 478.449
1169 0 203.534 13.7618 2801 61.1239 1082.43 477.226
1170 0 211.651 13.9569 2954 60.9269 1082.71 471.627
1171 0 220.926 14.2084 3139 60.3683 1082.46 471.002
1172 1 62.4064 9.90283 618 58.9045 1081.89 551.238
1173 0 66.4035 11.5807 769 58.1482 1082.28 552.04
1174 0 67.4507 11.3416 765 58.0889 1083.07 550.779
1175 0 70.1715 12.4552 874 56.9188 1083.22 548.144
1176 0 72.231 12.6815 916 57.7937 1082.86 548.052
1177 0 75.1087 12.3155 925 58.1773 1082.84 547.099
1178 0 77.2175 12.8857 995 57.6704 1081.9 547.137
1179 0 79.1955 12.7406 1009 58.0515 1081.77 544.807
1180 0 82.2414 13.2658 1091 57.4161 1081.95 543.313
1181 0 85.095 12.8327 1092 57.8397 1083.14 543.152
1182 0 85.2673 12.6309 1077 58.4178 1082.41 539.903
1183 0 90.2353 13.5202 1220 56.9189 1081.75 538.627
1184 0 94.1496 13.1918 1242 57.3261 1080.6 538.651
1185 0 95.2222 12.6231 1202 58.0599 1080.52 535.498
1186 0 99.2019 12.9735 1287 57.7467 1080.69 533.124
1187 1 58.0523 9.47422 550 57.76 1080.09 559.107
1188 0 60.048 10.5416 633 57.2306 1080.13 555.662
1189 0 60.0921 11.2328 675 57.5896 1080.21 554.997
1190 0 62.058 11.2314 697 57.6198 1079.73 553.42
1191 0 66.0523 11.5212 761 57.0565 1079.83 553.855
1192 0 66.1173 12.0846 799 57.6358 1082.68 551.817
1193 0 70.1777 12.6251 886 56.8849 1080.32 551.314
1194 0 70.2408 12.2151 858 57.8601 1080.38 549.466
1195 0 72.1343 13.4056 967 56.4012 1080.5 550.009
1196 0 74.1936 13.2087 980 57.0051 1077.81 548.013
1197 0 75.2159 11.3274 852 59.7876 1078.63 546.972
1198 0 76.3075 12.9214 986 58.143 1078.63 548.082
1199 0 80.3508 13.7397 1104 57.0861 1079.46 545.544
1200 0 82.2837 12.0072 988 59.1953 1079.99 544.16
1201 0 84.329 11.6804 985 60.1624 1080.06 542.908
1202 0 88.3203 13.0095 1149 58.0017 1079.96 542.77
1203 0 89.2261 13.18 1176 58.1318 1080.08 538.351
1204 0 92.4114 12.9421 1196 58.4941 1080.16 539.712
1205 0 96.5061 13.367 1290 58.1023 1079.58 537.897
1206 0 98.3264 12.906 1269 59.0686 1079.79 536.563
1207 0 100.389 13.0592 1311 59.2647 1079.89 534.543
1208 1 54.2461 9.8256 533 60.3846 1080.38 556.805
1209 0 58.1726 10.7095 623 58.7689 1080.16 553.472
1210 0 59.1505 10.5832 626 57.2364 1080.35 555.73
1211 0 61.1622 12.3606 756 56.3492 1079.01 553.694
1212 0 62.1277 11.6051 721 57.4244 1078.44 553.043
1213 0 64.0744 12.2046 782 57.3708 1077.72 551.262
1214 0 67.2855 12.6773 853 56.6424 1076.92 542.788
1215 0 69.2785 12.558 870 56.9621 1076.49 544.531
1216 0 70.1579 13.0563 916 56.6026 1076.55 539.547
1217 0 72.1772 12.9404 934 56.8779 1076.49 542.885
1218 0 74.1612 13.4032 994 56.2032 1076.22 548.437
1219 0 78.2802 13.8988 1088 56.4706 1076.76 548.322
1220 0 78.281 13.1194 1027 58.0857 1076.67 547.582
1221 0 82.0993 13.642 1120 57.3679 1076.7 544.327
1222 0 85.239 13.8082 1177 56.7647 1076.99 545.619
1223 0 89.1472 13.4497 1199 57.1952 1075.81 541.921
1224 0 91.1932 13.8936 1267 56.8737 1076.01 540.713
1225 0 94.1754 13.8465 1304 56.4609 1074.22 540.931
1226 0 96.2306 13.4157 1291 57.0124 1075.11 538.239
1227 0 100.374 12.4933 1254 57.9856 1076.78 534.823
1228 0 105.298 13.6279 1435 56.2397 1077.23 536.186
1229 1 55.3622 9.42882 522 59.3429 1077.8 559.91
1230 0 59.3737 10.4423 620 56.9306 1078.15 559.926
1231 0 60.347 10.5225 635 56.4598 1078.15 560.839
1232 0 62.3978 11.2825 704 56.8054 1077.49 556.996
1233 0 63.2865 11.7719 745 56.6255 1077.11 556.544
1234 0 67.0995 12.8317 861 55.9501 1077.01 551.714
1235 0 66.1204 12.3411 816 57.0221 1077.14 551.565
1236 0 72.2107 13.3083 961 55.2268 1078.14 551.594
1237 0 72.1645 11.8479 855 56.2 1077.44 549.097
1238 0 73.0509 12.3475 902 56.0765 1077.67 546.003
1239 0 76.3097 12.6589 966 57.5994 1076.99 547.998
1240 0 78.2289 12.3612 967 57.4436 1077.76 548.468
1241 0 81.1402 12.7434 1034 57.1605 1077.51 546.846
1242 0 84.2433 13.2117 1113 56.1303 1077.09 545.148
1243 0 89.1634 13.9631 1245 54.747 1077.95 546.831
1244 0 89.3155 12.0472 1076 57.842 1077.79 545.495
1245 0 94.2745 12.3894 1168 57.1584 1077.81 544.455
1246 0 96.2573 12.5497 1208 57.4661 1076.45 539.337
1247 0 100.189 13.0154 1304 57.4202 1076.37 539.363
1248 0 102.221 12.9327 1322 58.9266 1076.18 537.293
1249 0 106.287 12.7485 1355 59.5934 1076.41 533.343
1250 0 111.245 14.0321 1561 57.6547 1076.23 533.138
1251 1 63.1382 10.675 674 59.9792 1075.67 556.734
1252 0 63.0562 11.355 716 60.3115 1076.33 553.704
1253 0 69.1402 13.1617 910 57.1582 1074.86 544.553
1254 0 68.2267 12.224 834 58.4688 1077.14 542.657
1255 0 69.2125 12.2666 849 58.9494 1076.99 541.849
1256 0 74.0678 12.2995 911 58.6312 1078.38 547.445
1257 0 74.081 13.0668 968 57.6973 1078.4 545.482
1258 0 76.0733 12.948 985 58.7888 1078.99 544.108
1259 0 80.2262 13.2874 1066 57.9043 1078.59 544.293
1260 0 80.2251 12.6519 1015 59.5163 1078.88 541.627
1261 0 81.2931 12.3627 1005 60.5711 1078.7 541.219
1262 0 86.2894 13.7213 1184 58.2965 1078.46 544.774
1263 0 88.2499 13.1785 1163 59.7369 1078.72 544.69
1264 1 52.2734 11.0572 578 59.5311 1079.81 561.604
1265 0 49.2515 10.9844 541 61.6987 1080 560.181
1266 0 53.3426 11.5667 617 60.9951 1080.05 557.72
1267 0 53.3943 12.5856 672 60.1384 1079.96 559.67
1268 0 56.4037 12.1269 684 60.6871 1079.77 559.028
1269 0 56.2567 12.283 691 61.5253 1079.77 556.491
1270 0 60.3197 12.9311 780 60.7397 1079.95 557.104
1271 0 62.3238 12.7881 797 60.4981 1080.28 554.906
1272 0 63.3188 12.9661 821 60.486 1080.52 554.741
1273 0 66.2239 13.3034 881 60.2452 1081.01 552.944
1274 0 65.1849 12.5949 821 61.771 1081.31 550.832
1275 0 69.3318 13.933 966 59.3613 1081.5 551.09
1276 0 69.3168 13.5609 940 60.2809 1081.7 550.386
1277 0 70.2144 13.1882 926 60.6674 1081.88 548.502
1278 0 73.1207 12.4999 914 60.8676 1081.99 545.945
1279 0 77.1645 13.387 1033 58.8771 1082.07 546.731
1280 0 79.1599 13.4032 1061 59.6221 1082.28 545.336
1281 0 79.1836 13.5255 1071 60.0822 1081.77 543.89
1282 0 81.2008 13.6452 1108 60.2211 1081.75 540.051
1283 0 85.2787 13.6728 1166 59.4923 1082.44 540.953
1284 0 88.3102 14.0641 1242 59.1377 1082.69 539.751
1285 0 91.2215 13.3192 1215 59.7819 1082.57 537.89
1286 0 95.2669 14.5696 1388 58.3494 1081.61 537.531
1287 0 97.4191 14.1656 1380 58.3891 1081.9 534.799
1288 1 57.2779 11.4529 656 59.2058 1082.57 555.438
1289 0 59.3347 12.0671 716 59.6411 1082.66 554.707
1290 0 62.3262 11.3275 706 59.8513 1082.76 554.833
1291 0 63.2278 11.9726 757 59.5324 1082.52 555.153
1292 0 64.2925 12.4431 800 59.54 1082.54 553.578
1293 0 66.4695 12.3365 820 59.3756 1082.67 551.849
1294 0 68.3851 12.8391 878 59.0456 1082.52 548.844
1295 0 71.306 13.1546 938 58.5288 1082.58 549.683
1296 0 75.2581 12.9554 975 58.1774 1082.62 548.103
1297 0 76.339 13.2043 1008 58.376 1082.83 545.737
1298 0 78.5339 13.4719 1058 57.8922 1083.28 544.878
1299 0 82.3175 13.3021 1095 57.6694 1083.41 545.55
1300 0 82.2606 13.5666 1116 58.2213 1083.53 543.589
1301 0 85.3505 13.4621 1149 58.0331 1083 542.912
1302 0 87.3322 13.5345 1182 58.6337 1083.18 541.441
1303 0 90.514 13.6774 1238 58.6664 1083.5 540.06
1304 0 94.282 13.9793 1318 57.6593 1083.6 538.468
1305 0 98.2339 13.9056 1366 57.5483 1082.98 536.684
1306 0 100.263 13.8137 1385 57.852 1082.71 533.423
1307 1 56.0877 10.9293 613 56.8059 1083.81 559.786
1308 0 55.1041 10.7977 595 59.4303 1082.98 557.608
1309 0 59.0672 11.3938 673 58.6909 1081.29 556.382
1310 0 60.0828 12.3496 742 57.5148 1080.78 556.38
1311 0 60.0839 12.3161 740 57.0459 1080.13 554.649
1312 0 61.0686 12.2977 751 57.0266 1079.79 554.214
1313 0 63.0219 12.3449 778 57.5308 1079.3 554.353
1314 0 63.0452 12.7369 803 57.6936 1079.32 552.843
1315 0 68.2449 12.0449 822 57.1229 1080.38 551.636
1316 0 68.2941 12.944 884 56.9005 1079.91 553.083
1317 0 72.0966 13.1352 947 56.1795 1080.19 551.85
1318 0 72.0717 13.0426 940 57.2287 1079.84 549.586
1319 0 74.2117 12.3026 913 57.7886 1079.72 545.112
1320 0 77.1468 13.2345 1021 57.0509 1079.52 546.881
1321 0 80.1539 12.6881 1017 57.2006 1079.63 547.964
1322 0 84.2291 13.7007 1154 55.9497 1078.57 544.737
1323 0 84.1306 13.3483 1123 57.4515 1078.83 540.793
1324 0 88.3871 14.165 1252 55.9489 1078.66 543.673
1325 0 92.1792 12.6167 1163 57.6535 1078.37 541.874
1326 0 96.37 14.849 1431 54.5856 1078.53 539.201
1327 0 96.2327 13.4154 1291 56.7459 1078.16 539.937
1328 0 101.263 13.5982 1377 56.0487 1078.27 537.888
1329 0 103.327 13.5395 1399 56.7505 1078.42 534.749
1330 1 54.1125 9.8868 535 58.0112 1078.72 558.164
1331 0 58.1631 12.0007 698 56.2034 1078.57 556.745
1332 0 62.1853 12.4949 777 53.9331 1078.26 556.833
1333 0 62.0806 12.5965 782 56.0205 1077.74 556.091
1334 0 61.1865 13.0911 801 57.824 1078.29 556.04
1335 0 65.2124 13.6937 893 56.7245 1077.73 555.655
1336 0 68.1291 12.8579 876 57.468 1077.54 554.442
1337 0 69.1795 13.3132 921 57.0239 1077.18 552.41
1338 0 70.1569 12.5291 879 58.0068 1077.36 551.427
1339 0 74.0846 13.2281 980 56.6 1077.69 550.876
1340 0 76.2009 13.3201 1015 56.0729 1077.34 549.457
1341 0 79.1177 13.3472 1056 56.0881 1077.29 548.619
1342 0 82.2019 12.9559 1065 55.9793 1079.15 547.311
1343 0 82.2605 12.3875 1019 56.8351 1078.57 545.955
1344 0 86.5475 13.7266 1188 54.612 1078.43 543.664
1345 0 86.2679 12.6698 1093 56.4263 1078.55 543.644
1346 0 90.2307 13.5985 1227 54.6724 1078.34 541.738
1347 0 93.2939 13.3128 1242 55.5878 1078.19 538.195
1348 1 53.1259 10.7292 570 55.0667 1078.91 561.318
1349 0 53.2043 9.90521 527 57.1082 1078.39 559.522
1350 0 55.1913 11.2699 622 56.5209 1078.04 557.751
1351 0 55.0478 10.173 560 58.5321 1078.05 558.316
1352 0 57.0574 11.6374 664 58.8614 1078.47 558.517
1353 0 59.0764 12.4415 735 57.1728 1078.07 559.182
1354 0 61.066 12.8058 782 57.1253 1078.23 557.004
1355 0 63.1088 11.9793 756 58.623 1077.7 554.589
1356 0 65.3241 13.2723 867 57.8639 1077.37 555.99
1357 0 68.221 12.4888 852 58.7042 1077.03 556.027
1358 0 70.2977 12.9307 909 58.4521 1077.42 553.532
1359 0 71.205 13.2575 944 59.1314 1077.03 552.592
1360 0 70.1853 12.4385 873 61.3448 1077 552.443
1361 0 74.2811 12.7623 948 61.0422 1076.79 551.69
1362 0 77.1473 12.9881 1002 61.4341 1077 549.991
1363 0 78.2265 12.7578 998 61.7826 1076.69 550.572
1364 0 82.2456 13.0098 1070 62.1766 1076.69 549.178
1365 0 84.2587 13.4823 1136 62.0282 1076.36 548.224
1366 0 87.1357 14.2766 1244 61.1262 1076.34 546.654
1367 0 89.3325 12.3471 1103 64.3055 1076.5 546.771
1368 1 49.0343 10.6252 521 64.0345 1076.63 566.985
1369 0 51.0691 11.4942 587 63.8126 1076.21 562.721
1370 0 51.1921 11.5447 591 64.7174 1075.67 563.829
1371 0 53.1549 11.4006 606 65.1634 1075.96 563.66
1372 0 56.1456 12.0401 676 63.3817 1074.71 563.555
1373 0 56.1317 12.3816 695 65.7022 1075.6 562.001
1374 0 58.0813 12.3103 715 65.9203 1074.46 560.699
1375 0 60.1305 12.4396 748 65.8957 1074.72 559.98
1376 0 60.1047 13.4266 807 65.4139 1074.82 559.683
1377 0 63.1366 13.0036 821 66.1937 1075.06 558.208
1378 0 65.107 13.0554 850 65.9106 1075.05 558.86
1379 0 65.1482 13.1393 856 67.0374 1074.83 557.982
1380 0 67.061 13.0329 874 67.2632 1074.91 559.601
1381 0 68.1679 13.2467 903 68.0476 1075.52 554.517
1382 0 68.2239 13.3531 911 65.2602 1074.97 555.121
1383 0 73.239 14.2001 1040 63.2048 1075.33 553.746
1384 0 75.2228 13.5863 1022 65.635 1075.15 553.289
1385 0 76.4392 13.5533 1036 67.2346 1076.14 547.908
1386 0 77.2751 13.0314 1007 68.3148 1076.63 547.29
1387 0 80.3357 14.0286 1127 66.669 1075.82 541.928
1388 0 84.3304 14.2179 1199 66.1918 1076.04 542.334
1389 0 87.235 14.5813 1272 65.5291 1076.41 541.278
1390 0 88.4211 13.5601 1199 67.2644 1077.13 542.28
1391 0 91.5159 13.6807 1252 66.9042 1077.6 540.551
1392 1 50.2516 10.9449 550 68.6436 1078.23 560.933
1393 0 52.2817 11.6102 607 67.1713 1078.16 560.135
1394 0 53.316 12.6416 674 66.911 1078.32 558.2
1395 0 56.2387 13.336 750 66.2147 1078.63 557.223
1396 0 57.309 13.1742 755 66.5881 1078.94 557.423
1397 0 61.1898 14.4632 885 64.5876 1078.59 558.097
1398 0 61.2211 14.3088 876 65.6324 1079 557.575
1399 0 64.35 14.7941 952 64.104 1079.06 557.1
1400 0 66.4127 14.6056 970 64.2598 1079.35 555.82
1401 0 66.2632 14.5028 961 65.1009 1079.49 554.954
1402 0 70.3723 14.2386 1002 64.477 1079.65 555.336
1403 0 72.4518 14.0231 1016 64.8691 1079.43 552.221
1404 0 73.4022 14.0731 1033 65.2043 1079.68 551.294
1405 0 76.4166 14.7219 1125 63.768 1079.96 551.294
1406 0 79.4276 14.2772 1134 64.0723 1080.38 548.337
1407 0 81.3618 14.2081 1156 64.5536 1080.72 547.095
1408 0 84.4004 14.5378 1227 64.15 1081.44 545.13
1409 0 86.3484 14.1288 1220 64.5746 1081.43 544.454
1410 0 89.3791 14.9028 1332 63.5616 1081.67 542.277
1411 0 91.3082 14.6318 1336 63.9334 1081.95 541.826
1412 0 94.3853 14.2607 1346 64.2905 1082.13 541.17
1413 0 98.3476 13.6658 1344 64.4621 1082 538.687
1414 0 101.761 13.9052 1415 64.241 1081.89 535.727
1415 0 104.367 14.6215 1526 63.0845 1081.93 535.66
1416 0 107.375 14.305 1536 64.0241 1082.07 532.184
1417 1 60.2285 12.3696 745 63.251 1082.12 557.728
1418 0 62.4564 12.5528 784 63.7054 1081.73 556.672
1419 0 64.3151 13.0918 842 62.4929 1081.38 554.069
1420 0 67.4143 13.1723 888 61.9043 1081.22 552.914
1421 0 69.4448 13.4783 936 61.4808 1081.68 550.72
1422 0 70.2776 12.9771 912 62.1601 1081.49 548.682
1423 0 75.2045 12.4594 937 61.8933 1081.72 549.397
1424 0 76.5164 13.435 1028 61.4601 1081.86 546.971
1425 0 79.3958 13.8168 1097 59.7931 1081.92 546.802
1426 0 82.5163 13.7549 1135 60.3744 1081.68 544.443
1427 0 85.3149 14.0655 1200 59.1492 1081.54 543.853
1428 0 90.6273 13.2962 1205 59.3759 1081.92 542.578
1429 0 92.6487 13.5242 1253 58.8037 1081.6 538.579
1430 0 97.5026 13.9894 1364 57.8922 1081 538.257
1431 0 98.2394 14.1593 1391 57.6247 1080.98 536.725
1432 0 104.451 14.0066 1463 57.4375 1080.65 535.497
1433 1 56.4284 11.5013 649 58.7473 1080.97 559.508
1434 0 58.3647 10.5886 618 60.7104 1081.39 559.021
1435 0 60.3222 12.0188 725 58.4097 1081.73 559.037
1436 0 63.4869 13.2783 843 58.567 1081.31 556.415
1437 0 65.4191 13.574 888 58.1779 1081.4 555.944
1438 0 66.3282 13.2372 878 59.7916 1080.85 553.613
1439 0 70.1466 14.2274 998 58.2415 1080.56 552.964
1440 0 71.217 13.4518 958 59.0177 1080.34 550.527
1441 0 74.353 13.7183 1020 58.849 1080.68 550.645
1442 0 76.2878 13.5015 1030 58.5175 1080.57 550.461
1443 0 80.498 14.696 1183 56.6602 1080.3 549.909
1444 0 83.4126 14.3503 1197 56.9524 1079.9 547.773
1445 0 83.4318 13.2923 1109 58.908 1079.53 545.539
1446 0 87.3626 14.2624 1246 58.0008 1080.01 543.665
1447 0 88.5128 13.7381 1216 58.56 1080.14 544.636
1448 0 91.3208 14.3231 1308 58.3754 1080.72 541.642
1449 0 96.5184 14.391 1389 57.8092 1080.44 540.259
1450 0 98.4421 14.3536 1413 58.3921 1080.53 540.323
1451 0 100.318 14.4142 1446 59.101 1080.11 537.51
1452 0 101.388 14.6664 1487 59.3941 1079.66 535.764
1453 0 106.418 14.631 1557 59.3385 1079.27 535.364
1454 0 109.353 14.6864 1606 59.6936 1079.4 534.757
1455 0 112.308 14.6027 1640 59.9433 1078.98 533.181
1456 1 64.3048 11.4766 738 62.4702 1078.98 556.92
1457 0 62.3983 11.2663 703 62.6131 1079.33 557.754
1458 0 67.2086 11.814 794 62.2796 1079.11 555.637
1459 0 70.2611 12.7524 896 61.1049 1078.43 552.15
1460 0 71.1905 13.2181 941 61.5313 1078.46 549.756
1461 0 73.3011 13.6151 998 61.3838 1078.13 548.863
1462 0 76.3258 13.8223 1055 62.4455 1078.23 549.166
1463 0 80.1911 14.2659 1144 61.8925 1078.75 547.858
1464 0 81.2592 13.8569 1126 63.0115 1077.89 546.009
1465 0 84.3009 13.6772 1153 63.5412 1077.84 543.465
1466 0 88.1777 14.4027 1270 62.3236 1077.98 542.931
1467 0 90.2803 14.1559 1278 63.3271 1077.62 543.135
1468 0 92.2 13.9262 1284 63.6604 1077.47 540.04
1469 0 95.2908 14.6604 1397 62.6514 1077.21 539.511
1470 0 99.4337 13.959 1388 64.1664 1077.26 537.688
1471 0 102.357 14.7034 1505 62.5947 1076.92 535.555
1472 0 105.218 14.7504 1552 62.8202 1077.01 535.138
1473 0 108.418 14.6101 1584 63.1484 1077.12 531.338
1474 1 61.1783 11.3602 695 65.6504 1077.53 556.209
1475 0 62.1938 11.2712 701 65.9287 1077.37 556.633
1476 0 64.2513 12.1554 781 64.7618 1077.21 555.446
1477 0 67.0645 13.5839 911 63.0527 1076.04 556.032
1478 0 67.0698 13.1803 884 64.0577 1076.24 552.049
1479 0 71.2111 14.9696 1066 61.2036 1075.32 550.569
1480 0 71.2111 15.0117 1069 160.356 1075.31 550.501
1481 0 74.1868 13.3447 990 64.1717 1075.67 548.369
1482 0 76.2199 13.6578 1041 63.6206 1076.43 548.063
1483 0 77.1636 13.2964 1026 65.2515 1076.38 544.987
1484 0 80.1218 13.3672 1071 64.493 1076.38 545.038
1485 0 84.1577 13.5341 1139 63.9649 1076.03 544.86
1486 0 87.1947 13.3838 1167 64.4781 1076.78 544.231
1487 0 90.1823 14.4707 1305 62.8636 1076.32 543.096
1488 0 94.2097 13.5973 1281 64.0117 1075.91 540.212
1489 0 97.2148 14.1028 1371 62.2195 1076.11 538.68
1490 0 100.255 14.6626 1470 61.2116 1076.71 538.884
1491 0 103.265 13.9641 1442 62.6234 1076.64 535.819
1492 1 58.1563 9.21654 536 64.6026 1077.18 559.026
1493 0 60.2015 11.1791 673 62.9465 1077.18 555.371
1494 0 61.1855 10.3946 636 62.7862 1077.44 557.939
1495 0 65.2017 11.7328 765 62.2824 1077.21 554.575
1496 0 67.1616 12.656 850 61.5024 1076.97 555.194
1497 0 67.1365 12.8842 865 61.222 1077.55 555.636
1498 0 57.3541 9.27572 532 67.6823 1077.54 545.675
1499 1 72.151 13.6103 982 61.055 1078.05 552.722
1500 0 74.1416 13.3393 989 61.6512 1078.71 551.93
1501 0 78.2873 13.3994 1049 60.8999 1078.43 550.997
1502 0 78.2101 13.5532 1060 61.3736 1078.67 548.98
1503 0 82.5291 12.9894 1072 61.7313 1079.39 547.751
1504 0 84.1163 12.9701 1091 62.0165 1079.17 543.959
1505 0 87.1012 13.4326 1170 61.2205 1079.26 543.372
1506 0 90.09 13.3089 1199 61.8857 1079.09 542.163
1507 0 92.1532 13.7054 1263 60.9628 1079.15 540.721
1508 0 96.1706 13.6528 1313 60.4928 1079.22 542.013
1509 0 100.189 14.0734 1410 59.744 1078.81 539.484
1510 0 100.221 13.8295 1386 61.1905 1078.64 537.758
1511 0 106.37 14.7034 1564 59.7992 1078.42 538.093
1512 1 58.2513 11.7251 683 60.7306 1078.5 560.974
1513 0 57.2056 11.2926 646 62.7585 1078.99 560.375
1514 0 60.1342 13.3036 800 60.5112 1079.4 558.066
1515 0 64.1121 12.5561 805 61.7975 1079.61 555.882
1516 0 64.11 13.6016 872 61.0218 1080 556.243
1517 0 66.1311 14.0025 926 60.4546 1080.31 555.7
1518 0 69.1959 13.9026 962 60.4771 1080.35 553.274
1519 0 70.1822 13.0945 919 62.0686 1080.58 554.125
1520 0 71.1675 13.8406 985 61.5827 1080.18 552.984
1521 0 74.308 13.4979 1003 62.6281 1080.62 550.361
1522 0 76.0881 13.5764 1033 63.0213 1080.71 549.716
1523 0 77.0795 13.6353 1051 63.0466 1080.94 547.813
1524 0 82.2253 13.5481 1114 62.7558 1081.32 545.488
1525 0 83.2587 13.6442 1136 63.2412 1081.79 544.29
1526 0 86.2035 14.1758 1222 62.635 1082.14 544.57
1527 0 90.1708 13.7739 1242 62.1804 1081.48 544.149
1528 0 91.2773 13.9136 1270 62.6976 1081.88 541.86
1529 0 92.2735 13.9043 1283 63.067 1081.97 541.539
1530 0 95.3833 13.7655 1313 63.4143 1082.56 540.145
1531 0 99.3497 14.5043 1441 62.272 1082.52 538.963
1532 0 101.37 13.5544 1374 65.3144 1082.49 536.283
1533 0 105.493 14.4655 1526 63.7267 1083.04 535.406
1534 0 109.344 13.9194 1522 63.9855 1082.96 533.844
1535 0 114.526 14.9224 1709 61.9081 1082.52 532.049
1536 0 115.585 14.8029 1711 62.9942 1082.75 529.658
1537 0 120.416 15.2056 1831 62.2392 1082.84 527.525
1538 1 69.5118 11.3074 786 65.8626 1082.6 553.249
1539 0 70.3855 12.5594 884 64.7217 1082.72 551.038
1540 0 75.2512 13.8071 1039 62.1396 1081.76 550.988
1541 0 78.4703 13.4573 1056 62.6828 1081.87 546.983
1542 0 79.4559 12.9128 1026 63.5 1081.78 546.364
1543 0 82.3364 14.1736 1167 61.874 1081.95 546.215
1544 0 86.3577 14.0346 1212 61.7376 1081.93 544.332
1545 0 88.4028 13.7892 1219 62.7441 1081.83 541.406
1546 0 90.3741 13.4994 1220 63.0041 1081.93 540.338
1547 0 95.355 14.3779 1371 60.9497 1081.65 536.895
1548 0 96.7655 14.2716 1381 61.6452 1081.93 536.707
1549 0 100.444 13.5996 1366 62.683 1081.59 536.031
1550 0 103.535 14.7293 1525 60.9482 1081.76 536.42
1551 0 108.322 14.6508 1587 61.3554 1081.32 533.451
1552 0 110.377 13.762 1519 62.865 1080.84 532.816
1553 0 114.573 14.9425 1712 61.1215 1080.54 530.369
1554 0 117.397 14.8982 1749 61.4048 1080.24 527.716
1555 0 121.432 14.329 1740 62.4287 1080.68 526.542
1556 0 123.471 14.2624 1761 63.0006 1080.59 523.777
1557 0 127.29 14.5573 1853 62.4339 1080.16 524.033
1558 0 129.509 13.7596 1782 63.9136 1080.05 521.061
1559 1 72.1981 11.2191 810 64.0432 1080.48 552.225
1560 0 74.2592 12.2274 908 63.1024 1080.98 550.29
1561 0 76.2279 13.0792 997 63.1956 1080.59 548.507
1562 0 78.1543 12.9104 1009 64.2111 1080.48 545.744
1563 0 81.3462 13.6577 1111 63.1386 1079.17 543.479
1564 0 83.2646 13.295 1107 64.0849 1078.75 542.771
1565 0 89.2265 14.1438 1262 62.0436 1078.47 540.478
1566 0 92.3271 14.1345 1305 61.7686 1078.26 540.28
1567 0 94.3041 14.2518 1344 62.3973 1078.18 537.589
1568 0 97.2945 14.3276 1394 61.9103 1078 537.262
1569 0 100.378 14.6247 1468 61.7916 1078.4 533.614
1570 0 103.51 14.3367 1484 62.3875 1078.76 531.932
1571 0 106.517 14.0634 1498 62.0187 1078 532.732
1572 0 110.464 15.5073 1713 59.8914 1077.78 530.518
1573 0 110.44 14.2159 1570 62.1567 1077.58 528.883
1574 0 115.341 14.4094 1662 61.8694 1077.87 526.96
1575 0 117.297 13.9646 1638 62.3596 1078.09 523.927
1576 0 121.161 15.0131 1819 60.9923 1078.73 524.257
1577 0 123.159 14.7696 1819 61.5531 1078.92 521.526
1578 0 129.454 14.1827 1836 62.1558 1079.25 517.583
1579 0 133.207 15.0518 2005 61.0504 1079.25 516.73
1580 0 136.304 14.2623 1944 62.5967 1078.32 515.957
1581 1 75.1143 10.7969 811 63.5031 1078.4 547.334
1582 0 77.1796 11.5445 891 62.7464 1077.9 547.322
1583 0 82.2348 12.6346 1039 61.3744 1077.84 545.147
1584 0 84.2075 12.873 1084 61.6725 1077.67 542.357
1585 0 88.2116 13.2862 1172 60.7304 1077.04 541.565
1586 0 90.4689 13.5737 1228 61.1759 1077.14 538.772
1587 0 93.3268 13.4581 1256 61.0541 1077.28 538.374
1588 0 94.2815 12.9824 1224 61.906 1077.42 537.388
1589 0 101.302 14.3728 1456 59.3558 1077.42 536.714
1590 0 101.296 12.9916 1316 61.4369 1077.29 535.331
1591 0 106.289 12.8706 1368 61.1425 1076.67 533.386
1592 0 107.24 12.3835 1328 61.9172 1076.39 529.794
1593 0 111.344 13.6963 1525 60.1613 1076.53 530.03
1594 0 114.264 12.5061 1429 61.1176 1076.13 528.733
1595 0 119.346 13.9426 1664 58.7626 1076.26 526.425
1596 0 122.405 12.8998 1579 60.0336 1075.74 521.605
1597 0 126.269 13.5662 1713 58.9918 1075.91 520.031
1598 0 129.271 13.1738 1703 59.4686 1076.49 519.412
1599 0 136.331 13.9807 1906 58.0058 1077.08 518.608
1600 0 136.331 13.9807 1906 161.438 1078.08 518.608
1601 0 142.322 13.0479 1857 59.3646 1076.84 514.082
1602 0 148.388 13.8151 2050 58.6371 1077.41 512.224
1603 0 153.518 13.7052 2104 58.74 1077.35 507.092
1604 0 159.439 13.9427 2223 58.1907 1077.86 506.658
1605 0 164.315 14.1984 2333 58.3296 1078.14 505.366
1606 0 170.285 13.9648 2378 58.7763 1077.78 499.214
1607 0 175.612 14.3384 2518 58.2478 1078.27 500.641
1608 0 179.414 13.9677 2506 59.5184 1078.69 494.472
1609 0 186.531 14.834 2767 58.5699 1079.08 492.547
1610 0 193.511 14.6762 2840 58.8035 1079.27 489.237
1611 0 200.688 14.7144 2953 58.9682 1079.67 484.953
1612 0 207.75 15.2587 3170 58.6252 1079.95 483.375
1613 0 213.759 15.3163 3274 58.1854 1080.48 480.256
1614 0 219.626 14.6749 3223 58.7353 1080.65 476.482
1615 0 224.495 14.9848 3364 58.9084 1080.4 474.076
1616 0 232.538 15.8383 3683 57.7502 1080.62 471.811
1617 0 240.786 14.5357 3500 60.3717 1080.72 462.756
1618 0 250.744 15.115 3790 59.0549 1081.23 463.469
1619 0 257.572 15.1026 3890 59.5044 1081.42 458.165
1620 0 261.663 15.5505 4069 59.2278 1081.81 450.898
1621 0 270.619 15.2613 4130 60.0061 1081.85 450.498
1622 0 280.756 16.0068 4494 59.053 1081.96 446.085
1623 0 288.654 16.6047 4793 58.5214 1082.05 437.131
1624 0 297.543 15.5809 4636 60.0673 1081.98 434.927
1625 0 306.785 16.1155 4944 59.4025 1081.92 429.515
1626 0 314.534 15.6422 4920 60.1207 1082.13 427.434