time division length width area intensity CMx CMy
0 0 47.1768 12.5697 593 75.8904 1145.68 576.105
1 0 48.0897 13.2669 638 76.3746 1145.52 574.616
2 0 51.1704 13.5821 695 76.0892 1146 574.295
3 0 51.2274 13.5669 695 77.7755 1146.01 572.647
4 0 54.1341 13.485 730 76.6466 1146.13 571.855
5 0 56.0972 13.5479 760 76.65 1146.07 571.649
6 0 56.1052 13.3143 747 77.5877 1146.06 570.281
7 0 61.2664 14.3961 882 74.4887 1146.06 568.68
8 0 62.0972 13.6238 846 76.9894 1146.43 568.843
9 0 63.2348 14.0903 891 78.0629 1146.38 567.171
10 0 66.1189 13.6572 903 79.5138 1146.9 566.401
11 0 69.111 13.9631 965 78.9192 1146.97 566.253
12 0 71.1592 13.6736 973 80.1716 1146.62 563.83
13 1 35.0453 11.3853 399 80.9048 1146.06 581.078
14 0 35.0641 11.7499 412 82.4223 1145.83 579.291
15 0 37.0469 12.0928 448 79.6562 1146.43 580.261
16 0 40.0187 12.5691 503 78.833 1146.7 579.386
17 0 40.0222 12.568 503 80.159 1146.12 577.316
18 0 41.1869 12.6011 519 79.4605 1147.17 577.501
19 0 43.1351 13.0288 562 78.5747 1146.99 576.415
20 0 44.2108 13.0737 578 79.1142 1147.41 576.531
21 0 45.1955 13.3199 602 78.9585 1147.34 574.646
22 0 47.2048 12.7953 604 78.7003 1147.37 574.566
23 0 50.3138 13.0382 656 77.5061 1147.77 574.213
24 0 48.4505 12.8379 622 79.9228 1147.43 573.121
25 0 53.1602 13.6568 726 76.8471 1147.79 572.871
26 0 52.236 13.4199 701 78.3367 1147.81 571.308
27 0 55.2124 13.7288 758 77.8747 1148.28 569.595
28 0 56.2334 14.0308 789 77.1065 1147.74 569.422
29 0 59.3408 13.5826 806 77.8102 1147.93 567.809
30 0 61.1951 13.5632 830 78.2892 1148.07 566.549
31 0 65.2267 13.5221 882 77.5215 1148.29 566.227
32 0 68.0688 14.0887 959 76.6955 1148.45 564.387
33 0 67.151 13.6856 919 78.7497 1148.61 563.037
34 0 71.0633 13.5091 960 78.3563 1148.6 562.698
35 0 72.0666 13.432 968 79.376 1148.63 561.037
36 0 78.0965 13.9571 1090 76.9174 1148.75 559
37 1 40.0236 11.5182 461 79.4425 1148.23 577.067
38 0 41.0606 11.1543 458 80.9869 1148.47 575.736
39 0 42.0807 12.7612 537 78.5661 1148.36 575.35
40 0 46.1255 11.924 550 78.9945 1148.53 574.382
41 0 46.0648 13.112 604 78.0927 1149 571.864
42 0 47.0988 12.5481 591 78.6954 1148.85 572.453
43 0 49.0461 13.1917 647 77.1113 1148.45 571.76
44 0 52.0814 13.7285 715 75.2126 1148.75 571.309
45 0 52.0662 13.2716 691 75.7815 1149.6 570.632
46 0 55.0121 12.8699 708 76.0904 1149.2 569.189
47 0 56.1814 13.1538 739 75.4357 1149.15 568.118
48 0 58.1362 13.4512 782 74.2545 1149.01 567.444
49 0 59.1048 13.2138 781 74.7401 1148.96 567.079
50 0 60.0667 13.5849 816 74.299 1148.29 565.515
51 0 65.135 13.8175 900 72.4711 1148.72 564.769
52 0 66.1389 13.26 877 72.9361 1148.73 563.219
53 0 67.1674 13.8311 929 72.676 1148.25 561.406
54 0 70.2618 14.6025 1026 63.2086 1147.71 559.177
55 0 72.1819 13.7153 990 65.5939 1147.94 557.932
56 0 75.1516 14.0649 1057 65.6093 1148.3 556.515
57 0 75.1516 13.9984 1052 154.779 1149.3 556.471
58 0 80.3062 14.7187 1182 64.0998 1148.61 552.329
59 0 83.2348 14.0927 1173 65.3734 1148.47 552.692
60 0 85.2229 14.1746 1208 65.7392 1148.71 551.315
61 0 89.1793 14.297 1275 66.1992 1148.79 548.784
62 0 91.2964 14.1846 1295 67.2093 1148.87 546.125
63 1 47.3767 12.2423 580 68.0845 1148.08 570.903
64 0 47.2747 11.4438 541 70.0943 1148.3 569.558
65 0 50.2954 11.8898 598 69.2592 1148.72 568.706
66 0 53.104 12.7862 679 68.6244 1148.66 566.757
67 0 55.192 13.4259 741 68.0135 1149.08 565.757
68 0 55.192 13.4259 741 171.821 1150.08 565.757
69 0 59.2613 13.7695 816 67.3554 1149.58 563.864
70 0 59.2835 13.8318 820 68.111 1149.78 563.941
71 0 62.2518 13.8149 860 68.0291 1150.14 562.702
72 0 65.3253 14.0987 921 67.3702 1150.29 560.541
73 0 66.2494 14.5662 965 67.0881 1150.32 559.683
74 0 69.2381 13.923 964 68.5166 1150.36 558.443
75 0 72.1848 14.546 1050 67.3086 1150.93 556.933
76 0 75.2069 13.8817 1044 68.2126 1150.99 554.939
77 0 77.0984 13.8005 1064 68.6316 1151.22 554.09
78 0 79.0554 13.1427 1039 69.9528 1150.96 552.179
79 0 82.1722 14.3601 1180 68.5263 1151.56 550.204
80 0 86.1095 14.5164 1250 67.7272 1151.56 549.801
81 0 89.1402 14.5726 1299 67.8337 1151.9 546.681
82 0 89.1468 14.0779 1255 69.2845 1152.17 546.712
83 0 95.0709 14.5155 1380 68.1848 1152.72 544.007
84 0 97.1303 14.4342 1402 68.7746 1152.9 543.273
85 0 101.079 14.9587 1512 67.5933 1153.21 540.947
86 1 52.1014 11.5928 604 69.3195 1153.27 565.182
87 0 52.0952 11.4214 595 70.4487 1153.34 563.318
88 0 54.0556 12.1541 657 68.7793 1153.56 563.079
89 0 57.0355 11.2737 643 69.1882 1153.58 560.838
90 0 61.0674 12.4944 763 66.6946 1153.49 559.962
91 0 60.0558 13.2543 796 68.9296 1153.75 558.607
92 0 62.1054 13.0745 812 70.0456 1153.86 558.326
93 0 63.0939 13.5671 856 69.6846 1153.83 554.759
94 0 67.0618 13.1521 882 67.5884 1154.01 556.49
95 0 70.1062 13.3797 938 66.4488 1154.18 553.334
96 0 72.127 12.5473 905 67.0287 1154.35 552.767
97 0 75.0687 12.7483 957 91.3354 1154.27 552.294
98 0 77.1692 13.4898 1041 65.6561 1154.15 548.946
99 0 81.0675 12.6561 1026 65.9727 1153.98 549.69
100 0 82.0901 13.2781 1090 67.1642 1154.37 547.228
101 1 43.032 11.9446 514 65.8191 1154.51 564.514
102 0 43.0254 10.18 438 67.4635 1154.71 564.575
103 0 45.1311 10.4141 470 69.6511 1154.96 562.713
104 0 49.1182 11.1771 549 69.2495 1154.93 561.197
105 0 49.1074 12.0552 592 68.3429 1155.22 562.015
106 0 51.0401 11.8142 603 69.9171 1155.55 559.836
107 0 51.0979 13.1512 672 68.9777 1155.51 559.24
108 0 55.0802 13.7255 756 66.713 1155.09 558.824
109 0 56.0465 13.5602 760 66.5053 1155.47 556.104
110 0 58.1894 13.078 761 66.9159 1155.53 556.675
111 0 59.0877 12.4391 735 69.2612 1154.87 554.624
112 0 60.2413 12.8981 777 68.9562 1154.91 554.336
113 0 63.1083 13.6274 860 67.5 1154.88 552.97
114 0 63.148 13.793 871 67.6602 1155.2 552.879
115 0 66.1577 12.7272 842 70.0784 1155 549.266
116 0 70.0794 13.1993 925 69.0411 1154.97 550.341
117 0 70.088 12.7269 892 71.0818 1154.87 548.672
118 0 74.1215 13.5183 1002 70.016 1154.61 549.078
119 0 77.0618 13.5346 1043 70.092 1154.37 547.865
120 0 82.1512 13.609 1118 69.6825 1154.35 546.728
121 0 81.1993 13.707 1113 70.1132 1154.43 545.518
122 0 87.0712 13.8507 1206 68.9585 1154.58 543.428
123 0 89.1919 13.8017 1231 69.7238 1155.01 540.725
124 0 91.16 13.3392 1216 70.2393 1154.53 541.944
125 0 93.1809 12.9426 1206 71.0614 1154.65 538.107
126 1 49.0732 10.5353 517 68.087 1154.32 562.567
127 0 47.0348 9.46109 445 70.9281 1153.92 561.36
128 0 51.0924 10.8431 554 69.4242 1153.97 560.44
129 0 52.2167 11.3182 591 70.2234 1154.29 560.658
130 0 54.1679 12.1843 660 68.597 1154.16 559.148
131 0 55.1738 12.5059 690 67.8304 1153.87 558.562
132 0 57.1917 11.6975 669 69.858 1153.23 559.55
133 0 61.1735 12.6689 775 67.1716 1153.02 558.578
134 0 63.1856 12.8985 815 66.9902 1153 556.253
135 0 64.2116 12.3965 796 68.8015 1153.02 554.27
136 0 66.0717 13.3037 879 68.1047 1152.42 552.92
137 0 67.0858 12.1486 815 71.2687 1152.33 550.025
138 0 71.0198 13.0527 927 69.343 1152.67 551.638
139 0 74.0995 13.6708 1013 68.6614 1152.39 549.68
140 0 76.1158 13.6897 1042 69.0211 1152.26 547.959
141 0 79.1123 12.6908 1004 70.7171 1151.99 547.648
142 0 80.0816 12.0752 967 72.1148 1152.27 547.632
143 0 85.2151 13.859 1181 68.9534 1152.1 546.495
144 1 40.017 9.29605 372 73.4301 1151.54 567.831
145 0 44.0923 10.4327 460 71.8978 1152.36 566.383
146 0 45.1532 10.6083 479 73 1151.88 564.741
147 0 47.1377 11.0739 522 71.7989 1152.38 564.128
148 0 49.2374 11.3735 560 71.3893 1152.3 563.768
149 0 48.243 11.2141 541 71.4473 1152.46 562.266
150 0 49.0842 11.2867 554 71.583 1152.62 561.014
151 0 51.1757 12.6036 645 71.3209 1152.88 561.947
152 0 52.1498 12.3874 646 72.065 1153 560.238
153 0 55.1503 12.6201 696 71.1149 1152.75 560.899
154 0 54.2197 12.2465 664 73.5437 1153.34 559.389
155 0 58.2807 13.4521 784 70.213 1153.57 559.941
156 0 59.2522 12.3033 729 72.4156 1153.85 558.746
157 0 63.287 11.5031 728 72.5618 1153.9 558.166
158 0 64.2091 12.8954 828 70.907 1153.83 556.37
159 0 68.2651 13.345 911 69.6641 1153.82 554.269
160 0 69.2701 13.5556 939 70.5559 1153.6 554.529
161 0 70.1931 13.3916 940 71.7904 1153.58 553.288
162 0 72.2351 13.1515 950 72.3958 1153.67 551.488
163 0 76.1723 13.3251 1015 71.2099 1153.29 549.718
164 0 78.1829 12.9696 1014 72.4132 1153.29 548.486
165 0 80.1528 12.9004 1034 71.9729 1153.72 547.424
166 1 39.1164 9.81686 384 73.7474 1152.34 566.01
167 0 39.0211 9.14889 357 73.4706 1152.97 564.742
168 0 41.0376 11.4285 469 69.0149 1153.76 564.74
169 0 41.0627 10.5692 434 71.8664 1153.55 564.002
170 0 43.0732 11.4224 492 70.6585 1153.82 560.561
171 0 45.0407 12.1668 548 70.2628 1154.16 563.619
172 0 45.0904 11.8429 534 71.1648 1153.89 562.691
173 0 47.0186 12.1229 570 70.7105 1154.18 561.186
174 0 49.0349 12.5829 617 70.1297 1154.12 560.958
175 0 47.0359 12.246 576 71.408 1154.48 560.788
176 0 50.0344 12.5314 627 70.4083 1154.76 558.707
177 0 52.0928 13.5143 704 68.2969 1155.74 557.401
178 0 54.2412 13.0159 706 69.0411 1156 557.288
179 0 54.1572 13.1654 713 69.1795 1155.64 557.212
180 0 57.154 13.6998 783 68.0128 1155.89 556.72
181 0 57.079 12.8068 731 70.4679 1155.98 554.685
182 0 59.0856 13.4889 797 69.0339 1155.96 554.262
183 0 59.0369 13.3306 787 70.1588 1155.68 552.235
184 0 62.0793 13.9016 863 68.4484 1156.48 553.194
185 0 62.1152 13.5555 842 70.677 1156.25 551.281
186 0 65.0415 13.5452 881 69.9262 1156.81 550.149
187 0 67.0565 13.6303 914 69.372 1156.8 548.218
188 0 66.1519 12.4864 826 71.6889 1157 545.763
189 0 72.1306 13.531 976 69.2387 1156.93 545.358
190 0 73.224 13.0968 959 70.4724 1157.15 544.123
191 0 78.1304 13.6694 1068 69.0197 1157.16 542.961
192 1 42.038 12.2508 515 69.833 1157.55 561.74
193 0 42.0392 11.9175 501 68.5369 1157.63 561.912
194 0 44.0734 11.9119 525 68.0229 1157.71 559.556
195 0 46.2456 13.1472 608 65.074 1158.36 558.013
196 0 46.2456 13.1472 608 158.265 1158.36 558.013
197 0 49.0816 12.4079 609 65.9064 1157.88 557.056
198 0 49.1248 12.5802 618 67.4676 1157.98 557.437
199 0 52.1774 14.0291 732 65.8128 1157.71 555.126
200 0 52.4362 12.8728 675 68.4385 1158 554.753
201 0 54.2763 13.0628 709 68.2144 1158.16 553.876
202 0 57.3244 13.38 767 67.1917 1157.96 554.003
203 0 57.1961 13.952 798 66.9712 1157.78 552.39
204 0 60.2271 13.2831 800 67.9988 1157.76 551.495
205 0 62.2645 14.1814 883 66.3975 1157.97 551.327
206 0 64.0865 14.1839 909 67.4048 1158.01 549.774
207 0 65.3786 13.3377 872 68.8567 1158.05 549.273
208 0 68.1533 14.2766 973 67.9065 1158.35 547.403
209 0 70.1151 13.92 976 68.8699 1158.09 545.557
210 0 72.3786 13.8024 999 69.7037 1158.07 545.077
211 0 75.3713 14.13 1065 68.9746 1157.97 543.503
212 0 75.1487 12.7614 959 72.2304 1157.54 543.8
213 0 80.533 13.659 1100 70.5355 1157.67 543.494
214 0 82.224 13.6578 1123 70.9083 1157.66 541.045
215 1 43.1555 11.5165 497 71.4105 1157.33 560.441
216 0 42.1378 11.32 477 72.7778 1157.15 560.218
217 0 45.0551 12.1407 547 71.7148 1156.65 559.344
218 0 46.0322 12.1219 558 71.2509 1156.32 560.832
219 0 50.0312 13.9113 696 67.7902 1156.26 558.364
220 0 49.0506 13.0885 642 70.9128 1155.26 559.304
221 0 49.0875 12.0397 591 73.1337 1155.21 558.599
222 0 53.071 14.0943 748 68.9439 1155.1 557.525
223 0 53.1643 13.2232 703 70.5832 1155 557.09
224 0 56.0721 13.8572 777 69.1184 1155.26 556.296
225 0 57.0928 13.6445 779 69.6046 1155.07 554.255
226 0 58.076 13.6545 793 70.0757 1154.8 553.554
227 0 58.076 13.6373 792 163.561 1153.83 553.489
228 0 61.052 13.3657 816 70.6814 1154.39 552.743
229 0 63.147 14.0149 885 69.9695 1154.78 551.167
230 0 66.0677 14.0916 931 68.9044 1154.77 551.892
231 0 69.1395 14.0296 970 68.6392 1154.68 551.779
232 0 68.1035 14.1843 966 70.7443 1154.41 548.627
233 0 72.1042 13.6746 986 71.285 1154.63 548.79
234 0 75.1105 13.58 1020 70.7275 1154.39 548.959
235 0 78.0745 14.832 1158 69.1054 1154.54 546.288
236 0 80.0956 14.1081 1130 70.6796 1154.62 544.619
237 0 82.1234 13.5284 1111 72.0396 1154.36 543.389
238 0 86.1359 14.2565 1228 71.3363 1154.29 542.242
239 0 89.1767 14.0956 1257 71.5879 1154.38 540.177
240 1 48.0646 11.0892 533 69.6473 1153.79 563.306
241 0 48.074 11.1079 534 71.7584 1153.33 560.386
242 0 52.1944 12.1277 633 69.5197 1153.17 559.035
243 0 53.0795 12.7356 676 68.3787 1153.01 560.061
244 0 55.1662 12.5802 694 68.8833 1153.35 559.592
245 0 54.152 12.0217 651 71.298 1153.4 559.389
246 0 56.0743 11.5918 650 71.1923 1153.08 559.608
247 0 60.1778 12.7622 768 69.4492 1153.26 555.935
248 0 62.1506 12.872 800 69.495 1153.46 555.754
249 0 64.1517 12.034 772 70.6399 1153.45 555.177
250 0 66.1894 12.706 841 69.3413 1153.43 555.413
251 0 69.1212 13.0351 901 69.5117 1153.51 553.151
252 0 70.0653 12.6882 889 70.0787 1153.53 551.654
253 0 72.2339 12.7226 919 70.6931 1153.72 550.581
254 0 76.1032 13.3766 1018 69.5255 1153.8 550.294
255 0 78.2332 13.153 1029 69.8192 1154.2 549.404
256 0 80.1555 12.4882 1001 71.022 1154.02 547.484
257 0 83.2777 12.1521 1012 72.2945 1153.86 544.757
258 0 85.2905 13.0144 1110 71.7568 1154.14 543.555
259 1 47.1494 10.4561 493 70.57 1154.04 566.919
260 0 48.2592 11.1896 540 69.7741 1153.43 565.407
261 0 50.1837 10.7007 537 71.2886 1153.45 564.51
262 0 52.1627 11.6367 607 70.6112 1153.1 562.45
263 0 51.1075 11.5639 591 71.3503 1152.29 563.279
264 0 54.2264 10.9909 596 71.4698 1152.07 561.93
265 0 57.1238 12.1315 693 69.6364 1152.08 560.605
266 0 58.1503 11.7798 685 71.3314 1152.14 561.073
267 0 59.2039 11.2662 667 72.94 1152.23 559.895
268 0 59.2103 11.6534 690 72.8362 1152.61 558.593
269 0 62.193 11.4 709 73.103 1152.86 557.233
270 0 65.2472 12.2611 800 71.935 1153.38 555.776
271 0 67.2922 12.364 832 71.7608 1153.57 554.981
272 0 68.3165 12.164 831 72.3538 1153.43 555.449
273 0 69.2713 11.3611 787 74.7243 1153.53 552.236
274 0 74.2587 12.2141 907 72.839 1153.64 552.01
275 0 75.2812 12.6326 951 72.6982 1154.13 549.707
276 0 79.3491 12.8168 1017 72.6047 1154.25 548.112
277 1 44.3121 9.86187 437 74.2426 1154.12 566.808
278 0 44.1451 9.83122 434 73.8065 1154.32 567.203
279 0 46.0803 11.5885 534 71.7584 1154.24 565.464
280 0 48.1042 11.4959 553 72.4286 1154.8 563.461
281 0 48.0714 11.5037 553 72.5298 1154.81 563.707
282 0 50.0369 11.1318 557 71.9013 1154.6 561.587
283 0 51.0395 11.834 604 69.6374 1154.18 562.099
284 0 54.0363 11.8254 639 69.2613 1154.18 561.754
285 0 56.0637 11.6296 652 68.8037 1154.19 560.824
286 0 55.1303 11.3549 626 70.2332 1154.84 559.613
287 0 59.0812 12.8129 757 67.037 1154.51 559.573
288 0 60.1176 11.5274 693 69.5051 1154.72 557.423
289 0 62.1362 12.5853 782 67.7468 1155.05 555.196
290 0 63.178 11.5705 731 69.42 1155.61 553.602
291 0 66.053 12.1266 801 69.1298 1155.65 553.65
292 0 68.1719 11.9697 816 69.3934 1156.43 551.685
293 0 68.1719 11.9991 818 165.289 1157.43 551.587
294 0 71.2796 12.7666 910 67.9044 1156.94 548.943
295 0 74.2152 13.3935 994 66.7907 1157.03 548.282
296 0 77.221 12.3801 956 68.069 1157.14 546.633
297 1 41.1016 10.0726 414 68.413 1156.28 563.884
298 0 43.1256 10.597 457 68.1225 1156.29 562.354
299 0 45.0595 10.1643 458 68.0939 1156.91 562.354
300 0 46.1467 11.2251 518 67.3919 1157.28 561.319
301 0 47.1202 11.2903 532 66.735 1157.2 562.639
302 0 49.0694 12.2683 602 66.1545 1157.37 560.633
303 0 49.1098 12.5026 614 65.8111 1157.99 559.264
304 0 51.1396 12.1628 622 65.8923 1157.54 558.13
305 0 52.0662 11.7735 613 66.7847 1158 556.705
306 0 55.093 13.4681 742 63.4043 1158.06 554.453
307 0 56.1299 12.2751 689 65.0755 1158.01 555.697
308 0 56.1195 12.0457 676 66.1967 1158.19 555.291
309 0 58.1249 12.6624 736 65.7745 1158.35 553.333
310 0 61.1432 13.0677 799 64.4018 1158.32 553.048
311 0 59.0764 12.8986 762 66.5223 1157.78 552.545
312 0 59.0764 12.9155 763 162.189 1157.77 552.578
313 0 64.151 12.6888 814 66.414 1157.88 551.451
314 0 66.1056 14.0986 932 64.5697 1157.88 551.151
315 0 68.2171 13.4717 919 65.6703 1157.65 550.502
316 0 68.2171 13.457 918 165.02 1156.64 550.495
317 0 73.1345 15.1092 1105 63.6896 1157.55 547.798
318 0 75.1922 13.6716 1028 65.8833 1157.82 546.413
319 0 75.0865 13.8507 1040 66.9558 1157.84 545.626
320 0 75.0832 13.4251 1008 68.8383 1157.69 544.53
321 0 80.0472 13.9043 1113 67.2489 1157.83 544.158
322 0 83.176 14.0906 1172 66.8891 1157.67 542.717
323 0 85.3484 14.0717 1201 67.5154 1157.82 541.47
324 1 44.308 11.5103 510 68.8098 1157.25 560.853
325 0 45.2591 11.2906 511 69.9119 1156.88 560.456
326 0 48.2625 11.6239 561 68.959 1156.9 559.529
327 0 49.2074 11.0756 545 70.0477 1157.23 559.319
328 0 51.2516 11.5509 592 70.1943 1157.14 557.389
329 0 53.2781 12.4254 662 69.7568 1156.96 556.921
330 0 55.1945 13.1354 725 68.0441 1156.41 556.548
331 0 57.1221 14.1451 808 66.4975 1155.79 555.588
332 0 60.146 13.9161 837 66.7384 1156.46 555.393
333 0 59.1249 12.5328 741 69.9892 1156.21 554.76
334 0 62.2599 13.7649 857 68.175 1155.91 552.979
335 0 65.2167 12.6195 823 69.6197 1155.91 554.426
336 0 64.2072 12.3195 791 70.7598 1155.58 551.407
337 0 68.1957 13.2853 906 68.5773 1155.36 549.509
338 0 72.2071 13.5582 979 66.8069 1155.3 551.448
339 0 71.3017 13.1974 941 69.0021 1155.01 546.305
340 0 75.3794 13.6509 1029 67.7862 1155.03 547.752
341 0 77.1533 13.4667 1039 68.6372 1154.84 545.411
342 0 78.4487 13.1551 1032 69.0591 1155 544.111
343 0 83.1933 13.4626 1120 68.0036 1154.84 543.729
344 0 86.2211 13.7669 1187 67.8197 1154.57 541.671
345 1 42.0754 9.8157 413 70.7361 1154.35 562.845
346 0 44.1504 11.5288 509 69.0648 1154.73 560.367
347 0 46.155 11.613 536 68.1101 1153.98 561.996
348 0 48.0567 12.2564 589 67.0662 1153.8 561.53
349 0 48.174 12.7247 613 68.907 1154.75 560.104
350 0 49.2399 13.3428 657 68.3668 1155.63 560.551
351 0 52.1682 12.3639 645 69.1891 1155.38 558.76
352 0 54.2024 12.8408 696 68.6422 1155.46 558.125
353 0 55.1891 13.4628 743 68.0296 1155.08 558.571
354 0 56.2134 13.1819 741 69.135 1155.49 557.233
355 0 59.2122 13.2067 782 68.5192 1155.37 557.354
356 0 58.1596 12.5001 727 70.7868 1154.58 557.103
357 0 60.1291 13.1218 789 70.1052 1153.94 555.831
358 0 62.2097 12.9079 803 70.6364 1153.35 555.644
359 0 64.1787 13.6182 874 69.6579 1153.64 554.895
360 0 68.1394 13.6338 929 69.1959 1153.94 554.441
361 0 70.1915 13.6911 961 69.3007 1153.89 551.924
362 0 72.2969 13.5137 977 70.4033 1153.76 549.803
363 0 73.1943 14.6186 1070 68.6607 1153.82 549.951
364 0 75.1508 13.9453 1048 70.7576 1154.02 547.529
365 0 79.1269 13.8764 1098 70.3179 1153.91 547.035
366 0 81.171 13.835 1123 70.9849 1154.56 546.149
367 0 82.1198 14.077 1156 71.0242 1154.5 544.514
368 0 86.1013 13.8558 1193 71.5817 1154.41 543.047
369 0 87.1485 13.6549 1190 72.0387 1155.06 543.694
370 0 91.1056 15.1034 1376 69.4637 1155.59 541.209
371 0 93.0988 14.3718 1338 70.9851 1155.26 539.999
372 0 97.0946 14.5837 1416 70.8743 1155.54 536.928
373 0 99.1915 14.5779 1446 70.8098 1155.46 536.786
374 0 102.28 13.6097 1392 73.0582 1155.3 532.186
375 0 108.175 14.9388 1616 69.8323 1154.89 532.335
376 0 111.142 13.5683 1508 70.7434 1154.75 530.817
377 1 63.1607 11.6528 736 70.0666 1154.1 554.745
378 0 65.159 12.3083 802 68.9514 1154.76 554
379 0 67.1053 13.0392 875 67.6571 1154.78 552.053
380 0 68.2035 11.7296 800 69.6188 1154.79 551.066
381 0 70.2449 12.1717 855 69.3942 1155.49 551.298
382 0 76.1364 13.0818 996 66.5201 1155.39 551.06
383 0 77.1727 12.5563 969 68.6429 1155.43 547.372
384 0 78.1945 12.5968 985 68.9736 1155.87 546.008
385 0 80.1779 12.0981 970 70.0918 1155.91 545.434
386 0 83.2615 12.8991 1074 68.4814 1156.45 544.236
387 0 87.2893 12.3841 1081 69.2868 1156.88 542.152
388 0 92.2043 13.3833 1234 67.3428 1157.11 539.382
389 1 49.0657 10.6999 525 67.5676 1156.31 560.72
390 0 50.1322 11.2901 566 66.0318 1156.13 559.599
391 0 53.0882 11.0382 586 66.5034 1156.37 559.241
392 0 54.1393 11.8398 641 66.2574 1156.23 557.842
393 0 56.1449 11.2566 632 66.1234 1156.32 557.873
394 0 60.1939 11.8949 716 66.1159 1157.28 555.825
395 0 59.2338 12.189 722 66.4792 1157.31 552.788
396 0 61.2638 12.5849 771 65.5733 1158.23 553.219
397 0 64.1868 12.7752 820 64.4317 1157.89 551.388
398 0 66.3364 12.5572 833 64.2329 1158.49 552.618
399 0 70.2243 12.4173 872 63.7706 1158 550.96
400 0 71.1279 12.7095 904 63.7434 1158.35 548.056
401 0 72.2009 11.7312 847 65.1511 1158.47 546.396
402 0 76.202 12.3356 940 64.3106 1158.62 545.094
403 0 79.3127 13.1631 1044 62.9569 1158.31 544.102
404 0 80.2617 11.6619 936 64.9861 1158.48 542.046
405 0 84.2961 11.5664 975 64.8482 1158.24 541.294
406 1 41.0549 10.5468 433 62.9492 1157.77 561.418
407 0 42.067 9.60372 404 64.4035 1157.62 562.28
408 0 43.1223 11.4326 493 61.8418 1157.74 561.951
409 0 45.1013 11.6848 527 61.8994 1157.59 560.328
410 0 46.0986 11.8442 546 61.5788 1158.37 560.877
411 0 47.1508 10.88 513 63.614 1157.81 559.575
412 0 49.1904 11.608 571 62.282 1158.03 557.287
413 0 51.2728 11.39 584 62.839 1157.72 556.88
414 0 50.2782 11.7745 592 63.1926 1157.61 557.233
415 0 51.1652 12.4499 637 63.4066 1157.46 556.215
416 0 56.1802 12.4777 701 62.6291 1157.65 554.481
417 0 57.1322 11.6572 666 63.6832 1157.81 554.86
418 0 57.2471 12.3849 709 63.6714 1157.65 554.319
419 0 57.2471 12.4199 711 143.127 1156.66 554.276
420 0 60.1278 13.1387 790 62.3519 1157.12 550.857
421 0 63.1562 12.7937 808 61.6547 1156.96 552.004
422 0 64.1275 12.6467 811 63.1443 1156.27 550.626
423 0 67.1326 11.8571 796 63.5276 1155.8 551.188
424 0 70.155 13.2136 927 61.685 1156.22 549.222
425 0 72.1581 13.1517 949 61.7966 1155.56 548.81
426 0 72.2428 13.0255 941 62.9777 1155.35 546.896
427 0 75.1997 13.1915 992 62.5413 1155.35 545.431
428 0 76.0774 11.2254 854 65.3431 1155.18 541.351
429 1 40.1093 9.57384 384 64.2891 1154.42 565.115
430 0 41.0292 10.1635 417 66.1511 1154.56 562.537
431 0 44.0921 11.7935 520 63.0731 1154.09 562.204
432 0 46.1976 11.8404 547 63.6691 1154.1 561.207
433 0 46.0346 11.8172 544 63.8033 1154.08 560.621
434 0 48.2081 12.1141 584 63.8801 1155.19 559.721
435 0 50.2116 12.288 617 63.5478 1155.01 559.843
436 0 50.141 11.9064 597 64.3132 1155.2 559.456
437 0 52.1682 13.2648 692 62.4566 1155.18 558.052
438 0 56.1162 13.3651 750 62.0093 1154.93 557.02
439 0 56.1958 12.7056 714 63.2815 1154.94 556.29
440 0 58.1598 13.3941 779 61.7779 1154.6 556.013
441 0 60.2124 13.004 783 62.0664 1154.76 556.421
442 0 62.1689 13.5116 840 61.3393 1154.49 554.579
443 0 64.2968 12.6911 816 62.4963 1154.57 554.656
444 0 66.0982 12.6327 835 62.9437 1155.12 554.024
445 0 69.199 13.6996 948 61.3935 1155.43 553.37
446 0 70.2759 13.0628 918 62.219 1154.25 553.118
447 0 71.1269 11.8942 846 63.6501 1154.61 550.254
448 0 73.205 12.5265 917 62.9433 1154.13 549.972
449 0 75.1952 12.3944 932 63.7446 1154.76 545.825
450 1 37.1777 10.9474 407 63.2162 1154.13 565.41
451 0 41.1443 11.2774 464 62.0474 1154.47 563.388
452 0 43.1356 11.6145 501 62.3852 1153.83 562.337
453 0 41.1842 10.9751 452 63.5774 1153.04 562.613
454 0 44.1076 12.3108 543 61.6501 1153.03 561.238
455 0 46.0922 11.9977 553 62.0289 1153.57 560.201
456 0 50.0921 12.7765 640 59.7234 1153.7 561.194
457 0 49.2117 12.2532 603 61.1343 1153.81 561.046
458 0 51.1596 13.1354 672 59.8095 1153.8 559.39
459 0 54.1295 13.7818 746 58.6676 1154.06 558.158
460 0 54.0613 11.8014 638 61.8558 1154.47 557.157
461 0 58.0578 12.522 727 59.7414 1154.07 557.785
462 0 56.0845 12.606 707 61.1273 1154.32 555.44
463 0 60.1578 13.9633 840 58.0583 1153.74 556.005
464 0 60.0591 13.0205 782 59.5639 1153.99 553.161
465 0 62.0314 13.4771 836 59.3732 1154.08 552.103
466 0 65.1063 12.5487 817 60.1395 1153.83 552.953
467 0 66.0441 13.4153 886 59.4819 1153.71 550.244
468 0 71.1519 13.7031 975 58.1949 1153.36 550.541
469 0 72.1844 14.0473 1014 58.1164 1153.72 548.233
470 0 74.1823 12.6445 938 59.8731 1153.46 547.236
471 0 77.1106 14.2134 1096 58.2007 1153.64 545.531
472 0 79.2233 12.875 1020 59.9294 1153.77 544.642
473 0 83.1173 13.4629 1119 59.3655 1153.44 543.054
474 1 41.101 9.87811 406 61.2783 1155.08 559.424
475 0 42.1938 11.5657 488 60.1414 1155.15 558.58
476 0 43.2713 10.4919 454 61.1167 1155.33 559.126
477 0 44.0867 12.2032 538 59.9796 1154.59 556.775
478 0 48.07 12.8563 618 58.6068 1154.34 557.371
479 0 48.0194 12.245 588 59.6531 1153.44 558.393
480 0 50.1091 13.1713 660 58.3924 1154.06 561.033
481 0 52.1242 12.5278 653 59.3706 1154.13 561.194
482 0 53.0935 13.2596 704 58.9077 1154.32 560.533
483 0 54.1512 12.6682 686 59.7259 1154.18 558.031
484 0 57.168 13.7489 786 57.5891 1153.95 558.804
485 0 59.1103 13.9231 823 57.723 1154.33 557.01
486 0 60.1068 12.3946 745 59.9933 1154.51 556.515
487 0 59.1849 13.0439 772 60.3523 1154.67 554.867
488 0 63.1117 14.2921 902 58.6585 1154.68 554.358
489 0 64.0482 12.8809 825 60.8752 1154.53 553.424
490 0 68.1204 14.3569 978 58.4254 1154.57 553.173
491 0 70.0586 13.7885 966 59.1253 1154.85 553.219
492 0 73.0957 13.6397 997 59.6148 1155.1 549.584
493 0 74.0362 13.2638 982 60.9175 1154.86 546.875
494 0 79.0912 14.2114 1124 58.9813 1155.11 545.791
495 0 80.1306 12.6294 1012 61.3261 1154.86 546.282
496 1 44.0265 10.7662 474 61.5169 1154.58 562.738
497 0 43.0117 11.369 489 61.4683 1154.27 561.378
498 0 43.0272 11.4579 493 61.0568 1154.82 562.57
499 0 45.0275 11.7484 529 61.1853 1154.77 560.486
500 0 49.093 12.5884 618 59.678 1155.09 560.092
501 0 50.1416 12.2653 615 59.6049 1155.53 559.751
502 0 49.0656 13.1457 645 59.0372 1155.16 560.186
503 0 52.0456 12.7581 664 59.8057 1155.25 557.447
504 0 53.031 12.6718 672 60.0595 1155.25 557.357
505 0 55.0452 13.2255 728 59.4753 1155.63 554.83
506 0 56.0358 13.1345 736 59.7255 1155.2 555.602
507 0 57.0457 12.2884 701 61.7233 1155.84 555.087
508 0 60.0889 13.6298 819 59.9768 1155.56 552.971
509 0 62.0622 13.5993 844 60.4905 1155.5 552.639
510 0 62.0538 12.8437 797 62.4918 1155.37 550.425
511 0 69.042 14.1218 975 59.8349 1155.45 549.738
512 0 70.0442 14.2624 999 60.3914 1155.58 549.49
513 0 72.058 13.9471 1005 61.9662 1155.75 547.547
514 0 73.1086 12.8986 943 63.7922 1155.77 545.963
515 0 76.0712 13.9606 1062 62.6723 1155.43 543.479
516 0 80.199 12.9553 1039 63.025 1155.36 542.469
517 1 40.0397 10.5395 422 61.3483 1155.06 563.635
518 0 41.033 11.3323 465 62.5785 1154.87 560.996
519 0 42.0345 10.5152 442 62.4389 1154.48 562.939
520 0 43.0259 12.3182 530 62.2434 1154.65 559.528
521 0 46.0373 11.5558 532 63.4887 1154.88 558.165
522 0 49.0974 12.465 612 62.0212 1155.43 557.757
523 0 49.0974 12.5058 614 166.775 1155.43 557.795
524 0 51.1184 13.635 697 60.8479 1156.6 558.94
525 0 50.08 11.2819 565 65.1558 1156.55 556.522
526 0 53.1094 12.2201 649 63.0216 1156.71 557.294
527 0 55.0966 13.2676 731 62.171 1157.13 555.025
528 0 56.1258 12.4007 696 62.9871 1157.11 555.761
529 0 60.0631 13.1029 787 61.601 1157.45 555.213
530 0 60.1059 13.21 794 62.9395 1157.26 553.524
531 0 65.2089 13.6024 887 61.1781 1157.57 553.028
532 0 65.2089 13.6331 889 156.682 1158.57 552.984
533 0 69.155 13.8385 957 60.9478 1157.6 549.847
534 0 72.1546 13.679 987 60.767 1157.96 549.512
535 0 71.0746 12.9442 920 62.6152 1157.91 546.79
536 0 73.1507 13.479 986 62.2221 1157.87 544.99
537 0 77.1072 13.6044 1049 61.2822 1157.51 544.051
538 0 78.1853 12.7645 998 62.9048 1158.08 543.127
539 0 82.2579 12.242 1007 62.5889 1158.15 543.758
540 0 84.2619 12.6866 1069 61.928 1157.62 542.17
541 0 89.3496 13.7326 1227 60.5738 1157.9 540.481
542 0 91.1867 13.6094 1241 60.61 1157.74 539.669
543 0 94.2162 13.3204 1255 61.8669 1157.8 535.182
544 1 49.1758 10.6556 524 61.0878 1157.35 560.239
545 0 50.2486 10.4879 527 62.241 1157.28 559.647
546 0 53.1473 11.1765 594 62.0673 1157.15 558.091
547 0 55.1911 11.5055 635 61.4189 1156.85 556.638
548 0 57.2007 12.3775 708 59.8136 1156.51 554.52
549 0 60.2848 13.204 796 58.1595 1156.76 552.997
550 0 59.2856 11.0145 653 61.6539 1156.64 553.484
551 0 61.1618 11.5759 708 60.911 1157 554.727
552 0 67.2183 13.4041 901 59.2231 1156.91 552.518
553 0 68.2745 12.7427 870 60.477 1156.84 551.949
554 0 69.1825 11.9394 826 61.6598 1156.33 550.854
555 0 70.4353 12.1956 859 62.4505 1157.17 549.34
556 0 73.4317 12.8555 944 61.2648 1156.99 549.131
557 0 77.4178 12.8653 996 61.5522 1156.54 547.005
558 0 78.5942 12.7109 999 62.1011 1156.87 544.952
559 0 83.3564 13.5203 1127 60.4605 1156.65 545.745
560 1 42.3207 11.082 469 62.516 1156.92 563.936
561 0 43.1773 12.0202 519 61.6667 1156.57 562.472
562 0 44.1902 11.4505 506 62.8794 1156.58 561.115
563 0 45.1305 11.5443 521 62.8887 1156.4 559.965
564 0 49.301 11.3588 560 61.6196 1156.22 561
565 0 52.1949 11.3804 594 61.9933 1156.03 558.096
566 0 52.0742 12.0213 626 61.2125 1155.34 557.669
567 0 56.2521 13.5106 760 58.5224 1155.5 555.646
568 0 57.2057 12.7959 732 59.7199 1156 557.07
569 0 57.2362 12.9463 741 59.9501 1155.83 556.466
570 0 60.4242 12.8922 779 59.4069 1155.87 554.944
571 0 61.2589 12.8471 787 59.7459 1155.82 555.633
572 0 63.2448 12.5544 794 59.7733 1155.63 554.02
573 0 64.2937 13.5161 869 58.9206 1155.72 552.496
574 0 65.4032 13.0422 853 59.7011 1155.66 551.632
575 0 70.5979 13.8814 980 57.7837 1155.11 551.42
576 0 71.4336 14.251 1018 57.7525 1154.7 547.139
577 0 73.3983 13.7742 1011 58.4896 1154.49 549.006
578 0 75.259 12.3573 930 59.9914 1154.1 549.398
579 0 79.4332 14.6287 1162 56.8907 1154.68 546.818
580 0 82.3336 13.9433 1148 58.0017 1154.13 544.553
581 1 41.4462 10.1577 421 59.2684 1153.91 564.572
582 0 41.2388 11.009 454 59.7665 1154.43 563.782
583 0 44.4515 11.6757 519 59.0385 1153.64 564.222
584 0 48.1544 11.6916 563 58.1368 1153.93 563.938
585 0 47.2735 12.6709 599 58.1102 1154.03 561.569
586 0 48.2136 12.258 591 58.555 1154.38 561.281
587 0 50.0802 12.9991 651 57.6636 1153.44 559.495
588 0 52.2505 13.0525 682 57.8372 1153.89 561.481
589 0 55.082 13.144 724 57.0732 1153.91 560.551
590 0 56.1863 13.4196 754 56.8714 1153.59 560.092
591 0 56.23 13.5871 764 57.6819 1153.12 559.317
592 0 57.3429 12.1026 694 59.5519 1153.02 559.483
593 0 58.1241 13.5744 789 58.2231 1152.77 557.324
594 0 63.3398 14.2722 904 56.2699 1152.79 556.746
595 0 65.1452 12.9403 843 57.2562 1152.42 557.079
596 0 67.222 13.1504 884 56.4321 1152.48 555.65
597 0 69.4484 13.4632 935 56.3786 1152.33 554.037
598 0 71.3371 12.7423 909 56.5622 1152.66 553.943
599 0 72.2748 13.2273 956 56.6245 1152.67 551.393
600 1 37.0618 10.3341 383 58.6762 1151.89 568.222
601 0 37.0723 9.95352 369 58.4146 1151.34 568.173
602 0 39.1384 11.7532 460 56.5326 1151.68 567.765
603 0 40.0285 10.6924 428 57.2033 1151.82 567.117
604 0 41.0629 11.5433 474 55.1203 1151.66 567.614
605 0 43.1266 11.6865 504 54.7698 1152.25 565.355
606 0 46.0423 12.6188 581 52.9415 1151.83 565.936
607 0 45.0098 13.3971 603 52.8889 1152.12 565.194
608 0 44.2251 12.5494 555 55.5982 1152.41 563.241
609 0 49.0931 12.7513 626 54.2045 1152.55 562.273
610 0 50.1186 12.231 613 55.2251 1152.7 560.855
611 0 51.0986 12.5444 641 55.1482 1152.61 560.961
612 0 54.1117 13.1395 711 54.1322 1152.54 560.25
613 0 55.0972 12.5233 690 55.4232 1153.41 558.146
614 0 57.2134 13.7031 784 54.0829 1153.35 556.357
615 0 58.0954 13.2369 769 54.9363 1153.39 555.004
616 0 62.0616 12.4231 771 55.5279 1153.06 556.031
617 0 64.0993 13.2607 850 54.7188 1153.32 554.768
618 0 65.1541 13.0767 852 55.3944 1153.11 554.392
619 0 67.072 13.7315 921 54.6428 1153.31 551.957
620 0 71.0662 13.199 938 54.7921 1153.17 552.107
621 0 72.0577 14.1137 1017 54.4081 1152.84 551.566
622 1 38.059 10.7202 408 56.0686 1152.59 569.397
623 0 37.0134 10.996 407 57.5774 1152.79 566.771
624 0 39.043 11.3721 444 56.3018 1152.42 567.119
625 0 40.0541 10.6106 425 57.0941 1152.52 565.092
626 0 40.0108 11.147 446 56.7758 1153.03 566.146
627 0 44.0224 11.5623 509 56.7839 1154.36 565
628 0 43.0617 11.6112 500 57.49 1154.38 563.97
629 0 45.0934 12.9065 582 56.1804 1154.19 563.802
630 0 47.0624 12.9615 610 55.9328 1154.27 564.21
631 0 47.0754 12.1507 572 57.9528 1154.21 561.825
632 0 49.0705 12.9202 634 57.0978 1154.18 561.091
633 0 51.1077 12.3465 631 57.851 1154.42 560.808
634 0 51.1213 12.0498 616 57.9627 1154.17 560.555
635 0 53.0775 13.5462 719 56.4409 1154.82 559.033
636 0 55.1095 12.5568 692 57.2413 1154.35 558.348
637 0 58.1289 13.3496 776 56.3235 1154.86 556.473
638 0 59.0558 13.428 793 56.7945 1155.1 555.154
639 0 60.1061 12.5278 753 58.1567 1155.56 554.648
640 0 62.0791 13.4345 834 56.7158 1155.56 554.507
641 0 62.0791 13.4345 834 161.863 1155.56 554.507
642 0 65.146 13.0016 847 57.6234 1156.43 553.98
643 0 70.1583 13.7689 966 56.089 1156.78 550.579
644 0 71.1768 13.0239 927 57.3333 1156.66 549.786
645 0 73.1065 13.1452 961 57.5973 1156.8 549.876
646 0 77.12 13.5244 1043 56.9377 1156.91 548.433
647 0 78.1042 13.1107 1024 57.7031 1157.39 545.608
648 0 81.1654 13.5649 1101 57.2652 1157.44 544.24
649 0 84.119 13.0767 1100 57.9664 1156.99 542.94
650 0 85.159 12.5295 1067 58.8013 1156.59 543.316
651 1 46.0647 9.92082 457 59.7024 1155.23 560.825
652 0 46.057 11.7897 543 56.7145 1154.72 561.862
653 0 50.029 10.9936 550 58.1855 1155.02 559.511
654 0 51.0308 10.9738 560 58.3429 1155.73 559.155
655 0 51.0304 11.6205 593 57.7302 1156.45 558.371
656 0 52.0691 12.5794 655 56.3069 1155.88 556.237
657 0 56.0778 12.8036 718 55.2674 1156.21 557.312
658 0 57.0517 12.0768 689 56.5835 1156.39 555.653
659 0 59.0588 11.1922 661 57.9017 1156.26 554.539
660 0 60.0574 12.255 736 56.6345 1156.48 553.83
661 0 61.0388 11.7466 717 57.4296 1156.15 553.138
662 0 64.0472 12.522 802 56.2706 1157.08 550.097
663 0 66.0734 12.5921 832 56.7921 1156.94 549.306
664 0 69.2324 13.6063 942 55.1868 1156.7 549.648
665 0 70.13 12.9331 907 56.581 1156.66 546.911
666 0 73.196 12.8012 937 56.953 1157.09 545.125
667 0 74.0665 12.8803 954 57.3574 1157.27 543.948
668 0 78.207 13.183 1031 56.7759 1157.68 542.664
669 0 79.1151 13.6131 1077 56.857 1157.47 540.886
670 0 80.0871 13.5478 1085 57.1576 1157.36 541.497
671 0 84.0965 13.7461 1156 56.9905 1157.67 538.531
672 0 88.2172 12.9793 1145 57.5948 1157.97 537.5
673 0 90.2205 13.2786 1198 57.909 1157.81 538.173
674 0 93.2718 13.1337 1225 58.3829 1158.12 535.736
675 0 93.2408 12.2157 1139 59.7709 1158.1 535.489
676 0 99.2462 13.8544 1375 57.648 1158.17 532.622
677 1 51.0459 11.186 571 58.056 1157.15 556.18
678 0 54.0379 11.0478 597 57.7538 1157.31 555.042
679 0 55.123 9.90512 546 59.152 1157.97 555.018
680 0 59.133 12.5987 745 56.1852 1158.01 552.477
681 0 60.0594 10.9891 660 58.8848 1158.36 552.577
682 0 60.1305 13.3876 805 56.8534 1158.21 552.677
683 0 64.163 12.3903 795 57.5321 1158.68 552.278
684 0 64.2025 12.6319 811 58.6794 1159.12 547.075
685 0 66.1618 13.7391 909 57.8119 1159.03 549.466
686 0 68.1189 12.8452 875 58.9669 1158.67 548.04
687 0 70.1516 12.0454 845 60.2923 1158.75 547.005
688 0 73.1491 12.2353 895 60.1832 1158.44 544.146
689 0 75.1758 13.0494 981 59.4536 1158.32 543.876
690 0 79.2448 13.8432 1097 58.433 1158.13 543.396
691 0 83.1504 13.9987 1164 57.5 1158.27 542.145
692 0 84.121 13.1477 1106 58.7342 1158.08 540.506
693 0 87.1519 13.2183 1152 59.0764 1158.07 537.176
694 0 90.1138 13.3498 1203 58.9884 1157.38 538.038
695 1 49.018 9.75152 478 60.5941 1157.01 560.251
696 0 51.0943 11.6451 595 59.1899 1157.51 556.896
697 0 49.0244 10.7498 527 60.9355 1157.55 557.148
698 0 51.0277 11.7387 599 60.1436 1157.51 556.08
699 0 53.0597 13.5131 717 57.9651 1157.75 553.897
700 0 57.1073 13.4309 767 55.9896 1157.15 556.039
701 0 57.046 11.4644 654 58.7599 1157.24 555.827
702 0 58.065 12.6238 733 58.3165 1157.03 552.872
703 0 59.0568 13.3769 790 57.4481 1156.75 553.401
704 0 61.059 13.1185 801 57.623 1157.19 554.333
705 0 63.0947 12.3624 780 58.9359 1156.56 552.926
706 0 64.0445 12.6162 808 59.3478 1156.52 547.629
707 0 69.0758 13.116 906 57.3245 1156.44 549.999
708 0 69.153 12.7399 881 58.6913 1155.95 548.212
709 0 72.0215 12.7462 918 58.8943 1155.97 547.293
710 0 75.0795 13.812 1037 57.4571 1155.82 544.998
711 0 79.1155 14.0048 1108 56.9576 1155.77 544.931
712 0 78.0498 13.9911 1092 58.0339 1156.17 544.306
713 0 82.0622 12.917 1060 58.9302 1156.54 544.524
714 0 83.053 12.9315 1074 59.5493 1156.81 541.299
715 1 44.027 10.7888 475 60.7474 1156.27 562.444
716 0 45.0443 11.2778 508 60.1969 1156.14 563.531
717 0 46.0567 11.9852 552 60.2808 1156.56 560.62
718 0 48.076 11.0034 529 60.6635 1156.88 561.569
719 0 52.1541 13.0383 680 57.7603 1156.42 559.988
720 0 52.2706 12.6457 661 58.7685 1155.59 559.12
721 0 51.0371 12.6967 648 59.9259 1155.08 559.935
722 0 55.0164 13.1415 723 58.9156 1155.02 556.817
723 0 53.0685 12.1353 644 61.413 1154.88 557.559
724 0 56.0247 12.0661 676 60.8979 1154.85 555.061
725 0 56.07 12.7341 714 61.2199 1154.9 554.556
726 0 61.1054 12.9449 791 59.1087 1154.65 555.183
727 0 60.1381 12.621 759 60.2872 1154.55 555.715
728 0 61.1201 13.0399 797 60.7378 1154.75 552.55
729 0 65.1086 12.41 808 61.021 1155 552.604
730 0 67.0782 13.9241 934 59.2934 1154.4 551.685
731 0 68.1383 13.4873 919 60.074 1154.2 550.619
732 0 68.1383 13.5166 921 156.289 1155.2 550.609
733 0 75.1322 13.6293 1024 59.7344 1153.94 548.463
734 0 75.0626 14.2281 1068 59.4288 1153.99 548.146
735 0 78.1597 13.5492 1059 59.9547 1153.68 546.399
736 0 79.1176 13.3851 1059 60.865 1153.46 545.822
737 0 83.2544 13.1284 1093 60.9835 1153.36 544.882
738 0 87.2666 14.3698 1254 59.2073 1153.51 542.789
739 0 90.1327 14.3233 1291 59.6553 1153.19 540.332
740 0 92.1623 14.0513 1295 60.5498 1152.75 539.656
741 1 45.1092 9.99795 451 62.3149 1153.08 564.807
742 0 47.2481 11.0904 524 61.4981 1153.24 563.189
743 0 48.0902 11.8111 568 61.1725 1153.12 562.706
744 0 48.1064 10.7262 516 63.6182 1153.41 561.663
745 0 53.1273 12.8936 685 58.9971 1153.19 561.829
746 0 54.1102 11.9201 645 60.7829 1154.27 560.298
747 0 57.2464 13.4157 768 58.8451 1153.77 558.797
748 0 59.1214 12.3306 729 60.5748 1153.97 558.251
749 0 60.1111 12.5933 757 60.1546 1153.61 557.527
750 0 62.1332 13.2457 823 59.4253 1153.3 556.295
751 0 63.2206 12.0372 761 60.8121 1152.29 556.338
752 0 65.1875 11.9655 780 62.0936 1152.46 554.704
753 0 67.1467 12.5993 846 61.9539 1152.48 553.987
754 0 71.3538 12.6272 901 61.8457 1152.65 552.353
755 0 72.3148 13.0955 947 61.6167 1152.46 551.814
756 0 72.212 12.7126 918 63.3399 1152.36 550.319
757 0 78.3815 13.9956 1097 61.021 1152.47 549.5
758 0 78.2469 13.0101 1018 62.9646 1152.42 549.328
759 0 81.3706 13.5553 1103 62.9737 1152.31 546.936
760 0 84.3732 13.6892 1155 63.6693 1151.99 546.239
761 0 86.3704 13.3726 1155 64.3299 1151.92 543.166
762 0 88.297 13.5452 1196 64.2567 1151.98 543.284
763 0 93.5896 14.0935 1319 63.3988 1152.16 542.585
764 0 94.3893 13.7516 1298 64.6911 1152.23 541.48
765 0 99.2557 14.4072 1430 63.2399 1151.84 538.036
766 0 102.455 14.4356 1479 63.3719 1150.99 535.263
767 0 103.506 13.4196 1389 65.1562 1151.25 532.451
768 0 106.542 13.8725 1478 64.0311 1151.22 532.157
769 0 110.527 14.1414 1563 63.4843 1151.28 529.905
770 1 57.3348 10.1683 583 64.9983 1150.7 558.123
771 0 61.2634 10.5446 646 64.0635 1151.52 558.098
772 0 61.2073 11.6653 714 63.4608 1152.65 558.172
773 0 65.0606 12.0503 784 62.0115 1152.37 557.54
774 0 66.1067 12.6916 839 60.1454 1151.54 554.881
775 0 66.1378 11.7936 780 61.8641 1151.53 556.378
776 0 73.1282 12.6627 926 60.6965 1151.51 553.625
777 0 75.2035 12.7122 956 60.9801 1151.62 552.499
778 0 77.1398 11.9394 921 61.6645 1151.61 550.808
779 0 77.115 11.9173 919 62.4135 1151.74 547.943
780 0 83.2302 13.2644 1104 60.1893 1151.55 547.231
781 0 83.2726 13.1376 1094 61.3565 1151.62 545.562
782 0 89.1233 13.3747 1192 60.2492 1152.05 545.341
783 0 89.1197 13.5548 1208 61.0811 1152.22 541.485
784 0 94.1249 13.174 1240 61.1121 1152.78 542.519
785 0 98.2698 12.8625 1264 62.4114 1153.26 539.364
786 0 98.3067 12.6339 1242 63.2303 1153.66 537.93
787 1 57.0761 10.8101 617 63.4214 1153.46 560.151
788 0 59.0962 11.642 688 63.3677 1153.75 558.433
789 0 61.1074 12.8626 786 62.145 1153.88 557.807
790 0 61.2704 12.4204 761 63.3233 1154.26 556.101
791 0 64.1201 12.3986 795 63.8805 1154.54 553.265
792 0 66.1245 13.6863 905 62.0597 1155.03 553.919
793 0 67.1615 12.6561 850 64.0576 1155.57 551.755
794 0 69.1791 13.1543 910 63.5989 1154.68 552.258
795 0 74.1385 13.0027 964 63.722 1154.94 550.872
796 0 74.1371 12.7871 948 64.8987 1154.62 550.138
797 0 76.0808 14.1034 1073 63.5116 1155.37 549.005
798 0 78.1409 12.6054 985 64.7086 1155.66 548.118
799 0 80.2556 13.2826 1066 64.6473 1155.28 546.196
800 0 83.1853 12.0334 1001 66.7073 1155.62 543.65
801 0 87.2195 13.3915 1168 64.4786 1156.25 543.797
802 0 92.1719 14.0281 1293 63.7169 1155.72 541.353
803 1 44.1237 10.3346 456 66.1886 1156.4 563.077
804 0 46.238 9.88365 457 66.9278 1155.95 563.755
805 0 47.1775 10.5347 497 66.4105 1156.23 561.276
806 0 49.1803 11.834 582 64.9794 1156.17 560.708
807 0 51.1986 12.2464 627 64.1037 1156.59 559.388
808 0 51.3049 11.8312 607 64.5601 1156.9 559.756
809 0 53.2093 12.2723 653 63.7198 1156.41 559.391
810 0 55.1703 12.4886 689 62.3716 1156.15 560.399
811 0 56.1821 13.3673 751 61.6804 1156.31 558.021
812 0 56.1463 12.7168 714 62.9874 1156.37 557.508
813 0 56.1117 12.2791 689 64.0044 1156.48 556.956
814 0 60.1487 12.9679 780 62.0372 1156.36 555.333
815 0 61.229 13.0167 797 62.0502 1156.8 555.35
816 0 62.1872 11.9639 744 63.4341 1157.23 553.977
817 0 66.314 14.6123 969 59 1156.37 552.455
818 0 67.2771 12.3965 834 61.44 1156.32 552.45
819 0 69.2302 14.1701 981 59.261 1156.62 550.308
820 0 70.3398 12.9372 910 60.9956 1156.15 548.988
821 0 73.2353 14.1462 1036 58.9073 1156.25 548.637
822 0 75.2896 14.4243 1086 58.0064 1155.9 548.398
823 0 75.2936 13.361 1006 59.7803 1155.93 547.099
824 0 80.2392 13.7963 1107 58.4192 1155.88 543.738
825 0 80.3548 13.4528 1081 59.3959 1155.73 544.574
826 1 42.2711 10.9768 464 59.6185 1154.28 563.356
827 0 44.2016 9.86391 436 59.6606 1154.47 563.86
828 0 46.1246 11.0136 508 58.8583 1155.02 562.122
829 0 47.1185 10.9723 517 59.1857 1154.78 560.623
830 0 48.0601 11.6313 559 58.059 1154.35 560.531
831 0 49.0444 12.4989 613 56.6313 1154.68 560.073
832 0 51.0559 11.9477 610 57.9508 1154.31 560.187
833 0 52.0269 13.2816 691 56.1042 1154.64 559.395
834 0 54.0314 12.1781 658 57.3511 1154.05 556.191
835 0 56.1124 11.9403 670 57.3179 1154.1 557.634
836 0 58.1829 12.9935 756 56.7196 1154.69 554.627
837 0 60.3032 12.8186 773 56.0737 1154.18 556.794
838 0 62.181 11.9007 740 57.277 1154.45 553.938
839 0 63.1013 12.6305 797 56.8921 1154.24 552.617
840 0 63.1479 12.3361 779 57.5764 1154.03 550.701
841 0 66.0725 12.0474 796 57.2651 1154.35 551.534
842 0 67.1833 11.8779 798 58.4173 1153.58 550.875
843 0 72.2015 12.936 934 56.4229 1154.16 547.662
844 0 73.1126 12.5833 920 57.3902 1153.94 548.307
845 0 75.1471 13.0943 984 56.4715 1154.04 549.226
846 0 78.2326 12.6546 990 57.1343 1153.92 546.483
847 0 81.2891 12.4986 1016 57.3396 1153.35 546.315
848 0 84.1903 11.8541 998 57.7174 1153.47 545.26
849 0 86.2477 12.8467 1108 57.083 1153.33 541.272
850 0 89.3967 12.6291 1129 57.5075 1153.44 539.961
851 1 47.0948 10.2347 482 58.027 1152.72 564.954
852 0 50.2336 11.3072 568 56.7077 1152.79 561.875
853 0 51.3217 11.2428 577 56.7002 1152.46 559.584
854 0 54.3077 12.4108 674 54.6766 1152.86 557.622
855 0 54.1343 12.2843 665 56.6902 1153.18 557.266
856 0 56.1207 11.992 673 55.3715 1153.51 560.01
857 0 57.0998 12.1016 691 55.33 1153.8 558.926
858 0 58.0617 11.9011 691 55.9001 1153.48 556.912
859 0 63.1653 12.1902 770 55.5221 1153.03 555.617
860 0 62.0782 11.711 727 55.8418 1153.3 554.674
861 0 64.1251 12.8811 826 54.3959 1153.34 556.448
862 0 65.1724 12.2598 799 56.1277 1153.07 553.636
863 0 67.1601 12.1947 819 56.3516 1153.28 551.389
864 0 69.084 12.2894 849 56.4982 1152.69 552.443
865 0 71.1392 13.1995 939 55.9957 1152.12 550.443
866 0 73.1558 12.1658 890 58.2876 1152.44 547.915
867 0 78.1509 13.9346 1089 56.741 1152.52 546.061
868 0 81.1301 14.0022 1136 57.0731 1152.77 546.562
869 0 83.091 13.756 1143 58.4252 1152.69 544.921
870 0 86.1697 12.9744 1118 59.6127 1152.37 544.962
871 1 46.0467 10.6414 490 61.551 1152.26 563.731
872 0 48.055 10.0094 481 62.3472 1152.34 563.183
873 0 48.0681 9.52815 458 63.3624 1152.41 562.989
874 0 50.2268 11.4481 575 61.3861 1152.5 561.308
875 0 51.3634 11.7983 606 60.5875 1151.75 559.738
876 0 52.1405 11.4115 595 61.5832 1151.52 560.358
877 0 56.2409 11.5219 648 61.1003 1151.46 559.236
878 0 57.1396 12.1807 696 62.6537 1152.01 557.059
879 0 60.1568 12.135 730 65.8973 1151.8 557.189
880 0 60.2514 12.7632 769 64.9441 1151.69 556.349
881 0 62.1748 11.1942 696 67.8908 1151.64 556.681
882 0 65.1658 12.5986 821 66.3654 1151.67 556.995
883 0 65.2852 11.9016 777 68.027 1151.99 556.481
884 0 69.1287 14.0607 972 66.034 1151.89 554.936
885 0 70.1551 12.9143 906 69.4283 1151.85 553.635
886 0 70.1623 12.9699 910 73.6253 1151.98 550.992
887 0 72.1507 12.862 928 74.9343 1152 549.172
888 0 75.1663 13.3438 1003 81.658 1152.36 550.907
889 0 75.1853 12.13 912 91.1042 1152.45 548.941
890 0 79.2957 12.9137 1024 72.2832 1152.8 545.989
891 0 83.092 13.9123 1156 58.4671 1152.79 544.41
892 1 42.0412 10.3946 437 60.373 1152.16 565.348
893 0 43.155 10.0104 432 59.9815 1152.27 565.558
894 0 43.1627 9.77696 422 169.481 1152.27 566.002
895 0 46.0734 11.7638 542 59.1642 1152.5 563.185
896 0 47.1342 11.7749 555 59.8486 1152.56 562.395
897 0 49.1594 11.5746 569 60.2812 1152.96 561.93
898 0 52.1221 12.3748 645 59.2124 1153.34 559.705
899 0 52.1449 12.5612 655 59.2779 1153.7 559.736
900 0 54.1256 12.5449 679 59.6436 1154.17 557.694
901 0 55.0708 13.1467 724 58.808 1154.64 557.311
902 0 56.156 12.7146 714 60.3025 1154.68 557.098
903 0 57.1957 12.6933 726 61.7879 1154.98 554.534
904 0 60.2463 13.4448 810 60.3975 1155.28 554.463
905 0 61.1394 13.2484 810 60.8556 1155.51 552.984
906 0 63.2116 12.8141 810 61.4975 1155.31 552.672
907 0 63.1856 11.7432 742 63.5822 1155.03 551.241
908 0 67.1627 12.9685 871 60.7394 1154.8 551.199
909 0 68.2001 13.1525 897 60.9431 1155.09 548.925
910 0 71.3322 14.1311 1008 59.7688 1155.25 548.642
911 0 72.1924 12.6329 912 62.1634 1155.27 547.507
912 0 76.1737 12.9704 988 61.8259 1155.7 545.808
913 0 78.2077 13.2084 1033 61.4327 1155.92 545.579
914 0 81.3911 13.5273 1101 61.2044 1156.45 542.058
915 0 83.4188 13.654 1139 60.2116 1156.72 538.991
916 1 43.2109 10.2752 444 62.4279 1157.04 559.196
917 0 46.2221 10.8173 500 60.506 1157.48 558.076
918 0 47.1045 11.5063 542 61.4797 1157.03 559.341
919 0 49.0293 12.2376 600 61.91 1156.74 558.873
920 0 53.0595 13.0608 693 59.824 1157.35 558.38
921 0 52.1219 13.3917 698 60.8854 1157.03 557.441
922 0 52.0343 13.3566 695 61.6058 1157.31 555.98
923 0 55.0652 13.1844 726 60.8526 1157.54 555.762
924 0 58.0275 13.4591 781 60.9206 1157.66 555.382
925 0 58.0275 13.4074 778 153.889 1157.69 555.382
926 0 58.0351 13.0611 758 63.2414 1156.87 554.624
927 0 59.0498 12.6334 746 64.4048 1156.91 550.995
928 0 62.0463 13.9573 866 62.3222 1157.29 552.926
929 0 64.0626 13.0029 833 63.9508 1157.1 552.084
930 0 66.1205 13.2939 879 63.8043 1157.82 550.501
931 0 68.1779 13.5528 924 64.053 1157.38 549.85
932 0 68.1584 12.691 865 66.5931 1157.54 550.075
933 0 71.0911 13.4475 956 65.2479 1157.13 549.399
934 0 75.2014 13.404 1008 65.5417 1157.51 546.175
935 0 77.1166 12.9544 999 66.4975 1157.39 545.884
936 0 79.2645 13.3729 1060 66.1755 1157.54 545.305
937 0 80.2335 13.4109 1076 67.5688 1157.33 543.487
938 0 85.1429 13.8121 1176 66.3214 1156.83 542.604
939 0 87.193 13.9461 1216 67.0173 1157 540.036
940 1 47.1059 10.4658 493 69.002 1156.55 560.217
941 0 49.171 11.6532 573 67.8063 1156.42 559.016
942 0 52.0754 10.9649 571 68.683 1156.32 557.904
943 0 51.1422 10.5001 537 70.27 1156.55 558.628
944 0 54.1024 12.4579 674 67.6424 1155.89 556.61
945 0 56.1935 11.2647 633 69.0316 1155.81 556.357
946 0 57.0854 12.1397 693 69.1934 1156.48 556.482
947 0 59.0716 13.1874 779 67.6252 1155.9 554.202
948 0 62.0285 13.3809 830 67.4133 1155.93 553.076
949 0 62.1329 13.2297 822 68.0365 1156 552.567
950 0 65.1117 13.9453 908 66.4262 1155.57 551.731
951 0 65.0711 12.2328 796 69.495 1155.21 551.014
952 0 68.0609 13.1206 893 68.4278 1154.55 549.906
953 0 71.058 13.116 932 67.4431 1154.54 548.652
954 0 73.1772 13.0505 955 68.2492 1154.42 547.627
955 0 76.0924 13.4573 1024 66.9883 1154.44 548.07
956 0 77.1805 12.3606 954 70.2254 1154.55 545.925
957 0 80.2222 12.5651 1008 69.4534 1154.38 545.812
958 0 82.2546 13.6041 1119 67.6157 1154.72 544.751
959 0 85.1405 13.3661 1138 67.4561 1154.69 541.946
960 1 46.1014 10.7589 496 67.6895 1154.69 564.44
961 0 46.0787 11.0029 507 68.6036 1154.72 562.055
962 0 48.0447 11.7807 566 67.5601 1154.89 560.922
963 0 48.0411 11.8232 568 66.8891 1155.36 560.137
964 0 51.1396 12.9841 664 65.2048 1155.08 560.538
965 0 52.0867 12.4024 646 65.7539 1154.19 559.259
966 0 54.0665 12.0222 650 66.8585 1154.24 557.223
967 0 56.1667 13.3531 750 63.8493 1153.99 557.215
968 0 57.0483 13.4798 769 64.1573 1154.02 556.251
969 0 58.0467 12.421 721 66.43 1153.16 555.71
970 0 60.0994 13.6773 822 64.6022 1153.02 556.271
971 0 60.0584 12.4046 745 67.3611 1153.98 553.322
972 0 62.0907 11.8858 738 67.3713 1154.11 553.352
973 0 64.0819 13.6856 877 65.3831 1154.04 551.979
974 0 68.1301 13.621 928 64.8211 1153.38 551.045
975 0 69.1064 12.7919 884 66.2048 1153.65 550.236
976 0 71.136 13.2282 941 65.2721 1153.27 549.065
977 0 72.0264 13.5228 974 65.7053 1153.01 547.453
978 0 75.1071 13.3143 1000 65.16 1152.86 547.581
979 0 78.09 13.3436 1042 65.1324 1152.78 545.62
980 0 81.1417 13.3594 1084 64.9161 1152.97 543.63
981 1 43.0254 11.3421 488 64.4488 1152.69 563.977
982 0 41.0468 9.93987 408 66.3971 1151.1 564.456
983 0 45.0419 10.3903 468 66.1111 1151.39 561.15
984 0 46.0412 11.8807 547 64.702 1151.42 560.675
985 0 48.0227 12.3691 594 63.4226 1151.87 559.714
986 0 50.0415 12.4097 621 62.8116 1153.06 559.557
987 0 51.1159 12.7749 653 62.5957 1153.18 560.953
988 0 53.0876 12.8844 684 62.1126 1153.15 559.085
989 0 54.1172 12.0294 651 63.2458 1152.53 558.521
990 0 56.0657 13.9479 782 60.4591 1152.45 558.035
991 0 57.0837 12.7007 725 61.989 1152.29 558.069
992 0 59.1514 12.0707 714 62.5756 1151.75 556.618
993 0 61.0518 13.0217 795 61.6642 1151.86 554.596
994 0 62.0398 12.8627 798 61.8083 1152.17 554.818
995 0 64.0623 11.5981 743 63.1925 1152.42 555.075
996 0 66.0792 12.6061 833 61.4658 1152.62 553.671
997 0 68.2395 12.4415 849 61.6408 1152.75 554.665
998 0 70.127 12.2635 860 62.5209 1152.42 550.943
999 1 37.02 10.4538 387 62.3359 1152.47 568.734
1000 0 40.0292 10.8421 434 62.424 1153.34 567.2
1001 0 40.0488 10.4373 418 62.4474 1153.12 566.811
1002 0 40.0508 10.4367 418 148.775 1153.1 566.725
1003 0 43.0843 11.4891 495 60.6788 1152.76 564.386
1004 0 44.0328 12.1273 534 59.4869 1152.19 564.987
1005 0 46.0893 11.5645 533 58.1426 1151.62 565.683
1006 0 45.068 11.7822 531 59.5537 1152.02 563.412
1007 0 45.0536 10.0991 455 61.2769 1152.52 564.954
1008 0 48.1816 12.0585 581 58.883 1152.95 563.497
1009 0 50.1414 11.7867 591 59.0761 1153.21 562.389
1010 0 51.1583 12.3929 634 59.1546 1153.05 560.502
1011 0 51.2097 12.068 618 60.7945 1153.22 560.393
1012 0 53.1075 12.0887 642 60.3442 1153.04 560.393
1013 0 54.202 11.8999 645 61.045 1152.83 559.829
1014 0 53.1389 10.6325 565 63.5009 1152.78 558.814
1015 0 58.1531 13.3269 775 58.9071 1152.67 558.591
1016 0 59.2011 12.314 729 60.2414 1152.56 557.337
1017 0 60.1388 11.9889 721 60.6768 1152.64 556.221
1018 0 63.1963 12.7855 808 59.4047 1153.3 554.696
1019 0 64.0589 12.7539 817 59.8213 1153.6 553.761
1020 0 66.1084 12.6005 833 60.06 1153.36 552.223
1021 0 67.1393 12.3177 827 60.341 1153.41 552.521
1022 0 69.1282 12.9036 892 59.7848 1153.83 551.463
1023 0 71.1779 13.2344 942 59.5435 1153.57 551.213
1024 0 74.097 12.875 954 59.5084 1153.87 550.189
1025 0 76.1294 12.2423 932 60.2479 1153.82 548.876
1026 0 79.1326 12.4348 984 59.6626 1153.41 548.535
1027 0 82.2093 12.2127 1004 59.7181 1153.51 547.16
1028 0 82.2093 12.2249 1005 147.223 1153.53 547.096
1029 1 47.0637 10.6664 502 60.6554 1154.15 562.131
1030 0 49.1836 11.6096 571 59.4238 1154.23 560.909
1031 0 49.0556 11.1098 545 60.2936 1154.26 561.075
1032 0 51.2142 11.6179 595 58.995 1153.89 558.963
1033 0 54.1044 13.5109 731 56.275 1154.35 556.956
1034 0 56.1449 11.9868 673 58.5141 1154.23 557.871
1035 0 57.2067 12.551 718 57.9387 1153.8 557.471
1036 0 57.0471 13.3574 762 57.357 1154.52 556.268
1037 0 60.0766 12.9335 777 57.7606 1154.45 556.785
1038 0 63.0582 13.1624 830 56.8904 1154.53 556.212
1039 0 62.0373 12.7504 791 58.8951 1155.14 553.856
1040 0 67.1233 13.8998 933 57.6806 1155.86 553.159
1041 0 68.0889 13.0124 886 59.1512 1155.64 552.916
1042 0 72.0849 12.6379 911 59.3282 1155.72 550.812
1043 0 72.1731 12.761 921 59.8719 1155.72 548.276
1044 0 74.079 13.0401 966 60.1894 1155.91 548.567
1045 0 78.1571 12.4877 976 60.2643 1156.2 544.675
1046 1 42.0936 9.93026 418 61.1005 1155.79 564.986
1047 0 44.1014 10.7933 476 59.2143 1156.56 564.763
1048 0 46.157 11.1142 513 58.7057 1157.35 563.828
1049 0 48.1018 11.5588 556 58.3399 1156.69 562.746
1050 0 51.2049 12.1082 620 57.2371 1156.87 562.173
1051 0 50.1169 12.4708 625 58.4144 1156.8 557.934
1052 0 52.1459 12.9636 676 57.7485 1157.3 560.262
1053 0 53.1633 12.3205 655 59.116 1156.98 558.562
1054 0 54.1746 11.9983 650 60.2323 1157.41 558.185
1055 0 56.1131 12.5283 703 60.0199 1157.32 556.148
1056 0 57.0816 12.7887 730 60.2205 1157.78 555.662
1057 0 57.0816 12.7712 729 154.178 1157.77 555.653
1058 0 65.129 15.2927 996 53.9418 1157.89 550.52
1059 0 62.14 14.0167 871 57.1079 1157.4 549.637
1060 0 65.157 13.1068 854 58.623 1157.4 549.891
1061 0 66.0681 13.5618 896 57.9375 1157.01 550.881
1062 0 69.1745 13.6756 946 58.1586 1156.56 549.405
1063 0 72.5023 13.5858 985 58.197 1155.7 547.368
1064 0 73.1572 13.4505 984 59.4959 1156.24 547.561
1065 0 75.1944 13.4983 1015 59.6236 1156.16 547.355
1066 1 41.3426 10.4735 433 61.9885 1155.87 562.982
1067 0 43.2447 10.3365 447 62.6197 1156.14 560.689
1068 0 44.2239 11.0348 488 61.2992 1155.95 560.879
1069 0 45.2731 10.9999 498 62.0261 1155.75 559.727
1070 0 47.1619 11.4923 542 61.4502 1155.62 558.884
1071 0 49.0379 12.8064 628 60.2373 1156.84 558.713
1072 0 53.2493 12.9016 687 60.064 1156.92 560.13
1073 0 52.1347 13.4076 699 60.6209 1156.74 557.667
1074 0 52.0946 12.3237 642 62.3442 1156.43 557.874
1075 0 56.2006 14.1813 797 59.5157 1155.83 558.587
1076 0 57.1172 12.4131 709 62.1072 1155.79 555.877
1077 0 59.1195 13.4304 794 61.2469 1155.53 557.099
1078 0 62.1831 13.5728 844 60.4336 1155.53 556.055
1079 0 62.2716 14.0674 876 60.1484 1155.68 554.992
1080 0 63.1049 13.2319 835 62.0431 1155.43 552.933
1081 0 66.2991 12.9263 857 61.7246 1155.3 553.445
1082 0 67.2898 13.0778 880 62.1284 1155.47 551.82
1083 0 71.1857 13.4859 960 61.4406 1155.53 551.099
1084 0 72.2782 13.9738 1010 61.0208 1155.39 548.443
1085 0 73.2016 13.5106 989 62.3064 1155.31 548.794
1086 0 75.2936 13.7329 1034 62.1083 1154.92 546.519
1087 0 77.308 13.6079 1052 62.6958 1154.8 545.893
1088 0 80.3251 14.3791 1155 61.6338 1154.76 544.993
1089 0 85.3529 14.7154 1256 60.9666 1154.49 543.52
1090 1 43.2303 10.8026 467 64 1154.19 564.278
1091 0 47.0785 12.065 568 62.8222 1154.5 563.627
1092 0 46.0743 12.1543 560 63.4125 1154.61 562.961
1093 0 50.1149 13.0899 656 62.096 1154.69 560.726
1094 0 51.0574 13.5534 692 61.6171 1154.41 561.266
1095 0 54.1797 13.0861 709 62.3202 1154.91 559.958
1096 0 53.1476 12.9827 690 63.629 1154.45 560.017
1097 0 56.0897 12.0878 678 64.5044 1154.24 558.529
1098 0 58.0922 13.1171 762 62.6772 1154.73 558.139
1099 0 59.1762 13.1472 778 62.9961 1154.54 557.761
1100 0 62.0782 14.8683 923 60.9209 1154.73 554.887
1101 0 64.1824 13.3058 854 62.8197 1154.22 554.934
1102 0 65.1202 13.2371 862 63.1636 1154.06 555.119
1103 0 67.1671 12.6997 853 64.1524 1154 552.545
1104 0 70.095 13.4674 944 62.6896 1153.91 551.21
1105 0 73.2954 13.0158 954 63.6992 1153.84 550.058
1106 0 74.194 13.7208 1018 62.9931 1153.76 546.844
1107 0 77.2208 13.3643 1032 63.4079 1153.55 547.684
1108 1 42.009 10.6168 446 65.2915 1152.44 564.419
1109 0 45.0417 11.5893 522 62.8793 1152.34 566.728
1110 0 44.0153 11.7459 517 64.0309 1152.72 562.809
1111 0 48.0498 12.487 600 62.7867 1152.66 563.063
1112 0 49.0726 12.2879 603 63.0912 1152.88 562.738
1113 0 51.0293 12.5418 640 63.0797 1152.96 561.355
1114 0 51.0598 12.3189 629 62.6757 1153.75 560.305
1115 0 52.202 12.5857 657 62.8645 1153.08 561.05
1116 0 52.1438 11.9861 625 64.408 1152.81 560.371
1117 0 56.1299 14.3595 806 60.3288 1152.99 558.634
1118 0 57.0577 12.4961 713 63.1767 1152.83 560.001
1119 0 59.1234 13.0913 774 62.5853 1152.71 558.813
1120 0 61.0589 12.9547 791 63.1403 1152.94 555.2
1121 0 62.0642 11.8587 736 64.9144 1153.08 557.359
1122 0 64.1939 13.21 848 63.6875 1153.19 553.501
1123 0 66.0901 13.3757 884 63.1663 1152.74 553.718
1124 0 70.055 12.6615 887 63.407 1153.16 553.419
1125 1 37.0509 10.715 397 64.4836 1153.23 566.688
1126 0 39.0991 9.92349 388 65.9588 1153.59 567.727
1127 0 38.0375 10.5422 401 65.4339 1153.08 566.534
1128 0 41.1508 10.3522 426 65.7911 1152.99 565.725
1129 0 43.0465 11.3598 489 64.4049 1152.21 566.196
1130 0 43.0456 11.6156 500 64.364 1152.64 567.174
1131 0 44.1018 11.995 529 65.5898 1153.33 565.28
1132 0 47.2106 12.2218 577 64.2028 1153.58 565.425
1133 0 47.2085 12.0529 569 65.5677 1152.69 564.496
1134 0 49.1546 12.654 622 64.3859 1152.85 563.777
1135 0 50.3247 12.618 635 64.2709 1152.19 563.087
1136 0 50.3567 12.6101 635 65.337 1151.76 562.187
1137 0 52.2979 12.3141 644 66.7453 1152.22 562.03
1138 0 54.1994 12.823 695 66.0849 1152.77 559.245
1139 0 55.1636 12.5989 695 66.5223 1152.85 558.279
1140 0 57.2681 13.2884 761 65.1919 1153.34 557.145
1141 0 57.1408 11.8829 679 69.2533 1153.47 557.156
1142 0 59.1128 12.3831 732 68.4781 1153.65 555.656
1143 0 60.1996 12.7077 765 68.132 1153.71 553.761
1144 0 62.1794 12.6248 785 68.786 1153.86 552.651
1145 0 66.1622 13.1646 871 67.2331 1154 551.793
1146 0 65.2949 12.4512 813 69.182 1153.84 550.679
1147 0 69.1709 13.7341 950 66.7779 1154.16 549.648
1148 0 71.1883 12.9235 920 68.0239 1154.03 549.675
1149 0 72.1402 13.0718 943 67.4411 1154.41 549.103
1150 0 75.0883 13.4775 1012 67.083 1154.68 547.918
1151 0 78.119 13.3258 1041 67.8338 1154.83 545.466
1152 0 80.058 13.4528 1077 67.2145 1155.42 546.221
1153 1 43.0411 10.9663 472 68.6886 1155.39 564.104
1154 0 45.0348 11.4134 514 67.1537 1155.63 563.774
1155 0 43.0426 10.1527 437 70.2723 1155.65 563.343
1156 0 47.0647 11.7285 552 67.4674 1156.14 563.089
1157 0 48.0583 12.1103 582 66.0052 1157.23 560.488
1158 0 49.0412 12.8667 631 64.0761 1157.48 560.723
1159 0 49.0555 12.4757 612 65.2042 1157.53 560.405
1160 0 52.0946 12.5925 656 64.6707 1157.85 558.732
1161 0 53.0771 11.5869 615 66.2407 1157.6 559.307
1162 0 54.0702 12.0769 653 65.5712 1157.97 558.296
1163 0 54.0695 11.8736 642 66.5109 1157.86 556.869
1164 0 57.0839 12.7006 725 64.8952 1157.99 554.084
1165 0 58.0617 12.969 753 64.8911 1157.88 553.153
1166 0 61.1325 12.661 774 64.4742 1154.89 553.491
1167 0 63.0765 11.7952 744 65.1358 1156.77 552.153
1168 0 62.096 12.996 807 64.6506 1159.34 552.058
1169 0 64.1386 13.1746 845 64.3704 1159.16 551.328
1170 0 67.0975 12.7128 853 65.0762 1159.64 549.046
1171 0 69.1746 12.9816 898 64.5557 1159.16 550.428
1172 0 70.1099 12.5802 882 65.5703 1158.85 548.999
1173 0 73.08 12.7258 930 65.6989 1158.7 546.829
1174 0 76.1655 13.6282 1038 64.9644 1158.79 546.204
1175 0 76.0986 12.0502 917 67.3828 1158.56 545.811
1176 0 81.2055 13.3365 1083 65.6187 1159.04 543.288
1177 0 82.1287 12.4926 1026 67.96 1159.32 543.002
1178 1 45.0175 10.8624 489 69.2065 1159.07 562.076
1179 0 46.0691 11.6998 539 67.9777 1159.27 561.506
1180 0 48.0219 11.7655 565 68.9841 1159.27 558.846
1181 0 48.0617 12.1927 586 68.6655 1159.63 560.273
1182 0 50.1082 12.7923 641 68.2122 1159.13 558.339
1183 0 50.0649 12.9232 647 68.524 1159.9 558.898
1184 0 53.1114 12.8974 685 68.2453 1159.12 557.899
1185 0 54.0869 14.0515 760 67.2184 1158.96 555.416
1186 0 56.2228 13.6421 767 67.4863 1158.94 555.61
1187 0 58.0719 13.3283 774 67.8915 1159.1 556.256
1188 0 60.1262 13.4051 806 67.531 1159.09 554.699
1189 0 60.2418 12.732 767 69.4211 1158.6 554.66
1190 0 61.2622 12.7974 784 69.3316 1158.38 553.129
1191 0 63.1434 13.3189 841 68.0214 1158.34 552.95
1192 0 66.2262 13.318 882 67.9955 1158.26 550.646
1193 0 69.1417 13.899 961 66.1457 1157.64 550.231
1194 0 71.1139 13.387 952 66.3845 1157.81 547.925
1195 0 73.2319 14.0649 1030 65.2777 1157.57 547.93
1196 0 74.2613 13.6276 1012 66.254 1155.1 544.814
1197 0 75.1595 13.2651 997 66.4173 1155.75 546.604
1198 0 79.2011 13.3584 1058 66.034 1155.61 544.979
1199 0 83.2857 13.8199 1151 64.4526 1155.97 544.269
1200 1 44.1511 10.1923 450 68.0844 1156.17 561.411
1201 0 46.0811 11.3061 521 67.0998 1156.46 560.309
1202 0 47.1035 11.7826 555 66.445 1156.55 561.434
1203 0 48.1653 11.6682 562 66.1601 1156.56 560.039
1204 0 51.1988 13.3792 685 64.3051 1156.66 556.965
1205 0 53.2283 13.1885 702 65.1339 1155.6 556.662
1206 0 55.136 13.2219 729 64.7613 1155.9 556.455
1207 0 56.1182 12.741 715 65.8392 1155.97 557.39
1208 0 57.2194 12.1462 695 66.6129 1155.48 554.84
1209 0 61.2442 13.7646 843 64.2633 1155.16 552.534
1210 0 63.2772 13.1011 829 64.1279 1155.41 552.641
1211 0 65.398 13.6854 895 63.1821 1154.23 552.673
1212 0 67.3201 13.4432 905 63.4033 1153.88 552.222
1213 0 69.3933 13.6036 944 63.6377 1154.46 550.287
1214 0 73.2634 14.0862 1032 62.6076 1154.57 548.843
1215 0 74.2965 13.5269 1005 64.0985 1154.14 548.69
1216 0 77.1651 14.1385 1091 62.6224 1153.88 549.024
1217 0 81.1773 14.1049 1145 62.959 1154.02 547.062
1218 0 82.2373 14.3001 1176 63.4311 1153.84 543.336
1219 0 85.1297 13.1799 1122 64.533 1154.02 545.977
1220 1 42.0723 11.9556 503 64.3539 1153.73 564.545
1221 0 45.1411 12.0289 543 64.628 1153.89 563.118
1222 0 46.0696 12.4811 575 64.2574 1154.13 562.597
1223 0 49.1285 13.2713 652 63.181 1152.67 561.207
1224 0 49.0418 12.3364 605 65.0463 1153.02 560.878
1225 0 50.0412 12.3498 618 64.8382 1151.1 560.96
1226 0 52.0497 13.2758 691 63.809 1152.22 559.504
1227 0 55.0527 12.8241 706 64.1601 1153.21 558.639
1228 0 58.0705 13.983 812 62.4347 1153.58 557.39
1229 0 57.0477 12.8138 731 65.041 1153.03 557.404
1230 0 60.0722 12.9511 778 64.0039 1153.23 558.075
1231 0 61.0273 12.0766 737 65.791 1153.04 556.649
1232 0 63.1139 13.3251 841 64.2794 1152.87 554.967
1233 0 64.1127 12.8524 824 65.551 1152.59 554.766
1234 0 68.1464 13.0748 891 64.5612 1151.94 552.618
1235 0 68.1428 12.1069 825 66.2242 1152.22 553.844
1236 0 71.1376 13.3825 952 64.7973 1153.14 552.753
1237 0 74.113 13.7358 1018 64.4293 1152.77 549.888
1238 0 76.0895 12.643 962 65.7921 1152.9 548.169
1239 0 79.0972 12.9587 1025 65.5132 1152.61 548.302
1240 0 81.1569 13.0858 1062 65.7665 1153.29 546.632
1241 0 84.1287 13.5982 1144 65.2194 1153.15 545.997
1242 0 87.1141 14.3834 1253 63.5211 1152.68 543.475
1243 0 89.2333 14.703 1312 63.0328 1153.55 543.269
1244 0 92.0973 13.312 1226 64.7178 1153.53 544.672
1245 0 95.2887 13.4958 1286 64.7387 1154.03 540.342
1246 1 45.0219 9.79522 441 65.4059 1152.97 565.088
1247 0 49.0281 11.1569 547 63.0896 1152.98 564.527
1248 0 48.0299 10.6809 513 64.8635 1153.11 564.409
1249 0 50.157 11.2646 565 64.7469 1153.11 561.701
1250 0 51.0301 11.4246 583 64.0926 1152.97 562.146
1251 0 52.093 11.9402 622 63.9068 1153.16 560.116
1252 0 54.2103 12.4515 675 63.0474 1153.19 560.104
1253 0 56.2448 12.5523 706 62.8371 1152.9 559.292
1254 0 57.2111 12.3577 707 63.7171 1153.02 556.436
1255 0 58.0799 10.8988 633 65.4913 1152.97 558.03
1256 0 61.2597 12.3899 759 62.5138 1153.55 558.069
1257 0 64.2073 12.5219 804 63.0398 1153.94 555.192
1258 0 66.1441 13.0019 860 62.6279 1154.74 554.781
1259 0 67.1837 13.0091 874 62.7117 1154.54 553.335
1260 0 69.1258 12.904 892 63.1401 1155.25 550.371
1261 0 73.1715 13.0652 956 62.6789 1155.08 550.619
1262 0 73.2595 12.7902 937 63.4472 1154.88 550.51
1263 0 77.1206 12.9408 998 63.3066 1155.15 549.381
1264 0 77.2178 12.4453 961 64.8689 1155.4 545.676
1265 1 39.0897 9.56773 374 64.6257 1156.12 566.011
1266 0 42.2325 10.7027 452 62.1305 1156.25 565.511
1267 0 43.0493 11.1732 481 62.2599 1156.02 564.501
1268 0 43.0622 11.2628 485 63.0454 1155.97 565.049
1269 0 47.1025 11.2733 531 61.8512 1156.22 563.753
1270 0 44.1461 10.6238 469 63.4456 1155.83 563.864
1271 0 47.1085 10.9747 517 62.3636 1156.29 563.331
1272 0 47.0832 11.193 527 62.7913 1156.48 561.004
1273 0 50.0765 11.4824 575 61.6435 1157.23 561.781
1274 0 51.0838 12.0391 615 61.3041 1157.71 560.273
1275 0 51.0912 11.6067 593 62.629 1157.76 559.735
1276 0 54.1027 12.1066 655 61.687 1158.02 560.024
1277 0 55.0979 12.3054 678 61.7375 1158.42 557.634
1278 0 56.0387 12.2237 685 62.0715 1158.6 556.352
1279 0 59.1026 12.3006 727 61.359 1158.62 557.382
1280 0 58.167 12.4813 726 63.1074 1158.78 557.091
1281 0 61.1082 13.0588 798 62.1704 1158.57 553.143
1282 0 62.134 13.3904 832 62.0457 1158.64 552.767
1283 0 65.2236 12.0815 788 63.5343 1159.35 551.482
1284 0 67.2865 12.3353 830 63.2542 1159.66 550.994
1285 0 69.2608 12.2003 845 63.4225 1159.31 549.454
1286 0 72.1445 12.8215 925 63.0519 1158.46 550.132
1287 0 74.1495 12.1916 904 63.3916 1159.01 549.691
1288 0 76.2361 13.6025 1037 62.2093 1159.02 547.512
1289 0 78.1913 12.495 977 63.9243 1159.28 547.241
1290 1 42.032 10.9202 459 64.6819 1159.94 564.397
1291 0 42.0439 10.3226 434 66.0899 1159.53 564.594
1292 0 45.0976 11.5084 519 64.0019 1159.58 563.78
1293 0 46.1182 11.5139 531 63.1337 1159.38 562.499
1294 0 47.0547 12.4748 587 62.3407 1159.37 560.705
1295 0 50.0355 11.7517 588 62.5119 1159.25 560.709
1296 0 48.0821 12.0211 578 63.6107 1158.69 560.324
1297 0 49.0525 12.456 611 63.1637 1158.79 559.419
1298 0 53.1314 14.1724 753 59.255 1159.42 560.891
1299 0 51.1673 11.9803 613 64.2398 1159.68 559.804
1300 0 54.1324 12.1184 656 63.875 1159.95 558.264
1301 0 57.1211 12.7448 728 62.2679 1159.42 557.558
1302 0 57.2899 12.6549 725 62.6262 1159.8 558.316
1303 0 60.1966 12.6585 762 62.6142 1160.14 556.57
1304 0 61.082 12.5896 769 62.684 1160.06 556.488
1305 0 62.2406 12.3392 768 63.9089 1159.45 554.497
1306 0 64.2336 13.3419 857 64.1692 1159.21 552.195
1307 0 64.3402 12.6515 814 64.9103 1159.24 551.878
1308 1 34.1346 10.7808 368 66.5109 1158.71 566.508
1309 0 37.267 12.0482 449 63.2472 1158.26 567.223
1310 0 37.1669 11.1658 415 64.8867 1158.12 566.981
1311 0 39.2271 12.5168 491 62.7821 1158.53 566.336
1312 0 40.211 12.2355 492 64.0813 1158.24 565.254
1313 0 39.1782 12.558 492 64.8598 1157.73 566.445
1314 0 41.1675 12.6799 522 65.4195 1157.7 565.697
1315 0 44.1543 12.0486 532 65.2425 1157.35 564.524
1316 0 44.1535 12.2527 541 65.8614 1156.75 566.523
1317 0 44.1365 12.7106 561 66.3708 1156.75 564.775
1318 0 46.1153 13.206 609 65.5255 1156.52 563.668
1319 0 50.2447 12.9168 649 64.3559 1156.35 559.652
1320 0 49.1186 13.274 652 65.1902 1156.25 563.755
1321 0 48.102 12.5982 606 67.2063 1156.28 561.545
1322 0 53.1217 12.5749 668 65.6662 1155.38 561.181
1323 0 54.1213 12.6013 682 66.1481 1155.75 559.641
1324 0 56.1689 13.5662 762 64.0407 1155.73 560.34
1325 0 56.1711 12.4619 700 65.24 1155.15 561.306
1326 0 58.1892 13.0952 762 64.5709 1155.54 557.122
1327 0 62.138 14.162 880 62.3432 1155.29 557.976
1328 0 62.1021 12.9947 807 64.0421 1155.41 556.404
1329 0 65.1518 13.4148 874 63.1602 1155.46 555.396
1330 0 66.0927 12.543 829 64.2087 1155.57 553.323
1331 0 68.104 13.3032 906 63.0265 1155.49 551.532
1332 0 71.0956 12.9685 922 61.3926 1155.06 552.235
1333 1 37.0787 10.4642 388 63.6856 1153.91 569.82
1334 0 37.0787 10.9497 406 65.2759 1154.53 569.823
1335 0 38.0455 12.3011 468 64.1389 1154.26 568.895
1336 0 40.0502 12.5592 503 62.998 1154.25 566.624
1337 0 40.0394 12.163 487 63.9487 1153.99 567.101
1338 0 39.0414 11.9873 468 64.7073 1154.03 566
1339 0 42.055 12.5788 529 62.69 1154.44 565.233
1340 0 42.0271 12.0637 507 63.4063 1154.24 565.665
1341 0 45.0553 12.1184 546 62.6465 1154.21 565.141
1342 0 45.0719 12.713 573 61.8185 1155.77 564.431
1343 0 47.0511 11.8594 558 63.2437 1155.06 562.142
1344 0 48.1354 12.7141 612 61.3154 1154.58 563.645
1345 0 49.092 12.9553 636 61.6069 1154.75 562.646
1346 0 50.1727 12.8157 643 61.367 1154.6 563.733
1347 0 51.2186 12.4369 637 62.4882 1154.6 560.673
1348 0 53.1184 13.1969 701 61.8388 1154.76 559.969
1349 0 56.0877 12.8727 722 61.4861 1154.26 561.22
1350 0 55.1502 12.4025 684 63.3874 1153.89 558.696
1351 0 57.1233 12.3417 705 63.2567 1153.38 558.952
1352 0 60.1541 13.6483 821 61.4555 1153.63 557.16
1353 0 60.1187 12.5252 753 63.7025 1153.14 556.745
1354 0 63.109 12.3754 781 63.9501 1153.18 557.88
1355 1 34.0156 10.1424 345 65.1536 1152.04 571.449
1356 0 33.051 11.1041 367 64.5613 1152.29 572.373
1357 0 33.0168 10.2069 337 67.178 1151.98 571.703
1358 0 36.0134 11.9955 432 63.0093 1152.57 571.796
1359 0 37.0198 11.2642 417 64.7938 1152.19 570.794
1360 0 36.2017 12.3199 446 64.5561 1153.46 569.242
1361 0 37.1456 12.2491 455 65.6505 1152.87 569.925
1362 0 39.2488 11.7965 463 66.7538 1152.97 570.635
1363 0 39.1945 11.966 469 67.6077 1152.7 568.631
1364 0 40.2699 11.1994 451 68.9623 1152.64 569.264
1365 0 41.2264 12.4435 513 68.3626 1152.6 568.788
1366 0 41.2631 12.8686 531 68.2806 1152.44 567.444
1367 0 44.2103 12.4858 552 67.9837 1152.63 568.159
1368 0 45.2473 12.509 566 67.9064 1151.92 567.712
1369 0 44.2521 12.5418 555 68.964 1152.41 566.027
1370 0 46.1286 12.9638 598 68.7776 1152.56 565.938
1371 0 49.2438 13.0575 643 67.7185 1152.9 565.888
1372 0 49.2124 13.0658 643 68.4743 1152.16 565.754
1373 0 52.2058 12.7189 664 68.5166 1152.57 563.595
1374 0 51.216 12.9061 661 69.2179 1152.6 563.722
1375 0 53.1368 12.9101 686 69.0612 1152.97 563.461
1376 0 55.2495 13.2852 734 68.4223 1153.1 563.657
1377 0 57.1915 12.4844 714 69.8333 1153.28 561.251
1378 0 59.1116 13.6691 808 67.8057 1153.31 560.683
1379 0 59.1786 12.5552 743 69.9892 1153 559.092
1380 1 31.0595 10.9789 341 69.3284 1152.33 576.182
1381 0 31.0556 9.94988 309 70.7767 1152.55 575.214
1382 0 32.1515 10.4816 337 66.7181 1152.5 573.282
1383 0 33.0782 11.0345 365 66.4877 1152.45 572.838
1384 0 33.046 11.136 368 68.9728 1152.26 572.53
1385 0 36.0158 11.495 414 68.2415 1152.47 571.802
1386 0 36.1379 12.2863 444 68.2658 1153.2 570.775
1387 0 35.1242 11.7298 412 69.5874 1153.17 570.223
1388 0 39.1037 12.1728 476 67.5546 1153.31 568.592
1389 0 40.2596 12.2704 494 67.9555 1153.45 569.026
1390 0 40.3144 12.9978 524 66.9313 1153.87 568.788
1391 0 41.1544 12.7082 523 67.9178 1154 569.034
1392 0 45.0802 12.7329 574 66.7247 1154.57 567.544
1393 0 45.1084 13.0574 589 66.5705 1154.67 566.027
1394 0 45.0863 13.0416 588 66.6769 1154.84 567.389
1395 0 48.0702 13.2723 638 66.0862 1155.08 565.356
1396 0 49.1534 12.817 630 66.6889 1155.47 564.476
1397 0 49.1643 13.0379 641 66.468 1155.1 564.382
1398 0 51.1504 13.7047 701 65.6933 1155.71 563.327
1399 0 53.1497 13.302 707 65.9349 1155.73 562.99
1400 0 54.1905 12.4376 674 66.8412 1155.87 560.769
1401 0 56.245 13.0856 736 65.9742 1156.21 560.026
1402 0 57.0551 12.6019 719 66.9332 1156.23 559.232
1403 0 59.1171 13.1772 779 65.801 1156.17 558.499
1404 0 62.1761 13.124 816 65.0392 1156.48 557.854
1405 0 64.1961 13.6768 878 63.8178 1156.61 555.484
1406 0 65.5138 12.6233 827 64.1596 1157.09 556.244
1407 0 68.2057 12.7995 873 64.2703 1157.53 553.356
1408 0 71.4756 13.1653 941 62.8077 1158.27 553.092
1409 0 70.2835 13.3175 936 63.3771 1158.44 552.249
1410 0 73.5451 13.298 978 63.2382 1158.65 551.103
1411 0 73.3072 12.6045 924 64.4394 1158.91 550.031
1412 0 77.2234 13.325 1029 62.7425 1159.12 549.245
1413 0 79.5686 13.4349 1069 62.3761 1158.99 546.376
1414 0 82.4866 12.9839 1071 62.4024 1158.88 545.685
1415 0 84.4209 12.7694 1078 62.8896 1158.78 546.109
1416 0 84.4283 12.7209 1074 63.7132 1158.89 545.233
1417 1 46.1328 11.8788 548 62.3723 1159.11 564.69
1418 0 46.0971 12.4303 573 62.2845 1158.62 565.836
1419 0 48.0364 11.8452 569 62.8664 1158.4 563.722
1420 0 50.0851 12.5586 629 62.1224 1157.95 562.576
1421 0 51.0434 12.0878 617 62.517 1158.52 562.128
1422 0 51.0598 12.4364 635 63.8252 1159.1 559.858
1423 0 54.0459 13.359 722 61.9681 1159.3 560.312
1424 0 56.1525 14.2291 799 60.8348 1159.3 559.29
1425 0 56.1917 12.3684 695 63.1007 1158.95 558.626
1426 0 61.1113 13.2545 810 61.4481 1158.85 556.71
1427 0 60.056 13.8704 833 61.2953 1158.84 556.366
1428 0 62.2341 14.2205 885 60.8915 1159.12 554.703
1429 0 65.0733 13.3695 870 60.4586 1158.69 556.195
1430 0 67.0832 13.8634 930 60.486 1158.32 553.005
1431 0 68.0623 13.517 920 61.0402 1158.06 551.917
1432 0 70.2028 13.2188 928 61.3244 1157.44 551.665
1433 0 73.1843 13.7735 1008 60.6756 1157.53 551.737
1434 0 74.1425 13.3122 987 62.9007 1157.98 548.153
1435 0 79.1538 14.0865 1115 61.3426 1158.39 550.232
1436 0 82.0595 13.149 1079 62.861 1157.94 548.688
1437 0 85.1263 15.0247 1279 60.4832 1158.09 548.252
1438 1 42.1146 11.6587 491 65.9817 1158.18 565.289
1439 0 43.0599 12.2388 527 65.3643 1157.77 564.88
1440 0 45.0393 12.8776 580 63.5672 1157.28 564.091
1441 0 47.0889 13.3789 630 63.1317 1157.23 563.916
1442 0 47.0635 13.2162 622 63.6367 1157.19 563.27
1443 0 49.0827 13.6708 671 63.1416 1157.1 562.757
1444 0 50.0484 12.8076 641 64.1466 1156.67 561.963
1445 0 52.0142 14.15 736 61.9905 1156.37 560.542
1446 0 52.0604 12.0629 628 65.2803 1156.37 559.256
1447 0 56.0878 13.6393 765 62.1268 1156.68 560.333
1448 0 56.1178 14.2736 801 62.0549 1157.41 558.446
1449 0 58.0222 14.2359 826 61.4504 1157.12 556.058
1450 0 61.1565 13.6044 832 62.2536 1157.14 555.581
1451 0 64.1184 14.4576 927 60.7713 1156.9 555.572
1452 0 65.0973 13.7026 892 62.1558 1156.49 554.115
1453 0 66.0771 14.0139 926 61.8218 1156.11 554.599
1454 0 68.043 13.4915 918 62.6362 1156.4 554.603
1455 0 70.133 13.4601 944 63.3867 1155.93 551.512
1456 0 71.158 14.3062 1018 63.4361 1155.46 550.976
1457 0 75.1152 14.1915 1066 63.1154 1155.77 549.856
1458 0 76.1506 13.5784 1034 64.7553 1155.73 548.67
1459 0 78.0906 14.3167 1118 64.2558 1155.45 548.07
1460 0 82.1703 14.8229 1218 63.3892 1155.56 546.375
1461 0 85.0784 14.4925 1233 63.91 1155.23 546.035
1462 1 44.1335 10.8308 478 65.7636 1154.91 566.921
1463 0 47.0716 11.5994 546 65.6245 1155.29 563.709
1464 0 46.0208 10.995 506 66.2115 1154.46 564.492
1465 0 49.1257 12.2746 603 64.927 1154.51 562.297
1466 0 51.0808 11.844 605 65.5355 1154.3 561.929
1467 0 53.0839 12.9795 689 63.4717 1154.04 562.032
1468 0 53.0986 12.6934 674 64.3323 1154.15 559.577
1469 0 54.0882 12.5906 681 64.5844 1153.94 558.709
1470 0 57.1341 13.6171 778 63.1684 1154.11 557.081
1471 0 60.1044 12.5947 757 63.2563 1153.74 558.695
1472 0 61.0573 13.2499 809 63.22 1153.93 557.126
1473 0 62.0406 12.3951 769 64.407 1153.73 553.951
1474 0 65.0435 13.3295 867 63.1073 1153.67 554.682
1475 0 66.0835 12.8474 849 63.8127 1153.44 554.053
1476 0 68.0799 12.2209 832 64.732 1153.58 552.487
1477 0 70.219 12.6889 891 64.0067 1153.74 553.238
1478 0 73.1405 12.6469 925 63.6497 1153.73 549.755
1479 1 36.0839 11.2238 405 63.8963 1153.9 567.768
1480 0 36.0839 11.2793 407 159.491 1153.93 567.838
1481 0 41.0636 12.2736 504 61.4187 1153.62 567.44
1482 0 40.0769 11.8772 476 62.7563 1154.42 567.714
1483 0 42.0376 12.584 529 61.9036 1154.42 565.964
1484 0 42.0722 11.4565 482 63.0145 1154.02 565.909
1485 0 45.0495 12.6305 569 60.109 1153.81 567.397
1486 0 45.1512 12.2034 551 61.804 1154.09 566.407
1487 0 47.1341 12.4326 586 61.6877 1153.89 565.691
1488 0 47.066 11.3883 536 63.6063 1153.55 566.039
1489 0 49.0825 12.4688 612 61.7451 1153.76 564.103
1490 0 50.1628 12.2999 617 62.0454 1153.75 564.404
1491 0 52.1636 12.0966 631 62.3471 1153.84 563.407
1492 0 52.2964 12.4865 653 62.51 1153.89 561.401
1493 0 57.0708 13.0014 742 60.7938 1153.92 559.617
1494 0 57.1291 12.393 708 61.6977 1154 560.299
1495 0 58.1683 12.2747 714 63.1232 1153.42 559.326
1496 0 62.0689 13.3078 826 61.2264 1153.62 558.605
1497 0 63.0747 13.7773 869 61.122 1153.92 556.621
1498 0 64.2036 12.5227 804 63.3259 1154.54 556.101
1499 0 69.0841 13.8382 956 63.3525 1154.79 555.178
1500 0 70.2099 12.5481 881 66.277 1155.43 553.714
1501 1 36.029 9.7144 350 69.6857 1155.54 572.474
1502 0 36.0132 10.9127 393 69.402 1155.93 570.628
1503 0 38.0494 11.4325 435 69.5034 1156.48 569.345
1504 0 41.0371 12.0866 496 67.7621 1156.29 569.23
1505 0 41.0237 12.4806 512 69.5254 1156.04 567.67
1506 0 44.0742 11.8437 522 70.8563 1155.26 565.954
1507 0 42.0264 13.1584 553 70.3454 1155.49 565.693
1508 0 44.083 13.3612 589 69.8285 1155.44 565.083
1509 0 47.1919 13.1802 622 69.1511 1155.46 566.246
1510 0 48.0845 13.8298 665 69.4135 1155.43 563.91
1511 0 48.0219 13.7229 659 71.4492 1155.5 563.63
1512 0 48.1386 13.6896 659 72.0425 1156.25 562.605
1513 0 50.0543 13.785 690 72.7275 1156.46 562.999
1514 0 53.0447 13.3661 709 73.1171 1156.74 560.68
1515 0 54.0424 14.026 758 72.8575 1156.55 559.674
1516 0 55.1425 13.855 764 73.4005 1157.22 560.323
1517 0 58.1366 13.9843 813 73.1796 1157.54 558.38
1518 0 58.0662 13.8979 807 74.4238 1157.69 558.336
1519 0 59.0527 14.0891 832 75.0457 1157.89 557.078
1520 0 61.1141 14.3011 874 74.738 1157.49 556.699
1521 0 62.0772 14.4981 900 75.4078 1157.84 555.543
1522 0 66.0912 14.48 957 74.9164 1158.06 554.834
1523 0 66.2228 14.2247 942 76.3535 1158.26 553.139
1524 0 71.1693 14.1494 1007 75.3555 1158.75 551.479
1525 0 73.0976 14.6516 1071 73.8982 1159.14 551.181
1526 0 76.1678 14.56 1109 74.0514 1159.4 550.695
1527 0 76.1605 14.3644 1094 74.4771 1158.69 550.173
1528 0 79.195 13.814 1094 75.1828 1159.18 548.251
1529 1 40.0284 11.4169 457 78.2188 1159.45 566.182
1530 0 42.0814 11.9293 502 77.6116 1159.98 565.612
1531 0 41.0812 12.4631 512 77.9824 1159.6 565.246
1532 0 44.0176 11.7453 517 80.5184 1159.6 564.174
1533 0 47.0537 12.6451 595 78.1513 1159.91 563.113
1534 0 48.103 13.0761 629 77.5183 1159.96 563.574
1535 0 50.1233 12.8882 646 77.8297 1159.5 560.582
1536 0 52.2032 13.1601 687 76.3566 1159.6 561.089
1537 0 53.095 14.2198 755 74.755 1159.68 559.829
1538 0 55.186 13.4636 743 75.8964 1159.33 560.59
1539 0 56.2197 13.9987 787 74.6442 1159.54 558.84
1540 0 59.172 13.3678 791 74.7345 1158.97 556.863
1541 0 61.1997 13.4314 822 74.18 1158.73 556.034
1542 0 62.2393 13.6248 848 73.8797 1158.54 552.991
1543 0 66.2869 14.392 954 71.5692 1158.69 553.538
1544 0 65.1258 13.1745 858 73.8228 1158.83 552.136
1545 0 69.4456 13.5214 939 72.1885 1158.66 551.426
1546 0 72.1745 13.2457 956 72.341 1158.77 549.679
1547 1 38.3535 10.8204 415 72.0554 1158.55 567.178
1548 0 39.2789 10.3618 407 72.3292 1158.94 566.528
1549 0 42.2383 10.9853 464 71.3944 1158.6 564.599
1550 0 44.3149 11.9599 530 68.9434 1158.65 565.085
1551 0 44.1517 12.7741 564 68.7181 1158.37 563.089
1552 0 46.0645 12.4825 575 69.1391 1157.71 562.35
1553 0 44.188 12.0621 533 70.8687 1157.66 560.617
1554 0 47.2407 12.9973 614 68.4039 1157.36 561.197
1555 0 48.1129 11.9095 573 69.7452 1157.77 561.759
1556 0 51.0964 12.2514 626 69.2141 1157.62 558.875
1557 0 52.0732 12.6361 658 68.503 1157.03 560.008
1558 0 55.2182 12.9848 717 67.4338 1157.1 559.536
1559 0 54.3023 12.8724 699 69.3963 1157.31 556.818
1560 0 57.2462 13.2061 756 67.9616 1157.81 557.847
1561 0 58.1895 12.8202 746 68.9718 1157.4 557.385
1562 0 59.2216 12.3266 730 69.5616 1157.4 556.193
1563 0 61.2956 12.5131 767 69.4993 1156.82 554.482
1564 0 64.3386 12.6363 813 69.0713 1156.24 554.755
1565 0 65.4017 12.9813 849 68.9352 1156.06 551.062
1566 0 69.3032 12.7555 884 68.7217 1155.87 550.679
1567 0 72.2184 13.4315 970 68.1186 1155.77 551.146
1568 0 72.2317 12.4322 898 70.3018 1155.54 548.959
1569 0 76.2694 13.1639 1004 68.9373 1155.58 547.569
1570 0 79.3269 12.7321 1010 69.3921 1155.94 546.111
1571 0 81.3699 13.1375 1069 68.3405 1155.42 543.237
1572 1 44.2477 9.76321 432 68.8958 1155.62 563.713
1573 0 48.2634 12.0381 581 66.2358 1155.36 562.181
1574 0 49.1062 12.3406 606 65.7096 1155.34 563.36
1575 0 49.1013 11.4865 564 67.7642 1155.69 559.982
1576 0 50.3186 11.8048 594 67.5926 1156.23 559.354
1577 0 53.1822 11.8461 630 67.3556 1156.4 559.648
1578 0 55.1129 12.1024 667 67.2339 1156.86 558.43
1579 0 57.1495 12.4936 714 65.8165 1156.77 558.811
1580 0 59.1637 12.7443 754 66.2454 1155.81 558.141
1581 0 60.12 12.4251 747 67.1285 1155.59 555.867
1582 0 64.1743 12.5284 804 65.8507 1155.1 555.56
1583 0 64.2597 12.4028 797 66.3074 1155.11 555.833
1584 0 66.193 12.2672 812 66.335 1154.96 554.27
1585 0 69.1678 13.142 909 64.6073 1154.41 553.201
1586 0 71.2277 12.4951 890 66.0292 1154.9 550.828
1587 0 74.336 12.6856 943 65.5376 1154.79 549.89
1588 0 76.1692 12.2228 931 66.102 1154.79 549.797
1589 0 79.1515 12.2297 968 65.343 1154.82 548.698
1590 0 82.2559 12.838 1056 63.858 1154.81 547.212
1591 0 86.257 12.115 1045 64.778 1154.05 544.726
1592 0 87.2096 12.556 1095 64.5708 1153.65 542.618
1593 0 90.2318 12.3238 1112 64.9101 1153.7 538.863
1594 1 47.0377 11.055 520 62.9981 1152.58 562.498
1595 0 49.071 11.3916 559 62.1968 1153.26 561.757
1596 0 53.1486 11.6278 618 60.9935 1152.96 560.346
1597 0 53.0697 12.2104 648 60.1512 1153.28 560.474
1598 0 54.0819 12.0373 651 60.6052 1153.89 558.387
1599 0 55.0748 12.5647 692 59.6647 1154.37 559.658
1600 0 55.0748 12.6555 697 135.336 1154.41 559.608
1601 0 57.048 11.2011 639 61.6448 1154.29 558.117
1602 0 59.0764 11.3074 668 61.491 1154.6 557.455
1603 0 59.047 11.567 683 61.1947 1154.45 554.982
1604 0 63.0886 11.9039 751 60.2477 1154.62 554.001
1605 0 66.0697 11.9873 792 59.5568 1154.91 553.398
1606 0 68.1179 12.9188 880 58.3148 1154.52 551.119
1607 0 69.1783 12.9376 895 58.2637 1154.75 550.952
1608 0 71.0841 12.239 870 59.4368 1155.3 548.775
1609 0 73.0855 12.5059 914 59.0733 1155.55 546.815
1610 0 75.1235 13.2316 994 58.0352 1155.85 546.114
1611 0 79.0731 12.8615 1017 58.1406 1156.45 545.702
1612 0 81.0918 13.7992 1119 57.3727 1157.53 543.139
1613 0 83.3073 12.0758 1006 59.495 1157.75 541.518
1614 1 42.2599 10.1041 427 59.1194 1157.33 562.225
1615 0 43.191 10.2336 442 59.5181 1157.25 561.084
1616 0 47.1336 9.63219 454 59.5639 1157.54 559.661
1617 0 48.0719 11.1084 534 58.9401 1157.81 557.963
1618 0 49.0705 12.3496 606 57.7409 1158.15 557.002
1619 0 51.0478 11.7537 600 57.9517 1158.34 558.74
1620 0 53.0237 12.4095 658 57.3587 1159 558.153
1621 0 54.133 13.2821 719 56.6537 1159.24 555.2
1622 0 54.1006 12.9019 698 57.2908 1159.18 556.292
1623 0 58.0937 12.4971 726 56.6722 1159.44 556.131
1624 0 57.0514 12.9182 737 56.7924 1159.46 554.63
1625 0 61.0676 13.1657 804 55.9614 1159.37 551.954
1626 0 61.1315 13.0211 796 56.3455 1159.67 552.133
1627 0 63.1578 12.3659 781 57.3265 1159.73 550.402
1628 0 65.1399 12.312 802 57.101 1160.13 550.92
1629 0 66.1073 11.9654 791 58.1707 1160.29 548.028
1630 0 72.1026 12.191 879 56.9443 1160.49 547.547
1631 0 72.1298 11.9645 863 58.0742 1160.16 546.024
1632 0 75.1304 12.6047 947 57.774 1160.53 543.005
1633 0 77.1856 13.0594 1008 57.1567 1159.97 542.861
1634 0 80.0822 13.0116 1042 57.7447 1159.86 543.083
1635 0 82.159 11.9159 979 59.5373 1159.13 540.16
1636 0 85.0806 13.7869 1173 57.3163 1159.06 539.028
1637 1 46.0186 9.75693 449 59.7751 1158.76 559.844
1638 0 48.0395 11.4905 552 59.3841 1158.7 557.826
1639 0 49.0685 10.9846 539 59.5455 1159.5 558.178
1640 0 50.0381 12.1707 609 59.5501 1159.33 556.222
1641 0 52.0282 11.8782 618 58.7864 1159.37 555.508
1642 0 54.0209 12.4211 671 58.4173 1159.37 556.602
1643 0 55.1278 12.2624 676 59.2485 1159.39 553.504
1644 0 54.0496 12.6551 684 59.3348 1159.04 553.053
1645 0 57.0609 13.0562 745 58.5436 1159.82 553.156
1646 0 59.105 13.1123 775 58.7471 1159.63 554.099
1647 0 60.1196 12.4585 749 60.1709 1159.72 552.836
1648 0 61.1143 12.7139 777 60.2973 1159.6 549.99
1649 0 64.283 13.8917 893 58.3035 1158.93 552.031
1650 0 66.1164 13.3401 882 59.1689 1158.64 549.062
1651 0 66.1617 12.7113 841 60.7491 1158.15 548.146
1652 0 69.126 12.6147 872 60.7878 1158.11 546.837
1653 0 70.1291 12.5483 880 61.3409 1158.05 547.7
1654 0 76.1482 14.4061 1097 58.4366 1158.16 544.884
1655 0 76.1628 12.1319 924 62.0952 1157.88 544.938
1656 0 80.0935 13.9587 1118 59.7326 1157.89 542.728
1657 0 83.113 13.4516 1118 60.0519 1157.86 541.932
1658 0 86.236 12.6165 1088 60.6333 1157.75 541.191
1659 1 47.0287 9.41977 443 62.6795 1157.52 560.172
1660 0 52.0662 11.4277 595 59.3782 1157.23 561
1661 0 50.0319 11.2528 563 60.8348 1157.32 558.751
1662 0 55.0402 11.9186 656 59.2729 1157.67 558.718
1663 0 57.0315 13.2383 755 58.1497 1157.01 556.223
1664 0 58.0779 11.3813 661 60.1437 1156.7 557.073
1665 0 59.0416 12.0762 713 60.0645 1156.34 554.722
1666 0 62.0341 13.0896 812 58.4372 1156.61 553.881
1667 0 64.04 12.6327 809 57.5958 1156.96 553.428
1668 0 65.0333 12.5935 819 57.8828 1156.64 551.466
1669 0 67.0547 12.8552 862 57.1682 1156.57 550.196
1670 0 70.0514 12.9191 905 56.8796 1156.29 548.37
1671 0 71.1351 12.891 917 56.5856 1156.69 548.381
1672 0 75.0589 12.2038 916 57.2522 1156.24 548.25
1673 0 75.0505 12.5516 942 57.2187 1156.15 545.883
1674 0 77.1185 12.5651 969 57.5408 1156.01 544.609
1675 0 82.1312 13.2349 1087 56.127 1155.97 542.923
1676 0 85.0931 12.4099 1056 57.1108 1155.71 543.063
1677 0 88.0835 12.1362 1069 57.9486 1155.7 539.397
1678 0 91.1651 12.1647 1109 57.8161 1155.29 538.563
1679 1 47.0471 9.30982 438 59.016 1155.51 560.737
1680 0 51.047 11.7343 599 56.5175 1155.92 560.972
1681 0 52.091 11.5567 602 57.5449 1155.54 558.465
1682 0 56.111 13.3129 747 55.2276 1156.54 558.643
1683 0 56.0739 10.6288 596 59.0822 1156.29 557.913
1684 0 60.0661 12.3697 743 55.9838 1156.5 556.588
1685 0 59.072 12.307 727 56.4113 1155.51 556.12
1686 0 62.0602 13.4708 836 54.9342 1155.87 554.348
1687 0 60.0381 11.6426 699 58.382 1155.97 554.157
1688 0 64.0244 12.6046 807 57.2342 1155.34 553.387
1689 0 66.0941 14.0708 930 55.0462 1155.15 554.58
1690 0 68.0659 12.4879 850 57.1471 1154.95 552.027
1691 0 68.0645 12.1943 830 57.9072 1154.64 551.089
1692 0 73.0933 12.9971 950 56.4232 1154.26 550.051
1693 0 77.1368 13.5344 1044 55.8611 1154.27 548.372
1694 0 75.1046 12.2496 920 58.462 1154.63 546.004
1695 0 81.1046 14.0189 1137 54.9481 1154.99 546.161
1696 0 83.1774 13.5253 1125 55.4329 1156.05 545.189
1697 0 86.075 14.4525 1244 54.4952 1155.6 544.279
1698 0 90.0793 12.7554 1149 55.9539 1155.77 543.728
1699 0 90.1074 12.6072 1136 57.0211 1155.53 541.568
1700 1 50.0753 10.2845 515 57.4252 1154.97 561.852
1701 0 47.0185 10.6554 501 57.4212 1154.45 563.683
1702 0 51.0491 11.3812 581 57.0258 1154.67 561.74
1703 0 52.0318 11.1086 578 56.1471 1153.76 562.903
1704 0 53.0366 12.2934 652 55.7883 1153.16 560.436
1705 0 56.0756 12.1622 682 56.7361 1153.51 560.733
1706 0 57.0742 12.7028 725 56.4014 1155.01 559.982
1707 0 59.0786 13.5244 799 55.5845 1155.22 558.932
1708 0 59.266 12.9923 770 55.9558 1155.2 559.297
1709 0 61.0592 12.6598 773 56.4748 1155.42 558.072
1710 0 64.1693 12.4826 801 56.4607 1155.35 557.919
1711 0 67.0229 12.9508 868 55.0046 1155.48 555.551
1712 0 67.0999 13.547 909 55.0968 1155.59 554.04
1713 0 68.0628 12.4591 848 56.0825 1155.21 554.625
1714 0 72.0418 13.3672 963 55.1215 1154.82 551.856
1715 0 73.0786 13.0681 955 55.7853 1154.74 550.497
1716 0 75.1267 13.4706 1012 55.1067 1154.83 551.569
1717 0 77.1051 13.2028 1018 56.111 1155.33 549.287
1718 0 80.0594 13.1153 1050 55.6895 1155.4 548.068
1719 0 85.0495 14.4974 1233 53.2749 1155.54 548.384
1720 0 84.0415 14.3025 1202 54.7063 1155.88 546.11
1721 1 46.0249 10.1684 468 56.5769 1155.38 567.113
1722 0 48.0589 10.8617 522 56.4272 1155.69 565.121
1723 0 50.1171 11.533 578 56.1332 1156.01 564.346
1724 0 51.0655 12.1608 621 54.7343 1156.27 564.013
1725 0 52.1878 12.6083 658 55.7842 1156.34 562.398
1726 0 53.2279 11.8171 629 56.9237 1155.99 562.563
1727 0 54.0747 12.4272 672 57.3557 1156.03 560.731
1728 0 57.1039 12.7837 730 56.4712 1156.26 559.508
1729 0 57.1103 13.3951 765 56.0353 1156.49 557.426
1730 0 59.1129 13.0598 772 56.4961 1156.52 556.522
1731 0 59.1144 13.4316 794 56.5491 1156.31 555.451
1732 0 62.1595 13.4653 837 55.9881 1157.52 554.798
1733 0 64.0747 13.5623 869 55.4062 1157.15 556.359
1734 0 66.1088 14.1282 934 55.5857 1157.27 553.204
1735 0 67.0993 12.6231 847 57.5691 1157.67 552.492
1736 0 70.0993 13.6093 954 56.2673 1157.26 551.891
1737 0 72.1642 13.7603 993 55.4703 1158.13 549.19
1738 0 74.0999 13.9676 1035 54.8696 1158.33 549.818
1739 0 77.1738 14.3572 1108 54.5903 1158.53 549.599
1740 0 80.3224 13.894 1116 55.5421 1158.44 546.407
1741 0 82.1342 12.3822 1017 57.3904 1158.89 545.722
1742 1 43.078 11.839 510 54.5588 1158.94 565.814
1743 0 44.04 11.3533 500 56.148 1158.78 563.084
1744 0 44.0277 10.9704 483 58.4037 1159.37 561.638
1745 0 48.074 11.9399 574 57.3293 1159.24 560.638
1746 0 48.0398 12.9684 623 56.7014 1159.24 559.141
1747 0 52.0373 13.548 705 55.2397 1159.24 557.999
1748 0 52.0572 14.0999 734 55.0708 1159.75 557.631
1749 0 55.0892 13.1786 726 55.8815 1160.09 557.537
1750 0 56.0562 14.0573 788 55.2817 1160.53 555.855
1751 0 56.279 13.1843 742 57.0391 1160.96 555.524
1752 0 58.0867 13.8242 803 56.2989 1161.55 555.389
1753 0 57.0773 13.3328 761 57.8003 1161.35 553.401
1754 0 61.0264 13.4532 821 57.5104 1161.14 553.761
1755 0 63.0301 13.5808 856 57.4065 1160.66 553.025
1756 0 63.0884 13.0927 826 58.6864 1160.8 551.268
1757 0 66.1012 13.5398 895 57.9631 1160.5 551.723
1758 0 68.077 14.7774 1006 56.8648 1160.24 549.861
1759 0 71.048 14.5535 1034 56.5648 1160.44 550.697
1760 0 71.0478 13.1179 932 59.8852 1160.57 545.849
1761 0 74.125 13.855 1027 58.7264 1160.41 547.171
1762 0 78.0539 14.3619 1121 58.1971 1160.48 546.494
1763 0 80.0794 13.1245 1051 60.4225 1160.26 545.234
1764 1 44.0243 11.3801 501 61.7884 1160.05 560.725
1765 0 45.0236 10.1947 459 63.4793 1160.05 561.512
1766 0 46.0401 12.0547 555 61.5387 1160.05 559.703
1767 0 48.0198 12.7447 612 60.1814 1159.98 560.002
1768 0 50.0135 12.8565 643 60.9549 1160 559.656
1769 0 51.0606 12.0641 616 62.125 1159.58 559.065
1770 0 51.0311 13.7563 702 61.3846 1159.71 556.571
1771 0 54.0375 13.1945 713 61.4741 1159.46 556.161
1772 0 56.0907 13.3534 749 62.1602 1159.44 556.096
1773 0 58.0193 12.8061 743 62.9758 1159.05 556.009
1774 0 58.0155 12.9276 750 63.74 1158.96 554.099
1775 0 62.056 14.2774 886 61.3284 1158.96 553.553
1776 0 63.0443 15.3702 969 58.6894 1158.36 553.039
1777 0 65.0348 14.5768 948 59.1477 1158.32 553.055
1778 0 67.0149 14.3102 959 59.9114 1158.08 552.447
1779 0 69.0472 13.9904 966 61.4431 1157.84 548.807
1780 0 70.078 13.485 945 62.5672 1158.01 549.231
1781 0 74.043 13.7488 1018 62.0855 1157.9 548.001
1782 0 75.0636 13.7217 1030 62.4359 1158.15 546.529
1783 0 78.0961 13.6883 1069 62.0861 1158.23 546.209
1784 0 82.0912 14.8128 1216 59.8281 1157.62 544.963
1785 0 83.2247 14.0944 1173 61.3359 1157.99 544.182
1786 0 84.0728 14.761 1241 61.0073 1158.17 543.547
1787 0 87.1011 14.443 1258 61.5509 1157.69 542.543
1788 0 90.058 15.2013 1369 60.9438 1157.4 540.687
1789 1 46.1118 10.995 507 65.1913 1156.74 563.083
1790 0 48.067 10.9847 528 65.9754 1156.05 561.015
1791 0 49.052 12.3338 605 64.6099 1155.95 561.894
1792 0 51.0154 12.8 653 64.4089 1156.12 560.064
1793 0 54.0278 13.5486 732 62.8183 1156.18 560.417
1794 0 53.0511 14.4766 768 62.4258 1156.72 560.415
1795 0 58.0122 14.359 833 61.6146 1156.91 558.629
1796 0 59.0633 13.3585 789 63.4601 1156.36 558.15
1797 0 61.0655 13.1989 806 63.9442 1156.52 556.089
1798 0 63.1132 14.7671 932 61.6695 1156.52 556.707
1799 0 64.1392 13.8605 889 63.2047 1156.53 555.425
1800 0 67.2035 14.1659 952 62.5158 1156.64 553.761
1801 0 69.0392 13.6155 940 63.3968 1156.46 553.231
1802 0 70.1071 13.3225 934 63.652 1156.58 552.052
1803 0 73.2299 14.038 1028 62.7043 1156.17 550.639
1804 0 76.207 14.3819 1096 62.1004 1155.98 551.238
1805 1 42.1563 13.1416 554 63.3213 1155.65 567.236
1806 0 43.1607 13.1601 568 63.2306 1155.37 567.452
1807 0 44.062 12.3008 542 65.3542 1155.35 565.055
1808 0 46.1834 14.096 651 62.4455 1155.49 563.479
1809 0 48.1055 13.8653 667 62.6912 1155.9 562.657
1810 0 49.1537 16.4789 810 59.2963 1155.7 562.007
1811 0 50.2525 14.8649 747 60.8072 1155.7 562.787
1812 0 53.2773 13.6456 727 62.5598 1156.37 559.63
1813 0 54.2796 14.7938 803 60.0012 1156.33 559.303
1814 0 56.1914 14.6286 822 60.6375 1156.62 556.427
1815 0 55.178 14.5348 802 61.1858 1156.43 556.411
1816 0 57.2693 15.1041 865 60.7145 1156.46 557.047
1817 0 61.3509 14.8164 909 60.5424 1156.48 555.039
1818 0 61.1179 15.3965 941 60.0414 1156.08 551.854
1819 0 64.2974 15.0084 965 60.3472 1156.16 551.252
1820 0 65.2671 14.3564 937 61.46 1156.21 550.835
1821 0 68.1631 16.4165 1119 58.4942 1156.19 549.985
1822 0 69.2255 13.9977 969 61.7245 1156.14 549.126
1823 0 73.2718 15.463 1133 59.2868 1156.8 548.712
1824 0 75.457 14.9224 1126 60.4432 1157.44 547.448
1825 0 77.472 14.2245 1102 61.0209 1157.24 546.476
1826 0 81.4073 14.7775 1203 59.9975 1157.52 544.362
1827 1 37.4242 12.6656 474 63.2321 1157.11 564.671
1828 0 39.3718 13.3598 526 62.346 1157.13 563.131
1829 0 41.3377 13.8856 574 61.7997 1157.33 561.427
1830 0 43.3694 13.5579 588 61.9218 1157.35 561.427
1831 0 45.4979 14.1984 646 60.8932 1157.43 560.378
1832 0 46.6357 15.353 716 59.4846 1157.79 559.571
1833 0 49.5666 15.232 755 59.1483 1158.08 558.042
1834 0 51.5038 15.1833 782 58.9488 1158.49 557.008
1835 0 53.4732 15.9145 851 58 1158.61 556.363
1836 0 54.4454 15.1712 826 58.4685 1158.35 556.69
1837 0 57.4262 15.1499 870 57.8069 1158.81 555.343
1838 0 59.7122 15.8929 949 56.4752 1159.12 553.602
1839 0 61.4861 15.0115 923 57.3554 1159.06 552.801
1840 0 63.7176 15.6472 997 56.5226 1159.3 551.458
1841 0 66.39 14.9571 993 56.7221 1159.35 551.247
1842 0 67.2753 14.2995 962 57.7661 1159.48 547.559
1843 0 72.3457 15.0527 1089 55.9991 1159.85 547.309
1844 0 75.406 14.6673 1106 56.5859 1160.42 545.566
1845 1 37.3177 11.5495 431 58.7749 1161.15 562.617
1846 0 41.3664 12.2805 508 58.0492 1161.26 562.134
1847 0 41.453 11.7965 489 58.636 1161.43 561.266
1848 0 43.5232 12.8207 558 57.3208 1161.26 559.692
1849 0 43.4089 13.3383 579 57.5613 1161.77 559.753
1850 0 47.2557 13.6915 647 56.3277 1161.09 558.478
1851 0 48.4107 14.5835 706 55.4858 1160.75 555.135
1852 0 50.2797 13.1862 663 57.0392 1160.82 554.824
1853 0 52.3141 14.4512 756 54.168 1161.43 553.964
1854 0 54.3961 15.6077 849 52.7597 1161.62 552.041
1855 0 55.3335 13.6807 757 55.1202 1161.31 551.251
1856 0 57.468 13.2596 762 55.2113 1161.12 550.877
1857 0 54.2618 13.2137 717 56.6709 1160.56 549.618
1858 0 60.5544 14.1526 857 53.937 1161.18 551.371
1859 0 62.1793 13.0429 811 55.5253 1160.78 550.552
1860 0 65.2299 14.3646 937 54.191 1160.63 548.492
1861 0 66.213 14.3778 952 54.4664 1160.24 546.938
1862 0 66.1133 14.0819 931 55.5317 1159.85 548.034
1863 0 70.153 14.1975 996 54.8163 1160.2 546.981
1864 0 76.1068 15.2286 1159 52.8464 1159.84 548.957
1865 0 75.1257 13.9233 1046 55.7533 1159.43 544.108
1866 0 76.2315 14.2198 1084 55.9511 1159.13 544.978
1867 0 81.1914 15.1494 1230 54.5171 1158.84 543.502
1868 0 82.0517 15.1734 1245 55.1494 1158.65 541.378
1869 0 84.095 14.2339 1197 56.518 1158.39 540.653
1870 0 88.1394 16.1108 1420 53.9493 1157.97 539.548
1871 0 90.1103 13.317 1200 56.6083 1158.42 538.212
1872 0 92.1323 14.4141 1328 55.7756 1158.07 537.307
1873 0 97.2528 14.5908 1419 55.6195 1157.97 535.758
1874 0 100.195 14.2523 1428 55.8922 1158.09 534.682
1875 0 104.082 15.7856 1643 54.0834 1157.42 533.517
1876 0 107.287 13.9718 1499 56.2668 1156.75 530.833
1877 0 111.216 15.5283 1727 54.3671 1157.47 528.488
1878 1 58.1307 10.2872 598 58.9632 1157.28 552.93
1879 0 63.2195 10.9143 690 57.6043 1157.51 552.335
1880 0 63.2195 11.1833 707 170.604 1157.53 552.516
1881 0 66.2749 12.2822 814 56.1929 1158.17 551.78
1882 0 68.243 13.1296 896 55.6496 1157.61 551.298
1883 0 70.1158 12.4223 871 57.0011 1157.39 550.408
1884 0 73.2889 13.4263 984 56.5183 1157.54 548.728
1885 0 75.1466 12.9746 975 57.3467 1157.82 546.111
1886 0 78.1242 12.3905 968 58.1353 1157.25 543.69
1887 0 81.2036 12.8196 1041 57.9654 1157.23 543.459
1888 0 82.3278 13.0576 1075 57.9079 1157.22 541.357
1889 0 85.138 13.2726 1130 58.0487 1157.04 541.172
1890 0 86.3331 12.9498 1118 58.9097 1156.76 538.831
1891 0 90.1324 13.5135 1218 58.1478 1156.83 538.117
1892 0 93.1754 13.5658 1264 58.144 1156.68 536.706
1893 0 95.1155 12.5847 1197 59.4912 1157.13 535.213
1894 1 53.0332 9.35263 496 58.004 1156.45 558.579
1895 0 55.1299 10.1034 557 57.4057 1156.96 556.443
1896 0 55.1062 9.30929 513 58.2788 1157.51 556.731
1897 0 57.0631 10.2168 583 57.3208 1157.49 556.153
1898 0 59.113 10.8436 641 57.6833 1158.46 552.977
1899 0 60.0785 10.8192 650 57.5508 1157.73 553.626
1900 0 65.2483 12.1382 792 55.3207 1157.49 554.665
1901 0 69.0714 12.5667 868 53.7995 1156.96 553.668
1902 0 69.0594 11.9318 824 55.1201 1156.83 550.968
1903 0 71.0661 12.2281 869 54.4707 1156.08 550.212
1904 0 73.0914 11.383 832 55.2332 1155.74 550.535
1905 0 76.06 11.4383 870 54.8885 1155.29 549.748
1906 0 77.1435 11.1351 859 55.9139 1154.64 546.162
1907 0 81.2055 11.748 954 54.9769 1154.56 544.213
1908 0 82.2147 10.7402 883 56.0351 1154.46 548.52
1909 1 43.0936 9.25892 399 54.7118 1153.62 567.203
1910 0 44.1468 9.9441 439 53.8155 1153.26 565.043
1911 0 44.1494 10.1474 448 54.0022 1153.14 565.904
1912 0 43.0283 9.71454 418 55.1579 1154.74 565.72
1913 0 46.0342 10.1229 466 54.1953 1154.94 565.747
1914 0 46.0444 10.8591 500 54.058 1154.57 563.916
1915 0 47.0793 10.323 486 55.037 1153.99 563.593
1916 0 50.0464 11.7691 589 53.4516 1154.17 561.244
1917 0 53.0399 11.5008 610 53.3885 1153.14 562.039
1918 0 54.0677 10.2279 553 56.123 1152.79 560.606
1919 0 56.0688 11.3789 638 54.8448 1153.25 559.734
1920 0 57.1194 12.3251 704 53.8849 1154.47 559.065
1921 0 57.0479 10.4123 594 56.4226 1153.7 560.135
1922 0 60.2751 10.7507 648 56.2191 1153.07 559.097
1923 0 61.2544 10.4482 640 57.1625 1153.16 557.125
1924 0 61.3194 10.8122 663 57.3906 1153.27 554.673
1925 0 62.2179 11.1061 691 57.2648 1153.43 553.757
1926 0 67.1037 12.1454 815 55.4712 1153.49 554.196
1927 0 68.2325 10.259 700 57.81 1153.03 553.959
1928 0 72.2554 11.6254 840 56.8643 1153.33 550.555
1929 0 73.2344 12.1254 888 56.6318 1153.26 549.83
1930 0 74.1852 11.0669 821 58.0853 1153.06 550.553
1931 0 81.3301 12.9472 1053 55.0057 1153.17 549.323
1932 1 42.1425 10.2747 433 55.7737 1153.09 569.566
1933 0 46.096 10.4998 484 54.907 1153.46 568.628
1934 0 43.1825 9.74933 421 57.2257 1153.76 568.285
1935 0 47.0388 11.4374 538 54.9201 1153.7 566.79
1936 0 48.0763 11.2946 543 55.2597 1154.28 566.517
1937 0 47.0309 11.3542 534 55.3296 1154.36 565.824
1938 0 50.0257 12.5136 626 53.9904 1154.39 564.145
1939 0 50.0241 11.8543 593 55.4553 1154.59 565.4
1940 0 51.0424 11.5198 588 56.2551 1154.2 564.196
1941 0 53.0418 11.2553 597 56.6868 1154.87 563.146
1942 0 55.0998 12.7587 703 54.7354 1154.58 562.67
1943 0 54.0464 12.5448 678 56.1401 1154.67 560.566
1944 0 57.0674 12.126 692 54.4205 1154.96 561.415
1945 0 59.0237 12.3001 726 54.708 1155.02 559.574
1946 0 61.0399 13.2864 811 53.6991 1155.06 558.572
1947 0 61.0909 12.2932 751 55.49 1153.75 558.877
1948 0 62.1954 11.7372 730 56.3055 1153.98 557.727
1949 0 64.301 12.8925 829 54.6659 1153.97 555.916
1950 0 66.0811 12.0912 799 55.7697 1154.3 552.875
1951 0 69.18 12.4892 864 54.8576 1154.4 554.468
1952 0 73.1301 12.0881 884 55.3462 1154.63 552.691
1953 0 73.1944 12.3917 907 55.7872 1154.92 551.246
1954 1 39.0985 9.84693 385 56.2805 1156.04 569.6
1955 0 39.2436 9.91244 389 56.9769 1156.06 567.941
1956 0 42.0872 11.096 467 55.8887 1155.74 565.587
1957 0 44.1069 11.6308 513 54.7407 1155.94 563.992
1958 0 46.1178 12.1862 562 53.4057 1156.74 565.968
1959 0 45.0482 11.2324 506 55.2905 1157.39 563.287
1960 0 47.1192 11.9696 564 54.2181 1157.07 562.241
1961 0 50.2025 11.3739 571 54.4991 1156.91 562.657
1962 0 52.2189 12.0455 629 53.849 1156.96 562.075
1963 0 53.0907 12.8648 683 53.2606 1157.11 561.056
1964 0 52.1209 12.5477 654 54.5765 1157.21 559.602
1965 0 55.073 12.3109 678 54.4558 1156.98 558.236
1966 0 58.1209 12.56 730 54.3849 1157.28 557.895
1967 0 58.1747 12.6687 737 54.787 1157.68 557.406
1968 0 60.175 12.5301 754 53.9456 1158.16 556.89
1969 0 60.0916 11.9318 717 55.59 1158.06 553.505
1970 0 61.1101 12.1093 740 55.9676 1158.74 553.303
1971 0 65.0641 12.6798 825 55.1042 1158.73 553.211
1972 0 68.1101 13.1111 893 54.2766 1158.79 551.311
1973 0 68.0938 12.6003 858 54.7844 1158.8 551.179
1974 0 73.0714 13.4936 986 53.07 1159.36 549.766
1975 0 74.115 12.8314 951 54.3722 1159.53 548.388
1976 0 75.2089 10.8498 816 56.4412 1159.72 546.172
1977 0 80.092 11.9488 957 54.7753 1160.36 545.991
1978 0 82.1112 12.4709 1024 54.3652 1159.91 542.066
1979 0 81.1558 11.6319 944 55.6186 1160.51 543.21
1980 1 47.0245 10.1011 475 55.3095 1160.75 561.248
1981 0 48.04 11.9692 575 54.2852 1160.73 558.943
1982 0 51.0445 12.1071 618 53.9693 1161.18 558.83
1983 0 51.1609 11.6104 594 54.2104 1159.68 560.16
1984 0 53.153 12.0407 640 54.0734 1159.9 558.959
1985 0 54.1429 14.2401 771 51.5888 1159.73 556.957
1986 0 54.1541 11.615 629 54.663 1159.81 557.262
1987 0 57.1339 12.707 726 53.4904 1159.66 556.421
1988 0 58.1251 12.2839 714 54.007 1159.53 554.882
1989 0 61.137 12.6437 773 53.0944 1159.29 555.493
1990 0 62.0663 12.245 760 53.3671 1159.16 553.754
1991 0 64.2147 12.6762 814 53.0197 1159.73 551.227
1992 0 66.1947 12.01 795 53.444 1160.11 552.366
1993 0 70.2291 14.6093 1026 50.0955 1159.81 549.677
1994 0 71.2194 12.7634 909 52.3245 1159.17 549.648
1995 0 72.2061 13.323 962 52.0915 1159.15 547.498
1996 1 37.0118 10.5912 392 53.3673 1160.34 564.798
1997 0 38.025 10.5983 403 53.8586 1160.03 564.154
1998 0 39.0763 11.8486 463 51.7279 1159.75 564.693
1999 0 40.1037 11.595 465 51.9419 1159.35 563.443
2000 0 42.0875 12.1414 511 51.0861 1159.42 561.978
2001 0 42.0284 14.0619 591 49.3519 1159.35 562.827
2002 0 42.0407 11.251 473 53.2114 1158.97 562.397
2003 0 43.1202 11.5955 500 53.558 1159.2 560.778
2004 0 42.0416 11.774 495 54.7475 1158.76 559.471
2005 0 47.0718 12.3003 579 53.5371 1158.56 560.142
2006 0 48.0594 12.2349 588 53.3333 1157.06 560.604
2007 0 48.0524 12.7153 611 53.5008 1157.06 560.347
2008 0 50.1454 12.8227 643 53.2659 1157.19 559.361
2009 0 51.0805 13.7038 700 52.6186 1156.68 557.937
2010 0 51.033 11.9531 610 55.3328 1157.22 558.408
2011 0 55.0936 14.3937 793 51.6078 1157.97 558.406
2012 0 55.1601 12.7628 704 53.6264 1157.81 558.688
2013 0 56.2386 12.7315 716 53.7318 1158.31 558.338
2014 0 57.0907 13.2596 757 53.9498 1157.9 556.514
2015 0 60.1062 13.2931 799 53.2253 1157.77 558.013
2016 0 60.1204 12.9573 779 53.9653 1157.35 554.716
2017 0 64.1113 13.2426 849 53.0365 1157.43 555.498
2018 0 65.0443 13.2525 862 52.8016 1157.85 554.735
2019 0 66.087 11.7572 777 54.9575 1157.02 552.654
2020 0 69.1374 12.5113 865 53.9214 1157.18 552.465
2021 0 72.0705 12.7514 919 52.7682 1157.04 551.533
2022 1 42.0243 11.4933 483 52.8613 1157.02 566.803
2023 0 42.0085 11.0692 465 55.3484 1157.47 563.71
2024 0 44.0365 11.2861 497 54.996 1157.52 565.483
2025 0 45.0348 11.2357 506 55.3399 1158.42 562.921
2026 0 44.0458 11.1475 491 55.0631 1158.05 563.045
2027 0 47.0197 12.2289 575 53.5443 1158.29 562.779
2028 0 46.0838 11.8046 544 54.8051 1156.42 562.013
2029 0 47.0456 10.8193 509 55.9725 1156.39 562.749
2030 0 52.0854 11.7307 611 53.7283 1156.09 562.336
2031 0 54.0566 12.4499 673 53.7608 1156.15 560.235
2032 0 55.062 13.1307 723 53.2877 1156.63 560.739
2033 0 55.0923 11.7621 648 56.0525 1156.23 560.787
2034 0 58.0459 12.3867 719 54.8901 1156.02 560.129
2035 0 59.0397 13.4994 797 54.7616 1155.61 558.194
2036 0 60.0757 13.8492 832 54.6178 1155.71 558.496
2037 0 61.1384 12.6434 773 56.8448 1155.39 556.314
2038 0 65.0632 14.3245 932 53.9506 1155.45 554.486
2039 0 68.1281 13.2398 902 54.8692 1155.08 553.723
2040 0 69.0748 13.8545 957 54.1714 1155.26 554.108
2041 1 36.0132 11.0237 397 57.1839 1155.62 569.723
2042 0 38.0143 11.3641 432 56.7801 1155.52 569.597
2043 0 39.1056 11.9164 466 56.4077 1154.95 568.914
2044 0 41.1156 12.3311 507 55.4517 1155.05 568.568
2045 0 41.1346 12.1795 501 55.485 1155.24 568.701
2046 0 42.0219 13.255 557 55.9228 1155.72 567.018
2047 0 44.0758 12.5466 553 56.2224 1155.75 566.946
2048 0 45.1914 11.8164 534 57.5375 1156.03 566.863
2049 0 47.1967 13.0094 614 56.158 1155.45 567.275
2050 0 46.1147 12.9677 598 57.5686 1155.39 565.445
2051 0 47.0813 12.9988 612 58.0507 1154.45 565.02
2052 0 48.1091 13.2615 638 58.185 1154.83 564.183
2053 0 49.1337 12.5983 619 61.4847 1154.73 564.01
2054 0 52.0561 13.351 695 60.5626 1154.34 563.099
2055 0 53.058 13.5324 718 60.5209 1154.85 562.327
2056 0 51.0943 13.4849 689 62.1437 1154.77 560.688
2057 0 53.1815 12.8616 684 63.5029 1154.53 563.142
2058 0 57.1313 13.4777 770 62.0597 1154.53 563.41
2059 0 56.1496 13.6243 765 63.4745 1154.59 561.664
2060 0 60.1344 13.8856 835 62.4012 1154.46 560.274
2061 0 60.1028 14.026 843 63.2254 1154.58 559.216
2062 0 64.1815 13.8358 888 62.9336 1153.86 559.176
2063 0 64.1947 13.241 850 64.6847 1153.85 557.954
2064 0 68.1064 14.0222 955 62.9372 1153.65 557.93
2065 0 72.0997 14.7712 1065 61.5596 1153.93 555.877
2066 1 35.1408 12.0088 422 65.1682 1153.96 572.872
2067 0 37.3084 11.3379 423 67.3475 1154.36 571.352
2068 0 40.2676 11.6967 471 66.4777 1153.52 570.635
2069 0 42.1503 13.3807 564 63.9415 1154.62 569.454
2070 0 42.1231 12.9858 547 65.2303 1154.41 569.667
2071 0 43.0772 13.3713 576 66.6858 1154.97 567.585
2072 0 42.0702 12.6455 532 69.2688 1154.6 566.733
2073 0 46.1906 13.5309 625 67.2224 1155.05 566.627
2074 0 46.1033 13.4698 621 68.1997 1155.19 567.129
2075 0 47.0429 13.4133 631 68.0697 1154.51 566.384
2076 0 48.0692 13.2933 639 68.338 1154.81 566.958
2077 0 50.2055 13.7037 688 68 1155.4 565.209
2078 0 52.1351 13.9254 726 67.6928 1155.36 563.175
2079 0 54.0682 13.8344 748 67.7473 1155.45 563.241
2080 0 53.0859 14.0715 747 68.6426 1155.43 562.746
2081 0 56.0511 14.4333 809 67.9815 1155.01 560.958
2082 0 57.0261 13.6253 777 69.8662 1155.59 560.408
2083 0 59.0455 14.582 861 68.0325 1155.98 558.717
2084 0 60.0399 14.4237 866 68.6744 1156.2 557.585
2085 0 63.0893 14.7252 929 67.7244 1156.38 556.06
2086 0 65.0975 14.7317 959 67.8467 1156.51 555.138
2087 0 66.0647 14.1074 932 69.0172 1156.61 555.473
2088 0 71.1052 15.5825 1108 66.2635 1156.59 553.427
2089 0 70.0616 13.9877 980 69.7622 1156.58 551.139
2090 0 74.1334 14.7842 1096 68.167 1156.71 550.563
2091 0 75.0913 15.1283 1136 68.1664 1156.56 549.592
2092 1 39.0195 12.5322 489 71.2004 1157.12 567.417
2093 0 41.0301 11.0407 453 72.9051 1157.27 565.927
2094 0 45.0222 12.8381 578 69.7907 1157.56 565.377
2095 0 46.0403 14.1615 652 68.8589 1157.79 563.233
2096 0 45.128 13.5393 611 70.437 1157.74 562.653
2097 0 47.0502 13.645 642 70.338 1158.1 561.773
2098 0 50.0277 13.3126 666 70.1306 1157.51 561.066
2099 0 50.0842 13.1778 660 70.497 1158.02 560.121
2100 0 51.0585 13.0439 666 71.1486 1157.86 559.156
2101 0 55.0907 14.1948 782 67.8325 1157.81 560.79
2102 0 58.1168 14.9182 867 66.6932 1158.13 557.859
2103 0 59.0405 14.0243 828 68.3056 1158.02 557.248
2104 0 62.0884 14.2055 882 67.3617 1158.62 555.183
2105 0 62.0562 13.1494 816 69.3971 1158.94 554.137
2106 0 65.1667 13.9642 910 66.9527 1159.73 554.08
2107 0 65.1687 12.951 844 69.2382 1159.8 551.207
2108 0 69.088 13.9822 966 67.5445 1160.14 550.298
2109 0 70.0999 13.0813 917 68.7634 1160.23 548.81
2110 0 75.1131 14.4449 1085 65.5253 1160.49 547.538
2111 0 77.1332 14.1962 1095 65.7507 1160.46 546.098
2112 0 79.1589 13.4413 1064 66.9135 1160.78 543.761
2113 0 83.2029 14.3625 1195 64.8025 1160.58 544.467
2114 0 84.1037 13.8638 1166 65.3688 1160.72 543.178
2115 1 44.0495 11.3509 500 66.084 1159.86 561.484
2116 0 45.0119 10.5305 474 66.0654 1159.74 561.338
2117 0 49.0136 11.9967 588 62.9524 1159.64 560.94
2118 0 50.0138 11.6968 585 63.2872 1159.64 560.159
2119 0 52.0974 12.5534 654 62.6758 1159.09 558.651
2120 0 53.0526 12.0258 638 63.185 1159.13 558.585
2121 0 55.084 13.4703 742 61.3194 1159.01 556.701
2122 0 56.0949 11.9975 673 62.6315 1158.87 556.774
2123 0 59.0738 12.8314 758 60.6623 1158.51 555.088
2124 0 62.0452 12.9261 802 60.0798 1158.36 553.646
2125 0 62.1058 12.4304 772 61.0078 1158.18 551.986
2126 0 65.1121 12.9315 842 59.6615 1157.64 552.463
2127 0 67.074 12.2551 822 59.6496 1157.46 552.757
2128 0 70.0766 13.0571 915 58.8852 1157.07 549.909
2129 0 72.1497 12.5434 905 59.7072 1157.42 547.853
2130 0 75.0613 12.7363 956 59.2971 1156.93 545.859
2131 0 79.0908 14.2494 1127 56.8829 1156.88 548.151
2132 0 79.1953 12.4502 986 59.7312 1157.02 544.131
2133 0 84.0894 14.4013 1211 56.9538 1156.72 544.028
2134 0 87.1216 14.1526 1233 57.3025 1157.08 542.819
2135 0 89.1083 13.8483 1234 57.5348 1156.82 542.495
2136 0 93.1478 12.8076 1193 58.7418 1156.31 538.727
2137 0 95.3662 12.1741 1161 59.2877 1156.86 538.218
2138 1 49.0494 10.9074 535 59.0187 1157.39 562.407
2139 0 50.1035 10.0791 505 59.7109 1157.24 563.513
2140 0 53.023 11.3347 601 59.0433 1157.05 560.108
2141 0 54.0279 12.2344 661 58.6097 1157.15 559.773
2142 0 57.0763 12.7198 726 57.0689 1157.31 560.935
2143 0 58.0792 12.483 725 58.3641 1157.69 559.516
2144 0 59.0904 11.8632 701 59.7932 1157.11 558.501
2145 0 62.0707 14.4351 896 56.5379 1156.65 558.059
2146 0 63.0964 12.679 800 58.8612 1156.65 554.586
2147 0 66.0558 13.3826 884 57.7681 1155.99 554.247
2148 0 68.0601 12.8857 877 58.8016 1156.05 552.19
2149 0 73.1323 13.0449 954 57.8229 1155.97 553.643
2150 0 73.0733 13.5617 991 58.4016 1155.86 552.238
2151 0 74.1616 13.8077 1024 58.5449 1155.83 551.567
2152 0 79.1405 13.4065 1061 58.8058 1155.83 549.418
2153 0 81.1144 14.0912 1143 57.8705 1155.73 549.539
2154 0 82.1924 12.9331 1063 60.1477 1155.71 548.404
2155 0 84.1514 11.8596 998 62.2495 1155.53 545.605
2156 0 89.0973 13.2552 1181 60.3082 1155.73 541.754
2157 1 46.1074 9.6297 444 62.2995 1155.96 566.255
2158 0 46.1268 10.4928 484 62.3864 1155.99 565.479
2159 0 48.2508 10.7563 519 63.1599 1156.02 562.877
2160 0 52.1101 13.4715 702 58.6368 1156.35 563.322
2161 0 51.1232 12.3427 631 61.9857 1156.28 561.796
2162 0 53.0998 12.6931 674 61.4392 1156.23 560.803
2163 0 56.1004 13.2798 745 60.8886 1155.88 560.132
2164 0 55.0296 13.1929 726 61.6061 1155.4 560.034
2165 0 57.0728 12.8257 732 62.3279 1155.14 560.542
2166 0 58.0686 12.8297 745 62.4617 1155.39 559.785
2167 0 59.0404 13.0419 770 62.8117 1155.63 558.586
2168 0 68.0748 16.0999 1096 55.3531 1155.99 554.336
2169 0 68.0604 16.0299 1091 56.5481 1155.64 553.636
2170 0 69.049 16.3073 1126 56.6448 1155.61 553.583
2171 0 69.0867 14.4746 1000 59.963 1155.23 555.566
2172 0 73.0597 14.0981 1030 59.765 1155.25 554.245
2173 0 72.15 13.6382 984 61.3354 1154.98 551.837
2174 0 75.1496 13.7592 1034 61.383 1154.12 551.3
2175 0 79.0964 14.9438 1182 58.8384 1154.33 550.147
2176 0 81.1387 14.1363 1147 59.9878 1154.16 549.529
2177 0 84.2342 13.5693 1143 61.0061 1154.43 548.328
2178 0 88.1737 15.0612 1328 58.552 1154.38 547.16
2179 1 49.0256 11.2186 550 61.5509 1153.69 564.562
2180 0 50.085 10.7218 537 61.8268 1153.15 565.287
2181 0 50.0405 11.5906 580 60.6138 1153.5 566.607
2182 0 52.0861 12.4217 647 59.9134 1153.31 564.73
2183 0 51.0213 11.4462 584 61.9384 1153.91 562.351
2184 0 55.1497 13.3274 735 58.9905 1154.56 560.796
2185 0 55.152 13.1999 728 59.2102 1154.84 559.534
2186 0 57.126 12.9538 740 58.7838 1154.63 560.776
2187 0 59.0966 14.1632 837 57.9379 1155.73 557.688
2188 0 60.0413 12.8412 771 59.5538 1155.91 558.073
2189 0 63.0908 15.4222 973 56.0082 1156.31 557.42
2190 0 62.1094 13.7016 851 58.6557 1156.15 556.071
2191 0 66.0497 13.8078 912 57.5033 1156.69 555.832
2192 0 67.0551 14.7938 992 57.3357 1156.64 553.468
2193 0 69.0585 13.6696 944 58.6112 1156.83 551.314
2194 0 73.1312 15.0551 1101 55.6058 1157.19 552.148
2195 0 74.0826 14.5783 1080 56.763 1156.68 550.85
2196 0 76.1242 14.4501 1100 56.8491 1157.28 548.578
2197 0 79.0611 15.2034 1202 55.4276 1157.22 548.052
2198 0 82.055 15.709 1289 54.4779 1157.87 547.542
2199 0 85.064 14.154 1204 56.2068 1157.79 545.767
2200 0 87.1499 15.2725 1331 54.6679 1157.99 544.155
2201 0 89.0952 13.6371 1215 57.1136 1157.91 543.69
2202 0 92.1301 14.3493 1322 56.0711 1158.99 541.127
2203 1 47.0397 11.3309 533 59.045 1158.89 564.251
2204 0 50.0119 12.1771 609 57.1182 1159.23 563.736
2205 0 51.0484 11.7536 600 57.1233 1159.8 563.972
2206 0 53.036 13.1043 695 56.2014 1159.65 561.918
2207 0 53.0317 12.7282 675 57.2163 1159.59 560.533
2208 0 53.07 13.2844 705 57.2113 1159.87 556.338
2209 0 58.0388 14.4214 837 54.8722 1159.81 556.815
2210 0 59.0832 14.488 856 55.5152 1159.92 554.72
2211 0 61.0825 13.2771 811 56.1973 1159.83 555.393
2212 0 62.0697 14.6932 912 54.6623 1160.03 553.136
2213 0 65.0248 14.7636 960 54.2271 1159.82 554.626
2214 0 68.0351 14.0957 959 54.7466 1160.25 552.164
2215 0 70.1443 14.3419 1006 54.3797 1160.56 552
2216 0 71.0599 14.537 1033 54.8151 1161.09 549.778
2217 0 74.0711 13.649 1011 55.6637 1161.3 548.754
2218 0 78.0953 15.0457 1175 53.76 1161.58 546.795
2219 0 80.1012 14.3568 1150 54.2652 1161.54 545.91
2220 0 83.0859 15.2733 1269 53.6556 1161.35 544.292
2221 0 82.097 13.0212 1069 56.9065 1161.59 541.979
2222 0 88.1229 15.0358 1325 54.1653 1161.55 542.574
2223 0 89.1746 13.8717 1237 55.8399 1161.35 538.265
2224 0 94.1783 14.4088 1357 54.7951 1161.22 538.685
2225 1 49.0411 11.4802 563 56.4263 1160.7 560.68
2226 0 48.1212 12.8426 618 54.7557 1160.74 562.605
2227 0 50.1975 12.8493 645 55.231 1160.55 562.484
2228 0 51.0929 12.8589 657 55.4855 1160.05 560.752
2229 0 51.0511 12.987 663 57.8341 1160.36 558.305
2230 0 54.0771 12.9445 700 57.3 1160.08 558.139
2231 0 57.1658 13.5745 776 56.357 1159.93 556.777
2232 0 55.1235 12.735 702 57.8376 1160.14 555.533
2233 0 59.1081 13.6022 804 56.5995 1160.25 553.362
2234 0 62.1836 13.5245 841 55.9203 1160.06 554.824
2235 0 63.1319 13.0362 823 57.1397 1159.95 554.356
2236 0 68.1992 14.0324 957 54.6082 1159.68 552.301
2237 0 69.2582 13.4858 934 55.6692 1159.03 550.399
2238 0 72.285 13.9033 1005 54.598 1159.14 551.292
2239 0 72.1888 12.9798 937 56.5528 1158.96 549.191
2240 0 76.4072 13.5066 1032 56.1948 1158.96 547.237
2241 0 78.1971 13.4148 1049 55.8999 1159.14 545.202
2242 0 81.1816 13.8332 1123 55.1131 1159.07 545.566
2243 0 82.3445 14.5608 1199 55.0559 1159.82 543.374
2244 0 85.221 14.3274 1221 55.0581 1160.28 541.234
2245 0 90.4156 14.5882 1319 54.6209 1159.7 538.119
2246 0 92.1998 13.8829 1280 55.4984 1159.12 540.554
2247 0 93.2492 13.9411 1300 55.5046 1159.22 540.188
2248 0 98.175 14.5251 1426 54.9165 1158.45 537.521
2249 1 49.1588 12.3681 608 56.3125 1158.62 561.819
2250 0 52.1124 12.0893 630 56.2889 1158.58 560.065
2251 0 53.1783 12.129 645 56.8403 1159.03 559.487
2252 0 53.1826 11.9776 637 57.2104 1158.56 558.634
2253 0 57.2932 11.5546 662 57.2009 1158.44 558.891
2254 0 59.2794 12.4326 737 56.9566 1158.47 557.125
2255 0 61.2511 12.8324 786 56.9109 1158.38 556.976
2256 0 62.1626 14.9286 928 55.7381 1158.29 554.887
2257 0 63.2689 13.6718 865 57.5549 1157.98 554.717
2258 0 67.2715 12.9773 873 57.7194 1157.77 555.268
2259 0 67.2569 14.1101 949 57.6681 1157.54 553.867
2260 0 72.179 14.9905 1082 56.5943 1157.49 552.229
2261 0 73.1823 15.0856 1104 57.9918 1157.21 551.023
2262 0 74.3096 15.5835 1158 58.0389 1157.67 550.17
2263 0 78.0807 13.3708 1044 60.5192 1157.61 548.177
2264 0 81.3475 15.4645 1258 57.7099 1157.57 548.362
2265 0 85.2123 14.5519 1240 59.0903 1157.52 547.466
2266 0 86.2702 15.0805 1301 59.5204 1157.09 543.296
2267 1 45.1737 12.7729 577 61.8544 1158.02 565.461
2268 0 46.1495 12.3945 572 63.3112 1157.98 565.024
2269 0 45.0375 12.3897 558 64.0143 1158.49 562.959
2270 0 47.1527 14.5061 684 61.5614 1158.43 561.216
2271 0 48.0866 14.0164 674 62.5742 1158.02 559.869
2272 0 51.1753 14.0107 717 61.4812 1157.64 560.495
2273 0 53.0829 14.4679 768 61.4714 1157.74 558.629
2274 0 54.1518 14.5148 786 61.8308 1158.24 559.363
2275 0 56.1887 13.9886 786 62.4071 1157.87 557.761
2276 0 57.2173 14.576 834 62.0839 1157.52 556.85
2277 0 60.2679 15.68 945 59.9894 1157.21 556.248
2278 0 63.1247 15.6357 987 59.8612 1156.63 554.855
2279 0 64.1475 14.4199 925 61.7103 1157.05 553.812
2280 0 65.0737 14.9369 972 61.894 1156.48 551.279
2281 0 68.0763 14.7041 1001 61.4096 1157.02 552.057
2282 0 72.1002 15.5617 1122 59.7184 1156.07 551.751
2283 0 73.2279 15.0216 1100 60.9345 1156.83 549.105
2284 0 75.1017 14.2607 1071 62.6499 1156.71 548.624
2285 0 79.2171 15.0851 1195 61.0987 1156.4 546.959
2286 0 82.1369 16.3507 1343 59.373 1156.56 544.485
2287 0 84.1459 15.0334 1265 61.1731 1156.25 544.615
2288 0 89.2893 14.7946 1321 61.346 1156.58 542.793
2289 0 90.0902 14.8074 1334 61.3861 1156.04 543.175
2290 1 48.136 12.1738 586 63.5785 1156.15 563.271
2291 0 49.1162 12.501 614 63.5065 1155.78 563.945
2292 0 52.1193 15.0616 785 60.4841 1156.09 560.213
2293 0 52.11 14.1815 739 62.1231 1155.49 560.418
2294 0 54.1859 13.6567 740 62.9297 1155.55 559.086
2295 0 57.0826 14.7155 840 60.7595 1155.77 558.157
2296 0 59.1374 14.8975 881 60.1283 1155.77 557.706
2297 0 62.1979 15.0166 934 60.1959 1156.04 556.195
2298 0 62.1238 15.0506 935 61.3027 1156.26 556.97
2299 0 65.1143 15.1272 985 60.7959 1156.52 554.431
2300 0 68.1274 15.1481 1032 60.3227 1155.95 553.323
2301 0 70.0865 14.1539 992 61.7268 1155.85 550.165
2302 0 74.3083 13.5786 1009 62.4797 1155.88 551.377
2303 0 75.3353 14.8669 1120 61.8143 1155.72 548.387
2304 1 39.1749 11.5891 454 64.8634 1155.52 567.841
2305 0 41.1259 13.0575 537 63.4767 1155.42 566.75
2306 0 42.0767 13.4041 564 63.0266 1155.2 565.727
2307 0 44.1296 13.2111 583 62.6261 1155.61 566.226
2308 0 46.0674 13.719 632 62.1519 1155.68 563.718
2309 0 48.0669 13.0859 629 62.2957 1156.49 564.517
2310 0 49.0324 13.2973 652 62.1641 1156.12 563.635
2311 0 50.073 14.4389 723 61.2614 1156.64 562.068
2312 0 53.2736 15.0919 804 59.495 1156.34 563.432
2313 0 54.0744 14.48 783 60.3206 1156.15 561.895
2314 0 55.1021 13.5385 746 62.1461 1156.08 559.503
2315 0 57.1667 12.5772 719 62.3992 1156.37 558.89
2316 0 60.0588 14.4692 869 60.5409 1156.68 556.559
2317 0 61.1018 13.8458 846 61.2281 1156.69 556.079
2318 0 63.0912 13.9956 883 61.1631 1156.96 555.718
2319 0 67.2107 14.8935 1001 59.4226 1157 554.846
2320 0 67.0611 13.6294 914 61.314 1157.08 552.802
2321 0 71.1745 14.4715 1030 59.9194 1156.97 550.423
2322 0 74.4356 14.8719 1107 58.9928 1156.41 551.229
2323 0 77.2509 13.9157 1075 60.2688 1156.81 549.182
2324 0 80.2263 13.7486 1103 60.3345 1156.99 546.653
2325 0 83.3278 14.1489 1179 59.8202 1157.01 544.713
2326 0 85.5224 14.5927 1248 59.6787 1157 542.151
2327 0 86.2489 12.9393 1116 61.5815 1157.59 540.722
2328 0 92.2247 14.5406 1341 59.4139 1158.21 537.277
2329 1 46.2883 12.9623 600 61.0117 1158.39 559.082
2330 0 47.3512 14.5509 689 59.328 1158.73 560.093
2331 0 49.3159 14.0117 691 59.6729 1159.04 560.224
2332 0 51.4816 14.8208 763 58.3657 1158.93 559.237
2333 0 51.1792 12.5637 643 62.0373 1159.14 558.184
2334 0 53.2716 13.7221 731 60.5841 1159.04 555.71
2335 0 55.5652 13.1017 728 60.9396 1159.08 554.753
2336 0 57.3609 14.1211 810 59.4728 1159.15 552.019
2337 0 61.4163 14.0679 864 58.7002 1158.58 551.418
2338 0 62.5464 14.4853 906 58.8863 1158.59 551.163
2339 0 63.5171 14.2954 908 59.7665 1158.5 548.187
2340 0 65.4402 14.3031 936 59.5951 1158.54 549.27
2341 0 68.5141 15.2085 1042 58.595 1158.66 546.637
2342 0 70.3717 14.0824 991 60.4551 1158.99 545.591
2343 0 73.4489 14.2412 1046 59.0086 1159.13 543.344
2344 0 78.5023 14.3817 1129 58.2666 1159.47 541.275
2345 1 41.5959 13.3427 555 58.9153 1159.12 558.058
2346 0 43.3672 12.6593 549 60.1457 1159.27 556.812
2347 0 43.3488 12.1111 525 60.5619 1159.12 557.442
2348 0 46.54 12.3335 574 59.8728 1158.97 557.307
2349 0 49.5106 14.401 713 57.1234 1159.16 556.661
2350 0 49.2633 14.6356 721 57.8141 1159.16 554.67
2351 0 50.7943 14.2142 722 57.7188 1159.15 555.18
2352 0 52.4946 12.4013 651 60.3502 1159.69 555.777
2353 0 54.3125 14.1588 769 58.7594 1159.25 553.096
2354 0 55.2142 13.4929 745 59.2899 1159.34 552.338
2355 0 58.2781 13.7444 801 57.3521 1158.7 551.602
2356 0 60.4132 14.4339 872 56.6353 1159.23 549.799
2357 0 60.5238 13.6971 829 58.392 1159.03 548.083
2358 0 65.4399 14.4102 943 56.5472 1158.53 548.136
2359 0 64.4015 14.4096 928 57.0776 1158.31 546.378
2360 0 69.457 15.2468 1059 55.6988 1158.34 542.968
2361 0 73.3051 14.9648 1097 55.2817 1157.99 545.324
2362 0 73.6843 14.1007 1039 56.5072 1158.03 541.23
2363 0 74.5195 14.7881 1102 56.0472 1158.14 541.361
2364 0 76.2837 14.7345 1124 56.3879 1158.48 539.118
2365 0 81.3973 13.5877 1106 56.6673 1157.78 539.688
2366 0 82.2764 13.7464 1131 57.2131 1158.3 535.911
2367 1 44.4027 12.0038 533 57.7786 1157.46 556.332
2368 0 45.345 11.6661 529 58.552 1157.53 555.155
2369 0 48.2593 10.4021 502 60.0199 1157.7 553.502
2370 0 51.2444 13.3868 686 57.465 1157.7 552.563
2371 0 53.2957 14.6729 782 55.5921 1157.15 551.615
2372 0 56.2233 13.6954 770 56.3312 1157.37 553.258
2373 0 55.3155 13.4501 744 57.4032 1156.71 552.413
2374 0 57.3475 14.5952 837 56.2509 1157.07 551.556
2375 0 61.3319 14.9841 919 55.1567 1156.76 551.184
2376 0 64.1315 14.5482 933 55.5531 1157.06 549.084
2377 0 64.2624 15.0788 969 55.2786 1156.49 550.477
2378 0 67.1504 15.8599 1065 54.3052 1156.45 549.595
2379 0 68.2504 14.5494 993 55.9114 1156.56 546.761
2380 0 71.1792 13.8243 984 56.9177 1156.47 545.816
2381 0 75.1595 14.5158 1091 53.3905 1156.49 543.511
2382 0 77.1449 15.7366 1214 52.4671 1156.68 542.362
2383 0 78.2137 14.2814 1117 54.2632 1156.76 542.954
2384 0 81.1397 15.6027 1266 53.3065 1156.96 541.724
2385 0 83.1523 15.4415 1284 53.3902 1157.22 543.041
2386 0 86.1886 15.8954 1370 53.7599 1157.34 538.523
2387 0 89.1538 15.591 1390 53.841 1157.77 539.214
2388 0 93.1606 15.1459 1411 54.5478 1157.2 536.258
2389 0 96.1611 15.734 1513 54.2756 1157.49 535.584
2390 1 54.0619 9.84057 532 56.718 1157.17 558.968
2391 0 54.0666 10.8755 588 57.1207 1157.2 556.75
2392 0 57.1008 12.1014 691 55.903 1157.37 554.997
2393 0 60.0199 13.2789 797 54.857 1157.3 554.045
2394 0 58.0725 11.7612 683 57.9004 1157.17 552.341
2395 0 61.0347 13.1401 802 55.5885 1157.14 550.246
2396 0 64.1631 13.2007 847 55.5266 1157.22 550.867
2397 0 66.088 13.0886 865 56.185 1157.06 549.055
2398 0 68.117 12.9336 881 56.9728 1157.07 546.218
2399 0 72.1002 14.355 1035 54.8995 1157.14 547.524
2400 0 75.1183 14.7501 1108 53.8475 1157.19 546.222
2401 0 75.0615 12.9893 975 56.7805 1157.18 544.555
2402 0 79.1161 13.8404 1095 55.6667 1157.01 541.453
2403 0 81.1004 13.4031 1087 56.6734 1156.76 541.771
2404 0 86.2248 13.8127 1191 55.8992 1156.65 539.381
2405 0 89.1338 13.5302 1206 56.2736 1156.45 537.932
2406 0 91.1282 13.9474 1271 56.2187 1156.69 535.116
2407 0 95.199 14.3279 1364 55.9238 1156.02 535.016
2408 1 47.1009 9.59643 452 56.9358 1155.94 559.573
2409 0 53.0487 11.1784 593 55.2799 1155.69 557.411
2410 0 55.0443 11.0456 608 55.2023 1155.6 558.069
2411 0 54.1189 11.9367 646 55.0495 1155.01 554.994
2412 0 57.1125 12.9394 739 53.7172 1155.82 555.361
2413 0 59.1549 12.4757 738 54.3875 1155.33 556.591
2414 0 61.2098 13.0698 800 53.71 1155.45 555.999
2415 0 62.06 12.3912 769 54.9389 1155.04 554.462
2416 0 64.2893 12.7082 817 54.2729 1155.29 555.181
2417 0 64.1462 12.643 811 55.3366 1155.21 551.273
2418 0 66.1607 12.9382 856 54.6729 1155.87 551.591
2419 0 66.1607 12.9684 858 147.143 1155.87 551.61
2420 0 70.2127 13.4021 941 54.6982 1155.36 549.849
2421 0 74.0476 12.5055 926 54.851 1155.74 550.513
2422 0 77.0295 14.8904 1147 52.7071 1155.65 548.578
2423 0 77.1894 13.3697 1032 54.9884 1155.29 547.7
2424 0 77.1878 12.5408 968 56.5723 1155.33 544.349
2425 0 82.121 13.2366 1087 55.15 1155.22 546.393
2426 0 84.3087 13.6403 1150 55.4783 1154.9 542.041
2427 0 87.2205 12.8181 1118 56.1699 1155.03 543.894
2428 0 91.2304 14.2168 1297 54.4688 1154.62 541.777
2429 1 50.2752 10.1044 508 56.2283 1154.9 561.614
2430 0 50.2478 10.1298 509 56.4558 1154.72 559.684
2431 0 51.2508 10.3413 530 56.4717 1154.37 559.4
2432 0 55.225 11.3173 625 54.8256 1154.68 558.917
2433 0 55.3054 10.5776 585 55.7744 1155.03 559.815
2434 0 58.2448 11.3658 662 55.2855 1155.15 557.195
2435 0 61.1769 13.273 812 52.8695 1155.38 555.216
2436 0 61.1621 12.3115 753 54.4834 1155.77 553.392
2437 0 64.1946 11.6832 750 54.8693 1155.3 554.783
2438 0 66.1788 13.7053 907 53.2238 1155.28 552.853
2439 0 68.1076 13.2584 903 53.0731 1155.07 554.231
2440 0 70.1827 12.2252 858 54.9767 1155.3 549.563
2441 0 71.1831 12.7137 905 54.5138 1155.46 550.277
2442 0 75.1493 14.1984 1067 53.6439 1155.7 547.767
2443 0 75.1242 13.5642 1019 55.2228 1155.48 548.525
2444 0 77.2121 12.6146 974 56.4661 1155.34 546.617
2445 0 80.3345 13.7674 1106 55.3707 1155.2 544.568
2446 0 83.268 14.039 1169 55.3524 1155.3 540.913
2447 0 84.309 12.9168 1089 57.0321 1155.19 542.07
2448 0 87.3238 12.6541 1105 57.3991 1155.29 537.406
2449 0 88.1889 12.1217 1069 57.9663 1155.04 537.833
2450 0 91.3257 13.2164 1207 57.4325 1155.3 535.784
2451 0 93.2828 13.3036 1241 57.4682 1155.43 534.72
2452 0 95.1832 13.2061 1257 58.4129 1155.3 531.601
2453 0 100.193 12.8452 1287 58.5307 1155.47 531.312
2454 1 52.0402 10.588 551 55.1216 1155.14 557.036
2455 0 54.2865 9.50513 516 56.2422 1156.15 555.984
2456 0 56.3296 11.4682 646 55.3916 1157.76 553.224
2457 0 60.3111 12.22 737 54.6377 1157.41 551.379
2458 0 60.07 11.9194 716 55.6885 1157.11 555.098
2459 0 60.07 11.8196 710 161.607 1158.11 555.172
2460 0 62.0688 12.2767 762 55.6535 1157.42 555.373
2461 0 64.0801 13.3115 853 55.8171 1157.37 553.084
2462 0 65.0569 13.3114 866 56.2113 1157.18 551.082
2463 0 69.0259 13.5746 937 55.0704 1157.55 550.189
2464 0 68.1753 12.9226 881 56.7287 1158.04 548.911
2465 0 70.1681 14.166 994 55.3481 1157.92 546.273
2466 0 73.2056 13.906 1018 55.3035 1158.01 547.737
2467 0 75.2016 13.2444 996 55.6576 1158.68 547.134
2468 0 79.1348 13.5844 1075 55.5786 1158.84 542.999
2469 0 79.3224 13.754 1091 55.8616 1158.87 541.787
2470 0 79.1249 13.0047 1029 57.2527 1159.18 539.231
2471 0 83.251 12.7326 1060 57.184 1159.43 538.245
2472 0 87.1393 14.1383 1232 54.7127 1160.07 538.635
2473 0 89.2222 13.6625 1219 55.6358 1160.45 537.395
2474 0 91.2774 13.9355 1272 55.3396 1161.02 534.805
2475 0 95.1951 13.2885 1265 55.536 1160.78 533.338
2476 0 95.1244 13.0145 1238 56.1026 1161.13 531.337
2477 0 101.384 13.513 1370 55.4825 1161.04 528.455
2478 1 50.0284 10.2542 513 54.8363 1161.05 557.692
2479 0 54.0936 12.1086 655 53.774 1160.25 557.302
2480 0 52.1515 12.1185 632 54.7579 1159.51 555.805
2481 0 52.0457 12.22 636 54.7673 1159.66 554.368
2482 0 54.0685 12.2252 661 54.7685 1159.21 554.328
2483 0 56.1085 12.8323 720 54.3042 1159.42 552.376
2484 0 58.0279 13.1144 761 53.6334 1159.08 552.873
2485 0 59.054 12.4293 734 54.7316 1159.32 552.554
2486 0 60.0381 12.5087 751 54.7337 1159.5 551.569
2487 0 64.0855 13.6536 875 53.0594 1159.6 550.741
2488 0 65.1064 12.5641 818 54.0868 1159.39 549.568
2489 0 64.1025 12.7452 817 55.1628 1159.66 547.613
2490 0 68.1167 14.5045 988 52.7824 1159.52 546.333
2491 0 71.1843 13.1209 934 53.8373 1159.26 546.381
2492 0 73.0754 14.5193 1061 52.1819 1159.26 545.364
2493 0 74.0394 13.3713 990 53.5051 1158.88 545.682
2494 0 77.0412 13.8368 1066 52.97 1158.34 544.447
2495 0 81.0741 14.6409 1187 52.0261 1158.53 541.56
2496 1 44.0423 11.0575 487 54.4086 1157.93 558.957
2497 0 44.0527 10.7371 473 54.6364 1158.22 559.452
2498 0 44.075 10.4821 462 54.6277 1158.34 560.184
2499 0 46.0271 11.1891 515 54.7689 1158.53 556.652
2500 0 48.0282 11.7639 565 53.8991 1158.6 559.837
2501 0 49.0461 13.1713 646 52.6331 1158.26 558.181
2502 0 51.1164 12.7552 652 53.3804 1158.03 556.015
2503 0 54.1067 12.6786 686 52.9111 1158.19 557.309
2504 0 54.0465 12.2117 660 53.7727 1157.75 556.9
2505 0 56.1071 13.599 763 52.6946 1158.29 554.554
2506 0 58.127 13.1952 767 52.7536 1157.77 553.433
2507 0 58.1427 12.9509 753 53.5923 1157.64 553.376
2508 0 60.1116 13.4417 808 52.9158 1158.23 551.366
2509 0 62.1253 12.9094 802 53.5037 1157.83 551.287
2510 0 65.091 12.9972 846 53.2967 1157.86 550.346
2511 0 67.262 12.1317 816 54.5699 1157.82 549.441
2512 0 70.1427 14.0143 983 52.4232 1157.92 549.402
2513 0 71.1767 13.7826 981 53.3211 1158.21 546.724
2514 0 74.2908 13.5818 1009 53.0942 1158.16 546.133
2515 0 74.2302 13.4581 999 53.977 1158.31 545.097
2516 0 79.3557 12.5133 993 54.6173 1158.05 544.113
2517 0 82.2959 13.4515 1107 53.8943 1158.25 540.061
2518 1 40.2279 9.91849 399 53.9699 1157.74 562.932
2519 0 41.2001 11.165 460 54.1152 1157.26 560.246
2520 0 45.2714 12.1048 548 51.8431 1157.59 561.832
2521 0 45.1846 12.3051 556 52.5755 1157.69 560.371
2522 0 48.0546 12.6523 608 51.9326 1156.54 559.794
2523 0 48.1509 13.6861 659 51.3354 1157.48 561.824
2524 0 48.0921 12.1018 582 53.6924 1157.04 559.326
2525 0 50.0422 12.3296 617 52.8104 1157.03 559.316
2526 0 51.1629 12.8023 655 52.8305 1157.02 557.035
2527 0 55.1254 14.73 812 50.3116 1157.16 558.268
2528 0 55.1587 12.2374 675 53.3822 1156.94 556.772
2529 0 59.2021 15.7258 931 49.015 1156.79 557.107
2530 0 58.1071 12.3049 715 53.7944 1156.3 555.51
2531 0 61.0775 13.0326 796 52.75 1156.09 554.379
2532 0 63.0617 12.7494 804 52.8993 1156.17 554.917
2533 0 66.1058 13.2364 875 52.3429 1156.2 551.641
2534 0 67.1467 13.061 877 52.8495 1156.32 550.33
2535 0 72.1372 13.0307 940 52.1245 1156.4 549.39
2536 0 74.1605 13.309 987 51.9281 1155.97 547.31
2537 0 76.2265 12.5022 953 52.8541 1156.33 545.891
2538 0 79.1539 13.5053 1069 52.6305 1156.34 544.133
2539 0 80.1704 13.1096 1051 53.6308 1156.46 543.25
2540 0 85.1558 14.3032 1218 51.9146 1156.39 542.053
2541 1 44.0464 11.1019 489 53.773 1155.49 564.188
2542 0 44.0223 11.3352 499 53.8457 1155.45 562.591
2543 0 47.0622 11.7929 555 54.0865 1154.96 561.276
2544 0 49.0472 11.4991 564 54.2394 1155.39 559.33
2545 0 49.038 10.8895 534 54.1648 1156.8 561.017
2546 0 53.0387 13.0094 690 52.0681 1156.96 559.912
2547 0 52.0448 12.6045 656 53.1479 1156.74 561.152
2548 0 52.0251 11.8981 619 53.7205 1156.42 561.278
2549 0 55.1785 12.3236 680 53.4779 1156.86 558.09
2550 0 56.0752 12.4297 697 53.3529 1156.79 555.957
2551 0 58.0328 12.9754 753 52.259 1156.49 558.363
2552 0 57.0598 10.5854 604 55.4818 1155.86 558.129
2553 0 60.0077 11.3819 683 54.4422 1156.21 555.944
2554 0 65.1118 12.7166 828 52.3345 1155.76 555.675
2555 0 63.0964 12.1877 769 53.6905 1155.59 553.991
2556 0 66.0621 12.6245 834 53.1199 1155.65 554.135
2557 0 67.0722 12.4195 833 53.7275 1156.06 550.957
2558 0 73.0207 12.7224 929 52.7417 1155.67 551.805
2559 0 74.0806 12.8509 952 52.791 1155.85 549.138
2560 0 78.0531 12.6324 986 52.1623 1155.85 550.657
2561 0 80.0807 12.375 991 53.4723 1155.68 545.506
2562 1 41.0445 10.3302 424 53.9245 1155.59 566.752
2563 0 42.0305 9.56449 402 54.5398 1155.57 565.097
2564 0 43.0321 10.2482 441 54.0612 1156.32 565.902
2565 0 44.0267 10.7889 475 54.1368 1156.58 565.118
2566 0 49.0467 12.641 620 52.7355 1156.25 564.271
2567 0 47.1273 11.713 552 55.5145 1156.39 562.183
2568 0 50.036 14.1298 707 52.9194 1156.69 560.516
2569 0 52.0665 13.041 679 53.782 1156.8 561.141
2570 0 51.0324 12.4235 634 55.4905 1156.65 559.409
2571 0 53.0858 13.3746 710 54.6859 1156.37 557.201
2572 0 57.0287 13.9404 795 53.5182 1156.18 557.772
2573 0 58.1362 13.6576 794 54.1499 1155.75 558.933
2574 0 58.1386 13.6398 793 54.7566 1155.96 556.98
2575 0 59.0677 12.9851 767 55.9478 1155.53 556.97
2576 0 62.1078 13.0257 809 55.2831 1155.61 556.019
2577 0 63.111 11.9155 752 57.379 1154.78 556.374
2578 0 65.0936 12.5819 819 56.2247 1154.68 555.295
2579 0 69.3759 14.7169 1021 53.0304 1154.5 552.926
2580 0 71.2093 13.5376 964 54.4419 1154.11 552.67
2581 0 73.1302 13.8657 1014 54.7663 1154.54 550.306
2582 0 75.3268 14.457 1089 54.5601 1154.04 550.353
2583 0 78.3257 13.6864 1072 55.5625 1154.14 547.678
2584 0 80.3128 12.5509 1008 56.7629 1154.35 545.475
2585 0 83.3331 14.664 1222 54.1318 1154.82 545.628
2586 0 87.4119 16.1305 1410 52.3511 1154.9 541.372
2587 1 44.1878 10.0028 442 57.7511 1154.17 566.115
2588 0 48.223 11.2187 541 56.9168 1154.39 563.42
2589 0 47.2377 11.8338 559 56.6726 1154.92 561.165
2590 0 49.2135 12.5982 620 56.479 1154.8 560.242
2591 0 50.0914 12.4971 626 56.7604 1155.83 562.379
2592 0 53.0232 14.4465 766 53.9869 1157.09 559.796
2593 0 53.0232 14.4465 766 149.226 1158.09 559.796
2594 0 57.1086 14.166 809 54.9815 1157.21 556.263
2595 0 57.0451 12.9196 737 56.81 1157.25 557.218
2596 0 59.0512 13.0565 771 56.6342 1157.29 556.21
2597 0 60.0751 15.0478 904 55.1261 1157.49 554.642
2598 0 62.0522 13.1824 818 57.2127 1156.83 553.128
2599 0 64.1128 13.913 892 56.296 1157.31 551.918
2600 0 66.0452 14.3235 946 56.0983 1157.51 550.698
2601 0 67.122 14.3321 962 56.4719 1157.74 551.748
2602 0 69.0901 13.4896 932 57.8594 1157.76 548.486
2603 0 73.0785 14.0671 1028 56.8619 1157.73 547.8
2604 0 76.0709 14.4208 1097 56.5779 1157.81 546.17
2605 0 78.112 13.7879 1077 57.4113 1158.09 547.267
2606 0 79.1281 14.6851 1162 56.5456 1158.72 545.795
2607 0 83.1433 14.2405 1184 57.2171 1158.88 541.072
2608 0 86.2325 15.4002 1328 56.241 1159.31 540.759
2609 1 45.1316 11.4776 518 59.3185 1160.28 562.133
2610 0 44.0648 11.3696 501 60.3752 1160.76 562.178
2611 0 49.1139 11.9722 588 58.5085 1160.7 561.18
2612 0 49.3073 13.2435 653 57.5421 1160.01 558.262
2613 0 53.1336 14.7176 782 55.243 1160.09 557.817
2614 0 51.1012 13.1308 671 58.1148 1159.85 555.48
2615 0 55.1715 12.7602 704 57.8281 1160.03 556.413
2616 0 57.2759 13.1643 754 57.7984 1160.33 556.557
2617 0 57.1721 13.5731 776 57.7693 1160.15 554.907
2618 0 58.109 14.0426 816 57.076 1160.36 553.505
2619 0 61.3012 14.5185 890 55.9573 1160.23 553.56
2620 0 63.2392 13.7098 867 56.7382 1160.16 552.954
2621 0 64.1476 12.8142 822 57.8942 1160.59 552.724
2622 0 67.3009 13.2093 889 57.2531 1160.75 551.09
2623 0 70.3448 14.1304 994 55.9678 1160.46 550.245
2624 0 72.4989 15.0899 1094 55.4607 1160.89 547.14
2625 0 77.2432 14.0983 1089 56.0358 1160.93 546.303
2626 0 76.4227 14.1188 1079 56.5616 1160.95 545.264
2627 0 79.5121 13.8721 1103 56.476 1160.52 543.901
2628 0 84.4004 13.9573 1178 55.9567 1160.74 541.804
2629 0 87.2774 14.8263 1294 54.9845 1160.27 539.376
2630 1 43.2176 10.8521 469 58.3241 1160.5 561.13
2631 0 45.197 12.2796 555 57.2414 1160.04 558.919
2632 0 47.2885 12.8995 610 55.6082 1159.82 560.067
2633 0 48.1613 13.5794 654 55.9343 1160.3 556.42
2634 0 50.1314 12.8662 645 56.2884 1159.52 556.279
2635 0 54.1679 12.4982 677 56.1802 1159.94 557.513
2636 0 53.2155 13.8118 735 55.4259 1159.98 556.078
2637 0 56.2121 13.9116 782 54.6867 1160.49 557.078
2638 0 56.1713 14.9187 838 54.2816 1160.32 552.088
2639 0 58.1809 12.9939 756 56.1243 1160.53 553.817
2640 0 59.2023 13.192 781 56.5365 1160.06 550.618
2641 0 64.3683 14.8831 958 53.5866 1159.95 550.1
2642 0 68.2799 14.8799 1016 53.5689 1159.81 546.49
2643 0 68.2186 14.0138 956 55.5146 1159.55 547.996
2644 0 71.2506 15.1578 1080 54.4426 1159.93 545.942
2645 0 72.1608 14.4538 1043 55.7037 1159.59 542.926
2646 0 74.2666 13.5593 1007 56.8143 1159.63 543.006
2647 0 77.4605 14.7172 1140 55.4167 1159.51 540.725
2648 0 80.3969 14.0553 1130 56.3407 1159.51 539.781
2649 0 83.4245 14.8278 1237 55.553 1159.14 538.156
2650 1 42.6151 11.1697 476 56.8866 1158.99 559.095
2651 0 43.3637 11.5996 503 57.1451 1159.38 557.897
2652 0 46.15 11.506 531 57.5311 1159.66 556.96
2653 0 48.2686 14.4193 696 54.4181 1159.42 556.499
2654 0 50.3408 13.1305 661 55.9516 1159.86 555.729
2655 0 50.2427 13.2756 667 55.997 1158.63 555.565
2656 0 51.3035 12.9621 665 56.4526 1158.85 552.647
2657 0 53.5361 14.2521 763 53.9292 1158.49 553.949
2658 0 56.5537 13.527 765 55.0549 1158.39 551.29
2659 0 57.5748 14.5723 839 53.2634 1158.33 552.423
2660 0 62.1995 13.5853 845 53.6615 1158.57 551.206
2661 0 63.3205 14.7661 935 52.569 1158.56 551.252
2662 0 63.1894 13.4358 849 54.3039 1158.29 550.742
2663 0 66.0879 15.434 1020 52.2549 1158 546.918
2664 0 68.124 14.7231 1003 53.2532 1158.35 546.038
2665 0 69.2583 13.8756 961 54.0458 1158.16 545.674
2666 0 71.2534 12.7432 908 55.043 1158.37 544.265
2667 0 75.3858 14.8702 1121 52.6066 1157.68 541.913
2668 0 76.3292 14.3982 1099 53.333 1157.95 541.61
2669 0 80.2591 13.5686 1089 54.3609 1158.04 539.556
2670 0 83.1155 14.0888 1171 53.8215 1157.59 537.182
2671 0 88.4123 14.308 1265 53.015 1157.89 537.196
2672 0 92.5321 15.1731 1404 51.8889 1157.4 536.024
2673 0 92.1623 14.4202 1329 53.4409 1157.14 534.034
2674 1 47.1976 11.7167 553 55.3219 1157.31 556.98
2675 0 48.2005 12.7799 616 54.6721 1157.19 554.588
2676 0 50.2455 12.2996 618 54.5372 1157.32 554.777
2677 0 50.327 12.7367 641 55.5819 1157.41 552.679
2678 0 53.114 13.8005 733 54.2278 1157.12 552.035
2679 0 54.3301 12.7185 691 55.3502 1157.4 552.622
2680 0 56.2336 12.1991 686 55.8688 1157.08 553.21
2681 0 58.4523 12.6257 738 55.7588 1157.1 552.358
2682 0 60.2136 14.897 897 53.2977 1156.64 550.593
2683 0 63.2064 15.9794 1010 52.1663 1156.72 548.296
2684 0 63.2472 14.9572 946 53.9514 1156.63 546.966
2685 0 66.5277 14.7758 983 53.8749 1156.54 546.556
2686 0 67.4359 14.2357 960 55.0896 1156.28 546.882
2687 0 69.2228 14.735 1020 55.2598 1156.45 544.699
2688 0 72.2621 13.7416 993 56.0161 1156.57 544.965
2689 0 75.2894 14.1853 1068 55.559 1156.93 544.851
2690 0 78.4078 14.5266 1139 55.4425 1156.09 542.59
2691 0 78.3098 14.6342 1146 56.2164 1155.77 541.253
2692 0 81.2947 14.1092 1147 56.5815 1155.47 541.069
2693 0 86.238 14.7847 1275 55.7647 1155.61 539.816
2694 1 44.1096 11.3354 500 56.52 1155.25 560.502
2695 0 45.2215 10.4817 474 57.6624 1155.59 559.977
2696 0 46.1181 11.1887 516 57.5698 1155.95 561.122
2697 0 47.0624 13.0465 614 55.8388 1156.19 559.533
2698 0 48.1057 13.0962 630 56.9302 1156.13 558.167
2699 0 51.1326 12.9663 663 56.6923 1155.77 558.148
2700 0 53.1855 12.5786 669 57.441 1155.5 557.123
2701 0 54.2907 12.8383 697 57.4032 1155.13 555.429
2702 0 56.0726 13.9819 784 55.977 1155.19 554.724
2703 0 58.1675 13.9425 811 56.1541 1155.3 552.797
2704 0 59.1559 12.8136 758 57.9077 1155.27 552.669
2705 0 63.148 13.3971 846 56.9007 1154.93 551.915
2706 0 66.259 13.9755 926 56.4082 1155.37 551.132
2707 0 66.1961 13.5809 899 57.6385 1155.4 548.934
2708 0 70.0659 12.8593 901 58.1509 1155.65 548.939
2709 0 71.138 13.523 962 57.7245 1155.65 547.9
2710 0 74.1453 14.067 1043 57.7469 1155.05 545.838
2711 0 78.2113 14.2946 1118 57.3166 1155.03 544.446
2712 0 80.2137 15.2343 1222 56.9059 1154.84 543.482
2713 0 82.193 14.1131 1160 58.4612 1154.55 543.372
2714 0 84.2348 13.2487 1116 59.931 1155.4 540.878
2715 0 88.1567 13.7596 1213 59.0074 1155.54 540.055
2716 0 90.1704 14.6168 1318 57.585 1155.36 538.803
2717 1 49.1836 10.4303 513 58.9064 1154.81 560.926
2718 0 49.0979 7.94331 390 61.3564 1154.64 560.979
2719 0 51.0429 10.834 553 58.5479 1153.85 559.843
2720 0 53.0464 10.406 552 59.2409 1153.7 559.333
2721 0 56.1433 12.2009 685 57.2788 1154.38 558.809
2722 0 55.1073 11.8133 651 59.2581 1155.27 557.849
2723 0 56.1253 11.3674 638 59.6928 1154.95 558.42
2724 0 61.1833 13.4677 824 57.182 1155.17 555.834
2725 0 62.1407 13.4212 834 57.3681 1154.97 556.144
2726 0 64.1699 13.3552 857 56.9463 1155.11 555.907
2727 0 67.1292 13.3176 894 56.3893 1154.44 556.13
2728 0 70.1248 13.4332 942 56.5563 1154.79 555.995
2729 0 72.0969 12.5248 903 57.6944 1155.17 553.12
2730 0 74.1452 13.2578 983 57.7884 1155.28 549.148
2731 0 76.1489 13.1059 998 58.3617 1155.65 548.065
