time division length width area intensity CMx CMy
0 0 57.3576 12.9887 745 70.949 1376.65 570.736
1 0 60.1151 12.4761 750 72.284 1376.5 570.268
2 0 61.1659 13.0138 796 71.9837 1376.76 569.085
3 0 62.2004 12.4436 774 73.155 1376.87 568.307
4 0 63.2341 12.6356 799 72.761 1377.02 566.997
5 0 64.1571 12.9993 834 72.3046 1376.93 566.835
6 0 67.1493 12.9413 869 71.7814 1376.71 566.453
7 0 69.2407 12.5504 869 73.0759 1376.79 564.486
8 0 71.3977 13.2497 946 73.3383 1377.19 563.178
9 0 74.3677 13.1374 977 74.2098 1377.14 562.069
10 0 76.2232 13.5917 1036 74.4759 1377.58 560.765
11 0 79.4781 13.3118 1058 74.4036 1377.69 561.554
12 0 82.2168 13.2576 1090 75.5092 1377.2 557.4
13 0 83.1486 12.7362 1059 76.9462 1377.34 556.547
14 0 88.2766 13.469 1189 74.8074 1377.05 554.6
15 1 44.2269 10.921 483 74.8364 1377.92 576.014
16 0 47.2205 11.5204 544 74.3254 1378.22 574.208
17 0 48.2295 10.7611 519 74.8748 1377.77 574.618
18 0 49.1805 11.773 579 72.7185 1378.39 573.908
19 0 51.2529 12.0579 618 72.7508 1378.1 572.526
20 0 53.2814 12.0492 642 71.2555 1378.35 572.787
21 0 54.1014 11.959 647 72.034 1377.79 571.233
22 0 55.2674 12.0324 665 71.8827 1378.14 570.971
23 0 57.3569 12.2915 705 71.6496 1378.58 570.177
24 0 58.2155 12.1102 705 72.6652 1378.26 569.25
25 0 59.1087 12.3501 730 72.7877 1378.62 568.482
26 0 61.1262 12.695 776 72.4253 1378.53 567.277
27 0 63.3272 12.6328 800 73.2025 1378.74 565.909
28 0 67.3057 12.5547 845 73.187 1378.24 563.923
29 0 70.3403 12.994 914 72.1619 1378.39 564.439
30 0 72.1912 12.3976 895 74 1378.51 562.239
31 0 73.3154 12.3439 905 74.7171 1378.7 561.929
32 0 75.2451 12.5457 944 75.3792 1378.86 559.961
33 1 41.3031 9.97503 412 75.4442 1379.02 578.903
34 0 43.2098 10.0209 433 75.8684 1379.04 577.524
35 0 44.3068 10.3821 460 76.4522 1378.97 577.178
36 0 47.2374 11.1564 527 75.4934 1379.18 575.063
37 0 49.1977 12.0331 592 74.6486 1379.24 574.274
38 0 51.1634 12.4112 635 73.9244 1379.35 573.454
39 0 52.1124 11.8782 619 75.3764 1378.93 573.186
40 0 53.2296 12.5306 667 75.1304 1379.09 571.546
41 0 55.1458 12.5848 694 74.7248 1379.48 570.565
42 0 55.2725 11.8685 656 76.5732 1379.5 570.462
43 0 56.2166 12.7187 715 75.6965 1378.84 569.8
44 0 60.4059 13.0616 789 74.6071 1379.01 568.828
45 0 61.2161 12.7417 780 75.2346 1379.67 568.578
46 0 61.3679 12.9221 793 75.7453 1379.26 566.18
47 0 63.2295 13.3482 844 75.2239 1379.03 564.682
48 0 67.2909 13.0181 876 75.1644 1378.92 564.137
49 0 69.3191 12.4352 862 76.0394 1378.8 564.181
50 0 71.3854 11.9492 853 76.7304 1378.1 561.984
51 0 73.5798 12.8024 942 75.8482 1378.53 562.36
52 0 77.4004 13.1136 1015 75.0089 1378.62 559.832
53 0 80.2806 13.677 1098 74.071 1378.23 557.931
54 1 40.1644 10.1085 406 68.2488 1377.49 577.49
55 0 42.1409 10.7496 453 69.0265 1377.84 576.141
56 0 44.091 11.2268 495 68.2848 1378.06 575.477
57 0 44.091 11.2041 494 175.294 1378.05 575.512
58 0 45.1362 12.3183 556 66.4299 1378.47 574.651
59 0 46.1102 11.4292 527 67.6186 1378.48 573.824
60 0 49.1561 11.0871 545 67.956 1378.72 573.145
61 0 52.1479 12.4837 651 65.8633 1378.76 572.258
62 0 52.2095 12.9287 675 66.5378 1379.08 570.723
63 0 53.1205 11.4833 610 68.4852 1378.53 571.538
64 0 54.157 12.0206 651 67.7358 1378.92 570.879
65 0 56.24 12.5 703 67.0768 1379.24 568.966
66 0 58.1223 12.8006 744 66.4624 1379.09 568.552
67 0 61.2145 11.9743 733 67.3479 1379.37 566.565
68 0 61.2145 12.0396 737 164.662 1380.37 566.516
69 0 64.253 13.2134 849 65.1743 1379.92 564.462
70 0 67.2264 13.1347 883 65.7339 1380.06 563.599
71 0 68.0919 12.6594 862 66.6682 1379.98 562.756
72 0 70.306 12.8723 905 66.1448 1379.96 560.83
73 0 72.2219 12.2677 886 66.8386 1379.92 560.032
74 0 73.1598 12.5889 921 67.1466 1380.04 559.324
75 0 77.2472 13.3726 1033 66.1994 1380.49 555.94
76 0 79.1923 13.0568 1034 66.676 1380.57 555.764
77 0 82.3674 12.9056 1063 67.2606 1380.79 554.139
78 1 43.2072 10.6464 460 68.0391 1380.1 573.913
79 0 43.085 9.84101 424 69.2995 1380.43 574.257
80 0 45.0918 11.4655 517 67.8685 1380.52 571.917
81 0 46.0505 11.6177 535 66.985 1380.57 571.407
82 0 49.0344 12.7054 623 65.7448 1380.99 568.62
83 0 50.0402 11.5907 580 67.3293 1382.2 569.533
84 0 51.0501 11.2439 574 68.7805 1382.39 567.944
85 0 52.0661 12.1384 632 67.8687 1383.83 567.415
86 0 53.0711 12.9637 688 66.8285 1383.38 565.75
87 0 54.1126 12.4185 672 67.3765 1383.19 565.01
88 0 57.1513 13.0006 743 65.5774 1383.51 564.467
89 0 59.1014 13.2992 786 64.8028 1383.45 561.239
90 0 60.0743 12.934 777 65.5006 1383.48 561.059
91 0 62.1061 12.7363 791 67.4298 1383.84 560.971
92 0 62.0935 12.61 783 68.4943 1383.92 558.883
93 0 66.1988 13.7918 913 65.6013 1384.04 557.365
94 0 69.2135 14.1446 979 64.1124 1384.39 556.892
95 0 70.1025 12.6672 888 65.7984 1384.5 554.828
96 0 75.1439 13.8933 1044 62.2443 1384.81 554.45
97 0 77.1399 13.7413 1060 87.4151 1384.64 553.015
98 0 79.2618 12.7678 1012 62.8162 1384.37 554.118
99 0 81.1562 12.5683 1020 63.5961 1384.04 550.005
100 0 83.0616 12.256 1018 65.3458 1384.35 549.838
101 0 88.1403 13.5126 1191 62.7523 1384.48 548.616
102 1 45.035 11.1913 504 62.9802 1384.5 567.571
103 0 44.0257 10.9709 483 64.6108 1385 566.673
104 0 48.084 11.979 576 62.9878 1384.65 565.743
105 0 45.0311 10.4372 470 67.4468 1385.2 564.211
106 0 49.0248 12.1775 597 64.7705 1385.59 563.975
107 0 51.1192 12.4806 638 64.3809 1385.58 563.047
108 0 51.0605 12.1229 619 64.5315 1385.17 563.118
109 0 54.0245 12.6239 682 62.3915 1385.49 562.875
110 0 54.0529 11.2297 607 64.6046 1385.53 562.008
111 0 56.1326 13.2721 745 62.0725 1384.89 560.662
112 0 57.0357 14.0614 802 61.7581 1385.01 558.556
113 0 59.0949 12.8268 758 62.9129 1385.01 559.05
114 0 61.1724 13.4374 822 61.4112 1385.43 558.656
115 0 62.0638 12.2132 758 62.9354 1385.33 558.418
116 0 63.1231 12.341 779 63.5148 1385.46 556.646
117 0 64.1101 12.9153 828 63.5857 1385.36 554.284
118 0 69.0406 12.7461 880 62.9602 1385.31 554.482
119 0 70.0865 13.8828 973 61.89 1384.92 553.699
120 0 71.0959 13.4044 953 63.2613 1384.86 551.386
121 0 72.059 12.3371 889 64.4814 1384.86 550.768
122 0 75.1034 13.4881 1013 62.9645 1384.99 549.707
123 0 78.0468 12.39 967 64.1437 1385.2 547.887
124 0 82.0621 14.0869 1156 61.987 1384.83 547.333
125 0 85.1342 13.0617 1112 62.8013 1384.89 546.411
126 1 44.0573 10.5544 465 63.643 1384.77 565.852
127 0 45.0759 11.2477 507 62.643 1384.71 565.846
128 0 48.054 11.1541 536 63.6175 1384.8 564.239
129 0 48.0474 11.114 534 64.1124 1384.87 564.358
130 0 52.0616 12.1395 632 62.3813 1384.75 563.813
131 0 51.0506 12.6737 647 62.9335 1384.34 563.521
132 0 53.3112 12.5302 668 63.4551 1383.71 562.018
133 0 55.0838 13.071 720 62.5444 1383.47 561.028
134 0 58.1345 12.9011 750 62.4293 1383.08 560.227
135 0 61.0922 13.6024 831 61.4838 1383.11 559.427
136 0 61.1233 12.5484 767 63.6519 1382.99 556.801
137 0 62.1313 12.7955 795 63.6365 1383.01 556.248
138 0 65.153 12.2941 801 63.5718 1383.19 556.794
139 0 68.1415 13.2078 900 62.4367 1382.92 555.079
140 0 70.2335 14.2382 1000 61.502 1382.92 553.214
141 0 71.1256 12.5412 892 64.2915 1382.7 553.148
142 0 75.1334 14.5741 1095 61.5297 1383.11 550.661
143 0 77.1966 12.5135 966 64.8934 1382.79 550.095
144 0 82.2318 14.0335 1154 62.727 1382.95 549.563
145 0 83.1922 13.0902 1089 64.9082 1383.38 547.707
146 1 41.083 9.85809 405 65.8889 1382.6 568.968
147 0 45.0355 11.3022 509 64.387 1382.95 567.373
148 0 47.0339 11.6087 546 64.3883 1382.7 566.421
149 0 48.0509 12.4868 600 65.01 1383.07 563.682
150 0 48.0607 12.4218 597 65.2379 1383.04 564.791
151 0 51.1183 12.207 624 65.4391 1383.19 563.647
152 0 51.089 12.5859 643 65.6143 1383.19 562.705
153 0 53.1441 12.1933 648 66.0895 1382.85 561.904
154 0 55.1148 12.9185 712 66.0253 1383.42 561.698
155 0 56.1125 12.7957 718 66.7214 1383.62 560.23
156 0 58.1343 13.5548 788 64.9581 1383.82 561.995
157 0 61.0937 13.6512 834 64.6427 1383.9 560.098
158 0 62.0665 13.0505 810 66 1383.77 558.828
159 0 66.1201 13.9595 923 64.2199 1383.92 557.582
160 0 67.0759 13.4773 904 65.7367 1383.71 556.779
161 0 68.1056 12.5834 857 67.8938 1383.54 554.839
162 0 72.0768 12.9168 931 66.4092 1383.48 554.806
163 0 74.1115 12.4272 921 67.3909 1383.03 553.736
164 0 76.1249 12.7685 972 67.677 1383.08 552.199
165 0 77.1995 13.1218 1013 67.3603 1383.55 550.838
166 0 81.1136 12.9695 1052 67.4506 1383.42 549.634
167 0 85.198 12.5707 1071 68.07 1384 547.782
168 1 42.0311 10.4922 441 68.1655 1384.38 566.844
169 0 44.0046 10.1353 446 67.9327 1384.35 567.453
170 0 46.0178 10.6915 492 67.063 1384.46 565.986
171 0 50.0391 11.9307 597 64.8693 1385.05 564.524
172 0 49.0635 11.1896 549 66.9417 1384.45 563.49
173 0 51.0357 11.4234 583 66.8182 1384.61 563.554
174 0 54.0125 11.738 634 66.3754 1384.44 562.104
175 0 55.0226 12.3586 680 65.3029 1384.79 561.288
176 0 57.1338 12.0944 691 65.1042 1385.24 559.942
177 0 58.0621 12.9861 754 64.5663 1385.62 558.271
178 0 62.1707 13.1895 820 63.3951 1385.96 557.551
179 0 61.1621 11.7884 721 65.9861 1386.05 558.097
180 0 63.0987 11.7435 741 66.4912 1386.38 555.212
181 0 67.1743 12.088 812 65.8879 1386.17 554.852
182 0 67.1194 12.8875 865 65.7711 1386.34 551.662
183 0 70.0892 12.4556 873 65.9038 1385.8 552.556
184 0 72.1894 12.6888 916 65.8624 1386.69 550.688
185 0 74.1898 13.142 975 65.2687 1386.3 550.078
186 0 77.1996 13.0441 1007 65.7925 1386.51 547.891
187 0 78.1891 13.186 1031 65.4743 1386.49 546.346
188 1 40.1955 10.4987 422 66.8009 1386.64 563.827
189 0 41.2061 10.2897 424 66.033 1386.53 564.889
190 0 43.2263 12.076 522 65.1762 1386.77 562.278
191 0 44.193 11.5403 510 66.002 1386.55 562.622
192 0 45.0798 11.158 503 65.6581 1386.17 562.845
193 0 48.0279 11.9097 572 63.1573 1386.61 562.435
194 0 48.0488 12.2584 589 62.0798 1386.7 562.976
195 0 50.032 12.0523 603 61.4726 1387.38 560.909
196 0 50.032 12.0923 605 153.995 1388.39 560.955
197 0 54.0228 13.2722 717 60.3863 1386.94 558.893
198 0 56.0566 12.7371 714 62.6611 1387 558.294
199 0 55.0319 12.7744 703 63.9858 1386.72 558.367
200 0 56.0374 12.3132 690 65.7217 1387.02 555.896
201 0 58.0255 12.46 723 65.5076 1387.08 555.615
202 0 59.0513 12.4637 736 65.2024 1387.09 556.264
203 0 61.1038 13.027 796 64.6294 1386.94 554.732
204 0 64.0383 12.5081 801 65.2247 1387.06 554.086
205 0 66.0314 13.3876 884 64.3688 1387.15 552.139
206 0 66.1273 13.1111 867 65.842 1387.24 550.75
207 0 70.063 12.9312 906 65.3466 1387.43 551.377
208 0 70.0362 12.9076 904 66.1659 1387.73 549.739
209 0 74.0574 14.2187 1053 64.2004 1387.5 547.33
210 0 77.0358 12.6175 972 66.3251 1387.39 547.164
211 0 79.14 13.3434 1056 65.393 1387.22 545.294
212 1 40.0123 9.52206 381 67.8268 1386.24 565.367
213 0 43.0292 10.5742 455 66.8088 1386.21 566.154
214 0 45.0154 10.9962 495 66.2182 1386.51 562.707
215 0 46.0413 11.5983 534 64.2809 1386.13 563.307
216 0 47.0137 11.1031 522 65.4521 1386.22 562.952
217 0 48.1655 12.6024 607 64.0791 1386.78 560.888
218 0 49.1467 11.9438 587 65.1721 1386.63 560.819
219 0 49.1574 12.3278 606 64.9125 1386.11 561.007
220 0 51.1458 11.8485 606 65.1964 1385.49 560.493
221 0 55.2271 12.2947 679 63.8395 1385.32 560.32
222 0 56.1084 12.4046 696 64.2586 1385.19 557.677
223 0 55.0946 11.6708 643 65.675 1384.99 558.163
224 0 60.0921 12.3477 742 64.3369 1385.18 557.055
225 0 62.1003 12.3027 764 64.2107 1384.97 555.978
226 0 61.093 12.3418 754 65.6897 1384.67 554.698
227 0 62.0927 12.9162 802 165.511 1384.72 553.696
228 0 69.1864 13.3408 923 64.1538 1384.23 550.796
229 0 71.1358 14.4794 1030 62.465 1384.6 551.435
230 0 73.1651 12.5196 916 65.3362 1384.45 549.802
231 0 75.1668 12.3858 931 66.2299 1384.42 548.403
232 1 41.0121 10.8748 446 65.1256 1383.44 566.549
233 0 40.0278 10.9174 437 65.5995 1383.88 567.293
234 0 40.0278 10.8924 436 163.447 1383.89 567.261
235 0 44.0162 12.4272 547 64.2706 1383.67 564.512
236 0 45.0314 11.7474 529 65.3043 1384.17 564.079
237 0 45.1426 11.2532 508 66.6516 1384.7 564.295
238 0 47.1471 12.4504 587 66.2947 1384.63 562.128
239 0 49.0772 11.7162 575 67.1496 1384.55 561.078
240 0 51.0783 11.6488 595 65.8336 1384.55 561.202
241 0 54.0929 12.1458 657 65.1157 1384.06 560.457
242 0 53.1443 11.7981 627 66.7799 1383.79 558.807
243 0 56.1101 12.8319 720 64.4833 1383.46 560.158
244 0 58.1215 12.5771 731 64.9836 1383.37 559.289
245 0 60.0798 12.1672 731 65.8399 1383.47 559.588
246 0 61.1005 12.8313 784 65.2717 1383.35 557.283
247 0 63.1508 13.1273 829 65.2642 1383.47 554.472
248 0 66.2163 12.142 804 65.9229 1383.36 556.606
249 0 69.0729 12.5085 864 65.6748 1383.48 553.916
250 0 70.0859 11.9282 836 67.2297 1383.64 552.324
251 0 74.0924 12.9703 961 65.6566 1383.54 552.765
252 0 73.177 12.5859 921 67.4669 1383.78 549.675
253 0 77.1143 12.8251 989 66.9191 1383.96 548.039
254 0 79.1374 12.1308 960 68.1552 1383.98 548.99
255 0 83.173 12.1313 1009 67.6432 1383.89 548.512
256 1 46.1092 10.1281 467 68.0043 1382.87 563.942
257 0 46.0637 9.68225 446 68.4305 1382.77 565.525
258 0 49.069 11.3106 555 66.6883 1382.9 564.16
259 0 51.0593 11.6923 597 65.7688 1383.11 564.817
260 0 52.0467 12.6425 658 64.6337 1382.65 563.521
261 0 54.0789 11.89 643 66.1462 1383.64 562.624
262 0 53.0787 11.6431 618 68.0987 1383.49 560.712
263 0 55.1392 12.4594 687 66.5706 1383.4 561.509
264 0 57.1148 11.1355 636 68.7531 1383 561.258
265 0 59.1321 12.2269 723 66.7676 1383.13 560.793
266 0 60.0905 11.3329 681 69.3113 1383.05 559.046
267 0 63.1739 12.8692 813 66.8303 1383.12 557.824
268 0 63.1401 11.9734 756 68.373 1383.58 556.139
269 0 66.0414 12.4467 822 67.2153 1383.89 552.283
270 0 71.1337 13.1302 934 65.4058 1384 553.904
271 0 70.089 12.4413 872 67.7179 1384.2 551.186
272 0 74.1395 13.5151 1002 65.9291 1384.17 549.246
273 1 37.1135 9.1611 340 68.9412 1384.46 568.297
274 0 39.0761 10.5947 414 68.1932 1384.73 565.367
275 0 42.0913 9.24181 389 67.9974 1385.43 567.895
276 0 41.0524 9.84109 404 69.3911 1385.63 565.705
277 0 40.1223 10.2686 412 69.335 1385.22 566.073
278 0 43.2412 11.5399 499 67.3246 1384.84 563.804
279 0 45.1177 11.1043 501 67.5968 1384.89 565.776
280 0 46.1143 11.6016 535 67.3065 1385.49 564.454
281 0 47.0783 11.9588 563 66.5329 1385.53 564.192
282 0 50.0849 11.5803 580 67.2328 1385.03 562.755
283 0 50.0457 11.6094 581 67.3632 1384.87 562.873
284 0 51.0319 11.4046 582 67.7251 1384.92 562.538
285 0 54.0503 12.5624 679 65.8616 1384.71 560.994
286 0 54.0886 11.4627 620 68.0629 1385.31 561.029
287 0 56.0696 11.8246 663 67.991 1384.82 560.448
288 0 57.0639 12.67 723 67.0277 1384.84 558.429
289 0 58.0526 11.8169 686 68.102 1384.99 556.878
290 0 61.13 12.1544 743 66.9529 1385.34 556.152
291 0 62.2078 11.3651 707 68.3522 1385.88 555.707
292 0 64.124 12.9437 830 65.8627 1386.55 555.283
293 0 64.124 12.9749 832 146.887 1387.56 555.26
294 0 67.1024 12.9205 867 65.8281 1387.03 552.631
295 0 69.1073 13.0956 905 64.8884 1387.19 551.042
296 0 72.1345 13.7105 989 63.7432 1387.45 549.896
297 0 72.1727 11.7357 847 67.5313 1387.4 548.432
298 0 75.2568 12.9025 971 65.2441 1387.29 548.175
299 0 78.2125 12.9391 1012 65.1077 1387.44 545.916
300 0 81.4886 12.4066 1011 65.9664 1387.48 544.792
301 1 42.098 10.4518 440 66.3 1387.21 563.716
302 0 43.0856 9.51594 410 67.7 1387.17 562.959
303 0 45.0435 9.67953 436 67.1789 1387.33 562.087
304 0 47.0494 11.7536 553 64.9638 1387.22 559.778
305 0 49.0488 11.4988 564 64.406 1387.78 559.037
306 0 48.0362 11.2207 539 65.5844 1387.98 558.757
307 0 51.1068 10.9966 562 65.6744 1387.71 558.705
308 0 52.1167 12.6447 659 62.4476 1388.02 558.29
309 0 55.0473 13.1342 723 61.6501 1388.12 557.375
310 0 58.1343 12.0927 703 61.899 1387.97 558.56
311 0 55.088 12.471 687 64.0335 1387.46 556.191
312 0 55.088 12.471 687 150.552 1387.46 556.224
313 0 61.0372 12.7463 778 63.2931 1387.63 554.037
314 0 62.1246 13.0383 810 63.3926 1387.59 553.589
315 0 63.0197 12.4564 785 63.9656 1387.53 554.929
316 0 63.0218 12.5195 789 157.625 1387.52 554.868
317 0 68.181 12.9068 880 64.3 1387.42 551.184
318 0 70.2293 13.8546 973 63.2066 1387.95 550.166
319 0 70.1428 11.776 826 66.5702 1387.98 549.438
320 0 74.2428 13.0383 968 65.2283 1387.86 548.069
321 0 76.1114 12.9284 984 65.5681 1388 546.485
322 0 79.1878 12.6282 1000 65.851 1387.77 545.353
323 0 80.2201 13.5751 1089 64.9972 1387.79 545.229
324 0 85.2409 13.0336 1111 65.7264 1387.32 541.235
325 0 86.1883 13.2036 1138 66.08 1387 540.589
326 0 89.1748 13.4904 1203 65.6093 1386.98 538.577
327 0 92.1768 13.6477 1258 64.9094 1387.14 540.414
328 0 95.2049 13.0876 1246 65.9759 1387.03 536.495
329 1 48.1536 11.6918 563 65.7584 1386.76 560.631
330 0 52.1358 11.6618 608 64.7763 1386.39 560.053
331 0 53.2077 11.9532 636 65.9057 1385.8 557.075
332 0 55.1455 12.0953 667 65.5502 1386.38 558.064
333 0 56.2008 11.6724 656 67.0152 1386.42 556.36
334 0 58.0178 11.8757 689 67.2612 1385.66 556.594
335 0 63.0795 13.9982 883 63.3794 1385.78 556.055
336 0 63.1227 13.1965 833 65.1477 1385.5 554.346
337 0 65.1635 11.4174 744 67.3831 1385.53 554.962
338 0 67.0854 12.0593 809 66.4487 1385.61 553.864
339 0 70.2626 12.6525 889 65.6693 1385.3 552.035
340 0 73.1697 12.7102 930 65.9882 1385.22 550.648
341 0 74.2617 12.7791 949 67.0105 1384.85 548.619
342 0 76.1071 12.9817 988 67.0202 1385.08 547.831
343 0 81.1794 13.6857 1111 65.1116 1384.95 547.199
344 1 42.0921 10.4057 438 67.5959 1384.33 565.034
345 0 43.1019 10.2316 441 67.8413 1384.43 564.383
346 0 44.2347 10.5121 465 68.3505 1384.86 563.994
347 0 44.037 10.5593 465 68.3312 1384.31 564.944
348 0 48.0747 10.7749 518 67.8687 1384.36 563.826
349 0 49.0431 12.1934 598 66.9214 1384.7 562.177
350 0 49.0263 13.095 642 66.4673 1385.86 561.664
351 0 50.0906 12.0981 606 68.2772 1385.23 560.691
352 0 51.0983 12.0748 617 67.987 1385.2 561.366
353 0 52.1397 12.2939 641 67.9376 1384.77 559.886
354 0 53.097 12.1099 643 68.1089 1384.94 560.095
355 0 58.0566 12.6601 735 65.6748 1384.81 560.766
356 0 57.0997 12.1191 692 68.4191 1384.15 558.795
357 0 61.0865 12.5068 764 67.1165 1383.53 558.187
358 0 60.0986 13.4778 810 66.3654 1383.04 557.6
359 0 62.0559 12.8916 800 66.8063 1383.56 556.494
360 0 64.1308 12.3965 795 67.4352 1383.9 556.108
361 0 65.1095 13.0242 848 66.8101 1384.02 553.995
362 0 65.03 12.3789 805 68.0832 1383.87 554.051
363 0 68.0472 13.0645 889 67.4139 1383.99 551.935
364 0 69.056 13.6701 944 66.7892 1384.13 551.307
365 0 72.114 12.189 879 68.6689 1384.1 550.206
366 0 75.0681 14.0672 1056 66.036 1384.88 548.484
367 0 77.0879 14.5418 1121 65.3764 1384.79 548.144
368 0 78.0791 13.4607 1051 67.4234 1384.76 546.653
369 0 81.1002 13.8471 1123 66.7979 1385.39 546.667
370 0 84.14 13.3825 1126 67.0968 1385.94 543.651
371 0 86.1315 13.5258 1165 66.8858 1385.66 542.76
372 0 90.1774 14.3828 1297 65.8759 1385.89 541.426
373 0 91.1731 13.6992 1249 66.9624 1385.91 540.191
374 0 97.0617 13.9293 1352 66.392 1385.63 538.439
375 1 48.1807 11.2078 540 67.5 1385.3 562.096
376 0 48.0435 11.1566 536 66.4981 1385.15 562.315
377 0 51.0518 12.5167 639 64.4695 1384.86 561.592
378 0 53.071 12.2666 651 65.1813 1385.46 559.47
379 0 53.08 12.679 673 64.7266 1385.38 558.293
380 0 56.2763 12.7407 717 63.9707 1385.51 556.87
381 0 57.1928 12.589 720 64.5014 1386.06 556.425
382 0 59.1643 12.947 766 63.6684 1386.1 556.418
383 0 61.1565 11.8875 727 64.2201 1386.14 556.078
384 0 63.3424 13.2139 837 62.9761 1386.52 552.342
385 0 66.3263 12.8305 851 63.4219 1386.59 550.714
386 0 68.3 12.8697 879 62.9329 1387.04 549.922
387 0 72.5037 13.5165 980 61.1653 1387.38 550.493
388 0 72.2719 13.5599 980 62.1378 1387.65 547.212
389 0 76.292 13.6974 1045 61.4182 1387.53 548.337
390 0 77.2034 13.1341 1014 62.3156 1387.48 545.72
391 0 81.3649 13.6177 1108 61.5785 1387.73 543.521
392 0 82.2642 13.2986 1094 62.1197 1387.69 543.214
393 1 46.1546 11.1582 515 61.701 1387.77 561.567
394 0 47.2363 10.7333 507 62.9842 1387.91 560.759
395 0 50.089 11.0004 551 61.4846 1388.04 560.089
396 0 50.1193 10.9539 549 62.255 1389.05 559.153
397 0 55.0664 11.5315 635 59.9008 1387.8 560.715
398 0 53.1434 11.309 601 62.3594 1388.68 557.175
399 0 58.0453 13.2655 770 58.5403 1388.25 557.721
400 0 56.0625 11.3266 635 61.8598 1388.91 555.487
401 0 60.2565 14.1396 852 57.0681 1388.96 556.752
402 0 64.1135 12.8678 825 59.2194 1389.26 553.754
403 0 67.1978 12.7087 854 58.5246 1389.2 553.103
404 0 68.1891 13.2133 901 58.2442 1389.55 551.869
405 0 69.2544 12.7356 882 59.6372 1389.12 549.982
406 0 73.1584 13.3683 978 58.9315 1389.19 548.519
407 0 75.3671 13.2551 999 58.9429 1388.97 548.581
408 0 78.2292 13.0897 1024 59.1797 1389.02 548.026
409 0 80.3335 13.1452 1056 59.3191 1388.63 546.582
410 0 85.2968 14.772 1260 56.5683 1388.78 546.902
411 1 44.1607 10.6656 471 61.1635 1388.34 560.123
412 0 45.1843 10.7559 486 60.2819 1388.26 560.062
413 0 49.19 11.2421 553 59.2206 1388.01 559.432
414 0 48.1586 11.3998 549 60.5301 1387.97 558.095
415 0 49.0143 11.16 547 62.4004 1388.05 555.89
416 0 52.0307 12.435 647 59.8454 1389.3 555.563
417 0 52.0927 11.5947 604 61.3775 1389.49 555.728
418 0 53.0396 12.5001 663 59.908 1389.19 555.923
419 0 53.0396 12.4435 660 151.771 1388.19 555.939
420 0 53.0396 12.4247 659 151.364 1387.18 555.936
421 0 59.1706 12.4048 734 59.4346 1387.77 553.188
422 0 59.1772 11.643 689 61.6372 1387.03 551.93
423 0 59.0638 11.1744 660 61.7318 1386.72 552.367
424 0 61.1161 10.9627 670 61.909 1387.1 552.024
425 0 63.1481 11.7343 741 61.3644 1386.32 549.07
426 0 65.1591 11.6331 758 61.4789 1386.14 546.719
427 0 68.0775 12.427 846 60.1489 1386.13 547.599
428 0 69.1149 11.8932 822 61.4489 1385.85 546.586
429 0 72.1079 12.2594 884 61.7636 1386.25 546.56
430 0 74.1518 12.5823 933 61.8435 1386.14 545.089
431 0 77.132 12.3684 954 62.5 1385.89 542.83
432 1 42.0302 11.0397 464 61.9849 1386.51 558.776
433 0 46.0518 10.5099 484 62.1612 1386.49 559.653
434 0 45.0792 11.4687 517 61.7002 1385.88 560.132
435 0 47.0329 12.0979 569 60.4552 1386.26 559.448
436 0 48.0236 11.6401 559 61.4132 1386.32 557.937
437 0 50.0636 12.0846 605 61.1917 1386.21 558.992
438 0 51.048 12.4001 633 61.3981 1385.66 558.91
439 0 52.0323 11.2815 587 62.7785 1385.8 558.651
440 0 54.1029 12.2175 661 61.587 1385.55 556.868
441 0 55.0779 11.6562 642 62.9813 1385.64 555.777
442 0 57.0697 12.6687 723 61.3264 1385.32 555.92
443 0 59.0803 12.7454 753 61.4874 1385.17 555.082
444 0 60.1047 12.9274 777 61.2342 1385.03 556.115
445 0 62.0806 12.8381 797 61.3061 1385.19 556.422
446 0 63.0367 13.1352 828 61.2391 1384.78 553.934
447 0 64.0912 13.4964 865 60.5179 1384.71 554.206
448 0 66.1469 12.9409 856 60.8925 1384.58 553.904
449 0 70.0746 13.4285 941 60.4166 1385 552.219
450 0 72.0427 13.2144 952 60.4821 1384.84 551.621
451 0 71.1358 12.68 902 62.2162 1385.13 549.344
452 0 74.1093 12.1712 902 62.7794 1384.45 549.441
453 0 75.0513 12.7113 954 62.6792 1383.64 546.858
454 0 77.0413 13.2397 1020 61.8392 1383.74 547.025
455 0 80.1315 12.779 1024 62.4375 1383.98 544.575
456 1 39.0775 9.26363 362 63.7652 1384.54 565.641
457 0 42.031 10.3257 434 62.235 1384.21 564.643
458 0 45.1106 11.0174 497 62.0744 1384.31 563.787
459 0 48.2718 10.9173 527 62.4175 1384.58 561.653
460 0 50.2735 12.3922 623 60.4783 1385.53 560.727
461 0 52.1426 12.8685 671 60.1311 1384.34 560.554
462 0 52.1044 12.5901 656 61.3598 1384.64 560.084
463 0 54.1707 12.3314 668 61.5344 1384.02 560.21
464 0 56.0805 12.0006 673 62.0312 1384.21 556.554
465 0 58.1514 11.7968 686 62.2143 1384.35 555.86
466 0 58.0889 13.0834 760 61.4474 1384.09 554.379
467 0 64.0673 12.5805 806 60.7841 1384.15 554.35
468 0 65.1159 13.1458 856 60.236 1383.75 553.186
469 0 67.0634 12.4658 836 60.9964 1384.08 553.78
470 0 69.0541 11.5851 800 62.0463 1383.73 551.852
471 0 72.1499 11.8365 854 61.6956 1383.94 550.1
472 0 73.1306 13.5511 991 59.8063 1384.17 550.391
473 0 76.0499 12.689 965 61.285 1383.7 547.712
474 0 78.1313 13.5669 1060 60.2868 1384.28 548.533
475 0 81.0983 12.9226 1048 61.1517 1384.44 546.191
476 0 85.0944 12.4685 1061 61.7851 1384.33 544.703
477 0 87.1087 12.582 1096 61.6469 1384.32 545.256
478 0 90.1413 11.5485 1041 63.1162 1384.17 545.273
479 0 94.0853 13.2752 1249 61.0264 1384.36 540.498
480 0 97.1848 13.2634 1289 61.1047 1384.82 539.588
481 0 99.1302 13.5781 1346 61.1152 1384.78 539.143
482 0 104.069 13.0875 1362 61.301 1384.69 537.492
483 0 107.311 13.186 1415 61.2926 1384.53 533.199
484 0 110.174 12.9432 1426 61.6928 1384.45 532.306
485 0 112.239 12.9723 1456 61.9794 1384.4 530.942
486 0 119.323 13.7693 1643 60.2763 1384.68 528.34
487 0 122.383 14.1441 1731 59.9757 1384.67 527.814
488 0 127.196 13.1451 1672 61.2045 1384.65 525.121
489 1 67.1149 12.5754 844 61.1291 1384.84 551.685
490 0 73.1005 12.3665 904 61.1538 1385.16 551.1
491 0 72.2068 12.6165 911 61.4182 1384.93 548.142
492 0 77.1277 12.4598 961 61.9168 1385.98 546.481
493 0 79.1581 13.5046 1069 60.811 1385.67 547.309
494 0 81.1076 11.8238 959 63.7018 1386 544.657
495 0 83.1474 12.4839 1038 63.0819 1385.59 542.048
496 0 86.2002 13.0858 1128 62.2145 1385.57 541.131
497 0 89.2382 12.7076 1134 63.0855 1385.09 539.965
498 0 94.343 13.9809 1319 61.1114 1385.57 538.03
499 0 96.3071 12.5847 1212 63.3622 1385.41 537.389
500 0 100.358 12.9735 1302 61.8917 1385.03 533.891
501 1 53.1642 11.5491 614 61.4674 1385.38 556.336
502 0 55.3666 11.2884 625 62.1216 1384.63 555.728
503 0 54.091 11.5546 625 62.4736 1385.48 554.003
504 0 58.1699 12.8417 747 60.6867 1385.76 554.348
505 0 58.0634 12.7791 742 62.5647 1386.51 553.698
506 0 61.0952 12.0304 735 63.2612 1386.1 553.933
507 0 61.09 12.9481 791 62.6397 1386.66 553.113
508 0 65.2 14.3252 934 60.3812 1386.37 551.106
509 0 66.0248 13.6312 900 61.8244 1386.37 551.674
510 0 68.2584 13.2731 906 62.4923 1386.16 550.057
511 0 70.0464 14.3476 1005 60.6736 1386.21 550.397
512 0 74.1389 14.0277 1040 61.3433 1386.31 547.419
513 0 76.1945 13.4524 1025 62.7151 1386.36 548.288
514 0 79.0788 14.2137 1124 61.9591 1386.48 546.088
515 0 81.2198 13.1126 1065 63.8113 1386.14 543.406
516 0 84.2665 13.4929 1137 61.8997 1385.97 543.832
517 0 87.2088 13.1753 1149 62.2393 1385.91 541.59
518 1 45.275 10.4473 473 63.4461 1385.92 562.78
519 0 46.1337 11.0765 511 62.82 1385.62 563.17
520 0 45.086 10.8016 487 63.6366 1386.05 561.565
521 0 49.0777 11.0233 541 62.9076 1385.96 561.595
522 0 50.0823 10.9021 546 64.4066 1386.04 559.456
523 0 50.0823 10.8621 544 166.441 1387.04 559.373
524 0 52.0543 12.5062 651 62.573 1388.09 560.49
525 0 53.1072 12.0323 639 64.0047 1387.97 559.476
526 0 55.0688 13.5285 745 61.8403 1387.94 558.745
527 0 57.0503 13.3566 762 62.8766 1388.13 556.866
528 0 57.0459 13.568 774 62.6848 1388.21 557.641
529 0 60.0316 13.4929 810 62.9086 1388.5 556.441
530 0 60.1018 13.577 816 63.3836 1388.04 554.555
531 0 63.1182 13.2767 838 63.0334 1387.99 555.174
532 0 65.108 13.9307 907 63.0684 1387.71 552.805
533 0 66.2437 12.6955 841 64.8502 1387.9 550.092
534 0 71.0501 13.2301 940 63.1362 1388.28 549.977
535 0 71.1413 13.3396 949 63.2244 1387.78 547.821
536 0 75.3126 14.7784 1113 61.4412 1387.74 547.217
537 0 76.123 13.5439 1031 63.0233 1387.5 545.649
538 0 81.3594 13.3851 1089 62.5161 1388.06 542.964
539 1 43.0404 11.4776 494 63.9089 1388.3 561.012
540 0 44.0442 11.3976 502 63.7112 1387.83 561.183
541 0 48.1563 11.9195 574 62.324 1387.95 561.51
542 0 47.1043 11.3365 534 64.0187 1387.37 559.206
543 0 50.189 11.7755 591 63.9628 1387.54 558.465
544 0 52.3747 13.4798 706 61.3031 1387.11 556.316
545 0 53.1982 12.4252 661 62.2088 1386.87 557.339
546 0 57.1873 13.5694 776 59.5709 1386.57 557.776
547 0 54.1912 12.2529 664 62.634 1386.3 555.604
548 0 59.322 13.7554 816 59.424 1386.58 553.706
549 0 61.3091 13.3912 821 59.581 1386.67 554.333
550 0 60.3502 11.5658 698 63.086 1386.39 550.951
551 0 64.3035 12.9542 833 60.9808 1386.64 550.631
552 0 67.2296 13.4167 902 59.8337 1386.54 551.014
553 0 69.2317 14.4154 998 58.4469 1386.48 549.917
554 0 69.6092 13.5902 946 59.8985 1385.98 548.706
555 0 74.1232 14.0037 1038 58.5096 1386.86 548.318
556 0 75.2823 13.6686 1029 59.5491 1386.68 545.271
557 0 77.4663 13.2186 1024 59.8262 1386.28 545.076
558 0 83.3792 13.8164 1152 58.7821 1386.62 542.053
559 1 41.257 10.1559 419 61.3938 1386.1 562.652
560 0 45.1515 10.8302 489 60.8323 1386.37 560.681
561 0 47.0989 12.0173 566 59.1643 1385.83 560.346
562 0 46.1228 12.0765 557 59.4614 1386.7 559.761
563 0 49.1351 12.0891 594 59.5606 1386.71 559.837
564 0 51.1399 11.9672 612 59.6634 1386.54 559.07
565 0 55.1084 13.8092 761 56.5059 1386.3 558.15
566 0 55.1662 12.2176 674 59.1499 1386.09 556.224
567 0 54.2082 11.9539 648 59.6451 1386.15 554.353
568 0 58.0484 13.1098 761 57.7635 1386.44 553.581
569 0 62.1109 13.3149 827 57.1415 1385.8 553.261
570 0 63.097 13.6774 863 56.8088 1385.81 552.78
571 0 62.2078 12.5708 782 58.9987 1385.72 550.28
572 0 64.2689 13.179 847 57.8028 1385.53 550.295
573 0 67.1341 12.8102 860 58.0895 1385.54 550.121
574 0 71.1511 12.6773 902 57.2794 1385.4 549.5
575 0 72.2163 12.9611 936 57.8675 1384.8 545.655
576 0 73.1472 11.9348 873 59.2371 1384.37 545.156
577 0 77.1728 11.9861 925 59.173 1383.89 542.708
578 0 82.2562 12.6556 1041 57.3977 1383.34 542.943
579 1 40.0683 10.2575 411 57.7032 1383.14 562.747
580 0 42.0068 9.54606 401 57.7955 1383.05 564.529
581 0 44.0354 11.4226 503 56.0258 1384.24 562.225
582 0 46.1367 10.3605 478 56.4351 1385.41 562.864
583 0 48.0293 12.2009 586 54.9676 1384.73 561.575
584 0 48.1015 10.956 527 56.4877 1384.93 562.484
585 0 50.038 12.1907 610 54.882 1384.92 560.131
586 0 50.0905 11.8985 596 55.8238 1384.98 560.04
587 0 52.115 11.5897 604 55.7252 1383.73 558.843
588 0 55.1645 11.6923 645 55.6109 1384.47 559.175
589 0 55.1267 12.2808 677 55.0325 1384.34 559.294
590 0 58.2773 12.1488 708 54.8729 1383.95 557.291
591 0 61.1748 12.8321 785 54.1083 1383.62 557.084
592 0 60.3169 11.6219 701 55.6034 1383.53 557.729
593 0 62.2368 12.3721 770 55.2221 1383.39 555.312
594 0 66.401 12.9667 861 53.4611 1383.44 556.215
595 0 67.2968 12.4969 841 53.9536 1383.52 555.202
596 0 69.3286 11.9287 827 54.3216 1383.26 554.138
597 0 72.319 12.4034 897 54.2698 1383.05 551.67
598 0 73.3707 12.0484 884 54.6222 1383.41 551.4
599 0 75.4339 12.3817 934 54.7141 1383.32 548.779
600 0 79.3505 12.9804 1030 54.2039 1383.31 547.092
601 0 80.4118 12.9956 1045 54.1761 1382.68 548.137
602 0 83.5809 13.9864 1169 52.4363 1382.79 544.335
603 0 87.6068 13.6633 1197 52.6642 1382.69 543.046
604 1 44.5552 10.0998 450 53.0378 1382.29 565.629
605 0 44.1944 11.5399 510 53.4078 1383.25 565.812
606 0 48.2433 12.8722 621 51.4654 1383.07 565.738
607 0 47.236 11.8554 560 53.6946 1383.22 565.039
608 0 49.1639 11.5939 570 54.7439 1382.7 563.558
609 0 51.3736 12.1463 624 53.9087 1382.75 562.423
610 0 51.0651 11.6322 594 55.0505 1382.93 562.564
611 0 53.2591 12.4298 662 54.858 1382.55 560.798
612 0 57.1411 13.0379 745 53.8336 1382.62 559.749
613 0 59.1465 13.2045 781 54.041 1383.1 558.814
614 0 59.1022 12.9268 764 54.9437 1383.28 557.857
615 0 61.1852 13.5 826 54.1344 1383.53 556.68
616 0 63.0626 14.2398 898 53.9243 1383.28 555.49
617 0 64.2534 13.8514 890 54.3393 1383.56 555.006
618 0 66.2886 13.7882 914 54.7112 1383.44 555.29
619 0 68.2625 12.7596 871 55.9162 1383.48 554.063
620 0 71.3585 13.0888 934 55.6349 1383.43 553.372
621 0 72.3234 12.5824 910 56.8319 1382.74 554.016
622 0 73.3163 13.0121 954 57.7883 1383.16 551.191
623 0 76.1767 13.5737 1034 56.9923 1383.34 549.969
624 0 78.2381 13.3439 1044 58.0546 1383.04 547.793
625 0 82.2216 13.0866 1076 58.1478 1383.12 546.161
626 0 84.377 13.4515 1135 58.0678 1383.54 545.167
627 0 86.3534 13.3174 1150 59.1713 1383.98 544.511
628 1 44.1123 11.244 496 61.2984 1384.1 564.78
629 0 46.0489 12.1827 561 60.4955 1384.12 564.061
630 0 48.0485 13.2366 636 59.6981 1384.11 564.506
631 0 48.0787 12.9787 624 60.8317 1383.95 561.989
632 0 49.0476 12.7223 624 61.8798 1383.94 561.979
633 0 53.1383 13.5496 720 59.7903 1384.59 562.103
634 0 53.1344 12.9859 690 61.9957 1384.38 559.277
635 0 55.1313 13.2955 733 60.8636 1384.85 558.765
636 0 59.1428 14.0845 833 59.5306 1384.5 556.894
637 0 60.1056 13.7924 829 60.0844 1384.68 556.03
638 0 63.0948 14.2008 896 59.4609 1385.01 556.301
639 0 63.0865 13.7747 869 60.8354 1385.57 553.709
640 0 65.1497 14.152 922 59.987 1385.56 554.479
641 0 65.1497 14.106 919 154.876 1384.55 554.46
642 0 70.1915 14.2325 999 60.6286 1386.66 551.739
643 0 74.2576 14.8133 1100 59.24 1387.06 550.129
644 0 74.1505 14.3492 1064 60.8158 1387.03 549.023
645 0 76.236 14.6256 1115 61.1812 1387.21 548.198
646 0 80.2745 15.148 1216 60.5074 1387.23 546.97
647 0 82.2517 13.2277 1088 63.3107 1387.76 544.593
648 1 43.1857 12.2263 528 64 1387.66 563.29
649 0 43.1548 11.4008 492 65.2785 1387.16 563.689
650 0 45.2267 12.9569 586 63.0956 1387.01 564.195
651 0 46.1617 12.1529 561 65.615 1386.43 561.62
652 0 47.0531 13.3679 629 64.3466 1386.03 560.124
653 0 50.0352 13.4905 675 64.7926 1386.2 559.218
654 0 52.0261 14.1468 736 63.8329 1386.68 558.948
655 0 53.1753 13.9538 742 64.5633 1387.06 558.852
656 0 55.0276 13.993 770 64.0364 1386.59 558.034
657 0 58.1242 14.5722 847 63.1133 1386.79 557.093
658 0 61.0419 13.6791 835 63.7138 1386.84 556.497
659 0 59.0487 13.853 818 65.6565 1386.82 552.9
660 0 62.0721 13.9998 869 64.5696 1387.38 554.494
661 0 65.1299 14.0028 912 64.1557 1387.05 553.195
662 0 66.1228 14.2311 941 64.6397 1387.14 549.316
663 0 69.0768 14.4332 997 63.9027 1387.17 550.242
664 0 71.201 13.7498 979 64.7967 1387.16 548.969
665 0 71.1679 14.2901 1017 65.1062 1387.23 547.618
666 0 75.1755 13.7678 1035 65.23 1387.61 546.09
667 0 77.2796 14.3634 1110 64.0387 1387.91 545.257
668 0 81.4366 12.6233 1028 66.0302 1388.46 544.249
669 1 44.2244 11.9391 528 62.9924 1388.5 563.472
670 0 42.1681 11.2407 474 65.5063 1388.15 563.167
671 0 46.1088 12.5789 580 63.4103 1388.28 560.388
672 0 45.1276 13.1848 595 64.0185 1388.6 559.205
673 0 48.1958 13.0717 630 63.1746 1388.59 559.756
674 0 48.0571 13.2759 638 63.4937 1388.84 559.462
675 0 48.0134 12.9131 620 64.729 1388.99 555.887
676 0 51.0185 13.6029 694 63.1888 1388.91 556.684
677 0 53.0978 13.2962 706 63.0042 1388.68 556.327
678 0 55.099 13.6844 754 62.618 1388.59 553.273
679 0 56.2367 13.8877 781 61.8899 1388.9 552.548
680 0 57.1107 12.0818 690 64.1087 1388.76 553.184
681 0 61.174 14.7775 904 60.1582 1389.19 552.827
682 0 65.1173 14.543 947 59.1214 1389.25 554.415
683 0 65.0512 13.205 859 61.8207 1389.77 553.48
684 0 74.0899 14.6174 1083 58.3241 1390.32 551.307
685 0 73.1232 15.9867 1169 58.1454 1390.22 550.402
686 0 78.2011 15.4601 1209 56.7295 1390.13 553.6
687 0 73.2063 13.9196 1019 62.5378 1389.84 548.952
688 0 78.1076 15.4018 1203 59.6974 1389.61 547.427
689 0 80.2451 15.0663 1209 61.2051 1389.34 545.237
690 0 83.1944 14.6164 1216 61.5271 1389.28 545.562
691 0 85.1911 14.4147 1228 61.9463 1389.3 544.124
692 1 43.0162 12.7626 549 62.4171 1389.57 562.018
693 0 42.0629 12.1723 512 64.6797 1388.75 560.498
694 0 45.1219 12.9427 584 62.9914 1387.59 560.611
695 0 45.1027 12.2166 551 64.5808 1387.64 560.998
696 0 46.1757 12.734 588 64.3146 1388.32 558.26
697 0 48.1474 13.2717 639 63.2144 1388.17 558.282
698 0 51.1569 13.2729 679 62.3741 1388.21 557.415
699 0 51.0954 13.0345 666 63.6231 1388.49 556.617
700 0 53.177 13.22 703 63.1977 1387.69 556.798
701 0 55.1592 12.8718 710 63.2718 1387.69 555.475
702 0 58.06 13.7099 796 61.5804 1387.58 554.289
703 0 60.2078 12.8056 771 62.6861 1387.16 553.852
704 0 60.139 13.3857 805 63.2994 1387.5 553.096
705 0 61.1192 12.4511 761 64.4231 1386.99 552.959
706 0 65.0895 13.3969 872 63.0459 1386.99 549.327
707 0 66.1095 12.6154 834 64.3597 1387.11 547.74
708 0 69.124 12.7452 881 63.2418 1386.84 549.797
709 0 74.0734 13.4731 998 62.4409 1386.79 547.123
710 0 71.0718 12.3396 877 64.4265 1386.66 546.433
711 0 76.074 12.685 965 64.0943 1386.59 543.431
712 1 42.0423 11.0127 463 63.3542 1386.47 563.348
713 0 43.0207 10.6925 460 64.0522 1387.25 562.772
714 0 45.0716 12.4247 560 62.1375 1387.21 561.612
715 0 46.0157 12.5392 577 62.5043 1387.18 561.362
716 0 45.1066 11.1514 503 65.4155 1386.28 561.485
717 0 48.0711 12.6271 607 62.7875 1386.6 561.801
718 0 49.0907 12.9352 635 63.1417 1386.36 558.652
719 0 52.0608 12.5046 651 62.725 1386.36 558.856
720 0 54.1483 13.0567 707 61.4342 1385.79 558.354
721 0 54.147 12.4291 673 63.1813 1385.82 557.07
722 0 56.1332 12.5594 705 63.0482 1385.63 556.834
723 0 58.2475 12.8074 746 62.0054 1385.73 558.054
724 0 62.1438 13.4688 837 60.5639 1385.52 554.841
725 0 60.1441 12.5864 757 63.5535 1385.58 553.653
726 0 64.0846 10.7202 687 63.9287 1385.32 554.208
727 0 67.2064 12.2161 821 62.324 1385.02 552.46
728 0 69.0938 13.5902 939 60.9393 1385.36 552.502
729 0 71.076 12.8173 911 61.6937 1385.6 550.355
730 1 38.0526 11.0636 421 61.5107 1385.6 567.01
731 0 41.0343 10.9421 449 61.4989 1385.21 565.971
732 0 43.0241 13.1089 564 59.234 1385.01 564.61
733 0 42.0145 11.5912 487 61.5051 1384.99 563.967
734 0 45.0785 12.0457 543 61.5912 1385.28 563.965
735 0 45.0615 11.4954 518 62.0444 1385.01 564.654
736 0 49.1439 12.4125 610 61.9262 1383.89 562.413
737 0 49.1896 13.7224 675 60.6148 1383.81 561.742
738 0 53.1799 12.5047 665 61.1669 1383.6 562.835
739 0 51.1359 12.7308 651 62.4439 1383.37 560.538
740 0 53.1651 12.3765 658 62.8146 1382.86 561.571
741 0 53.1651 12.3954 659 155.372 1382.85 561.578
742 0 56.2256 13.1257 738 62.5501 1383.7 557.77
743 0 58.107 13.9226 809 61.7268 1383.47 558.298
744 0 58.0629 12.4348 722 64.5028 1383.68 558.956
745 0 60.1415 13.302 800 63.1275 1383.78 559.102
746 0 62.1071 13.3801 831 63.4477 1384.44 557.384
747 0 64.2407 13.4961 867 63.6148 1383.87 556.273
748 0 65.0689 13.0631 850 64.1659 1384.07 556.729
749 0 68.1627 13.145 896 64.1272 1383.81 555.491
750 0 69.1141 14.1505 978 63.2515 1383.39 552.537
751 0 74.1452 13.9186 1032 62.7122 1382.83 552.025
752 0 76.1126 13.953 1062 63.9482 1382.36 551.355
753 0 76.1106 13.7432 1046 65.0421 1382.1 550.62
754 0 81.1401 14.4934 1176 63.477 1382.32 548.51
755 0 83.0996 14.0675 1169 64.3302 1382.04 547.387
756 1 44.1151 12.2181 539 65.4675 1381.87 567.167
757 0 44.0848 12.0677 532 65.9756 1382.61 567.073
758 0 47.1786 13.2051 623 64.3596 1382.95 565.144
759 0 46.0712 12.8063 590 66.1288 1383.05 565.763
760 0 49.1107 13.887 682 65.2317 1382.45 564.069
761 0 52.0437 13.6616 711 65.2602 1382.27 562.162
762 0 52.1046 13.7224 715 65.7119 1382.39 561.899
763 0 54.1401 12.7817 692 66.7399 1382.43 562.517
764 0 56.0835 13.4442 754 66.8329 1382.43 562.306
765 0 57.0859 13.7512 785 66.158 1381.98 559.838
766 0 60.0391 13.841 831 66.0156 1381.69 559.019
767 0 61.0767 12.9509 791 66.8243 1381.99 558.899
768 0 66.1455 13.5761 898 64.8252 1381.95 557.302
769 0 66.0197 13.6777 903 65.6545 1382.27 555.775
770 0 69.0749 14.2888 987 64.2462 1382.08 554.772
771 0 70.0814 13.5557 950 65.2779 1382.51 554.798
772 0 73.0668 14.302 1045 64.2211 1382.74 552.972
773 0 76.1418 12.9627 987 65.7021 1382.13 552.698
774 0 79.0666 14.1147 1116 63.2509 1381.99 552.342
775 1 40.0341 12.6392 506 64.9506 1381.93 569.65
776 0 43.0665 11.4242 492 64.7825 1381.95 571.016
777 0 44.1248 12.9179 570 64.4684 1381.97 568.605
778 0 46.1185 12.2511 565 64.6796 1381.92 567.554
779 0 47.0205 12.7391 599 64.5776 1381.97 566.195
780 0 48.0505 12.799 615 64.5626 1381.77 565.081
781 0 52.072 13.1933 687 62.7016 1381.94 565.584
782 0 52.132 13.3315 695 63.4403 1382.5 563.892
783 0 55.0507 13.86 763 62.6304 1382.51 562.377
784 0 54.0412 13.7118 741 63.5371 1383.14 561.946
785 0 58.0726 13.2937 772 63.7293 1383.32 560.176
786 0 58.0972 12.9782 754 64.7745 1383.48 558.253
787 0 60.1001 13.9767 840 63.5429 1383.45 558.519
788 0 63.0949 12.9012 814 65.4545 1383.46 556.64
789 0 65.1897 12.5173 816 65.685 1383.55 557.398
790 0 69.1459 12.799 885 64.7559 1384.18 554.827
791 0 71.1187 13.7798 980 64.2388 1384.35 551.443
792 0 75.1644 13.9694 1050 64.1143 1384.82 551.255
793 1 38.0712 11.6624 444 66.3086 1385.25 567.277
794 0 40.0241 11.1933 448 66.183 1384.97 568.547
795 0 41.0309 12.3322 506 65.4289 1385.32 566.346
796 0 43.1043 13.2934 573 65.2286 1384.68 565.6
797 0 45.1229 13.5408 611 64.7921 1385.1 563.998
798 0 47.2076 12.5615 593 65.1703 1385.23 563.708
799 0 47.0865 12.8487 605 65.3636 1385.12 563.58
800 0 50.123 13.2075 662 64.5831 1385.54 561.934
801 0 52.1032 12.9551 675 64.4578 1385.84 562.547
802 0 54.1227 13.802 747 63.573 1385.43 559.928
803 0 55.053 12.8058 705 64.1106 1385.87 560.881
804 0 57.1244 13.7945 788 63.3249 1386.43 559.145
805 0 58.0824 13.3087 773 63.8577 1386.72 557.122
806 0 62.1032 13.7513 854 62.2646 1386.6 556.92
807 0 61.2369 13.0967 802 62.9352 1387 555.409
808 0 66.1848 13.4019 887 61.7802 1387.25 554.979
809 0 67.3323 12.3863 834 63.8022 1386.76 552.203
810 0 71.2041 13.7773 981 61.3639 1386.51 551.188
811 0 72.2357 13.0683 944 62.2331 1386.55 552.417
812 0 74.2697 12.5354 931 63.1386 1386.68 550.662
813 0 77.1863 12.865 993 63.0735 1386.98 548.45
814 1 42.1712 12.3307 520 61.1231 1386.9 565.983
815 0 44.2258 11.4413 506 61.8913 1387.25 564.555
816 0 44.3103 11.6903 518 60.7954 1387.53 564.492
817 0 45.1654 12.2217 552 60.8207 1386.7 563.701
818 0 48.0915 12.4762 600 59.7117 1386.74 563.373
819 0 48.1963 10.9967 530 62.2868 1387.07 562.86
820 0 50.0933 12.2172 612 60.1618 1386.68 561.753
821 0 52.2197 13.156 687 59.3595 1386.67 561.098
822 0 52.2451 12.3265 644 60.3727 1386.42 561.129
823 0 54.3015 13.0567 709 59.6178 1386.49 559.071
824 0 57.1582 13.0165 744 59.3629 1386.64 557.172
825 0 57.2207 12.8974 738 60.0217 1386.8 557.068
826 0 59.2516 12.371 733 60.6698 1385.96 554.805
827 0 61.3103 10.9117 669 61.9133 1386.22 555.734
828 0 64.1496 11.2705 723 60.6501 1386.41 555.513
829 0 66.1947 12.5841 833 59.8727 1385.91 552.373
830 0 69.3299 12.5054 867 60.098 1385.6 550.167
831 0 69.2323 12.3353 854 60.4052 1385.63 550.767
832 1 34.1365 7.35284 251 63.6773 1385.29 570.414
833 0 36.1933 10.3887 376 61.1915 1385.57 567.67
834 0 40.1158 10.7688 432 60.419 1385 566.94
835 0 40.184 11.3976 458 62.0066 1385.06 565.62
836 0 41.0553 11.521 473 61.8837 1385.27 563.681
837 0 44.201 12.6694 560 59.5339 1384.76 563.821
838 0 45.195 11.7491 531 60.0565 1384.99 563.983
839 0 46.0838 12.1518 560 60.3143 1384.7 562.377
840 0 47.0545 12.4749 587 60.753 1384.4 560.244
841 0 48.1724 12.1024 583 60.5695 1384.6 560.966
842 0 51.1266 12.1854 623 60.451 1383.86 560.814
843 0 51.1412 12.006 614 61.3274 1384.11 557.485
844 0 52.1385 11.4311 596 61.6141 1383.96 559.977
845 0 55.3597 12.6988 703 60.5903 1383.9 557.703
846 0 57.1444 12.6347 722 60.4515 1384.21 558.785
847 0 59.3131 11.9872 711 61.2152 1383.77 557.45
848 0 60.3181 12.2351 738 60.8943 1383.98 555.564
849 0 63.3318 12.9635 821 59.2777 1383.9 555.799
850 0 66.2095 12.4907 827 60.5961 1383.91 553.377
851 0 68.3612 12.7558 872 59.7294 1383.77 554.282
852 0 67.467 12.0207 811 60.8274 1383.63 552.348
853 0 73.4679 13.448 988 58.5789 1383.24 550.266
854 0 73.3098 13.0269 955 59.9958 1383.74 548.845
855 0 78.3862 12.9359 1014 59.6982 1383.71 548.227
856 1 39.1198 11.1453 436 59.211 1383.46 568.631
857 0 39.2126 10.7108 420 61.4214 1383.73 566.738
858 0 42.171 12.1411 512 59.1562 1383.59 565.691
859 0 42.1985 11.7066 494 60.8441 1383.1 565.312
860 0 45.1528 12.7345 575 58.7252 1383.49 564.355
861 0 45.1951 12.3907 560 59.7107 1383.81 564.595
862 0 46.2132 12.3774 572 59.972 1383.44 564.395
863 0 49.077 12.3276 605 59.6793 1383.63 563.266
864 0 51.1229 12.7927 654 59.396 1383.32 562.619
865 0 51.1081 12.8355 656 60.2591 1382.84 560.878
866 0 52.1919 13.5462 707 60.0014 1382.97 560.553
867 0 54.1343 13.8729 751 60.0146 1382.91 558.719
868 0 56.4415 14.7764 834 58.7554 1383 556.243
869 0 58.5198 13.3801 783 61.1047 1382.73 558.572
870 0 56.2663 13.8093 777 61.7091 1382.33 555.959
871 0 62.3878 14.7144 918 58.793 1381.79 550.602
872 0 64.559 16.0473 1036 57.0232 1381.87 550.18
873 0 63.4756 14.6198 928 60.903 1381.56 550.282
874 0 64.5309 14.1638 914 61.7549 1381.35 551.146
875 0 62.6483 13.4561 843 63.9359 1381.07 549.692
876 0 65.5851 13.3414 875 64.1509 1381.48 550.136
877 0 69.489 14.031 975 63.3846 1381.35 548.405
878 0 71.7062 13.4298 963 65.5504 1381.61 548.482
879 0 73.4682 13.6522 1003 69.6201 1381.51 547.593
880 0 75.5294 14.0475 1061 68.7738 1381.29 545.694
881 0 78.7073 14.1537 1114 69.2621 1381.36 543.72
882 0 80.7303 13.7619 1111 71.1062 1381.23 543.664
883 1 41.5293 11.1969 465 72.4 1380.77 563.529
884 0 43.3697 10.4912 455 74.444 1380.61 562.932
885 0 46.2618 11.5214 533 73.1576 1380.57 561.593
886 0 46.3728 11.2782 523 75.2715 1380.81 561.767
887 0 46.0893 11.6947 539 77.8442 1381.25 560.631
888 0 49.1383 13.2076 649 82.3128 1382.71 560.476
889 0 52.5095 13.7118 720 89.2556 1382.92 561.249
890 0 54.1993 13.1736 714 77.6429 1383.12 561.143
891 0 54.1696 13.4946 731 64.156 1383.02 559.052
892 0 55.214 13.2213 730 64.3575 1383.27 557.075
893 0 56.2834 13.7341 773 63.6766 1383.62 556.626
894 0 56.2834 13.7163 772 163.61 1384.63 556.618
895 0 59.2707 13.16 780 65.1474 1383.21 555.235
896 0 62.2145 13.8714 863 63.781 1383.13 555.038
897 0 63.4769 12.3352 783 66.7433 1383.27 553.327
898 0 66.2225 13.8926 920 64.65 1383.5 551.217
899 0 68.2393 13.7604 939 64.8307 1383.73 549.554
900 0 70.1593 13.17 924 65.6926 1384.17 549.694
901 0 72.2319 14.0381 1014 64.6598 1384.64 546.927
902 0 74.3797 13.8613 1031 65.0475 1384.63 544.094
903 0 79.3214 13.4138 1064 65.1062 1384.72 543.849
904 1 42.2653 11.9247 504 64.4365 1384.79 562.323
905 0 42.2169 11.7252 495 65.604 1385.26 561.17
906 0 42.2552 11.2885 477 67.2138 1385.44 560.197
907 0 45.2039 11.8131 534 65.9345 1385.2 560.384
908 0 47.0905 12.8051 603 63.6335 1384.81 560.367
909 0 46.0641 12.7648 588 64.4354 1384.98 560.371
910 0 48.0799 12.7496 613 64.5628 1385.02 559.054
911 0 48.1262 13.236 637 64.2135 1385.18 558.465
912 0 51.0898 12.5465 641 65.0983 1385.64 559.303
913 0 53.0682 13.624 723 64.0041 1385.88 557.928
914 0 54.1456 12.8912 698 64.7378 1386.03 557.262
915 0 56.2578 12.6205 710 65.0549 1386.25 556.731
916 0 57.0708 11.4419 653 67.5651 1386.56 553.164
917 0 59.0984 12.8261 758 65.715 1386.48 553.195
918 0 60.1082 12.7936 769 65.9168 1387.05 551.523
919 0 62.0912 12.9487 804 65.2015 1386.45 552.392
920 0 66.0645 12.73 841 65.0333 1386.75 548.751
921 0 69.1412 13.1615 910 64.3978 1386.67 548.065
922 0 70.2225 13.5142 949 63.9104 1386.62 548.037
923 0 71.1522 13.45 957 64.6635 1386.63 546.903
924 0 73.063 12.9204 944 65.4354 1386.81 545.404
925 0 76.0724 13.4609 1024 64.0264 1387.24 544.985
926 1 38.0937 8.7941 335 66.9433 1386.59 565.158
927 0 41.103 10.2669 422 65.4668 1387.11 562.062
928 0 40.1585 10.7823 433 65.1709 1387.91 562.926
929 0 43.1709 10.1457 438 65.0342 1387.57 562.482
930 0 43.0863 11.419 492 64.9634 1388.26 561.974
931 0 45.0278 12.0148 541 65.3494 1388.48 559.433
932 0 47.1667 12.6996 599 64.3673 1388.75 559.846
933 0 47.0203 11.9736 563 66.0036 1388.6 560.082
934 0 48.0213 12.4945 600 65.11 1388.74 558.738
935 0 50.0272 12.6331 632 64.6171 1388.48 558.835
936 0 53.0815 13.4322 713 63.1557 1388.3 558.588
937 0 55.0368 12.3009 677 65.0827 1388.09 556.765
938 0 56.1104 13.5804 762 63.664 1386.7 555.331
939 0 59.1562 12.9488 766 64.5444 1386.8 554.462
940 0 60.1813 12.2796 739 65.1083 1386.57 554.568
941 0 60.1677 13.1798 793 64.9155 1386.34 552.305
942 0 64.1988 12.399 796 65.1206 1386.03 551.465
943 0 65.3326 13.0257 851 64.5699 1386.21 550.698
944 0 68.1629 13.0569 890 64.6326 1385.8 550.536
945 1 35.107 10.938 384 65.5208 1384.69 565.372
946 0 37.0991 9.11072 338 67.1036 1384.33 565.467
947 0 38.0623 10.8244 412 65.8325 1383.63 564.468
948 0 38.0239 11.5191 438 66.4817 1384.2 563.384
949 0 39.0207 11.4042 445 66.0562 1384.17 564.101
950 0 42.1439 11.4845 484 64.6756 1384.63 563.795
951 0 42.037 12.2035 513 63.6823 1385.95 562.682
952 0 46.0118 12.6924 584 62.5257 1385.38 562.995
953 0 45.0298 11.5923 522 64.6743 1385.22 561.801
954 0 45.0801 12.0009 541 64.5527 1385.09 562.612
955 0 48.0816 12.5204 602 63.7442 1385.13 561.452
956 0 47.0243 12.1427 571 65.8109 1385.29 561.385
957 0 50.0271 12.1934 610 65.123 1385.14 558.875
958 0 51.1016 12.9546 662 64.3202 1385.03 562.284
959 0 52.1022 12.8401 669 65.0777 1385.15 558.611
960 0 52.0332 13.4145 698 64.8553 1385.05 558.752
961 0 56.0539 13.0945 734 64.3351 1385.16 557.877
962 0 57.0968 13.7486 785 62.4344 1385.37 556.431
963 0 59.0411 12.2118 721 64.5381 1385.65 555.379
964 0 60.0907 12.9637 779 63.5276 1385.44 554.519
965 0 63.0594 13.0353 822 63.0195 1385.68 552.724
966 0 65.057 13.2192 860 62.4814 1385.73 552.163
967 0 68.0871 13.468 917 61.7263 1385.65 549.831
968 0 69.1173 12.8911 891 62.5196 1385.45 548.925
969 1 36.0291 10.1584 366 63.3388 1384.66 568.404
970 0 37.0718 9.98063 370 63.7946 1384.7 568.003
971 0 35.0195 9.45187 331 65.3444 1383.18 567.006
972 0 40.4229 11.5034 465 59.7914 1386.33 565.544
973 0 38.3317 12.2875 471 60.0297 1386.21 563.242
974 0 39.3153 12.3361 485 60.9052 1385.33 561.34
975 0 40.4627 11.9616 484 60.2459 1385.36 563.558
976 0 43.4064 11.8876 516 59.7209 1384.94 562.926
977 0 40.3448 10.9804 443 63.2144 1384.81 563.343
978 0 45.248 11.8458 536 60.7854 1384.35 561.901
979 0 47.3167 11.4759 543 61.3683 1384.12 561.552
980 0 46.4125 12.4966 580 61.4103 1384.17 561.038
981 0 46.279 12.3382 571 61.8074 1384.02 560.494
982 0 50.3435 12.4147 625 60.848 1383.35 559.491
983 0 49.3719 12.0514 595 62.0739 1383.27 558.555
984 0 51.2774 12.4226 637 61.606 1383.3 557.841
985 0 53.3676 11.8611 633 62.8294 1383.54 559.493
986 0 55.3151 13.2514 733 60.9141 1383.71 557.607
987 0 57.3776 12.1302 696 62.5057 1383.62 556.58
988 0 56.3617 11.9407 673 62.6746 1383.54 554.939
989 0 61.3943 12.9979 798 61.1729 1383.06 553.939
990 0 63.3611 12.342 782 62.0128 1383.07 555.235
991 0 63.4404 13.6506 866 60.5624 1383.02 553.997
992 0 68.218 13.5888 927 60.5631 1382.42 551.827
993 0 68.3118 12.238 836 63.2022 1382.21 550.695
994 0 70.1905 12.0244 844 63.4645 1382.5 549.117
995 0 75.2482 12.8774 969 61.806 1382.79 549.203
996 1 40.2223 11.3121 455 61.7978 1383.67 565.347
997 0 39.0699 10.366 405 63.5037 1382.52 567.96
998 0 41.0324 11.0644 454 63.0066 1383.28 565.74
999 0 44.1777 11.9065 526 60.8878 1382.51 565.728
1000 0 44.0988 11.6556 514 62.0778 1383.65 565.498
1001 0 46.1528 11.5703 534 61.9757 1383.38 565.039
1002 0 46.1528 11.6569 538 159.182 1383.36 565.091
1003 0 48.1193 12.3443 594 61.1566 1382.62 562.059
1004 0 48.1109 11.4735 552 62.2029 1382.18 562.232
1005 0 49.2836 11.1802 551 63.1543 1382.26 562.267
1006 0 52.0791 11.6938 609 61.6289 1382.31 561.34
1007 0 54.1261 12.8404 695 60.0532 1382.71 559.695
1008 0 56.151 11.7896 662 61.432 1382.87 558.962
1009 0 57.1671 11.9299 682 61.3607 1383.06 559.358
1010 0 57.0966 11.717 669 62.3468 1382.79 557.568
1011 0 61.1443 12.3805 757 62.2074 1382.94 556.086
1012 0 62.1112 11.8497 736 62.9457 1382.69 556.702
1013 0 65.212 12.0223 784 62.1837 1382.55 555.878
1014 0 68.0799 12.1769 829 61.725 1382.41 554.368
1015 0 69.119 12.0372 832 61.8762 1382.4 553.689
1016 1 36.0769 11.1152 401 61.1372 1382.69 568.254
1017 0 38.1879 9.9246 379 62.4538 1382.88 567.763
1018 0 39.1866 10.6669 418 61.1029 1383.18 566.792
1019 0 40.4898 12.0771 489 59.2986 1383.23 565.967
1020 0 41.1571 11.1524 459 60.2505 1384.16 564.991
1021 0 44.1902 13.5777 600 55.955 1384.06 563.925
1022 0 44.154 11.8223 522 58.7107 1384.37 564.377
1023 0 44.1237 11.3998 503 59.5726 1384.13 563.41
1024 0 46.1791 12.2566 566 58.811 1384.34 563.143
1025 0 47.2393 11.6217 549 59.439 1384.13 562.627
1026 0 49.2382 11.4748 565 59.0531 1383.89 560.991
1027 0 51.2218 11.4014 584 58.7312 1384.08 561.798
1028 0 51.2218 11.4209 585 144.115 1385.1 561.802
1029 0 54.2693 12.1063 657 58.0289 1385.04 556.921
1030 0 55.3741 12.0273 666 58.3739 1385.12 556.282
1031 0 57.158 12.5092 715 57.5874 1384.62 556.997
1032 0 57.198 12.7277 728 57.2912 1384.27 556.321
1033 0 59.2563 12.2519 726 57.9311 1384.51 554.558
1034 0 62.3504 13.3921 835 56.1749 1384.49 552.84
1035 0 63.3032 12.0689 764 58.1034 1384.11 553.046
1036 0 62.3576 10.4398 651 58.4055 1383.98 548.618
1037 0 64.5008 11.8293 763 57.0682 1384.06 547.371
1038 0 70.7129 13.2508 937 54.8602 1384.03 545.515
1039 0 72.4556 14.7401 1068 52.8773 1384.74 543.302
1040 0 78.4667 15.5862 1223 50.8193 1385.53 538.206
1041 1 35.2547 9.38883 331 55.29 1383.91 565.798
1042 0 36.253 8.99235 326 56.1595 1384.89 559.365
1043 0 37.2056 9.94473 370 54.5811 1386.14 561.049
1044 0 39.195 10.2564 402 54.4677 1385.63 563.015
1045 0 42.1446 11.4368 482 54.3382 1386.87 564.502
1046 0 45.0828 12.111 546 52.2198 1386.77 563.39
1047 0 44.0841 10.7295 473 54.203 1386.54 562.909
1048 0 44.1585 10.9605 484 54.4463 1386.6 561.283
1049 0 48.125 11.3662 547 54.8227 1386.57 560.581
1050 0 48.0925 10.2303 492 56.1159 1386.77 560.278
1051 0 50.1172 9.97662 500 56.608 1386.71 558.782
1052 0 51.1762 11.1966 573 55.4712 1387.14 558.965
1053 0 53.1302 9.90021 526 56.3365 1386.8 558.411
1054 0 58.1433 12.538 729 52.583 1387.44 558.181
1055 0 56.2485 11.3603 639 55.0563 1387.41 554.355
1056 0 61.2514 12.6364 774 52.5879 1387.79 553.682
1057 0 61.2514 12.6364 774 131.258 1387.79 553.682
1058 0 63.1918 12.3117 778 53.2879 1387.75 552.581
1059 0 65.2936 11.9001 777 53.2432 1387.53 553.004
1060 0 66.1901 11.1044 735 54.1442 1387.53 552.408
1061 0 69.1561 11.3656 786 53.1438 1387.35 551.912
1062 0 72.2559 11.8745 858 52.9149 1386.9 548.245
1063 0 74.2069 12.1687 903 52.4629 1386.68 547.712
1064 0 75.2821 11.7956 888 53.143 1387.04 547.554
1065 0 80.2937 11.6697 937 53.2177 1387.07 547.522
1066 0 82.4981 12.0851 997 52.8506 1386.71 544.171
1067 1 39.2947 8.49988 334 55.476 1386.42 564.323
1068 0 44.3938 10.9475 486 53.2428 1386.62 562.591
1069 0 44.3872 10.476 465 53.9505 1386.4 561.477
1070 0 46.2847 11.3212 524 52.9389 1386.61 561.227
1071 0 47.3308 11.0921 525 53.2267 1386.66 560.31
1072 0 49.2654 11.6715 575 52.8435 1387.01 559.692
1073 0 49.3088 11.0934 547 53.8227 1386.62 560.053
1074 0 51.184 11.6443 596 53.2651 1386.51 558.279
1075 0 52.1303 11.7014 610 53.8475 1385.69 559.192
1076 0 53.204 12.3299 656 52.9588 1385.51 559.651
1077 0 55.1705 12.0173 663 53.8824 1385.37 557.747
1078 0 54.0901 11.1851 605 55.2033 1385.32 558.332
1079 0 58.113 12.5789 731 53.5021 1385.56 557.269
1080 0 59.1125 12.417 734 54.1158 1385.33 555.99
1081 0 60.0896 12.5978 757 54.3461 1385.48 554.029
1082 0 63.1558 13.0788 826 53.6441 1385.64 553.977
1083 0 65.1632 13.1669 858 53.7879 1385.73 554.404
1084 0 66.3298 12.9504 859 54.7043 1386.18 551.977
1085 0 67.1434 13.6573 917 54.9815 1386.1 550.667
1086 0 72.1154 13.5339 976 54.7244 1385.98 550.685
1087 0 72.1029 13.2311 954 54.522 1384.88 551.278
1088 0 74.1155 12.602 934 55.1617 1384.87 551.412
1089 0 76.1266 12.1902 928 56.3588 1384.55 549.256
1090 1 42.0187 10.6857 449 56.3675 1383.53 565.069
1091 0 44.0319 10.2653 452 57.3606 1383.96 565.447
1092 0 48.0239 11.0362 530 56.8623 1384.75 563.966
1093 0 48.1446 12.3794 596 55.7114 1384.82 562.443
1094 0 48.0361 12.4282 597 56.8911 1385.02 562.171
1095 0 51.0257 13.8166 705 55.8794 1385.9 560.916
1096 0 53.0802 12.321 654 57.4817 1385.53 560.508
1097 0 55.0298 13.0838 720 55.4292 1385.6 556.344
1098 0 56.0347 11.8855 666 57.4204 1385.67 557.752
1099 0 58.0768 14.0504 816 55.0441 1385.31 556.814
1100 0 57.0497 13.3392 761 56.7109 1385.5 554.808
1101 0 60.0565 13.0877 786 56.785 1384.76 554.225
1102 0 61.0947 12.6361 772 56.465 1385.42 555.891
1103 0 63.126 12.6097 796 57.1734 1383.69 554.229
1104 0 63.1796 12.5673 794 57.8123 1383.92 553.547
1105 0 66.03 12.7821 844 57.7014 1383.86 553.528
1106 0 69.1262 12.8461 888 56.8086 1384.23 550.191
1107 0 71.1228 13.554 964 56.0602 1383.97 550.922
1108 0 73.1586 14.2704 1044 55.2912 1383.68 550.144
1109 0 76.2033 14.3563 1094 55.181 1383.71 549.443
1110 0 74.1984 13.3696 992 157.058 1382.64 547.792
1111 0 79.1589 13.454 1065 56.3887 1384 545.875
1112 0 82.186 12.8367 1055 57.2635 1383.96 543.178
1113 1 43.1271 10.6661 460 57.9326 1384.53 565.241
1114 0 42.0672 10.4119 438 58.3721 1384.55 565.046
1115 0 45.0107 10.7308 483 57.7536 1383.82 564.793
1116 0 48.0882 12.2275 588 56.0969 1383.54 562.573
1117 0 47.0389 11.735 552 56.7065 1383.72 562.19
1118 0 52.0977 12.5725 655 55.2992 1383.03 562.096
1119 0 51.0781 12.4319 635 56.1606 1383.01 561.417
1120 0 54.0939 12.3119 666 56.2958 1383.14 560.58
1121 0 53.0765 11.9262 633 57.7946 1383.24 559.777
1122 0 56.072 12.7871 717 56.59 1382.66 558.213
1123 0 57.0499 13.1814 752 55.3245 1382.11 559.265
1124 0 61.0937 13.0128 795 55.1245 1382.77 558.429
1125 0 61.1076 12.6335 772 56.3303 1383.26 555.826
1126 0 61.1294 11.1403 681 59.3172 1383.5 556.667
1127 0 64.1233 12.2109 783 57.5121 1382.92 554.153
1128 0 65.1957 12.7156 829 57.4753 1382.93 553.672
1129 0 70.064 12.7598 894 56.8143 1382.81 552.451
1130 0 71.1523 13.6327 970 56.4598 1383.3 551.762
1131 0 73.1303 12.3205 901 58.1421 1383.34 552.284
1132 0 76.2488 13.1543 1003 57.2792 1383.75 548.48
1133 0 78.1865 12.6876 992 58.1129 1382.84 548.843
1134 0 78.1246 12.4161 970 58.9237 1383.35 547.931
1135 0 84.1143 13.1012 1102 57.6543 1382.94 543.635
1136 0 86.2219 13.3609 1152 57.447 1382.44 544.401
1137 1 48.0933 10.6668 513 58.8265 1383.5 564.341
1138 0 48.0815 10.8982 524 58.5592 1384.12 563.653
1139 0 48.0941 10.9993 529 59.2344 1384.34 561.166
1140 0 54.1023 12.1806 659 57.003 1383.84 560.687
1141 0 54.0614 12.5043 676 58.9615 1383.78 557.775
1142 0 54.0614 12.5413 678 156.139 1384.76 557.765
1143 0 59.2526 13.1471 779 58.0295 1384.12 556.526
1144 0 58.173 12.4972 727 59.9285 1384.39 554.924
1145 0 62.2513 12.6905 790 59.6924 1384.49 552.985
1146 0 64.1334 12.7858 820 59.7037 1384.4 551.343
1147 0 66.1976 12.7799 846 59.5709 1384.18 550.39
1148 0 69.1448 13.2765 918 59.317 1383.9 551.499
1149 0 69.0866 13.2153 913 59.816 1384.19 550.922
1150 0 73.1205 14.059 1028 58.5447 1384.69 550.627
1151 0 75.0856 13.8775 1042 59.2159 1385.12 547.66
1152 0 76.1516 13.9984 1066 59.5141 1386.02 546.148
1153 0 80.1354 12.9905 1041 60.4976 1386.57 545.577
1154 0 83.1897 12.7059 1057 61.088 1386.82 543.76
1155 0 86.224 13.4881 1163 59.7661 1386.47 544.644
1156 0 88.1277 14.3088 1261 59.0254 1386.94 540.784
1157 1 45.0697 10.3617 467 61.4133 1386.08 563.274
1158 0 46.0519 10.8573 500 61.492 1386.96 560.79
1159 0 48.074 11.2743 542 60.8026 1386.08 560.546
1160 0 49.1121 11.6876 574 60.6324 1386.85 560.113
1161 0 51.1006 11.8003 603 59.0713 1386.54 561.358
1162 0 51.0802 11.8637 606 60.6881 1387.05 559.792
1163 0 55.0964 11.5434 636 60.6509 1388.36 558.814
1164 0 53.1209 11.9915 637 60.7221 1388.73 556.835
1165 0 57.183 12.2064 698 60.1562 1388.47 556.097
1166 0 63.1923 14.3847 909 54.8614 1385.56 552.392
1167 0 70.1585 16.0351 1125 50.4347 1387.52 548.148
1168 0 71.2747 15.2228 1085 51.447 1389.91 546.391
1169 0 73.2737 18.6015 1363 48.3236 1390.25 546.109
1170 0 74.2119 18.1642 1348 49.3694 1390.66 548.028
1171 0 75.3496 19.4294 1464 48.3743 1390.52 548.712
1172 0 76.2486 16.6954 1273 51.4517 1389.84 545.456
1173 0 74.2048 15.026 1115 55.3202 1389.48 546.792
1174 0 74.2305 14.9265 1108 56.4143 1389.66 546.961
1175 0 73.1367 13.1671 963 59.9283 1389.38 548.345
1176 0 74.3415 12.8596 956 60.8661 1389.71 545.976
1177 0 77.3039 12.7937 989 61.09 1389.86 546.369
1178 0 81.3503 13.067 1063 60.7573 1389.96 545.975
1179 0 82.351 12.8232 1056 61.9081 1389.97 542.775
1180 0 85.3184 13.4672 1149 61.0635 1390.03 541.981
1181 0 88.3345 13.2677 1172 61.1254 1390.2 543.899
1182 0 92.3792 14.2673 1318 59.3703 1389.74 541.482
1183 1 47.2427 12.3194 582 59.9656 1389.46 563.299
1184 0 51.3347 11.5906 595 61.0975 1388.83 561.452
1185 0 49.0948 10.6732 524 63.5172 1389 558.508
1186 0 52.0973 11.6897 609 61.9212 1389.12 558.578
1187 0 54.0314 12.3262 666 61.6261 1389.95 556.447
1188 0 57.1309 12.6201 721 60.3745 1388.97 555.535
1189 0 57.3251 13.1007 751 61.9241 1389.31 556.041
1190 0 58.0954 12.7032 738 62.5379 1389.19 555.972
1191 0 59.1162 13.0929 774 62.0452 1389.14 555.855
1192 0 62.0695 13.0015 807 62.8389 1389.01 554.1
1193 0 62.1905 12.0276 748 63.738 1388.51 554.316
1194 0 65.0973 12.8423 836 62.0323 1388.35 551.915
1195 0 65.1069 12.4257 809 63.2151 1388.15 552.943
1196 0 68.223 12.8256 875 62.5234 1385.51 549.222
1197 0 71.1054 12.5307 891 62.6498 1386.24 550.003
1198 0 74.1471 13.0282 966 62.2422 1386.08 549.14
1199 0 75.3055 13.2261 996 62.0371 1386.4 548.596
1200 0 78.4168 13.5303 1061 61.5278 1386.63 545.954
1201 0 79.3781 13.0011 1032 62.8033 1386.68 544.548
1202 0 84.2306 13.6886 1153 61.2827 1386.74 545.042
1203 0 86.4001 13.1134 1133 62.09 1386.76 543.886
1204 0 88.2844 13.094 1156 62.7863 1386.74 541.938
1205 0 90.1619 13.6421 1230 62.1049 1386.39 540.185
1206 0 93.2546 12.8037 1194 63.2077 1386.71 538.316
1207 1 50.2021 12.0911 607 62.8501 1387.01 561.173
1208 0 51.1379 11.7916 603 63.0929 1386.28 560.847
1209 0 52.1445 11.6407 607 63.5338 1386.15 559.362
1210 0 55.173 12.3611 682 60.9985 1386.13 558.988
1211 0 55.2057 11.3756 628 63.1895 1384.87 558.215
1212 0 58.0817 12.1897 708 62.3729 1384.64 556.627
1213 0 60.2792 13.5868 819 59.7289 1384.98 556.06
1214 0 63.1407 12.9393 817 60.4651 1385.02 554.274
1215 0 63.0646 12.5744 793 61.2547 1384.61 554.594
1216 0 67.2378 12.9689 872 60.1307 1384.39 553.167
1217 0 69.1211 12.7168 879 60.3777 1384.41 552.767
1218 0 71.2083 12.2739 874 60.4703 1384.13 551.619
1219 0 74.1738 13.1583 976 59.3371 1384.29 549.211
1220 0 77.3236 13.437 1039 58.9836 1384.24 548.083
1221 0 77.2522 13.553 1047 59.4747 1384.33 547.008
1222 0 79.4026 12.9089 1025 60.2244 1384.67 546.494
1223 0 81.4096 12.3327 1004 60.2012 1383.17 541.002
1224 0 86.5186 12.9568 1121 58.7101 1383.21 537.651
1225 0 94.4789 15.6331 1477 53.6716 1381.6 535.94
1226 0 91.6163 14.7244 1349 56.3699 1382.56 535.01
1227 0 95.6529 12.6708 1212 59.0215 1383.7 534.787
1228 1 48.7549 9.9272 484 59.7748 1383.84 557.907
1229 0 49.6031 10.201 506 59.5059 1383.2 558.417
1230 0 50.3881 11.0939 559 58.9732 1383.5 556.411
1231 0 52.5023 10.7233 563 59.1208 1383.19 556.357
1232 0 54.5667 12.2419 668 57.5195 1382.87 554.533
1233 0 55.8142 11.6099 648 58.0941 1382.43 554.259
1234 0 57.6896 11.5619 667 58.0285 1381.7 554.043
1235 0 57.2949 12.1302 695 58.5252 1381.98 550.973
1236 0 59.5639 11.9368 711 59.2757 1382.9 551.691
1237 0 61.6088 11.8814 732 59.6858 1382.5 551.641
1238 0 63.6937 12.4345 792 58.6806 1382.83 550.096
1239 0 68.5484 13.1878 904 57.0243 1382.48 549.237
1240 0 69.6758 14.0221 977 56.7369 1383.11 549.074
1241 0 72.3778 13.5815 983 57.3469 1383.03 547.363
1242 0 73.7247 12.7637 941 58.3029 1382.63 546.205
1243 0 76.4962 13.3732 1023 57.9511 1383.62 543.664
1244 0 79.5658 13.5611 1079 57.5459 1383.56 543.417
1245 0 82.5002 12.7515 1052 58.4724 1384.02 544.876
1246 1 45.6114 10.4579 477 59.8071 1382.58 561.157
1247 0 47.5332 10.8556 516 59.7655 1382.61 559.839
1248 0 49.4191 11.0686 547 60.5155 1382.38 559.585
1249 0 50.2944 12.1286 610 59.3623 1382.24 559.239
1250 0 49.1628 11.289 555 60.6342 1382.65 557.533
1251 0 53.2636 12.3349 657 58.618 1382.54 555.904
1252 0 54.257 12.6804 688 58.4608 1383.31 556.523
1253 0 55.1857 13.0106 718 59.2312 1383.15 554.401
1254 0 56.1826 12.5306 704 60.5455 1383.11 553.176
1255 0 57.1029 12.6614 723 60.3693 1382.92 554.243
1256 0 62.096 13.3181 827 58.3543 1383.06 552.833
1257 0 61.1002 13.0114 795 59.9535 1383.17 551.355
1258 0 63.1111 13.0088 821 60.5627 1384.02 550.739
1259 0 65.1564 13.1223 855 60.1158 1383.93 550.325
1260 0 67.1607 12.2542 823 61.0377 1384.64 548.468
1261 0 70.4584 13.5399 954 59.7893 1385.25 548.421
1262 0 72.4989 12.8278 930 60.8398 1384.94 549.63
1263 0 73.3236 12.8335 941 61.2646 1385.28 549.2
1264 0 76.4446 12.9898 993 61.136 1385.77 548.92
1265 0 78.4061 13.3536 1047 60.3247 1386.22 546.274
1266 0 82.3121 13.7647 1133 59.9982 1386.4 543.741
1267 0 84.4855 13.1383 1110 61.0333 1386.25 542.578
1268 1 46.3329 9.97131 462 61.7792 1386.95 563.89
1269 0 48.3049 11.1169 537 60.6276 1386.94 562.715
1270 0 50.1961 10.5187 528 61.7992 1387.05 561.153
1271 0 52.2338 11.2571 588 61.0272 1387.45 559.711
1272 0 52.2405 12.2319 639 61.0423 1387.16 557.175
1273 0 55.0743 12.2017 672 61.131 1387 558.016
1274 0 59.1452 13.7966 816 58.7868 1387.45 557.108
1275 0 58.2359 14.6302 852 58.5587 1387.74 556.002
1276 0 59.0987 12.9106 763 60.7628 1387.85 555.509
1277 0 61.1911 12.3384 755 61.0172 1388.27 552.943
1278 0 64.1364 13.5337 868 59.0472 1388.47 552.618
1279 0 66.0633 14.2136 939 58.263 1388.69 551.277
1280 0 67.2988 12.764 859 60.4668 1388.78 551.432
1281 0 72.1127 14.0752 1015 58.5842 1388.64 549.814
1282 0 72.2521 13.5775 981 59.4261 1388.7 548.309
1283 0 75.3276 13.8462 1043 58.8035 1389.36 545.336
1284 0 78.2322 14.1758 1109 58.2876 1389.5 546.281
1285 0 81.2229 13.9862 1136 58.5088 1389.28 543.481
1286 0 87.2023 17.5225 1528 52.5281 1388.82 548.546
1287 1 45.2614 11.533 522 59.4291 1389.31 561.257
1288 0 47.3362 11.3021 535 59.7178 1389.32 560.533
1289 0 47.267 11.8476 560 60.3214 1389.56 559.129
1290 0 50.1961 13.5269 679 57.3579 1389.71 559.364
1291 0 56.3822 14.5081 818 53.302 1389.89 562.584
1292 0 53.0223 12.6362 670 59.1493 1388.24 557.552
1293 0 56.0576 13.6288 764 56.7958 1388.38 558.204
1294 0 56.1073 12.993 729 58.0727 1388.57 557.641
1295 0 57.0819 13.4193 766 58.1227 1388.72 555.18
1296 0 57.0589 11.567 660 60.9894 1388.9 554.861
1297 0 62.1169 14.1346 878 56.68 1389.18 554.047
1298 0 60.1094 13.2259 795 58.444 1389.78 554.348
1299 0 72.3495 14.1259 1022 53.9423 1389.95 555.881
1300 0 66.0909 13.2091 873 57.4055 1390.13 553.483
1301 0 72.1679 14.2861 1031 54.3705 1389.53 555.039
1302 0 70.1936 13.2491 930 57.0527 1389.86 551.165
1303 0 72.0721 13.5698 978 56.6779 1390.29 550.23
1304 0 82.1514 14.4611 1188 52.5185 1390.17 552.756
1305 0 77.1699 13.9562 1077 55.52 1389.26 548.389
1306 0 82.0805 14.2908 1173 55.1057 1388.97 546.526
1307 0 80.3694 13.4131 1078 56.6011 1388.85 543.001
1308 0 84.2 14.1924 1195 55.7163 1388.22 542.76
1309 0 85.3886 12.4958 1067 57.8163 1387.98 541.907
1310 0 89.3766 13.3256 1191 56.5726 1387.78 539.882
1311 0 91.2242 13.0996 1195 56.8778 1388.33 538.114
1312 0 96.2541 14.4306 1389 54.8107 1387.86 537.673
1313 0 97.2595 13.5617 1319 56.8741 1387.34 534.816
1314 1 50.1163 10.9745 550 57.7036 1387.08 558.813
1315 0 52.0435 10.5104 547 57.2797 1386.37 557.214
1316 0 53.1285 11.6322 618 56.9159 1385.73 559.992
1317 0 54.0674 11.7076 633 56.7141 1386.45 558.678
1318 0 59.0331 12.2135 721 56.0749 1386.39 555.925
1319 0 61.055 12.7918 781 55.1767 1387.26 552.485
1320 0 65.1286 13.0818 852 54.6045 1387.01 555.906
1321 0 65.1252 12.2073 795 55.678 1387.01 554.852
1322 0 67.1872 12.9489 870 54.854 1385.66 552.262
1323 0 69.0875 12.4769 862 55.9466 1386.08 549.326
1324 0 72.1446 12.5442 905 55.2221 1385.97 551.775
1325 0 73.1282 12.7721 934 55.273 1385.44 548.876
1326 0 77.2019 13.4841 1041 53.9827 1385.41 548.764
1327 0 78.1423 12.7588 997 55.2989 1385.18 548.948
1328 0 81.116 12.4266 1008 55.3373 1385.27 547.338
1329 0 83.0828 13.0593 1085 55.5447 1385.53 543.059
1330 0 87.2595 13.5573 1183 54.3584 1385.51 544.835
1331 0 89.1188 12.8368 1144 55.9082 1385.35 540.936
1332 0 92.1941 13.4824 1243 54.1786 1385.18 538.318
1333 1 46.0426 10.7292 494 57.3158 1384.18 562.534
1334 0 47.0511 9.52155 448 59.183 1384.48 563.938
1335 0 50.0906 11.0999 556 57.4029 1384.31 563.07
1336 0 53.1445 11.0642 588 57.5119 1384.37 561.146
1337 0 53.0665 10.8166 574 57.5296 1384.12 560.828
1338 0 56.0216 12.4595 698 55.5745 1384.24 558.143
1339 0 56.0782 12.3042 690 56.2043 1384.75 557.31
1340 0 59.2172 12.26 726 55.2989 1384.48 559.806
1341 0 61.0508 12.0883 738 55.7832 1384.49 556.646
1342 0 62.0598 12.4235 771 55.3696 1385.04 553.7
1343 0 63.1231 11.739 741 56.1795 1384.51 553.615
1344 0 65.0666 12.4642 811 55.5438 1384.03 552.571
1345 0 68.1096 12.5093 852 55.412 1384.41 553.94
1346 0 70.0933 12.626 885 55.3119 1384.58 550.06
1347 0 74.26 12.2138 907 55.7244 1384.57 549.286
1348 0 75.1744 12.1717 915 56.4328 1384.82 548.054
1349 0 78.1253 12.8512 1004 56.1205 1384.75 547.997
1350 0 79.1231 12.7902 1012 56.5899 1384.29 547.138
1351 1 43.1623 9.9624 430 56.4767 1384.93 566.686
1352 0 43.1569 9.61607 415 56.9807 1385.14 566.793
1353 0 46.0142 10.9097 502 55.504 1384.48 566.398
1354 0 43.0703 9.65862 416 58.0889 1384.74 566.671
1355 0 46.068 10.2023 470 57.9319 1382.61 564.481
1356 0 49.1787 10.6754 525 57.5295 1382.73 564.987
1357 0 50.1018 12.0155 602 56.8106 1382.39 562.839
1358 0 52.2578 12.3618 646 57.0139 1383.76 562.721
1359 0 52.275 12.1855 637 58.9513 1384 561.155
1360 0 54.2794 12.6383 686 58.5262 1383.84 560.414
1361 0 55.333 12.0904 669 59.5007 1383.59 561.299
1362 0 57.2656 11.2284 643 61.0451 1384.03 561.426
1363 0 59.3325 12.9103 766 59.0326 1383.64 557.508
1364 0 59.3032 12.2759 728 60.8242 1383.76 559.014
1365 0 60.2564 12.1149 730 61.5356 1383.6 558.288
1366 0 61.1908 12.077 739 61.8322 1383.52 557.195
1367 0 63.3558 12.8796 816 59.8836 1383.77 557.145
1368 0 66.2471 13.51 895 58.9575 1383.21 555.564
1369 0 67.2568 12.7719 859 60.1409 1383.38 554.739
1370 0 69.2957 12.0787 837 61.4086 1383.28 553.82
1371 0 71.4856 12.7298 910 60.1242 1383.34 553.611
1372 0 73.565 12.3021 905 61.6055 1382.56 551.112
1373 0 76.2287 12.961 988 60.5587 1383.21 551.404
1374 0 77.3007 12.1086 936 62.1528 1383.1 547.965
1375 0 81.3751 12.7435 1037 60.8004 1383.19 548.363
1376 0 83.4926 12.4083 1036 61.0386 1383.19 548.233
1377 1 44.2579 9.44463 418 62.6962 1383.6 568.072
1378 0 45.2186 11.3228 512 61.1895 1383.76 565.73
1379 0 46.1838 10.6314 491 62.0346 1383.95 565.64
1380 0 48.1462 10.4058 501 61.9661 1383.85 566.431
1381 0 49.2223 10.6049 522 61.864 1383.97 565.423
1382 0 52.1531 12.425 648 56.5278 1383.54 562.602
1383 0 52.1566 11.8298 617 58.5413 1382.85 563.146
1384 0 54.1267 11.8241 640 59.8828 1382.55 562.837
1385 0 56.1387 11.7744 661 60.7247 1382.78 560.974
1386 0 58.0866 12.3781 719 59.4019 1383.37 560.566
1387 0 58.1196 12.285 714 59.8838 1383.73 559.352
1388 0 60.3314 12.3319 744 59.3481 1383.85 558.367
1389 0 60.2954 11.9578 721 60.3856 1384.23 556.549
1390 0 61.153 12.6241 772 59.8446 1384.96 556.935
1391 0 65.2353 12.8151 836 59.0227 1384.98 556.054
1392 0 66.3089 13.3315 884 58.5701 1385.32 553.649
1393 0 69.1634 12.8247 887 58.3968 1385.31 552.896
1394 0 71.2631 12.966 924 57.9848 1385.36 553.628
1395 0 71.4328 10.5414 753 60.9721 1385.62 553.325
1396 0 73.2538 13.2689 972 58.1564 1385.65 548.961
1397 0 75.4303 12.727 960 58.5583 1385.46 547.821
1398 0 78.1484 12.7962 1000 58.17 1385.98 547.727
1399 0 81.4175 12.7123 1035 58.3749 1386.05 545.064
1400 0 83.4457 12.9785 1083 57.7211 1386.3 544.569
1401 0 88.2834 13.1168 1158 57.1002 1386.4 543.415
1402 0 89.4028 13.3777 1196 56.9615 1386.34 541.583
1403 0 91.4191 12.9513 1184 57.7128 1386.29 539.873
1404 0 97.5221 13.3098 1298 56.292 1386.6 539.984
1405 0 94.316 12.0764 1139 59.0255 1386.86 535.604
1406 0 100.472 13.1779 1324 56.6171 1386.66 530.682
1407 0 104.567 13.8475 1448 55.7604 1387.11 529.813
1408 0 105.496 11.7919 1244 58.2106 1387.81 528.223
1409 0 109.573 13.8173 1514 55.9135 1388.06 528.623
1410 1 58.486 10.5495 617 56.53 1387.56 555.961
1411 0 58.3589 10.3669 605 57.5041 1388.41 552.901
1412 0 61.5971 11.5265 710 56.2155 1388.35 553.223
1413 0 63.5528 12.588 800 54.7112 1388.55 549.884
1414 0 65.119 12.1931 794 55.3224 1388.81 548.712
1415 0 66.2768 11.633 771 55.8236 1388.77 549.811
1416 0 70.3063 12.0331 846 55.3924 1388.68 547.673
1417 0 73.3437 13.2663 973 54 1388.74 548.627
1418 0 74.3882 13.4699 1002 54.6806 1388.35 545.538
1419 0 78.3956 13.1512 1031 54 1388.07 546.195
1420 0 80.2333 12.7752 1025 54.7698 1387.84 543.985
1421 0 82.4401 12.1543 1002 55.0539 1388.12 541.479
1422 0 84.2272 12.9174 1088 54.3649 1387.84 540.13
1423 0 89.1697 12.8855 1149 53.4717 1388.12 541.151
1424 0 91.2146 13.6382 1244 53.3529 1388.37 535.909
1425 0 95.3509 13.8121 1317 52.4822 1388.01 534.903
1426 0 96.3419 13.7323 1323 53.2268 1387.84 533.06
1427 0 100.347 12.2873 1233 54.3293 1387.79 533.448
1428 0 101.482 12.6229 1281 54.2521 1388.06 530.708
1429 0 107.417 13.1916 1417 53.0628 1387.82 527.046
1430 0 106.479 11.8521 1262 54.7433 1387.52 522.922
1431 1 59.2174 10.301 610 54.2311 1387.2 550.728
1432 0 61.2174 11.3856 697 53.2984 1386.87 551.267
1433 0 64.1912 12.7899 821 51.8721 1387.16 550.319
1434 0 64.5871 12.1696 786 53.5433 1387.54 550.491
1435 0 68.2624 12.7449 870 52.8345 1387.78 547.774
1436 0 71.2776 12.9634 924 53.1786 1387.47 545.659
1437 0 72.2973 12.6837 917 53.976 1387.41 545.044
1438 0 76.2431 13.1028 999 53.3684 1386.87 545.612
1439 0 77.3535 13.4189 1038 53.6609 1386.31 542.697
1440 0 79.2866 12.0575 956 54.7322 1386.09 541.848
1441 0 82.3279 13.9807 1151 52.8367 1386.42 540.39
1442 0 86.319 12.8014 1105 53.4923 1386.33 541.652
1443 0 89.287 14.0558 1255 52.2908 1385.97 540.907
1444 0 92.2771 12.9826 1198 53.6586 1385.54 538.091
1445 0 95.2197 12.5709 1197 53.7778 1385.2 535.904
1446 0 99.2486 12.9977 1290 53.8612 1385.97 531.308
1447 1 57.1558 9.7278 556 52.3777 1385.28 557.448
1448 0 58.2647 10.3836 605 52.886 1386.67 556.021
1449 0 63.2144 12.9401 818 51.4511 1386.66 556.219
1450 0 62.1626 12.4995 777 51.6641 1386.7 554.911
1451 0 65.2077 11.9924 782 52.5473 1386.45 554.017
1452 0 66.0924 12.4523 823 52.4496 1386.09 550.896
1453 0 69.1307 12.4691 862 52.674 1385.62 550.91
1454 0 71.2333 12.452 887 51.7745 1385.71 550.688
1455 0 73.1895 12.0509 882 53.076 1385.45 550.168
1456 0 76.0841 12.9988 989 52.454 1385.14 547.135
1457 0 79.2232 12.8119 1015 52.669 1385.13 547.248
1458 0 81.2504 12.123 985 54.1462 1385.15 544.698
1459 0 84.2351 14.3408 1208 51.4925 1385.05 546.382
1460 0 85.2065 12.7807 1089 53.6033 1385.09 545.506
1461 0 87.312 11.625 1015 55.0089 1384.94 543.676
1462 0 92.2752 12.712 1173 53.0128 1385 543.813
1463 0 94.2055 12.356 1164 54.2689 1385.29 537.76
1464 0 97.1785 12.4513 1210 54.5397 1384.78 535.646
1465 0 102.171 13.4285 1372 53.094 1385.23 533.296
1466 0 104.225 12.8759 1342 53.2928 1384.94 535.814
1467 0 105.156 12.6955 1335 54.7318 1384.83 530.522
1468 0 110.17 13.1887 1453 53.2622 1384.71 531.156
1469 0 112.242 13.7114 1539 52.911 1384.32 527.398
1470 0 117.215 13.6672 1602 52.9969 1384.36 528.177
1471 0 120.372 12.9515 1559 53.7043 1383.81 525.498
1472 0 121.302 14.13 1714 53.2299 1384.19 523.312
1473 0 125.208 12.9784 1625 54.2671 1384.41 522.278
1474 0 131.316 13.7302 1803 53.1048 1384.11 521.439
1475 0 135.358 12.1899 1650 54.9697 1383.85 518.638
1476 0 138.321 12.7746 1767 54.2796 1383.81 515.778
1477 0 145.237 14.3215 2080 52.351 1384.2 515.169
1478 1 80.1969 11.397 914 52.6138 1384.64 544.914
1479 0 80.0838 11.3007 905 53.095 1383.89 545.776
1480 0 80.0838 11.2507 901 156.675 1382.89 545.789
1481 0 86.2079 11.8203 1019 52.9087 1384.14 543.14
1482 0 89.1015 11.3017 1007 53.3347 1384.81 543.763
1483 0 93.2153 11.5003 1072 52.8228 1384.74 543.968
1484 0 97.3357 12.6675 1233 51.5953 1383.8 538.628
1485 0 99.2313 12.2139 1212 52.3111 1383.75 538.333
1486 0 102.277 12.0653 1234 52.6199 1384.01 538.161
1487 0 107.203 12.2199 1310 52.0511 1383.78 537.15
1488 0 108.243 12.3334 1335 52.1154 1383.2 534.024
1489 0 111.243 11.5423 1284 53.5475 1383.56 531.908
1490 0 115.309 12.679 1462 52.6026 1383.57 532.204
1491 1 67.146 10.7825 724 52.4061 1383.79 555.856
1492 0 67.0838 9.46577 635 53.8362 1383.83 555.95
1493 0 70.0977 12.0689 846 51.4586 1384.19 552.613
1494 0 73.1993 11.8854 870 52.0609 1382.96 551.899
1495 0 75.1122 12.7276 956 51.1161 1384.38 548.79
1496 0 76.1899 13.5582 1033 50.9981 1384.26 549.622
1497 0 77.1791 12.4127 958 52.1378 1384.6 546.084
1498 0 78.0871 12.7166 993 52.2578 1384.99 545.668
1499 0 78.1578 11.7583 919 54.6507 1384.01 545.252
1500 0 81.258 12.208 992 54.9234 1385 540.486
1501 0 84.1274 11.8748 999 55.5646 1384.36 542.151
1502 0 87.1329 11.6948 1019 55.9686 1384.74 542.612
1503 0 90.1855 12.4299 1121 55.8751 1385.43 540.42
1504 0 93.2376 13.235 1234 55.6329 1385.37 538.052
1505 0 95.1476 13.9362 1326 55.1124 1385.42 535.127
1506 0 97.1295 12.6223 1226 57.7015 1385.24 534.721
1507 0 100.295 12.9119 1295 56.905 1385.41 533.974
1508 0 105.231 13.5417 1425 56.0204 1385.88 534.428
1509 0 106.16 12.6413 1342 57.3308 1385.94 532.937
1510 0 110.248 13.5603 1495 56.6495 1385.84 532.92
1511 0 113.348 12.7836 1449 57.2112 1386.31 526.36
1512 0 118.514 13.1293 1556 56.6626 1386.83 526.934
1513 0 121.518 13.9321 1693 56.3455 1387.18 524.963
1514 1 66.3285 12.0461 799 57.7484 1387.81 554.053
1515 0 64.2634 11.484 738 59.8631 1387.52 551.963
1516 0 68.1714 11.7645 802 57.591 1388.06 550.799
1517 0 70.3595 11.5549 813 57.5941 1388.38 550.128
1518 0 71.2016 13.0475 929 56.3681 1387.34 548.446
1519 0 71.1703 12.3507 879 57.851 1389.12 547.11
1520 0 77.2544 13.3326 1030 55.9175 1388.75 546.731
1521 0 78.3113 13.74 1076 56.5967 1388.89 544.497
1522 0 81.1865 13.7338 1115 56.5704 1388.96 542.941
1523 0 82.2586 12.9834 1068 58.0581 1389.02 541.823
1524 0 87.2008 15.0687 1314 54.1111 1389.19 538.807
1525 0 87.3751 12.475 1090 57.7798 1389.27 540.785
1526 0 91.2812 14.9428 1364 54.8013 1389.58 538.809
1527 0 92.151 13.9228 1283 55.6298 1388.88 537.627
1528 0 98.2518 13.6384 1340 55.3567 1388.55 539.068
1529 0 100.177 13.2166 1324 56.179 1388.56 536.927
1530 1 53.1175 10.505 558 57.0233 1389 558.889
1531 0 57.0967 12.0497 688 53.689 1388.92 558.711
1532 0 55.1761 11.0011 607 56.3954 1389.16 556.988
1533 0 56.1546 12.6081 708 55.1907 1389.61 554.237
1534 1 71.4096 11.8051 843 53.3926 1390.49 556.517
1535 0 72.2914 13.6116 984 50.3699 1389.76 559.303
1536 0 63.3997 13.0758 829 54.7829 1390.17 554.934
1537 1 80.7761 11.8847 960 52.551 1390.32 555.881
1538 1 68.5004 13.1094 898 54.6036 1389.9 554.93
1539 0 78.6009 15.5978 1226 48.8426 1390.42 558.892
1540 0 70.2538 13.0954 920 56.0902 1389.21 549.841
1541 0 74.3596 13.0313 969 55.9267 1388.46 549.937
1542 0 76.1876 14.8318 1130 53.9628 1388.31 550.172
1543 0 75.1496 13.4399 1010 56.6663 1388.47 546.111
1544 0 78.2958 13.564 1062 56.3399 1388.65 546.073
1545 0 83.2643 13.9676 1163 55.4695 1388.48 545.397
1546 0 84.3087 13.5099 1139 56.1545 1388.8 542.701
1547 0 88.1563 13.6462 1203 55.9576 1388.44 541.297
1548 0 90.2279 13.5878 1226 56.0987 1388.75 538.884
1549 0 91.2309 13.7125 1251 55.805 1388.56 539.104
1550 1 49.1474 11.2112 551 56.4846 1388.47 559.309
1551 0 52.1097 11.0728 577 56.3761 1388.28 558.399
1552 0 52.1097 11.1495 581 165.107 1387.27 558.351
1553 0 54.1586 12.648 685 55.6905 1387.55 555.175
1554 0 55.1922 12.0126 663 56.1855 1387.44 555.039
1555 0 57.1966 13.3924 766 54.8211 1387.78 553.782
1556 0 57.0435 12.394 707 57.3861 1387.88 553.221
1557 0 61.0623 13.1505 803 55.934 1387.45 554.29
1558 0 63.0813 12.7138 802 56.293 1387.64 553.325
1559 0 64.0586 12.5198 802 56.8541 1387.71 552.556
1560 0 67.0714 13.9105 933 55.4341 1388.35 551.42
1561 0 68.0178 13.9228 947 56.1056 1387.85 551.614
1562 0 71.0756 14.7167 1046 55.0191 1387.81 550.406
1563 0 71.0965 13.559 964 57.2344 1387.17 547.902
1564 0 74.1288 14.178 1051 56.8735 1386.7 546.746
1565 0 77.0704 13.9094 1072 56.9534 1386.07 546.547
1566 0 78.0909 13.1257 1025 58.1454 1385.78 545.445
1567 0 81.174 13.3664 1085 58.0562 1385.57 545.655
1568 0 82.1835 13.628 1120 58.2598 1385.61 543.11
1569 0 86.1235 13.26 1142 58.8687 1385.59 541.243
1570 0 90.1297 13.6692 1232 58.056 1385.96 541.4
1571 0 94.0776 14.9238 1404 55.834 1385.59 539.043
1572 1 49.0849 10.0642 494 58.5668 1385.9 561.405
1573 0 49.0618 11.2715 553 58.3888 1385.49 559.913
1574 0 54.0225 12.4763 674 57.1513 1385.56 559.734
1575 0 56.0686 12.4847 700 57.7014 1385.82 556.56
1576 0 58.1211 12.2331 711 57.8636 1386.3 556.887
1577 0 59.0345 12.7044 750 57.56 1386.95 556.243
1578 0 59.1134 13.1442 777 57.4299 1387.36 554.583
1579 0 64.0642 14.2201 911 55.3611 1387.25 555.037
1580 0 64.0597 13.3469 855 57.4257 1386.23 553.757
1581 0 68.0965 13.8774 945 56.4656 1386 553.04
1582 0 69.0647 13.3064 919 57.4788 1385.61 553.703
1583 0 71.0602 13.5237 961 57.4995 1385.69 552.145
1584 0 72.2049 13.2955 960 58.3 1385.58 549.472
1585 0 74.2027 13.5305 1004 58.0697 1385.03 549.933
1586 0 78.2913 14.8676 1164 56.2457 1385.45 548.53
1587 0 79.0472 13.6248 1077 58.3677 1385.39 546.766
1588 0 84.0939 14.2816 1201 57.2789 1385.49 545.684
1589 0 85.2127 13.789 1175 57.8689 1385.43 545.886
1590 0 86.1883 13.5285 1166 58.7436 1385.49 543.936
1591 0 91.3314 13.8835 1268 57.4811 1384.58 544.298
1592 0 92.2517 13.2247 1220 59.6369 1384.15 539.748
1593 0 95.5154 13.2021 1261 59.3727 1384.1 539.232
1594 0 100.536 13.7861 1386 57.4286 1383.75 537.6
1595 0 102.319 13.2918 1360 58.2456 1384.03 535.409
1596 1 57.2639 11.3859 652 58.7699 1383.33 557.626
1597 0 59.4172 10.9059 648 58.784 1383.42 558.41
1598 0 62.3625 11.7058 730 58.1712 1384.09 555.123
1599 0 64.4899 13.7696 888 55.5169 1384.66 555.372
1600 0 64.4899 13.7851 889 161.574 1384.67 555.385
1601 0 66.3519 12.4186 824 57.8786 1384.2 553.462
1602 0 69.2997 12.9005 894 56.6018 1384.52 553.7
1603 0 72.4949 13.3664 969 55.3323 1384.45 551.564
1604 0 75.4431 13.6262 1028 55.0739 1384.66 549.279
1605 0 76.3962 13.4823 1030 54.1544 1384.83 546.603
1606 0 79.4719 13.3884 1064 53.8073 1384.32 544.128
1607 0 82.4567 12.4914 1030 54.6291 1384.75 542.442
1608 0 85.4731 13.6417 1166 53.4451 1385.28 539.167
1609 0 88.3275 14.1858 1253 53.2538 1385.48 536.88
1610 0 91.5669 12.996 1190 53.7908 1385.69 538.034
1611 0 94.4333 12.9827 1226 53.9804 1386.16 536.594
1612 0 97.4806 13.2437 1291 53.9954 1386.48 535.698
1613 1 53.3332 11.1 592 53.1824 1386.04 557.735
1614 0 53.1456 11.0263 586 54.1263 1386.45 557.297
1615 0 56.1335 11.8289 664 53.119 1386.11 557.526
1616 0 58.1362 12.9695 754 52.2613 1387.23 557.02
1617 0 58.162 12.0697 702 53.9131 1388.38 554.744
1618 0 59.0345 12.4673 736 54.1807 1389.26 553.016
1619 0 61.0532 12.4318 759 53.7325 1389.41 554.302
1620 0 64.1222 12.3358 791 53.7484 1389.82 553.489
1621 0 66.0724 13.6063 899 52.2191 1390.17 554.294
1622 0 66.0964 12.7541 843 54.0759 1390.28 551.384
1623 0 70.1264 12.7341 893 53.3695 1390.52 550.471
1624 0 71.1586 12.6759 902 53.9778 1390.4 547.236
1625 0 74.0897 14.226 1054 51.9962 1390.39 548.119
1626 0 74.0798 13.4315 995 53.7216 1390.56 545.067
1627 0 79.2419 13.503 1070 53.1794 1390.7 545.206
1628 0 80.0952 13.5339 1084 53.56 1391.06 544.564
1629 1 92.7445 14.0386 1302 49.6544 1391.27 549.495
1630 1 78.1259 11.4943 898 55.7261 1391.41 545.157
1631 1 93.893 11.9391 1121 51.198 1391.23 550.759
1632 1 113.442 7.06085 801 55.7541 1391.52 550.026
1633 1 81.1841 10.9258 887 55.2931 1390.92 548.708
1634 0 73.0992 8.53635 624 53.4888 1391.74 558.712
1635 1 52.0314 11.7237 610 54.5459 1391.37 558.095
1636 0 64.5717 12.792 826 48.4818 1391.36 560.195
1637 0 67.4328 11.1518 752 51.1902 1389.43 558.255
1638 0 56.3258 13.4752 759 53.8366 1388.48 556.885
1639 0 59.2846 13.0725 775 53.6903 1388.98 556.639
1640 0 60.3028 12.9016 778 55.2211 1388.84 552.874
1641 0 62.1327 14.2276 884 52.845 1389.22 553.157
1642 0 62.1302 12.7152 790 54.9405 1389.5 553.587
1643 0 65.2097 15.4578 1008 52.129 1389.49 551.977
1644 0 65.1669 13.6266 888 55.0957 1389.29 548.767
1645 0 70.1831 14.8184 1040 52.65 1389.97 550.337
1646 0 70.1133 14.2341 998 53.9399 1390.13 549.767
1647 0 73.1372 14.0284 1026 54.2505 1390.54 550.004
1648 0 74.1826 13.5611 1006 55.2664 1390.27 548.381
1649 0 76.3959 14.1893 1084 55.0507 1389.83 547.111
1650 0 82.1704 14.19 1166 54.3593 1389.57 546.359
1651 0 82.1808 14.2126 1168 55.4067 1388.84 543.586
1652 1 47.0386 11.6925 550 56.1418 1389.18 562.671
1653 0 46.0597 11.7673 542 56.6882 1388.73 562.673
1654 0 49.1232 11.9903 589 56.8166 1388.69 559.757
1655 0 48.4891 12.0233 583 57.1046 1389.36 558.976
1656 0 52.074 13.9993 729 54.3813 1388.55 559.833
1657 0 52.0839 12.3839 645 57.0698 1388.59 559.174
1658 0 53.1856 13.5375 720 56.2 1388.64 556.986
1659 0 54.2022 13.0991 710 56.9169 1389.09 556.203
1660 0 57.0796 14.8915 850 54.8082 1388.68 556.008
1661 0 57.2643 12.4685 714 58.4902 1388.7 554.699
1662 0 59.1913 13.8534 820 56.9146 1388.75 553.343
1663 0 60.2565 13.3595 805 57.6708 1388.17 553.324
1664 0 62.3658 13.0681 815 57.9202 1388.12 552.842
1665 0 65.1549 14.3351 934 56.5728 1387.86 551.564
1666 0 68.1378 13.6488 930 57.186 1388.15 549.966
1667 0 71.1438 12.9315 920 56.6685 1388.43 551.162
1668 0 71.2229 14.4195 1027 55.5803 1387.56 548.708
1669 0 75.2681 14.0033 1054 55.9469 1387.42 547.324
1670 0 75.1416 12.9755 975 57.4903 1387.07 544.551
1671 0 80.1502 14.9345 1197 54.1746 1387.41 545.957
1672 0 81.2308 13.6525 1109 57.1136 1386.8 542.716
1673 0 84.4951 14.1902 1199 55.8073 1386.41 543.39
1674 0 88.4031 13.7665 1217 56.3098 1385.9 539.804
1675 0 90.3145 13.9955 1264 56.1163 1386.03 538.402
1676 1 46.1877 11.7564 543 57.1068 1384.87 559.448
1677 0 49.1351 11.1529 548 57.7792 1385.02 559.672
1678 0 50.2513 12.4773 627 56.4864 1384.6 558.6
1679 0 52.1102 13.6058 709 55.3145 1384.8 556.989
1680 0 52.0539 13.0442 679 55.8115 1385.26 556.801
1681 0 53.2197 13.0403 694 56.0187 1386.67 554.729
1682 0 56.2821 13.2013 743 55.4697 1387.91 558.245
1683 0 57.2725 13.2524 759 55.1963 1387.9 557.935
1684 0 59.105 14.0936 833 53.6831 1387.1 555.287
1685 0 60.0664 12.9024 775 54.6181 1386.95 556.609
1686 0 62.0673 12.9698 805 54.5615 1387.35 554.384
1687 0 65.0697 14.6612 954 52.5157 1387.49 554.164
1688 0 65.0729 13.1237 854 54.1979 1386.81 553.929
1689 0 68.0955 12.2769 836 55.3182 1386.47 552.231
1690 0 71.0995 12.9677 922 54.1193 1386.21 551.283
1691 0 71.0385 12.9366 919 54.1578 1385.86 552.189
1692 0 75.2533 14.1522 1065 53.1305 1383.93 548.911
1693 0 76.2264 12.8958 983 54.5931 1383.81 548.742
1694 0 78.0995 13.4572 1051 54.2379 1383.69 547.531
1695 0 77.0813 13.0771 1008 55.4663 1383.71 543.735
1696 0 83.1313 12.3419 1026 55.1238 1384.9 545.768
1697 0 86.2196 13.28 1145 54.3336 1384.83 544.044
1698 0 86.1602 14.2061 1224 53.5392 1385.15 541.324
1699 0 89.2061 13.0709 1166 54.7281 1385.05 540.912
1700 0 93.3379 14.5279 1356 52.8001 1385.1 540.678
1701 0 96.3728 13.6138 1312 54.1684 1384.57 537.9
1702 1 44.2214 11.7816 521 55.1363 1385.96 562.146
1703 0 49.0511 12.5379 615 53.7154 1383.82 563.172
1704 0 49.166 11.9798 589 53.9525 1383.07 563.479
1705 0 50.097 12.7552 639 54.1721 1383.79 562.433
1706 0 53.0523 11.7243 622 54.9244 1384.02 562.513
1707 0 54.0936 12.9036 698 54.0501 1384.38 561.421
1708 0 56.1188 12.4201 697 54.2697 1384.35 558.958
1709 0 60.1421 13.3185 801 52.809 1384.68 558.881
1710 0 59.1985 13.7503 814 53.3342 1384.65 557.382
1711 0 61.1477 12.5598 768 53.9245 1385.1 555.629
1712 0 66.1161 13.3402 882 52.6259 1385.31 555.383
1713 0 64.1596 12.5313 804 54.1878 1384.75 552.193
1714 0 68.1878 13.9468 951 52.5457 1383.96 551.401
1715 0 68.135 12.8275 874 53.992 1384.06 551.032
1716 0 69.0861 12.3324 852 55.0716 1384.31 551.954
1717 0 72.1151 12.4246 896 55.0246 1384.86 550.999
1718 0 76.0935 13.3257 1014 53.4753 1384.93 549.055
1719 0 78.1774 13.3926 1047 53.681 1385.03 547.83
1720 0 81.1084 13.3648 1084 53.7998 1385.26 546.97
1721 0 85.1413 14.6815 1250 52.2576 1385.53 544.346
1722 0 86.2011 13.0741 1127 54.1038 1385.49 544.445
1723 1 48.077 10.088 485 56.8186 1385.75 561.701
1724 0 49.0789 11.3491 557 55.3088 1384.91 561.418
1725 0 52.1434 12.1396 633 54.2291 1384.91 561.185
1726 0 52.1434 12.1396 633 156.084 1384.91 561.185
1727 0 55.0576 12.4778 687 54.6972 1385.83 557.381
1728 0 57.0796 12.0358 687 54.5531 1386.13 557.52
1729 0 58.0518 12.4716 724 53.9102 1386.67 557.372
1730 0 60.0999 13.594 817 53.1579 1386.75 555.464
1731 0 62.1946 13.6025 846 53.117 1386.61 554.797
1732 0 62.0455 12.2007 757 55.0132 1387.72 554.351
1733 0 65.1364 13.2338 862 53.7343 1387.47 554.629
1734 0 67.0699 12.6137 846 54.9314 1387.68 552.889
1735 0 67.0699 12.6286 847 158.921 1388.66 553.008
1736 0 75.1566 13.5584 1019 53.7772 1387.89 551.006
1737 0 76.1549 13.5251 1030 53.6049 1388.56 547.837
1738 0 77.1227 13.7703 1062 53.6224 1389.26 545.76
1739 1 42.0646 11.5774 487 52.963 1389.58 567.088
1740 0 42.0914 11.6651 491 53.947 1389.79 564.42
1741 0 42.0871 10.9772 462 55.5563 1389.59 563.972
1742 0 51.1325 13.377 684 48.2675 1390.01 566.741
1743 0 55.0805 13.9432 768 47.6875 1389.43 565.882
1744 0 45.0216 12.9493 583 54.2419 1391.01 561.477
1745 0 56.1239 13.5949 763 49.6999 1390.66 564.676
1746 0 55.0919 15.7918 870 47.7276 1390.57 564.187
1747 0 55.1307 14.511 800 49.9487 1390.21 561.61
1748 0 63.1088 13.3896 845 49.5988 1390.64 562.128
1749 0 64.0468 12.8031 820 50.9671 1391.17 559.661
1750 0 64.1737 14.1958 911 50.0252 1391.44 558.931
1751 0 67.243 14.8714 1000 48.613 1392.01 559.704
1752 0 65.0923 14.9941 976 49.0082 1392.42 561.829
1753 0 70.0606 13.0316 913 51.0197 1392.07 559.669
1754 0 69.2424 14.0088 970 50.9845 1392.01 557.732
1755 0 72.1996 14.6677 1059 49.5562 1392.27 558.642
1756 0 69.1736 13.589 940 52.283 1392.35 555.739
1757 0 72.0589 14.4188 1039 51.3195 1392.09 555.925
1758 0 74.1653 16.7194 1240 48.0992 1391.94 557.031
1759 0 78.508 13.4636 1057 51.6225 1391.68 553.115
1760 0 78.4219 16.5387 1297 48.5544 1391.87 553.503
1761 0 80.0967 14.6073 1170 51.2744 1391.9 550.52
1762 0 86.2622 14.7921 1276 50.739 1391.67 550.001
1763 0 87.302 16.483 1439 48.8638 1391.32 550.883
1764 0 89.3415 15.6254 1396 49.9205 1391.15 548.964
1765 0 93.2154 14.7079 1371 51.3837 1391.16 546.058
1766 0 94.1691 16.1624 1522 49.4435 1391.33 546.283
1767 0 104.243 16.0298 1671 48.6086 1391.35 544.197
1768 0 101.152 15.8771 1606 49.8599 1391.16 543.514
1769 0 100.613 14.9086 1500 49.398 1390.78 547.987
1770 0 102.389 15.5584 1593 50.6855 1390.88 540.893
1771 0 108.346 17.398 1885 48.1326 1390.63 541.64
1772 0 111.549 14.8635 1658 52.1236 1390.64 537.37
1773 0 113.42 17.6159 1998 48.5646 1390.18 541.007
1774 1 62.4404 13.4208 838 54.8019 1389.64 554.696
1775 0 65.2522 14.2677 931 53.9538 1389.7 553.476
1776 0 64.2068 15.964 1025 52.3941 1389.26 552.092
1777 0 65.1924 13.5752 885 54.5379 1389.08 550.41
1778 0 66.1717 13.1023 867 55.5513 1388.67 549.367
1779 0 71.4504 13.8558 990 54.1384 1388.46 548.917
1780 0 73.1871 14.1282 1034 54.1615 1388.68 547.663
1781 0 76.3323 14.5286 1109 54.1091 1388.45 545.1
1782 0 76.2457 13.8893 1059 55.0708 1388.78 544.921
1783 0 83.3558 15.2719 1273 52.0628 1388.76 545.2
1784 0 83.3244 13.0814 1090 55.1486 1388.03 542.973
1785 0 85.3615 13.6595 1166 54.6647 1388.07 542.168
1786 0 86.3541 12.9004 1114 55.7325 1388.26 540.734
1787 0 92.3407 13.8292 1277 54.2451 1387.77 538.481
1788 0 91.2863 13.2331 1208 55.6233 1387.47 535.82
1789 0 97.426 14.7805 1440 53.5569 1387.28 534.103
1790 0 100.78 15.1816 1530 52.7758 1386.62 534.762
1791 0 101.49 15.2922 1552 53.1598 1386.49 533.036
1792 0 105.347 13.764 1450 54.4752 1386.48 531.419
1793 1 54.2436 10.4344 566 56.0477 1386.18 557.525
1794 0 56.4707 12.7854 722 55.0623 1386.84 554.749
1795 0 59.3316 14.0229 832 53.0132 1387.12 553.975
1796 0 60.239 14.6583 883 52.5051 1386.4 553.106
1797 0 61.2239 13.1321 804 54.6915 1386.45 552.964
1798 0 64.2098 15.3248 984 52.064 1386.27 552.664
1799 0 66.3671 14.1034 936 52.9915 1386.22 550.938
1800 0 68.5571 14.8927 1021 52.3751 1386.39 548.173
1801 0 68.4088 13.2878 909 54.1364 1386.05 548.358
1802 0 73.2813 13.9463 1022 52.6791 1386.17 547.385
1803 0 75.4275 14.3184 1080 52.6704 1385.8 545.629
1804 0 76.4503 14.5061 1109 53.1641 1385.44 545.001
1805 0 79.3822 14.89 1182 52.6904 1385.59 545.701
1806 0 82.2901 15.579 1282 51.8424 1385.28 543.652
1807 0 83.3567 14.372 1198 53.581 1385.24 540.309
1808 0 87.4104 14.1402 1236 53.1432 1385.15 540.213
1809 0 91.4704 15.1852 1389 51.969 1385.65 539.78
1810 0 95.4009 14.5911 1392 52.5323 1385.11 540.326
1811 0 96.4041 14.3977 1388 53.2421 1385.23 539.382
1812 0 99.3219 15.1326 1503 52.9468 1385.71 536.973
1813 0 100.312 14.8138 1486 53.4616 1385.56 535.597
1814 0 100.312 14.8437 1489 163.794 1384.58 535.578
1815 0 108.225 14.1741 1534 54.3422 1385.87 528.861
1816 0 114.33 14.8868 1702 53.4477 1385.69 529.989
1817 0 117.431 14.8683 1746 53.866 1385.76 526.431
1818 1 63.1358 12.1801 769 55.6619 1385.41 553.421
1819 0 67.1212 13.4533 903 53.8073 1385.34 554.607
1820 0 67.0913 14.2492 956 55.0094 1385.72 548.707
1821 0 72.0583 14.0164 1010 54.4851 1385.57 550.593
1822 0 71.1552 13.7868 981 55.5097 1385.5 548.549
1823 0 75.0805 14.3712 1079 54.7247 1386.1 546.749
1824 0 77.2704 13.4981 1043 55.5273 1386.67 546.685
1825 0 81.3435 14.5064 1180 54.5127 1386.47 543.91
1826 0 84.3666 13.9747 1179 54.8168 1386.67 544.774
1827 0 88.2421 14.8908 1314 53.8729 1386.2 542.48
1828 0 90.2193 13.8551 1250 54.8944 1386.08 540.284
1829 0 95.2276 15.8042 1505 52.1203 1386.37 538.741
1830 0 97.3409 13.5503 1319 54.3692 1386.14 539.212
1831 0 101.147 14.8595 1503 53.2814 1386.09 534.729
1832 0 103.244 14.49 1496 53.9439 1386.53 533.58
1833 0 106.173 14.0243 1489 54.1753 1386.77 532.608
1834 1 55.0669 11.7857 649 55.8228 1387.31 558.525
1835 0 57.0929 13.3467 762 55.4094 1387.69 554.045
1836 0 61.0533 13.7093 837 54.5066 1387.45 553.742
1837 0 61.0511 13.2512 809 55.0457 1387.89 553.47
1838 0 66.0616 14.2594 942 53.4968 1387.91 550.551
1839 0 68.0977 15.1547 1032 52.0717 1387.94 550.938
1840 0 69.1265 14.2058 982 53.6303 1388.18 547.553
1841 0 73.1097 14.8407 1085 51.9742 1388.13 547.784
1842 0 75.1788 14.3126 1076 52.698 1388.26 544.556
1843 0 78.0525 14.3109 1117 52.8093 1388.53 545.242
1844 0 81.0811 13.912 1128 53.2287 1389.23 544.621
1845 0 86.1481 15.0439 1296 51.0116 1389.09 544.11
1846 0 88.3202 14.6626 1295 51.9622 1389.37 543.367
1847 0 91.2921 13.4842 1231 52.8562 1389.49 542.806
1848 0 92.3582 13.7616 1271 53.0031 1389.4 539.474
1849 0 96.31 14.5883 1405 52.232 1389.98 538.125
1850 1 112.685 16.7636 1889 45.2557 1389.11 552.91
1851 0 101.317 13.8871 1407 53.0881 1389.07 533.646
1852 0 106.315 14.6922 1562 52.0922 1389.13 532.407
1853 0 110.298 15.44 1703 50.165 1389.95 530.905
1854 1 82.7814 12.5511 1039 46.6545 1390.28 559.561
1855 1 62.2244 13.7888 858 50.7879 1389.91 553.741
1856 1 83.812 13.4229 1125 45.4844 1389.72 560.708
1857 1 68.2007 12.4046 846 52.37 1389.33 550.297
1858 0 72.3126 15.9585 1154 48.1586 1389.82 551.262
1859 1 97.1571 10.2617 997 50.988 1389.39 550.711
1860 1 73.0686 14.7669 1079 50.7424 1389.41 547.679
1861 0 77.0969 15.2276 1174 49.8535 1389.18 548.147
1862 0 79.1796 15.3827 1218 49.8144 1389.01 548.899
1863 0 78.0727 14.3328 1119 51.8606 1389.28 543.681
1864 0 82.0889 15.5929 1280 50.5766 1389.09 542.146
1865 0 87.1924 15.4257 1345 50.3212 1388.91 543.717
1866 0 90.3345 16.45 1486 49.3116 1388.72 537.138
1867 0 92.2179 15.5501 1434 50.7252 1388.41 536.202
1868 0 92.1722 14.0281 1293 52.8268 1388.32 535.876
1869 0 102.287 17.5291 1793 47.6916 1388.53 537.641
1870 0 103.259 16.4731 1701 49.1699 1388.1 536.196
1871 0 104.365 14.7368 1538 50.8082 1388.66 530.608
1872 0 110.325 16.5964 1831 48.6739 1388.43 530.843
1873 1 57.2985 11.8502 679 52.3461 1388.34 554.471
1874 0 57.2693 11.961 685 52.3036 1388.53 553.74
1875 0 60.3563 13.9339 841 50.6029 1388.2 553.247
1876 0 61.3423 11.9493 733 52.4256 1387.35 550.814
1877 0 63.4626 13.2361 840 50.9321 1388.19 549.398
1878 0 66.3378 13.8232 917 50.4177 1387.88 549.954
1879 0 67.3853 14.2019 957 50.0752 1388.41 548.755
1880 0 67.3853 14.1574 954 160.043 1389.4 548.72
1881 1 94.8883 13.1101 1244 47.0257 1389.54 550.536
1882 1 77.3804 15.1589 1173 48.7502 1388.98 547.525
1883 0 79.5471 14.8214 1179 49.3554 1388.77 547.757
1884 0 82.4827 14.7182 1214 49.5815 1388.83 547.328
1885 0 85.3558 14.3751 1227 50.2396 1389.05 543.077
1886 0 87.3828 14.1103 1233 51.0251 1388.43 541.764
1887 0 90.3795 14.2178 1285 50.7339 1388.25 541.046
1888 0 93.2513 16.0963 1501 49.3371 1387.6 539.784
1889 0 94.2057 14.0225 1321 51.62 1387.18 538.57
1890 0 95.1312 12.6352 1202 53.2121 1386.97 537.839
1891 0 98.2047 15.9361 1565 50.3802 1387 535.577
1892 0 102.255 15.0213 1536 51.4102 1386.8 533.348
1893 1 56.1148 10.9953 617 52.7439 1386.79 554.99
1894 0 60.0998 9.98339 600 52.4133 1386.46 556.548
1895 0 63.0409 11.9129 751 50.6498 1386.62 555.491
1896 0 63.0552 11.3869 718 51.3148 1387.55 555.396
1897 0 67.0729 12.0615 809 51.3918 1387.58 553.89
1898 0 68.0584 11.5195 784 52.3457 1387.16 553.667
1899 0 68.1904 12.1865 831 52.3177 1386.58 553.468
1900 0 71.2536 13.4028 955 51.5455 1386.66 549.868
1901 0 74.2353 12.7029 943 51.7667 1386.27 548.446
1902 0 77.1294 13.2375 1021 51.2047 1386.37 549.647
1903 0 77.1294 13.2634 1023 162.301 1386.38 549.567
1904 0 81.2886 13.1876 1072 51.3517 1385.73 547.847
1905 0 84.3444 12.8876 1087 52.2217 1385.71 543.983
1906 0 86.3834 12.7687 1103 52.3273 1385.32 542.408
1907 0 91.478 12.6806 1160 51.5931 1385.17 541.734
1908 0 93.3256 14.1869 1324 50.8127 1385.35 540.156
1909 0 96.5937 12.5992 1217 52.3558 1384.95 538.702
1910 1 53.5034 11.3264 606 50.9158 1385.25 561.234
1911 0 54.3854 10.2785 559 52.5886 1384.92 560.646
1912 0 57.536 12.6703 729 49.9643 1385.24 561.388
1913 0 59.1747 12.9785 768 50.2839 1384.37 559.724
1914 0 61.1115 13.009 795 50.0553 1383.89 559.541
1915 0 60.1623 12.4497 749 51.49 1383.5 558
1916 0 62.317 12.3883 772 51.9508 1383.62 554.141
1917 0 67.1961 13.2895 893 50.3404 1382.89 556.111
1918 0 66.2085 12.7174 842 52.4596 1382.94 555.274
1919 0 67.1419 12.1236 814 53.6278 1383.48 552.364
1920 0 72.3082 12.8616 930 52.4731 1384.54 551.785
1921 0 74.1113 13.2369 981 52.3741 1383.98 552.984
1922 0 78.1767 13.1369 1027 52.6689 1383.51 551.15
1923 0 80.2264 12.8262 1029 53.1283 1383.66 550.381
1924 1 43.0988 9.53622 411 55.0608 1383.34 566.302
1925 0 43.0568 10.6139 457 54.0044 1383.42 568.066
1926 0 47.1635 10.771 508 54.2343 1383.41 565.49
1927 0 46.1822 10.6102 490 55.0265 1382.93 564.512
1928 0 48.1022 11.1637 537 55.0615 1382.98 565.078
1929 0 51.0321 11.2086 572 54.5437 1382.81 564.757
1930 0 53.0797 12.9617 688 52.3081 1383 564.423
1931 0 54.0825 12.5179 677 54.0222 1383.6 562.068
1932 0 57.0608 13.0037 742 52.969 1383.13 563.348
1933 0 57.0885 12.3843 707 54.6266 1383.44 560.43
1934 0 62.0979 12.0294 747 54.1754 1384.76 549.519
1935 0 62.1647 12.5634 781 54.5864 1383.86 544.843
1936 0 64.2632 11.8575 762 55.2572 1383.39 549.039
1937 0 64.0927 12.3103 789 55.4664 1384.19 555.298
1938 0 68.147 14.41 982 52.8523 1383.91 554.214
1939 0 69.1785 13.4435 930 54.6871 1384.33 553.712
1940 0 72.2328 13.8441 1000 53.824 1384.08 553.382
1941 0 72.3484 14.1952 1027 54.0526 1384.83 553.174
1942 0 75.3666 14.1044 1063 53.969 1384.47 548.801
1943 0 79.2535 14.8637 1178 53.2971 1384.56 547.935
1944 0 80.2568 14.1047 1132 53.3701 1384.85 547.518
1945 0 82.3529 13.3207 1097 54.4977 1384.97 546.615
1946 0 83.4242 13.8209 1153 54.3435 1384.95 546.471
1947 0 88.4721 15.3382 1357 52.2793 1384.76 544.575
1948 0 90.7207 13.3927 1215 54.814 1384.87 542.67
1949 0 93.4676 13.3629 1249 54.542 1384.8 541.226
1950 0 93.4802 13.2541 1239 55.4487 1385.25 538.025
1951 0 99.366 13.4352 1335 54.8667 1385.21 537.826
1952 0 101.337 14.2594 1445 54.2484 1385.47 535.647
1953 1 58.464 10.5193 615 54.548 1385.91 561.115
1954 0 60.326 9.49839 573 56.7277 1386.08 558.689
1955 0 62.1289 11.3152 703 54.9531 1386.14 556.013
1956 0 65.3748 12.0995 791 54.1062 1385.9 555.503
1957 0 66.3414 11.7574 780 54.6987 1385.98 553.422
1958 0 68.5585 11.5084 789 55.0228 1386.19 543.271
1959 0 73.5455 14.4808 1065 51.1662 1386.59 541.648
1960 0 73.6129 14.0057 1031 52.0301 1386.79 542.752
1961 0 73.5327 13.6946 1007 52.998 1386.55 543.401
1962 0 79.695 13.3133 1061 52.5702 1386.59 541.088
1963 0 79.5149 13.0542 1038 53.1195 1386.67 541.112
1964 0 80.3261 12.6235 1014 53.9832 1386.97 540.019
1965 0 83.7042 11.8393 991 54.8153 1386.98 537.436
1966 0 85.4595 12.3216 1053 54.83 1387.29 535.114
1967 0 91.2581 13.281 1212 53.4893 1387.81 535.194
1968 1 50.4715 10.1047 510 51.9157 1386.68 557.055
1969 0 51.4916 9.01118 464 53.9591 1387.37 552.95
1970 0 53.5 9.42057 504 53.4861 1387.59 554.381
1971 0 56.5664 9.68773 548 54.0073 1387.92 551.365
1972 0 56.2611 10.8423 610 53.8 1389.02 549.718
1973 0 63.4203 12.425 788 50.8058 1388.88 555.623
1974 0 62.0822 13.0311 809 51.4141 1390.04 553.927
1975 0 65.0978 12.5043 814 52.0602 1389.9 552.77
1976 0 66.3281 13.7348 911 51.022 1390.04 549.685
1977 1 83.4013 11.2109 935 50.5134 1390.16 554.066
1978 1 69.2354 13.548 938 51.6684 1389.57 550.035
1979 0 73.2863 13.0857 959 51.438 1389.66 549.742
1980 0 73.2919 13.9442 1022 51.7534 1389.3 545.98
1981 0 76.5202 13.0031 995 52.3015 1389.15 545.944
1982 0 76.3401 12.6146 963 53.6324 1389.76 544.3
1983 0 78.3342 12.919 1012 53.2431 1389.59 542.639
1984 0 82.3112 13.7648 1133 52.0512 1389.71 542.614
1985 1 95.7026 13.5211 1294 49.7674 1389.38 544.72
1986 0 85.4632 13.3274 1139 52.4513 1389.51 540.126
1987 0 90.7196 14.2747 1295 51.4595 1389.2 537.623
1988 0 100.389 15.0414 1510 47.9589 1388.87 545.044
1989 0 95.5107 14.2706 1363 51.4754 1388.92 534.924
1990 0 95.3375 12.7127 1212 53.5908 1388.48 532.763
1991 0 102.516 13.3736 1371 52.2874 1388.52 529.529
1992 1 53.1363 9.95552 529 53.4839 1387.86 553.268
1993 0 56.1697 10.7709 605 52.2479 1387.4 551.626
1994 0 55.2307 10.8454 599 51.6978 1386.54 553.351
1995 0 59.1161 10.9615 648 52.4892 1386.89 549.531
1996 0 62.1524 11.5522 718 51.2772 1387.28 549.742
1997 0 62.0947 11.3697 706 51.7011 1388.41 550.409
1998 0 65.1533 10.882 709 51.6488 1389.42 550.193
1999 0 67.1556 12.4487 836 50.1663 1389.2 550.384
2000 0 65.0648 11.7575 765 51.8013 1389.41 547.013
2001 0 66.1529 11.0502 731 52.3707 1389.42 547.036
2002 0 69.1635 12.5355 867 50.6436 1388.78 547.886
2003 0 73.2699 12.3106 902 50.5721 1388.92 545.525
2004 0 74.2288 12.1247 900 51.04 1388.56 545.14
2005 0 77.2272 12.8582 993 50.7392 1388.42 544.779
2006 0 78.1943 12.5712 983 51.6918 1387.76 540.943
2007 0 81.168 12.0491 978 51.6708 1387.89 540.369
2008 0 81.2329 12.7042 1032 51.8585 1387.94 538.435
2009 0 87.2241 14.3309 1250 49.4904 1387.48 538.713
2010 0 89.2228 13.0012 1160 51.5172 1387.92 537.897
2011 0 91.3195 14.0934 1287 50.3559 1388.4 535.77
2012 0 95.1919 13.7091 1305 50.6475 1388.56 534.723
2013 0 97.1077 13.4284 1304 50.8413 1388.68 534.335
2014 0 97.3278 13.1206 1277 51.8763 1388.58 531.471
2015 0 99.393 12.6769 1260 52.1976 1388.21 532.706
2016 0 102.528 13.0794 1341 51.8106 1387.89 530.347
2017 0 106.491 13.4753 1435 51.5394 1387.89 529.641
2018 0 106.389 12.8208 1364 52.4384 1388.45 525.984
2019 0 112.24 13.3643 1500 51.792 1387.5 525.392
2020 1 62.2675 9.53949 594 51.5034 1387.65 553.456
2021 0 66.2806 11.3759 754 50.7003 1386.86 548.936
2022 0 68.2701 11.8353 808 50.2141 1386.23 548.418
2023 0 67.3178 11.9434 804 51.3134 1386.54 545.79
2024 0 70.236 12.2871 863 50.2885 1386.26 550.591
2025 0 73.2175 12.019 880 50.8807 1386.73 546.369
2026 0 76.1969 12.284 936 50.3013 1386.69 547.94
2027 0 77.1621 12.0655 931 51.1482 1386.95 545.188
2028 0 80.1774 11.4995 922 51.615 1386.39 545.12
2029 0 81.142 11.942 969 51.3333 1386.93 544.174
2030 0 85.215 13.2019 1125 49.7618 1386.94 542.912
2031 0 88.1899 12.7339 1123 50.4782 1386.65 541.59
2032 0 87.1687 11.0246 961 53.154 1387.33 541.466
2033 0 93.2156 12.1761 1135 52.0784 1386.89 540.07
2034 0 95.2729 11.6822 1113 52.6164 1386.91 539.337
2035 0 100.164 11.7507 1177 52.418 1386.46 538.899
2036 1 55.0393 10.2109 562 52.5409 1386.69 558.938
2037 0 55.0584 10.6614 587 51.1874 1385.18 560.46
2038 0 57.2765 10.5977 607 51.8155 1384.35 555.344
2039 0 58.4558 10.1444 593 52.6476 1383.61 551.293
2040 0 61.1778 11.1805 684 51.6535 1384.41 556.32
2041 0 63.0829 13.0622 824 49.9842 1385.2 555.964
2042 0 65.1459 12.4336 810 51.0235 1384.74 554.509
2043 0 64.1733 11.4066 732 52.3074 1384.29 554.564
2044 0 68.4456 11.8196 809 51.4499 1384.27 553.695
2045 0 68.1488 11.7977 804 51.6866 1384.87 552.639
2046 0 71.178 13.3328 949 49.961 1385.25 549.177
2047 0 73.1564 12.3981 907 50.7178 1385.35 550.885
2048 0 72.1955 12.3692 893 51.9373 1385.32 548.851
2049 0 75.1198 11.2354 844 52.5889 1384.55 549.15
2050 0 78.2536 13.2646 1038 50.5617 1384.38 546.285
2051 0 81.1777 12.8114 1040 50.974 1384.39 545.004
2052 0 82.2916 13.6588 1124 50.5952 1384.89 544.627
2053 0 86.2218 12.6302 1089 52.4968 1384.72 544.274
2054 0 86.3032 10.7528 928 54.9978 1384.07 544.27
2055 0 91.2254 13.801 1259 51.811 1384.42 541.288
2056 0 91.4032 11.9361 1091 54.0128 1384.38 538.674
2057 0 95.2569 12.3666 1178 53.562 1384.13 539.812
2058 0 97.2373 12.4644 1212 53.552 1384.06 536.665
2059 0 101.402 12.6131 1279 53.3628 1384.01 535.647
2060 1 56.2031 10.2486 576 54.0955 1383.78 556.837
2061 0 58.4442 9.88978 578 54.3599 1383.64 554.91
2062 0 57.3467 9.97442 572 53.9318 1382.84 557.5
2063 0 63.3033 11.9899 759 51.8762 1383.1 554.53
2064 0 64.4072 10.8218 697 52.5352 1382.65 557.166
2065 0 68.295 12.1532 830 51.2952 1383.16 554.688
2066 0 68.3495 12.0849 826 51.7385 1383.42 553.633
2067 0 69.0979 13.1987 912 51.0614 1383.75 553.462
2068 0 69.1422 11.7873 815 52.9742 1382.5 550.912
2069 0 74.0361 12.5479 929 51.7567 1385.13 550.565
2070 0 78.2753 13.9763 1094 49.8729 1384.96 550.792
2071 0 78.2184 13.066 1022 52.091 1385.33 549.227
2072 0 80.1457 13.4255 1076 52.3773 1384.91 547.182
2073 0 82.1047 12.9712 1065 53.1765 1385.38 545.776
2074 0 84.0983 13.2821 1117 53.1674 1385.21 544.599
2075 0 90.1908 13.6821 1234 52.2147 1384.38 544.174
2076 0 90.1908 13.5934 1226 152.966 1383.37 544.079
2077 0 96.1799 14.3481 1380 51.5667 1384.94 539.438
2078 0 97.2617 11.9677 1164 54.4957 1385.06 538.728
2079 0 103.258 14.3718 1484 51.6941 1384.99 537.231
2080 0 107.315 14.2572 1530 51.6588 1385.04 536.797
2081 1 58.1323 11.6459 677 53.0871 1383.88 559.843
2082 0 60.2037 11.8099 711 53.1997 1384.72 557.423
2083 0 63.2223 13.4921 853 51.4701 1385.28 556.402
2084 0 63.1114 11.2183 708 53.9788 1385.35 554.758
2085 0 66.2737 12.8558 852 52.1925 1386.16 555.25
2086 0 67.147 11.8546 796 53.7048 1386.05 551.165
2087 0 69.0996 13.0391 901 52.6271 1386.19 552.758
2088 0 72.1185 12.9232 932 52.9474 1386.18 551.163
2089 0 70.2451 11.8015 829 55.1013 1386.23 547.685
2090 0 76.2103 13.7777 1050 52.561 1386.59 547.603
2091 0 77.262 13.1759 1018 53.7043 1386.55 546.64
2092 0 79.1596 13.9465 1104 53.1467 1387.11 546.235
2093 0 80.2882 12.8786 1034 55.1335 1387.24 543.376
2094 0 85.3284 14.0164 1196 53.3963 1387.78 542.742
2095 0 88.3012 14.224 1256 53.6226 1388.02 541.198
2096 0 89.2715 12.6356 1128 55.8165 1387.97 540.71
2097 0 92.1702 13.4425 1239 55.5537 1388.02 537.584
2098 0 96.3662 13.6251 1313 55.0411 1387.75 537.272
2099 0 98.3033 13.6109 1338 55.5994 1388.26 535.732
2100 0 99.3186 13.4215 1333 56.2656 1388.15 535.099
2101 0 104.547 14.1754 1482 55.2962 1388.37 533.399
2102 0 106.401 13.3551 1421 56.5419 1388.51 531.576
2103 0 112.448 15.0914 1697 54.0483 1388.45 531.398
2104 0 114.46 13.5506 1551 56.7672 1388.81 526.968
2105 1 64.3214 11.1316 716 56.0391 1389.37 552.088
2106 0 65.3059 12.0663 788 54.8325 1390.1 551.678
2107 0 68.3326 12.4684 852 53.9718 1390.32 552.155
2108 0 67.3277 11.6148 782 56.2289 1389.67 550.57
2109 0 70.2164 12.6609 889 54.7053 1389.93 549.711
2110 0 73.1854 13.5273 990 53.3152 1390.18 549.466
2111 1 82.2279 13.0248 1071 52.1036 1390.14 550.326
2112 0 78.2879 12.6967 994 54.4738 1390.29 545.495
2113 0 88.2715 16.2793 1437 48.1747 1390.32 551.578
2114 0 90.1728 16.0026 1443 48.8912 1390.5 548.672
2115 0 87.1487 14.022 1222 52.7848 1389.27 543.006
2116 0 89.2218 12.7435 1137 53.6324 1389.15 539.058
2117 0 91.1369 12.2343 1115 54.6628 1389.04 534.102
2118 0 96.2111 12.5245 1205 53.8299 1389.33 535.255
2119 0 100.194 13.4339 1346 52.2987 1388.79 535.39
2120 0 100.204 12.1253 1215 54.0601 1388.86 533.453
2121 0 106.292 13.764 1463 52.1408 1388.84 532.781
2122 0 108.331 12.3603 1339 53.6565 1388.9 530.058
2123 0 110.487 12.2096 1349 53.7094 1388.6 524.711
2124 1 64.3198 10.4944 675 52.6933 1389.36 552.329
2125 0 64.2084 9.2667 595 53.2504 1389.46 553.365
2126 0 66.3689 10.7128 711 51.5007 1388.61 550.127
2127 0 66.1712 10.4275 690 52.1478 1388.16 549.238
2128 0 71.188 11.8981 847 50.0484 1387.14 549.766
2129 0 73.1651 12.3009 900 50.5678 1388.35 546.698
2130 0 75.0427 12.0731 906 50.4492 1388.01 545.444
2131 0 79.0883 12.5303 991 49.9768 1387.79 544.674
2132 0 79.1317 11.9548 946 50.9482 1387.89 543.821
2133 0 83.2283 11.3543 945 51.1386 1387.64 544.005
2134 0 87.3692 13.0939 1144 49.3147 1387.76 541.457
2135 0 89.2566 11.8759 1060 50.3047 1387.26 540.894
2136 0 91.337 12.0543 1101 50.1971 1387.11 539.107
2137 0 94.49 12.0119 1135 50.1075 1387.63 534.186
2138 1 51.3828 9.04973 465 51.2258 1387.94 558.381
2139 0 52.3716 10.5973 555 49.8811 1387.67 558.508
2140 0 54.2698 10.8163 587 49.879 1387.29 556.339
2141 0 53.0695 9.55351 507 51.4576 1387.26 559.389
2142 0 58.1963 11.908 693 49.6595 1386.19 555.828
2143 0 60.137 12.6877 763 48.9817 1386.52 556.948
2144 0 60.2433 12.2337 737 49.9389 1386.04 555.601
2145 0 59.1943 11.2849 668 51.6976 1385.79 552.852
2146 0 63.1775 12.5203 791 49.9975 1386.18 552.351
2147 0 63.1992 12.421 785 50.8599 1385.62 551.084
2148 0 64.3605 12.6786 816 50.7892 1385.83 549.026
2149 0 70.2968 11.5937 815 50.4491 1387.03 551.094
2150 0 70.2309 11.8324 831 50.426 1386.97 551.793
2151 0 71.2416 13.0682 931 50.0741 1386.64 549.052
2152 0 71.1764 11.8719 845 51.6651 1386.58 544.249
2153 0 74.3949 13.2805 988 50.4767 1386.54 546.922
2154 0 77.3214 12.364 956 51.364 1386.53 546.465
2155 0 80.1274 13.7531 1102 50.1016 1386.35 543.735
2156 0 83.4298 12.8132 1069 51.0215 1386.51 541.426
2157 1 45.1135 9.75319 440 51.4977 1387.42 562.818
2158 0 48.0688 9.19516 442 52.0158 1387.55 561.722
2159 0 49.0294 9.62687 472 51.4407 1387.6 562.464
2160 0 48.0332 12.3665 594 50.1263 1387.42 557.737
2161 0 51.0262 10.7788 550 51.3055 1387.06 559.218
2162 0 51.2558 12.662 649 49.5886 1386.41 556.888
2163 0 53.2602 11.5846 617 50.7569 1386.07 557.76
2164 0 56.3351 11.9286 672 50.4137 1385.48 558.068
2165 0 58.3121 11.73 684 51.4649 1385.3 560.142
2166 0 61.1671 13.455 823 49.3098 1385.89 559.443
2167 0 63.2151 12.9874 821 50.1523 1385.98 558.625
2168 0 61.136 12.6766 775 50.9045 1386.17 557.286
2169 0 63.2529 12.6793 802 51.692 1385.67 556.247
2170 0 67.2509 12.6987 854 50.7611 1385.83 558.484
2171 0 66.1449 11.2783 746 52.7105 1385.64 557.328
2172 0 68.1594 11.6785 796 52.5377 1385.63 554.42
2173 0 71.2085 12.007 855 51.9883 1385.42 553.263
2174 0 71.2101 12.2314 871 52.349 1384.49 552.142
2175 0 74.1112 12.5217 928 51.6972 1384.76 551.117
2176 0 76.2205 12.5819 959 51.9103 1384.6 549.269
2177 0 78.3698 13.1045 1027 51.5745 1385 550.068
2178 0 81.2271 12.8775 1046 52.0688 1384.77 547.081
2179 0 83.2959 12.9658 1080 52.1278 1384.33 546.398
2180 0 87.1662 13.4685 1174 52.0043 1384.5 544.347
2181 0 89.4291 13.1389 1175 51.9515 1384.93 545.185
2182 0 94.3612 13.4059 1265 51.547 1384.81 544.114
2183 0 95.4393 13.8832 1325 51.7411 1384.66 539.412
2184 0 98.6301 14.4885 1429 51.359 1384.69 537.396
2185 0 102.738 13.8897 1427 51.5837 1384.62 533.738
2186 1 56.3412 11.8918 670 52.0179 1384.62 558.427
2187 0 57.2959 12.3394 707 52.1683 1384.34 556.416
2188 0 59.3427 10.5152 624 53.7901 1384.59 557.067
2189 0 63.1518 11.6386 735 52.9102 1385.77 557.112
2190 0 63.3005 10.8372 686 53.5962 1386.09 556.799
2191 0 64.2123 12.1316 779 52.9397 1386.59 554.905
2192 0 68.212 13.1355 896 52.2812 1386.45 552.309
2193 0 71.2269 13.5904 968 51.4979 1386.63 550.246
2194 0 73.3662 12.0491 884 51.7161 1387.05 552.698
2195 0 75.2097 12.2857 924 51.8279 1386.38 550.702
2196 0 78.4126 13.429 1053 50.491 1387.01 548.358
2197 0 78.2777 12.2385 958 52.1816 1386.82 546.558
2198 0 82.3477 12.5322 1032 51.439 1387.38 544.836
2199 0 84.4767 12.2519 1035 51.9527 1387.33 541.39
2200 0 86.3518 12.7154 1098 51.2423 1387.58 539.599
2201 0 91.6413 12.7563 1169 51.1993 1387.44 539.169
2202 0 94.4898 12.7633 1206 51.1153 1388.47 534.281
2203 1 53.1199 11.8223 628 51.5207 1389.12 559.868
2204 0 54.3031 11.8409 643 51.2784 1389.31 558.871
2205 0 54.1462 11.3027 612 52.5735 1389.35 559.998
2206 0 57.2352 13.0339 746 51.2466 1389.33 557.227
2207 0 59.2376 13.5387 802 50.3978 1389.91 556.994
2208 0 61.2111 13.8864 850 50.6388 1389.82 554.844
2209 0 62.2436 13.2544 825 50.9612 1389.52 556.053
2210 0 63.371 13.2711 841 51.6718 1389.8 552.974
2211 0 66.1492 13.9533 923 50.6143 1389.69 551.97
2212 0 68.3311 13.3468 912 50.807 1389.71 552.863
2213 0 71.2809 13.8887 990 50.0606 1389.41 553.085
2214 0 71.433 13.1872 942 51.5754 1389.8 548.086
2215 0 76.3366 13.9907 1068 50.2509 1390.08 549.543
2216 0 76.3397 14.5927 1114 50.3752 1390.74 547.972
2217 0 76.3397 14.5796 1113 162.665 1391.73 547.926
2218 1 126.366 6.87688 869 53.9298 1391.26 547.71
2219 1 110.491 10.1094 1117 48.6392 1390.87 553.642
2220 0 103.701 13.8282 1434 46.742 1390.52 551.137
2221 0 105.569 12.7499 1346 48.5045 1391.04 548.558
2222 0 112.888 14.2619 1610 46.254 1390.85 548.954
2223 0 105.5 14.1516 1493 48.9618 1390.98 540.876
2224 0 101.529 13.7793 1399 50.2102 1390.83 537.6
2225 1 73.3038 9.68572 710 48.9465 1390.21 559.88
2226 0 72.8245 13.6355 993 44.6334 1390.42 562.911
2227 0 68.2734 14.1783 968 46.561 1390.33 558.776
2228 0 70.2166 13.5865 954 47.587 1390.07 555.455
2229 0 72.3275 13.6601 988 48.3836 1390.18 555.969
2230 0 76.6346 13.0098 997 48.2187 1389.9 555.417
2231 0 70.254 13.9921 983 50.1913 1389.88 549.932
2232 0 70.2126 12.7043 892 51.3083 1389.84 546.925
2233 0 73.2642 13.7584 1008 50.1984 1389.75 546.641
2234 0 76.2754 14.0281 1070 50.014 1389.51 546.091
2235 0 81.4402 15.4101 1255 47.9434 1389.18 547.927
2236 0 81.386 13.9336 1134 49.9568 1389.14 542.205
2237 0 83.4281 13.0652 1090 51.2642 1388.6 540.222
2238 0 86.2867 13.0959 1130 50.6168 1388.64 542.87
2239 0 87.444 13.8146 1208 50.8891 1388.64 538.993
2240 0 91.2749 12.928 1180 52.2797 1388.58 537.946
2241 0 94.3502 14.4674 1365 50.4029 1388.86 534.529
2242 0 96.3695 13.9567 1345 51.2312 1388.39 534.419
2243 1 56.246 11.3964 641 52.4368 1389.01 555.47
2244 0 60.3391 12.1977 736 50.769 1389.4 554.314
2245 0 60.1987 12.575 757 51.6658 1389.37 552.694
2246 0 60.2144 10.8778 655 53.3206 1387.78 549.44
2247 0 61.1529 11.2014 685 53.3489 1389.18 549.038
2248 0 64.0858 12.7953 820 52.8732 1389.14 550.709
2249 0 66.1525 14.1945 939 51.131 1388.69 551.887
2250 0 69.1953 13.0789 905 52.4972 1388.75 548.473
2251 0 70.1058 12.3242 864 53.4097 1388.9 548.589
2252 0 73.197 13.1289 961 52.1602 1388.58 549.225
2253 0 74.1442 13.1501 975 53.1692 1388.41 546.538
2254 0 75.2555 13.3146 1002 53.2605 1388.6 546.234
2255 0 77.091 13.1144 1011 54.0307 1388.36 545.484
2256 0 80.306 13.5108 1085 53.6028 1388.06 544.749
2257 0 84.2751 13.9306 1174 52.8203 1387.98 545.741
2258 0 85.2528 13.6887 1167 53.8989 1387.94 543.798
2259 0 86.2269 13.4181 1157 54.637 1387.84 543.41
2260 0 91.4499 13.7234 1255 54.5649 1387.75 541.751
2261 0 95.2422 13.9854 1332 54.5721 1387.59 542.389
2262 1 52.167 10.6581 556 54.7842 1388.13 562.667
2263 0 56.1892 10.6782 600 54.885 1388.03 560.058
2264 0 57.1816 10.5104 601 55.426 1387.98 559.972
2265 0 58.0355 11.0622 642 56.2118 1388.03 557.268
2266 0 59.2464 11.6632 691 56.0492 1387.54 557.164
2267 0 62.1073 12.9292 803 55.0884 1388.67 555.623
2268 0 62.1431 13.4206 834 55.1223 1388.71 554.974
2269 0 65.1877 13.0239 849 55.5194 1388.77 553.588
2270 0 65.3006 12.6033 823 56.2758 1388.76 553.612
2271 0 67.2432 12.6109 848 56.9057 1388.47 552.147
2272 0 70.0545 13.0898 917 56.2105 1388.11 551.496
2273 0 69.2055 13.7417 951 56.3785 1388.11 550.397
2274 0 72.516 13.4729 977 56.696 1388.3 550.233
2275 0 72.2955 12.5596 908 57.6696 1387.97 550.915
2276 0 76.3024 13.4858 1029 56.3664 1387.86 550.281
2277 0 77.2449 14.0074 1082 56.1701 1387.73 548.453
2278 0 79.3198 13.6662 1084 56.6688 1386.94 545.842
2279 0 84.3947 14.6099 1233 54.9594 1387.36 545.223
2280 0 85.3426 13.522 1154 56.9133 1386.61 543.28
2281 0 86.3361 12.7988 1105 57.8887 1387.15 541.613
2282 0 86.3361 12.7988 1105 149.729 1387.15 541.613
2283 0 93.6081 13.7595 1288 56.2011 1386.99 539.481
2284 0 97.4458 15.2187 1483 54.8092 1386.89 536.697
2285 0 98.442 13.5918 1338 56.8438 1386.61 537.069
2286 0 101.278 13.4777 1365 56.9978 1386.85 534.527
2287 0 104.366 13.309 1389 57.3593 1386.59 530.186
2288 1 56.235 11.0963 624 56.242 1387.18 559.684
2289 0 58.2981 9.93171 579 57.4041 1386.72 557.841
2290 0 58.2076 8.91636 519 58.5491 1386.58 557.576
2291 0 62.1466 11.7947 733 55.0641 1385.92 556.13
2292 0 65.1342 13.2803 865 53.6393 1386.09 551.497
2293 0 65.2755 11.7962 770 55.6857 1385.59 553.753
2294 0 66.158 12.1376 803 55.9116 1385.44 552.829
2295 0 69.2456 13.9215 964 54.1442 1385.65 549.342
2296 0 70.2656 12.7089 893 55.1937 1385.69 548.737
2297 0 75.2226 12.9482 974 54.5821 1385.91 550.594
2298 0 76.2578 12.143 926 56.1911 1386.1 549.177
2299 0 80.2804 14.0134 1125 53.584 1386.22 547.567
2300 0 82.2081 14.4146 1185 53.0388 1385.71 546.862
2301 0 83.3332 13.512 1126 53.7975 1385.51 546.214
2302 0 85.3921 14.5095 1239 53.1299 1385.8 544.153
2303 0 90.2129 14.0778 1270 52.8094 1385.68 545.633
2304 0 91.3098 13.4378 1227 54.0954 1385.63 539.051
2305 0 94.2448 13.762 1297 53.4395 1385.5 540.487
2306 0 98.2808 13.5225 1329 53.389 1385.05 538.461
2307 0 102.441 13.7543 1409 52.8233 1385.13 536.154
2308 0 103.172 13.4338 1386 53.7042 1385.11 533.442
2309 0 107.419 14.625 1571 51.9822 1385.7 533.148
2310 1 56.3643 9.6515 544 55.4081 1385.38 553.869
2311 0 59.3059 9.45943 561 54.2086 1385.93 555.95
2312 0 62.4811 13.4921 843 51.2871 1385.49 553.69
2313 0 64.164 11.1433 715 53.4042 1386.04 553.748
2314 0 66.2759 11.5728 767 53.1512 1385.6 549.099
2315 0 69.187 12.5602 869 52.4465 1386.13 548.803
2316 0 71.2156 11.9215 849 53.6584 1386.62 546.601
2317 0 73.3222 13.2975 975 52.3159 1386.6 546.29
2318 0 75.2225 12.935 973 53.1542 1386.86 545.929
2319 0 78.1415 12.5541 981 54.0663 1386.78 543.168
2320 0 81.2617 13.5734 1103 53.3481 1386.86 541.519
2321 0 83.3728 12.8939 1075 53.9256 1386.77 539.735
2322 0 85.2144 13.9296 1187 53.4473 1386.14 538.084
2323 0 87.1606 12.1729 1061 55.148 1386.62 539.457
2324 0 89.1985 14.2715 1273 53.6347 1386.77 535.61
2325 0 93.42 13.0058 1215 55.1062 1386.86 535.691
2326 0 96.3375 13.7641 1326 54.7081 1386.83 532.783
2327 0 102.287 13.3644 1367 54.523 1387.19 532.168
2328 0 102.425 14.0981 1444 54.2777 1387.72 532.086
2329 0 108.488 13.5499 1470 54.6497 1387.92 528.591
2330 0 109.415 13.1792 1442 55.9216 1388.12 525.408
2331 0 112.337 14.51 1630 54.6417 1388.25 524.875
2332 0 118.357 14.431 1708 54.4128 1388.4 521.779
2333 0 121.488 13.6804 1662 55.352 1388.58 520.7
2334 1 67.2457 10.4393 702 56.1937 1388.23 550.281
2335 0 69.1798 11.4484 792 56.0126 1388.61 547.202
2336 0 70.1334 12.7044 891 54.7677 1389.25 543.925
2337 0 75.2189 13.0552 982 54.1008 1388.44 543.433
2338 0 76.1292 13.9368 1061 53.8068 1388.39 543.522
2339 0 79.132 12.7382 1008 55.1875 1388.14 541.444
2340 0 79.2296 13.2779 1052 54.8698 1388.19 539.904
2341 0 85.2574 13.254 1130 54.7142 1388.24 537.373
2342 0 84.1011 12.3304 1037 56.487 1388.9 536.53
2343 0 89.1113 14.1396 1260 54.0095 1389.06 534.346
2344 0 91.1263 13.0478 1189 55.1505 1389.53 531.376
2345 0 96.1576 13.1971 1269 54.2868 1389.28 529.736
2346 0 98.1786 14.6264 1436 53.413 1389.82 529.533
2347 0 101.177 13.5703 1373 54.6599 1389.86 529.639
2348 0 105.115 14.7077 1546 53.9638 1389.57 528.82
2349 0 110.218 14.5984 1609 53.4002 1389.84 529.065
2350 0 111.232 14.2046 1580 54.6658 1389.64 525.658
2351 1 61.1619 11.2652 689 55.2598 1389.27 550.837
2352 0 68.0913 11.9105 811 53.9051 1389.8 552.91
2353 0 68.0592 12.2393 833 54.2209 1389.91 550.636
2354 0 71.1227 13.8071 982 52.4807 1389.67 549.184
2355 1 85.1082 14.4287 1228 48.8021 1389.28 549.34
2356 0 76.0787 13.6963 1042 52.4376 1389.74 545.367
2357 0 80.0699 14.7996 1185 50.4945 1389.52 545.19
2358 0 81.1033 15.1535 1229 51.1782 1389.56 543.644
2359 0 81.1169 12.9936 1054 54.1309 1389.37 540.053
2360 0 85.1382 14.2474 1213 52.7049 1389.3 540.003
2361 0 86.1017 14.2738 1229 53.6395 1389.16 536.877
2362 0 88.0743 13.307 1172 54.5785 1389.1 536.462
2363 0 94.0977 13.4116 1262 53.7662 1389.26 536.977
2364 0 96.2331 13.2803 1278 54.2277 1389.51 535.306
2365 0 99.0642 13.1531 1303 54.3699 1389.19 531.692
2366 0 102.179 13.261 1355 54.321 1389.61 528.826
2367 0 107.256 14.3208 1536 53.0482 1389.34 528.459
2368 0 108.228 13.1851 1427 55.0666 1388.86 530.452
2369 1 64.0722 12.7044 814 53.3329 1388.59 550.86
2370 0 64.1378 10.9452 702 55.6026 1388.41 548.979
2371 0 68.0909 13.2323 901 52.5627 1388.05 548.595
2372 0 69.0885 12.9399 894 53.1667 1388.37 548.517
2373 0 70.0894 13.0833 917 53.6412 1387.62 548.192
2374 0 72.0996 12.5937 908 54.2533 1388.03 546.58
2375 0 75.1508 12.3352 927 53.9871 1387.55 546.319
2376 0 76.1239 12.2169 930 54.7989 1387.63 543.8
2377 0 79.1829 12.8689 1019 54.2934 1387.17 544.595
2378 0 83.134 13.1354 1092 53.1209 1386.67 542.687
2379 0 85.2665 14.0735 1200 52.2125 1387.03 540.068
2380 0 86.1136 12.9828 1118 54.2469 1386.77 539.79
2381 0 88.0872 12.4876 1100 52.7691 1386.62 538.859
2382 0 94.1089 15.2802 1438 49.8108 1387.01 536.94
2383 0 97.1147 13.8496 1345 51.0587 1387.15 536.907
2384 1 53.0637 9.59225 509 53.3556 1386.94 558.597
2385 0 55.0388 11.1739 615 51.8228 1387.26 560.849
2386 0 57.0574 11.725 669 51.9342 1387.36 556.942
2387 0 58.0467 12.9723 753 50.9203 1387.82 557.228
2388 0 58.0343 13.0095 755 50.7404 1387.53 555.449
2389 0 59.0513 11.5662 683 52.5695 1388.02 555.7
2390 0 61.0437 13.1054 800 51.5237 1388.12 553.043
2391 0 63.0971 12.0608 761 52.3876 1387.94 555.432
2392 0 63.0786 12.4289 784 52.4031 1387.98 553.501
2393 0 68.1278 14.2526 971 50.3831 1387.82 552.092
2394 0 71.0618 15.8735 1128 48.3715 1387.75 548.034
2395 0 70.1329 14.5581 1021 50.7248 1387.51 548.902
2396 0 73.0708 13.439 982 52.0978 1387.59 547.957
2397 0 75.109 14.3525 1078 50.8302 1388.53 548.666
2398 0 75.1038 12.2763 922 53.5521 1388.31 547.101
2399 0 78.1593 13.191 1031 53.0145 1387.49 545.96
2400 0 80.1232 13.2171 1059 53.17 1387.23 544.108
2401 0 82.2609 13.6517 1123 53.1282 1387.18 544.946
2402 0 87.3248 14.1999 1240 52.2831 1387.15 541.322
2403 0 87.1952 14.3471 1251 52.801 1387.01 539.078
2404 0 90.3353 13.5938 1228 53.1221 1386.82 540.669
2405 0 93.2654 13.5313 1262 53.2298 1386.54 539.124
2406 0 99.0858 15.6228 1548 50.564 1386.88 538.503
2407 0 100.348 14.3003 1435 52.5589 1386.21 535.566
2408 0 104.176 14.6482 1526 52.1062 1386.38 531.72
2409 0 105.335 14.9618 1576 52.1085 1386.26 534.68
2410 0 107.145 14.7651 1582 52.5923 1386.21 531.056
2411 0 111.232 14.5282 1616 52.8428 1385.83 526.694
2412 1 61.2135 11.8765 727 54.4773 1386.86 554.484
2413 0 63.0934 11.9664 755 54.053 1386.05 555.967
2414 0 65.1201 12.9146 841 53.7111 1386.1 553.326
2415 0 65.1276 13.1281 855 54.4035 1385.45 550.204
2416 0 69.0893 14.503 1002 52.1457 1385.33 550.843
2417 0 72.0936 14.8279 1069 51.7867 1385.1 549.763
2418 0 76.104 16.0832 1224 49.4959 1385.96 546.389
2419 0 76.104 16.0832 1224 151.026 1386.96 546.389
2420 0 78.0895 13.8687 1083 52.205 1385.55 549.072
2421 0 79.2728 14.8727 1179 51.8889 1385.8 546.002
2422 0 82.2576 13.9805 1150 52.7913 1385.82 545.341
2423 0 84.1716 13.9596 1175 53.0153 1385.51 541.394
2424 0 87.2331 15.0975 1317 51.7509 1385.58 540.702
2425 0 92.3017 14.0951 1301 52.3213 1385.55 542.632
2426 0 92.2245 14.9201 1376 52.8307 1385.24 539.303
2427 0 97.1452 14.8438 1442 52.647 1385.48 538.173
2428 0 102.198 15.6167 1596 51.3033 1385.29 537.64
2429 0 101.242 14.411 1459 53.6169 1385.41 533.563
2430 0 106.159 14.6573 1556 53.0263 1385.32 532.42
2431 0 111.268 15.3952 1713 52.181 1385.13 531.6
2432 0 111.165 14.8068 1646 53.3815 1385.49 529.378
2433 0 117.125 15.4365 1808 52.542 1385.73 527.41
2434 0 119.182 14.6247 1743 53.8847 1385.44 527.424
2435 0 126.251 17.6869 2233 50.2342 1385.87 524.149
2436 1 67.0557 12.4523 835 54.5533 1386.08 551.956
2437 0 67.064 12.0631 809 55.2769 1385.71 550.609
2438 0 70.0536 12.0622 845 55.7574 1385.78 551.276
2439 0 74.0477 14.6932 1088 52.6158 1385.67 547.883
2440 0 76.1453 14.3541 1093 53.2379 1385.57 546.671
2441 0 78.1017 13.8793 1084 53.2832 1385.92 547.577
2442 0 80.1961 14.3399 1150 54.2704 1386.04 544.651
2443 0 82.1184 13.103 1076 55.6087 1385.89 543.923
2444 0 87.1194 14.2563 1242 54.4026 1385.93 539.89
2445 0 90.1534 13.8653 1250 54.9296 1385.67 539.803
2446 0 95.1853 14.372 1368 54.2515 1385.89 537.793
2447 0 95.0772 14.6828 1396 54.3933 1385.94 537.126
2448 0 99.1091 15.0138 1488 54.3347 1386.08 532.695
2449 0 102.197 14.0318 1434 55.1722 1385.84 534.715
2450 0 105.275 14.9703 1576 54.4924 1386.05 535.02
2451 0 107.16 14.0538 1506 55.9296 1386.15 528.432
2452 0 110.254 13.7229 1513 56.5261 1386.04 527.42
2453 0 114.283 13.9654 1596 56.3102 1386.13 527.556
2454 1 63.056 12.1321 765 56.0915 1386.33 551.578
2455 0 66.224 12.8805 853 55.3329 1386.4 551.283
2456 0 68.1499 13.617 928 54.597 1386.92 550.108
2457 0 69.0773 14.4765 1000 54.395 1386.77 548.07
2458 0 71.1249 14.341 1020 55.0118 1387.42 545.619
2459 0 71.1249 14.3691 1022 164.924 1388.43 545.601
2460 0 77.2078 15.2316 1176 53.8325 1388.13 546.048
2461 0 79.1672 15.0315 1190 54.5555 1388.01 544.535
2462 0 79.0599 14.0653 1112 56.5441 1387.7 541.742
2463 0 84.1331 15.0832 1269 55.0599 1388.2 540.761
2464 0 87.1565 14.5485 1268 55.597 1388.66 539.266
2465 0 88.1879 14.0155 1236 56.9361 1388.54 536.954
2466 0 89.1898 14.5308 1296 56.7392 1388.58 536.833
2467 0 94.1778 15.0248 1415 55.7781 1389.2 535.747
2468 0 97.18 14.8384 1442 55.8086 1389.35 535.499
2469 0 102.136 16.1158 1646 54.678 1389.38 533.025
2470 0 106.113 15.5307 1648 55.3441 1389.57 531.004
2471 0 107.112 16.3568 1752 55.1444 1389.54 528.736
2472 0 111.164 15.3467 1706 55.8664 1390.16 528.91
2473 0 115.107 15.4291 1776 55.7348 1390.3 528.518
2474 0 119.173 16.8327 2006 54.6625 1390.65 523.682
2475 0 123.252 16.4946 2033 54.9498 1390.58 520.829
2476 0 128.375 16.3739 2102 54.8892 1390.95 520.393
2477 1 142.408 14.4584 2059 54.829 1390.81 526.059
2478 1 73.0981 14.5968 1067 56.3149 1390.54 547.468
2479 0 81.1526 16.1548 1311 52.9268 1390.68 548.921
2480 1 95.0929 12.3143 1171 55.8642 1390.34 546.476
2481 1 83.0619 14.5313 1207 56.9851 1390.53 542.277
2482 0 93.2815 15.2656 1424 54.0787 1390.22 543.6
2483 0 97.8145 15.2329 1490 54.2832 1390.07 541.342
2484 0 87.3785 14.6718 1282 58.6014 1389.81 536.356
2485 0 87.2521 14.9452 1304 59.0276 1389.93 535.164
2486 0 96.2499 16.9766 1634 55.0373 1390.32 536.507
2487 0 98.1178 16.0827 1578 56.9195 1390.34 533.069
2488 0 99.1944 16.6038 1647 56.8075 1390.08 531.216
2489 0 103.12 16.3887 1690 56.7935 1390.23 532.025
2490 0 105.243 16.6947 1757 56.9209 1390.05 528.079
2491 0 110.265 16.2336 1790 57.0385 1389.82 526.591
2492 1 63.1438 12.1785 769 59.1651 1389.87 548.207
2493 0 65.0373 13.1463 855 58.0257 1389.36 548.828
2494 0 67.1756 13.6806 919 58.1763 1388.75 544.726
2495 0 71.0937 14.8677 1057 56.474 1388.95 543.994
2496 0 72.0909 14.4817 1044 56.6619 1388.91 544.012
2497 0 74.1248 14.6105 1083 56.4857 1388.99 543.166
2498 0 78.083 14.3949 1124 56.7153 1389.23 541.422
2499 0 80.1188 14.0916 1129 57.186 1389.31 539.169
2500 0 81.1496 14.2453 1156 57.6445 1389.11 541.301
2501 0 84.0377 14.0056 1177 57.9414 1388.6 537.814
2502 0 91.0741 14.9549 1362 56.3678 1388.06 537.199
2503 0 92.1721 14.2017 1309 57.6791 1388.06 534.817
2504 0 93.2099 13.196 1230 59.1683 1387.9 532.864
2505 0 99.089 15.7939 1565 55.8345 1388.16 531.327
2506 0 100.279 15.1179 1516 57.0541 1387.87 528.654
2507 0 103.197 14.1767 1463 57.9228 1387.8 529.132
2508 0 105.283 14.8932 1568 57.8291 1388.24 525.347
2509 0 108.284 15.8749 1719 57.0826 1388.09 524.526
2510 0 112.454 14.5482 1636 58.5648 1387.96 525.307
2511 0 114.294 15.3814 1758 58.4272 1387.93 520.315
2512 0 118.467 14.696 1741 58.8759 1387.95 521.052
2513 0 124.349 14.4111 1792 58.577 1388.28 523.023
2514 0 129.374 14.9489 1934 57.4772 1388.22 521.817
2515 0 132.359 16.2589 2152 56.3401 1388.28 518.466
2516 1 76.511 12.129 928 58.7058 1387.88 545.539
2517 0 80.2568 13.5689 1089 56.7319 1388.19 545.916
2518 0 83.4833 12.9128 1078 57.4833 1387.26 543.605
2519 0 84.3999 13.5664 1145 57.6472 1387.1 539.438
2520 0 88.2244 13.7037 1209 56.8916 1387.1 540.836
2521 0 91.2819 14.3511 1310 56.329 1387.25 537.376
2522 0 92.3143 12.4358 1148 58.8798 1387.08 536.336
2523 0 96.399 13.3611 1288 57.2508 1387.79 536.35
2524 0 102.39 13.6244 1395 56.6229 1387.24 534.861
2525 0 104.362 13.8365 1444 56.3733 1387.38 532.553
2526 0 107.568 14.8465 1597 55.717 1387.4 529.435
2527 0 111.213 14.9353 1661 55.5286 1387.57 529.718
2528 0 114.401 14.7289 1685 55.9139 1387.31 525.583
2529 0 118.349 15.5556 1841 55.0223 1387.17 523.991
2530 0 123.427 14.0569 1735 56.1827 1386.73 523.064
2531 0 126.402 14.5884 1844 55.7972 1386.34 519.961
2532 0 132.399 14.6375 1938 55.9861 1386.4 515.938
2533 0 137.523 14.2813 1964 56.1604 1386.24 514.706
2534 1 77.524 11.0417 856 56.4182 1386.32 546.541
2535 0 80.3862 11.9423 960 56.0083 1386.54 544.581
2536 0 84.5292 13.4983 1141 54.5784 1386.22 541.697
2537 0 86.5335 13.5786 1175 54.8043 1386.72 540.248
2538 0 89.4006 14.4965 1296 55.3372 1386.58 536.981
2539 0 91.4781 13.1944 1207 56.9072 1386.78 537.294
2540 0 95.3726 14.197 1354 55.805 1386.94 534.883
2541 0 97.4575 13.5854 1324 56.8663 1386.24 533.76
2542 0 101.505 13.9008 1411 56.0744 1386.19 532.439
2543 0 104.415 12.5844 1314 58.2443 1385.61 530.228
2544 0 107.296 13.6259 1462 57.3844 1386.06 527.198
2545 0 110.315 13.1261 1448 57.8177 1386.69 528.166
2546 0 113.333 14.2765 1618 56.9407 1386.6 527.525
2547 0 116.296 13.1475 1529 57.9039 1386.18 526.767
2548 0 120.294 14.1403 1701 56.8089 1386.11 523.115
2549 0 123.474 13.8653 1712 57.4095 1386.28 519.265
2550 1 71.1876 12.6286 899 55.2403 1386.08 548.445
2551 0 72.1699 11.3898 822 56.1241 1385.8 548.148
2552 0 74.3381 11.4073 848 56.4033 1385.24 547.971
2553 0 77.4096 12.1044 937 56.6425 1385.65 543.319
2554 0 78.4145 12.0513 945 57.0138 1385.2 544.362
2555 0 80.2981 11.4698 921 57.5744 1385.14 543.139
2556 0 84.2556 12.557 1058 56.6824 1385.46 543.257
2557 0 89.6187 14.7179 1319 53.9462 1386.13 542.13
2558 0 90.5691 14.2985 1295 54.9467 1385.81 541.618
2559 0 90.2685 12.8395 1159 56.9154 1385.81 539.424
2560 0 94.3396 14.257 1345 55.3576 1386 538.187
2561 0 98.4204 13.5643 1335 56.039 1385.89 536.602
2562 0 99.4736 12.9984 1293 56.6597 1385.79 537.169
2563 0 101.3 14.0573 1424 56.0625 1385.73 532.778
2564 0 105.619 13.6245 1439 56.5782 1386.12 531.556
2565 0 108.472 15.4418 1675 54.5051 1385.97 531.302
2566 0 112.513 14.7539 1660 56.8042 1385.9 527.7
2567 0 114.343 13.9056 1590 58.0717 1385.58 526.409
2568 0 117.381 14.0397 1648 57.875 1385.67 525.757
2569 0 121.41 14.208 1725 57.4168 1385.82 523.292
2570 0 123.476 12.4478 1537 59.5283 1385.45 520.251
2571 0 130.305 13.6296 1776 57.8181 1385.24 517.547
2572 1 77.3931 11.0475 855 56.7509 1384.99 547.612
2573 0 80.4395 12.8668 1035 55.8464 1384.86 543.571
2574 0 81.326 12.5298 1019 56.2424 1384.99 544.615
2575 0 86.4859 14.0485 1215 54.5539 1384.62 542.365
2576 0 87.3608 13.0951 1144 55.4764 1384.85 541.984
2577 0 91.3746 14.1724 1295 55.0432 1384.06 539.618
2578 0 94.3974 13.0406 1231 55.6848 1384.16 537.5
2579 0 98.3647 13.5923 1337 54.3156 1384.11 535.765
2580 0 101.506 14.2257 1444 53.5956 1383.97 535.161
2581 0 106.587 14.2137 1515 53.6937 1384.39 532.694
2582 0 109.407 13.7103 1500 54.2987 1384.04 530.435
2583 0 112.389 13.1151 1474 55.1187 1384.02 528.499
2584 0 115.328 14.7233 1698 52.7974 1384.39 530.529
2585 0 119.554 14.3701 1718 53.5728 1384.68 523.976
2586 0 122.302 15.9033 1945 51.9537 1384.95 525.58
2587 0 125.51 14.5964 1832 53.5852 1384.9 520.943
2588 0 129.515 14.9867 1941 52.9882 1385.08 520.776
2589 0 134.434 14.6987 1976 53.0587 1385.51 516.803
2590 0 139.707 13.4782 1883 54.0409 1385.49 515.482
2591 0 141.453 13.9411 1972 53.9863 1385.82 514.18
2592 1 82.3326 10.4211 858 54.0455 1385.65 544.001
2593 0 82.3297 10.4944 864 155.065 1385.65 543.948
2594 0 87.4945 11.5207 1008 53.8353 1386.41 540.585
2595 0 90.4303 13.2256 1196 52.8946 1386.36 539.952
2596 0 90.6164 12.5253 1135 54.0352 1386.51 537.204
2597 0 96.4119 12.9652 1250 53.7992 1386.79 536.297
2598 0 96.4722 11.8791 1146 55.2347 1386.26 535.116
2599 0 100.264 12.6067 1264 54.5665 1386.7 533.491
2600 0 105.505 14.0846 1486 53.2268 1387.03 531.035
2601 0 107.341 13.2475 1422 54.654 1387.25 531.24
2602 0 111.506 13.9186 1552 53.7378 1387.53 529.175
2603 0 111.538 13.6008 1517 55.0171 1387.88 524.858
2604 0 116.452 13.4991 1572 55.2971 1387.41 523.143
2605 0 120.598 14.7018 1773 53.9306 1388.06 523.883
2606 0 121.493 13.4658 1636 55.6553 1388.29 520.231
2607 0 126.502 13.067 1653 55.7756 1388.41 518.323
2608 0 129.55 12.4972 1619 56.6492 1388.9 515.077
2609 1 87.4909 10.9726 960 50.6688 1390.08 552.165
2610 0 78.4765 12.6917 996 52.1928 1389.76 548.284
2611 0 89.5499 14.6399 1311 47.7094 1390.28 551.955
2612 0 85.5471 15.6171 1336 49.2126 1389.67 544.847
2613 0 82.3319 12.7168 1047 54.1089 1389.71 540.205
2614 0 87.4093 13.534 1183 52.2747 1389.5 539.812
2615 0 86.6185 13.6345 1181 52.8239 1389.81 539.06
2616 0 91.4654 12.5075 1144 53.4965 1390.18 539.769
2617 0 99.5406 15.0391 1497 49.6179 1390.24 541.395
2618 0 96.329 13.7549 1325 52.8838 1390.14 533.687
2619 1 116.377 12.6744 1475 48.9085 1390.63 544.167
2620 0 116.447 14.2039 1654 48.5024 1390.35 542.921
2621 0 117.494 14.5625 1711 49.6055 1390.75 537.819
2622 0 118.564 17.5686 2083 47.1277 1390.97 537.398
2623 0 120.651 15.7396 1899 49.4876 1390.78 531.605
2624 0 116.397 15.2667 1777 51.713 1391.01 526.793
2625 1 126.858 16.0179 2032 49.3036 1391.11 530.912
2626 0 130.694 15.257 1994 49.8561 1391.12 529.691
2627 0 137.988 16.6681 2300 47.3148 1390.73 531.327
2628 0 142.643 17.337 2473 47.5237 1390.83 521.624
2629 0 144.494 14.575 2106 49.6576 1390.39 523.897
2630 0 138.388 14.5027 2007 51.8949 1390.12 513.974
2631 0 144.571 14.9269 2158 50.8276 1389.88 516.968
2632 1 165.204 13.7345 2269 50.1816 1389.85 517.899
2633 1 144.504 11.8889 1718 53.8492 1389.85 517.447
2634 1 165.838 11.8972 1973 50.1617 1389.68 528.057
2635 0 163.861 15.0982 2474 51.8634 1389.65 504.516
2636 0 173.746 16.6738 2897 48.8747 1389.94 515.641
2637 0 162.546 12.0212 1954 55.086 1390.1 510.981
2638 1 181.054 11.4828 2079 51.8523 1390.14 521.582
2639 0 183.116 15.6185 2860 52.1944 1390.2 493.602
2640 1 218.96 13.45 2945 51.4784 1389.93 503.262
2641 1 107.436 12.6959 1364 53.75 1389.98 537.04
2642 1 139.152 12.4971 1739 50.8171 1390.15 537.549
2643 1 107.27 15.3631 1648 53.5971 1389.78 532.31
2644 0 110.631 16.415 1816 52.9444 1390.2 529.286
2645 0 123.36 19.6336 2422 47.7139 1390.04 534.872
2646 0 116.397 15.9368 1855 54.3294 1389.9 523.893
2647 1 85.6274 14.1894 1215 49.8889 1390.34 555.357
2648 0 73.3634 11.6134 852 56.8239 1389.69 549.427
2649 0 78.7146 12.882 1014 53.3018 1389.83 552.961
2650 0 72.5372 11.8698 861 55.5679 1389.11 548.41
2651 0 73.5922 13.3166 980 54.8204 1389.42 546.947
2652 0 78.3293 14.9497 1171 52.8992 1389.44 544.313
2653 0 78.3613 15.1733 1189 54.2447 1389.05 540.896
2654 0 81.7527 15.0209 1228 53.842 1390.37 543.066
2655 1 96.242 16.5105 1589 49.0982 1389.9 548.702
2656 0 85.4095 14.0031 1196 56.2659 1389.15 537.053
2657 0 91.3742 14.3804 1314 54.9072 1389.03 537.904
2658 0 92.4358 14.0963 1303 55.6708 1389.07 537.478
2659 0 96.5138 14.9409 1442 54.4535 1389.03 537.592
2660 0 99.3772 15.3456 1525 54.1711 1389.5 535.86
2661 0 102.647 14.2723 1465 55.5918 1389.29 534.431
2662 0 104.527 15.6227 1633 54.9602 1389.01 530.096
2663 0 107.468 14.7578 1586 56.1248 1388.81 529.653
2664 0 111.375 14.2582 1588 56.6845 1389.05 529.462
2665 1 63.3779 11.4235 724 56.9475 1388.94 556.336
2666 0 66.3784 13.3477 886 55.8002 1389.17 553.948
2667 0 66.26 14.0658 932 56.6942 1388.36 549.827
2668 0 68.262 14.752 1007 56.0427 1388.77 548.306
2669 0 70.2734 13.8886 976 57.3863 1388.77 548.243
2670 0 73.387 16.2427 1192 53.9312 1388.67 550.655
2671 0 74.2364 14.5885 1083 57.2835 1388.68 545.977
2672 0 77.3487 16.6131 1285 54.4825 1388.53 548.607
2673 0 78.5547 15.6324 1228 56.1336 1387.99 545.461
2674 0 82.263 15.5842 1282 55.9438 1388.15 545.5
2675 0 83.1666 15.2946 1272 57.1682 1387.78 541.52
2676 0 84.174 14.47 1218 58.6617 1387.91 539.494
2677 0 88.3301 14.3213 1265 58.5684 1388.05 537.901
2678 0 90.3055 14.5063 1310 58.3977 1387.83 538.728
2679 0 91.1956 13.8603 1264 59.7302 1388.06 535.699
2680 0 97.3911 15.638 1523 57.3684 1387.98 534.051
2681 0 99.2701 15.2211 1511 58.0715 1387.94 532.952
2682 0 102.52 14.9922 1537 58.5381 1387.48 532.124
2683 0 107.271 16.0341 1720 57.064 1387.55 531.474
2684 0 109.389 14.6907 1607 58.6179 1387.34 529.323
2685 1 62.3157 14.2019 885 59.9593 1387.34 550.672
2686 0 64.2536 14.1004 906 59.7605 1387.1 552.656
2687 0 66.0567 15.0023 991 59.5802 1387.17 549.682
2688 0 70.1296 15.3715 1078 58.602 1387.25 548.083
2689 0 72.2964 15.0768 1090 58.9881 1387.62 547.783
2690 0 73.4263 15.2534 1120 59.0473 1386.86 545.615
2691 0 75.3749 15.1642 1143 58.9913 1386.52 546.046
2692 0 78.2012 14.9614 1170 58.8188 1386.2 544.253
2693 0 82.1162 15.7947 1297 57.6376 1386.38 544.532
2694 0 83.1619 14.574 1212 59.255 1386.51 541.782
2695 0 87.2267 15.1674 1323 58.2101 1386.62 540.038
2696 0 89.3884 16.2661 1454 56.7194 1386.93 540.063
2697 0 93.3581 15.0389 1404 57.9516 1386.73 539.396
2698 0 95.3414 17.1489 1635 55.9242 1386.94 536.94
2699 0 96.5568 14.9031 1439 58.6136 1386.45 533.941
2700 0 102.372 16.7429 1714 56.028 1386.22 534.386
2701 0 102.307 15.0137 1536 58.7969 1385.88 533.396
2702 0 106.334 15.4701 1645 58.155 1386 531.717
2703 0 108.261 15.8044 1711 58.069 1386 529.655
2704 0 111.24 16.2981 1813 57.6012 1385.84 528.696
2705 0 116.248 16.3701 1903 57.1119 1385.76 528.143
2706 0 119.37 14.9451 1784 58.9462 1385.96 526.006
2707 0 122.198 15.5485 1900 58.47 1386.06 526.557
2708 0 125.344 16.5225 2071 57.7228 1386.3 523.867
2709 0 129.48 16.937 2193 57.2079 1386.32 522.738
2710 0 134.195 16.4239 2204 58.0141 1385.72 520.182
2711 1 74.4736 12.9979 968 62.3874 1385.38 548.248
2712 0 75.1682 15.5385 1168 60.3005 1385.29 546.863
2713 0 80.2114 14.5989 1171 60.8506 1385.06 546.42
2714 0 83.4107 15.9812 1333 59.3976 1385.7 543.789
2715 0 84.1706 15.9913 1346 59.8403 1385.89 542.016
2716 0 86.2756 15.4505 1333 59.5266 1385.73 541.745
2717 0 89.4312 13.0715 1169 62.2198 1385.2 539.501
2718 0 93.5298 14.6905 1374 60.5335 1385.21 539.738
2719 0 95.4047 15.6491 1493 59.5814 1384.64 535.588
2720 0 97.4371 14.6351 1426 61.3948 1384.54 534.008
2721 0 101.334 15.6808 1589 60.1183 1384.72 534.184
2722 0 105.51 15.8468 1672 59.9462 1385.09 533.877
2723 0 109.591 15.7585 1727 60.0075 1384.56 531.141
2724 0 110.562 15.168 1677 61.1735 1384.8 527.61
2725 0 116.749 16.2743 1900 59.3968 1384.81 529.026
2726 0 121.604 15.6985 1909 59.8968 1384.64 525.905
2727 0 123.44 15.2625 1884 60.681 1383.93 522.231
2728 0 130.46 18.0745 2358 57.0331 1384.47 522.411
2729 1 72.4519 12.0356 872 62.3922 1384.94 548.419
2730 0 76.2954 12.989 991 62.0283 1384.98 545.963
2731 0 76.4782 13.3633 1022 62.4618 1385.38 544.973
