time division length width area intensity CMx CMy
0 0 41.1719 11.0512 455 76.2989 1301.13 587.068
1 0 42.1823 11.3792 480 76.4083 1300.09 587.021
2 0 42.1823 11.3792 480 167.756 1299.1 587.012
3 0 42.1823 11.4029 481 167.245 1298.1 586.971
4 0 48.2221 12.8572 620 73.0468 1300.68 585.569
5 0 49.1753 12.5063 615 73.3772 1300.97 585.767
6 0 50.2136 12.7256 639 73.5931 1301.08 584.416
7 0 51.2833 11.6802 599 75.1536 1301.24 583.713
8 0 51.1809 12.2116 625 77.0176 1301.05 581.878
9 0 56.1966 12.652 711 75.5302 1300.97 582.581
10 0 58.17 12.515 728 76.3352 1301.39 581.734
11 0 58.131 12.9707 754 76.5 1301.84 579.952
12 0 61.1515 12.4118 759 77.1462 1301.67 578.22
13 0 64.1701 12.8876 827 75.7473 1301.78 577.094
14 0 66.1507 12.5925 833 75.5762 1301.77 576.188
15 0 69.2404 12.7094 880 74.408 1301.86 574.128
16 0 71.3059 13.0144 928 73.3793 1301.31 574.458
17 0 73.2394 12.9575 949 74.0969 1301.72 571.532
18 1 36.1622 10.204 369 73.3631 1301.4 589.377
19 0 38.1094 10.8635 414 72.8527 1301.67 588.804
20 0 40.1806 10.4279 419 73.3365 1301.52 588.64
21 0 43.279 10.9984 476 71.9097 1302.13 587.42
22 0 45.1787 11.1778 505 72.3901 1301.61 587.04
23 0 46.2349 11.8093 546 71.0861 1301.6 587.018
24 0 44.2825 11.1782 495 74.1859 1301.83 584.741
25 0 47.2644 11.8271 559 72.5456 1301.89 585.213
26 0 48.1508 11.7547 566 72.2438 1301.79 585.647
27 0 50.2071 12.309 618 71.8997 1302.05 583.405
28 0 50.3134 11.1104 559 74.0394 1301.69 581.773
29 0 53.2372 12.0968 644 72.1211 1301.56 581.056
30 0 55.161 11.3305 625 73.0992 1302.16 581.949
31 0 57.2435 12.2983 704 71.7528 1302.14 582.189
32 0 57.158 11.7394 671 73.0238 1302.37 581.83
33 0 60.3018 13.3163 803 70.0959 1302.58 580.792
34 0 58.2009 11.5978 675 74.2696 1302.28 578.769
35 0 61.1291 12.3182 753 72.4117 1302.53 579.032
36 0 63.1446 11.83 747 73.5274 1302.48 577.627
37 0 64.1551 12.7036 815 72.5853 1302.51 576.921
38 0 65.1759 12.5353 817 73.3182 1303.16 575.006
39 0 68.1846 12.8181 874 72.7471 1303.02 575.374
40 0 68.2604 12.13 828 74.7077 1303.16 574.197
41 0 72.2151 13.5567 979 72.43 1303.22 573.432
42 0 74.2594 13.3855 994 72.7777 1303.5 571.975
43 0 78.3032 13.2562 1038 72.8382 1303.3 570.065
44 0 78.324 12.4355 974 75.3953 1303.54 568.721
45 1 42.1669 11.3833 480 72.625 1303.71 587.51
46 0 43.1816 10.8843 470 73.5426 1303.97 587.674
47 0 45.2629 11.5326 522 72.9981 1304.06 585.881
48 0 45.2678 11.8407 536 72.6884 1304.24 586.849
49 0 48.3244 11.3814 550 73.8618 1304.13 585.745
50 0 49.2718 11.5279 568 73.4243 1303.64 585.224
51 0 53.245 11.9448 636 71.7657 1303.72 584.851
52 0 55.2687 11.7788 651 71.8157 1303.39 583.389
53 0 54.2263 11.5995 629 73.4928 1303.33 582.3
54 0 56.3205 12.8017 721 64.1526 1302.77 580.121
55 0 58.2701 12.3048 717 64.3347 1303.07 581.646
56 0 60.3908 11.2434 679 66.081 1302.99 580.063
57 0 62.3826 12.3913 773 65.6895 1303.25 578.642
58 0 62.1901 12.5904 783 65.2414 1303.6 577.009
59 0 66.2365 13.0593 865 64.0983 1303.72 576.408
60 0 67.2318 12.4643 838 65.5406 1303.91 572.848
61 0 70.2783 12.5216 880 65.533 1303.94 572.46
62 0 72.2225 12.5999 910 65.7824 1303.89 571.588
63 0 73.2051 12.663 927 66.7184 1303.35 570.741
64 0 75.1672 13.1706 990 65.8475 1303.37 569.13
65 0 78.2803 12.2125 956 67.0554 1303.68 568.835
66 0 81.3251 13.3538 1086 65.6436 1303.89 566.587
67 0 83.2898 12.3425 1028 67.0136 1304.43 567.043
68 1 46.3089 11.2074 519 66.5973 1304.69 585.046
69 0 46.261 10.5921 490 67.802 1305.1 584.814
70 0 50.337 10.2906 518 66.7355 1304.18 584.766
71 0 50.2689 10.9213 549 66.0109 1304.66 582.395
72 0 51.2594 11.7832 604 65.4421 1304.86 580.742
73 0 53.3538 11.6955 624 64.7228 1305.16 581.314
74 0 53.389 11.6691 623 65.6998 1305.53 579.149
75 0 56.3558 12.8647 725 63.3393 1306.24 577.568
76 0 57.2629 12.5736 720 63.8903 1305.94 577.844
77 0 58.2521 11.7421 684 64.826 1306.56 577.678
78 0 61.3433 12.047 739 63.3545 1306.18 576.291
79 0 63.1519 12.082 763 63.8008 1307 574.37
80 0 64.1899 13.3666 858 61.7506 1307.32 572.984
81 0 66.2804 12.3264 817 62.5777 1307.02 571.673
82 0 68.3289 11.9276 815 62.973 1307.61 570.247
83 0 69.3902 13.2151 917 61.4384 1307.94 569.046
84 0 72.1507 13.5272 976 60.7674 1307.96 568.85
85 0 75.2919 12.073 909 61.6898 1307.84 567.567
86 0 77.3187 12.4032 959 61.1074 1308.04 565.845
87 0 80.2143 12.9777 1041 59.6465 1308.28 561.895
88 0 83.2347 12.3146 1025 59.7132 1308.62 559.507
89 0 87.3838 12.3822 1082 58.2301 1308.72 558.604
90 0 90.3466 12.5849 1137 57.2929 1309.23 556.217
91 1 49.2505 10.6598 525 60.8476 1309.76 576.015
92 0 49.2564 11.0645 545 63.3468 1309.83 575.589
93 0 51.3633 11.1558 573 63 1309.75 573.634
94 0 54.2365 12.1136 657 59.4977 1309.93 572.747
95 0 54.2265 11.913 646 58.7817 1309.57 571.941
96 0 57.2949 11.6764 669 57.9686 1309.62 571.703
97 0 59.3615 12.3481 733 56.7872 1309.14 571.089
98 0 61.1993 12.6309 773 56.0453 1309.04 571.047
99 0 63.3386 12.9937 823 56.0571 1308.58 569.271
100 0 63.2125 11.9755 757 57.9075 1308.99 568.343
101 0 66.2184 13.8028 914 56.1357 1308.9 566.371
102 0 67.3261 12.536 844 58.2322 1309.19 564.921
103 0 70.3843 12.8011 901 58.9612 1309.75 564.557
104 0 70.2168 12.7605 896 60.5045 1309.78 562.71
105 0 76.286 13.9082 1061 59.2941 1309.86 561.241
106 0 76.2545 12.4976 953 61.2938 1310.15 558.391
107 0 79.5119 12.7402 1013 61.1619 1309.97 557.808
108 0 83.5657 12.4573 1041 61.1297 1309.86 557.783
109 0 81.4146 12.8969 1050 59.8886 1310.19 557.734
110 1 44.4035 10.8775 483 61.2505 1309.61 577.143
111 0 47.3885 11.8594 562 59.8932 1309.32 574.819
112 0 49.5146 12.1378 601 59.4775 1308.94 574.348
113 0 49.3362 12.2628 605 59.4066 1309 573.618
114 0 52.3955 13.0164 682 58.4501 1309.4 573.292
115 0 52.2811 12.0502 630 59.8889 1308.9 573.356
116 0 53.3177 12.0598 643 60.9393 1309.24 570.801
117 0 56.4167 13.0635 737 59.464 1309.12 570.252
118 0 56.296 12.7007 715 61.2462 1309.05 568.94
119 0 59.5437 13.3683 796 60.4183 1308.55 567.98
120 0 59.3422 12.8745 764 61.4555 1308.96 568.215
121 0 62.3355 12.3685 771 61.4306 1309.1 565.661
122 0 62.2316 13.1605 819 61.5446 1308.68 565.186
123 0 63.4407 12.5471 796 62.1357 1308.72 564.874
124 0 68.3589 13.2097 903 61.103 1308.44 562.981
125 0 69.4902 13.2824 923 60.9697 1308.46 563.222
126 0 71.2861 12.6112 899 61.6552 1308.62 562.912
127 0 73.3307 13.2005 968 61.5351 1308.44 560.888
128 0 76.2983 12.7395 972 62.216 1308.03 557.908
129 0 79.3127 13.3396 1058 61.8185 1307.97 556.74
130 0 82.4525 13.6685 1127 61.6823 1307.73 554.482
131 0 85.442 12.8742 1100 62.6482 1307.88 556.588
132 0 87.3385 13.2817 1160 63.0405 1307.88 553.095
133 0 87.3385 13.316 1163 147.088 1308.9 553.194
134 1 49.2137 11.1758 550 63.5455 1307.61 573.358
135 0 51.2376 10.1293 519 63.2351 1307.57 574.389
136 0 50.1669 11.2225 563 63.1243 1307.4 572.888
137 0 52.2211 11.0683 578 63.5796 1307.18 572.995
138 0 54.2729 11.0184 598 63.286 1307.18 574.216
139 0 53.1926 11.7497 625 63.8576 1307.24 570.966
140 0 55.2876 11.0875 613 64.3116 1307.2 569.064
141 0 59.2077 11.941 707 62.6025 1307.3 569.884
142 0 60.2496 11.1204 670 64.3239 1307.45 568.033
143 0 62.154 12.5012 777 62.1248 1307.49 567.229
144 0 65.3418 12.7943 836 61.3026 1307.4 567.144
145 0 66.1415 12.4581 824 62.0716 1307.24 566.495
146 0 70.0851 12.4848 875 61.3669 1306.96 565.578
147 0 72.1721 12.8027 924 61.2154 1307.09 565.038
148 0 72.2187 13.1406 949 61.8641 1307.03 561.397
149 0 75.2017 13.1779 991 61.9334 1306.86 560.562
150 0 78.3488 13.2867 1041 61.5821 1307 559.124
151 0 81.3345 13.8932 1130 60.4982 1306.62 558.792
152 0 83.3046 13.3246 1110 61.6586 1306.71 557.419
153 0 86.2732 12.9472 1117 62.3187 1306.64 554.509
154 0 89.3276 13.0643 1167 62.3453 1306.84 554.551
155 0 92.2655 12.7675 1178 62.7114 1306.92 553.519
156 1 50.1386 11.5679 580 61.5741 1306.21 575.628
157 0 52.0413 10.7607 560 63.2054 1306.29 574.12
158 0 52.0413 10.7607 560 175.821 1306.29 574.12
159 0 55.1651 12.8523 709 60.8759 1306.91 573.051
160 0 56.1668 12.7121 714 60.6401 1306.24 573.007
161 0 59.2928 12.413 736 60.5829 1306.64 571.99
162 0 60.2605 12.4626 751 60.6032 1306.67 570.12
163 0 63.2089 12.8938 815 59.8221 1306.63 569.374
164 0 64.2109 12.2409 786 60.8919 1306.75 567.981
165 0 65.3357 12.7189 831 60.3899 1306.73 567.385
166 0 68.1847 12.7301 868 60.6774 1306.52 567.007
167 0 73.4077 13.6089 999 59.1602 1306.23 564.952
168 0 75.3081 12.7609 961 60.7263 1306.86 564.203
169 0 75.473 13.3425 1007 61.284 1307.52 561.016
170 1 39.2926 9.62014 378 61.7672 1307.38 580.974
171 0 42.1486 10.8426 457 61.8972 1307.94 578.363
172 0 43.4791 10.7868 469 61.5757 1307.47 579.339
173 0 44.3532 11.431 507 61.3294 1307.81 578.531
174 0 46.3395 11.8905 551 61.294 1307.61 577.697
175 0 47.3432 12.3143 583 61.3997 1308.23 575.451
176 0 48.365 12.2403 592 61.1351 1308.16 575.99
177 0 48.4875 11.1575 541 63.2994 1308.09 574.433
178 0 51.3432 13.1858 677 60.8464 1308.66 574.275
179 0 52.259 11.9023 622 63.6656 1308.49 571.844
180 0 54.2606 12.569 682 62.8812 1308.27 571.871
181 0 56.2143 12.7192 715 63.0601 1307.9 570.951
182 0 56.2347 12.5723 707 63.4455 1308.95 569.505
183 0 58.3103 12.0905 705 63.9645 1308.8 569.311
184 0 59.3328 12.9776 770 63.0325 1308.72 568.669
185 0 59.3553 12.0798 717 65.0014 1308.91 567.81
186 0 64.3961 13.1374 846 62.6986 1309.66 566.608
187 0 65.4302 12.9298 846 63.1028 1309.52 566.658
188 0 66.3644 12.6122 837 63.1135 1309.42 563.542
189 0 70.2307 12.4305 873 63.3528 1309.65 563.582
190 0 70.4167 14.2012 1000 62.377 1310.32 561.233
191 0 73.4954 13.1165 964 63.8703 1310.08 562.013
192 0 77.4381 12.4099 961 63.7867 1310.25 559.643
193 1 42.3053 11.8661 502 60.2211 1310.13 577.835
194 0 40.405 10.568 427 60.8407 1310.02 577.686
195 0 41.3769 11.0932 459 59.4096 1310.31 576.484
196 0 44.3382 12.4046 550 57.5055 1310.4 574.405
197 0 47.2663 11.5304 545 59.033 1310.02 574.461
198 0 46.3834 10.3701 481 62.3617 1310.23 573.933
199 0 47.4028 10.6956 507 63.5385 1310.15 573.905
200 0 50.3605 11.934 601 62.5291 1310.9 570.993
201 0 52.295 12.0853 632 62.462 1310.88 570.638
202 0 54.2277 11.3042 613 62.478 1309.84 570.657
203 0 55.2881 11.9917 663 62.2066 1309.44 569.208
204 0 58.3866 11.9205 696 62.2859 1309.51 569.583
205 0 58.1906 11.7545 684 63.6579 1309.93 567.844
206 0 60.2867 12.5069 754 64.008 1310.23 566.764
207 0 62.4243 12.3029 768 63.9857 1310.14 567.312
208 0 64.2826 13.1451 845 63.6107 1310.84 564.569
209 0 66.3446 12.5406 832 64.2644 1310.93 563.853
210 0 67.4457 12.9734 875 64.528 1310.99 562.166
211 0 68.3576 13.049 892 64.7635 1310.98 562.15
212 0 72.6561 13.9424 1013 63.8963 1311.15 560.607
213 0 74.5816 13.4752 1005 65.206 1311.03 561.134
214 0 75.5819 13.4424 1016 66.1742 1310.95 559.222
215 0 78.6491 13.0199 1024 67.1289 1310.64 559.44
216 0 82.3794 13.7049 1129 66.1665 1310.56 557.466
217 0 85.5445 13.6888 1171 66.731 1310.06 554.4
218 0 86.7046 13.3557 1158 68.1943 1310.04 553.347
219 0 89.5132 13.8415 1239 67.9338 1310.27 551.914
220 0 91.5515 13.3586 1223 69.1954 1310.19 552.12
221 0 95.5442 13.2818 1269 69.5414 1310.2 550.467
222 0 99.5211 13.6855 1362 68.5925 1310.25 549.351
223 1 53.3186 11.2344 599 70.1553 1309.19 569.888
224 0 53.3068 10.7303 572 69.229 1309.58 572.002
225 0 55.2584 12.1249 670 67.7015 1309.1 569.599
226 0 58.3153 12.1924 711 67.3066 1309.02 568.376
227 0 58.1887 12.8375 747 66.6854 1308.58 568.731
228 0 59.2335 12.3241 730 68.9 1308.87 567.871
229 0 63.2531 12.4421 787 67.9072 1308.53 567.488
230 0 64.418 11.829 762 68.8071 1308.57 565.895
231 0 69.2402 12.2039 845 67.4828 1308.81 564.838
232 0 69.3332 12.2741 851 67.8719 1308.51 565.428
233 0 71.3485 12.6422 902 67.8603 1308.77 563.819
234 0 74.2281 13.2025 980 66.702 1308.78 561.874
235 0 77.254 13.3585 1032 66.6027 1308.34 560.862
236 0 79.4371 12.5256 995 68.405 1308.49 560.153
237 0 80.303 12.0793 970 69.7907 1308.09 558.709
238 0 83.3319 12.5642 1047 69.4976 1308 557.144
239 0 87.347 12.8339 1121 68.9028 1308.46 555.972
240 0 88.4382 13.173 1165 68.6987 1308.55 554.658
241 0 92.3676 12.5802 1162 69.4346 1308.27 554.055
242 0 95.3518 13.1094 1250 68.6464 1308.31 551.818
243 0 99.4383 12.3795 1231 69.0422 1308.15 550.473
244 1 47.2496 10.9631 518 67.9344 1306.8 575.697
245 0 53.2463 10.4045 554 68.6444 1307.14 574.271
246 0 52.255 10.621 555 68.8685 1307.23 573.281
247 0 54.2861 11.7894 640 67.7938 1307.52 570.558
248 0 57.2507 11.9999 687 66.6608 1307.64 569.859
249 0 60.3441 12.2299 738 65.6301 1307.54 570.318
250 0 59.2373 12.1376 719 67.0848 1307.61 569.989
251 0 61.2061 12.2537 750 67.476 1307.9 569.032
252 0 63.1687 12.3954 783 66.802 1307.78 568.349
253 0 66.2747 12.1766 807 66.5985 1308.06 567.036
254 0 67.3465 12.6807 854 65.945 1308.06 565.822
255 0 69.2212 12.0339 833 66.9376 1308.35 564.892
256 0 71.1765 12.4901 889 65.6333 1308.03 565.967
257 0 73.3903 13.3533 980 64.4918 1307.83 564.453
258 0 75.2684 12.8474 967 65.9679 1307.39 561.261
259 0 78.3757 12.338 967 65.7911 1307.14 562.588
260 0 82.3885 12.6231 1040 64.6856 1307.53 561.352
261 0 82.3478 12.1072 997 66.0722 1307.83 558.768
262 0 87.6224 12.3599 1083 65.41 1307.12 557.39
263 0 89.586 13.4396 1204 63.6786 1307.57 556.817
264 0 93.5883 13.2388 1239 63.0355 1307.57 559.138
265 0 94.337 12.3387 1164 65.0395 1307.54 555.562
266 0 98.4811 12.246 1206 65.2836 1307.83 553.138
267 1 55.1973 10.4172 575 64.2678 1307.24 574.475
268 0 57.1925 10.1936 583 64.4854 1307.33 574.545
269 0 57.2145 11.9026 681 62.7063 1307.79 571.711
270 0 60.2976 11.1115 670 63.1269 1308.21 571.425
271 0 61.2802 11.4882 704 63.0341 1308.36 570.453
272 0 62.2592 12.2392 762 62.2756 1308.19 568.28
273 0 64.1057 12.4014 795 60.3786 1308.26 567.526
274 0 66.2179 12.7911 847 60.5077 1308.09 566.969
275 0 70.344 13.1639 926 59.3521 1308.48 565.789
276 0 68.1917 12.4062 846 61.3333 1308.75 563.702
277 0 72.1692 12.055 870 61.0057 1308.8 563.125
278 0 76.1923 13.4266 1023 58.6872 1308.67 560.351
279 0 77.3074 13.3234 1030 59.3883 1309.41 559.983
280 0 81.1872 12.736 1034 59.4275 1309.43 556.898
281 0 83.3477 12.5858 1049 59.6978 1309.67 555.622
282 0 87.3012 13.001 1135 58.2749 1309.83 555.186
283 1 42.0629 9.24806 389 60.162 1309.28 575.067
284 0 45.0428 9.67968 436 59.4839 1309.53 577.291
285 0 46.0824 10.0906 465 59.9226 1309.54 574.086
286 0 47.1598 10.581 499 59.5792 1309.94 573.571
287 0 49.0811 11.3486 557 59.2783 1309.63 572.165
288 0 52.2402 11.7534 614 59.7085 1310.17 571.309
289 0 54.1429 12.2638 664 59.113 1310.67 569.864
290 0 54.2298 12.0413 653 59.8224 1310.74 568.002
291 0 56.2664 12.4053 698 59.3238 1311.05 567.672
292 0 57.1322 12.1648 695 59.9482 1311.42 566.78
293 0 59.2096 12.1602 720 61.1125 1311.41 566.247
294 0 61.1232 12.663 774 60.4535 1311.6 564.928
295 0 60.1125 12.6097 758 161.161 1312.62 564.612
296 0 64.1635 13.45 863 60.095 1311.86 563.659
297 0 65.2497 13.0729 853 60.8628 1311.5 562.158
298 0 68.1276 13.1665 897 61.699 1312.03 561.154
299 0 70.2613 12.7382 895 62.2525 1312.13 561.25
300 0 72.372 13.2095 956 62.1778 1312.27 560.289
301 0 76.3052 12.9873 991 62.4793 1312.7 558.89
302 0 75.3388 12.6628 954 64.0514 1312.74 557.603
303 0 80.1378 13.5142 1083 62.7258 1313.48 555.501
304 0 84.2725 13.2072 1113 62.2848 1312.64 555.536
305 1 44.0394 10.922 481 63.2037 1312.16 574.05
306 0 44.0772 10.5043 463 64.5788 1312.39 572.503
307 0 47.1308 11.3938 537 62.8045 1312.66 572.22
308 0 48.1133 11.7015 563 62.2966 1312.73 570.577
309 0 51.0782 12.0404 615 62.0683 1313.04 569.946
310 0 51.198 12.0512 617 62.1912 1313.01 569.175
311 0 55.1826 13.1744 727 60.7331 1312.76 568.387
312 0 56.2516 13.9196 783 60.0268 1313.01 567.95
313 0 56.2968 13.6775 770 60.5065 1313.47 567.532
314 0 57.3205 12.875 738 61.8089 1312.73 565.18
315 0 60.3541 13.9344 841 60.5826 1313.18 564.502
316 0 60.4093 13.3423 806 61.206 1313.18 564.387
317 0 64.2451 14.2579 916 60.369 1312.7 562.753
318 0 66.1428 13.3046 880 61.258 1311.81 562.278
319 0 67.3187 12.5819 847 62.6777 1312.6 560.839
320 0 69.3869 13.0716 907 62.5976 1312.43 560.786
321 0 73.4886 13.1585 967 61.7466 1312.2 559.892
322 0 75.3344 13.3538 1006 62.3708 1312.29 557.269
323 0 77.4629 12.9998 1007 63.0993 1312.18 557.1
324 0 79.5048 13.9992 1113 62.2291 1312.06 554.807
325 0 80.309 13.1492 1056 63.9072 1311.89 555.789
326 0 83.5853 12.6099 1054 64.7799 1312.01 554.017
327 0 86.4405 13.0263 1126 64.8171 1311.95 552.648
328 1 44.3586 10.7758 478 65.795 1311.67 573.266
329 0 48.3686 11.7638 569 64.6942 1311.29 572.525
330 0 47.3436 11.4694 543 65.6906 1311.32 571.238
331 0 49.1788 12.5867 619 65.0226 1311.06 569.336
332 0 52.368 11.9348 625 65.616 1311.04 569.411
333 0 53.4338 12.4079 663 65.2383 1310.91 569.128
334 0 55.3612 12.9694 718 64.9791 1311.3 568.272
335 0 58.4673 13.6315 797 64.0326 1310.89 567.96
336 0 58.2732 12.613 735 65.9374 1310.38 567.967
337 0 59.2219 13.3903 793 65.2623 1309.93 566.765
338 0 62.4665 13.5112 844 64.6256 1310.31 566.422
339 0 65.5259 14.2997 937 63.5518 1310.04 565.415
340 0 65.3159 14.2385 930 64.8065 1310.35 563.311
341 0 68.3093 13.4096 916 65.476 1309.85 563.75
342 0 69.4536 13.3902 930 66.0882 1309.72 562.173
343 0 71.2882 13.3823 954 65.9078 1309.83 562.852
344 0 74.3438 13.1282 976 66.7736 1309.88 559.173
345 0 78.3199 13.6875 1072 65.7211 1310.22 557.545
346 0 80.2865 13.6387 1095 65.1845 1310.43 557.297
347 0 82.4877 13.4566 1110 65.7568 1310.11 557.421
348 0 83.3356 12.8756 1073 66.383 1309.84 554.891
349 0 87.5229 13.1965 1155 65.6944 1309.88 554.402
350 1 48.3475 10.8796 526 65.4183 1309.43 574.021
351 0 48.3397 11.3157 547 65.2121 1309.15 573.364
352 0 52.4256 12.0361 631 62.9746 1309.73 573.539
353 0 52.3439 12.1504 636 63.1808 1309.19 572.535
354 0 55.2806 12.0657 667 63.1964 1309.58 570.321
355 0 55.2992 11.4468 633 63.7583 1310.08 570.498
356 0 59.2211 13.1034 776 61.6121 1309.75 568.894
357 0 60.2143 12.8375 773 62.2342 1309.72 569.173
358 0 63.2714 13.2445 838 61.3902 1310.27 566.859
359 0 65.3612 13.7849 901 60.1565 1309.95 566.531
360 0 66.3251 13.1021 869 61.5811 1309.76 564.626
361 0 69.2122 12.8446 889 60.7728 1309.49 564.947
362 0 70.2693 12.6086 886 61.9402 1309.74 561.787
363 0 74.395 13.9391 1037 59.5169 1309.1 561.956
364 0 77.2284 13.5572 1047 59.8376 1309.28 560.333
365 0 77.2365 13.1803 1018 61.0619 1309.08 559.75
366 0 81.2023 14.3592 1166 59.3422 1309.6 557.821
367 0 83.3213 13.3579 1113 60.4978 1309.78 558.272
368 0 87.3085 13.5153 1180 60.3492 1310.13 556.669
369 0 88.3131 13.6446 1205 60.956 1310.43 554.672
370 0 90.3221 13.4851 1218 61.3079 1310.55 553.108
371 1 49.3293 10.7644 531 61.1996 1310.01 574.514
372 0 51.4215 11.1432 573 60.6946 1310.01 573.546
373 0 53.3405 11.5297 615 60.9317 1309.99 571.379
374 0 53.2346 12.0035 639 61.097 1310.21 570.892
375 0 56.2924 12.4351 700 60.01 1310.27 569.746
376 0 58.407 11.9506 698 59.0014 1310.16 570.506
377 0 58.4367 12.0472 704 59.9844 1310.7 569.304
378 0 61.2624 13.2381 811 58.0863 1311.11 566.603
379 0 63.3258 12.3331 781 59.2254 1311.59 565.292
380 0 65.4113 12.5666 822 58.8686 1311.14 564.538
381 0 65.289 13.2028 862 58.7367 1311.83 564.545
382 0 69.1788 13.3133 921 58.2953 1311.66 563.64
383 0 73.4503 13.3151 978 58.2955 1311.87 562.059
384 0 73.3077 13.2319 970 58.5835 1312.35 561.548
385 0 76.3845 12.9477 989 59.7209 1312.14 560.164
386 0 78.3013 13.4225 1051 59.0571 1312.37 557.203
387 0 81.2675 13.4617 1094 58.8611 1312.33 556.479
388 1 40.2966 9.25637 373 60.1099 1311.83 576.595
389 0 43.2082 9.67408 418 59.7751 1311.87 576.794
390 0 44.2082 10.1112 447 60.1812 1312.5 575.201
391 0 46.1619 10.8748 502 60.1096 1312.81 573.795
392 0 48.1822 11.581 558 59.2115 1312.67 573.013
393 0 49.1358 11.7226 576 60.0347 1312.88 571.321
394 0 51.2384 11.8856 609 59.9475 1313.3 571.557
395 0 51.2695 11.9174 611 60.6514 1313.34 570.226
396 0 53.2846 12.893 687 59.8297 1313.53 568.953
397 0 54.2658 12.7336 691 60.2287 1313.72 568.281
398 0 56.2793 12.4557 701 60.3837 1314.06 568.442
399 0 58.2147 13.3471 777 59.6602 1314.1 566.306
400 0 59.4613 12.9832 772 59.8018 1314.15 564.785
401 0 62.2697 12.7349 793 59.9975 1314.18 564.573
402 0 63.3202 13.9766 885 58.6113 1314.08 563.315
403 0 66.2261 12.6083 835 59.9329 1314.43 562.638
404 0 68.2209 12.7674 871 59.6659 1314.4 561.762
405 0 71.5372 13.154 941 59.169 1314.14 559.426
406 0 73.3395 13.008 954 59.5356 1314.12 558.746
407 0 77.3836 13.6592 1057 58.526 1314.14 557.794
408 0 78.2812 13.9114 1089 58.8228 1314.24 555.952
409 0 80.2992 13.1882 1059 59.5703 1314.38 555.801
410 0 85.2702 13.6155 1161 59.1189 1314.53 552.586
411 0 87.3214 13.0323 1138 59.949 1314.14 553.64
412 1 45.1808 11.4208 516 59.1764 1313.64 572.064
413 0 47.3418 12.0612 571 59.5201 1313.65 570.398
414 0 50.1555 12.2619 615 59.2829 1313.91 569.374
415 0 52.4554 11.8386 621 59.7955 1314.22 569.093
416 0 53.4249 12.4099 663 59.6139 1313.15 567.416
417 0 53.3936 12.155 649 59.9276 1312.92 569.008
418 0 56.4004 12.4999 705 59.6355 1313.17 566.403
419 0 57.2137 12.2348 700 59.7586 1313.03 567.093
420 0 60.1884 13.0091 783 58.5568 1312.92 565.788
421 0 60.2644 12.4286 749 59.5915 1312.44 566.146
422 0 62.1813 11.7881 733 60.0941 1312.53 564.712
423 0 63.2873 12.8936 816 59.0159 1312.28 564.699
424 0 67.2333 12.6723 852 58.5869 1312.49 562.188
425 0 70.2538 12.953 910 58.0978 1311.85 561.929
426 0 69.2222 12.9438 896 59.1574 1311.85 560.768
427 0 73.4021 13.6781 1004 57.3735 1311.48 560.053
428 0 76.2401 12.7623 973 58.3926 1311.22 558.402
429 0 76.2864 13.2002 1007 58.3803 1310.94 556.825
430 0 80.3518 13.4907 1084 57.9124 1311.1 555.624
431 0 84.199 13.5512 1141 57.3909 1310.93 553.234
432 0 83.3255 12.4692 1039 58.7786 1310.79 553.213
433 0 89.4258 12.6362 1130 58.1035 1311.05 552.5
434 1 49.2359 10.1349 499 57.3066 1310.11 572.473
435 0 51.33 9.46814 486 58.0206 1310.5 572.261
436 0 52.1395 10.8171 564 57.2784 1309.74 570.667
437 0 52.1029 11.6308 606 57.1931 1310.17 570.398
438 0 55.2713 10.8374 599 58.1185 1310.49 568.658
439 0 56.2734 11.9772 674 56.9258 1310.81 568.438
440 0 59.3965 12.1556 722 55.9584 1310.87 567.402
441 0 60.4091 12.1339 733 56.5443 1310.69 565.797
442 0 61.4055 11.8556 728 56.8626 1310.11 564.519
443 0 67.2727 12.9622 872 54.6617 1309.94 565.078
444 0 68.3798 12.5914 861 55.4146 1310.68 563.462
445 0 70.3166 12.1877 857 55.8121 1310.43 563.156
446 0 73.3419 12.5304 919 55.5767 1310.55 561.894
447 0 76.3279 12.5249 956 54.9937 1310.5 560.351
448 0 77.1871 12.1393 937 56 1310.06 559.523
449 1 42.3069 9.40745 398 56.696 1309.73 576.776
450 0 44.2118 9.88425 437 56.5835 1309.41 575.297
451 0 46.1758 10.4384 482 56.0436 1309.96 574.282
452 0 47.2842 10.1514 480 56.7833 1310.01 574.092
453 0 51.3424 10.7514 552 55.5543 1308.74 573.368
454 0 52.3755 11.0739 580 55.7345 1309.39 572.664
455 0 52.3099 12.0054 628 54.0032 1309.02 570.639
456 0 55.3002 10.5605 584 54.9195 1308.62 571.57
457 0 57.2428 11.0582 633 54.8863 1308.88 568.912
458 0 56.3647 11.9046 671 55.8063 1308.97 568.531
459 0 61.2188 13.0842 801 53.5094 1308.91 567.916
460 0 61.2188 13.1169 803 155.43 1308.87 567.979
461 0 64.2557 11.392 732 55.3743 1308.73 567.514
462 0 67.4027 12.4031 836 54.6232 1309.19 564.629
463 0 68.2449 12.5431 856 54.6636 1309.05 565.157
464 0 70.2423 12.4711 876 55.25 1309.22 562.877
465 0 73.2203 12.3326 903 55.9136 1309.66 562.292
466 0 75.3454 11.9848 903 56.4485 1308.99 562.062
467 0 78.2434 11.3236 886 57.5147 1309.36 561.871
468 0 80.3152 12.8245 1030 56.3175 1309.66 559.103
469 0 84.3542 13.064 1102 55.8085 1309.49 559.134
470 0 86.3864 12.1663 1051 56.9448 1309.67 558.181
471 0 88.4543 11.7575 1040 58.249 1309.72 554.791
472 1 46.3035 10.0424 465 58.1978 1308.7 577.462
473 0 47.3518 11.8264 560 56.6393 1309.19 576.92
474 0 50.2193 12.1069 608 56.5543 1308.8 575.808
475 0 52.2804 11.993 627 56.5311 1309.5 575.129
476 0 52.3916 12.292 644 57.2686 1310.16 573.253
477 0 53.3038 11.7815 628 58.3232 1309.97 572.537
478 0 55.2409 11.7666 650 58.2169 1309.66 571.611
479 0 56.1903 12.1907 685 58.2058 1309.77 570.728
480 0 60.2455 12.6814 764 57.0419 1309.91 569.965
481 0 60.2509 12.1658 733 58.4488 1309.79 570.419
482 0 61.1933 11.7333 718 59.6964 1309.94 569.802
483 0 63.2952 12.3706 783 58.5402 1309.84 567.563
484 0 64.3085 12.58 809 58.5649 1309.89 568.572
485 0 65.3048 12.6178 824 58.6687 1310.37 565.631
486 0 67.1911 12.0403 809 59.6477 1310.43 566.787
487 0 70.2307 13.0285 915 58.4404 1310.36 564.815
488 0 74.1515 13.5129 1002 57.8553 1310.35 563.7
489 0 74.1515 13.4994 1001 163.502 1310.36 563.667
490 0 77.2367 13.1544 1016 58.3406 1310.71 560.111
491 0 78.2106 13.0801 1023 58.523 1310.76 560.508
492 0 81.3696 13.1499 1070 58.1374 1310.86 557.577
493 0 83.1838 12.4423 1035 58.8039 1310.88 555.428
494 0 84.2705 12.982 1094 58.3839 1311.03 554.308
495 0 88.2535 12.906 1139 58.4987 1310.84 553.692
496 1 46.1312 10.1883 470 59.1213 1310.25 574.609
497 0 47.1762 11.0649 522 58.4885 1310.02 573.674
498 0 48.185 10.854 523 58.6119 1310.14 572.981
499 0 51.315 12.2966 631 56.6086 1310.7 570.93
500 0 51.2292 11.8292 606 57.1848 1310.3 571.667
501 0 53.154 13.0188 692 56.289 1310.97 570.556
502 0 52.3055 12.102 633 58.3965 1311.04 568.771
503 0 55.2407 11.7124 647 58.2767 1310.74 569.835
504 0 59.1871 12.6717 750 57.1507 1310.31 568.363
505 0 59.214 13.3245 789 56.7592 1310.76 567.018
506 0 59.157 13.6248 806 57.0484 1310.75 565.591
507 0 61.3142 13.0639 801 57.5805 1310.91 566.3
508 0 64.2422 13.1534 845 57.1562 1310.71 565.296
509 0 66.1719 13.0871 866 57.5485 1310.64 564.455
510 0 68.1526 13.5578 924 57.1115 1310.58 563.039
511 0 68.1425 13.8827 946 57.092 1310.78 561.93
512 0 68.1711 12.8647 877 59.1049 1310.44 561.258
513 0 73.1985 13.6068 996 57.74 1310.3 561.463
514 0 75.3419 13.2728 1000 58.4 1310.58 560.164
515 0 76.2202 14.6418 1116 57.5394 1310.99 558.013
516 0 78.1626 12.7938 1000 58.491 1310.79 557.183
517 0 81.3316 13.5864 1105 57.8072 1311.06 554.804
518 0 84.2925 13.2989 1121 57.9037 1310.82 553.579
519 0 87.3767 14.2487 1245 56.6289 1310.78 553.031
520 0 89.1423 13.6972 1221 58.027 1311.3 551.572
521 0 92.4366 13.9447 1289 57.5671 1310.68 550.661
522 0 93.5438 13.1382 1229 58.5793 1311.06 549.816
523 1 50.2217 10.6528 535 58.5477 1310.38 572.619
524 0 51.2506 11.7267 601 57.2812 1311.07 571.985
525 0 52.251 11.4256 597 57.4255 1310.73 572.581
526 0 53.2071 12.8742 685 56.9547 1310.93 570.111
527 0 58.4454 11.8914 695 57.2604 1311.02 568.955
528 0 57.1304 12.2702 701 57.4636 1311.26 568.365
529 0 60.5572 11.5263 698 57.8883 1312.54 567.251
530 0 60.3692 12.0426 727 58.0729 1311.5 565.655
531 0 64.3553 11.5764 745 58.1208 1311.58 565.706
532 0 66.3811 11.8558 787 57.6963 1311.75 565.28
533 0 68.4283 11.8957 814 57.3243 1311.67 563.224
534 0 71.5473 11.8523 848 57.3927 1312.02 561.23
535 0 72.7272 11.1925 814 57.9005 1312.11 560.93
536 0 74.4966 11.6515 868 58.4965 1312.13 558.813
537 0 75.6499 11.3021 855 58.076 1311.28 559.225
538 1 39.3151 10.5049 413 55.5424 1311.09 576.504
539 0 44.3274 10.2194 453 55.3797 1311.57 574.85
540 0 45.1801 10.425 471 55.2887 1311.02 574.987
541 0 45.2081 10.7945 488 56.4488 1311.69 574.516
542 0 45.3031 10.8381 491 57.1935 1310.85 574.76
543 0 42.3629 10.2684 435 59.1103 1311.11 576.825
544 0 42.5234 10.5119 447 59.528 1310.83 574.447
545 0 47.3529 10.3689 491 58.1507 1310.63 573.615
546 0 49.4567 11.3837 563 58.1616 1310.85 572.453
547 0 49.4462 11.0423 546 58.2161 1310.72 571.919
548 0 53.5076 11.9983 642 56.5016 1310.81 570.589
549 0 54.1907 12.0869 655 56.8305 1311.32 568.713
550 0 57.393 12.0921 694 57.0115 1310.66 566.3
551 0 63.5412 13.2198 840 54.2429 1310.75 567.363
552 0 63.3578 13.116 831 55.2996 1310.25 565.122
553 0 64.5186 13.438 867 55.09 1310.33 565.264
554 0 65.4883 12.674 830 56.6819 1310.27 564.071
555 1 35.2232 10.2489 361 56.2548 1309.8 579.681
556 0 34.2592 10.6541 365 56.6658 1309.49 579.195
557 0 38.1268 11.5667 441 55.5238 1309.22 577.61
558 0 36.1737 11.0025 398 57.0075 1309.27 577.977
559 0 40.4015 11.856 479 57.3361 1310.19 576.695
560 0 41.5289 11.9917 498 57.8956 1309.95 576.954
561 0 42.4049 11.3902 483 59.2112 1309.78 576.087
562 0 43.3427 12.3666 536 58.3396 1309.76 575.422
563 0 45.4343 12.6997 577 57.7678 1309.68 575.974
564 0 46.3422 12.0409 558 59.9319 1309.63 573.604
565 0 46.411 10.8164 502 62.2809 1309.69 573.508
566 0 47.4099 12.6556 600 59.835 1309.44 572.462
567 0 48.4199 13.0938 634 59.7776 1309.11 572.495
568 0 51.577 12.7189 656 60.1448 1309.58 571.931
569 0 52.5075 12.0554 633 61.7267 1310.14 570.367
570 0 54.4871 12.7003 692 60.5896 1309.83 571.539
571 0 54.3875 12.7603 694 61.6628 1309.14 569.942
572 0 54.2578 12.5328 680 62.6647 1309.49 569.571
573 0 58.3784 13.0356 761 61.6202 1309.63 568.875
574 0 57.53 12.6195 726 63.0937 1308.98 568.537
575 0 59.3299 13.012 772 63.0168 1308.85 566.833
576 0 61.5006 14.0161 862 62.1206 1309.12 565.664
577 0 62.2733 13.5853 846 62.9846 1308.03 565.147
578 0 65.2844 13.0199 850 62.8294 1308.27 565.858
579 0 67.3421 13.2606 893 62.5286 1308.12 564.141
580 0 68.4343 13.502 924 62.8918 1308.24 563.276
581 0 72.4712 14.5023 1051 61.1646 1307.96 561.446
582 0 73.348 13.4428 986 62.5882 1308.15 561.31
583 0 76.4544 12.962 991 63.3724 1307.78 560.09
584 0 79.2751 13.964 1107 62.1852 1308.59 557.768
585 0 81.4178 13.6579 1112 62.4721 1308.32 557.804
586 1 42.227 10.4672 442 64.5158 1307.98 577.111
587 0 46.1979 10.7581 497 63.161 1307.11 577.352
588 0 48.2454 11.5244 556 63.8939 1307.44 574.511
589 0 49.2206 11.4383 563 63.2274 1307.28 574.616
590 0 50.2097 11.7906 592 63.2348 1306.98 574.811
591 0 52.2627 13.0303 681 61.6652 1307 574.85
592 0 55.3326 12.6146 698 62.149 1307.16 572.977
593 0 56.3529 13.309 750 61.2493 1307.71 571.523
594 0 58.3428 13.1636 768 61.3346 1308 570.293
595 0 59.3257 12.4229 737 61.4925 1307.42 569.44
596 0 60.1915 12.859 774 61.199 1307.35 569.939
597 0 60.2771 12.99 783 61.6973 1307.48 567.106
598 0 65.2971 13.3697 873 59.5246 1307.51 568.767
599 0 67.3169 12.9685 873 60.1042 1307.5 566.457
600 0 71.1744 13.4177 955 59.5183 1307.25 566.239
601 0 71.1166 12.0788 859 61.4156 1307.04 563.099
602 0 74.3525 13.046 970 59.8103 1306.85 562.935
603 1 42.2298 11.248 475 58.9474 1306.63 579.051
604 0 42.2856 10.3345 437 60.0114 1306.5 579.066
605 0 43.2515 10.7511 465 59.843 1307.14 577.791
606 0 45.1804 12.4833 564 57.4025 1307.32 576.183
607 0 47.1312 11.712 552 58.3678 1307.55 576.697
608 0 44.3432 11.9297 529 60.0567 1306.74 578.193
609 0 49.4094 12.3054 608 58.7993 1307.38 577.007
610 0 50.2934 12.4271 625 60.2048 1307.26 575.216
611 0 50.2742 12.213 614 61.1775 1307.07 574.568
612 0 53.4044 11.8342 632 60.7041 1306.95 574.574
613 0 54.3236 12.3151 669 60.8296 1307.54 572.478
614 0 56.1939 11.7984 663 61.4087 1307.66 572.211
615 0 57.2791 11.4178 654 61.9709 1307.82 570.235
616 0 58.3989 12.6715 740 60.1027 1307.12 570.093
617 0 61.3728 12.7581 783 59.4163 1307.35 569.977
618 0 62.269 13.2971 828 59.0954 1307.5 567.251
619 0 63.3123 12.5252 793 59.6469 1307.96 567.295
620 0 66.3736 12.5652 834 59.7482 1307.65 565.301
621 0 67.528 12.9872 877 59.1209 1307.87 565.916
622 0 71.2213 12.9175 920 59.5402 1307.71 565.178
623 0 71.4505 13.2539 947 59.6589 1308.53 563.164
624 0 75.3212 13.7677 1037 58.9431 1308.64 562.21
625 0 77.3742 12.5882 974 59.9343 1308.46 562.444
626 0 79.4302 12.9674 1030 60.1602 1308.87 557.94
627 0 82.3346 13.2872 1094 59.989 1308.47 558.719
628 0 86.6544 12.3594 1071 60.7862 1308.97 559
629 0 88.5746 12.8705 1140 60.1667 1308.64 556.384
630 0 93.6479 13.1663 1233 59.635 1308.77 553.962
631 0 94.6087 13.244 1253 59.7702 1308.65 553.543
632 1 53.344 11.7351 626 59.7077 1308.49 574.088
633 0 52.2764 11.2479 588 60.0646 1309.5 573.35
634 0 54.3206 11.3585 617 60.1442 1308.6 573.099
635 0 58.265 11.9969 699 58.6781 1309.31 571.568
636 0 57.3251 11.618 666 60.3784 1308.79 569.974
637 0 61.1482 12.1508 743 59.4939 1309.22 567.614
638 0 62.4852 12.0989 756 59.4643 1309.48 569.103
639 0 64.4246 13.1937 850 57.3882 1309.52 566.854
640 0 65.3751 13.6291 891 57.3984 1309.32 565.899
641 0 66.2724 12.9918 861 58.6307 1309.86 566.023
642 0 70.3395 12.8662 905 58.4033 1310.4 564.902
643 0 72.4532 13.3742 969 58 1310.32 563.245
644 0 73.3948 13.189 968 58.8554 1310.4 561.023
645 0 75.5465 13.1575 994 58.6791 1311.09 561.418
646 0 78.3261 13.4693 1055 58.8389 1310.93 558.919
647 0 82.3478 13.2123 1088 58.7307 1311.27 556.256
648 0 84.4773 12.9976 1098 59.3033 1311.75 556.154
649 0 86.4313 13.5599 1172 58.4147 1311.85 553.306
650 0 94.5118 12.7391 1204 58.8065 1311.87 551.863
651 0 94.5101 13.0039 1229 58.795 1311.39 550.712
652 0 97.4948 13.0469 1272 59.1855 1310.65 548.736
653 0 100.606 13.2001 1328 59.5166 1310.85 547.231
654 1 52.2901 11.245 588 59.3861 1310.38 571.35
655 0 53.2688 12.3524 658 58.5015 1310.78 569.608
656 0 54.1935 12.5476 680 58.1574 1309.93 569.453
657 0 55.1493 12.2214 674 58.9318 1309.91 568.724
658 0 57.1174 11.5727 661 59.7065 1310.41 566.676
659 0 59.254 11.5435 684 59.6681 1310.29 566.18
660 0 60.4132 11.9676 723 59.6376 1310.92 566.08
661 0 61.2713 12.1754 746 59.5898 1310.39 565.095
662 0 65.1858 12.3033 802 59.3541 1310.26 562.51
663 0 65.1721 11.1397 726 60.157 1310.13 563.635
664 0 70.2324 11.5901 814 59.4165 1310.58 560.534
665 0 73.2264 12.2907 900 58.2544 1310.81 558.684
666 0 74.1905 12.3331 915 58.2361 1310.99 558.707
667 0 74.21 10.9419 812 60.4384 1311.3 558.523
668 1 40.1784 10.9014 438 59.2306 1311.82 573.45
669 0 41.5268 11.0531 459 58.7298 1312.2 572.697
670 0 44.2628 11.4769 508 59.0394 1311.95 573.354
671 0 46.3706 11.6669 541 58.5804 1311.89 570.479
672 0 47.297 11.7555 556 58.1799 1312.42 570.432
673 0 48.3153 12.2115 590 58.5271 1312.31 569.078
674 0 50.3761 12.6052 635 58.1685 1312.46 567.724
675 0 52.2855 12.1831 637 58.8932 1312.3 565.791
676 0 51.2635 11.9188 611 59.9804 1312.77 567.412
677 0 59.4915 14.2541 848 54.9953 1313.04 564.211
678 0 59.3894 14.0261 833 55.7023 1312.93 563.27
679 0 57.2419 12.9451 741 58.8057 1313.22 562.897
680 0 59.144 12.3259 729 59.7106 1312.97 563.657
681 0 59.1968 12.4331 736 60.6073 1313.31 562.625
682 0 63.24 12.919 817 59.8029 1313.22 561.441
683 0 66.2648 12.4199 823 59.7971 1313.21 563.329
684 0 66.2297 13.0153 862 60.3051 1313.98 560.078
685 0 67.2974 13.8638 933 60.0632 1313.87 558.941
686 0 70.2122 12.9037 906 61.319 1313.01 558.064
687 0 72.2413 12.8182 926 62.5032 1313.78 557.32
688 0 74.2121 13.7983 1024 61.627 1312.84 555.712
689 0 77.165 13.0629 1008 63.3254 1313.22 554.288
690 0 79.1411 13.179 1043 63.5446 1313.03 554.335
691 1 43.1406 10.7555 464 64.0237 1312.67 572.642
692 0 43.1471 10.4758 452 64.5442 1311.92 571.303
693 0 46.0945 11.6066 535 63.2916 1311.91 570.123
694 0 47.0901 12.0832 569 63.0756 1311.18 570.19
695 0 46.1827 11.801 545 65.2312 1311.09 570.165
696 0 48.1342 12.9637 624 62.4952 1312.31 568.524
697 0 49.2321 12.0044 591 63.9171 1312.74 568.888
698 0 52.283 12.3558 646 63.1331 1312.63 566.816
699 0 52.2356 12.6734 662 63.6042 1312.59 568.065
700 0 55.2275 12.5119 691 63.89 1312.07 567.012
701 0 56.2277 12.4138 698 64.2092 1311.74 567.351
702 0 57.213 13.1788 754 64.1074 1311.56 564.228
703 0 59.2565 12.8256 760 64.5237 1311.41 563.926
704 0 60.3328 13.0775 789 64.3346 1311.53 564.569
705 0 60.3157 12.9983 784 65.1416 1311.46 563.812
706 0 63.0903 13.3618 843 64.3001 1311.43 562.316
707 0 64.2589 12.9009 829 65.0048 1311.34 561.185
708 0 69.2344 13.5915 941 63.1934 1311.27 559.064
709 0 70.1606 13.7257 963 63.406 1311.06 557.989
710 0 70.163 12.5992 884 67.1912 1310.59 558.045
711 0 74.1119 13.1288 973 66.6937 1310.46 556.396
712 0 74.1119 13.1423 974 169.511 1310.45 556.409
713 0 79.1805 13.0335 1032 66.8266 1311.09 555.41
714 1 43.0859 10.4907 452 66.573 1310.37 574.56
715 0 44.0905 11.0681 488 66.4672 1310.26 574.588
716 0 45.1057 10.0652 454 67.9361 1310.51 573.423
717 0 47.0801 11.2999 532 67.0846 1310.6 571.812
718 0 49.1774 12.4651 613 65.69 1310.91 569.948
719 0 51.0818 12.0395 615 65.9821 1310.69 569.659
720 0 50.2925 12.2881 618 66.61 1311.19 569.201
721 0 54.2796 12.7304 691 65.7135 1311.06 567.919
722 0 55.195 12.7367 703 65.9004 1310.8 568.716
723 0 58.0887 12.5842 731 66.119 1310.6 568.038
724 0 59.126 12.3803 732 65.679 1310.27 565.096
725 0 60.1603 11.968 720 66.7056 1309.92 565.814
726 0 62.1807 12.4154 772 64.1062 1309.8 564.711
727 0 64.2676 12.2146 785 64.3605 1309.64 563.254
728 0 67.0954 12.6536 849 64.4605 1309.28 561.127
729 0 70.2096 13.0894 919 62.8847 1309.43 560.639
730 0 72.1251 13.3379 962 62.8493 1309.36 559.737
731 0 75.155 12.0285 904 64.3308 1309.39 558.688
732 0 76.0794 12.1189 922 64.0889 1309.42 559.297
733 0 79.1116 13.1081 1037 62.6548 1309.35 556.34
734 0 82.237 13.5584 1115 62.3865 1309.59 556.789
735 1 44.1411 9.80944 433 63.4642 1307.98 575.963
736 0 45.0919 11.2659 508 63.2146 1307.61 574.244
737 0 46.1047 11.7125 540 62.1444 1307.41 574.835
738 0 47.214 11.7762 556 63.277 1308.01 574.586
739 0 50.221 12.5844 632 62.6392 1308.06 571.674
740 0 49.2511 11.9591 589 63.4737 1307.91 573.16
741 0 52.1578 12.4622 650 63.8015 1307.79 571.092
742 0 54.2638 13.1027 711 63.3797 1308.5 569.667
743 0 54.0985 12.8469 695 64.3827 1308.2 569.014
744 0 57.1991 13.2345 757 63.8758 1308.42 568.614
745 0 58.3119 13.4792 786 63.5267 1307.75 570.165
746 0 59.1837 12.7738 756 65.1997 1307.99 567.898
747 0 61.1598 13.1459 804 65.046 1308.1 566.067
748 0 65.1686 14.4701 943 62.9035 1308.13 565.29
749 0 65.1763 12.6426 824 65.8738 1308.16 566.098
750 0 67.1546 12.3893 832 66.3041 1307.76 564.264
751 0 70.1682 12.8976 905 65.6365 1307.64 563.828
752 0 73.1965 13.8804 1016 64.3327 1307.59 562.946
753 1 39.0423 10.3477 404 67.0446 1306.4 579.045
754 0 40.1299 10.765 432 65.8009 1306.42 579.606
755 0 41.092 11.0484 454 67.1894 1306.53 578.678
756 0 40.3026 11.3144 456 67.0899 1306.8 578.224
757 0 43.2909 12.5662 544 66.068 1307.24 577.656
758 0 45.286 13.0283 590 65.6525 1307.29 578.339
759 0 46.3915 12.2436 568 67.3961 1307.34 577.725
760 0 48.3822 12.3186 596 67.9094 1307.35 574.857
761 0 50.2556 12.4364 625 67.128 1307.43 574.514
762 0 50.1724 12.3773 621 68.5346 1308.02 573.733
763 0 53.2775 12.8947 687 67.6885 1308.21 572.738
764 0 53.1478 13.9799 743 67.2719 1308.37 571.398
765 0 55.1654 12.7072 701 69.0556 1307.78 571.672
766 0 56.249 12.8714 724 68.6713 1307.88 571.05
767 0 59.2161 12.9188 765 68.2497 1308.29 571.553
768 0 60.2719 13.2068 796 67.6972 1307.98 569.079
769 0 60.1271 13.0723 786 68.3346 1308.12 568.762
770 0 64.2488 14.1481 909 66.4807 1308.08 567.1
771 0 64.1375 13.5334 868 67.7581 1308.42 566.167
772 0 66.1843 13.13 869 68.1358 1308.36 564.932
773 0 69.2535 13.5156 936 67.5353 1307.86 564.249
774 0 72.2285 13.4434 971 66.7085 1307.38 564.811
775 0 74.1683 13.9952 1038 66.6262 1307.99 561.843
776 0 77.2715 13.679 1057 66.8742 1307.9 561.709
777 0 79.2948 12.6868 1006 68.4264 1307.97 560.95
778 0 82.0628 13.9649 1146 66.8534 1308.12 558.126
779 1 46.098 9.47979 437 68.3707 1307.25 579.911
780 0 43.116 10.8776 469 70.4158 1307.54 576.704
781 0 47.1542 12.1728 574 67.6568 1307.41 575.382
782 0 49.065 11.23 551 69.294 1307.67 575.076
783 0 53.1831 12.6356 672 67.9256 1307.95 573.531
784 0 51.1074 12.4444 636 69.5613 1307.99 573.489
785 0 54.113 12.2706 664 70.2545 1308.46 572.712
786 0 55.2456 13.3766 739 69.0812 1308.68 571.019
787 0 56.2339 13.106 737 70.422 1308.56 571.039
788 0 59.1578 13.557 802 69.2195 1308.84 570.88
789 0 59.1855 12.7227 753 70.7118 1308.89 569.039
790 0 62.1339 13.5997 845 69.0651 1308.82 570.858
791 0 62.3248 13.6382 850 70.4412 1309.29 566.873
792 0 66.1607 13.5428 896 70.2734 1309.55 564.182
793 0 68.1946 14.4146 983 69.1353 1309.97 564.527
794 0 69.2226 13.5649 939 71.0298 1309.69 563.454
795 0 74.4625 13.9936 1042 69.9424 1309.59 561.026
796 0 75.345 13.9093 1048 69.9552 1309.65 561.572
797 0 77.3932 12.766 988 71.5314 1310.3 558.705
798 0 79.434 13.9487 1108 63.7428 1310.58 557.656
799 0 84.2786 13.4198 1131 64.3351 1310.03 557.55
800 0 87.2969 13.9868 1221 63.5815 1310.98 555.592
801 0 89.2759 14.4832 1293 61.7672 1311.36 554.951
802 0 93.3673 14.7696 1379 62.7411 1311.48 550.964
803 0 96.5492 13.7546 1328 63.637 1311.28 550.497
804 0 98.5366 14.3703 1416 63.2006 1310.88 549.105
805 0 101.367 14.9457 1515 63.0165 1311 545.795
806 1 54.3846 10.959 596 64.5487 1310.77 571.503
807 0 54.3952 10.4789 570 63.8772 1311.01 571.537
808 0 56.3093 11.3303 638 64.4702 1311.16 569.666
809 0 57.4659 11.2763 648 64.2994 1310.6 569.73
810 0 61.3187 12.3943 760 63.2803 1310.99 568.138
811 0 62.2677 13.5383 843 61.7877 1311.41 568.109
812 0 62.3015 13.1939 822 63.1545 1311.37 567.753
813 0 65.2849 13.0352 851 63.5253 1311.58 566.242
814 0 66.1995 13.2932 880 63.3795 1311.64 564.945
815 0 69.1598 12.782 884 64.0905 1312.36 562.492
816 0 70.1591 13.0275 914 63.9869 1311.87 562.472
817 0 74.1721 13.5631 1006 63.1272 1311.58 562.163
818 0 77.2127 13.1714 1017 63.4444 1311.65 560.792
819 0 77.2979 13.1698 1018 64.2141 1311.74 559.284
820 0 78.2958 13.1042 1026 159.847 1311.74 559.077
821 0 84.3315 13.8264 1166 62.5455 1312.48 555.959
822 0 86.2199 13.9063 1199 63.0784 1311.89 556.2
823 0 88.2184 12.8771 1136 64.3926 1312.25 554.208
824 0 92.6125 13.8642 1284 63.3886 1311.67 551.032
825 0 93.2387 12.4626 1162 65.0783 1311.89 551.935
826 1 53.3761 11.4283 610 65.0689 1311.26 571.589
827 0 56.3767 12.8245 723 63.7248 1311.48 569.055
828 0 56.2359 12.3409 694 65.4424 1312.1 567.35
829 0 60.1961 13.0573 786 63.5369 1311.68 567.635
830 0 59.1298 11.7538 695 66.4144 1312.04 567.004
831 0 63.3896 13.5353 858 63.0874 1311.93 564.693
832 0 62.3683 12.4903 779 65.068 1311.8 566.755
833 0 66.4862 13.0704 869 63.7031 1311.84 564.473
834 0 69.5443 13.2577 922 63.7354 1311.68 561.885
835 0 71.4296 12.7398 910 64.1692 1311.88 561.066
836 0 73.2062 13.4142 982 65.4878 1311.69 558.629
837 0 76.4451 12.8327 981 65.5759 1311.63 560.143
838 0 76.2758 12.5466 957 67.3981 1311.41 557.905
839 0 76.433 11.5788 885 68.2407 1311.39 559.983
840 0 82.4539 12.7587 1052 67.6606 1311.01 554.318
841 0 92.5175 12.0302 1113 66.6918 1310.79 554.889
842 0 91.5965 13.8324 1267 65.341 1310.79 549.903
843 0 94.501 12.8147 1211 63.7754 1310.84 553.047
844 0 96.3668 12.8156 1235 64.2211 1310.51 550.701
845 0 97.3171 13.8619 1349 63.47 1310.58 546.837
846 1 49.2188 10.0368 494 65.2105 1309.99 573.026
847 0 52.1958 12.3573 645 63.4481 1309.95 569.616
848 0 54.2172 11.8044 640 63.25 1309.86 569.325
849 0 54.2316 11.5062 624 64.1474 1309.68 569.091
850 0 58.4222 12.4268 726 62.7383 1309.83 567.307
851 0 58.0915 12.4631 724 62.2624 1309.18 566.605
852 0 60.2292 12.1038 729 62.8505 1309.2 566.667
853 0 63.3907 12.0996 767 63.1995 1309.12 564.687
854 0 62.079 11.7592 730 62.6986 1309.35 561.849
855 0 65.0538 12.7126 827 62.1911 1309.52 563.236
856 0 69.2075 12.7732 884 61.5554 1309.62 561.82
857 0 68.2142 12.3875 845 62.2663 1309.74 559.66
858 0 73.2551 13.7601 1008 60.5883 1309.56 558.32
859 0 73.1029 13.7341 1004 61.1414 1309.52 556.474
860 0 75.1471 12.5354 942 61.6115 1309.53 558.55
861 0 75.1471 12.6019 947 149.234 1310.52 558.502
862 0 82.4757 12.634 1042 61.2917 1309.24 556.082
863 0 84.2327 12.6317 1064 62.1137 1309.02 554.882
864 0 84.2327 12.6554 1066 157.797 1309.03 554.81
865 0 89.1975 11.951 1066 64.5629 1308.5 550.505
866 0 89.1975 11.895 1061 150.232 1307.51 550.631
867 0 99.2598 12.5731 1248 66.2196 1308.65 547.502
868 0 99.2598 12.5428 1245 154.248 1309.66 547.5
869 0 103.244 12.6787 1309 67.6516 1308.66 542.442
870 0 105.238 12.7521 1342 68.5224 1308.6 540.262
871 0 110.346 13.4214 1481 66.9696 1307.83 543.557
872 0 113.529 13.2565 1505 68.4259 1308 540.643
873 0 119.477 13.8018 1649 67.584 1307.96 538.967
874 0 122.362 13.6072 1665 67.9706 1307.8 536.465
875 0 126.466 14.233 1800 67.3883 1307.49 538.024
876 0 129.363 13.7134 1774 67.5879 1307.75 540.197
877 0 133.422 14.2555 1902 68.9516 1307.62 533.858
878 0 134.547 14.2478 1917 72.8148 1307.92 534.933
879 0 138.429 13.4943 1868 82.758 1308.04 528.385
880 0 143.424 13.1847 1891 79.4352 1307.85 527.645
881 0 148.72 13.4548 2001 79.4213 1307.78 526.696
882 0 155.41 15.1019 2347 78.5637 1307.76 524.279
883 0 158.407 14.8037 2345 81.1241 1307.79 519.047
884 0 163.596 13.6006 2225 83.0108 1307.48 524.507
885 0 169.579 14.0406 2381 87.0512 1307.6 517.558
886 0 174.808 13.6836 2392 88.8219 1307.87 511.997
887 0 174.808 13.6779 2391 156.946 1307.88 511.701
888 0 183.844 12.8696 2366 70.3593 1308.17 507.774
889 1 51.0856 12.2539 626 55.0607 1307.98 571.805
890 0 54.0278 11.4386 618 53.5049 1308.32 569.186
891 0 54.0526 12.0993 654 52.9388 1308.83 568.364
892 0 58.0569 12.9011 749 53.7637 1308.05 569.781
893 0 60.2011 12.724 766 53.97 1308.76 569.394
894 0 66.2621 15.816 1048 49.729 1309.67 564.164
895 0 66.2542 14.9425 990 51.6455 1309.53 563.465
896 0 63.1096 14.2768 901 53.2642 1310.02 563.617
897 0 72.2272 14.7451 1065 50.893 1310.17 560.931
898 0 70.1383 14.0579 986 52.7231 1309.5 559.176
899 0 68.0934 12.5416 854 54.418 1309.99 557.652
900 0 68.0934 12.4975 851 156.116 1309.98 557.658
901 0 73.1975 12.5961 922 54.4783 1310.95 557.8
902 0 75.0917 13.2505 995 54.6 1310.89 554.883
903 0 79.1245 14.2686 1129 53.9318 1311.06 552.732
904 0 79.1229 13.6496 1080 55.0676 1311.25 551
905 0 83.1279 12.7033 1056 55.7159 1311.19 552.533
906 0 87.1082 12.8117 1116 55.5394 1311.76 550.073
907 0 89.2035 12.7798 1140 55.7 1311.83 547.011
908 0 89.2035 12.7686 1139 152.97 1311.84 547.015
909 1 51.0406 10.9129 557 54.9102 1311.34 569.075
910 0 50.1072 10.8966 546 55.696 1311.71 567.837
911 0 51.0825 12.1764 622 54.8408 1311.84 566.383
912 0 53.0706 12.3609 656 56.5823 1311.68 567.965
913 0 54.0805 12.352 668 56.3383 1311.31 568.009
914 0 57.3185 12.8231 735 55.6735 1312.08 567.457
915 0 58.1531 12.7422 741 56.5452 1311.99 567.587
916 0 61.1795 12.3734 757 56.2483 1312.42 566.991
917 0 63.2358 13.2362 837 55.2079 1312.56 565.173
918 0 65.216 13.8463 903 54.6966 1312.9 563.872
919 0 66.1412 12.8362 849 55.9658 1312.83 563.995
920 0 68.1311 14.1639 965 54.3088 1313.36 561.832
921 0 69.2705 13.4256 930 55.9032 1313.57 560.91
922 0 71.2234 12.9171 920 56.5359 1313.71 561
923 0 75.1851 13.9256 1047 54.8052 1314.02 558.75
924 0 76.2657 13.689 1044 55.3343 1313.86 559.8
925 0 79.5385 14.0938 1121 54.2623 1313.66 557.432
926 0 81.2768 13.7186 1115 55.0395 1313.84 557.593
927 0 84.1827 13.6133 1146 55.4895 1313.7 554.661
928 0 85.3382 13.4172 1145 56.1258 1314.13 554.1
929 0 88.2971 14.0548 1241 55.2216 1313.67 553.061
930 0 90.4587 13.3321 1206 56.3267 1313.75 551.171
931 1 48.2886 11.0585 534 58.0112 1313.35 571.627
932 0 49.1724 10.9614 539 58.4082 1313.27 572.25
933 0 52.1275 12.4886 651 56.8418 1313.29 569.155
934 0 52.1624 12.0777 630 58.0127 1313.03 568.714
935 0 56.2649 12.7433 717 56.8675 1312.86 568.915
936 0 58.207 11.6996 681 58.1542 1312.97 568.427
937 0 60.3355 12.3311 744 58.1599 1312.91 565.981
938 0 62.1729 12.7548 793 57.7175 1312.16 564.591
939 0 65.1219 12.7914 833 57.9856 1312.15 563.166
940 0 69.2818 11.4604 794 58.9295 1312.16 562.297
941 0 69.1059 12.8932 891 58.3659 1311.98 560.54
942 0 71.3102 12.6069 899 58.9032 1311.88 559.691
943 0 73.391 12.849 943 58.9745 1311.87 558.2
944 0 77.3683 13.2742 1027 58.0604 1311.42 558.387
945 0 80.2823 13.5771 1090 58.0569 1311.45 556.154
946 0 82.335 13.7851 1135 58.4617 1311.44 554.367
947 0 84.2733 13.029 1098 59.9426 1310.88 553.847
948 0 88.2929 12.6964 1121 59.9206 1310.83 553.632
949 1 49.1457 11.0691 544 60.4871 1310.9 571.097
950 0 50.1878 10.2814 516 62.1647 1310.92 569.593
951 0 50.0938 10.7598 539 61.6215 1310.96 569.792
952 0 53.1825 11.2443 598 61.3512 1310.7 570.64
953 0 55.1963 12.2834 678 61.3437 1310.9 567.226
954 0 55.2813 11.5952 641 60.6303 1309.92 564.466
955 0 58.1371 11.8169 687 59.7598 1309.83 567.357
956 0 60.1459 12.453 749 60.2256 1310.01 565.43
957 0 62.1031 11.9318 741 60.7045 1309.69 565.362
958 0 62.2096 12.2811 764 60.2762 1309.98 564.864
959 0 65.1704 11.8152 770 61.3234 1310.2 564.842
960 0 68.1052 13.1268 894 59.1174 1309.73 562.879
961 0 70.2678 13.2208 929 59.085 1310.54 561.589
962 0 73.3209 12.7522 935 58.7947 1310.94 560.503
963 0 74.1832 13.1836 978 58.1759 1310.91 559.534
964 0 77.281 12.7586 986 57.9341 1310.41 558.732
965 1 40.3464 10.2116 412 58.5218 1310.27 575.413
966 0 42.2039 10.3071 435 57.8 1310.62 575.623
967 0 43.1699 10.0765 435 58.1655 1310.78 574.06
968 0 45.1413 11.5415 521 56.3685 1310.31 574.405
969 0 47.221 10.8215 511 56.8395 1309.36 573.759
970 0 49.4062 11.8811 587 56.1278 1309.67 570.855
971 0 51.2486 11.7467 602 56.6196 1310.03 570.857
972 0 52.3294 11.676 611 56.2831 1310.25 570.687
973 0 54.2265 11.8577 643 56.0544 1309.68 571.639
974 0 55.2463 11.3492 627 56.5375 1309.53 569.11
975 0 56.2594 12.0691 679 55.4566 1309.16 569.806
976 0 60.1477 11.5383 694 55.549 1309.43 567.617
977 0 62.2289 12.213 760 54.4526 1309.06 567.593
978 0 61.1572 12.5415 767 54.8983 1308.71 566.08
979 0 65.2255 11.9125 777 54.8867 1308.36 567.299
980 0 65.1846 12.9939 847 54.3896 1308.81 565.43
981 0 68.2015 12.2431 835 54.588 1308.5 563.559
982 0 70.1373 13.2027 926 53.1317 1308.33 565.245
983 0 69.1663 12.6362 874 55.0789 1308.08 561.898
984 0 72.177 12.5525 906 54.5817 1307.8 562.523
985 0 74.1773 13.7643 1021 53.5171 1308.86 559.594
986 0 76.1843 13.1523 1002 54.006 1308.43 560.809
987 0 77.2664 12.3987 958 55.3998 1308.64 559.775
988 0 81.1402 12.9775 1053 54.0779 1308.11 557.477
989 0 82.2481 12.8635 1058 54.3592 1308.14 556.303
990 0 85.1137 13.4408 1144 54.0656 1308.31 555.812
991 1 44.1266 9.60872 424 56.0896 1307.3 576.186
992 0 45.1025 9.97728 450 55.7578 1307.48 575.958
993 0 46.0786 11.6323 536 55.1642 1307.88 574.539
994 0 49.1885 10.9985 541 55.7579 1308.1 575.152
995 0 48.0808 11.7511 565 56.6177 1307.6 574.398
996 0 52.2826 12.2029 638 54.0643 1308.62 574.027
997 0 52.1722 11.9221 622 54.6527 1308.54 573.986
998 0 54.123 11.4184 618 55.1909 1308.66 572.83
999 0 57.2101 13.1795 754 53.6525 1308.75 572.18
1000 0 56.1985 12.7761 718 54.7911 1308.99 571.049
1001 0 59.2116 12.7847 757 54.4663 1308.2 570.59
1002 0 59.1461 12.6297 747 54.8916 1308.4 570.051
1003 0 62.1646 13.1104 815 54.8528 1308.33 569.461
1004 0 64.1423 12.5658 806 54.938 1308.06 567.816
1005 0 66.2269 13.0612 865 54.6312 1307.89 568.136
1006 0 66.2639 12.7219 843 55.4887 1307.71 564.781
1007 0 67.2597 13.4702 906 55.1247 1308.3 565.318
1008 0 72.367 12.9479 937 54.8036 1308.51 564.546
1009 0 74.2008 12.7492 946 55.1406 1308.76 563.076
1010 1 38.2186 10.5969 405 57.0296 1308.48 578.469
1011 0 39.1008 10.1021 395 58.4051 1308.92 578.691
1012 0 43.2309 9.62275 416 58.2668 1309.1 577.603
1013 0 43.2408 10.615 459 57.2331 1308.09 577.353
1014 0 45.092 12.4412 561 55.2745 1308.32 575.127
1015 0 47.1876 11.592 547 55.8995 1308.24 576.007
1016 0 47.2316 11.8988 562 55.4466 1308.22 576.139
1017 0 50.114 11.6734 585 55.0171 1307.68 575.041
1018 0 51.2497 12.3903 635 54.5921 1308.94 574.017
1019 0 53.4032 12.003 641 55.181 1308.8 573.468
1020 0 54.2369 12.1135 657 55.3455 1309.03 573.463
1021 0 56.1765 11.8911 668 55.4027 1308.97 572.654
1022 0 56.1765 11.8911 668 163.96 1308.97 572.66
1023 0 58.196 12.75 742 55.3073 1309.08 570.697
1024 0 60.188 12.9926 782 55.4156 1309.36 570.674
1025 0 61.1675 12.8827 788 55.7551 1309.41 568.883
1026 0 63.2166 12.9238 817 55.1909 1309.47 567.023
1027 0 65.2882 12.8201 837 55.1231 1309.32 568.29
1028 0 66.1886 13.6277 902 54.9989 1309.6 565.284
1029 0 70.2434 13.4959 948 54.5759 1309.32 565.595
1030 0 71.256 12.4621 888 56.2005 1309.75 562.447
1031 0 73.0957 12.381 905 56.5635 1309.89 563.62
1032 0 76.0991 12.2603 933 56.2701 1309.49 562.068
1033 0 80.2657 12.9943 1043 55.349 1310.33 559.938
1034 0 84.1592 12.0486 1014 56.4773 1310.32 558.352
1035 1 44.1131 10.5864 467 56.6445 1309.99 576.677
1036 0 46.1699 10.8296 500 55.98 1310.12 577.172
1037 0 48.0622 11.8388 569 55.4165 1311.19 575.68
1038 0 46.1898 12.0806 558 55.8728 1310.48 575.025
1039 0 52.2465 11.8477 619 55.8498 1310.77 572.721
1040 0 52.3166 12.9787 679 54.9602 1311.76 572.421
1041 0 53.2115 13.1551 700 55.0043 1311.88 572.256
1042 0 55.247 11.8739 656 56.1921 1311.97 571.896
1043 0 57.1493 12.3886 708 55.5508 1311.87 570.374
1044 0 57.1715 12.6811 725 56.1655 1311.88 569.546
1045 0 60.2875 12.938 780 55.2513 1312.2 568.945
1046 0 60.067 12.7691 767 55.3611 1312.56 566.743
1047 0 62.2827 13.3745 833 54.8163 1312.44 564.98
1048 0 64.1176 12.5862 807 55.8265 1312.67 564.991
1049 0 65.0916 12.8895 839 55.8725 1312.74 560.981
1050 0 66.0773 12.8335 848 56.5153 1312.95 561.649
1051 0 68.2844 12.1697 831 57.3923 1312.97 559.89
1052 0 70.2321 13.014 914 56.9748 1313.52 557.789
1053 0 71.3687 12.8067 914 57.1127 1313.28 558.112
1054 0 75.3412 12.9942 979 57.0572 1314.01 555.515
1055 0 74.2606 12.8332 953 58.5215 1313.93 553.983
1056 0 77.1742 13.0484 1007 58.6673 1314.11 554.143
1057 0 80.2555 13.5069 1084 58.4788 1313.64 552.339
1058 0 82.3911 13.181 1086 58.825 1313.48 551.455
1059 0 86.3003 13.1865 1138 58.5905 1313.5 549.788
1060 0 89.392 13.3345 1192 58.5101 1313.6 548.99
1061 0 90.459 13.1441 1189 59.1346 1313.6 547.72
1062 0 92.3316 13.3974 1237 59.2377 1313.15 546.395
1063 1 48.0673 9.79875 471 60.1125 1313.82 569.533
1064 0 53.0747 9.74099 517 60.1721 1313.94 568.865
1065 0 55.1315 11.5905 639 59.6933 1313.04 567.906
1066 0 55.0683 11.7672 648 61.1404 1312.58 569.506
1067 0 56.1165 11.2979 634 58.5237 1313.79 566.197
1068 0 58.1912 12.6136 734 59.4673 1312.54 567.703
1069 0 58.2481 11.9145 694 60.6585 1312.29 567.628
1070 0 62.2228 13.1784 820 58.9707 1312.15 566.573
1071 0 63.2837 12.5309 793 59.7327 1312.22 564.632
1072 0 65.1986 12.3009 802 59.8105 1312.35 565.445
1073 0 68.3761 13.0601 893 58.7536 1312.69 564.716
1074 0 70.2419 12.3146 865 59.0613 1312.69 563.808
1075 0 70.1259 11.9214 836 60.506 1312 561.975
1076 0 73.1069 12.3518 903 59.1517 1311.08 560.408
1077 0 76.1442 12.8703 980 59.3224 1311.24 559.948
1078 0 79.2328 13.7191 1087 58.3937 1310.83 557.085
1079 0 79.3491 12.5269 994 60.1187 1310.83 557.404
1080 0 84.203 12.6361 1064 59.5724 1310.66 555.38
1081 1 46.0649 10.8977 502 59.7331 1310.42 572.349
1082 0 48.1683 11.0446 532 59.1447 1310.64 573.18
1083 0 49.1082 10.2427 503 59.173 1310.07 573.151
1084 0 49.0733 11.2281 551 59.274 1310.6 571.367
1085 0 51.2442 10.8305 555 59.3333 1310.88 571.216
1086 0 53.2034 12.0293 640 58.2203 1311.42 569.544
1087 0 53.3146 12.4544 664 56.5407 1311.19 569.869
1088 0 54.1628 11.8162 640 57.3891 1311.28 569.58
1089 0 58.1312 12.1277 705 56.3418 1311.1 568.352
1090 0 57.2459 11.634 666 57.6862 1311.17 567.431
1091 0 60.248 12.0502 726 56.7135 1311.13 567.836
1092 0 62.2309 11.9394 743 56.751 1311.56 565.713
1093 0 65.2878 12.2075 797 56.7139 1311.25 565.923
1094 0 65.2652 11.6908 763 57.9135 1311.36 564.974
1095 0 67.2352 12.7909 860 56.5942 1311.08 564.788
1096 0 70.468 12.9278 911 56.3666 1311.27 563.446
1097 0 71.3244 12.366 882 57.4626 1311.32 561.139
1098 0 72.3008 12.1714 880 58.0398 1311.4 561.092
1099 0 75.3047 12.8943 971 57.2554 1311.24 559.909
1100 0 77.2598 13.1375 1015 57.3665 1310.35 557.247
1101 0 80.2832 12.5929 1011 58.1256 1310.14 557.833
1102 0 81.3559 12.7465 1037 58.4127 1310.44 554.822
1103 0 83.2732 12.1167 1009 59.1358 1310.34 553.588
1104 0 87.348 12.5933 1100 58.6845 1310.08 553.463
1105 1 46.2022 10.1294 468 59.4744 1310.37 573.085
1106 0 49.5857 10.6079 526 58.3327 1309.96 571.627
1107 0 49.2023 11.219 552 57.029 1310.07 567.75
1108 0 50.2355 11.9238 599 55.9816 1309.97 566.913
1109 0 54.3346 10.693 581 57.2083 1309.65 566.485
1110 0 54.1544 12.3536 669 55.5994 1309.55 565.003
1111 0 58.2633 12.7868 745 55.1262 1309.4 565.698
1112 0 56.1321 12.3637 694 57.0144 1309.67 564.425
1113 0 61.185 12.6175 772 57.7267 1309.69 565.102
1114 0 63.4484 12.6087 800 57.5988 1309.87 564.811
1115 0 65.254 12.8268 837 57.2473 1310.08 565.579
1116 0 65.4239 13.1603 861 57.6945 1309.9 565.042
1117 0 66.693 12.745 850 58.5047 1309.81 564.761
1118 0 70.3052 13.6263 958 57.6587 1309.75 564.822
1119 0 71.2663 12.4463 887 58.4408 1309.83 562.932
1120 0 74.4013 12.5267 932 58.4077 1309.53 561.326
1121 0 77.4433 13.0031 1007 58.0079 1309.74 560.526
1122 0 77.4795 12.5453 972 59.2685 1309.41 559.101
1123 0 81.3967 14.1038 1148 56.5026 1308.83 557.897
1124 0 82.3543 13.1626 1084 57.9207 1309.12 557.819
1125 0 86.368 13.8825 1199 57.2527 1309.62 555.043
1126 0 89.4802 13.8913 1243 57.4553 1309.74 554.655
1127 0 92.3728 13.4672 1244 57.3794 1309.17 553.199
1128 0 94.3201 13.1149 1237 58.0356 1309.36 551.247
1129 1 50.1694 10.8233 543 59.9042 1308.93 573.821
1130 0 52.3248 11.6006 607 59.8105 1308.94 572.366
1131 0 52.3248 11.5624 605 161.155 1308.94 572.39
1132 0 54.6924 12.5794 688 58.4375 1308.97 571.66
1133 0 56.337 12.7447 718 58.4457 1309.24 570.962
1134 0 58.4206 12.8893 753 58.6959 1309.03 570.297
1135 0 59.3617 12.4828 741 58.8785 1308.96 570.101
1136 0 60.5324 12.9517 784 58.7781 1309.1 567.693
1137 0 63.684 13.2843 846 57.9113 1308.94 568.902
1138 0 64.5906 13.6552 882 57.602 1308.92 566.815
1139 0 67.5222 12.6033 851 58.9636 1308.91 565.703
1140 0 70.4761 13.5081 952 57.6796 1309.39 563.475
1141 0 70.418 12.4116 874 60.8753 1310.07 563.815
1142 0 73.6311 13.8257 1018 58.6984 1309.69 562.332
1143 0 77.4976 13.4456 1042 58.6852 1309.9 560.297
1144 0 79.4351 13.1932 1048 59.2834 1310.09 558.449
1145 0 82.4848 12.8145 1057 59.5402 1310.34 557.487
1146 0 84.471 12.892 1089 59.6814 1310.4 557.063
1147 0 88.5917 13.8049 1223 57.785 1310.65 555.451
1148 0 89.6085 13.6929 1227 58.1711 1310.29 553.951
1149 0 95.6072 12.771 1221 58.3595 1311.08 551.482
1150 1 49.3125 11.8834 586 58.5239 1310.82 573.672
1151 0 50.3258 11.6839 588 59.284 1311.27 572.577
1152 0 52.4701 12.9979 682 58.0059 1311.74 570.979
1153 0 53.2137 12.5344 667 58.3478 1311.45 571.514
1154 0 53.2814 12.7437 679 57.919 1311.63 570.73
1155 0 55.4892 12.9935 721 57.8155 1312.01 569.151
1156 0 56.4974 13.3811 756 57.4444 1312.37 569.616
1157 0 59.1869 13.0603 773 57.5408 1312.82 568.554
1158 0 58.4147 12.1031 707 58.5262 1313.21 566.686
1159 0 61.2194 13.2801 813 56.8942 1313.54 565.432
1160 0 63.2276 13.3328 843 57.1281 1313.44 565.611
1161 0 66.2502 13.3585 885 57.1458 1313.41 562.435
1162 0 68.4567 13.2785 909 57.3641 1313.43 560.108
1163 0 71.5946 13.2412 948 56.961 1313.79 561.015
1164 0 71.2699 13.2454 944 57.7669 1313.92 559.371
1165 0 76.4713 13.2337 1012 57.4209 1313.83 557.826
1166 0 79.4085 13.0591 1037 57.9257 1312.66 556.622
1167 0 81.2264 13.4932 1096 57.3659 1313.96 556.65
1168 1 42.3288 11.5052 487 58.4415 1314.1 575.17
1169 0 43.3264 12.302 533 58.6754 1313.97 573.67
1170 0 47.3222 11.9817 567 58.5591 1313.86 573.522
1171 0 46.3428 13.4865 625 57.0464 1314.06 570.995
1172 0 48.4976 12.4748 605 57.8116 1314.51 571.445
1173 0 48.4976 12.413 602 174.822 1314.49 571.508
1174 0 52.1754 11.998 626 58.1326 1314.11 568.519
1175 0 54.3589 13.0061 707 56.867 1314.86 568.669
1176 0 53.474 13.0344 697 57.6069 1314.91 567.914
1177 0 55.1882 13.608 751 57.2104 1314.27 567.213
1178 0 65.1965 16.4273 1071 50.521 1315.06 562.556
1179 0 65.1965 16.3966 1069 144.576 1315.06 562.574
1180 0 64.2395 15.2087 977 53.7881 1315.12 562.327
1181 0 63.129 13.6863 864 57.2512 1314.91 563.353
1182 0 65.1616 14.0267 914 56.6696 1314.54 562.851
1183 0 66.303 14.0114 929 56.8934 1314.71 561.582
1184 0 70.2569 14.2619 1002 56.4411 1314.11 560.703
1185 0 70.2475 13.1962 927 58.6796 1313.71 558.517
1186 0 73.3261 14.1832 1040 57.0808 1314.07 557.538
1187 0 74.2343 13.9558 1036 57.6786 1314 557.572
1188 0 78.2489 14.1088 1104 57.0353 1314.11 556.384
1189 0 81.1915 13.4743 1094 57.5411 1313.87 556.786
1190 0 83.1897 14.2085 1182 57.2766 1313.92 554.074
1191 0 86.3395 14.2924 1234 56.731 1314.2 552.527
1192 0 87.2909 13.4378 1173 58.0264 1313.92 551.58
1193 0 91.3262 14.0376 1282 56.7418 1313.66 549.414
1194 0 93.1982 13.702 1277 57.343 1313.47 547.708
1195 1 54.1493 11.7268 635 59.5874 1313.68 566.383
1196 0 56.0896 12.0343 675 59.0341 1313.22 566.154
1197 0 57.3075 12.7906 733 58.985 1312.71 563.426
1198 0 60.1361 13.1369 790 58.4051 1312.68 562.9
1199 0 62.1177 12.7822 794 58.8136 1312.58 561.807
1200 0 64.1367 12.8787 826 58.1186 1312.13 561.648
1201 0 64.1367 12.8164 822 154.745 1311.11 561.69
1202 0 67.112 13.0677 877 59.0091 1312.74 559.021
1203 0 71.1375 13.3966 953 57.9591 1312.45 558.679
1204 0 75.1036 13.994 1051 57.3787 1312.5 557.722
1205 0 75.0564 12.9902 975 59.4349 1312.37 556.016
1206 0 79.105 13.855 1096 58.708 1312.9 553.215
1207 0 82.2618 13.9433 1147 58.3348 1312.81 553.549
1208 0 84.2411 13.4732 1135 59.3877 1312.49 552.518
1209 0 85.2792 13.9073 1186 59.1417 1312.3 549.98
1210 0 90.3276 14.2592 1288 58.2034 1312.53 547.759
1211 0 94.3119 14.2082 1340 57.7216 1311.8 547.048
1212 0 97.3113 13.4722 1311 58.8726 1311.9 544.044
1213 0 103.377 14.2681 1475 57.2793 1311.91 544.561
1214 1 52.183 11.4788 599 58.7529 1312.04 566.379
1215 0 56.1693 12.3021 691 58.2562 1311.85 564.434
1216 0 59.3437 12.0147 713 57.8093 1311.38 563.373
1217 0 60.3457 12.5941 760 58.2263 1311.29 561.763
1218 0 63.0481 13.1963 832 57.4255 1310.45 562.841
1219 0 64.1672 12.483 801 58.7615 1309.89 564.976
1220 0 68.2592 12.8481 877 57.4584 1310.1 565.003
1221 0 70.2295 13.2565 931 57.1096 1310.33 562.715
1222 0 73.0852 13.8468 1012 56.254 1310.29 560.381
1223 0 74.1376 13.3401 989 57.0273 1309.35 560.292
1224 0 78.1063 13.5584 1059 56.5024 1309.13 559.611
1225 0 77.1872 12.9555 1000 58.26 1307.24 559.65
1226 0 81.1153 14.1157 1145 56.8114 1309.32 557.193
1227 0 83.0963 13.8153 1148 56.8711 1309.3 557.007
1228 0 85.1578 13.9741 1190 56.8824 1309.39 554.587
1229 0 89.1456 13.865 1236 57.2063 1308.9 553.445
1230 0 89.1673 13.1214 1170 58.2701 1309.43 552.803
1231 0 94.1933 13.5891 1280 57.5266 1309.64 551.395
1232 0 96.1501 13.6349 1311 57.4889 1309.46 551.46
1233 0 98.3749 13.9975 1377 57.6529 1309.27 549.198
1234 0 100.167 13.6871 1371 58.2407 1309.68 547.316
1235 0 105.23 14.036 1477 57.8125 1309.48 546.093
1236 0 106.103 13.7885 1463 58.3889 1309.71 544.233
1237 0 110.39 14.5394 1605 57.2181 1309.43 544.564
1238 0 113.123 14.0997 1595 57.9078 1309.39 541.376
1239 0 115.139 13.3752 1540 58.9682 1309.17 540.875
1240 0 119.441 13.2534 1583 59.0764 1309.23 539.821
1241 0 125.198 14.3213 1793 57.5717 1309.18 537.971
1242 0 129.318 14.8471 1920 56.6516 1308.71 533.897
1243 1 73.3013 11.6369 853 57.6659 1308.67 565.089
1244 0 75.1785 12.2508 921 57.5635 1308.84 563.511
1245 0 77.1157 12.8378 990 57.0414 1308.74 561.043
1246 0 79.1951 12.7154 1007 57.5809 1308.69 559.189
1247 0 83.1948 13.4864 1122 56.7094 1308.72 556.576
1248 0 86.1708 13.2179 1139 57.2555 1309.02 558.018
1249 0 87.2131 12.6931 1107 58.9142 1309.07 554.773
1250 0 90.2304 13.1774 1189 57.7553 1309.17 554.976
1251 0 96.2507 13.9428 1342 56.5894 1309.68 551.261
1252 0 98.3549 14.285 1405 56.3117 1309.45 550.688
1253 0 101.284 14.1384 1432 56.7081 1309.41 547.147
1254 0 104.257 13.8887 1448 57.7044 1309.54 545.272
1255 1 55.2643 11.1826 618 58.0049 1308.61 570.495
1256 0 57.2154 11.448 655 57.6473 1308.75 569.74
1257 0 58.1438 12.2111 710 56.9704 1309.05 569.115
1258 0 58.161 11.812 687 58.0306 1308.98 568.967
1259 0 61.1846 12.6666 775 56.8968 1309.14 567.134
1260 0 61.189 12.3225 754 57.9257 1309.1 565.614
1261 0 64.1859 12.5729 807 57.0112 1309.38 566.574
1262 0 65.1894 13.3918 873 56.6701 1309.7 564.009
1263 0 67.1477 13.1054 880 56.7875 1310.04 565.327
1264 0 67.2546 12.8467 864 57.8021 1310.59 563.681
1265 0 71.2178 13.564 966 56.8375 1310.69 562.858
1266 0 72.2812 13.2538 958 57.6701 1311.22 560.762
1267 0 75.1644 13.0913 984 57.6524 1311.39 560.633
1268 0 76.197 13.347 1017 57.9086 1311.71 559.198
1269 0 79.1647 13.8067 1093 57.2507 1311.78 558.381
1270 0 83.2126 13.7479 1144 57.2876 1311.86 557.712
1271 0 84.2699 13.3974 1129 58.5624 1312.16 555.265
1272 0 89.2755 14.4497 1290 56.7628 1312.37 553.172
1273 0 89.2999 14.3449 1281 57.6472 1313 551.966
1274 0 93.247 13.5661 1265 57.9755 1313.07 550.47
1275 0 96.2852 13.8339 1332 58.0233 1313.91 548.158
1276 0 96.2377 13.6329 1312 58.8194 1313.52 547.002
1277 1 54.1992 10.6275 576 59.2899 1313.79 569.792
1278 0 52.1884 11.2285 586 59.3601 1314.23 567.966
1279 0 56.154 12.1274 681 58.3069 1314.23 567.74
1280 0 57.1649 12.9275 739 59.115 1314.14 567.501
1281 0 60.3641 13.3357 805 58.1267 1314.49 566.371
1282 0 62.2101 12.9239 804 58.4876 1314.39 566.25
1283 0 63.2978 13.397 848 58.158 1314.79 565.325
1284 0 65.3227 13.0889 855 58.8456 1315.17 563.336
1285 0 70.1139 12.6509 887 58.7249 1314.52 563.068
1286 0 71.2825 13.1729 939 58.099 1314.7 561.816
1287 0 73.3407 12.8169 940 57.8213 1314.82 561.272
1288 0 75.385 12.7479 961 58.3267 1314.73 559.415
1289 0 77.2721 13.7178 1060 57.9934 1314.54 557.605
1290 1 44.1106 11.3578 501 58.8563 1313.66 574.339
1291 0 44.1248 10.8103 477 60.0734 1314 575.09
1292 0 44.0861 10.3888 458 60.8362 1313.97 575.083
1293 0 46.206 11.6219 537 59.5549 1314.47 573.67
1294 0 48.101 12.6401 608 59.028 1314.64 571.303
1295 0 49.1539 13.1627 647 57.8717 1314.21 571.711
1296 0 50.2096 12.4478 625 58.7456 1313.65 572.517
1297 0 52.1682 12.9581 676 58.8905 1314.09 570.111
1298 0 54.3504 13.229 719 57.9722 1314.11 569.672
1299 0 56.0866 12.7838 717 58.4603 1314.69 568.667
1300 0 56.1179 13.2756 745 58.7906 1314.84 567.491
1301 0 57.0544 12.4092 708 60.5805 1314.19 567.096
1302 0 61.1715 13.127 803 59.1283 1314.29 566.085
1303 0 63.1316 13.1471 830 58.759 1314.32 566.3
1304 0 64.1817 13.5085 867 58.4867 1314.63 565.39
1305 0 66.1485 13.7569 910 58.5352 1314.69 564.652
1306 0 67.2591 13.2473 891 60.1156 1314.37 563.838
1307 0 68.2035 13.6503 931 60.0011 1314.98 562.344
1308 0 70.2495 13.2385 930 60.5559 1313.85 562.294
1309 0 72.1788 13.2587 957 61.0167 1314.53 560.394
1310 0 73.3196 13.2297 970 61.1711 1314.38 561.257
1311 0 76.2143 13.7376 1047 60.6934 1314.31 558.715
1312 0 78.2912 14.0501 1100 60.7818 1314.79 557.81
1313 0 78.2818 13.3492 1045 62.6785 1314.02 556.64
1314 0 82.1818 14.0055 1151 61.3006 1314.07 556.291
1315 0 85.3151 13.5732 1158 61.12 1313.67 556.598
1316 0 86.1671 13.764 1186 62.2681 1313.22 555.438
1317 0 90.37 14.2304 1286 61.3981 1313.3 554.152
1318 0 92.369 14.0848 1301 61.7341 1313.34 550.337
1319 0 94.3259 13.941 1315 61.7095 1312.95 551.332
1320 1 56.2741 11.906 670 63.9761 1312.56 568.037
1321 0 55.249 12.688 701 63.3039 1312.57 569.7
1322 0 59.1575 12.323 729 62.9602 1312.14 567.488
1323 0 58.2747 12.2352 713 64.129 1312.06 565.721
1324 0 62.2524 13.365 832 61.8546 1311.65 565.707
1325 0 65.2422 13.5495 884 61.8122 1311.54 565.31
1326 0 66.2876 13.4112 889 62.3105 1311.17 563.854
1327 0 68.4231 13.5042 924 62.0855 1310.98 561.718
1328 0 70.2547 13.2518 931 62.4511 1311.31 560.336
1329 0 72.2302 13.8031 997 61.9519 1311.02 560.12
1330 0 75.3035 13.3991 1009 62.0723 1311.47 559.066
1331 0 77.311 13.4263 1038 62.0944 1311.2 556.879
1332 0 81.4793 13.4635 1097 60.1832 1311.2 555.993
1333 0 81.4338 13.25 1079 61.5246 1311.02 555.321
1334 0 84.5873 13.6545 1155 63.6433 1311.62 554.591
1335 0 87.3481 14.0701 1229 62.5566 1311.29 552.478
1336 0 90.3451 14.2011 1283 62.2034 1311.09 551.367
1337 1 47.2176 10.8858 514 65.7938 1310.65 571.835
1338 0 53.317 11.8911 634 63.6877 1310.98 569.502
1339 0 54.3607 11.2029 609 64.3498 1311.12 569.243
1340 0 56.2851 12.3834 697 62.3673 1311.78 568.471
1341 0 59.1882 12.9249 765 61.1124 1312.36 568.099
1342 0 58.1832 12.9075 751 61.1438 1312.1 564.53
1343 0 59.1668 12.7436 754 61.2905 1311.51 565.324
1344 0 62.247 13.0769 814 60.5799 1311.41 564.44
1345 0 65.3304 13.5618 886 59.3894 1311.47 563.106
1346 0 66.1477 13.7571 910 59.744 1311.35 560.678
1347 0 70.3619 13.2458 932 59.5182 1311.45 563.181
1348 0 71.1321 13.2711 944 60.4672 1311.24 560.648
1349 0 73.128 13.2507 969 60.5676 1310.76 558.582
1350 0 76.1077 12.8108 975 61.1415 1310.45 557.717
1351 0 78.3049 13.4347 1052 60.5865 1310.49 557.069
1352 0 81.2646 13.1669 1070 61.4879 1310.41 555.623
1353 0 82.2635 13.8579 1140 61.0588 1309.99 554.944
1354 0 84.1368 13.1096 1103 62.6065 1309.71 552.314
1355 0 88.163 13.5091 1191 62.0126 1309.3 551.233
1356 0 89.1141 12.6467 1127 64.1216 1309.06 550.713
1357 0 94.311 13.148 1240 63.2379 1308.97 548.868
1358 0 95.2641 12.9325 1232 64.0731 1308.54 546.611
1359 0 99.325 13.6723 1358 62.9102 1308.76 546.194
1360 1 50.4868 10.2205 516 65.8353 1308.53 567.128
1361 0 55.1347 10.9731 605 63.9702 1308.37 567.228
1362 0 56.1212 11.0297 619 65.3861 1308.49 567.687
1363 0 58.1206 11.717 681 65.1248 1308.37 565.137
1364 0 58.1206 11.631 676 170.493 1308.37 565.034
1365 0 60.31 12.1373 732 65.2049 1308.55 563.896
1366 0 62.2161 12.5691 782 63.4194 1308.28 564.219
1367 0 65.2411 13.4884 880 62.083 1308.66 563.702
1368 0 67.351 12.6204 850 63.9624 1308.12 562.162
1369 0 69.2441 13.0841 906 63.798 1309.19 561.599
1370 0 72.2212 12.3094 889 65.3633 1309.52 559.994
1371 0 73.2764 13.0738 958 64.3549 1309.29 559.148
1372 0 76.274 13.6613 1042 63.7457 1309.27 557.386
1373 0 76.2961 13.1986 1007 65.2771 1309.44 557.436
1374 0 81.316 13.6259 1108 64.0587 1309.26 555.425
1375 0 83.3493 13.8813 1157 64.5419 1309.82 554.228
1376 0 85.188 13.5583 1155 65.1126 1309.14 552.755
1377 0 87.2501 13.5931 1186 65.473 1309.31 552.321
1378 0 92.4527 13.6827 1265 64.747 1309.43 550.024
1379 0 95.529 13.9329 1331 64.6769 1309.64 547.569
1380 0 96.505 13.8749 1339 64.6594 1309.82 548.027
1381 0 100.468 13.2281 1329 65.8616 1309.67 546.508
1382 0 104.387 14.4942 1513 61.1388 1309.66 543.43
1383 0 105.391 14.2042 1497 61.5772 1309.98 542.729
1384 0 110.343 14.5456 1605 63.0592 1309.93 541.109
1385 0 114.596 14.6515 1679 63.6724 1309.96 537.842
1386 0 116.402 14.1922 1652 63.6622 1309.8 536.927
1387 0 126.479 12.6661 1602 65.0312 1309.55 537.2
1388 0 123.583 13.7964 1705 64.2921 1309.3 533.918
1389 0 128.56 14.2657 1834 63.4607 1309.49 531.107
1390 0 130.653 13.9606 1824 64.188 1309.28 529.04
1391 0 135.615 14.497 1966 62.94 1309.51 528.765
1392 0 140.744 14.5229 2044 62.5171 1310.1 527.235
1393 0 145.434 14.8933 2166 62.0605 1309.71 520.027
1394 0 149.718 14.0798 2108 62.6608 1309.94 519.032
1395 0 155.523 14.9432 2324 61.5822 1309.97 517.871
1396 0 159.631 14.3205 2286 62.0219 1310.39 515.576
1397 0 165.876 14.4807 2402 61.1957 1310.3 512.555
1398 0 169.768 14.1841 2408 61.7915 1310.64 508.835
1399 0 177.764 14.9186 2652 60.48 1310.88 505.698
1400 0 186.527 17.0216 3175 56.7739 1310.79 498.074
1401 0 188.561 14.5948 2752 60.4259 1310.9 500.936
1402 0 194.912 15.0324 2930 59.6341 1311.26 497.701
1403 0 193.718 14.1752 2746 60.7382 1311.32 498.558
1404 0 193.914 12.8511 2492 61.8511 1311.91 503.47
1405 1 153.555 12.5688 1930 62.0617 1312.3 518.835
1406 0 159.732 13.2785 2121 61.3234 1312.86 514.494
1407 0 162.599 13.9238 2264 61.2372 1313.2 509.932
1408 0 170.544 14.2368 2428 60.054 1313.23 508.451
1409 0 173.804 13.9064 2417 60.8192 1313.26 505.564
1410 0 179.59 13.18 2367 61.6992 1313.72 501.497
1411 0 186.779 14.6162 2730 59.4956 1313.57 500.3
1412 0 191.778 14.4698 2775 59.871 1314.24 497.181
1413 0 197.7 14.608 2888 59.2275 1313.81 492.38
1414 0 204.676 14.3642 2940 59.3197 1313.71 488.834
1415 0 212.599 14.1722 3013 59.4447 1313.62 486.924
1416 0 219.68 14.2571 3132 59.5089 1314.11 482.257
1417 0 225.734 14.1583 3196 59.5666 1314.46 478.89
1418 0 231.651 15.8903 3681 57.3907 1313.93 472.176
1419 0 239.955 15.8238 3797 57.2541 1314.08 468.856
1420 0 249.825 17.3722 4340 55.1028 1313.9 465.968
1421 0 255.957 15.1901 3888 57.9257 1313.62 459.778
1422 0 266.301 15.6027 4155 57.6313 1313.98 454.608
1423 1 71.8363 10.7049 769 55.4135 1313.7 554.213
1424 0 75.6491 10.5487 798 55.3784 1313.63 553.198
1425 0 77.8405 11.4079 888 54.1734 1313.82 552.291
1426 0 80.8282 11.8276 956 54.5209 1313.74 550.663
1427 0 81.0332 11.2053 908 55.2445 1313.69 551.163
1428 0 85.0911 11.7521 1000 55.115 1314.35 548.81
1429 0 90.1621 11.8786 1071 54.5714 1314.32 546.387
1430 0 91.088 11.5932 1056 54.7784 1314.13 546.863
1431 0 94.8774 12.1631 1154 54.3059 1313.75 543.635
1432 0 96.9145 13.0527 1265 53.2585 1313.7 542.279
1433 0 99.9562 12.2854 1228 54.0635 1313.67 539.964
1434 0 102.963 11.6159 1196 55.8662 1313.27 539.389
1435 0 106.949 12.4919 1336 54.6564 1313.33 538.695
1436 0 109.986 11.6742 1284 56.3653 1313.52 537.151
1437 0 113.803 12.425 1414 55.698 1313.51 533.924
1438 0 117.826 12.1535 1432 56.0712 1313.44 531.725
1439 1 73.001 9.6848 707 55.3437 1313.15 555.696
1440 0 76.0342 8.87758 675 54.917 1312.86 556.708
1441 0 75.7335 10.9199 827 53.9589 1313.16 554.704
1442 0 78.8652 10.4609 825 54.4412 1312.89 550.736
1443 0 80.9771 11.3242 917 53.1581 1312.6 551.388
1444 0 83.7245 11.8364 991 52.67 1312.1 550.26
1445 0 85.7103 11.3289 971 53.2647 1312.12 547.373
1446 0 89.7846 13.1092 1177 51.124 1312.43 547.056
1447 0 89.7961 12.4727 1120 52.2714 1311.98 545.869
1448 0 92.7048 11.844 1098 52.8361 1312.86 544.813
1449 0 97.6958 13.6546 1334 50.4603 1312.99 544.501
1450 0 99.8205 13.0935 1307 51.2907 1312.57 543.088
1451 0 99.9815 13.6325 1363 51.0132 1312.29 542.716
1452 0 101.85 13.1174 1336 51.9117 1312.32 541.597
1453 0 104.739 13.0897 1371 51.9905 1312.21 540.242
1454 0 107.491 13.8337 1487 51.2999 1312.36 539.923
1455 0 110.502 13.0948 1447 52.2191 1312.08 537.434
1456 0 113.569 13.0229 1479 52.9331 1311.78 535.902
1457 0 117.553 13.3556 1570 52.8592 1312.12 534.827
1458 0 118.391 13.0753 1548 53.7377 1311.95 532.38
1459 0 123.526 14.6446 1809 51.8867 1312.21 532.331
1460 1 71.4703 12.0609 862 53.3005 1312.2 558.267
1461 0 73.686 12.5397 924 53.197 1311.77 554.944
1462 0 75.3867 12.6017 950 53.1789 1311.62 555.152
1463 0 78.2541 12.9578 1014 53.1489 1311.21 553.934
1464 0 77.1663 12.7517 984 52.9573 1310.29 553.738
1465 0 79.3071 12.5966 999 53.5315 1310.32 552.094
1466 0 80.2548 12.4852 1002 53.8673 1309.2 550.307
1467 0 83.1338 13.0031 1081 53.6346 1309.4 550.084
1468 0 86.2428 13.4156 1157 52.5393 1309.4 550.171
1469 0 91.4041 13.7302 1255 52.0295 1309.6 548.484
1470 0 93.336 13.3603 1247 53.0128 1310.09 546.741
1471 0 93.4036 12.7939 1195 53.99 1310.11 545.798
1472 0 99.1922 13.5495 1344 52.5811 1309.75 544.554
1473 0 100.0044 8.35079 142 43.0775 1310.15 585.479
1474 0 106.0247 6.86439 110 43.1636 1312.2 584.264
1475 0 108.0755 5.72299 92 44.4348 1311.04 583.326
1476 0 115.1387 7.12572 115 43.8261 1311.17 583.626
1477 0 118.0981 6.62335 100 43.14 1312.38 584.77
1478 0 120.372 13.1509 1583 53.1194 1309.92 532.308
1479 0 123.419 13.5068 1667 52.8578 1309.4 531.963
1480 0 127.285 14.1807 1805 52.2161 1309.64 528.741
1481 1 75.2085 11.0759 833 51.2185 1309.8 558.935
1482 0 74.3522 11.2303 835 51.7784 1309.75 557.867
1483 0 76.1046 10.8272 824 51.7585 1309.45 559.833
1484 0 79.2996 12.7491 1011 51.3749 1308.98 558.99
1485 0 81.2737 13.7191 1115 50.8987 1309.5 558.881
1486 0 82.1273 11.9327 980 53.1714 1309.41 556.556
1487 0 85.2398 11.6964 997 53.5145 1309.7 555.91
1488 0 88.2001 12.585 1110 52.8532 1309.44 552.309
1489 0 91.2607 12.404 1132 52.8375 1309.52 554.074
1490 0 94.3102 12.5861 1187 52.492 1310.11 552.622
1491 0 96.4078 13.0176 1255 52.3339 1310.29 550.05
1492 0 101.277 12.2239 1238 52.5703 1310.07 549.817
1493 0 105.353 13.4216 1414 51.8465 1310.12 545.081
1494 0 108.481 13.0162 1412 51.5673 1309.64 545.958
1495 0 109.249 12.4944 1365 52.5392 1309.92 544.495
1496 0 113.398 13.3601 1515 52.196 1310.28 540.679
1497 0 116.32 13.2737 1544 52.2163 1310.42 540.633
1498 0 120.41 13.3876 1612 52.2742 1310.04 537.913
1499 0 123.402 13.3061 1642 53.1157 1310.39 536.94
1500 0 128.355 13.86 1779 52.7521 1310.85 534.473
1501 0 132.686 13.9653 1853 52.8138 1310.74 532.582
1502 0 135.436 14.2355 1928 52.9123 1310.77 530.829
1503 0 138.534 14.2059 1968 53.3196 1310.76 529.348
1504 1 76.3099 10.667 814 54.5725 1310.57 560.268
1505 0 80.3975 10.5849 851 54.1751 1311.06 558.57
1506 0 81.3992 11.9166 970 53.3784 1311.09 558.644
1507 0 85.3693 11.9481 1020 53.5824 1311.39 555.376
1508 0 85.2923 11.7361 1001 54.3337 1311.64 553.879
1509 0 90.2231 12.3583 1115 53.1767 1311.26 553.922
1510 0 90.341 12.5414 1133 54.0318 1311.15 551.058
1511 0 93.3142 12.1846 1137 54.8549 1311.63 551.42
1512 0 98.3141 11.8803 1168 55.1122 1312.21 551.337
1513 0 101.278 12.3028 1246 54.7745 1312.23 549.26
1514 0 102.382 12.385 1268 55.3021 1312.62 547.427
1515 0 105.598 12.7276 1344 55.5223 1312.85 544.322
1516 0 108.43 13.0684 1417 54.8603 1313.23 544.554
1517 0 110.59 13.1025 1449 55.0173 1313.77 542.4
1518 0 114.424 13.3976 1533 54.8611 1314.26 538.309
1519 0 117.446 13.6318 1601 54.7889 1314.66 536.591
1520 0 119.449 13.1605 1572 55.4198 1314.43 537.087
1521 0 119.449 13.1688 1573 169.877 1315.44 537.08
1522 0 126.364 13.0891 1654 55.6173 1314.69 533.811
1523 0 130.663 13.3627 1746 55.3837 1314.68 530.408
1524 0 135.494 13.9416 1889 54.5844 1315.09 528.417
1525 1 74.4224 10.8569 808 54.6931 1314.89 559.863
1526 0 76.3289 10.4548 798 55.391 1315.31 557.535
1527 0 78.1947 11.7143 916 53.3286 1314.18 552.969
1528 0 82.1126 12.6655 1040 52.5471 1314.53 550.519
1529 0 86.3654 12.7134 1098 51.9435 1314.91 553.934
1530 0 87.2118 12.6818 1106 52.4828 1315.55 552.364
1531 0 91.2361 12.8787 1175 52.046 1315.03 551.036
1532 0 93.2728 12.6939 1184 53.3758 1315.01 548.856
1533 0 96.1651 12.9049 1241 53.1128 1314.63 548.301
1534 0 98.1515 12.878 1264 53.5277 1314.38 546.771
1535 0 101.219 11.9148 1206 53.9569 1314.62 545.418
1536 0 102.167 12.7242 1300 53.3954 1314.43 543.442
1537 0 107.256 12.5588 1347 53.6325 1314.02 540.691
1538 0 109.251 13.2448 1447 52.8321 1313.82 540.811
1539 0 115.168 13.641 1571 51.844 1314.29 539.533
1540 0 118.439 13.8891 1645 51.5459 1313.98 538.919
1541 0 119.327 12.5622 1499 53.2542 1313.75 536.218
1542 0 122.352 12.6929 1553 53.0219 1313.86 535.75
1543 0 126.214 13.5802 1714 52.0776 1314.15 534.287
1544 0 130.171 12.9906 1691 52.8285 1313.74 529.814
1545 0 133.416 13.0269 1738 52.5535 1314.37 530.262
1546 0 139.248 13.5729 1890 51.745 1314.23 524.789
1547 0 142.338 13.1518 1872 52.2511 1314.4 522.854
1548 0 147.478 14.0699 2075 51.6 1314.38 522.135
1549 0 151.444 13.708 2076 51.9504 1314.21 521.084
1550 0 157.504 13.4981 2126 52.1947 1314.32 515.421
1551 0 161.334 13.1776 2126 52.7084 1314.53 514.492
1552 1 94.415 11.979 1131 51.9708 1313.38 547.377
1553 0 97.2436 12.7206 1237 51.3581 1312.93 546.04
1554 0 102.639 12.2955 1262 51.0919 1313.09 543.727
1555 0 106.308 11.8147 1256 51.4857 1313.36 543.193
1556 0 109.503 12.8489 1407 50.7022 1313.27 542.727
1557 0 112.286 12.6463 1420 51.4303 1313.36 538.958
1558 0 114.409 12.4815 1428 52.4349 1313.56 536.263
1559 0 117.414 12.7242 1494 52.5716 1313.41 534.963
1560 0 120.698 12.2454 1478 53.3789 1312.73 532.05
1561 0 124.484 13.0057 1619 52.5596 1313.11 533.266
1562 0 128.723 13.5252 1741 52.1516 1312.99 530.936
1563 0 129.761 12.5616 1630 53.6982 1312.55 530.383
1564 0 134.859 12.717 1715 53.7306 1312.29 529.62
1565 0 136.526 13.1843 1800 53.6233 1311.68 526.664
1566 1 81.81 10.1821 833 54.3818 1311.93 555.014
1567 0 84.4592 10.9047 921 54.089 1311.62 553.01
1568 0 88.5202 11.4889 1017 53.4533 1311.74 551.546
1569 0 93.5318 12.5091 1170 52.2111 1311.68 550.417
1570 0 93.4538 11.8668 1109 53.6907 1311.22 549.52
1571 0 96.4752 13.0811 1262 52.7171 1311.6 546.395
1572 0 101.614 12.6754 1288 53.0474 1311.32 547.17
1573 0 105.403 13.0452 1375 52.3913 1311.44 544.251
1574 0 106.676 12.7677 1362 53.1446 1311.39 542.773
1575 0 110.545 13.0716 1445 53.1806 1311.53 540.88
1576 0 114.708 12.6495 1451 53.6389 1311.87 540.116
1577 0 116.618 12.8968 1504 53.7786 1311.81 539.755
1578 0 122.799 12.8259 1575 53.9994 1311.6 537.79
1579 0 122.832 12.9364 1589 54.557 1311.58 533.188
1580 1 69.6899 10.9054 760 53.3934 1310.89 563.257
1581 0 69.6899 10.9198 761 169.681 1310.88 563.289
1582 0 73.6647 11.2401 828 52.9312 1310.44 560.444
1583 0 76.7875 11.942 917 52.5016 1310.74 560.205
1584 0 78.5733 11.7597 924 52.5022 1310.6 558.805
1585 0 80.4526 11.6218 935 52.661 1309.86 559.212
1586 0 80.4529 11.2364 904 53.875 1309.63 557.642
1587 0 84.5321 12.5751 1063 52.5795 1309.67 555.969
1588 0 86.4811 12.2339 1058 52.8904 1309.5 554.531
1589 0 89.572 12.0239 1077 52.8663 1309.7 552.688
1590 0 93.3968 12.57 1174 52.3995 1310.17 551.847
1591 0 93.4286 12.3945 1158 53.266 1310.25 551.326
1592 0 95.239 12.0749 1150 53.9522 1310.12 548.737
1593 0 98.329 12.2955 1209 53.7742 1310.26 545.056
1594 0 101.485 12.0313 1221 53.6224 1310.26 545.894
1595 0 104.323 12.4421 1298 53.5755 1310.83 545.173
1596 0 108.479 11.947 1296 54.4421 1310.89 541.467
1597 1 65.3282 10.1794 665 53.2256 1311.03 564.592
1598 0 63.2028 10.0945 638 53.4624 1310.64 565.284
1599 0 67.199 10.5508 709 53.3089 1311.59 563.704
1600 0 68.1404 10.8012 736 53.9715 1311.05 562.785
1601 0 70.2161 11.9773 841 53.2271 1310.87 560.677
1602 0 72.219 11.7144 846 53.3511 1310.76 559.632
1603 0 75.1776 11.3731 855 53.2877 1310.68 558.579
1604 0 79.1854 11.9593 947 52.8944 1310.68 559.139
1605 0 79.2638 12.0862 958 53.0428 1311.26 556.251
1606 0 84.1301 11.8864 1000 52.871 1310.88 553.75
1607 0 85.3888 11.3364 968 53.437 1310.77 554.6
1608 0 89.1932 12.1422 1083 52.3629 1310.99 550.761
1609 0 92.1998 12.2235 1127 52.0124 1311.55 549.269
1610 0 93.411 11.5083 1075 53.1814 1312.23 547.946
1611 0 96.3302 12.9554 1248 51.7332 1312.63 547.303
1612 0 100.614 12.7318 1281 51.7385 1312.59 548.625
1613 0 103.519 11.8335 1225 52.5265 1313.11 542.995
1614 0 105.35 12.2165 1287 52.3201 1313.01 543.269
1615 0 110.536 12.3489 1365 52.4454 1313.29 539.269
1616 0 111.541 12.4528 1389 52.4471 1313.57 538.693
1617 0 116.675 12.5734 1467 52.8773 1314.08 532.749
1618 0 117.456 12.0556 1416 53.9018 1314.32 532.523
1619 0 121.677 12.3195 1499 53.7425 1314.24 530.326
1620 0 124.455 12.4302 1547 54.1319 1314.46 530.306
1621 0 124.455 12.4624 1551 155.479 1314.48 530.357
1622 1 73.2624 9.75944 715 53.6895 1315.17 555.653
1623 0 76.2742 9.84606 751 52.5593 1315.7 549.261
1624 0 80.3429 10.6543 856 52.0047 1315.25 548.407
1625 0 83.2672 11.6733 972 51.4979 1314.8 550.473
1626 0 86.3216 12.3723 1068 50.9522 1314.8 548.218
1627 0 87.197 11.2045 977 52.6479 1314.88 550.773
1628 0 91.3276 12.0883 1104 52.048 1315.4 548.671
1629 0 93.3144 12.0453 1124 52.5062 1315.67 546.993
1630 0 96.337 11.8646 1143 52.4786 1315.5 548.492
1631 0 98.4273 12.7708 1257 51.9236 1315 543.655
1632 0 102.475 14.1498 1450 50.6917 1316.69 542.936
1633 0 104.379 12.5984 1315 52.2905 1315.89 540.519
1634 0 108.407 12.5915 1365 52.6103 1315.87 538.084
1635 0 111.266 12.5915 1401 52.8779 1316.84 539.691
1636 0 115.486 12.547 1449 53.0573 1316.63 538.295
1637 0 116.565 12.8254 1495 53.5472 1316.39 535.068
1638 0 120.525 13.2172 1593 53.1714 1315.82 533.28
1639 0 123.693 12.9353 1600 53.54 1315.79 531.577
1640 0 127.613 13.5409 1728 53.3299 1316.01 529.672
1641 0 130.653 12.5676 1642 53.7862 1315.36 527.104
1642 0 134.4359 8.59393 210 45.4524 1313.59 580.619
1643 0 137.124 5.02219 86 43.814 1312.95 577.756
1644 0 140.0701 1.3835 25 44.8 1312.6 580.32
1645 0 145.1488 6.78893 130 42.1077 1312.8 578.992
1646 1 83.3438 9.37082 781 53.6056 1315.16 547.978
1647 0 82.3523 9.76294 804 53.9938 1315.18 546.766
1648 0 83.2155 10.1664 846 53.7553 1315.13 545.637
1649 0 86.1501 10.4121 897 54.1003 1315.89 544.688
1650 0 89.1947 12.4895 1114 52.8959 1315.56 542.1
1651 0 93.2862 13.0459 1217 52.0107 1315.47 542.339
1652 0 100.388 12.2824 1233 51.8848 1314.63 544.936
1653 0 103.289 12.5957 1301 51.8478 1314.62 543.849
1654 0 104.402 12.6338 1319 51.9621 1314.65 542.842
1655 0 108.301 12.7607 1382 52.1454 1314.13 540.598
1656 0 111.324 12.4951 1391 52.0302 1314.25 540.229
1657 0 115.502 12.5798 1453 51.9704 1314.28 536.685
1658 0 119.49 12.8547 1536 51.8346 1314 533.544
1659 0 124.74 12.8107 1598 52.4912 1314.24 532.384
1660 0 126.718 13.7865 1747 52.1093 1313.94 528.429
1661 0 131.651 13.5206 1780 52.1444 1313.48 528.225
1662 1 77.6745 10.2994 800 52.545 1313.75 558.233
1663 0 79.5671 11.1227 885 52.913 1313.67 555.546
1664 0 80.3783 11.2593 905 51.2685 1313.32 553.266
1665 0 82.4518 11.6068 957 52.9979 1314.11 551.94
1666 0 85.4458 12.1949 1042 51.715 1312.48 550.955
1667 0 86.3517 12.2638 1059 50.7885 1313.23 551.201
1668 0 89.3816 11.3558 1015 51.9517 1313.75 547.403
1669 0 91.2806 11.7769 1075 52.2558 1313.67 545.885
1670 0 94.5213 12.1877 1152 52.3646 1313.37 546.136
1671 0 97.6797 12.0291 1175 52.2851 1313.77 544.643
1672 0 100.769 11.7 1179 52.6522 1313.13 545.622
1673 0 102.423 13.083 1340 51.9037 1313.12 541.884
1674 0 105.689 12.4138 1312 52.4375 1313.15 542.995
1675 0 107.699 12.3864 1334 52.8223 1312.68 538.999
1676 0 111.988 13.0907 1466 52.2162 1312.6 537.168
1677 0 114.523 12.8969 1477 52.6432 1312.67 537.332
1678 0 116.401 12.9466 1507 53.1672 1311.86 536.455
1679 0 119.019 12.5442 1493 53.4113 1311.83 533.354
1680 0 121.481 12.5287 1522 53.5552 1311.85 531.271
1681 0 125.64 12.9019 1621 53.4059 1311.68 530.635
1682 0 128.554 13.2007 1697 53.3353 1312.62 530.661
1683 0 131.668 12.8353 1690 54.3142 1312.3 527.775
1684 0 132.753 13.0769 1736 53.2604 1312.64 526.325
1685 0 138.606 12.9576 1796 52.4421 1311.99 525.988
1686 0 141.977 12.4316 1765 53.4703 1312.24 521.289
1687 0 146.062 12.4468 1818 53.6089 1311.45 522.538
1688 0 150.727 13.6738 2061 52.4639 1311.39 517.843
1689 0 153.779 13.1357 2020 53.3193 1311 516.339
1690 0 160.105 13.9346 2231 52.4012 1310.9 512.153
1691 1 92.688 9.46185 877 52.8951 1311.09 552.364
1692 0 93.5802 10.7501 1006 51.8926 1310.64 549.617
1693 0 96.5915 11.8126 1141 50.9351 1310.68 546.741
1694 0 99.8209 11.4806 1146 51.2679 1310.77 546.193
1695 0 104.987 11.9443 1254 50.7831 1310.68 544.277
1696 0 104.552 11.9079 1245 51.5566 1310.24 542.688
1697 0 105.613 12.5837 1329 51.1603 1310.05 542.2
1698 0 110.607 12.5761 1391 50.7096 1310.05 540.042
1699 0 112.589 11.8218 1331 51.728 1309.91 539.742
1700 0 116.873 12.4665 1457 51.0144 1309.98 539.576
1701 0 120.751 12.8529 1552 50.9903 1309.43 537.652
1702 0 122.624 13.0644 1602 51.2241 1309.6 536.037
1703 0 125.566 12.8856 1618 51.4116 1309.5 534.459
1704 0 128.705 13.4027 1725 51.1542 1309.45 532.085
1705 0 131.733 13.5274 1782 51.3889 1309.36 529.925
1706 0 134.64 12.9828 1748 52.0566 1309.48 527.787
1707 0 140.83 13.3353 1878 51.6629 1309.34 527.302
1708 0 143.701 12.7348 1830 52.3148 1309.67 524.563
1709 0 149.643 13.4654 2015 51.8531 1309.95 521.832
1710 0 155.91 13.944 2174 51.1946 1309.44 517.808
1711 0 159.611 13.677 2183 51.5557 1309.81 515.677
1712 0 164.741 12.9355 2131 51.9399 1309.48 511.646
1713 1 97.3829 9.65262 940 52.15 1309.53 546.391
1714 0 99.5187 10.7819 1073 50.439 1309.61 547.153
1715 0 104.472 10.7589 1124 50.3443 1309.55 545.029
1716 0 104.422 11.3769 1188 50.75 1310.29 542.165
1717 0 108.583 12.35 1341 50.129 1310.62 542.541
1718 0 112.687 12.2197 1377 50.2498 1310.76 540.489
1719 0 116.698 12.2453 1429 50.5752 1310.66 538.276
1720 0 118.527 11.9045 1411 50.9957 1310.55 537.505
1721 0 122.679 12.5938 1545 50.6583 1310.95 535.041
1722 0 124.703 13.3197 1661 50.4726 1311.05 533.626
1723 0 129.715 13.1287 1703 50.5913 1311 532.448
1724 0 131.638 12.8459 1691 51.0242 1311.7 531.275
1725 0 134.559 12.9386 1741 51.5853 1311.73 529.57
1726 0 137.632 13.5579 1866 50.6913 1311.46 524.668
1727 0 139.626 12.4189 1734 51.8737 1311.37 518.025
1728 0 144.583 12.7194 1839 51.1778 1311.75 519.264
1729 0 149.725 13.5648 2031 49.4791 1311.81 512.77
1730 0 155.694 14.4129 2244 48.4349 1311.69 513.142
1731 0 158.596 13.6447 2164 49.0485 1311.76 511.837
1732 0 165.499 13.8672 2295 49.0732 1312.49 511.624
1733 1 97.4052 9.75308 950 50.1063 1312.22 543.981
1734 0 101.547 11.0589 1123 49.886 1313.15 546.788
1735 0 105.496 12.171 1284 49.6978 1312.73 543.33
1736 0 107.476 12.4027 1333 50.0818 1313.92 540.394
1737 0 108.561 11.9841 1301 50.7194 1314.4 539.944
1738 0 112.534 12.2896 1383 50.4563 1314.8 537.587
1739 0 115.56 13.0062 1503 50.312 1314.85 534.17
1740 0 120.772 12.3042 1486 51.3318 1315.62 533.323
1741 0 124.509 12.8263 1597 50.479 1315.56 530.996
1742 0 126.412 12.9023 1631 50.5469 1315.91 527.634
1743 0 129.364 13.3191 1723 50.2844 1315.87 527.041
1744 0 133.488 13.0124 1737 50.8693 1316.32 525.253
1745 0 137.566 13.6226 1874 49.8276 1316.01 525.876
1746 0 141.38 14.2807 2019 49.0976 1316.21 518.664
1747 0 142.693 12.8598 1835 51.0185 1316.42 519.579
1748 0 147.685 12.9871 1918 50.9666 1316.25 516.16
1749 0 147.685 13.0141 1922 164.177 1315.24 516.08
1750 0 155.788 12.1319 1890 52.1106 1316.27 511.758
1751 0 158.751 13.1905 2094 51.2459 1317.53 509.14
1752 0 165.712 13.9277 2308 50.3635 1317.3 507.015
1753 0 171.819 13.6946 2353 50.6655 1316.84 504.59
1754 0 176.996 13.2884 2352 51.0706 1316.95 501.987
1755 1 104.663 10.701 1120 50.3562 1317.07 540.337
1756 0 109.847 11.3339 1245 49.9502 1317.1 534.857
1757 0 112.571 11.1752 1258 49.3712 1316.29 533.64
1758 0 117.686 12.1085 1425 48.4168 1316.27 533.005
1759 0 117.725 11.2295 1322 49.5144 1316.32 531.487
1760 0 124.833 11.8318 1477 49.0264 1316.26 528.879
1761 0 126.593 11.7542 1488 49.8931 1316.3 527.146
1762 0 130.648 12.7135 1661 48.7839 1315.8 525.262
1763 0 132.65 11.8809 1576 50.2906 1315.54 522.794
1764 0 136.886 12.1196 1659 49.8276 1315.36 522.467
1765 0 140.786 12.7783 1799 49.5053 1315 521.525
1766 1 82.6971 9.06925 750 48.7773 1315.26 552.661
1767 0 83.516 10.2376 855 48.469 1315.64 550.676
1768 0 85.766 11.1 952 47.0672 1315.65 547.3
1769 0 87.5228 11.14 975 47.2574 1314.85 546.839
1770 0 90.4263 10.8928 985 47.7046 1315.1 547.33
1771 0 92.4433 11.4881 1062 47.3239 1314.84 545.346
1772 0 94.5078 11.2054 1059 48.7158 1314.69 542.609
1773 0 97.5482 10.9382 1067 49.0965 1314.48 542.692
1774 0 99.5597 10.4661 1042 49.858 1314.17 542.602
1775 0 101.497 11.5372 1171 50.1503 1314.15 539.86
1776 0 100.555 10.5614 1062 51.6149 1314.19 539.518
1777 0 105.536 11.7211 1237 50.2118 1313.9 538.739
1778 0 107.659 11.0627 1191 51.2225 1313.77 536.292
1779 0 113.66 12.1591 1382 50.5644 1313.75 534.791
1780 0 113.651 11.7201 1332 51.3296 1313.94 534.869
1781 0 116.595 12.2989 1434 51.2232 1313.64 530.507
1782 0 121.504 12.3946 1506 51.0106 1314.42 528.199
1783 0 121.58 12.2635 1491 51.6794 1313.84 529.148
1784 0 126.859 12.6361 1603 51.126 1313.15 527.228
1785 0 129.472 12.327 1596 51.4981 1313.48 524.806
1786 0 132.6 12.4962 1657 51.4418 1313.24 523.332
1787 0 135.523 12.2931 1666 51.6549 1313.01 520.24
1788 0 138.457 13.1594 1822 51.0768 1312.4 519.762
1789 0 145.2245 7.66498 247 43.2672 1309.79 578.466
1790 0 148.2343 6.61967 220 43.9909 1309.57 577.932
1791 0 151.66 12.9303 1961 51.4528 1311.96 515.304
1792 0 155.521 13.2265 2057 51.4614 1311.72 510.803
1793 0 161.429 12.9964 2098 51.3522 1311.9 512.338
1794 1 103.326 9.72647 1005 49.4597 1311.25 544.63
1795 0 106.435 10.3819 1105 49.7747 1311.72 539.564
1796 0 108.492 10.5169 1141 49.9641 1312.22 537.769
1797 0 110.548 11.1173 1229 50.07 1311.73 536.155
1798 0 113.634 11.0266 1253 49.6177 1311.72 535.808
1799 0 117.549 10.9571 1288 49.9053 1311.58 534.37
1800 0 120.414 10.8459 1306 49.8239 1310.9 532.278
1801 0 122.555 11.3174 1387 49.646 1311.59 530.895
1802 0 125.689 11.4011 1433 49.7069 1311.41 528.95
1803 0 131.652 11.5911 1526 49.7058 1311.37 528.664
1804 0 132.573 12.612 1672 48.9587 1311.28 526.614
1805 0 137.671 12.203 1680 49.3571 1311.36 522.79
1806 0 140.589 12.0493 1694 49.8743 1310.78 523.018
1807 0 144.678 13.2017 1910 48.8696 1310.68 521.064
1808 1 89.4184 9.03617 808 49.495 1310.89 552.557
1809 0 92.4335 10.851 1003 48.3719 1310.98 549.349
1810 0 91.6331 9.87634 905 48.8718 1310.98 550.491
1811 0 94.517 11.289 1067 48.0656 1311.48 549.462
1812 0 95.4698 11.3229 1081 48.0481 1311.31 546.611
1813 0 98.5617 12.6114 1243 47.2188 1311.8 545.449
1814 0 102.68 12.1348 1246 47.1453 1312.09 544.543
1815 0 105.476 12.0216 1268 47.1696 1312.26 541.864
1816 0 107.586 11.8602 1276 47.8331 1312.3 540.418
1817 0 111.838 12.7596 1427 47.2102 1312.49 540.657
1818 0 111.671 12.5906 1406 47.7873 1311.77 536.397
1819 0 116.582 12.9008 1504 47.5831 1311.67 535.63
1820 0 118.602 12.8497 1524 48.086 1311.7 534.994
1821 0 119.695 12.8243 1535 48.6221 1311.34 533.126
1822 0 123.521 12.7428 1574 48.8634 1311.4 531.102
1823 0 126.694 12.7867 1620 49.1679 1311.45 529.217
1824 0 127.959 12.418 1589 50.0334 1312.12 526.595
1825 0 133.429 13.0331 1739 49.4882 1311.73 524.01
1826 0 134.519 12.987 1747 49.6737 1311.72 523.668
1827 0 138.847 12.7694 1773 49.7078 1312.32 521.733
1828 0 140.626 12.615 1774 50.3489 1312.35 519.137
1829 0 144.975 13.0919 1898 49.6496 1312.59 517.526
1830 0 148.834 14.1567 2107 48.7788 1312.78 516.603
1831 0 152.758 13.0795 1998 50.1381 1312.52 513.071
1832 0 158.856 14.68 2332 48.5703 1312.79 511.669
1833 0 161.834 14.1689 2293 49.6481 1313.4 507.657
1834 0 165.823 14.0451 2329 49.7896 1313.2 506.7
1835 0 170.693 14.2947 2440 50.1545 1313.4 504.586
1836 0 175.91 14.3255 2520 49.8167 1313.25 504.355
1837 0 181.126 14.6141 2647 49.8988 1313.45 500.305
1838 0 185.229 14.7547 2733 50.1522 1313.77 495.483
1839 1 22.2824 7.27031 162 41.8889 1312.72 582.944
1840 0 19.2455 7.89795 152 41.3882 1312.86 584.237
