time division length width area intensity CMx CMy
0 0 51.1797 12.3877 634 71.0536 1224.94 583.486
1 0 54.2364 12.464 676 71.0843 1223.97 583.092
2 0 54.2364 12.4824 677 166.456 1222.96 583.127
3 0 57.1876 12.3453 706 72.2493 1224.25 581.874
4 0 59.2066 12.904 764 71.1963 1224.2 581.5
5 0 59.1554 13.0504 772 71.2461 1224.56 581.522
6 0 60.2073 13.2542 798 71.2907 1224.75 580.93
7 0 64.1928 13.7866 885 69.8734 1224.87 579.602
8 0 66.1442 13.5915 899 72.0745 1224.72 578.265
9 0 66.3356 12.7835 848 75.1356 1224.67 576.833
10 0 71.1787 13.7682 980 73.4724 1225.04 576.339
11 0 71.2287 13.927 992 74.3175 1225.47 574.269
12 0 76.1577 13.7478 1047 74.362 1225.24 571.647
13 0 79.1464 14.0499 1112 73.1924 1225.29 572.479
14 0 80.1226 13.08 1048 75.729 1225.44 569.249
15 0 84.2279 14.3183 1206 71.9643 1225.53 568.219
16 0 87.2055 14.0473 1225 72.1322 1225.01 565.112
17 0 93.1937 14.3679 1339 71.0747 1225.27 563.894
18 1 46.0744 11.3946 525 72.3619 1224.46 588.789
19 0 46.0744 11.3078 521 179.472 1224.46 588.626
20 0 48.0273 11.9932 576 71.0608 1224.41 587.59
21 0 49.0845 11.6737 573 72.4311 1225.41 586.857
22 0 50.1787 12.5352 629 72.469 1225.38 585.248
23 0 52.1212 12.8163 668 71.5539 1225.39 585.052
24 0 55.1678 13.0511 720 70.3681 1225.4 583.301
25 0 55.2743 13.2792 734 71.3311 1225.57 582.187
26 0 58.1244 13.213 768 70.4987 1225.5 582.898
27 0 59.2089 13.7817 816 70.7341 1225.59 580.277
28 0 61.1837 13.0427 798 71.5551 1225.22 578.341
29 0 63.2263 12.6055 797 71.5194 1225.07 578.072
30 0 67.1556 12.6423 849 71.0294 1225.62 578.486
31 0 69.2068 12.7589 883 71.0849 1225.64 576.797
32 0 69.134 13.1773 911 70.9023 1226.04 574.716
33 0 73.1864 13.3085 974 70.0852 1226.18 573.651
34 0 77.2045 12.8879 995 70.2111 1225.8 570.329
35 1 38.1185 10.4936 400 70.91 1225.45 590.483
36 0 39.2366 10.0926 396 70.5884 1225.19 591.258
37 0 41.226 10.9155 450 69.7533 1225.69 588.673
38 0 42.1378 11.4149 481 69.0104 1226.15 589.318
39 0 42.2477 11.0302 466 70.2167 1226.36 588.959
40 0 44.2616 12.0195 532 68.2068 1226.67 588.239
41 0 46.2574 11.717 542 68.5387 1226.81 587.926
42 0 48.3389 12.1227 586 67.2184 1227.12 585.428
43 0 46.2365 12.6091 583 67.837 1226.74 585.962
44 0 50.1819 12.5942 632 66.9462 1226.91 584.687
45 0 51.2339 12.0233 616 67.4594 1227.8 584.946
46 0 54.2842 12.5451 681 66.0866 1228.07 583.521
47 0 54.2409 12.7948 694 66.6268 1227.8 583.196
48 0 56.2009 12.74 716 66.5587 1228.02 582.634
49 0 56.2081 12.347 694 67.3516 1227.75 583.718
50 0 60.2142 12.8043 771 65.8067 1227.3 581.72
51 0 64.2032 13.1458 844 64.7405 1227.49 580.231
52 0 63.1559 13.0312 823 65.9089 1227 579.599
53 0 66.2664 13.3099 882 65.4921 1226.95 578.42
54 0 67.2249 13.3284 896 59.3728 1226.22 577.039
55 0 70.2693 13.0356 916 59.8373 1226.67 576.455
56 0 72.2147 12.6429 913 60.0854 1226.59 575.488
57 0 76.4115 13.2833 1015 60.2768 1226.94 573.578
58 0 78.3871 13.1654 1032 60.3595 1227.24 571.267
59 1 45.2158 10.5052 475 61.1811 1226.5 589.632
60 0 47.1651 11.534 544 60.3217 1226.74 587.438
61 0 46.4095 11.7217 544 61.7518 1226.84 586.862
62 0 50.2326 12.243 615 61.0634 1226.75 585.299
63 0 51.2352 12.8427 658 60.6064 1226.19 584.98
64 0 51.2123 12.7118 651 61.7849 1226.69 583.169
65 0 54.2976 12.7446 692 61.4957 1226.94 581.681
66 0 56.1303 13.2014 741 61.0405 1226.91 582.595
67 0 57.2287 12.2491 701 63.0585 1227.5 581.147
68 0 58.1328 13.0563 759 62.3676 1228.13 580.735
69 0 61.2 12.9085 790 62.4646 1228.46 579.563
70 0 62.1757 12.8024 796 62.8317 1227.76 578.646
71 0 63.1493 12.9851 820 63.2134 1228.08 576.157
72 0 66.2417 12.5148 829 63.4813 1228.25 575.91
73 0 67.2955 12.6457 851 63.9624 1228.58 574.028
74 0 71.2508 13.5016 962 62.762 1228.63 573.976
75 0 72.1322 13.4198 968 63.4762 1229.3 571.764
76 0 75.1884 14.0713 1058 62.4509 1229.21 570.622
77 0 77.2123 13.3528 1031 63.9903 1229.72 569.521
78 0 78.1392 13.0792 1022 65.0147 1229.41 567.719
79 0 83.2961 14.0703 1172 63.2619 1230.14 566.726
80 1 40.118 10.6935 429 66.2238 1229.6 585.981
81 0 44.1454 11.2809 498 65.0823 1229.45 583.882
82 0 45.0801 11.6681 526 65.8156 1229.95 583.677
83 0 46.2061 11.795 545 66.255 1230.44 582.987
84 0 48.2472 11.8556 572 66.6206 1231.1 581.883
85 0 49.3188 12.7943 631 64.5515 1231.34 581.83
86 0 50.1998 12.8686 646 65.4443 1231.51 580.904
87 0 52.2207 12.9451 676 65.4615 1231.87 577.784
88 0 55.3154 13.1971 730 64.1274 1231.98 577.56
89 0 56.1507 12.5733 706 64.6006 1232.03 575.962
90 0 56.2155 13.1281 738 64.4986 1232.43 573.999
91 0 61.2768 13.2513 812 65.8461 1233.28 574.201
92 0 60.1161 13.1412 790 69.9127 1233.38 572.838
93 0 61.1809 13.1904 807 70.9542 1233.35 570.955
94 0 62.3056 13.4819 840 68.4 1233.47 571.207
95 0 66.1241 13.5805 898 65.941 1232.6 569.639
96 0 66.2101 13.6686 905 65.4785 1232.9 568.556
97 0 71.2434 13.9662 995 63.7538 1232.49 566.248
98 0 72.383 12.724 921 64.3464 1232.59 568.176
99 0 77.1594 12.688 979 63.8223 1231.94 567.329
100 0 77.4976 12.6714 982 65.1558 1232.34 564.008
101 0 82.2376 13.0476 1073 63.8798 1232.27 562.971
102 0 84.3111 13.2248 1115 64.3812 1232.72 560.24
103 1 44.2322 11.7561 520 66.1519 1232.41 579.14
104 0 46.1313 10.9253 504 67.0516 1232.36 579.462
105 0 46.1657 12.2169 564 66.8723 1232.6 577.605
106 0 46.2207 12.1374 561 66.5062 1233.19 575.815
107 0 48.2222 13.0645 630 64.2667 1232.72 576.403
108 0 50.1616 12.679 636 64.2107 1232.7 577.219
109 0 51.1283 12.8891 659 62.3839 1232.98 575.683
110 0 54.2453 12.72 690 63.6565 1232.78 574.168
111 0 55.1161 12.5735 693 63.5628 1231.98 573.711
112 0 56.1098 13.0993 735 62.419 1231.64 573.086
113 0 57.1621 12.7007 726 62.5069 1231.87 571.136
114 0 58.1596 13.4801 784 61.3776 1232.43 570.977
115 0 60.2433 13.4953 813 60.9643 1231.87 570.253
116 0 61.2637 13.1889 808 61.6275 1232.16 570.301
117 0 62.2292 13.3056 828 61.5604 1232.19 570.308
118 0 66.2246 13.8015 914 60.7505 1232.2 568.063
119 0 67.3068 13.3716 900 62.1033 1231.7 566.308
120 0 71.5412 13.5586 970 60.6495 1232.28 566.601
121 0 74.362 13.7301 1021 60.0343 1232.33 563.791
122 0 76.5175 13.9315 1066 59.6276 1232.11 564.712
123 0 80.5263 13.4118 1080 60.0713 1232.25 560.37
124 0 82.448 13.839 1141 60.0868 1231.85 559.03
125 0 85.4248 14.3986 1230 59.126 1232.09 559.648
126 1 45.2319 11.7837 533 61.1182 1231.86 577.897
127 0 48.3216 11.5269 557 61.4596 1231.56 577.68
128 0 48.2892 11.8039 570 61.6474 1231.03 576.865
129 0 50.5136 13.3034 672 60.4375 1230.96 575.143
130 0 52.4582 14.0302 736 59.6807 1230.83 573.522
131 0 53.3608 13.6242 727 60.8019 1230.9 574.465
132 0 54.5567 13.2156 721 61.8641 1230.82 573.406
133 0 54.4506 13.9943 762 61.3937 1230.83 572.912
134 0 57.4893 13.272 763 62.1206 1230.78 572.991
135 0 59.318 13.2338 785 62.721 1230.98 571.814
136 0 61.5924 13.703 844 62.5344 1231.01 570.382
137 0 63.3959 12.8557 815 63.7791 1230.81 571.045
138 0 65.5013 12.7784 837 64.1685 1230.72 569.56
139 0 67.5637 12.9656 876 64.0559 1230.8 569.009
140 0 68.4931 13.1984 904 64.1925 1230.72 567.493
141 0 71.6451 13.8879 995 64.4151 1230.89 565.923
142 0 74.4127 14.1105 1050 63.9476 1231.04 565.856
143 0 76.4371 14.0246 1072 64.5868 1231.1 562.984
144 0 79.4595 14.0575 1117 64.9955 1230.94 562.009
145 0 81.3807 14.4506 1176 64.4991 1230.82 561.739
146 0 85.4189 14.2006 1213 65.0198 1230.58 558.96
147 0 86.4086 13.9222 1203 65.5295 1230.72 559.076
148 0 93.4592 14.1666 1324 65.3089 1230.47 557.05
149 0 96.2866 14.4153 1388 65.1448 1230.37 554.036
150 1 51.3373 12.2133 627 66.7209 1230.05 575.826
151 0 53.37 11.9543 638 67.7038 1229.62 574.886
152 0 54.4465 12.9852 707 66.8232 1229.84 573.027
153 0 56.3506 12.4045 699 67.4134 1229.81 571.926
154 0 59.4619 13.8408 823 64.706 1230.05 572.149
155 0 61.2943 13.0028 797 65.6913 1230.13 571.031
156 0 64.2477 13.8838 892 64.4137 1230.14 569.966
157 0 65.2972 13.2471 865 65.6197 1230.21 569.519
158 0 65.2972 13.2624 866 172.839 1230.22 569.57
159 0 68.4624 13.1605 901 66.1731 1230.43 568.282
160 0 70.6226 13.6075 961 65.796 1229.73 567.246
161 0 74.5158 14.3459 1069 64.3237 1230.26 566.114
162 0 75.4733 13.9255 1051 65.6736 1230.18 562.728
163 0 78.4776 13.7492 1079 65.8063 1230.28 560.972
164 0 82.2934 13.9015 1144 65.354 1230.33 561.683
165 0 85.3781 14.1723 1210 65.4339 1230.19 559.221
166 0 88.4418 14.1562 1252 65.4625 1230.6 557.573
167 1 47.2811 11.4422 541 67.0148 1229.71 577.665
168 0 48.36 12.1588 588 66.9133 1230.38 576.107
169 0 49.3819 11.6642 576 68.441 1230.57 575.205
170 0 50.6146 12.447 630 67.2016 1230.95 574.375
171 0 54.2766 11.8652 644 68.1087 1231.06 573.696
172 0 54.2808 12.8775 699 67.4707 1230.58 572.768
173 0 55.3536 12.9531 717 67.7266 1230.85 572.7
174 0 56.1829 12.6017 708 68.2768 1230.57 572.312
175 0 58.2531 12.686 739 68.1394 1230.93 570.602
176 0 61.4452 13.1662 809 66.7985 1231.39 569.687
177 0 62.2839 12.6839 790 67.7468 1231.33 567.987
178 0 64.2895 12.9415 832 67.5553 1231.66 568.234
179 0 67.2112 13.0633 878 67.8918 1231.51 565.205
180 0 68.2342 13.014 888 67.9921 1231.28 564.725
181 0 71.4152 13.8626 990 66.8525 1231.5 562.788
182 0 74.3379 14.0843 1047 66.639 1232.32 561.836
183 0 76.2141 13.1078 999 68.0661 1232.05 560.525
184 0 80.5816 13.6135 1097 66.7165 1231.93 560.288
185 0 81.4079 13.6228 1109 67.4725 1232.13 558.325
186 0 85.2429 13.3383 1137 67.2656 1232.82 556.892
187 0 89.2988 14.1659 1265 65.9755 1232.55 555.953
188 1 51.2001 10.9765 562 67.0605 1231.98 572.429
189 0 52.1976 10.6902 558 67.3835 1232.19 573.663
190 0 52.0734 11.8871 619 66.8158 1233.08 572.239
191 0 54.1077 12.1979 660 67.5152 1232.84 571.914
192 0 55.099 12.2144 673 67.6746 1233.17 570.051
193 0 56.1848 11.9427 671 66.0492 1233.48 571.356
194 0 59.2197 13.1038 776 63.0258 1233.27 570.179
195 0 60.2053 12.8394 773 62.2988 1233.51 569.745
196 0 62.3763 12.6651 790 62.1304 1233.52 567.272
197 0 64.3738 12.2721 790 63.6924 1233.53 566.199
198 0 67.5189 11.9226 805 65.9789 1233.55 565.998
199 0 69.3716 12.5123 868 65.2454 1233.84 565.848
200 0 71.2604 11.9421 851 67.1539 1234.35 562.965
201 0 74.3034 12.6105 937 66.7086 1234.23 561.794
202 0 74.1826 12.6175 936 66.64 1234.3 560.797
203 0 79.1325 12.8013 1013 65.7453 1233.88 558.99
204 0 79.6303 12.1059 964 67.5332 1233.85 559.306
205 0 82.2366 12.4884 1027 67.5609 1234.2 556.895
206 0 85.2252 12.7427 1086 67.8904 1234.32 555.899
207 0 89.3008 12.6315 1128 68.0399 1234.26 554.602
208 1 46.3548 10.1607 471 69.1741 1234.81 575.429
209 0 48.2586 12.0393 581 67.284 1234.86 572.298
210 0 48.1395 11.986 577 67.8718 1234.67 570.91
211 0 51.3748 12.1071 622 67.3842 1234.52 570.989
212 0 53.1661 11.9437 635 67.3827 1234.27 571.279
213 0 53.2767 12.2005 650 67.2554 1234.33 571.643
214 0 55.3508 12.195 675 67.5378 1234.38 570.4
215 0 56.1855 11.8358 665 68.2902 1233.97 569.421
216 0 58.3457 11.9632 698 67.5616 1233.9 568.219
217 0 59.3399 12.8413 762 66.4882 1233.36 566.423
218 0 61.5192 12.2888 756 66.9339 1233.38 566.279
219 0 62.2918 12.9231 805 66.2161 1233.46 565.773
220 0 66.4502 12.3852 823 66.3633 1233.35 566.433
221 0 68.3911 12.8964 882 66.2687 1233.45 564.649
222 0 68.125 13.2257 901 66.0022 1233.38 563.554
223 0 70.33 13.6641 961 65.102 1232.57 563.106
224 0 73.3403 13.7714 1010 65.4792 1233.21 561.15
225 0 74.3573 13.7848 1025 65.282 1232.6 559.268
226 0 78.2637 13.084 1024 65.6934 1232.5 559.616
227 0 80.3411 12.9075 1037 65.7097 1232.14 559.799
228 0 82.2538 13.5191 1112 65.4838 1232.32 558.285
229 0 84.3039 13.7004 1155 65.1117 1232.08 556.831
230 0 85.4377 13.9049 1188 65.096 1232.11 555.894
231 0 90.4514 14.0075 1267 64.9116 1232.33 552.223
232 0 93.2188 14.5572 1357 64.3132 1232.07 551.4
233 0 93.3069 13.6646 1275 65.6549 1232.31 551.494
234 0 97.396 13.1422 1280 65.7336 1232.22 550.664
235 0 101.347 13.7448 1393 65.2843 1231.86 547.358
236 0 104.473 14.4056 1505 64.3947 1231.93 546.572
237 0 107.199 14.1793 1520 64.3862 1231.59 545.275
238 0 110.313 14.1144 1557 64.42 1231.39 543.472
239 0 113.517 14.0772 1598 64.0839 1231.84 542.074
240 0 118.203 14.5428 1719 63.1065 1231.86 539.941
241 0 122.3 14.6852 1796 62.7595 1231.67 538.084
242 1 67.1964 12.7239 855 63.0175 1231.4 566.007
243 0 68.1143 12.5818 857 63.6663 1231.27 563.564
244 0 73.1304 13.8793 1015 61.5537 1230.86 561.996
245 0 73.2657 12.5024 916 63.5611 1231.15 562.533
246 0 75.176 13.6347 1025 62.2771 1231.29 560.891
247 0 80.2138 13.2147 1060 62.4915 1231.16 558.47
248 0 83.2019 13.2329 1101 62.1953 1231.25 558.145
249 0 84.299 13.9622 1177 61.8717 1231.28 556.743
250 0 88.2229 13.8853 1225 62.1176 1231.33 554.644
251 0 91.1273 13.9585 1272 62.4017 1231.42 555.104
252 0 94.2443 13.8152 1302 62.4309 1231.35 553.055
253 0 98.4274 14.4167 1419 61.9352 1231.69 552.133
254 0 100.179 13.8453 1387 63.4636 1231.62 549.417
255 0 104.184 13.7449 1432 63.5335 1231.84 549.443
256 0 105.294 14.0749 1482 63.7591 1231.76 547.173
257 0 110.414 14.4184 1592 63.2469 1231.79 544.32
258 0 115.212 14.4429 1664 62.878 1231.32 543.328
259 0 118.192 14.4087 1703 63.1333 1231.19 541.174
260 0 123.351 14.9817 1848 62.2484 1231.42 538.49
261 1 69.222 11.7304 812 63.4076 1231.22 567.464
262 0 72.253 12.2486 885 63.2531 1230.72 565.107
263 0 75.1825 12.8088 963 62.675 1231.13 565.001
264 0 77.2285 11.848 915 63.4842 1231.33 565.136
265 0 80.2813 12.4687 1001 62.8312 1231.24 563.898
266 0 84.3636 12.6358 1066 63.0225 1231.55 561.177
267 0 88.3955 13.1115 1159 62.6074 1231.31 558.702
268 0 91.4658 13.6554 1249 61.956 1231.44 557.506
269 0 92.4451 12.6453 1169 63.2943 1231.62 557.076
270 1 48.2102 10.9106 526 61.8346 1231.67 578.127
271 0 51.3118 11.3424 582 60.756 1231.87 577.232
272 0 51.5019 10.5045 541 61.7357 1231.57 577.939
273 0 52.2438 10.9487 572 62.2185 1231.99 575.126
274 0 56.2703 12.3333 694 60.3746 1231.73 574.621
275 0 56.2728 11.9418 672 61.2768 1232.04 574.351
276 0 56.254 11.6614 656 62.6372 1232.24 573.736
277 0 60.1848 11.9133 717 61.2357 1231.9 572.453
278 0 62.1963 11.8978 740 61.2514 1231.66 571.08
279 0 63.113 12.3588 780 61.5731 1232.49 570.696
280 0 66.1443 12.3518 817 61.2448 1232.41 568.365
281 0 66.3765 11.9771 795 62.2893 1232.67 566.899
282 0 68.2432 11.6202 793 62.7957 1232.99 566.72
283 0 70.2096 12.6478 888 61.8029 1233.39 564.508
284 0 74.5031 13.9457 1039 60.3426 1234.09 563.674
285 0 76.2495 12.1575 927 62.6775 1233.99 562.986
286 0 79.4489 13.3923 1064 61.2923 1234.26 561.705
287 0 79.4849 12.6565 1006 63.1909 1233.74 561.8
288 0 83.4313 12.3934 1034 63.2631 1234.01 557.807
289 0 86.2731 12.9473 1117 62.1629 1234.29 558.093
290 0 88.3049 13.2043 1166 62.1784 1234.37 554.347
291 0 91.439 13.5063 1235 62.0696 1234.64 552.661
292 0 96.3652 12.9404 1247 62.2221 1235.07 551.819
293 0 97.4154 12.226 1191 63.7842 1234.98 549.972
294 0 99.3757 13.293 1321 62.8766 1235.2 547.556
295 0 99.3757 13.2628 1318 164.179 1235.2 547.575
296 1 55.1704 11.3648 627 64.2137 1235.11 568.55
297 0 58.1955 11.5129 670 63.4896 1234.79 568.06
298 0 59.2028 12.0096 711 63.2743 1235.32 566.302
299 0 62.1616 12.0332 748 63.0655 1235.37 566.672
300 0 63.1215 12.5314 791 63.2238 1235.3 565.517
301 0 67.1043 12.9947 872 62.0722 1235.68 564.259
302 0 68.1194 12.757 869 63.0713 1235.77 563.189
303 0 69.2063 12.4411 861 63.8908 1236.43 563.249
304 0 72.1719 11.9853 865 64.178 1235.65 562.612
305 0 73.2901 12.239 897 63.9621 1236.29 561.932
306 0 75.3886 12.9861 979 62.906 1236.45 559.244
307 0 78.3898 12.9226 1013 62.6091 1236.62 558.692
308 0 82.4529 13.3167 1098 61.7495 1236.34 556.474
309 0 84.3172 12.9511 1092 62.3773 1236.75 554.844
310 0 86.3081 13.1737 1137 61.8232 1236.43 552.178
311 0 90.4366 13.1142 1186 61.5818 1236.12 551.335
312 0 92.4154 13.039 1205 61.8822 1235.87 550.01
313 0 96.4049 13.4744 1299 60.8453 1236.35 549.086
314 0 98.3116 13.03 1281 61.3193 1235.56 547.581
315 0 100.333 13.3157 1336 61.3757 1236.11 545.632
316 0 103.233 13.1257 1355 61.1638 1236.03 545.058
317 0 105.268 13.5938 1431 60.9015 1235.75 542.417
318 0 110.21 13.6649 1506 60.3254 1235.16 540.76
319 0 113.285 13.1174 1486 60.7968 1235.86 539.858
320 1 57.0854 11.2638 643 61.3344 1235.14 566.939
321 0 61.0503 10.2702 627 61.051 1234.93 567.096
322 0 61.0626 12.479 762 60.1969 1235.27 564.445
323 0 64.1516 13.4213 861 58.4553 1235.19 563.246
324 0 66.0668 13.0323 861 59.2195 1234.96 560.592
325 0 69.1969 11.9225 825 60.2933 1235.16 561.496
326 0 70.1836 12.852 902 59.1341 1235.28 562.487
327 0 72.2109 13.9453 1007 57.7905 1235.28 559.595
328 0 75.1414 12.4698 937 59.0982 1235.49 558.712
329 0 79.2804 13.5847 1077 57.6063 1235.12 557.311
330 0 80.2678 13.1684 1057 57.7673 1234.7 556.893
331 0 84.1818 12.3542 1040 58.6654 1234.51 555.208
332 0 85.2962 12.2162 1042 59.0403 1234.6 553.806
333 0 88.3401 13.0518 1153 58.1995 1234.44 551.742
334 0 91.2962 13.3083 1215 57.8947 1234.8 550.035
335 0 94.2623 12.8471 1211 58.4154 1234.47 550.032
336 0 97.4736 13.4806 1314 57.2565 1233.84 548.802
337 0 99.3672 12.2676 1219 58.9598 1233.63 548.487
338 0 103.239 12.2241 1262 58.8629 1233.94 544.674
339 1 54.1295 10.0869 546 60.0476 1233.12 569.425
340 0 59.1079 12.2657 725 57.4786 1233.32 568.015
341 0 60.0925 12.3809 744 58.0269 1233.06 565.481
342 0 64.1087 13.5863 871 56.1573 1232.93 564.773
343 0 64.108 12.7597 818 57.8936 1233.42 564.361
344 0 67.3022 13.1051 882 57.2166 1233.13 564.176
345 0 68.1289 13.313 907 57.6615 1233.58 561.396
346 0 70.1455 12.7449 894 58.5089 1233.86 560.735
347 0 71.0849 12.9282 919 58.9489 1233.36 561.872
348 0 73.0856 12.1364 887 59.2717 1233.23 560.165
349 0 77.1709 13.5932 1049 57.6559 1233.03 559.915
350 0 81.1929 13.4371 1091 57.3923 1233.16 559.373
351 0 82.0603 13.1367 1078 58.6707 1232.95 557.634
352 0 84.291 13.5246 1140 58.6754 1233.43 555.542
353 0 87.2552 13.237 1155 59.3567 1232.82 554.686
354 0 90.1702 12.9089 1164 59.3935 1233.12 555.003
355 0 95.3158 13.9012 1325 58.5592 1233.68 552.563
356 0 96.3129 14.1622 1364 58.5169 1233.4 550.098
357 0 99.1932 13.6199 1351 59.6491 1233.48 548.987
358 0 102.235 12.9702 1326 60.3265 1233.71 548.844
359 0 106.244 14.5044 1541 58.5165 1233.46 544.969
360 0 109.378 13.8053 1510 59.6649 1233.39 542.439
361 0 109.421 12.5936 1378 60.2714 1233.25 545.58
362 1 59.2264 11.2281 665 59.3098 1233.58 566.552
363 0 63.1811 11.7598 743 57.9677 1233.31 565.724
364 0 66.0903 12.4527 823 56.955 1233.38 564.717
365 0 67.1915 12.829 862 59.1555 1232.6 565.712
366 0 68.1679 12.2198 833 60.461 1232.91 564.731
367 0 70.2105 13.4453 944 59.3136 1233.27 563.561
368 0 72.1241 12.7003 916 60.4814 1233.22 562.898
369 0 74.1495 13.783 1022 60.0078 1233.66 561.146
370 0 77.1453 12.9366 998 60.7275 1233.77 560.904
371 0 78.1865 13.0585 1021 61.2625 1233.91 559.772
372 0 80.1794 13.0208 1044 61.4875 1234 558.039
373 0 82.2974 13.354 1099 61.3858 1233.85 556.94
374 0 88.1962 13.6854 1207 60.6023 1234.15 554.816
375 0 90.2606 13.6715 1234 60.8217 1234.1 554.568
376 0 91.2521 13.5558 1237 60.5247 1233.97 553.524
377 0 94.2154 13.8512 1305 60.177 1234.39 551.411
378 0 96.3176 13.5489 1305 60.8529 1234.82 550.531
379 0 99.268 13.9723 1387 60.4095 1235.2 547.335
380 0 104.235 13.9589 1455 60.1031 1234.82 545.381
381 0 105.285 13.3067 1401 61.0785 1235.53 546.001
382 0 108.337 14.1503 1533 60.3849 1235.31 543.898
383 0 112.357 14.3827 1616 59.7265 1235.63 542.113
384 0 115.365 13.713 1582 60.4324 1236.1 539.115
385 1 64.2218 11.834 760 61.1342 1235.44 564.761
386 0 67.1892 12.4425 836 60.1471 1235.81 561.639
387 0 67.1793 12.0424 809 60.3968 1235.66 563.609
388 0 74.1573 12.8646 954 58.717 1236.08 561.78
389 0 74.2013 12.9243 959 59.6653 1236.32 558.97
390 0 76.1668 12.9978 990 59.6263 1236.41 557.42
391 0 80.1229 13.4918 1081 59.0213 1236.61 556.007
392 0 82.0736 12.4644 1023 60.7419 1236.47 554.002
393 0 85.1774 13.8534 1180 58.8254 1236.56 554.458
394 0 88.1836 13.8801 1224 59.2582 1236.51 552.31
395 0 91.1249 13.0151 1186 60.2411 1236.58 549.918
396 0 92.1495 12.9681 1195 60.6469 1236.88 548.649
397 0 96.1564 14.2788 1373 59.0306 1236.93 546.017
398 0 98.3272 13.567 1334 59.9978 1237.32 546.019
399 0 101.199 13.8242 1399 59.8592 1237.3 544.521
400 0 104.409 12.633 1319 61.4458 1237.5 540.71
401 0 106.153 13.2733 1409 61.1249 1237.53 539.808
402 0 110.257 12.7157 1402 61.2389 1237.41 540.238
403 0 116.224 13.4137 1559 60.4477 1237.73 535.18
404 0 118.161 13.5155 1597 60.34 1237.61 535.611
405 0 120.152 13.4247 1613 61.1606 1237.32 531.21
406 0 128.239 13.6698 1753 59.9932 1237.37 531.59
407 0 132.322 13.1951 1746 61.0567 1237.42 528.084
408 0 136.169 13.3217 1814 61.0314 1237.46 527.077
409 0 140.218 14.1209 1980 60.4167 1237.64 524.301
410 0 146.224 14.3889 2104 59.9686 1237.93 521.645
411 0 151.335 14.3721 2175 60.3766 1237.7 518.989
412 0 156.331 13.9128 2175 60.7457 1237.58 514.48
413 1 92.1279 11.6034 1069 61.0337 1237.23 548.981
414 0 96.1745 13.2987 1279 59.4558 1237.29 545.323
415 0 100.187 12.8459 1287 60.5633 1237.43 543.982
416 0 101.148 12.4767 1262 60.9422 1236.69 543.897
417 0 106.213 12.6256 1341 60.695 1236.72 541.01
418 0 111.409 12.6022 1404 60.5285 1237 537.382
419 1 63.0821 11.0015 694 60.7651 1236.04 562.473
420 0 63.0818 10.2882 649 60.5516 1235.64 564.994
421 0 66.1356 10.3424 684 60.0863 1235.47 564.958
422 0 64.0372 10.7281 687 60.2838 1235.42 562.017
423 0 67.1108 10.4007 698 60.2607 1235.19 563.226
424 0 70.1291 10.9084 765 59.8288 1235.51 560.014
425 0 74.1252 12.1821 903 58.5449 1235.04 558.745
426 0 75.2354 13.1454 989 57.5915 1235.02 557.487
427 0 74.1169 12.5073 927 58.5944 1234.8 556.686
428 0 79.1277 13.3455 1056 57.9413 1234.53 555.017
429 0 80.1465 12.814 1027 58.927 1234.24 555.044
430 0 83.2588 13.5001 1124 58.3728 1234.41 553.963
431 0 87.1045 13.3058 1159 58.1708 1234.22 552.978
432 0 89.1578 14.0537 1253 57.8875 1234.06 552.03
433 0 91.2041 13.6178 1242 58.6667 1234.24 551.258
434 0 93.1022 14.1565 1318 58.7898 1233.79 548.372
435 0 94.2226 13.362 1259 59.6291 1233.88 549.79
436 0 99.143 14.1916 1407 58.6766 1234.09 546.921
437 0 102.08 14.0575 1435 59.0571 1234.35 547.355
438 0 103.147 13.2626 1368 60.9474 1233.95 544.21
439 0 107.103 14.0986 1510 59.7325 1234.41 544.842
440 1 60.1684 11.2518 677 61.099 1233.84 567.814
441 0 60.1543 11.0549 665 62.3173 1233.71 566.941
442 0 63.1505 11.4488 723 61.6044 1233.46 565.528
443 0 65.1048 12.4568 811 59.8545 1233.4 566.03
444 0 68.1122 11.8921 810 60.5198 1234.15 565.233
445 0 70.2411 13.0693 918 59.2298 1233.93 562.967
446 0 72.2116 12.7542 921 59.5125 1233.91 563.435
447 0 75.2561 13.1551 990 59.0545 1233.92 561.362
448 0 78.1838 13.3531 1044 58.4828 1233.44 561.945
449 0 80.1838 14.0178 1124 58.2189 1233.58 559.833
450 0 82.2078 12.9306 1063 59.0781 1233.33 558.643
451 0 86.2151 13.3967 1155 58.316 1233.78 556.963
452 0 87.2568 13.3629 1166 58.5472 1233.55 555.057
453 0 91.3045 13.5481 1237 58.228 1232.79 554.839
454 0 94.1944 13.4828 1270 58.4394 1233.3 554.552
455 0 97.2826 12.9931 1264 59.3434 1232.96 550.966
456 0 100.262 13.2852 1332 58.7785 1232.71 550.046
457 1 51.3306 11.4551 588 59.767 1232.46 573.259
458 0 53.2289 12.1175 645 59.5163 1232.51 572.295
459 0 55.2427 11.2775 623 60.4045 1232.54 572.318
460 0 55.2427 11.2232 620 166.032 1232.53 572.379
461 0 58.2779 12.9552 755 59.7854 1232.73 570.53
462 0 61.3777 12.9526 795 59.6189 1232.94 570.566
463 0 59.3202 13.2501 786 60.4453 1232.84 569.394
464 0 62.1856 13.0577 812 60.6478 1232.89 568.553
465 0 65.3647 12.1625 795 61.9799 1233.05 568.317
466 0 67.353 12.9467 872 61.1686 1232.56 565.927
467 0 69.2801 13.3805 927 60.8371 1232.65 564.99
468 0 73.3433 13.3073 976 60.4488 1232.73 563.999
469 0 75.2573 13.992 1053 59.2023 1232.67 564.361
470 0 77.3361 13.1633 1018 60.7819 1232.81 563.872
471 0 80.5258 13.6975 1103 60.3073 1232.84 560.46
472 0 81.3623 13.6058 1107 60.7145 1232.62 559.629
473 0 83.1995 13.2453 1102 61.5617 1232.87 559.634
474 0 90.2356 14.584 1316 59.2796 1232.51 557.071
475 0 89.3168 13.7488 1228 60.8664 1232.89 556.839
476 0 93.3561 14.1394 1320 60.3917 1233.67 553.976
477 0 95.4092 14.1915 1354 60.836 1233.54 553.268
478 0 94.4191 13.9167 1314 61.7702 1233.07 552.514
479 0 104.313 13.6033 1419 61.2558 1233.16 548.721
480 0 106.356 14.0283 1492 60.9236 1233.45 548.441
481 1 57.1755 11.6309 665 62.997 1233.19 571.582
482 0 58.3421 12.4953 729 62.3128 1233.34 571.059
483 0 61.2673 12.0782 740 62.5459 1233.26 569.866
484 0 63.3815 13.0637 828 61.3913 1233.53 569.371
485 0 66.1685 12.7402 843 60.828 1233.83 567.781
486 0 67.1877 12.8893 866 61.2771 1234.05 566.111
487 0 72.2117 13.3358 963 59.811 1233.69 563.832
488 0 73.2763 12.4051 909 61.1144 1233.59 564.158
489 0 73.2763 12.3778 907 174.142 1232.59 564.165
490 0 78.1512 13.6914 1070 59.7673 1234.1 559.586
491 0 82.1706 13.2042 1085 59.8571 1234.11 560.224
492 0 83.1865 13.5118 1124 59.9751 1234.3 556.492
493 0 85.2479 13.5956 1159 60.113 1234.35 556.36
494 0 88.2166 13.6369 1203 59.9268 1234.53 554.114
495 0 93.3992 13.5761 1268 59.1672 1234.55 553.387
496 0 95.2565 13.2169 1259 60.0429 1234.73 550.75
497 0 99.182 14.1659 1405 59.0135 1234.45 548.964
498 0 101.373 13.2974 1348 59.9288 1234.46 548.841
499 0 104.312 13.5172 1410 59.8475 1234.89 546.453
500 0 108.396 13.9396 1511 59.3024 1234.55 544.152
501 1 58.2062 10.5831 616 60.138 1234.93 572.226
502 0 59.2901 11.3004 670 59.9478 1234.96 570.057
503 0 62.3569 11.7389 732 59.4454 1234.87 568.706
504 0 64.403 12.0647 777 58.6332 1234.33 568.472
505 0 64.3664 12.1958 785 59.693 1234.76 566.041
506 0 68.3172 12.764 872 58.6445 1234.68 564.612
507 0 70.3478 12.3813 871 59.2951 1234.56 563.312
508 0 72.3844 13.0553 945 58.2222 1234.44 563.551
509 0 74.2347 13.363 992 58.4062 1234.31 560.957
510 0 76.2655 12.8761 982 59.3829 1234.31 560.233
511 0 78.3417 13.6326 1068 58.1358 1234.72 558.316
512 0 81.5393 12.914 1053 59.1073 1234.32 558.22
513 0 83.3498 13.1734 1098 59.643 1234.22 556.599
514 0 84.3946 12.6193 1065 60.8272 1234.47 554.823
515 0 90.4596 13.2324 1197 59.4378 1234.86 553.226
516 1 49.4173 10.4417 516 59.843 1234.73 572.971
517 0 50.4581 11.0983 560 58.9964 1234.79 573.791
518 0 52.3138 11.1634 584 58.8305 1234.78 571.07
519 0 55.4062 11.9481 662 57.8912 1234.58 570.94
520 0 55.558 11.5735 643 59.1928 1235.31 569.633
521 0 58.1856 12.2883 715 58.365 1234.39 568.408
522 0 57.2188 12.6182 722 58.3532 1234.75 567.952
523 0 61.3189 11.8234 725 58.8207 1234.82 568.977
524 0 61.2546 12.7337 780 58.0397 1235.58 568.888
525 0 62.2345 13.0635 813 58.2903 1235.28 567.273
526 0 64.2065 12.8803 827 59.0593 1235.4 564.973
527 0 66.1625 12.7263 842 58.709 1235.29 565.113
528 0 69.3701 12.7865 887 58.805 1235.44 561.593
529 0 70.1731 12.7969 898 59.2773 1236.6 561.205
530 0 71.3673 11.8121 843 60.9229 1235.52 560.76
531 0 75.2901 13.2156 995 59.1387 1235.59 559.305
532 0 76.3095 12.2396 934 60.8415 1235.74 559.141
533 0 79.3873 12.924 1026 59.7261 1235.74 556.481
534 0 81.3161 12.5559 1021 60.4721 1235.85 554.726
535 0 84.2201 12.3842 1043 60.3375 1236.1 554.124
536 1 45.4136 9.75478 443 59.8375 1235.63 575.296
537 0 46.3725 10.6097 492 59.3577 1235.09 573.165
538 0 48.293 10.8711 525 59.2476 1235.37 572.168
539 0 50.5155 12.1547 614 57.5537 1235.99 570.876
540 0 51.3847 12.6302 649 57.1587 1235.31 569.438
541 0 51.4918 12.3903 638 58.2602 1235.85 570.058
542 0 52.2488 11.5027 601 59.2995 1234.82 568.907
543 0 55.2936 12.0086 664 58.872 1235.17 568.908
544 0 57.3703 12.9335 742 57.7668 1234.76 566.772
545 0 57.3176 11.1833 641 60.1576 1234.22 567.638
546 0 59.3336 12.9775 770 58.5221 1234.14 566.719
547 0 61.4692 13.275 816 57.1054 1234.18 566.268
548 0 63.3537 12.7064 805 57.6149 1234.5 565.204
549 0 65.5425 13.6095 892 56.6973 1234.85 563.131
550 0 66.5832 13.7122 913 57.345 1234.43 561.366
551 0 68.4667 12.8384 879 57.9932 1234.51 563.572
552 0 70.39 13.411 944 57.5392 1234.06 561.76
553 0 74.4581 13.793 1027 56.9834 1234.07 560.405
554 0 76.4322 13.0835 1000 57.629 1234.2 560.097
555 0 75.4736 12.6137 952 58.8739 1234.63 559.256
556 0 80.3091 13.3982 1076 57.7296 1234.34 556.967
557 1 42.3285 11.0091 466 58.3584 1233.88 576.425
558 0 45.3257 11.8696 538 57.5316 1234 574.593
559 0 47.3282 11.5998 549 57.5483 1234.21 574.015
560 0 47.3388 12.6535 599 56.7346 1233.95 572.584
561 0 49.3522 12.2386 604 56.9321 1233.57 571.548
562 0 51.3176 12.7637 655 55.5664 1233.58 572.081
563 0 50.1912 12.3528 620 57.3355 1233.65 572.277
564 0 53.2604 13.0679 696 56.5216 1233.54 570.559
565 0 55.4091 13.283 736 55.9348 1233.35 570.303
566 0 56.4912 13.2056 746 55.7399 1233.2 569.17
567 0 57.2885 12.1665 697 57.8207 1232.92 569.402
568 0 60.3944 13.5443 818 56.2506 1233.36 567.703
569 0 61.3965 13.2907 816 57.1103 1233.82 565.723
570 0 62.2806 12.9896 809 57.5921 1233.5 566.459
571 0 64.3877 13.3876 862 57.8585 1232.71 565.034
572 0 68.3247 13.1578 899 57.7575 1233.19 564.241
573 0 69.226 12.1775 843 59.1862 1233.18 565.8
574 0 71.4061 13.7383 981 58.5831 1232.43 561.375
575 0 73.1865 13.6637 1000 58.762 1232.27 561.938
576 0 76.3581 13.9736 1067 59.5558 1232.74 559.667
577 0 78.4366 13.0424 1023 61.1926 1231.79 558.628
578 1 43.2335 11.6576 504 62.1329 1231.91 575.938
579 0 45.3161 11.7839 534 61.5618 1231.43 576.288
580 0 47.1762 11.9764 565 61.4212 1231.38 576.173
581 0 50.2816 12.0123 604 61.9156 1231.23 574.326
582 0 50.45 12.4876 630 62.2111 1231.57 573.152
583 0 53.2334 13.0181 693 61.7027 1231.23 572.486
584 0 54.2055 13.2459 718 61.8008 1232.03 572.942
585 0 54.5395 13.1648 718 62.6727 1231.76 571.889
586 0 55.3556 13.0068 720 63.3569 1231.88 571.361
587 0 57.3316 13.2213 758 63.4657 1231.14 571.393
588 0 59.2981 13.4406 797 63.5646 1231.05 570.438
589 0 60.2463 13.1294 791 64.9861 1231.1 569.126
590 0 62.1719 13.6235 847 63.719 1230.88 570.836
591 0 63.2713 13.4974 854 64.3396 1230.65 568.922
592 0 65.4127 13.7588 900 63.9689 1230.7 568.392
593 0 66.2449 12.9519 858 65.3193 1231.09 568.61
594 0 70.3634 14.1835 998 63.0802 1231.36 566.461
595 0 72.3472 13.6978 991 63.0888 1230.86 564.432
596 0 75.406 13.6064 1026 63.1072 1230.93 563.702
597 0 77.3434 13.7956 1067 62.4133 1230.85 565.055
598 0 80.1803 13.8563 1111 61.6868 1231.06 563.347
599 0 83.2398 14.26 1187 61.7742 1230.87 561.35
600 0 85.3823 14.4409 1233 62.0057 1230.67 558.192
601 0 88.2206 13.6023 1200 62.3458 1230.44 556.808
602 0 92.2983 13.7381 1268 61.4803 1230.2 555.311
603 0 95.2991 14.6066 1392 60.1545 1230.51 556.001
604 1 50.1284 11.2112 562 62.2651 1229.81 577.824
605 0 50.0928 12.0776 605 61.0512 1230.48 576.175
606 0 52.1109 12.8572 670 60.0597 1230.78 576.266
607 0 52.1604 12.9984 678 61.174 1231.06 575.246
608 0 54.1249 13.1363 711 62.5921 1230.62 574.371
609 0 56.3398 12.9748 731 62.3324 1231.31 572.631
610 0 58.2362 13.7715 802 61.3441 1231.07 571.769
611 0 58.178 12.5305 729 63.5953 1230.83 571.545
612 0 60.2056 13.022 784 62.6913 1230.65 570.724
613 0 63.1945 13.4664 851 62.4277 1231.05 569.639
614 0 65.1392 13.3407 869 63.0058 1231.35 568.024
615 0 66.2312 13.6341 903 62.7364 1231.44 565.961
616 0 70.2497 13.2385 930 62.486 1230.73 566.608
617 0 73.1571 14.1613 1036 60.8195 1230.98 565.31
618 0 73.1656 12.8886 943 63.2747 1230.89 564.355
619 1 36.0814 10.2546 370 64.4243 1230.54 581.335
620 0 40.0704 10.781 432 64.2222 1230.22 579.426
621 0 39.0792 11.3871 445 64.5034 1230.58 580.184
622 0 43.1083 11.1812 482 64.4647 1230.69 578.803
623 0 45.0729 13.0234 587 62.2998 1231.01 577.503
624 0 45.0909 12.7298 574 63.9895 1231.07 576.406
625 0 49.3987 12.2878 607 63.4201 1231.46 576.786
626 0 49.2036 12.4584 613 64.5302 1231.94 574.785
627 0 52.338 13.7567 720 62.4597 1231.59 574.39
628 0 52.2507 12.8802 673 64.792 1232.02 575.409
629 0 55.2193 13.1114 724 63.7956 1231.81 573.581
630 0 54.3156 13.3295 724 64.3757 1232 573.051
631 0 57.2138 13.703 784 63.537 1231.88 572.08
632 0 59.1321 12.7849 756 64.9709 1231.91 570.731
633 0 59.1982 13.8687 821 63.5067 1232.74 569.275
634 0 63.2144 14.0633 889 62.6187 1232.04 568.957
635 0 66.1586 13.3014 880 63.0125 1232.73 566.517
636 0 67.1787 13.2185 888 63.4403 1232.15 564.804
637 0 71.1281 13.3 946 62.4239 1232.44 564.706
638 0 72.1949 13.3943 967 62.7353 1232.86 563.372
639 0 74.1687 14.6153 1084 61.1024 1232.74 560.35
640 0 78.1391 13.8343 1081 61.3025 1232.34 560.537
641 0 79.3078 13.1891 1046 62.3786 1233.33 560.122
642 1 43.2132 11.1309 481 63.5301 1233.53 576.584
643 0 45.2524 10.6072 480 62.6729 1233.11 575.994
644 0 47.2233 11.1598 527 62.1689 1233.01 574.825
645 0 48.0799 11.5849 557 62.8402 1233.73 575.21
646 0 49.1298 12.8435 631 61.7068 1233.6 572.293
647 0 48.1186 13.3005 640 62.0016 1234.49 571.288
648 0 52.1105 13.3754 697 61.8235 1234.92 569.839
649 0 51.0683 13.1001 669 63.0314 1235.16 569.67
650 0 53.1203 13.6483 725 62.2621 1235.13 568.266
651 0 54.1068 12.5677 680 63.2456 1234.61 568.184
652 0 58.1377 13.1412 764 62.1414 1233.98 566.116
653 0 59.1056 13.7043 810 62.0827 1233.93 566.788
654 0 62.1657 13.1423 817 62.4553 1233.83 565.018
655 0 60.1438 12.8858 775 63.9845 1234.5 564.462
656 0 64.1082 13.1029 840 63.1714 1234.39 564.218
657 0 65.0843 13.3519 869 62.8504 1234.21 564.048
658 0 68.1579 12.9552 883 63.3884 1234.45 561.815
659 0 68.0988 13.2161 900 63.8256 1234.14 559.672
660 0 73.1156 13.8001 1009 62.3756 1234.88 559.82
661 0 75.1403 14.0936 1059 62.0321 1234.53 558.413
662 0 76.0924 13.0631 994 63.7062 1234.44 557.094
663 0 77.1271 13.8213 1066 62.5206 1234.53 555.984
664 0 80.2535 13.3701 1073 63.109 1234.92 554.862
665 0 84.1244 14.4904 1219 61.4274 1235.01 552.414
666 0 86.1956 13.6434 1176 62.4855 1235.02 551.435
667 0 90.1269 13.9248 1255 61.5673 1235.33 549.478
668 0 93.0788 13.5691 1263 62.0372 1235.86 548.865
669 1 51.1675 11.5698 592 61.9409 1235.4 569.127
670 0 52.0638 10.756 560 62.5089 1235.34 570.039
671 0 52.151 11.1407 581 62.2255 1235.51 567.289
672 0 56.1043 13.0649 733 59.6412 1236.41 564.265
673 0 58.1844 13.0447 759 59.6126 1236.18 563.145
674 0 60.1881 13.4578 810 58.8704 1236.43 562.981
675 0 63.2464 13.5028 854 58.5351 1236.27 560.687
676 0 65.1039 13.5015 879 59.1251 1237.01 560.049
677 0 67.1541 12.4192 834 60.0851 1236.8 560.284
678 0 69.1443 12.8427 888 59.4234 1236.77 558.046
679 0 72.2006 13.7672 994 58.1509 1236.88 557.158
680 0 74.2523 13.8043 1025 58.0059 1236.88 555.847
681 0 76.1842 13.7299 1046 58.6711 1237.1 554.388
682 0 78.1738 14.0584 1099 58.6342 1237.09 553.945
683 0 82.4076 13.9914 1153 58.2585 1237.18 554.31
684 0 84.3016 13.9262 1174 59.1175 1237.81 550.756
685 0 87.2867 12.9 1126 60.4218 1237.69 550.999
686 0 89.4042 12.8629 1150 60.827 1236.87 549.429
687 1 50.2372 12.1026 608 60.4704 1237.34 568.901
688 0 52.3766 11.4555 600 61.375 1236.46 567.615
689 0 53.3322 11.4752 612 63.1258 1237.11 564.642
690 0 53.1264 12.2914 653 63.2695 1236.88 563.172
691 0 55.105 12.9026 711 61.3038 1236.88 564.727
692 0 56.1746 12.9418 727 61.597 1236.14 561.878
693 0 57.1467 13.1066 749 61.6008 1236.12 561.776
694 0 59.2996 13.3559 792 61.7058 1235.52 559.915
695 0 59.1522 12.6453 748 63.0214 1235.69 560.635
696 0 62.3834 12.4071 774 62.584 1236.61 561.154
697 0 65.5058 13.4645 882 61.7721 1236.37 558.567
698 0 68.1953 14.6051 996 59.9639 1236.24 557.489
699 0 68.2999 12.899 881 62.6822 1236.36 557.938
700 0 73.4125 13.8941 1020 60.6608 1235.85 556.28
701 0 74.3634 13.0441 970 62.2856 1235.54 554.595
702 0 77.1369 13.7548 1061 61.2507 1235.17 553.087
703 0 80.154 12.9127 1035 62.1691 1235.07 552.568
704 0 81.3261 14.5833 1186 60.6914 1235.29 549.945
705 0 85.2075 12.7688 1088 62.2785 1235.14 549.801
706 0 89.3896 13.9502 1247 60.5325 1235.15 548.464
707 1 45.3136 11.2108 508 61.5039 1234.87 567.657
708 0 47.1935 10.9549 517 61.0174 1234.65 567.526
709 0 48.195 10.8725 524 61.6851 1234.57 566.319
710 0 51.1633 11.9617 612 61.9461 1234.28 565.993
711 0 51.0705 11.9834 612 62.9853 1234.14 564.482
712 0 51.0705 11.9443 610 171.059 1234.15 564.544
713 0 57.2458 12.5249 717 62.2775 1234.73 562.501
714 0 58.2661 12.6317 736 61.8614 1234.74 562.925
715 0 58.1974 12.681 738 62.0501 1234.64 563.547
716 0 60.5887 11.4543 694 63.6023 1234.83 563.022
717 0 64.2826 12.6628 814 62.1855 1234.78 560.028
718 0 65.2547 12.2443 799 63.0413 1235.08 559.049
719 0 69.2685 12.632 875 62.2834 1234.75 556.909
720 0 70.5361 12.8445 906 61.7704 1234.86 556.78
721 0 73.4452 14.2419 1046 59.7916 1234.49 556.137
722 0 76.2989 12.8311 979 61.3718 1234.5 554.556
723 0 78.2359 12.4495 974 62.5318 1234.18 553.831
724 0 82.3084 13.413 1104 60.2301 1233.82 550.821
725 1 44.2096 10.9705 485 62.0495 1233.62 569.027
726 0 44.0652 12.0276 530 59.0434 1233.41 570.089
727 0 44.3364 11.6609 517 60.0677 1233.44 568.089
728 0 49.353 12.1573 600 59.6967 1232.62 573.575
729 0 51.3281 11.67 599 60.1452 1232.76 571.209
730 0 53.3931 11.7618 628 59.7245 1232.64 570.686
731 0 55.4418 12.5898 698 59.1476 1232.85 569.874
732 0 57.2892 13.1788 755 58.2225 1232.97 568.743
733 0 60.1637 13.912 837 56.4409 1232.21 567.025
734 0 58.1847 12.5806 732 59.1585 1232.67 567.153
735 0 61.1778 12.2267 748 58.5668 1232.22 565.782
736 0 63.091 13.7104 865 56.859 1231.72 566.222
737 0 66.2275 13.1667 872 57.3372 1231.74 565.844
738 0 67.2234 14.3551 965 56.5503 1232.12 563.962
739 0 69.3236 13.9779 969 57.0691 1232.09 562.245
740 0 68.163 13.6731 932 57.7575 1232.2 563.023
741 0 71.1534 13.3233 948 58.154 1231.96 560.982
742 0 75.2579 13.1813 992 57.9607 1232.44 560.634
743 0 75.3309 13.3411 1005 58.5692 1232.11 557.991
744 0 77.4347 13.5986 1053 59.0446 1232.14 558.642
745 0 83.4717 13.885 1159 57.7299 1231.62 556.77
746 0 85.4944 14.3518 1227 57.6699 1231.83 556.03
747 0 87.535 13.7202 1201 58.7044 1231.64 553.735
748 0 90.488 13.6482 1235 58.9514 1231.62 553.385
749 1 52.215 10.61 554 59.9675 1231.37 574.148
750 0 52.3022 11.6247 608 59.8865 1231.02 570.569
751 0 55.1016 11.6149 640 59.275 1230.96 570.367
752 0 55.0744 12.0927 666 60.0315 1231.39 568.641
753 0 58.0719 12.4673 724 61.0193 1230.8 569.151
754 0 59.0875 12.6592 748 60.9652 1230.74 568.878
755 0 62.1788 12.85 799 61.1627 1230.95 568.824
756 0 62.0987 13.1404 816 61.4669 1230.7 567.415
757 0 65.2472 13.1347 857 61.4399 1230.44 568.243
758 0 66.1205 13.0671 864 62.4363 1230.74 566.682
759 0 70.114 14.2625 1000 60.997 1230.73 564.987
760 0 71.0871 13.1247 933 62.88 1230.54 565.565
761 0 75.1386 14.0407 1055 60.8502 1230.62 563.655
762 0 75.2717 13.2055 994 62.9054 1231.05 563.467
763 0 79.398 13.5646 1077 63.0696 1231.34 559.991
764 0 82.1184 13.4075 1101 63.9437 1231.22 559.312
765 0 84.2408 14.2805 1203 63.4929 1230.79 557.369
766 0 86.2282 13.5803 1171 64.7541 1230.83 557.048
767 0 89.1831 13.1191 1170 65.0462 1231.12 558.003
768 0 92.3671 13.966 1290 64.0388 1230.77 553.788
769 1 49.0728 11.9414 586 63.3413 1230.5 574.502
770 0 51.0467 11.6364 594 64.4158 1230.4 573.34
771 0 53.0345 11.0494 586 63.6655 1230.94 573.113
772 0 51.0766 12.3344 630 64.973 1230.69 574.137
773 0 56.2013 12.7933 719 64.0946 1230.93 574.494
774 0 55.1699 12.5974 695 64.8691 1230.53 573.147
775 0 58.1683 13.2546 771 63.6952 1230.75 574.379
776 0 59.3065 12.6968 753 65.0531 1230.57 572.843
777 0 60.1718 12.6471 761 65.364 1230.67 571.941
778 0 62.1229 12.9904 807 64.8996 1230.86 570.636
779 0 62.1362 12.7462 792 65.274 1231.14 569.933
780 0 65.1389 12.8034 834 65.6859 1231.08 569.717
781 0 66.1337 12.9284 855 65.8374 1230.96 566.844
782 0 69.1295 12.4115 858 65.6678 1231.14 567.16
783 0 73.1853 13.459 985 64.8365 1231.34 564.277
784 0 76.1235 12.795 974 65.3665 1231.56 563.708
785 0 78.2372 12.3087 963 66.2243 1231.82 562.69
786 0 81.2235 12.9765 1054 65.1812 1232.03 561.915
787 0 84.2828 13.336 1124 65.5489 1232.11 561.032
788 1 45.0649 10.5182 474 66.3418 1231.48 579.627
789 0 48.0746 11.5238 554 65.213 1231.61 577.883
790 0 47.0362 11.9695 563 65.4458 1231.77 578.041
791 0 49.2911 12.0306 593 66.4351 1232.63 574.862
792 0 50.3155 13.0775 658 66.0426 1232.86 573.53
793 0 51.2541 12.9746 665 67.2526 1233.18 572.869
794 0 53.2164 13.3042 708 66.5537 1233.1 573.28
795 0 54.1402 13.502 731 66.4364 1233.03 571.655
796 0 57.1395 12.4782 713 67.2244 1233.07 571.757
797 0 56.2195 12.3978 697 68.3113 1233.74 570.905
798 0 59.1651 12.3722 732 61.612 1234.01 569.168
799 0 62.2505 12.4176 773 61.3752 1233.55 568.265
800 0 63.2666 12.8504 813 60.6593 1234.35 568.483
801 0 65.1515 14.3972 938 58.0896 1234.8 566.242
802 0 68.1696 13.9358 950 59.6547 1234.72 564.549
803 0 69.1528 12.147 840 61.6321 1234.21 565.775
804 0 72.1874 11.8303 854 62.4824 1234 564.213
805 0 75.1079 12.8482 965 61.6259 1234.06 561.739
806 0 75.1054 14.4863 1088 60.6526 1234.3 558.909
807 0 78.0789 13.4223 1048 61.2223 1234.48 557.843
808 0 80.1596 13.8848 1113 61.0036 1234.61 557.132
809 0 82.2004 12.3965 1019 63.2169 1234.12 555.892
810 0 89.2506 13.6806 1221 61.4709 1234.42 554.246
811 1 45.0152 11.3517 511 62.5342 1234.23 575.282
812 0 46.0855 11.5004 530 62.6075 1234.36 575.27
813 0 49.0238 11.5862 568 62.6567 1234.38 574.437
814 0 50.1376 11.9272 598 62.5217 1234.89 573.866
815 0 47.1417 12.1336 572 63.6154 1235.51 573.801
816 0 52.1827 12.5329 654 62.763 1235.07 573.278
817 0 54.1946 11.8462 642 63.9595 1235.08 573.058
818 0 54.1038 11.367 615 64.4341 1234.81 573.369
819 0 57.1769 12.3302 705 63.8652 1234.96 571.912
820 0 57.1769 12.4701 713 162.021 1235.93 571.885
821 0 58.1608 13.9613 812 63.4852 1235.34 569.033
822 0 61.1093 13.304 813 64.385 1234.85 568.686
823 0 62.2406 13.5603 844 64.6126 1235.31 567.436
824 0 64.1578 13.5136 867 64.3968 1234.79 566.573
825 0 65.1586 13.0451 850 65.8176 1234.97 566.814
826 0 67.1631 13.8171 928 65.7241 1234.69 563.974
827 0 70.1462 13.5717 952 65.2563 1234.72 564.735
828 0 70.1335 12.6188 885 66.9537 1235.32 561.706
829 0 75.2338 14.661 1103 63.9411 1235.07 559.842
830 0 79.3171 14.1836 1125 64.0916 1235.39 560.398
831 0 80.0958 14.0082 1122 64.0517 1235.22 557.961
832 0 82.2032 13.5518 1114 65.1795 1235.23 557.827
833 0 84.3954 13.3183 1124 64.9671 1235.31 557.589
834 1 49.159 10.5372 518 65.9961 1235.14 574.942
835 0 50.251 10.6466 535 66.8748 1235.1 573.903
836 0 52.3206 12.8057 670 66.8269 1235.01 571.888
837 0 53.4037 12.1153 647 67.6924 1235.09 572.499
838 0 54.2427 13.624 739 67.0568 1235.24 569.997
839 0 57.2721 13.2525 759 66.9513 1234.77 570.207
840 0 58.2454 12.1555 708 68.0946 1234.54 569.966
841 0 60.2952 12.2398 738 67.7439 1234.36 569.493
842 0 62.3941 12.2287 763 67.4535 1234.59 566.79
843 0 65.1663 12.4297 810 64.8111 1234.34 566.719
844 0 67.0778 11.9265 800 65.5375 1233.88 565.786
845 0 69.1841 10.7539 744 65.5457 1233.97 567.325
846 0 70.1698 12.2132 857 65.6149 1233.93 561.583
847 0 71.1565 13.0417 928 64.6778 1233.57 561.864
848 0 73.1749 12.2173 894 65.3244 1233.61 561.3
849 0 78.4998 13.0319 1023 63.0665 1233.67 560.997
850 0 79.2741 13.1821 1045 63.7589 1233.82 558.201
851 0 83.3419 13.4506 1121 62.942 1233.61 557.454
852 0 82.3211 11.6252 957 65.5862 1232.97 556.473
853 0 85.3548 12.7234 1086 64.5866 1232.95 553.09
854 0 88.3532 12.4274 1098 64.8725 1232.9 552.589
855 0 92.3926 12.2954 1136 64.7342 1233.07 553.087
856 0 94.451 12.6309 1193 65.0427 1233.31 550.823
857 1 52.0793 11.7129 610 65.1197 1232.78 570.154
858 0 53.1695 11.7925 627 65.8836 1232.72 569.485
859 0 57.1226 12.0968 691 64.9088 1232.92 568.165
860 0 57.1655 12.0527 689 65.6444 1232.95 567.402
861 0 57.1655 12.0702 690 145.888 1232.96 567.368
862 0 62.1229 12.8455 798 63.6128 1232.67 566.574
863 0 63.0716 12.8584 811 63.8089 1232.62 564.596
864 0 63.0716 12.9218 815 141.818 1231.63 564.601
865 0 64.1534 12.2987 789 66.9594 1232.04 562.475
866 0 64.1534 12.2519 786 145.702 1232.02 562.49
867 0 73.3036 13.5873 996 66.9026 1232.56 552.828
868 0 73.3036 13.5328 992 147.552 1233.56 552.807
869 0 76.2758 14.0805 1074 68.1574 1232.48 555.392
870 0 78.5787 13.1588 1034 69.9584 1232.16 555.468
871 0 80.309 12.0036 964 72.2811 1232.09 552.351
872 0 85.394 14.1228 1206 68.9279 1232.02 552.324
873 0 83.4989 12.9583 1082 71.4279 1231.8 549.981
874 0 88.3505 13.9331 1231 70.5776 1231.68 547.223
875 0 91.282 13.4857 1231 70.8367 1231.29 547.548
876 0 95.3674 13.6839 1305 71.036 1231.74 544.812
877 0 98.3744 12.981 1277 73.1269 1231.46 544.574
878 0 104.352 13.0136 1358 76.637 1231.84 541.944
879 0 106.241 13.3093 1414 83.9936 1231.49 543.383
880 0 110.234 13.6164 1501 81.0286 1231.49 542.617
881 0 113.413 13.8256 1568 80.5485 1231.9 545.02
882 0 114.466 14.0653 1610 81.4478 1231.74 544.615
883 1 66.3225 13.8716 920 77.3652 1231.44 567.107
884 0 66.3739 14.4936 962 78.2464 1230.89 566.312
885 0 65.5131 13.2187 866 84.1524 1231.14 566.356
886 0 67.3998 14.1098 951 83.2808 1231.3 565.314
887 0 67.3998 14.1395 953 136.588 1230.31 565.331
888 0 66.4001 11.9428 793 70.2358 1231.54 568.73
889 0 66.2642 12.6011 835 60.4814 1231.91 566.679
890 0 69.228 12.885 892 58.1368 1232.22 566.603
891 0 70.1034 12.5672 881 58.6617 1231.7 565.568
892 0 72.2197 12.6835 916 58.7817 1231.7 565.269
893 0 74.117 11.5763 858 59.6597 1232.01 564.671
894 0 75.1524 12.5877 946 59.0127 1233.14 562.133
895 0 77.2907 13.0934 1012 58.8528 1233.11 560.637
896 0 81.3829 13.3935 1090 57.9431 1233.12 560.846
897 0 84.3645 13.4417 1134 58.1878 1233.28 558.292
898 0 87.532 13.0695 1144 59.6748 1232.94 555.964
899 0 90.7082 12.6119 1144 59.9642 1233.01 553.817
900 0 90.7082 12.689 1151 166.475 1233.01 553.796
901 0 96.455 13.9754 1348 58.7122 1234.02 551.835
902 0 97.4758 12.8852 1256 60.4801 1233.91 549.714
903 1 53.1293 11.2556 598 60.689 1233.45 571.249
904 0 53.0991 11.8081 627 58.4211 1233.46 570.494
905 0 58.104 11.1008 645 57.8775 1235.06 561.994
906 0 58.1229 12.1123 704 58.1151 1235.28 557.996
907 0 59.0986 12.183 720 57.6347 1235.31 562.358
908 0 59.0986 12.2676 725 163.337 1235.34 562.286
909 0 64.1174 12.8514 824 57.8641 1234.48 566.032
910 0 66.0868 12.877 851 58.0635 1234.8 564.183
911 0 66.1209 12.7494 843 58.5587 1234.6 563.243
912 0 69.0941 12.0705 834 59.283 1235 564.98
913 0 71.0879 13.0683 929 58.1421 1234.96 561.312
914 0 74.145 12.7183 943 58.2386 1235.22 561.358
915 0 77.0912 13.3608 1030 58.1019 1235.03 559.512
916 0 79.1585 13.7951 1092 57.3608 1235.63 557.913
917 0 80.1129 12.9193 1035 58.57 1235.64 555.64
918 0 84.0997 13.8526 1165 57.2309 1235.79 553.027
919 0 87.1808 13.4892 1176 57.46 1236.08 553.548
920 0 89.1737 13.3784 1193 58.2179 1236.38 552.923
921 0 92.1187 13.3632 1231 58.6824 1236.48 550.777
922 1 51.1085 10.4875 536 59.5187 1236.07 572.114
923 0 52.1408 11.8717 619 57.6236 1236.77 570.601
924 0 53.1389 11.1594 593 57.9275 1237.05 569.435
925 0 56.3292 12.6932 715 56.0154 1237.52 559.178
926 0 56.3545 12.031 678 57.674 1237.39 558.847
927 0 59.3798 11.9569 710 56.1282 1237.17 557.107
928 0 59.3778 12.6141 749 57.0027 1237.74 555.822
929 0 59.3927 12.19 724 58.0069 1237.68 554.544
930 0 63.4197 13.1663 835 56.3269 1237.56 549.563
931 0 66.3813 12.5788 835 57.3808 1237.3 550.438
932 0 68.1641 13.0714 891 57.0516 1237.25 550.735
933 0 68.2632 12.569 858 58.5466 1236.9 554.507
934 0 71.294 12.9744 925 58.3859 1236.91 557.166
935 0 72.101 12.8154 924 59.7024 1236.73 558.184
936 0 75.1186 13.2723 997 59.007 1236.76 556.759
937 0 77.0906 13.5944 1048 58.8063 1236.78 555.565
938 0 78.0857 13.6389 1065 59.3455 1236.33 553.971
939 0 81.165 13.1707 1069 59.9813 1236.14 554.322
940 0 86.2976 13.4187 1158 58.9482 1235.89 552.305
941 1 44.1032 10.4301 460 62.1348 1236.02 570.628
942 0 46.0484 9.98948 460 61.7043 1236.01 570.467
943 0 49.3045 11.6014 572 60.6119 1235.32 568.358
944 0 51.0812 10.8259 553 61.5696 1234.93 567.414
945 0 52.1879 12.4933 652 59.9877 1235.01 567.926
946 0 53.1505 12.7374 677 60.065 1235.43 564.758
947 0 55.1888 12.4663 688 60.5756 1234.18 565.661
948 0 56.1485 12.2888 690 60.5101 1234.19 565.646
949 0 56.0899 12.7652 716 60.5042 1234.61 562.716
950 0 60.2042 12.2583 738 60.1951 1234.72 563.275
951 0 60.1174 12.592 757 60.1229 1234.62 562.432
952 0 63.115 12.3267 778 60.7635 1234.5 561.479
953 0 68.294 12.3437 843 59.8826 1234.23 561.145
954 0 70.2433 12.8126 900 59.3756 1234.56 559.106
955 0 73.3217 13.0112 954 58.9099 1234.24 557.8
956 0 73.4107 13.118 963 59.5545 1234.41 555.602
957 0 77.4056 12.428 962 59.4418 1233.94 556.234
958 0 81.3921 13.5148 1100 57.0164 1233.97 556.127
959 0 80.3227 12.5743 1010 59.2832 1233.99 553.844
960 0 86.2186 12.9438 1116 57.293 1233.54 552.061
961 0 90.333 13.7713 1244 56.082 1233.96 549.92
962 0 91.4353 12.6538 1157 56.5938 1234.12 548.7
963 1 51.1371 12.2416 626 54.893 1234.33 568.562
964 0 50.065 11.1056 556 56.8273 1233.69 568.3
965 0 51.087 12.0774 617 56.41 1233.89 567.019
966 0 54.0857 12.5726 680 55.5103 1234.25 565.421
967 0 54.1067 11.773 637 56.9184 1233.72 564.237
968 0 57.0473 12.4283 709 55.8702 1233.54 563.843
969 0 59.0781 12.5258 740 55.5527 1233.33 563.654
970 0 60.12 13.0406 784 55.0982 1232.98 562.996
971 0 62.0347 12.7026 788 55.2627 1233.59 561.358
972 0 65.0899 13.9653 909 53.5468 1234 559.529
973 0 65.1041 12.7027 827 55.5272 1233.41 559.501
974 0 67.08 13.059 876 54.734 1233.2 559.116
975 0 70.1233 13.7472 964 53.8537 1232.95 557.61
976 0 72.1324 13.1148 946 54.7178 1233.15 555.815
977 0 73.3369 13.4721 988 54.6913 1232.9 555.736
978 0 75.1182 13.6585 1026 54.3889 1232.54 554.241
979 0 79.0967 13.553 1072 54.4543 1232.22 553.448
980 0 81.0899 13.6022 1103 54.9782 1232.56 552.303
981 0 84.156 14.2711 1201 54.1674 1232.57 548.526
982 0 86.0541 13.8982 1196 54.1062 1232.27 550.579
983 0 90.1743 14.6161 1318 53.5865 1232.05 546.558
984 1 47.2027 9.97825 471 56.7983 1231.89 570.008
985 0 50.0961 10.8392 543 57.1455 1232.76 568.142
986 0 51.1358 11.6357 595 56.2118 1232.43 567.64
987 0 52.1082 10.8812 567 56.9277 1232.7 567.804
988 0 54.0136 12.4043 670 55.6164 1232.22 566.633
989 0 57.1047 12.7835 730 54.9712 1232.34 564.855
990 0 56.1763 13.2796 746 55.3753 1232.55 564.922
991 0 60.0843 13.9637 839 53.8844 1232.01 562.783
992 0 63.0937 13.4086 846 53.6797 1231.92 562.251
993 0 65.1222 14.419 939 53.1448 1231.95 562.129
994 0 67.058 13.2572 889 54.8178 1232.12 560.74
995 0 69.2375 13.2876 920 54.9261 1232.18 559.213
996 0 69.1338 12.8302 887 55.752 1232.37 558.971
997 0 72.0965 13.4542 970 55.0629 1231.98 558.42
998 0 73.1392 13.8503 1013 54.7019 1231.95 556.784
999 0 77.1659 13.2571 1023 54.8534 1232.23 556.383
1000 0 78.1655 13.1132 1025 55.6117 1232.35 552.054
1001 0 85.1764 13.9827 1191 53.6037 1231.55 553.282
1002 0 86.2093 14.14 1219 53.3503 1231.82 551.104
1003 0 89.1952 14.5636 1299 52.943 1231.82 549.174
1004 0 91.1297 13.7277 1251 53.8034 1231.46 548.871
1005 1 51.0607 11.9662 611 53.4354 1231.16 569.414
1006 0 50.0933 11.0194 552 53.6449 1230.82 570.281
1007 0 52.1585 11.5801 604 54.8179 1231.58 567.447
1008 0 52.0748 12.2708 639 54.3818 1231.71 568.236
1009 0 56.355 13.5214 762 52.8688 1231.96 567.504
1010 0 55.1611 12.7807 705 54.3872 1231.82 565.925
1011 0 59.0562 13.3432 788 54.3109 1232.06 566.113
1012 0 62.2024 14.0027 871 53.5591 1232.3 564.708
1013 0 61.0994 13.3717 817 55.2766 1231.59 565.268
1014 0 64.2563 13.5395 870 55.0448 1231.93 563.791
1015 0 67.1904 13.6627 918 54.7538 1231.48 561.401
1016 0 68.0948 13.8043 940 54.6691 1231.31 560.802
1017 0 72.144 13.6533 985 54.8426 1232.01 557.978
1018 0 75.1297 14.1622 1064 54.1645 1232.32 558.407
1019 0 76.1283 13.359 1017 55.8515 1232.48 557.912
1020 0 79.1207 13.6121 1077 55.7057 1232.54 555.624
1021 0 81.1118 14.2026 1152 55.0938 1232.38 552.752
1022 0 81.1118 14.2149 1153 165.335 1233.37 552.73
1023 0 86.2247 13.3604 1152 56.7031 1232.64 552.134
1024 0 87.3167 14.0637 1228 56.3689 1232.82 550.775
1025 0 90.1429 13.767 1241 56.7309 1232.8 549.284
1026 0 95.1372 14.2636 1357 55.72 1232.94 546.818
1027 0 98.3191 13.5782 1335 56.4382 1232.78 547.387
1028 0 99.2127 14.1917 1408 56.2855 1233.2 544.633
1029 1 52.1022 10.1147 527 57.871 1232.92 569.22
1030 0 53.1887 11.525 613 56.7618 1233.24 566.847
1031 0 56.2185 12.238 688 56.314 1233.61 567.119
1032 0 57.1697 12.8215 733 55.4761 1233.14 565.734
1033 0 58.0962 12.3588 718 56.8928 1234.12 563.283
1034 0 63.31 13.1733 834 55.4137 1234.09 562.998
1035 0 62.0953 11.9333 741 57.5398 1234.36 563.077
1036 0 65.1906 12.4865 814 56.6904 1234.42 562.023
1037 0 68.2434 11.9425 815 57.1202 1234.68 561.779
1038 0 74.4079 13.0362 970 55.8361 1234.93 557.857
1039 0 73.2677 12.543 919 56.9129 1234.89 557.379
1040 0 76.2027 13.3854 1020 56.2755 1235.58 554.247
1041 0 77.2709 12.8509 993 56.9708 1235.64 553.178
1042 0 80.3847 13.1493 1057 57.018 1235.76 550.909
1043 0 87.3586 13.2557 1158 55.8143 1235.54 551.363
1044 0 88.5764 13.7508 1218 55.8744 1235.61 551.607
1045 0 93.3867 13.3209 1244 56.0989 1236 547.626
1046 0 94.5039 12.264 1159 56.8965 1236.2 547.601
1047 0 96.4644 12.3776 1194 56.8409 1236.16 546.899
1048 0 103.506 13.6127 1409 55.6004 1236.16 543.242
1049 0 105.462 12.7724 1347 56.3846 1236.09 540.271
1050 1 56.2729 11.1954 630 56.5476 1236.17 565.925
1051 0 58.4348 12.2187 714 55.7493 1236.09 564.167
1052 0 59.5046 13.3603 795 54.8176 1236.39 562.26
1053 0 61.2272 13.0988 802 55.4015 1235.94 562.893
1054 0 62.2172 12.4724 776 56.7474 1236.64 560.918
1055 0 65.3124 13.1522 859 55.8417 1236.75 560.243
1056 0 69.1943 13.5416 937 55.5165 1236.8 558.443
1057 0 73.3788 12.5922 924 56.5325 1236.37 558.065
1058 0 73.1779 12.9821 950 57.1832 1236.12 556.451
1059 0 74.26 13.2373 983 56.7752 1236.19 556.002
1060 0 77.441 13.2359 1025 57.1932 1236.3 553.888
1061 0 79.3551 12.8914 1023 57.5425 1236.3 553.826
1062 0 82.3833 12.6967 1046 58.2371 1236.04 549.708
1063 0 86.5099 12.6691 1096 58.0091 1236.05 549.679
1064 1 46.1438 10.5756 488 59.2541 1235.33 568.486
1065 0 47.2943 10.1069 478 60 1235.19 568.621
1066 0 50.3167 11.6264 585 57.5521 1235.95 568.198
1067 0 51.143 12.4357 636 57.7972 1235.9 565.752
1068 0 53.1268 11.9337 634 57.9117 1235.96 566.396
1069 0 55.0851 13.1614 725 56.8124 1235.7 564.654
1070 0 57.6514 12.4368 717 57.4909 1235.61 561.752
1071 0 58.4451 12.6957 742 57.5445 1235.52 560.985
1072 0 61.559 12.3946 763 57.8375 1235.89 558.91
1073 0 61.5675 12.133 747 58.6479 1235.97 559.933
1074 0 64.2948 12.8626 827 58.3543 1236.05 557.133
1075 0 67.355 13.2729 894 57.4866 1235.24 556.329
1076 0 69.3505 12.9631 899 57.7631 1235.09 555.237
1077 0 70.4068 12.8113 902 58.8359 1235.12 551.782
1078 0 72.2947 13.2237 956 58.2981 1234.72 553.029
1079 0 75.5859 13.2961 1005 57.8119 1234.75 552.966
1080 0 77.4734 13.4756 1044 57.999 1234.76 552.097
1081 0 80.4881 13.5175 1088 57.6434 1234.63 549.917
1082 0 83.2446 14.0309 1168 56.9358 1234.94 549.295
1083 0 85.3727 13.4821 1151 58.1494 1234.56 546.652
1084 0 87.2007 13.3141 1161 58.36 1234.75 546.273
1085 0 90.4485 12.8692 1164 58.9596 1234.62 544.76
1086 1 51.2075 10.975 562 60.6014 1234.26 560.922
1087 0 54.2819 11.2376 610 60.0246 1234.15 561.944
1088 0 56.2038 11.2092 630 60.2111 1234.13 561.565
1089 0 56.3101 12.5377 706 59.068 1233.98 561.28
1090 0 59.3342 12.0335 714 59.056 1234.36 559.913
1091 0 60.3739 12.3066 743 58.681 1234.52 560.584
1092 0 60.153 12.7009 764 59.0772 1234.74 560.069
1093 0 63.2798 12.9267 818 58.7408 1234.69 558.619
1094 0 64.4945 13.1639 849 58.6537 1234.9 555.888
1095 0 68.1903 12.9637 884 58.5147 1234.57 556.903
1096 0 71.2987 13.6608 974 57.422 1234.47 556.149
1097 0 72.3913 13.4685 975 57.7118 1234.4 554.53
1098 0 74.4026 13.4404 1000 57.936 1234.42 552.976
1099 0 79.3113 13.7307 1089 57.0551 1234.28 552.56
1100 0 79.3459 13.9642 1108 57.389 1234.25 551.161
1101 0 83.4204 13.2342 1104 57.9909 1233.97 550.709
1102 0 85.3503 13.2044 1127 58.0479 1234.07 549.135
1103 0 89.3011 12.8666 1149 58.47 1233.96 546.03
1104 0 93.2778 14.3764 1341 56.5839 1233.8 545.632
1105 0 96.2015 12.8792 1239 58.2534 1234.09 545.573
1106 0 98.3428 12.914 1270 58 1233.62 543.492
1107 1 52.252 11.8082 617 58.3209 1233.25 565.613
1108 0 53.2426 12.5651 669 57.5097 1233.36 565.126
1109 0 54.1789 12.5141 678 57.6563 1233.32 563.776
1110 0 55.1349 12.6417 697 57.5136 1233.23 562.974
1111 0 57.2248 12.7392 729 57.1701 1233.05 563.062
1112 0 58.2411 13.0836 762 57.1535 1233.28 562.465
1113 0 61.1746 12.6686 775 57.6671 1233.22 560.215
1114 0 62.1703 12.8357 798 57.6078 1232.87 559.549
1115 0 65.3012 13.8589 905 56.2387 1233.05 557.444
1116 0 67.1673 14.1438 950 55.9316 1232.91 556.336
1117 0 69.2556 13.5007 935 56.7037 1232.81 555.226
1118 0 69.1983 13.0206 901 57.8091 1232.7 555.832
1119 0 75.3123 13.517 1018 56.5963 1232.91 554.816
1120 0 76.1606 13.0514 994 57.6499 1232.43 552.444
1121 0 78.2974 13.7552 1077 57.0492 1232.79 550.86
1122 0 82.3067 13.9721 1150 56.513 1232.5 550.642
1123 0 85.2338 13.5862 1158 56.4819 1231.91 549.972
1124 0 89.1815 14.2294 1269 55.3617 1232.32 549.065
1125 1 48.166 11.7095 564 56.9078 1232.21 565.91
1126 0 51.1505 11.0849 567 57.4762 1232.64 566.966
1127 0 49.3009 10.2432 505 58.8218 1232.34 565.584
1128 0 52.1792 11.7288 612 56.9869 1232.49 565.92
1129 0 54.1742 11.703 634 57.0505 1232.58 565.787
1130 0 53.2158 13.1352 699 56.2833 1232.56 563.684
1131 0 57.3023 13.1408 753 55.7131 1232.83 563.462
1132 0 55.11 13.0285 718 56.5515 1232.72 562.343
1133 0 60.1168 13.2409 796 55.4585 1232.86 560.474
1134 0 63.0638 13.5577 855 55.2152 1232.72 558.809
1135 0 65.2846 13.4641 879 55.5097 1232.67 558.391
1136 0 65.2235 13.4001 874 56.46 1232.87 558.24
1137 0 67.2581 12.8758 866 57.1039 1232.84 556.672
1138 0 72.4005 13.2319 958 56.4426 1232.85 554.874
1139 0 73.2716 13.1565 964 56.8745 1232.8 554.176
1140 0 74.1665 13.1326 974 56.9014 1233.26 555.237
1141 0 79.3787 13.4419 1067 57.8594 1233.98 552.607
1142 0 80.2599 13.4937 1083 58.1782 1233.65 550.098
1143 0 83.3251 13.9334 1161 57.8071 1233.79 549.742
1144 0 86.1989 14.1185 1217 57.8291 1234.06 546.539
1145 0 89.1742 13.1092 1169 59.1899 1234.35 547.017
1146 0 90.1236 13.9031 1253 59.1069 1234.29 545.339
1147 0 95.3134 13.6707 1303 59.0852 1234.51 543.149
1148 0 98.2764 13.6147 1338 58.9783 1234.35 543.57
1149 1 54.2099 10.8836 590 61.4424 1234.89 561.597
1150 0 54.1754 11.1674 605 61.2479 1234.75 562.337
1151 0 59.1484 12.308 728 60.0316 1235.15 560.902
1152 0 60.1335 13.8858 835 57.885 1235.55 560.089
1153 0 64.1506 12.8136 822 58.4562 1235.95 560.566
1154 0 66.2493 14.4303 956 56.1998 1235.64 558.827
1155 0 69.4458 14.5293 1009 56.0872 1235.78 557.176
1156 0 69.5352 14.1367 983 57.1221 1236.41 555.68
1157 0 71.2865 13.8315 986 58.0568 1236.7 553.938
1158 0 72.1926 13.1592 950 58.6263 1237.06 551.735
1159 0 75.5246 13.5453 1023 57.6256 1237.54 552.174
1160 0 77.2921 12.7697 987 59.6505 1237.22 547.875
1161 0 82.4291 13.4055 1105 58.0968 1237.22 547.407
1162 0 87.3481 14.093 1231 56.7774 1237.38 545.999
1163 0 89.4571 13.8167 1236 57.5688 1237.6 543.455
1164 0 91.191 13.5978 1240 57.9323 1237.71 541.535
1165 0 96.4477 14.018 1352 56.7892 1237.58 541.283
1166 0 100.385 13.9364 1399 56.8785 1236.48 538.935
1167 1 53.3074 10.3738 553 59.6076 1237.28 560.826
1168 0 56.3149 9.94407 560 59.3143 1238.1 559.938
1169 0 57.3109 11.8302 678 57.3938 1237.93 560.494
1170 0 57.4001 11.7247 673 58.2273 1237.85 558.862
1171 0 61.2137 12.3502 756 56.5833 1237.82 558.688
1172 0 62.3623 12.3632 771 56.9598 1238.31 556.2
1173 0 62.3623 12.3632 771 150.014 1238.31 556.2
1174 0 66.2498 12.6189 836 56.8589 1238.17 553.293
1175 0 67.2066 11.8143 794 57.8186 1238.57 554.297
1176 0 72.5593 13.4648 977 55.2323 1238.74 553.189
1177 0 72.2544 12.1238 876 57.3927 1238.18 551.852
1178 0 77.3047 14.0871 1089 54.6915 1238.72 552.91
1179 0 77.3047 14.0871 1089 153.766 1238.72 552.91
1180 0 81.4981 13.3623 1089 56.4444 1238.96 548.755
1181 0 81.2933 13.0269 1059 57.4259 1238.94 546.726
1182 0 85.6542 13.6012 1165 56.3837 1238.33 546.439
1183 0 90.3283 13.1963 1192 56.3691 1238.44 545.691
1184 0 91.2771 13.4426 1227 56.6895 1237.92 543.387
1185 0 94.3176 14.2603 1345 55.4825 1237.47 541.879
1186 0 97.3527 13.3432 1299 56.9253 1237.79 539.88
1187 0 102.602 14.4052 1478 55.5744 1237.64 539.7
1188 0 102.209 11.9266 1219 58.4922 1237.76 538.002
1189 1 56.276 9.73773 548 59.2883 1237.17 558.641
1190 0 62.2243 10.6871 665 57.0015 1237.25 560.209
1191 0 62.2727 10.9679 683 56.2972 1237.68 562.013
1192 0 64.3476 11.0804 713 56.756 1237.5 558.921
1193 0 64.3428 10.8792 700 57.83 1237.2 557.213
1194 0 69.3329 11.928 827 56.0593 1237.13 555.773
1195 0 71.2765 13.2161 942 54.828 1237.15 554.798
1196 0 72.1976 12.8952 931 55.2535 1236.68 554.822
1197 0 73.2301 12.3993 908 56.3304 1236.04 553.235
1198 0 75.388 12.1107 913 56.9233 1236.05 549.548
1199 0 76.2295 12.423 947 56.6463 1236.04 551.258
1200 0 81.3272 13.1567 1070 55.6579 1235.54 549.406
1201 0 82.3465 13.2489 1091 56.0055 1236.01 547.674
1202 0 86.2559 13.286 1146 55.8124 1236.11 547.301
1203 0 90.353 12.2187 1104 56.9212 1235.72 546.034
1204 0 92.3097 13.0105 1201 56.3838 1235.9 543.739
1205 0 95.2279 14.0925 1342 55.1252 1235.91 541.542
1206 0 98.5525 13.3229 1313 55.8431 1236.42 538.794
1207 0 101.362 14.2066 1440 55.2438 1236.35 539.984
1208 0 103.246 13.8407 1429 55.4913 1235.94 541.271
1209 0 110.361 14.1354 1560 54.9083 1236.02 537.014
1210 0 111.25 13.9236 1549 54.7256 1235.94 536.69
1211 0 115.409 13.6731 1578 54.9436 1235.35 535.129
1212 1 65.1799 10.5247 686 56.7114 1235.08 558.392
1213 0 67.3445 12.3247 830 54.6783 1235.25 558.698
1214 0 66.7097 11.5276 769 56.104 1235.1 555.601
1215 0 69.3325 12.2309 848 55.5908 1234.94 555.346
1216 0 73.2919 12.307 902 54.7772 1234.37 554.884
1217 0 75.4119 12.4384 938 54.6493 1234.37 554.155
1218 0 77.3637 12.577 973 54.7955 1234.03 551.753
1219 0 78.5172 13.1054 1029 54.5442 1233.74 552.096
1220 0 84.5064 13.4664 1138 53.6995 1234.05 550.11
1221 0 84.6515 12.8409 1087 54.5943 1234.15 548.149
1222 0 88.6217 12.8975 1143 54.3027 1233.94 548.534
1223 0 93.5857 13.7414 1286 53.1299 1233.16 546.557
1224 0 94.5071 12.2001 1153 54.9497 1232.91 545.836
1225 0 98.7171 13.7362 1356 53.4086 1231.17 545.349
1226 0 102.6 13.7135 1407 53.4819 1233.25 545.409
1227 0 102.599 13.119 1346 54.6582 1233.28 540.681
1228 0 105.566 13.2524 1399 54.6555 1233.38 539.294
1229 0 110.595 13.8704 1534 53.6102 1232.83 538.346
1230 1 61.4056 10.9762 674 55.1172 1233.44 561.399
1231 0 61.5874 10.4729 645 55.7194 1233.24 562.112
1232 0 64.4947 10.9001 703 55.2817 1233.07 561.553
1233 0 67.3478 12.0865 814 53.8636 1232.89 560.674
1234 0 69.4684 12.682 881 53.7083 1233.22 558.024
1235 0 72.491 12.2084 885 54.2972 1232.94 557.689
1236 0 72.508 12.2883 891 54.6139 1233.18 556.774
1237 0 74.574 13.2218 986 53.7606 1232.99 556.17
1238 0 76.3997 12.1859 931 55.2578 1232.8 554.347
1239 0 79.4502 12.9515 1029 54.31 1232.42 554.288
1240 0 81.6555 13.6549 1115 54.3139 1232.72 552.795
1241 0 83.5398 13.3709 1117 54.6267 1232.62 551.098
1242 0 84.555 13.4587 1138 54.8093 1232.29 550.343
1243 0 89.4905 13.6327 1220 54.677 1232.63 550.355
1244 0 92.4465 13.2293 1223 55.3246 1232.78 549.458
1245 0 95.5194 13.7878 1317 54.8254 1232.64 547.869
1246 0 96.3831 13.2907 1281 56.2724 1232.48 545.064
1247 0 98.3837 13.8133 1359 56.1413 1232.58 544.194
1248 0 103.622 13.2307 1371 57.8935 1232.87 542.685
1249 0 104.659 13.2048 1382 58.7135 1232.76 539.995
1250 0 109.512 14.0624 1540 57.3578 1233 542.769
1251 0 112.532 13.7739 1550 58.4613 1233.35 536.693
1252 0 115.349 14.1137 1628 58.5964 1233.18 535.113
1253 0 117.626 13.4749 1585 59.2524 1233.05 533.354
1254 0 121.451 13.4622 1635 59.9878 1233.14 532.831
1255 1 69.2065 11.2851 781 59.8297 1233.18 556.659
1256 0 73.2555 11.3439 831 59.556 1233.47 554.97
1257 0 75.2841 12.4063 934 58.8844 1233.63 553.772
1258 0 76.2584 12.1167 924 60.0519 1233.4 550.868
1259 0 78.0889 11.9863 936 60.2906 1233.32 550.275
1260 0 83.2437 12.1331 1010 59.4238 1233.15 550.98
1261 0 85.3001 12.1805 1039 60.3176 1233.56 546.745
1262 0 89.2136 12.4757 1113 59.6343 1233.55 546.83
1263 0 93.4433 13.4199 1254 58.4386 1233.95 545.447
1264 0 95.294 12.9389 1233 59.6813 1234.45 543.931
1265 0 98.1496 12.4096 1218 60.3933 1234.43 540.943
1266 0 101.185 13.332 1349 59.6857 1234.94 538.225
1267 0 105.223 13.343 1404 59.7671 1235.16 537.629
1268 0 108.264 13.0422 1412 60.6225 1235.45 534.01
1269 0 110.241 13.1167 1446 60.778 1235.4 534.574
1270 0 115.246 13.6143 1569 59.9809 1235.45 533.21
1271 0 119.196 13.0205 1552 60.886 1235.68 531.323
1272 1 72.1128 9.88729 713 59.425 1235.77 561.482
1273 0 72.0791 10.322 744 60.0121 1236.37 560.515
1274 0 74.1165 10.9152 809 59.2237 1236.33 557.475
1275 0 77.3324 11.4312 884 58.4491 1237.27 558.259
1276 0 79.3457 11.0025 873 59.5762 1236.61 557.316
1277 0 82.17 11.7318 964 58.1846 1237.31 555.188
1278 0 83.1551 12.0257 1000 58.052 1237.54 551.866
1279 0 85.2486 12.2935 1048 57.4342 1237.53 553.921
1280 0 88.1691 11.4326 1008 58.623 1237.5 551.419
1281 0 91.3305 11.2777 1030 57.9078 1237.92 550.792
1282 0 94.208 11.8567 1117 57.1316 1237.85 548.177
1283 0 95.2921 11.428 1089 57.9412 1238.57 546.408
1284 0 101.433 11.0812 1124 57.7473 1238.85 545.051
1285 0 103.263 11.4175 1179 57.4207 1238.63 542.347
1286 0 107.46 12.7024 1365 55.5187 1238.76 541.352
1287 0 109.616 11.7501 1288 55.972 1238.9 540.495
1288 0 111.563 11.6347 1298 56.7219 1238.8 538.609
1289 0 115.46 11.9955 1385 56.2224 1238.5 537.092
1290 0 119.519 12.2073 1459 55.9986 1238.22 533.907
1291 0 123.442 12.2811 1516 55.876 1238.58 533.377
1292 0 127.443 11.1501 1421 57.1717 1238.48 530.25
1293 0 130.777 11.9363 1561 55.893 1238.78 528.268
1294 0 135.578 12.5094 1696 55.6456 1238.95 520.87
1295 0 139.598 12.2279 1707 55.8711 1238.53 524.487
1296 0 143.415 13.053 1872 55.6442 1238.41 519.025
1297 0 146.761 12.6055 1850 56.5168 1238.66 516.482
1298 0 150.413 12.3393 1856 56.5566 1238.63 515.985
1299 0 155.577 13.0675 2033 55.967 1239.14 512.256
1300 0 160.619 13.6347 2190 55.7082 1239.38 509.2
1301 0 163.404 13.127 2145 56.779 1238.71 506.501
1302 0 167.47 12.9814 2174 57.3252 1238.75 502.882
1303 0 172.559 13.3346 2301 56.7171 1238.83 501.504
1304 0 177.629 12.9934 2308 57.0563 1238.72 499.753
1305 0 182.353 13.5726 2475 56.7527 1238.72 497.238
1306 0 187.512 13.7218 2573 56.8896 1238.49 495.378
1307 0 192.408 13.3518 2569 57.3313 1239.14 491.162
1308 1 44.3041 9.18651 407 52.3636 1237.56 568.963
1309 0 44.1057 8.88774 392 53.1199 1237.85 566.995
1310 0 48.1849 9.81635 473 51.0338 1238.34 569.592
1311 0 48.0752 9.50593 457 49.2407 1236.86 572.352
1312 0 50.1195 9.65693 484 49.7707 1237.27 569.198
1313 0 50.1501 10.7079 537 48.9646 1236.5 569.633
1314 0 49.1066 8.77683 431 51.3295 1236.65 570.905
1315 0 53.3302 9.4693 505 50.1406 1236.08 570.129
1316 0 54.3071 10.8089 587 49.4532 1235.56 570.991
1317 0 56.1535 10.4713 588 49.6224 1235.7 570.764
1318 0 57.2819 10.4745 600 49.7017 1235.9 567.292
1319 0 58.2136 9.4995 553 50.3038 1235.74 568.573
1320 0 62.1578 11.4547 712 49.868 1235.54 565.202
1321 0 64.2673 11.0476 710 51.0535 1235.64 565.906
1322 0 64.3538 11.2969 727 50.3535 1235.5 565.305
1323 0 65.2712 12.2719 801 50.2447 1235.18 562.68
1324 0 67.3335 10.4554 704 51.1491 1234.68 564.091
1325 0 69.3116 12.2635 850 49.7494 1234.72 561.126
1326 0 71.29 11.4181 814 50.6413 1234.49 561.776
1327 0 73.2112 10.8453 794 51.2317 1234.59 561.602
1328 0 74.2573 12.0392 894 50.274 1234.32 559.629
1329 0 76.3644 12.113 925 50.6151 1233.81 558.485
1330 0 76.3644 12.1261 926 139.971 1232.82 558.495
1331 0 79.1408 12.1556 962 50.9397 1234.06 556.8
1332 0 82.3067 11.8095 972 50.0864 1234.11 554.94
1333 0 82.2229 11.8702 976 50.5645 1234.04 554.453
1334 0 84.244 12.0602 1016 52.7795 1234.83 554.589
1335 0 89.2006 12.3318 1100 51.2864 1234.21 553.812
1336 0 91.3307 12.0441 1100 51.69 1234.29 550.081
1337 0 96.2554 12.5084 1204 50.5664 1234.41 547.841
1338 1 53.0959 10.0761 535 50.7589 1234.44 570.594
1339 0 54.3581 10.578 575 49.7843 1235.16 565.315
1340 0 57.4997 10.5914 609 50.0657 1235.61 564.039
1341 0 55.1889 10.6 585 50.3624 1234.5 565.573
1342 0 57.1702 10.6874 611 48.3797 1234.61 565.678
1343 0 57.2433 10.5689 605 49.1934 1234.75 562.972
1344 0 62.3138 11.8914 741 48.6451 1235.52 567.907
1345 0 63.1616 11.526 728 48.9588 1235.47 567.31
1346 0 65.3457 12.0896 790 48.5342 1235.27 566.346
1347 0 66.5016 12.12 806 48.7556 1235.16 566.998
1348 0 69.5122 12.3144 856 48.1659 1234.93 567.516
1349 0 70.4291 11.4015 803 49.8032 1234.82 563.702
1350 0 74.2464 12.1487 902 49.2417 1234.51 562.851
1351 0 75.3665 12.552 946 48.9027 1234.43 563.203
1352 0 76.5753 12.4844 956 49.6464 1234.2 561.382
1353 0 76.4503 12.688 970 50.1536 1233.74 560.011
1354 0 80.3265 12.9347 1039 49.8422 1233.41 559.717
1355 0 82.4688 14.2478 1175 48.863 1232.96 558.055
1356 0 84.3281 12.5107 1055 51.2815 1232.61 558.241
1357 0 86.2387 12.7785 1102 51.1025 1232.69 557.225
1358 0 87.152 12.6561 1103 51.9257 1232.25 555.869
1359 0 89.6068 13.0013 1165 51.7725 1232.16 555.958
1360 0 94.4085 13.3886 1264 51.3006 1231.88 553.23
1361 0 95.5571 13.1126 1253 51.6457 1232.28 551.766
1362 1 53.2642 10.1757 542 54.4797 1232 574.269
1363 0 53.3438 10.7416 573 54.2984 1231.87 571.983
1364 0 53.3438 10.7041 571 164.944 1231.89 571.993
1365 0 58.3557 11.7555 686 53.672 1231.84 570.292
1366 0 61.3233 12.4912 766 52.889 1232.12 570.551
1367 0 58.0855 11.9651 695 52.5698 1232.9 567.404
1368 0 62.1882 12.8642 800 51.2488 1232.1 566.44
1369 0 64.2001 12.5389 805 51.9292 1232.34 565.301
1370 0 64.3135 11.8327 761 53.3403 1232.7 564.16
1371 0 65.2581 12.1211 791 53.3047 1232.45 563.42
1372 0 67.3115 12.5833 847 53.0543 1232.47 564.975
1373 0 68.148 13.0011 886 53.4334 1232.72 564.044
1374 0 71.1983 13.343 950 53.0295 1232.45 561.092
1375 0 73.1425 13.2344 968 53.0868 1232.75 560.807
1376 0 75.0797 12.5999 946 54.1395 1232.03 561.24
1377 0 76.182 12.352 941 55.118 1232.43 559.752
1378 0 78.2041 13.4264 1050 54.1114 1232.62 557.408
1379 0 81.166 13.3184 1081 54.4635 1232.97 556.185
1380 0 86.4259 13.1442 1136 54.0783 1233.02 556.116
1381 0 85.1477 12.6134 1074 54.9655 1232.92 554.648
1382 0 91.2682 13.0604 1192 52.0495 1233.09 550.907
1383 0 94.3057 12.9897 1225 51.5584 1233.37 551.282
1384 1 49.1924 10.1235 498 53.4137 1233.2 573.211
1385 0 52.1618 10.1415 529 54.4083 1233.42 572.554
1386 0 54.1268 9.88419 535 54.6729 1233.38 571.536
1387 0 55.0654 12.1674 670 53.0522 1232.96 572.354
1388 0 56.1373 12.3447 693 53.3016 1232.73 569.059
1389 0 55.2757 11.4336 632 54.2405 1232 569.296
1390 0 58.1502 12.2098 710 53.9493 1231.81 570.383
1391 0 59.0645 12.9519 765 53.5333 1232.11 568.17
1392 0 62.1096 13.3635 830 53.4313 1232.67 566.454
1393 0 64.0738 13.7966 884 52.7839 1232.66 564.683
1394 0 67.0916 12.6096 846 53.039 1233.09 565.132
1395 0 67.0821 13.0735 877 53.5872 1233.27 564.022
1396 0 70.0602 12.2181 856 54.3259 1233.78 562.539
1397 0 73.2093 13.6868 1002 52.3303 1233.64 561.473
1398 0 75.0517 13.9504 1047 52.3142 1234.23 559.563
1399 0 78.1467 13.1675 1029 53.4325 1234.53 558.751
1400 0 80.2036 13.7525 1103 52.6854 1234.61 557.994
1401 0 81.1381 13.0765 1061 54.0302 1234.26 555.991
1402 0 85.2317 12.7535 1087 53.9908 1234.72 556.713
1403 0 86.1157 13.1567 1133 54.7555 1234.66 555.408
1404 0 91.3022 14.1399 1291 53.3741 1234.94 553.15
1405 0 93.2726 13.5946 1268 54.209 1235.6 552.311
1406 0 98.0942 14.0783 1381 52.8052 1236.23 552.673
1407 0 101.317 13.7193 1390 53.9036 1236.66 548.447
1408 0 104.204 14.2413 1484 52.9757 1236.75 548.759
1409 1 60.1804 10.8175 651 55.4885 1236.93 569.688
1410 0 61.031 11.0927 677 54.4638 1236.89 568.851
1411 0 66.1773 11.3483 751 54.02 1237.32 568.357
1412 0 66.1875 12.1926 807 53.6183 1237.74 567.689
1413 0 69.1047 12.6041 871 52.6774 1237.23 564.246
1414 0 72.2111 13.0451 942 51.8854 1237.15 562.744
1415 0 74.3002 12.2476 910 52.9154 1237.2 562.582
1416 0 75.3026 12.7087 957 52.4389 1237.46 562.39
1417 0 78.3181 12.6408 990 52.2 1237.89 559.783
1418 0 80.3953 12.451 1001 52.8551 1237.34 557.242
1419 0 83.4066 12.7808 1066 52.1407 1237.44 556.547
1420 0 84.3744 12.6223 1065 52.0742 1236.96 557.211
1421 0 87.3277 12.287 1073 52.3821 1236.97 555.64
1422 0 91.281 13.6392 1245 51.5888 1237.31 551.337
1423 0 93.4857 12.5153 1170 52.6154 1237.21 552.632
1424 0 99.3457 13.6594 1357 51.6168 1237.2 549.791
1425 0 99.2909 13.4756 1338 51.9664 1237.52 546.961
1426 0 102.349 12.4671 1276 53.4052 1237.54 545.986
1427 0 108.437 12.9107 1400 52.6664 1237.29 543.851
1428 0 108.301 12.5484 1359 53.4099 1237.77 541.824
1429 0 113.369 12.8518 1457 52.873 1237.67 541.142
1430 0 116.373 14.0841 1639 51.6492 1237.28 538.327
1431 1 66.2666 10.5936 702 52.2037 1236.63 566.744
1432 0 69.3004 11.5007 797 50.6524 1236.38 565.519
1433 0 72.1877 12.1766 879 50.7304 1236.64 564.304
1434 0 73.1379 12.702 929 51.5038 1236.48 560.405
1435 0 75.1332 11.646 875 52.6091 1236.48 559.731
1436 0 77.4036 12.4025 960 52.5875 1236.82 557.981
1437 0 79.2757 11.0122 873 54.0092 1236.84 558.827
1438 0 84.2124 12.9553 1091 52.1467 1236.74 555.803
1439 0 84.3265 12.7006 1071 52.8945 1236.68 554.267
1440 0 88.3557 12.9929 1148 51.5889 1236.26 554.385
1441 0 90.2052 12.6933 1145 52.3755 1236.22 553.39
1442 0 92.24 13.2806 1225 51.6318 1236.29 550.486
1443 0 97.3502 13.0662 1272 51.489 1235.77 549.357
1444 0 98.157 12.8264 1259 51.8785 1235.4 549.436
1445 0 101.186 12.7983 1295 52.2185 1235.43 546.692
1446 0 105.35 12.7101 1339 51.9656 1235.67 546.084
1447 0 107.411 12.7641 1371 52.1699 1235.27 543.58
1448 0 110.264 12.9688 1430 52.3252 1236.45 542.663
1449 0 115.24 13.4241 1547 51.7815 1236.31 543.643
1450 0 118.34 12.6162 1493 53.1976 1235.8 538.123
1451 0 123.529 13.5434 1673 51.9725 1235.25 537.147
1452 1 68.3327 10.0684 688 52.2384 1234.75 566.581
1453 0 71.4281 9.95407 711 53.1955 1234.95 564.48
1454 0 76.2245 11.8597 904 50.9082 1235.42 562.235
1455 0 75.1998 11.2899 849 52.4688 1235.45 562.439
1456 0 78.1874 11.0504 864 53.2361 1234.61 559.87
1457 0 81.2385 12.0879 982 50.8849 1234.86 558.683
1458 0 84.2213 12.6096 1062 50.4379 1234.73 556.509
1459 0 87.2896 12.4872 1090 50.8679 1234.9 556.759
1460 0 88.2933 11.7563 1038 51.9133 1235.05 554.416
1461 0 93.1615 12.2905 1145 50.8987 1234.47 552.811
1462 0 95.0857 12.3993 1179 50.9211 1234.11 553.919
1463 0 98.1364 11.7897 1157 52.1003 1234.14 551.054
1464 0 100.29 12.2445 1228 52.1246 1233.55 548.268
1465 0 103.211 12.4309 1283 52.021 1233.8 546.175
1466 0 107.176 12.7733 1369 51.057 1232.77 545.98
1467 0 109.156 13.018 1421 52.0267 1233.07 543.771
1468 0 112.205 12.9228 1450 51.6221 1233.06 543.966
1469 0 117.246 13.3906 1570 51.2038 1233.19 540.594
1470 0 120.37 12.6361 1521 52.0763 1233.69 541.087
1471 0 122.39 12.7135 1556 52.2211 1233.23 537.379
1472 0 129.317 12.8986 1668 51.3124 1232.83 536.981
1473 0 132.424 12.83 1699 51.196 1232.67 536.685
1474 1 70.2726 10.0893 709 51.0832 1232.38 569.052
1475 0 71.2106 11.1641 795 50.9296 1232.01 566.239
1476 0 74.2402 12.0151 892 50.2556 1231.49 564.591
1477 0 75.145 11.4179 858 51.6282 1232.16 563.589
1478 0 78.0511 12.9659 1012 50.4704 1232.04 560.96
1479 0 79.1105 11.781 932 51.7994 1231.37 559.508
1480 0 82.0675 12.4897 1025 50.96 1231.68 558.872
1481 0 84.2637 11.8438 998 51.9188 1231.61 557.448
1482 0 87.0595 12.5317 1091 51.0678 1231.85 557.301
1483 0 90.1476 12.1246 1093 51.7301 1231.76 555.052
1484 0 94.1166 12.2826 1156 51.3356 1232.02 556.445
1485 0 96.1367 12.8151 1232 51.431 1232.52 551.515
1486 0 100.093 11.9689 1198 52.6361 1232.56 549.427
1487 0 103.139 12.9728 1338 51.7549 1232.96 548.149
1488 0 107.269 12.408 1331 52.4711 1233.31 547.257
1489 0 110.355 13.1303 1449 51.9296 1232.84 544.981
1490 0 111.4 13.1059 1460 52.1411 1233.19 543.562
1491 0 115.518 13.1754 1522 51.958 1233.31 541.38
1492 0 117.427 13.0719 1535 52.9309 1232.99 539.485
1493 0 120.607 13.1086 1581 52.9583 1233.15 538.382
1494 0 124.85 12.8394 1603 52.9333 1232.76 534.946
1495 0 127.59 13.2142 1686 52.8938 1232.94 533.203
1496 0 133.66 13.3623 1786 52.5084 1233.18 532.75
1497 1 78.3486 10.3512 811 52.9223 1232.63 562.628
1498 0 79.302 11.6391 923 52.5688 1232.38 560.27
1499 0 82.3812 11.374 937 53.9861 1232.91 559.321
1500 0 83.3969 11.835 987 54.2533 1233.27 557.267
1501 0 86.2958 12.3992 1070 53.9766 1233.37 555.72
1502 0 89.3747 12.7105 1136 54.0167 1233.39 554.408
1503 0 92.3899 12.6421 1168 54.4161 1233.02 553.173
1504 0 95.5089 13.004 1242 54.6127 1233.28 551.586
1505 0 97.4113 12.5242 1220 55.5213 1233.62 549.428
1506 0 102.504 12.9848 1331 54.997 1233.45 546.446
1507 0 104.412 12.987 1356 55.3717 1233.73 547.302
1508 0 107.483 13.965 1501 54.3658 1234.1 545.493
1509 0 110.542 13.3886 1480 54.8797 1234.3 543.563
1510 0 115.345 13.4552 1552 54.953 1234.3 541.997
1511 0 116.451 14.0918 1641 55.131 1234.73 540.945
1512 0 120.547 13.7872 1662 55.6721 1235.27 538.966
1513 0 123.505 12.8011 1581 57.3257 1235.45 537.039
1514 0 127.37 13.6531 1739 56.5423 1235.66 534.13
1515 0 132.537 13.815 1831 56.3643 1235.97 534.491
1516 0 135.368 13.8438 1874 56.4578 1236.23 530.123
1517 1 73.1121 11.5302 843 58.4484 1236.4 561.613
1518 0 75.0986 12.3305 926 57.0626 1236.8 560.992
1519 0 78.1053 12.688 991 57.0575 1237.32 558.86
1520 0 78.0933 12.6131 985 56.2548 1238.02 555.212
1521 0 82.1725 12.8754 1058 56.0473 1238.26 554.422
1522 0 84.1668 13.6633 1150 55.3565 1238.37 551.637
1523 0 89.161 13.8065 1231 54.7222 1238.4 549.045
1524 0 90.1623 13.0542 1177 55.7825 1238.77 550.27
1525 0 93.2523 13.5439 1263 55.3579 1238.72 546.989
1526 0 96.1554 13.343 1283 55.8387 1238.33 546.786
1527 0 98.1492 13.1636 1292 55.3955 1238.22 547.045
1528 0 104.16 13.8057 1438 54.249 1238.44 544.981
1529 0 106.254 13.8536 1472 54.1087 1238.44 542.274
1530 0 108.116 13.4671 1456 54.8338 1238.85 542.462
1531 0 109.1 13.6755 1492 54.7594 1238.53 539.308
1532 0 116.172 13.9707 1623 54.7991 1238.37 538.209
1533 1 58.0626 10.4887 609 58.1445 1238.67 569.683
1534 0 62.2137 12.3445 768 55.8737 1238.24 564.531
1535 0 65.0258 11.6723 759 56.1568 1238.76 565.779
1536 0 66.1049 12.7222 841 56.22 1237.51 563.725
1537 0 70.2261 14.5957 1025 53.9415 1237.42 561.932
1538 0 69.0856 13.9537 964 55.86 1237.08 560.827
1539 0 73.0765 14.1085 1031 55.2279 1237.6 562.272
1540 0 74.2037 13.2878 986 56.7992 1237.23 562.48
1541 0 76.0956 13.6802 1041 56.7493 1237.25 560.046
1542 0 78.2148 14.409 1127 55.8722 1237.09 558.563
1543 0 82.1203 14.5153 1192 55.7299 1237.56 557.716
1544 0 84.1363 14.215 1196 56.153 1236.98 557.02
1545 0 84.2502 13.4718 1135 58.2687 1237.57 554.954
1546 0 89.1273 13.5312 1206 57.7803 1237.48 551.721
1547 0 91.2592 13.8835 1267 57.3086 1237.7 551.931
1548 0 93.2647 13.5635 1265 58.2364 1237.77 550.818
1549 0 95.164 13.8498 1318 58.2747 1237.66 549.244
1550 0 100.246 13.8758 1391 57.5248 1237.79 547.021
1551 0 102.252 13.9361 1425 57.9018 1237.92 545.322
1552 0 105.323 13.9476 1469 57.9374 1236.98 543.409
1553 0 107.33 13.985 1501 57.5883 1236.46 539.362
1554 0 111.288 13.7481 1530 57.681 1235.93 536.554
1555 1 63.0971 11.4902 725 58.08 1236.26 563.577
1556 0 63.1062 11.6153 733 57.7599 1236.13 564.899
1557 0 66.0642 13.1539 869 56.7779 1236.47 559.795
1558 0 69.1904 12.6174 873 57.6564 1236.17 559.822
1559 0 71.0694 12.9592 921 57.7177 1236.48 559.037
1560 0 72.133 13.4196 968 57.655 1236.02 559.949
1561 0 75.2683 13.5117 1017 57.5762 1236.44 558.147
1562 0 77.092 13.1661 1015 57.9015 1236.35 556.598
1563 0 80.1453 13.4256 1076 57.5948 1235.74 554.29
1564 0 82.2369 13.4246 1104 58.0299 1235.62 552.561
1565 0 86.1198 14.3289 1234 56.5032 1234.91 551.719
1566 0 88.1809 14.4476 1274 56.1876 1235.07 552.417
1567 0 88.1517 13.3066 1173 58.254 1234.73 551.372
1568 0 90.0962 13.6743 1232 58.099 1234.79 548.414
1569 0 96.1435 14.7072 1414 56.372 1234.65 547.627
1570 0 99.2829 14.3328 1423 56.8454 1234.78 546.514
1571 0 104.276 14.8932 1553 55.2241 1234.52 545.599
1572 0 103.188 13.3058 1373 57.7327 1234.31 545.425
1573 0 108.373 14.5054 1572 55.7983 1234.36 544.744
1574 0 111.199 14.3437 1595 56.2282 1234.45 542.825
1575 0 115.181 13.926 1604 56.2032 1234.54 541.011
1576 0 119.316 13.9126 1660 56.3934 1235.18 538.642
1577 1 67.1747 10.9714 737 57.4301 1235.19 566.061
1578 0 70.1761 12.8106 899 56.1858 1234.93 563.961
1579 0 70.2351 12.6432 888 56.4854 1235.02 561.571
1580 0 73.1236 11.4053 834 57.1247 1234.39 564.118
1581 0 73.1236 11.4737 839 164.261 1234.39 564.079
1582 0 81.296 12.965 1054 55.519 1233.91 557.99
1583 0 83.2044 13.2565 1103 55.6219 1234.02 555.623
1584 0 85.2446 12.1415 1035 56.1614 1234.3 556.126
1585 0 88.3546 12.8233 1133 56.2259 1233.72 554.247
1586 0 93.242 12.5802 1173 56.6317 1233.51 554.694
1587 0 96.3573 13.0867 1261 56.2474 1233.43 552.902
1588 1 54.0482 11.3602 614 57.2345 1233.17 572.643
1589 0 57.114 10.7854 616 57.5114 1233.15 572.067
1590 0 59.0594 11.2598 665 57.4541 1233.87 571.162
1591 0 60.0567 11.8388 711 57.2714 1234.02 569.733
1592 0 62.1074 12.7521 792 55.5972 1233.85 569.957
1593 0 64.1987 13.5517 870 55.4448 1233.98 566.982
1594 0 65.144 13.3857 872 55.3544 1234.06 566.3
1595 0 68.0632 13.8548 943 54.6522 1234.49 566.003
1596 0 71.1784 13.5856 967 54.8987 1234.57 563.109
1597 0 72.1459 13.1123 946 55.5127 1234.48 563.313
1598 0 75.3543 14.0934 1062 54.1657 1234.49 562.093
1599 0 76.1826 13.6252 1038 55.3565 1235.27 558.861
1600 0 80.1564 13.4986 1082 54.3974 1235.02 559.614
1601 0 83.076 13.4937 1121 55.1311 1234.75 557.824
1602 0 84.1316 13.36 1124 55.6726 1235.03 557.347
1603 0 89.243 13.6817 1221 54.8526 1234.85 554.141
1604 0 92.1689 13.8224 1274 54.6617 1235.11 553.9
1605 0 94.1448 15.1256 1424 53.8659 1235.81 550.437
1606 0 97.315 13.7697 1340 55.2299 1235.16 551.319
1607 0 101.263 14.1612 1434 55.0711 1235.2 548.103
1608 0 105.292 13.7333 1446 55.0961 1235.33 544.721
1609 1 55.1453 10.8622 599 55.1269 1235.24 571.309
1610 0 58.1855 11.7899 686 55.2843 1235.33 569.351
1611 0 62.2075 12.2654 763 54.7444 1235.6 569.764
1612 0 64.2027 13.4574 864 53.8576 1235.98 568.917
1613 0 65.2581 13.1171 856 54.3879 1237.06 566.196
1614 0 66.1529 12.7432 843 55.3357 1237.09 564.028
1615 0 68.0679 13.751 936 54.7959 1237.42 563.277
1616 0 72.3161 13.6208 985 54.3533 1237.62 563.153
1617 0 74.1679 14.1705 1051 54.4415 1238.04 561.276
1618 0 76.6237 14.0949 1080 54.6648 1238.36 558.577
1619 0 78.3885 14.1092 1106 55.1935 1238.42 557.662
1620 0 80.1843 13.1697 1056 56.8873 1238.55 555.845
1621 0 80.1843 13.2071 1059 167.379 1238.56 555.866
1622 0 83.2698 13.8826 1156 56.7829 1239.29 555.885
1623 0 87.1627 14.4787 1262 56.0048 1239.38 552.455
1624 0 89.309 14.1419 1263 56.5669 1239.21 552.434
1625 0 92.3527 14.3472 1325 56.3894 1239.49 550.199
1626 0 96.2127 13.6261 1311 57.0168 1239.25 550.522
1627 0 98.2217 14.7829 1452 55.7156 1239.61 547.794
1628 0 102.165 14.9366 1526 55.7189 1239.99 546.353
1629 0 105.179 14.4326 1518 56.4585 1240.2 545.823
1630 0 106.226 15.2694 1622 56.3224 1240.04 541.56
1631 1 59.1153 11.5368 682 58.3109 1239.45 566.252
1632 0 60.1774 11.8815 715 57.9972 1239.87 566.677
1633 0 62.1095 13.0254 809 56.9975 1239.68 564.954
1634 0 64.1842 13.6015 873 57.0447 1239.64 561.746
1635 0 66.0704 13.3645 883 57.154 1239.92 563.668
1636 0 69.0664 13.3929 925 57.3016 1239.83 561.667
1637 0 69.08 12.6954 877 58.5074 1239.84 561.381
1638 0 73.2152 13.6993 1003 57.0329 1239.26 559.13
1639 0 76.3165 13.7192 1047 56.4288 1239.48 557.882
1640 0 78.2436 14.0459 1099 56.263 1239.63 556.667
1641 0 81.2861 13.3971 1089 55.8173 1239.08 554.639
1642 0 82.078 13.3531 1096 56.5812 1239.57 553.544
1643 0 86.0903 15.4024 1326 54.3854 1239.68 551.481
1644 0 90.2616 14.0702 1270 55.4929 1239.6 550.954
1645 0 92.0729 14.4234 1328 55.552 1239.5 549.587
1646 0 93.1787 14.2737 1330 56.0105 1239.4 548.656
1647 0 97.1922 14.4868 1408 55.5384 1239.28 547.817
1648 0 99.2883 12.9421 1285 57.435 1239.24 546.934
1649 0 103.101 14.7235 1518 55.693 1239.09 543.096
1650 0 107.181 14.5548 1560 55.5372 1238.78 541.108
1651 0 110.204 14.3824 1585 55.8435 1238.62 539.876
1652 1 65.1208 12.0852 787 56.8501 1238.61 563.704
1653 0 67.1798 10.8961 732 57.7186 1238.72 563.194
1654 0 68.2976 11.8745 811 57.3859 1238.41 560.575
1655 0 73.2073 12.2392 896 56.4855 1237.82 559.04
1656 0 74.0649 12.327 913 56.1435 1237.72 557.943
1657 0 78.1122 13.455 1051 54.8059 1238.04 556.467
1658 0 80.2667 13.5424 1087 55 1237.83 554.168
1659 0 82.2075 13.5511 1114 55.0646 1238 553.322
1660 0 85.2026 12.7461 1086 55.9134 1237.7 554.121
1661 0 86.1358 13.2697 1143 55.8294 1237.28 550.262
1662 0 92.2448 13.5509 1250 55.0952 1237.28 548.022
1663 0 95.2811 14.1266 1346 54.5059 1237.15 546.101
1664 0 96.2415 12.7076 1223 56.0605 1236.93 546.513
1665 0 98.3222 12.7235 1251 56.4317 1237.03 545.47
1666 0 103.419 14.3107 1480 54.5514 1236.27 543.47
1667 0 107.296 13.9894 1501 54.0886 1236.44 540.815
1668 0 107.302 13.3455 1432 55.1487 1236.84 540.067
1669 0 113.308 14.1914 1608 53.7643 1236.66 539.323
1670 0 116.309 14.0229 1631 53.6922 1236.52 536.227
1671 0 121.437 13.6862 1662 53.793 1237.08 534.909
1672 0 125.306 13.9977 1754 53.8501 1236.44 532.757
1673 0 129.329 14.15 1830 53.3306 1236.37 529.439
1674 0 134.318 13.55 1820 53.9571 1236.42 528.953
1675 0 138.55 13.8506 1919 53.6628 1235.91 525.377
1676 0 143.378 13.6911 1963 53.8222 1235.9 523.338
1677 0 149.585 15.0616 2253 52.6178 1235.96 520.249
1678 0 151.41 14.6159 2213 53.4234 1235.23 518.316
1679 0 157.578 14.8942 2347 53.118 1235.25 516.709
1680 0 161.331 14.0023 2259 54.5719 1235.22 513.315
1681 0 168.33 14.3052 2408 54.5685 1235.19 511.949
1682 0 172.416 14.668 2529 54.5678 1236.12 509.129
1683 0 179.366 14.3227 2569 55.2721 1235.81 503.904
1684 0 185.343 15.3823 2851 52.9355 1236.26 501.128
1685 0 190.333 14.4956 2759 53.9192 1235.62 501.803
1686 0 197.552 15.2618 3015 53.1297 1235.66 496.845
1687 0 199.388 15.1513 3021 54.1715 1234.9 491.844
1688 0 207.441 15.0935 3131 53.9502 1234.82 492.697
1689 0 214.344 14.3368 3073 54.8487 1234.34 491.939
1690 0 221.421 14.9489 3310 54.2683 1234.17 484.898
1691 0 227.358 15.4118 3504 54.0625 1234.08 483.318
1692 0 233.408 14.6824 3427 55.0934 1233.75 479.857
1693 0 232.336 12.9554 3010 56.6096 1233.76 486.849
1694 1 190.316 11.8908 2263 57.5493 1234.35 506.019
1695 0 199.395 13.4758 2687 55.7369 1234.3 499.58
1696 0 205.219 14.1897 2912 55.3729 1233.83 496.76
1697 0 213.486 14.8207 3164 54.4896 1233.78 493.703
1698 0 220.279 14.5679 3209 54.436 1233.77 486.001
1699 0 228.365 14.0039 3198 54.8852 1233.65 487.434
1700 0 237.412 14.7928 3512 54.1176 1233.71 479.826
1701 0 244.469 14.1449 3458 54.917 1232.68 477.872
1702 1 75.2873 10.2541 772 52.2655 1232 561.045
1703 0 74.1303 10.6839 792 51.8447 1232.36 558.593
1704 0 77.1858 10.6496 822 51.2603 1232.33 559.668
1705 0 80.2052 11.7823 945 49.8561 1232.63 557.207
1706 0 81.1267 11.5622 938 50.8827 1232.96 556.517
1707 0 83.1193 11.5015 956 51.2845 1232.62 555.887
1708 0 88.2882 12.833 1133 49.5755 1233.06 554.711
1709 0 89.1592 12.0683 1076 50.9647 1233.52 551.464
1710 0 92.2326 12.707 1172 50.2159 1232.99 549.884
1711 0 94.3033 12.5658 1185 50.2456 1233.46 549.455
1712 0 97.1806 12.4819 1213 50.3792 1233.18 547.737
1713 0 101.379 13.1191 1330 49.4639 1233.27 544.895
1714 0 103.274 12.1908 1259 50.7625 1233.58 544.409
1715 0 105.271 12.2826 1293 50.4834 1233.2 543.699
1716 0 109.339 12.7402 1393 50.5607 1233.51 541.022
1717 0 115.361 13.5574 1564 49.6381 1233.6 539.508
1718 0 117.296 13.9306 1634 49.3611 1233.8 538.889
1719 0 121.274 12.9294 1568 50.273 1233.7 537.011
1720 0 126.323 12.8322 1621 50.3313 1233.56 534.723
1721 0 127.472 13.3285 1699 50.1218 1233.94 532.707
1722 0 131.296 12.4833 1639 50.925 1234.05 528.172
1723 0 135.382 13.0446 1766 50.0968 1234.02 525.599
1724 0 138.341 13.1125 1814 49.9917 1234.52 522.691
1725 0 144.107 14.7251 2122 48.6989 1234.68 518.957
1726 0 146.2 14.1313 2066 48.5547 1234.86 518.565
1727 0 149.292 13.9056 2076 48.9277 1234.91 516.122
1728 1 94.3178 11.4188 1077 49.4253 1234.9 548.911
1729 0 95.1336 11.3419 1079 48.5589 1234.68 549.006
1730 0 97.191 12.1822 1184 47.9916 1235.61 544.687
1731 0 99.1782 12.9262 1282 47.2598 1236.02 547.318
1732 0 102.142 13.6085 1390 46.4914 1236.56 546.6
1733 0 105.208 12.404 1305 47.836 1236.82 546.221
1734 0 108.231 13.194 1428 48.1317 1237.08 542.402
1735 0 109.183 12.5935 1375 49.8247 1237.14 541.74
1736 0 113.134 12.6487 1431 50.0769 1236.04 537.73
1737 0 114.378 12.2226 1398 50.485 1236.58 534.455
1738 0 117.147 12.6935 1487 50.2307 1236.89 535.275
1739 0 120.437 13.3348 1606 49.9819 1237.14 533.012
1740 0 123.278 13.9765 1723 49.7441 1237.94 530.178
1741 0 126.341 12.9095 1631 50.5917 1237.99 529.462
1742 0 129.27 14.2415 1841 49.2596 1238.56 527.359
1743 0 132.315 13.0598 1728 50.5307 1238.24 529.377
1744 0 134.212 12.5026 1678 51.9857 1238.81 527.039
1745 0 139.376 13.051 1819 51.1567 1238.72 521.791
1746 1 83.2298 9.44373 786 50.0229 1240.25 553.641
1747 0 84.2444 10.1847 858 51.1096 1240.57 552.643
1748 0 88.2854 10.6813 943 51.2418 1239.79 550.981
1749 0 88.2854 10.7379 948 155.277 1238.8 550.929
1750 0 93.4152 11.0582 1033 51.2139 1239.07 546.773
1751 0 95.3562 13.0353 1243 50.2285 1240.52 543.778
1752 0 98.3786 11.9233 1173 50.5217 1239.96 544.784
1753 0 102.282 12.4362 1272 50.1454 1239.72 542.381
1754 0 106.453 12.6722 1349 49.9281 1239.93 539.504
1755 0 107.304 11.6958 1255 51.2279 1239.91 539.475
1756 0 110.454 12.4849 1379 50.9166 1240.03 537.342
1757 0 115.498 13.299 1536 50.306 1239.69 537.031
1758 0 116.459 13.1892 1536 50.8978 1239.77 533.133
1759 0 118.293 12.9932 1537 50.9857 1239.69 534.249
1760 0 122.294 12.7317 1557 51.6911 1239.62 531.253
1761 0 126.418 13.5502 1713 50.9708 1239.57 529.151
1762 0 129.445 13.5888 1759 51.3434 1239.39 526.995
1763 0 131.347 12.821 1684 52.649 1239.22 523.348
1764 0 134.373 13.9612 1876 51.5842 1238.96 523.399
1765 0 139.373 14.393 2006 51.1441 1238.76 520.252
1766 0 144.395 13.9132 2009 51.9343 1238.95 518.863
1767 0 148.341 14.6082 2167 51.2732 1239.23 515.934
1768 0 149.604 13.6227 2038 52.4907 1239.26 515.566
1769 0 156.441 15.2837 2391 50.6541 1238.69 513.023
1770 0 160.424 14.2435 2285 52.0573 1238.86 510.436
1771 0 165.572 14.4831 2398 51.7389 1238.65 507.074
1772 0 170.619 13.8379 2361 53.1876 1238.63 507.746
1773 0 171.456 13.8811 2380 53.8597 1238.71 502.508
1774 0 178.541 14.1816 2532 53.9352 1238.48 498.507
1775 0 182.66 14.4695 2643 54.44 1238.4 499.545
1776 0 188.664 15.032 2836 53.829 1238.43 499.179
1777 0 192.655 14.6635 2825 53.8287 1238.02 491.864
1778 0 196.561 13.9448 2741 55.0635 1237.7 489.978
1779 0 204.752 13.6702 2799 55.308 1237.59 488.696
1780 0 211.63 14.4876 3066 54.4553 1237.89 485.824
1781 0 217.558 15.0764 3280 54.0238 1237.44 481.309
1782 1 157.642 12.4903 1969 54.8939 1238.17 514.15
1783 0 161.666 13.0763 2114 54.2928 1237.76 509.539
1784 0 166.543 13.6481 2273 53.2653 1237.34 507.051
1785 0 171.668 12.8096 2199 54.0468 1237.74 505.864
1786 0 177.698 12.6732 2252 53.9165 1237.37 504.099
1787 0 181.633 12.7675 2319 53.6093 1237.16 502.614
1788 0 188.679 13.25 2500 52.9732 1236.51 499.99
1789 0 194.683 13.0109 2533 53.1078 1236.55 496.413
1790 0 199.761 12.9605 2589 53.1703 1236.28 489.768
1791 0 207.789 13.3645 2777 52.345 1235.92 490.511
1792 0 214.91 13.9593 3000 51.8627 1235.57 482.464
1793 1 66.388 8.99259 597 49.5092 1236.25 564.106
1794 0 66.3839 10.1229 672 48.1116 1235.81 563.943
1795 0 66.4076 9.93862 660 48.75 1235.75 562.036
1796 0 72.5638 11.4382 830 48.0771 1235.58 560.633
1797 0 71.411 9.99846 714 49.3263 1235.03 561.032
1798 0 76.4116 11.9223 911 47.4402 1235.12 558.382
1799 0 77.5099 11.3792 882 48.0941 1235.12 558.799
1800 0 79.5038 11.0435 878 48.4169 1234.59 556.812
1801 0 80.4317 11.2518 905 48.7436 1235.26 555.036
1802 0 83.2644 12.2621 1021 47.713 1235.03 554.793
1803 0 84.5251 11.6533 985 48.5695 1234.83 555.134
1804 0 86.2998 11.715 1011 48.0218 1234.58 554.773
1805 0 88.7625 11.8068 1048 47.8435 1234.64 552.07
1806 0 90.7739 11.5672 1050 48.479 1233.96 551.748
1807 0 94.4882 12.4883 1180 47.7051 1233.85 548.5
1808 0 96.6481 12.4472 1203 47.7814 1234.03 547.212
1809 0 106.91 16.6027 1775 42.3673 1234.26 536.846
1810 0 109.906 18.0153 1980 41.4687 1233.94 534.129
1811 0 107.636 14.1774 1526 46.1619 1234.01 537.839
1812 0 106.666 12.1407 1295 49.1012 1234.1 540.434
1813 0 109.788 15.2567 1675 45.529 1234.38 538.186
1814 0 112.694 14.4728 1631 46.3789 1234.78 537.039
1815 0 114.596 14.9481 1713 46.1932 1234.77 536.186
1816 0 118.701 15.4843 1838 45.9091 1234.95 535.14
1817 0 120.92 14.6791 1775 46.96 1235.01 533.118
1818 0 125.747 16.3424 2055 45.2068 1234.47 529.773
1819 0 127.538 14.6858 1873 47.0988 1234.48 528.215
1820 0 131.615 15.0515 1981 46.9046 1234.55 529.117
1821 1 76.5391 10.426 798 50.0965 1234.3 558.904
1822 0 80.5443 11.0002 886 49.237 1234.4 557.257
1823 0 84.5734 10.8308 916 49.1605 1234.42 557.793
1824 0 86.5146 12.1829 1054 48.9677 1235.06 553.244
1825 0 88.4024 11.9567 1057 49.2971 1234.65 552.378
1826 0 91.5358 12.9785 1188 49.3274 1234.5 550.072
1827 0 92.5333 12.6333 1169 49.4594 1235.03 549.171
1828 0 98.4916 13.4529 1325 48.4491 1235.06 547.971
1829 0 99.4099 13.4292 1335 48.7963 1235.27 545.154
1830 0 103.386 13.6479 1411 48.6591 1235.55 543.013
1831 0 103.305 13.7747 1423 49.4048 1235.31 542.172
1832 0 106.49 13.8887 1479 49.645 1235.64 541.105
1833 0 108.507 13.1512 1427 50.8283 1236.31 539.499
1834 0 114.576 14.4882 1660 48.9018 1236.15 540.113
1835 0 117.281 14.2905 1676 49.9147 1236.42 534.15
1836 0 117.33 13.2106 1550 50.7916 1236.29 535.805
1837 0 122.641 13.9187 1707 50.1172 1236.44 532.079
1838 0 125.418 13.9613 1751 50.4757 1236.67 531.74
1839 1 66.3988 11.0695 735 51.1551 1236.62 560.453
1840 0 69.3725 10.4364 724 51.3218 1236.78 561.742
1841 0 71.407 11.6655 833 50.605 1236.99 558.408
1842 0 74.1352 12.0321 892 49.8453 1238.55 558.379
1843 0 75.1881 13.433 1010 48.9762 1238.82 556.258
1844 0 79.225 13.0893 1037 49.3163 1238.61 556.856
1845 0 80.1862 13.4936 1082 49.3401 1238.75 555.072
1846 0 85.2086 12.9916 1107 49.6784 1239.3 555.121
1847 0 85.3226 12.7399 1087 50.3477 1239.16 551.935
1848 0 89.1882 13.1632 1174 50.1491 1239.08 549.431
1849 0 91.249 13.5125 1233 50.0535 1239.48 547.829
1850 0 95.1867 13.5838 1293 49.8879 1238.41 547.258
1851 0 98.258 14.6349 1438 48.9583 1238.62 545.723
1852 0 101.275 13.7151 1389 49.7833 1238.48 545.236
1853 0 102.341 13.0154 1332 49.8649 1238.56 542.625
1854 0 106.308 13.6208 1448 48.9655 1238.58 540.532
1855 0 110.364 14.0173 1547 48.5423 1238.47 537.921
1856 0 112.408 13.6823 1538 48.7217 1238.78 537.49
1857 0 115.311 14.075 1623 48.6617 1238.42 533.29
1858 1 53.333 11.2126 598 48.6973 1237.92 565.169
1859 0 55.1198 11.2482 620 48.6 1238.35 565.71
1860 0 56.1434 10.6691 599 49.1252 1238.53 567.087
1861 0 57.0967 11.2266 641 48.8066 1239.1 563.329
1862 0 60.1807 12.8446 773 48.5899 1238.22 563.642
1863 0 60.2314 12.701 765 47.8614 1238.25 563.009
1864 0 62.106 12.4465 773 47.9819 1237.68 563.453
1865 0 63.0888 12.5854 794 48.1826 1237.76 562.417
1866 0 65.1017 11.843 771 49.4125 1237.59 562.674
1867 0 69.2102 12.2959 851 48.5699 1237.3 560.631
1868 0 70.2325 13.555 952 47.8529 1237.09 560.557
1869 0 72.1893 13.0767 944 48.3983 1237.57 558.693
1870 0 74.1476 13.109 972 48.001 1237.32 557.827
1871 0 75.1274 13.5104 1015 47.1862 1237.15 556.077
1872 0 78.2167 13.7822 1078 46.7672 1237.22 554.133
1873 0 81.2168 13.8026 1121 46.4353 1237.77 554.078
1874 0 80.2603 13.5559 1088 46.5083 1237.33 555.167
1875 0 83.2255 13.0008 1082 46.8845 1237.1 553.623
1876 0 86.286 13.5132 1166 46.2719 1237.25 551.505
1877 0 88.2824 13.3888 1182 46.4848 1236.79 549.555
1878 0 92.4479 14.2026 1313 45.5491 1237.17 550.364
1879 0 94.1836 13.2826 1251 46.809 1236.82 547.798
1880 0 98.5065 14.0397 1383 46.2755 1237.05 546.98
1881 0 101.197 13.6961 1386 46.5123 1237.68 545.766
1882 1 55.1164 10.3418 570 47.7825 1237.1 569.009
1883 0 55.2874 11.4674 634 47.4795 1236.5 568.741
1884 0 59.1173 12.0946 715 47.1944 1236.39 567.443
1885 0 62.2234 13.0176 810 46.3728 1236.26 564.331
1886 0 62.1027 12.5276 778 47.2172 1235.67 565.415
1887 0 65.1537 12.9386 843 47.2883 1236.28 565.145
1888 0 66.0689 13.5313 894 46.6991 1235.57 564.282
1889 0 69.2435 13.4886 934 47.045 1235.68 563.439
1890 0 71.1126 13.9356 991 46.6892 1234.93 562.44
1891 0 72.0967 14.0506 1013 47.2744 1235.41 561.07
1892 0 75.1358 13.9747 1050 47.1143 1235.18 559.107
1893 0 77.1533 13.2334 1021 48.191 1235.75 558.747
1894 0 79.2235 12.976 1028 48.5807 1235.22 558.274
1895 0 81.1236 14.2622 1157 48.0648 1235.54 556.053
1896 0 83.2555 14.1372 1177 48.5641 1235.74 555.579
1897 0 84.1142 13.4698 1133 49.6929 1235.89 555.485
1898 0 90.3281 14.2813 1290 48.5853 1235.75 554.886
1899 0 92.157 14.497 1336 48.774 1234.85 552.573
1900 0 92.157 14.5078 1337 162.907 1233.85 552.564
1901 0 96.2226 14.1963 1366 49.6728 1234.49 549.963
1902 0 101.373 14.3037 1450 49.6634 1234.74 550.325
1903 0 103.261 14.6426 1512 49.4107 1234.27 548.946
1904 0 109.38 14.765 1615 49.0842 1233.97 546.801
1905 0 108.32 14.1617 1534 50.7216 1233.5 545.178
1906 0 114.366 14.3137 1637 50.4905 1233.3 542.254
1907 1 64.2761 12.8041 823 51.8979 1232.89 565.878
1908 0 64.0677 12.081 774 52.9742 1232.76 566.022
1909 0 68.0992 12.423 846 52.766 1232.8 563.889
1910 0 70.1559 13.7693 966 51.8447 1232.58 563.314
1911 0 73.109 13.473 985 52.269 1232.94 562.296
1912 0 77.0962 14.9035 1149 50.6745 1232.83 560.578
1913 0 78.1966 13.6707 1069 52.7409 1233.38 559.322
1914 0 82.1225 14.6854 1206 51.3333 1232.83 558.85
1915 0 83.381 13.2044 1101 53.445 1232.85 557.969
1916 0 86.2021 14.292 1232 52.4675 1232.86 555.595
1917 0 88.3097 13.8263 1221 52.9238 1232.32 554.821
1918 0 91.366 13.8345 1264 54.5522 1232.05 553.1
1919 0 96.3972 13.9942 1349 54.4344 1233.12 550.615
1920 0 98.4958 13.96 1375 54.8487 1233.68 549.81
1921 0 100.288 14.0994 1414 55.7751 1233.41 547.497
1922 0 103.314 14.3253 1480 56.0723 1232.99 546.657
1923 0 105.305 14.2633 1502 56.7703 1232.82 544.263
1924 0 108.183 13.8284 1496 57.3596 1232.82 544.208
1925 0 114.156 14.4977 1655 56.461 1232 540.396
1926 0 117.217 14.4519 1694 56.9309 1231.98 539.476
1927 0 120.378 14.2884 1720 57.1064 1231.92 537.382
1928 0 124.298 14.8192 1842 56.5505 1231.75 535.117
1929 0 128.362 13.719 1761 57.6349 1231.7 533.189
1930 0 132.198 14.8716 1966 56.7386 1231.71 530.988
1931 0 137.15 14.9836 2055 56.5577 1231.61 528.946
1932 0 140.373 14.9672 2101 56.466 1231.47 528.436
1933 0 146.331 14.1392 2069 57.7482 1231.49 523.568
1934 0 150.278 14.4066 2165 57.4545 1231.83 522.186
1935 0 154.346 14.0398 2167 58.2557 1232.04 518.107
1936 0 162.288 15.6943 2547 55.8516 1232.01 517.708
1937 0 165.244 14.6692 2424 56.9674 1232.42 514.409
1938 0 171.255 14.2361 2438 57.5439 1232.13 509.775
1939 1 93.0826 12.0753 1124 59.8319 1232.72 549.759
1940 0 100.158 13.3788 1340 58.2067 1232.48 547.559
1941 0 102.232 13.1759 1347 58.2992 1232.79 546.219
1942 0 106.081 14.0648 1492 57.2708 1233.01 542.108
1943 0 107.121 13.144 1408 59.2131 1233.63 541.991
1944 0 114.347 14.3686 1643 55.2495 1233.72 538.839
1945 0 117.16 14.237 1668 55.8022 1233.96 538.575
1946 0 121.159 14.6666 1777 55.081 1234.01 534.674
1947 0 125.206 14.0248 1756 55.664 1234.26 533.074
1948 0 130.094 14.674 1909 54.6778 1234.11 528.957
1949 0 135.236 15.0403 2034 53.6106 1234.34 529.362
1950 0 138.093 13.9616 1928 54.9492 1234.29 524.871
1951 0 143.278 13.931 1996 54.8577 1234.55 522.472
1952 0 150.12 14.122 2120 54.6212 1234.35 518.538
1953 1 87.1772 10.5418 919 55.0283 1234.56 552.206
1954 0 91.1511 12.013 1095 54.3114 1235.52 549.217
1955 0 95.3395 13.4572 1283 52.5012 1235.53 548.593
1956 0 97.1936 12.758 1240 53.3024 1234.83 548.244
1957 0 100.258 13.5749 1361 52.759 1235.29 545.698
1958 0 104.143 12.963 1350 53.3126 1235.16 544.636
1959 0 107.146 12.9357 1386 52.8413 1235.42 543.675
1960 0 110.181 13.2782 1463 52.7758 1235.8 540.772
1961 0 115.254 12.9801 1496 52.8596 1235.56 537.9
1962 0 116.227 12.9402 1504 53.1656 1235.95 537.118
1963 0 120.294 12.7604 1535 53.2834 1236.17 535.118
1964 0 126.284 13.9764 1765 51.9785 1235.95 533.329
1965 0 129.163 13.812 1784 51.9641 1235.97 532.277
1966 0 133.265 13.6345 1817 52.3176 1236.3 531.791
1967 0 138.157 14.1433 1954 51.9222 1236.83 529.279
1968 1 86.2237 9.13902 788 51.5444 1237.24 558.741
1969 0 89.1549 10.3415 922 50.808 1237.04 554.241
1970 0 89.2318 9.55938 853 51.8042 1237.46 552.624
1971 0 96.2163 11.973 1152 50.1771 1237.44 550.451
1972 0 97.2247 11.5814 1126 50.7371 1238 547.801
1973 0 99.197 11.8149 1172 51.3746 1237.79 545.836
1974 0 101.25 12.7111 1287 50.8003 1238.37 544.772
1975 0 107.18 13.3607 1432 49.7647 1238.7 545.237
1976 0 109.257 12.0176 1313 51.3785 1238.83 541.802
1977 0 111.201 12.2121 1358 51.8218 1239.22 541.185
1978 0 115.246 13.6056 1568 50.3858 1238.96 540.517
1979 0 115.152 12.8439 1479 51.57 1239.14 536.668
1980 0 119.27 11.5201 1374 53.0495 1239.14 536.356
1981 0 122.179 12.9155 1578 51.9068 1238.98 533.894
1982 0 128.371 13.5623 1741 50.9144 1239.41 533.401
1983 0 129.33 11.9539 1546 53.2135 1239.15 527.655
1984 0 132.273 13.0715 1729 52.0388 1239.46 527.572
1985 0 137.536 12.7457 1753 51.9378 1239.84 525.373
1986 0 141.339 12.799 1809 51.6556 1239.88 520.61
1987 0 147.21 12.5263 1844 51.8015 1239.73 520.073
1988 0 151.276 12.4144 1878 51.4835 1239.69 519.498
1989 0 154.468 12.0024 1854 52.123 1239.97 515.198
1990 0 160.208 12.7771 2047 51.3654 1239.52 512.475
1991 0 164.4 13.1752 2166 51.1976 1240.16 506.928
1992 0 170.334 13.679 2330 50.6644 1240.23 506.23
1993 0 176.236 13.4819 2376 51.0715 1239.73 504.289
1994 0 183.49 14.4912 2659 49.9203 1239.12 501.476
1995 0 187.269 14.0333 2628 50.4403 1239.14 496.632
1996 0 194.459 14.3321 2787 50.066 1239.07 493.851
1997 0 198.586 14.6888 2917 49.6843 1238.53 492.977
1998 0 204.387 13.3717 2733 51.2894 1238.15 486.039
1999 0 204.387 13.3668 2732 159.674 1237.16 486.214
2000 0 203.475 8.62023 1754 54.2799 1238.64 499.011
2001 0 205.38 10.4197 2140 53.2883 1238.27 497.431
2002 0 204.423 6.82409 1395 52.1821 1237.89 526.34
2003 1 166.418 10.4856 1745 52.0808 1237.91 512.815
2004 0 172.407 12.5053 2156 51.3664 1237.49 507.823
2005 0 177.458 12.4987 2218 51.4454 1237.46 505.899
2006 0 182.576 13.0247 2378 51.2157 1236.87 498.882
2007 0 190.556 13.5551 2583 50.6349 1236.97 498.317
2008 0 195.647 12.4408 2434 51.8209 1237.06 494.58
2009 0 201.349 13.2755 2673 51.4089 1236.96 490.517
2010 0 209.526 13.4065 2809 51.3076 1237.03 491.946
2011 0 214.731 12.5925 2704 52.2903 1237.35 487.575
2012 0 221.535 13.2981 2946 51.4511 1237.06 483.11
2013 0 228.627 13.0431 2982 52.0573 1237.13 478.69
2014 0 237.699 14.1692 3368 51.0793 1237 473.507
2015 0 244.58 14.1508 3461 50.8732 1236.51 474.235
2016 0 251.678 13.2431 3333 51.9484 1236.13 464.434
2017 0 259.553 15.2647 3962 49.7812 1236.19 459.721
2018 0 268.671 15.7404 4229 48.9459 1236.35 458.683
2019 0 274.586 15.2302 4182 49.8749 1235.91 454.022
2020 1 216.363 12.1462 2628 51.879 1236.25 490.094
2021 0 222.457 13.1351 2922 50.7789 1236.1 485.449
2022 0 228.529 13.018 2975 51.4487 1235.87 480.859
2023 0 237.491 14.8764 3533 49.9822 1235.68 473.192
2024 0 243.634 14.1729 3453 50.9007 1235.73 474.798
2025 0 248.857 14.3456 3570 50.479 1235.82 470.769
2026 0 256.642 15.3288 3934 49.6858 1235.29 462.298
2027 0 263.668 14.8065 3904 50.313 1235.27 462.108
2028 0 272.751 15.153 4133 50.2076 1234.97 455.998
2029 0 281.784 15.6254 4403 49.6561 1235.23 453.054
2030 0 290.552 15.622 4539 49.5519 1234.93 448.436
2031 0 299.646 15.4749 4637 50.2405 1235.23 445.999
2032 1 236.525 12.1763 2880 52.7899 1235.83 484.153
2033 0 246.699 12.7037 3134 52.5721 1235.4 480.62
2034 0 253.739 13.4311 3408 51.9941 1235.16 469.922
2035 0 261.471 14.9959 3921 50.4703 1235.42 463.268
2036 0 270.711 15.0308 4069 50.4669 1235.1 459.117
2037 0 276.469 14.7756 4085 50.883 1235.47 456.682
2038 0 285.786 14.8573 4246 50.333 1235.71 451.426
2039 0 294.743 15.271 4501 50.3013 1234.97 445.956
2040 1 91.2499 9.73152 888 50.3007 1235.13 552.84
2041 0 97.3684 11.3281 1103 48.4533 1234.98 552.742
2042 0 101.41 11.3992 1156 49.5277 1234.97 549.615
2043 0 101.362 12.2827 1245 48.539 1234.11 547.666
2044 0 102.356 11.8508 1213 49.066 1234.11 544.012
2045 0 107.431 11.5981 1246 48.8066 1234.54 542.787
2046 0 111.334 12.7994 1425 48.2702 1234.66 543.464
2047 0 114.53 12.1453 1391 48.839 1234.87 538.74
2048 0 119.891 12.1611 1458 48.1447 1234.69 537.202
2049 1 69.362 9.1837 637 49.2135 1233.77 562.6
2050 0 73.2422 9.28427 680 48.7015 1233.2 564.887
2051 1 27.1385 8.18025 222 42.7387 1231.6 585.766
2052 0 27.1593 8.24765 224 43.5134 1232.22 587.134
2053 0 31.098 8.68224 270 44.5556 1232.23 586.304
2054 0 27.1989 8.41946 229 45.0786 1231.99 587
2055 0 29.1636 8.3666 244 45.0574 1231.07 584.525
2056 0 27.2791 8.21141 224 45.058 1231.62 586.138
2057 0 28.1065 8.57453 241 44.7303 1231.95 587.805
2058 0 25.1585 9.73828 245 44.3755 1232.43 587.42
2059 0 27.1866 8.68075 236 45.2331 1234.24 587.492
2060 1 92.5372 12.5031 1157 48.8297 1234.59 554.53
2061 0 95.4729 12.8413 1226 48.6607 1234.41 554.1
2062 0 97.2936 12.0357 1171 50.0085 1233.96 552.752
2063 0 98.1976 12.3526 1213 49.8904 1233.47 552.006
2064 0 103.181 13.0257 1344 48.8021 1233.2 550.944
2065 0 102.429 11.6569 1194 51.1374 1233.61 549.863
2066 0 107.297 12.7777 1371 50.6061 1233.74 547.248
2067 0 108.167 11.9999 1298 51.7766 1234.65 548.008
2068 0 110.302 12.8738 1420 51.4479 1234.05 545.741
2069 0 113.32 12.9456 1467 51.7819 1234.61 543.562
2070 0 117.513 13.7517 1616 51.2797 1234.58 542.704
2071 0 119.305 13.3775 1596 52.7694 1235.09 541.422
2072 0 122.442 13.5248 1656 52.9964 1234.82 537.377
2073 0 124.56 13.9532 1738 53.0524 1235.32 536.374
2074 0 128.364 14.1238 1813 53.3502 1235.18 535.839
2075 0 129.453 13.0395 1688 54.7062 1234.38 536.315
2076 0 134.594 12.794 1722 55.1707 1234.51 533.279
2077 0 137.416 13.6957 1882 54.567 1234.79 531.023
2078 0 141.614 14.6737 2078 53.7137 1235.1 526.864
2079 1 88.4267 11.3767 1006 53.1402 1235.13 558.153
2080 0 91.2062 10.9971 1003 53.8654 1235.46 556.132
2081 0 93.4532 11.578 1082 53.1044 1235.32 555.318
2082 0 94.3214 11.2064 1057 53.9565 1235.36 551.185
2083 0 98.421 11.1358 1096 53.75 1235.91 551.486
2084 0 101.498 13.0643 1326 52.4623 1236.71 546.65
2085 0 102.276 11.6645 1193 53.7066 1237.49 549.219
2086 0 106.53 12.0342 1282 52.8339 1238.29 545.846
2087 0 110.454 13.0008 1436 51.7312 1238.04 546.68
2088 0 111.415 13.3375 1486 52.2961 1238.27 541.805
2089 0 113.537 11.8287 1343 53.8593 1238.35 541.764
2090 0 117.334 12.6647 1486 53.0848 1238.27 539.35
2091 0 121.543 13.1312 1596 53.0238 1238.26 536.416
2092 0 122.238 14.0055 1712 52.4556 1238.41 534.63
2093 0 126.268 13.4238 1695 53.5622 1238.53 533.352
2094 0 130.409 13.1816 1719 53.7173 1239.01 532.347
2095 0 134.282 13.3227 1789 53.8167 1238.71 528.821
2096 0 137.494 13.3678 1838 54.0724 1238.56 527.417
2097 0 141.743 13.4116 1901 54.1504 1238.47 528.326
2098 0 145.413 13.9946 2035 53.9941 1238.49 521.529
2099 0 149.568 13.2916 1988 54.9477 1238.79 522.091
2100 0 153.369 12.5188 1920 55.7422 1238.64 522.19
2101 1 94.4299 11.7124 1106 54.2116 1238.58 552.484
2102 0 96.4477 11.8821 1146 54.911 1238.7 547.96
2103 0 98.4536 12.0463 1186 54.9646 1238.76 547.879
2104 0 101.73 12.5431 1276 54.8707 1239.21 546.89
2105 0 107.566 14.1773 1525 52.9731 1239.55 545.306
2106 0 106.321 12.8855 1370 55.3518 1239.17 542.619
2107 0 111.571 13.7222 1531 54.4056 1239.64 541.471
2108 0 116.386 14.0223 1632 54.1808 1239.81 538.681
2109 0 118.576 14.1344 1676 54.6271 1239.74 536.727
2110 0 121.591 14.0718 1711 54.3606 1239.78 536.541
2111 0 124.362 13.308 1655 55.7426 1239.83 535.219
2112 0 130.453 13.5068 1762 55.4943 1240.31 532.35
2113 0 134.504 13.9476 1876 55.0954 1239.79 531.475
2114 1 72.4408 11.7199 849 55.4476 1240.82 562.305
2115 0 71.469 10.9138 780 56.4756 1240.22 561.438
2116 0 75.4862 11.618 877 55.2554 1240.25 558.735
2117 0 78.3066 13.843 1084 52.9511 1240.31 558.045
2118 0 80.6421 12.8221 1034 54.1615 1239.44 557.009
2119 0 83.3343 13.3559 1113 53.7736 1238.95 554.404
2120 0 84.4663 13.2005 1115 53.9587 1238.75 553.476
2121 0 86.3154 12.7787 1103 54.6111 1238.63 551.675
2122 0 89.5035 13.4073 1200 54.0867 1238.97 552.694
2123 0 93.3502 14.0653 1313 52.9916 1238.82 550.596
2124 0 93.4865 12.7612 1193 54.3898 1238.57 550.257
2125 0 97.852 14.011 1371 53.3538 1238.61 546.807
2126 0 99.5119 13.6165 1355 53.6915 1237.98 544.981
2127 0 103.516 12.8676 1332 53.4962 1237.85 546.511
2128 0 106.665 14.3346 1529 52.2014 1237.91 542.412
2129 0 107.651 13.4416 1447 53.2094 1237.05 540.713
2130 0 112.746 14.3508 1618 51.8807 1237.16 539.557
2131 0 115.756 13.4421 1556 52.7808 1237.31 536.781
2132 0 119.56 13.3992 1602 52.3527 1237.07 537.685
2133 0 122.497 13.9105 1704 51.6062 1236.59 536.289
2134 0 127.348 14.9433 1903 50.2822 1236.74 531.875
2135 0 130.394 13.1755 1718 51.9517 1236.52 532.265
2136 0 133.688 13.9878 1870 50.8818 1236.68 533.684
2137 0 135.49 13.1523 1782 52.3406 1236.74 530.846
2138 0 140.595 13.8483 1947 51.3359 1236.67 527.481
2139 0 143.87 12.9006 1856 51.8723 1236.12 522.523
2140 0 143.87 12.8589 1850 148.619 1235.13 522.448
2141 0 154.619 13.5818 2100 51.5052 1236.58 514.947
2142 0 160.661 13.2017 2121 51.636 1235.83 515.209
2143 1 91.4442 11.8542 1084 51.3146 1235.4 549.585
2144 0 93.4922 11.4448 1070 52.286 1235.56 548.127
2145 0 98.7077 12.2382 1208 51.4214 1234.84 546.826
2146 0 100.654 13.0744 1316 51.2044 1235.47 544.667
2147 0 104.616 14.0897 1474 50.4993 1234.91 542.033
2148 0 107.516 13.0306 1401 51.5924 1234.82 539.585
2149 0 113.431 13.9996 1588 50.386 1234.99 537.567
2150 0 113.317 12.7078 1440 52.0319 1235.21 534.105
2151 0 118.219 13.7203 1622 51.3459 1235.49 531.567
2152 0 122.389 13.4734 1649 51.6586 1235.44 531.254
2153 0 126.394 14.0038 1770 51.0667 1235.59 531.573
2154 0 130.467 13.7812 1798 51.4683 1235.38 530.648
2155 0 133.327 13.6282 1817 51.8288 1235.26 531.916
2156 0 137.415 14.1251 1941 51.4869 1235.33 526.603
2157 0 141.512 13.7232 1942 51.8342 1235.38 524.712
2158 0 149.39 14.3316 2141 51.0014 1235.37 521.688
2159 0 151.608 13.7988 2092 51.8676 1235.22 517.852
2160 0 158.493 14.0637 2229 51.2176 1234.73 517.023
2161 1 89.3284 10.87 971 52.7611 1234.77 552.596
2162 0 91.363 10.4419 954 53.7725 1234.01 552.44
2163 0 91.363 10.42 952 158.461 1234.02 552.46
2164 0 98.2917 13.3989 1317 52.6363 1233.87 548
2165 0 102.186 14.131 1444 51.741 1233.69 547.432
2166 0 106.374 13.3961 1425 52.3579 1233.53 546.641
2167 0 108.342 13.8635 1502 52.3609 1233.69 544.925
2168 0 113.222 14.8646 1683 50.8978 1233.48 542.913
2169 0 117.372 14.4924 1701 51.5409 1233.18 541.402
2170 0 118.224 13.6521 1614 52.5465 1233.2 540.766
2171 0 123.161 14.4932 1785 45.0409 1233.08 539.286
2172 0 125.311 14.2605 1787 51.906 1233.6 534.953
2173 0 128.309 13.6546 1752 52.1981 1233.35 534.381
2174 0 133.425 14.2552 1902 51.5237 1232.76 529.976
2175 0 136.429 14.7476 2012 50.6208 1232.69 526.772
2176 0 142.227 14.4065 2049 50.8873 1232.63 524.757
2177 0 144.325 14.405 2079 51.5137 1233.21 523.901
2178 0 150.365 14.0924 2119 51.9896 1233.32 519.811
2179 0 154.23 13.7263 2117 52.3269 1233.68 517.849
2180 0 160.31 14.2661 2287 52.4827 1233.76 515.761
2181 0 164.23 14.3153 2351 52.7239 1233.96 514.003
2182 0 174.385 15.7181 2741 50.981 1234.06 510.246
2183 1 98.2051 11.0279 1083 53.3684 1233.81 547.014
2184 0 102.279 10.9114 1116 53.5 1234.26 546.522
2185 0 106.422 12.441 1324 52.3384 1234.67 544.19
2186 0 111.227 13.0274 1449 51.8565 1235.02 540.401
2187 0 113.492 13.7719 1563 51.9527 1234.92 537.015
2188 0 116.135 13.4756 1565 52.1227 1235.05 537.206
2189 0 119.448 12.7252 1520 53.5224 1234.94 532.514
2190 0 124.645 13.3981 1670 52.5515 1234.98 531.742
2191 0 131.59 13.8688 1825 51.3271 1235.46 529.83
2192 0 133.665 14.05 1878 52.2194 1235.31 528.077
2193 0 135.436 13.6226 1845 52.7436 1235.69 523.059
2194 0 139.415 14.0874 1964 51.7464 1235.96 523.909
2195 0 143.529 13.0775 1877 52.8679 1235.84 520.584
2196 0 150.359 13.5608 2039 52.4826 1236.1 518.257
2197 0 154.515 12.7108 1964 53.2816 1236.27 517.026
2198 0 158.619 13.5987 2157 52.5373 1236.4 513.082
2199 0 165.395 13.6219 2253 52.692 1236.17 509.627
2200 0 170.28 14.2119 2420 52.4004 1236.51 508.456
2201 0 176.488 14.0463 2479 52.5627 1236.67 505.821
2202 0 182.369 14.1361 2578 52.4449 1237.05 503.427
2203 0 187.364 13.8447 2594 53.4738 1237.29 496.846
2204 0 194.268 14.0425 2728 52.6932 1237.31 496.688
2205 0 200.489 14.1205 2831 52.7209 1237.62 494.517
2206 0 203.287 13.3457 2713 53.8382 1237.95 491.149
2207 0 211.257 14.1061 2980 53.0631 1237.83 489.421
2208 0 217.375 13.8056 3001 53.4499 1238.1 487.341
2209 0 223.408 14.8384 3315 52.1222 1238.17 480.771
2210 0 230.451 15.0531 3469 52.2747 1238.28 478.256
2211 1 166.319 11.5381 1919 53.0703 1238.15 516.675
2212 0 172.408 12.5864 2170 52.2415 1238.5 510.428
2213 0 179.381 13.4184 2407 51.6003 1238.39 505.51
2214 0 185.366 13.2549 2457 51.6272 1238.8 506.917
2215 0 191.3 13.9153 2662 51.1138 1238.9 500.692
2216 0 197.296 13.4772 2659 51.2373 1238.94 496.287
2217 0 201.578 13.4687 2715 51.5249 1238.98 492.768
2218 0 208.434 13.9804 2914 51.5679 1239.02 489.828
2219 0 215.366 13.6651 2943 51.5892 1238.95 482.201
2220 0 223.377 13.748 3071 51.9785 1239.55 479.477
2221 0 232.367 14.1887 3297 51.6433 1239.12 475.501
2222 0 238.494 12.4532 2970 53.1677 1238.9 474.78
2223 0 246.41 13.3152 3281 52.4057 1239.4 472.133
2224 0 254.74 12.6757 3229 53.4035 1238.97 463.815
2225 1 221.442 8.96851 1986 52.5816 1238.88 505.887
2226 0 219.284 8.80137 1930 53.4031 1238.98 502.105
2227 0 220.343 10.0071 2205 52.961 1239.23 495.882
2228 0 219.401 10.8158 2373 53.5963 1238.98 489.172
2229 0 225.598 12.1677 2745 53.1923 1238.83 482.21
2230 0 230.512 12.5547 2894 52.7723 1238.66 479.063
2231 0 239.456 13.5557 3246 51.6833 1238.32 472.907
2232 0 248.501 15.356 3816 48.6098 1238.44 465.837
2233 0 253.575 14.0708 3568 50.4784 1238.52 459.249
2234 0 261.433 14.7151 3847 49.927 1238.56 453.343
2235 0 271.444 15.8154 4293 48.6273 1237.88 452.737
2236 0 279.41 15.1462 4232 49.323 1238.34 444.721
2237 0 288.47 15.4158 4447 48.9768 1237.43 439.324
2238 0 298.464 14.1391 4220 50.5716 1237.68 429.551
2239 0 308.692 15.4296 4763 48.9809 1238.18 430.616
2240 0 81.3993 10.0247 816 47.5355 1238 551.471
2241 0 84.4863 9.52817 805 48.3739 1238.14 553.595
2242 0 88.2778 12.0302 1062 46.4077 1238.3 550.578
2243 0 88.2354 12.2853 1084 47.107 1239.23 547.734
2244 0 91.4356 12.774 1168 46.6199 1239.26 546.429
2245 0 92.4251 11.6527 1077 47.7437 1238.9 543.41
2246 0 96.3703 12.2237 1178 47.0467 1238.61 542.448
2247 0 98.3035 12.2681 1206 47.204 1238.71 541.543
2248 0 107.577 17.7547 1910 41.2691 1239 537.621
2249 0 105.4 14.0797 1484 45.7392 1238.36 536.932
2250 0 110.5 13.4752 1489 46.0705 1238.03 534.775
2251 0 112.59 14.7259 1658 45.2099 1238.03 535.659
2252 0 111.446 12.6698 1412 47.8258 1238.08 537.545
2253 0 114.775 15.9879 1835 44.4289 1238.35 535.812
2254 0 116.393 14.5542 1694 46.2338 1238.3 533.324
2255 0 119.456 14.0302 1676 45.7584 1237.52 528.144
2256 0 121.648 13.6789 1664 46.1785 1237.33 528.376
2257 0 125.534 14.6494 1839 45.236 1237.28 527.626
2258 0 125.574 13.2193 1660 47.0819 1237.02 524.65
2259 0 130.414 14.6687 1913 45.4877 1236.94 525.984
2260 0 133.479 14.227 1899 46.435 1237.17 521.805
2261 0 137.699 15.178 2090 45.4818 1237.36 521.42
2262 0 141.429 14.6787 2076 45.9412 1237.31 518.794
2263 0 143.463 13.8084 1981 47.3347 1237.63 517.974
2264 0 148.66 15.411 2291 45.5866 1237.38 514.745
2265 1 93.3379 10.6816 997 47.5256 1237.44 545.341
2266 0 95.4651 11.4073 1089 46.9651 1236.91 547.252
2267 0 97.4271 12.2451 1193 46.8768 1237.2 546.498
2268 0 100.753 12.5158 1261 46.5734 1237.49 545.853
2269 0 104.434 12.7353 1330 46.1602 1236.89 545.148
2270 0 107.49 13.9176 1496 45.3516 1237.29 543.381
2271 0 110.526 12.4676 1378 46.9536 1237.05 542.83
2272 0 111.588 12.9583 1446 46.3458 1236.94 541.837
2273 0 114.711 13.7215 1574 45.8355 1236.62 540.809
2274 0 117.577 13.1318 1544 46.6574 1236.98 536.707
2275 0 120.785 13.3294 1610 46.5068 1237.14 532.88
2276 0 124.753 12.641 1577 47.2042 1236.49 533.583
2277 0 126.766 12.3534 1566 47.749 1236.4 532.278
2278 0 130.719 14.3055 1870 45.9989 1236.1 529.027
2279 0 134.647 13.6505 1838 46.9217 1236.06 526.893
2280 0 137.546 13.2537 1823 47.2419 1235.83 523.926
2281 0 141.79 13.513 1916 47.2578 1235.83 523.678
2282 0 142.657 13.0312 1859 47.9419 1235.49 520.996
2283 0 146.929 13.5031 1984 47.7162 1235.47 521.33
2284 0 152.765 13.9168 2126 47.1726 1235.23 520.688
2285 0 156.672 13.0847 2050 48.2659 1235.34 517.232
2286 0 162.812 14.4215 2348 46.9067 1235.48 512.885
2287 0 167.973 14.4964 2435 47.1277 1235.59 510.65
2288 0 173.544 14.7571 2561 46.957 1235.32 506.747
2289 1 104.616 11.5279 1206 46.3765 1235.72 542.091
2290 0 108.7 11.1132 1208 46.572 1235.73 545.241
2291 0 110.66 11.1152 1230 47.0837 1235.47 541.983
2292 0 113.686 11.7253 1333 46.5356 1235.37 541.387
2293 0 116.59 12.2051 1423 46.3394 1234.74 538.283
2294 0 118.516 11.9225 1413 46.6971 1234.85 536.801
2295 0 121.484 11.6394 1414 46.7687 1235.08 537.09
2296 0 126.43 11.9987 1517 46.3237 1234.96 533.92
2297 0 128.606 11.889 1529 46.9653 1235.2 532.886
2298 0 133.642 11.7702 1573 47.1805 1235.23 533.765
2299 0 136.642 12.3608 1689 46.5175 1235.57 531.102
2300 0 137.718 12.2569 1688 46.8418 1235.5 528.494
2301 0 141.826 11.9372 1693 47.0685 1235.42 526.011
2302 0 146.424 13.5429 1983 46.1311 1235.04 521.754
2303 0 151.847 14.047 2133 45.5588 1234.98 522.504
2304 0 153.576 12.2415 1880 47.391 1235.07 521.716
2305 0 159.597 12.2622 1957 47.8457 1234.93 519.216
2306 0 162.906 12.9707 2113 47.5665 1235.11 515.702
2307 0 169.632 12.704 2155 47.6371 1235.09 514.364
2308 0 172.592 12.3123 2125 48.4809 1234.66 508.312
2309 0 179.677 12.6505 2273 48.3502 1234.58 505.704
2310 0 184.852 13.5027 2496 47.9828 1235.09 502.115
2311 0 190.67 13.3844 2552 48.3013 1234.98 499.235
2312 0 195.817 12.3074 2410 49.5058 1235.27 496.539
2313 0 202.618 13.2318 2681 48.8407 1235.03 492.923
2314 1 38.2646 7.84015 300 43.53 1235.1 578.65
2315 0 40.627 10.018 407 43.5233 1235.54 577.233
2316 0 40.5565 9.66553 392 44.8393 1235.76 576.224
2317 0 41.4026 10.9896 455 44.4571 1236.04 577.152
2318 0 42.4516 9.91717 421 46.2993 1236.64 577.359
2319 0 41.4238 10.3805 430 46.686 1236.71 576.293
2320 0 41.4915 9.68873 402 47.0423 1236.4 576.639
2321 0 43.2931 11.2951 489 46.1759 1236.74 574.317
2322 0 43.3353 11.261 488 46.0451 1236.61 575.17
2323 0 45.3687 10.5579 479 47.0021 1236.56 575.472
2324 0 45.457 11.3734 517 46.2302 1236.73 574.19
2325 0 47.2875 11.8002 558 46.0287 1236.88 572.321
2326 0 49.461 12.1106 599 45.5726 1236.86 570.968
2327 0 46.1469 11.0733 511 46.6321 1237.06 570.853
2328 0 48.324 10.1606 491 49.7699 1237.75 571.77
2329 0 49.271 11.9949 591 48.5516 1237.97 570.827
2330 0 50.4197 12.039 607 48.7446 1238.17 570.54
2331 0 51.3414 12.2903 631 48.7195 1238.07 570.209
2332 0 51.3739 10.6085 545 51.0422 1238.39 569.286
2333 0 51.309 11.6549 598 50.8746 1238.02 568.749
2334 0 51.419 12.3884 637 49.9152 1238.14 569.102
2335 0 51.5655 11.9848 618 51.1197 1238.04 567.984
2336 0 52.3822 11.9697 627 51.3254 1237.97 568.531
2337 0 54.3369 11.4287 621 51.6264 1238.12 569.467
2338 0 51.5432 11.2333 579 52.9257 1238.27 570.734
2339 0 52.5478 11.9701 629 53.1701 1237.96 568.479
2340 0 54.4953 11.9643 652 53.3497 1238.21 568.597
2341 0 55.1878 12.1947 673 53.0862 1238.29 569.293
2342 0 56.4065 12.4099 700 53.4943 1238.31 567.106
2343 0 55.2962 12.7495 705 54.2993 1238.66 566.018
2344 0 58.4527 12.8822 753 54.1129 1238.59 566.477
2345 0 56.3255 13.0669 736 55.2663 1238.49 564.783
2346 0 57.3929 12.7019 729 55.7929 1238.88 565.846
2347 0 57.2288 13.8042 790 54.6291 1239.09 565.071
2348 0 57.4763 12.7531 733 56.4297 1239.08 565.874
2349 0 57.4451 13.0559 750 56.3907 1239.61 566.556
2350 0 58.2931 13.1576 767 56.2751 1239.41 566.179
2351 0 58.2843 12.9366 754 56.8886 1238.86 561.737
2352 0 60.3239 13.1954 796 56.4435 1239.42 561.897
2353 0 57.6372 12.4746 719 58.2295 1239.01 562.095
2354 0 59.307 13.2025 783 57.318 1239.08 561.849
2355 0 58.7088 12.8431 754 58.0106 1238.97 562.656
2356 0 59.6419 13.3463 796 57.4234 1239.08 561.967
2357 0 59.6419 13.3463 796 173.952 1239.08 561.967
2358 0 57.4977 13.4962 776 58.8376 1238.7 561.688
2359 0 59.7434 13.5747 811 58.5573 1238.46 560.311
2360 0 58.3749 12.3683 722 60.331 1238.44 563.091
2361 0 59.4739 14.5274 864 57.6667 1238.12 559.7
2362 0 59.4739 14.5274 864 165.331 1238.12 559.7
2363 0 58.4484 13.7044 801 59.0749 1238.04 562.678
2364 0 58.3173 13.8038 805 59.2845 1237.72 564.314
2365 0 59.5881 13.1738 785 60.3516 1237.77 563.284
2366 0 60.4525 13.4982 816 59.9694 1237.64 562.909
2367 0 60.4838 13.3424 807 60.0062 1236.83 564.059
2368 0 59.5681 13.4804 803 60.594 1236.88 564.121
2369 0 59.576 13.8143 823 60.4326 1237.44 562.296
2370 0 59.328 13.063 775 61.8903 1237.07 563.022
2371 0 61.4502 14.2717 877 59.0353 1236.96 562.05
2372 0 60.4817 12.913 781 61.6159 1236.54 562.807
2373 0 60.7303 12.9919 789 61.4766 1236.55 563.013
2374 0 61.6133 12.7732 787 61.8247 1236.48 562.099
2375 0 61.5683 12.815 789 61.815 1236.49 563.179
2376 0 60.536 12.7032 769 62.684 1236.44 562.497
2377 0 60.7351 13.4683 818 61.2042 1236.27 564.628
2378 0 59.4943 12.5894 749 62.9599 1236.34 565.689
2379 0 59.518 12.8869 767 62.2451 1236.39 564.175
2380 0 59.4347 13.5443 805 61.3031 1236.32 564.111
2381 0 60.5939 13.4832 817 58.4357 1236.33 565.405
2382 0 60.8117 13.55 824 58.6019 1236.29 563.161
2383 0 62.3989 13.8784 866 57.5566 1236.77 562.913
2384 0 61.5409 12.7558 785 59.4013 1236.61 564.167
2385 0 61.6612 13.8012 851 57.7027 1236.3 563.593
2386 0 60.7474 14.0253 852 58.1033 1236.74 563.358
2387 0 62.5293 14.2493 891 56.6891 1236.82 562.785
2388 0 61.7971 14.402 890 56.527 1236.36 563.5
2389 0 62.7215 14.0143 879 56.8191 1236.54 564.615
2390 0 60.4297 14.248 861 57.5192 1236.65 564.933
2391 0 60.6401 13.6049 825 58.0073 1236.62 565.693
2392 0 62.5976 13.0037 814 58.0086 1236.54 566.009
2393 0 62.5978 14.3456 898 56.294 1236.57 564.371
2394 0 62.4808 14.3884 899 56.3192 1236.72 564.953
2395 0 60.5525 13.542 820 58.122 1236.23 563.823
