time division length width area intensity CMx CMy
703 0 47.0172 10.762 506 56.2036 1147.3 509.545
704 0 51.1716 11.5298 590 55.3356 1146.18 514.129
705 0 52.1228 12.2787 640 54.3922 1145.9 518.819
706 0 54.0577 11.8947 643 54.1509 1145.63 523.891
707 0 54.0836 11.5377 624 55.141 1145.57 525.699
708 0 55.1892 11.977 661 54.475 1146.52 529.113
709 0 58.0536 12.1267 704 60.6861 1146.05 533.445
710 0 58.0492 11.8865 690 66.8493 1145.42 536.941
711 0 60.253 12.2318 737 66.6119 1145.49 540.962
712 0 61.1107 12.5019 764 66.6885 1145.55 543.741
713 0 64.1082 12.3385 791 66.6776 1145.54 548.78
714 0 66.1813 12.4355 823 67.3597 1145.34 552.872
715 0 67.2516 11.8213 795 69.2931 1145.5 550.938
716 0 69.2643 12.3585 856 69.0514 1145.52 551.193
717 0 72.2658 11.7206 847 69.8867 1144.92 549.105
718 1 36.1078 9.55471 345 69.4464 1144.61 565.249
719 0 36.0244 8.93838 322 69.7981 1145.24 565.186
720 0 40.081 10.6784 428 68.9182 1145.66 566.292
721 0 40.1223 9.81997 394 70.4518 1145.3 565.668
722 0 41.1584 10.6175 437 69.4645 1144.57 566.709
723 0 43.1801 9.8425 425 70.3741 1144.37 567.494
724 0 46.2443 10.9851 508 69.1417 1144.21 565.524
725 0 46.1284 10.254 473 70.5201 1144.07 565.353
726 0 47.2375 11.0717 523 69.1855 1143.92 565.38
727 0 47.1045 9.42584 444 71.8153 1144 563.829
728 0 48.2617 10.5674 510 71.8745 1143.78 561.629
729 0 50.1668 11.4219 573 71.2478 1143.28 561.726
730 0 51.1431 11.067 566 71.8392 1143.74 563.042
731 0 52.1829 11.3064 590 72.6034 1143.51 563.642
732 0 55.146 11.2066 618 73.6084 1144.21 561.176
733 0 56.321 11.2747 635 74.3528 1143.52 560.329
734 0 58.2799 11.4105 665 75.0391 1143.74 560.31
735 0 56.0992 10.7666 604 76.5861 1144.51 559.391
736 0 58.0943 11.9633 695 76.4849 1143.65 558.601
737 0 60.1056 12.0288 723 76.6238 1143.81 556.068
738 0 63.15 11.8923 751 77.1372 1143.54 557.916
739 0 65.1336 10.8393 706 78.932 1143.84 556.986
740 0 63.267 10.8271 685 80.5664 1143.41 554.012
741 0 69.1079 12.1983 843 78.7331 1143.47 555.582
742 0 70.1636 13.6823 960 78.4708 1143.46 553.54
743 0 72.1703 13.385 966 79.146 1143.05 552.703
744 0 73.1019 12.0106 878 81.5535 1143.43 552.485
745 0 76.1631 11.9087 907 81.5105 1143.09 551.928
746 0 78.2405 12.2187 956 82.3285 1143.03 549.505
747 1 40.0768 9.83112 394 81.9695 1143.3 569.627
748 0 47.1776 10.6194 501 80.1238 1143.59 569.443
749 0 47.0928 11.127 524 79.9447 1143.55 569.91
750 0 46.059 11.7458 541 81.5712 1143.04 567.29
751 0 48.1499 11.8796 572 81.6731 1142.91 566.89
752 0 47.0529 11.6465 548 79.9015 1144.05 566.672
753 0 49.1146 12.2367 601 79.0682 1144.04 566.777
754 0 52.1792 11.863 619 80.0388 1143.53 565.065
755 0 51.1584 12.1388 621 80.8824 1143.38 564.124
756 0 52.1195 11.2626 587 81.8382 1142.99 565.397
757 0 55.1374 11.5167 635 82.3937 1143.33 563.381
758 0 56.1704 10.753 604 84.4884 1143.23 564.505
759 0 60.0551 12.705 763 81.8283 1142.74 564.083
760 0 61.2457 12.0988 741 80.9514 1143.2 563.105
761 0 61.1166 11.6826 714 82.6737 1143.36 560.013
762 0 63.081 14.3783 907 79.5469 1143.95 559.38
763 0 63.2915 11.4233 723 83.5754 1143.76 559.101
764 0 68.1324 14.1049 961 80.2789 1143.61 559.791
765 0 67.1275 12.5731 844 83.7808 1143.31 557.859
766 0 68.2426 12.6167 861 83.9756 1143.02 556.792
767 0 72.1559 12.4314 897 84.0435 1142.73 558.319
768 0 74.2974 12.5307 931 83.9538 1142.36 555.967
769 0 75.4689 12.1772 919 84.9173 1142.15 554.064
770 0 79.3052 13.5552 1075 81.5209 1141.76 552.518
771 0 81.4075 12.333 1004 82.8217 1142.48 551.354
772 0 81.4075 12.3944 1009 141.173 1143.48 551.396
773 1 43.1264 11.3851 491 81.0468 1142.31 570.69
774 0 44.1133 9.06756 400 82.525 1142.88 571.35
775 0 46.067 10.7886 497 82.3803 1143.2 569.825
776 0 48.0495 11.6547 560 81.4786 1143.06 569.391
777 0 49.0502 11.0499 542 82.0092 1143.08 568.76
778 0 51.1453 11.7899 603 80.2023 1143.13 567.511
779 0 51.0367 11.6975 597 80.9347 1143.43 567.352
780 0 53.0301 11.3332 601 70.8469 1143.5 567.612
781 0 54.0913 11.5545 625 71.3744 1143.69 565.094
782 0 57.0837 12.6306 721 70.5687 1143.41 563.842
783 0 58.1327 12.2134 710 72.4366 1143.16 564.148
784 0 59.2386 12.3568 732 73.6148 1143.59 562.149
785 0 61.0387 13.0737 798 73.6178 1143.49 560.382
786 0 63.1677 12.8863 814 74.3857 1143.78 558.291
787 0 65.088 11.6919 761 76.2286 1143.42 559.673
788 0 67.0827 12.3579 829 76.971 1143.69 557.425
789 0 71.2591 13.4158 956 75.8473 1144.47 555.793
790 0 73.3653 13.6168 999 76.3353 1144.23 556.153
791 0 73.378 12.6877 931 78.5145 1144.87 554.416
792 1 40.0252 10.2935 412 76.915 1144.79 574.546
793 0 40.1384 10.2146 410 80.2439 1144.91 570.734
794 0 43.0461 11.3831 490 79.9 1144.42 571.147
795 0 42.1182 11.3253 477 81.1635 1144.36 570.396
796 0 44.1381 11.9851 529 81.1096 1144.64 567.964
797 0 47.1506 10.6043 500 82.794 1144.02 567.932
798 0 47.1332 12.2843 579 73.2124 1144.34 566.736
799 0 49.3011 12.3121 607 74.4217 1144.06 565.794
800 0 51.0918 12.3895 633 74.0174 1144.58 566.499
801 0 50.1959 11.6942 587 76.2112 1144.84 566.499
802 0 52.1738 12.4775 651 75.6359 1144.98 565.1
803 0 54.1184 13.1563 712 74.941 1144.95 565.166
804 0 56.1692 11.6434 654 77.7737 1144.92 564.315
805 0 56.0526 12.5775 705 77.1986 1145.07 562.539
806 0 57.1744 11.7885 674 78.5089 1145.71 561.855
807 0 62.1849 12.9613 806 76.6042 1145.53 560.797
808 0 64.1478 12.175 781 78.4545 1145.64 560.558
809 0 66.1062 13.0396 862 77.1125 1145.62 559.979
810 0 66.1468 13.3037 880 78.5568 1146.1 557.748
811 0 68.1803 12.687 865 79.4012 1146.68 557.888
812 0 69.1424 12.1199 838 80.8067 1146.85 557.023
813 0 72.2717 11.3322 819 82.0501 1146.6 555.758
814 0 73.266 13.0347 955 80.3864 1146.85 554.968
815 0 76.1558 13.2754 1011 81.0643 1146.64 552.775
816 0 78.1691 14.1872 1109 79.9495 1146.5 553.382
817 0 82.119 13.9432 1145 80.4454 1146.39 551.43
818 0 82.1347 13.0761 1074 82.202 1146.37 549.831
819 0 85.1895 14.3445 1222 81.3224 1146.82 549.489
820 0 88.1777 13.5862 1198 82.8715 1146.54 546.625
821 0 91.125 11.8848 1083 84.5873 1146.82 546.514
822 1 48.0952 11.7683 566 82.0495 1147.58 566.539
823 0 48.0545 11.5286 554 82.9657 1147.23 566.711
824 0 51.117 12.2073 624 80.8462 1146.17 564.619
825 0 51.2529 12.5652 644 80.1972 1146.36 563.988
826 0 54.1872 10.5745 573 81.9878 1146.19 565.26
827 0 54.104 12.5129 677 81.6041 1145.88 562.659
828 0 55.2296 11.2259 620 83.1403 1146.06 563.044
829 0 59.1791 12.2847 727 80.7744 1146.38 563.525
830 0 58.1353 11.7829 685 82.0131 1146 561.667
831 0 60.1621 12.6492 761 80.8541 1146.21 560.134
832 0 60.1587 11.0375 664 82.8163 1146.18 562.096
833 0 63.2271 13.3329 843 81.0368 1145.93 556.822
834 0 66.211 11.9467 791 83.2794 1146.17 556.925
835 0 67.1044 10.5507 708 84.6864 1146.12 558.246
836 0 68.1289 11.6397 793 98.7844 1145.86 553.373
837 0 71.1031 10.2808 731 98.5705 1146.27 556.562
838 0 73.2088 11.0642 810 95.9741 1145.9 553.32
839 0 76.218 10.4831 799 94.9161 1145.97 553.538
840 0 78.13 11.0713 865 93.5908 1145.75 551.564
841 1 45.1204 9.66303 436 89.9702 1146.14 568.58
842 0 45.0372 10.347 466 88.4034 1146.73 567.931
843 0 44.0865 10.1165 446 85.7735 1146.59 566.915
844 0 48.0393 10.5747 508 84.6772 1146.46 565.301
845 0 50.1098 11.2154 562 83.7936 1146.12 564.605
846 0 50.0455 10.8301 542 84.7675 1146.25 564.625
847 0 52.0802 11.4823 598 83.5184 1145.45 564.333
848 0 54.0599 11.9867 648 83.0694 1145.55 562.994
849 0 56.1916 11.2294 631 84.8225 1145.37 562.536
850 0 56.082 10.8413 608 85.301 1145.31 560.788
851 0 58.0854 10.9322 635 84.2047 1145.73 562.557
852 0 59.1904 11.5221 682 83.5176 1145.3 561.271
853 0 62.1013 11.4007 708 82.7274 1144.82 559.532
854 0 63.2772 12.6586 801 81.6417 1144.99 556.933
855 0 66.3189 12.6962 842 81.0309 1144.56 556.182
856 0 65.2551 11.2328 733 83.161 1144.62 557.285
857 0 70.3092 12.6015 886 81.1479 1145.1 554.72
858 0 70.2897 11.3388 797 83.2183 1144.76 554.156
859 0 75.1628 11.8543 891 82.1886 1144.42 554.24
860 1 42.1329 9.5175 401 81.8304 1144.61 569.731
861 0 44.0779 10.1184 446 80.3049 1144.11 571.453
862 0 45.2047 10.3087 466 80.6373 1144.06 569.627
863 0 46.1229 11.4694 529 80.3081 1144.21 568.949
864 0 45.1277 12.1212 547 81.649 1143.85 566.503
865 0 49.0126 11.1604 547 83.777 1144.1 567.488
866 0 50.0597 11.0468 553 89.311 1143.93 567.063
867 0 48.0686 10.2354 492 92.5081 1143.53 565.197
868 0 48.0686 10.381 499 125.359 1142.53 565.144
869 0 52.2136 10.9167 570 97.0684 1144.04 564.046
870 0 54.0776 11.2431 608 97.1875 1143.64 564.028
871 0 57.1316 11.6223 664 96.2756 1144.06 564.405
872 0 57.1189 10.697 611 97.1277 1143.88 564.007
873 0 58.1293 10.8723 632 97.8133 1144.1 561.44
874 0 60.1018 11.9464 718 96.8565 1142.93 560.915
875 0 63.2086 11.1694 706 98.3399 1143.26 560.069
876 0 66.0374 12.0083 793 97.3077 1143.04 559.873
877 0 64.0905 11.7646 754 96.6751 1142.52 555.263
878 0 65.2402 10.3464 675 91.6119 1143.4 556.828
879 0 73.3471 12.734 934 69.6071 1143.27 554.597
880 0 76.3176 12.8935 984 67.3232 1143.19 555.544
881 1 38.2849 10.4219 399 66.8571 1142.91 574.213
882 0 40.1691 10.2317 411 66.4136 1143 572.852
883 0 41.1132 10.994 452 64.5575 1142.41 572.761
884 0 42.2874 11.0671 468 63.6218 1142.76 571.485
885 0 43.1096 12.2015 526 60.7357 1142.67 571.116
886 0 45.1843 11.3756 514 60.144 1142.15 571.237
887 0 47.1731 11.8288 558 60.1219 1142.03 570.079
888 0 46.2288 12.1569 562 59.9199 1142.47 568.42
889 0 48.1448 11.1746 538 61.4498 1142.51 568.519
890 0 51.2279 12.1809 624 59.6154 1142.54 566.543
891 0 52.2138 11.6827 610 61.7918 1142.84 566.502
892 0 52.173 12.8611 671 60.6557 1143.42 565.513
893 0 53.3116 12.6051 672 61.1994 1143.67 566.485
894 0 54.1314 12.6729 686 61.9184 1143.62 564.608
895 0 56.2843 12.4546 701 62.6961 1144.36 564.058
896 0 58.1601 11.967 696 64.1624 1144.21 561.114
897 0 60.2997 13.2173 797 62.4065 1144.59 561.705
898 0 61.1192 12.222 747 64.3213 1144.41 560.726
899 0 63.2006 12.6581 800 63.4325 1144.7 560.511
900 0 64.1966 13.6923 879 62.8305 1144.65 557.861
901 0 64.1608 12.9674 832 65.0841 1144.81 556.965
902 0 69.1162 13.6003 940 63.2596 1145.21 556.463
903 0 71.201 12.9352 921 63.937 1145.06 554.447
904 0 73.3089 13.2044 968 63.9318 1145.45 554.231
905 0 74.213 13.1109 973 64.5745 1145.7 552.193
906 0 77.2375 12.7788 987 64.6434 1145.93 551.706
907 0 78.2502 12.3195 964 65.4232 1145.72 549.56
908 1 41.1278 10.4066 428 65.5607 1146.42 568.54
909 0 40.274 10.4534 421 65.9596 1146.51 568.843
910 0 45.1935 11.1742 505 64.6594 1146.65 567.418
911 0 45.0737 11.1595 503 64.0318 1147.29 566.425
912 0 47.1186 11.8212 557 63.6822 1147.12 565.253
913 0 48.2355 12.0243 580 63.569 1146.3 565.024
914 0 48.0918 12.185 586 63.814 1146.37 563.753
915 0 52.1142 12.511 652 63.0046 1147.18 563.239
916 0 51.1581 11.9434 611 64.1735 1147.55 561.966
917 0 54.1836 12.4207 673 62.6686 1147.68 560.3
918 0 56.0895 12.6405 709 62.7236 1147.88 559.755
919 0 58.1272 12.6619 736 62.7514 1148.04 559.293
920 0 60.066 12.6361 759 62.7036 1148.23 558.385
921 0 61.1121 12.3216 753 63.498 1148.21 557.793
922 0 65.0937 13.1349 855 61.3064 1148.15 556.908
923 0 65.1121 13.0698 851 61.9248 1148.24 555.816
924 0 68.1982 12.9622 884 62.4129 1148.23 553.792
925 0 69.091 12.6355 873 62.9565 1147.9 554.162
926 0 72.1506 13.0699 943 62.1092 1148.29 554.48
927 0 75.0929 13.49 1013 61.7009 1148.08 552.224
928 0 77.114 13.7718 1062 61.6234 1148.52 551.564
929 0 79.3204 13.5778 1077 62.2321 1148.78 550.168
930 1 41.1764 10.7586 443 64.5282 1148.18 567.591
931 0 43.1299 11.8943 513 63.883 1147.92 565.897
932 0 44.1735 11.9076 526 64.3669 1147.9 566.228
933 0 46.2166 11.7707 544 64.2812 1147.48 565.419
934 0 48.1234 12.468 600 63.8567 1147.63 563.605
935 0 49.0829 13.2633 651 62.702 1147.84 563.733
936 0 51.1796 12.8372 657 63.5601 1148.19 562.887
937 0 51.148 12.7473 652 64.2883 1148.1 563.262
938 0 54.1733 12.5338 679 64.3166 1147.79 562.844
939 0 54.1726 12.294 666 65.467 1147.26 561.515
940 0 56.0818 12.7671 716 64.4316 1147.41 560.605
941 0 59.2861 12.6505 750 64.9827 1146.86 559.471
942 0 60.2378 12.7993 771 63.987 1146.91 559.581
943 0 62.208 12.9565 806 63.7581 1146.6 559.094
944 0 64.2088 13.7053 880 62.9102 1146.25 556.747
945 0 67.1324 13.3765 898 63.0178 1146.29 557.263
946 0 67.1869 13.4103 901 63.2264 1146.49 555.384
947 0 71.373 13.3384 952 63.2763 1145.98 552.59
948 0 72.2919 13.1273 949 63.8915 1146.01 551.98
949 0 74.2765 12.9381 961 63.7898 1146.13 551.358
950 0 77.2218 12.6001 973 63.8746 1145.79 550.576
951 0 81.3374 13.3026 1082 62.134 1145.45 550.528
952 0 84.3856 13.1421 1109 62.8656 1145.29 548.711
953 1 43.1133 11.3654 490 62.5245 1145.91 568.698
954 0 42.0829 10.7169 451 63.3171 1145.6 567.907
955 0 42.0829 10.6932 450 163.584 1145.59 567.927
956 0 47.1313 11.4574 540 62.9593 1145.91 564.952
957 0 49.1712 11.9379 587 62.3748 1145.75 565.358
958 0 48.0839 12.0623 580 63.169 1145.77 564.207
959 0 51.183 12.934 662 61.6299 1144.93 563.133
960 0 53.1394 12.6084 670 62.1493 1144.46 563.363
961 0 53.1394 12.6084 670 158.04 1144.46 563.363
962 0 55.1526 13.3085 734 61.2398 1144.84 562.232
963 0 58.1905 12.2185 711 61.9845 1144.9 562.224
964 0 62.2827 12.8286 799 61.209 1145.31 560.87
965 0 60.3203 12.3507 745 63.0792 1145.12 559.793
966 0 62.1933 14.0691 875 60.7669 1144.99 557.101
967 0 65.3153 13.5037 882 61.8469 1145.07 555.937
968 0 68.3146 12.8816 880 62.3841 1144.78 557.049
969 0 71.2923 13.3254 950 61.3526 1144.46 556.242
970 0 72.2493 13.2873 960 62.5344 1144.73 553.453
971 0 74.208 13.2465 983 63.1526 1144.6 552.747
972 0 76.2086 13.463 1026 62.7992 1144.82 552.249
973 0 79.2578 13.311 1055 63.2834 1144.67 551.239
974 0 81.0844 12.9988 1054 63.9469 1144.66 550.7
975 0 84.2467 14.327 1207 62.512 1144.45 547.398
976 0 88.296 13.6586 1206 63.2023 1144.38 547.612
977 0 89.3686 13.0359 1165 64.6944 1143.91 546.397
978 1 49.1677 10.7388 528 65.9678 1143.4 566.403
979 0 50.1362 11.4887 576 65.8819 1143.03 565.821
980 0 53.1564 11.7954 627 65.1053 1143.22 565.707
981 0 54.0845 12.2956 665 64.8872 1143.19 562.865
982 0 57.2313 12.4757 714 63.9902 1143.24 563.342
983 0 58.2199 12.1436 707 65.3649 1143.21 561.082
984 0 59.0996 12.1321 717 64.9079 1143.33 561.031
985 0 63.1157 13.2297 835 63.1497 1143.5 559.441
986 0 66.3194 12.4549 826 63.4855 1143.13 559.611
987 0 69.3347 13.6151 944 61.9354 1143.05 558.202
988 0 70.3365 13.3785 941 62.5441 1143.28 557.071
989 0 70.3365 13.3501 939 159.6 1144.28 557.059
990 0 74.3594 14.2416 1059 62.1974 1143.59 553.998
991 0 76.4817 14.0295 1073 62.3206 1143.17 553.549
992 0 80.2429 14.1819 1138 62.1766 1143.06 552.513
993 0 82.3544 14.2433 1173 62.5217 1142.87 550.35
994 0 83.4657 13.1072 1094 64.8483 1143.05 550.371
995 0 87.1841 13.202 1151 64.8341 1143.38 549.726
996 0 92.3205 14.0814 1300 63.4669 1143.64 549.065
997 0 94.3223 12.6587 1194 65.3191 1143.28 548.401
998 0 97.4736 13.5626 1322 64.1717 1143.43 546.083
999 1 46.1857 11.8218 546 67.9176 1143.23 568.678
1000 0 48.1856 12.4518 600 66.8867 1143.64 567.678
1001 0 51.1144 12.5796 643 66.4463 1143.51 567.33
1002 0 51.1959 14.0636 720 64.2694 1143.4 566.467
1003 0 53.1818 13.5761 722 64.6787 1143.59 566.789
1004 0 54.2355 13.4229 728 64.8626 1143.48 565.629
1005 0 58.1271 14.0898 819 63.42 1143.23 564.447
1006 0 59.2461 14.1613 839 63.4863 1143.19 563.017
1007 0 63.2877 13.4939 854 63.2471 1143.28 563.989
1008 0 63.4085 13.9571 885 63.1028 1143.31 562.59
1009 0 66.2777 13.9564 925 62.8865 1143.26 560.056
1010 0 68.2527 14.4317 985 62.2345 1143.32 559.041
1011 0 71.2412 14.9211 1063 62.4779 1143.54 558.53
1012 0 76.2365 14.2714 1088 62.6654 1143.46 557.653
1013 0 77.3229 14.7434 1140 62.8518 1143.19 556.518
1014 0 79.1836 14.6874 1163 63.2502 1143.56 556
1015 0 82.1174 15.1125 1241 62.3328 1143.04 553.724
1016 1 41.0471 11.9131 489 66.4335 1143.3 575.546
1017 0 44.0777 12.4099 547 65.8867 1143.63 573.329
1018 0 44.0596 12.2561 540 66.4759 1143.56 572.467
1019 0 45.0189 12.2615 552 66.3913 1143.88 572.487
1020 0 46.0177 13.0602 601 66.6689 1143.69 571.266
1021 0 48.145 13.7086 660 64.8545 1144.44 571.739
1022 0 50.3105 13.9335 701 64.6662 1144.53 568.973
1023 0 51.1829 13.1489 673 65.6152 1144.6 569.807
1024 0 52.0563 14.5611 758 63.7137 1144.69 569.231
1025 0 54.2352 13.7365 745 64.6913 1144.74 568.56
1026 0 55.2238 14.5408 803 63.5006 1144.97 566.331
1027 0 57.1868 15.0909 863 62.4287 1144.89 565.902
1028 0 59.2416 14.2974 847 63.9091 1145.03 564.229
1029 0 63.3657 14.6136 926 62.4665 1145.38 563.739
1030 0 65.543 15.425 1011 61.3383 1145.44 561.633
1031 0 65.3025 14.1648 925 63.7124 1145.26 561.204
1032 0 71.3783 14.7524 1053 61.3466 1145.26 560.609
1033 0 71.4276 15.2462 1089 61.6933 1146.09 557.903
1034 0 71.4276 15.2462 1089 168.297 1147.09 557.903
1035 0 76.34 14.1472 1080 63.2944 1146.35 556.977
1036 0 79.3494 14.3416 1138 63.2373 1146.42 554.29
1037 0 81.2222 14.4911 1177 63.5276 1146.82 553.379
1038 0 85.5091 14.3026 1223 63.2756 1146.69 552.123
1039 0 88.2668 14.1503 1249 63.7822 1146.88 549.154
1040 1 42.1073 12.3969 522 66.59 1146.87 570.787
1041 0 45.2795 12.6989 575 66.1043 1147.01 569.111
1042 0 47.2464 13.6942 647 65.5641 1147.44 568.403
1043 0 47.1399 13.7251 647 66.1252 1147.13 568.688
1044 0 50.2771 14.0422 706 65.4802 1147.58 566.907
1045 0 52.33 13.7397 719 65.5452 1147.69 566.483
1046 0 53.2306 15.0102 799 63.2804 1148.17 565.867
1047 0 55.3593 15.2458 844 63.0545 1147.76 564.463
1048 0 57.2233 14.8541 850 63.9859 1147.76 562.588
1049 0 59.3149 14.482 859 64.2666 1147.79 561.944
1050 0 64.4002 16.1335 1039 61.1386 1147.75 560.431
1051 0 64.4278 14.8538 957 64.0763 1147.98 558.887
1052 0 66.5405 14.4874 964 64.7127 1148.38 558.924
1053 0 66.3081 15.3827 1020 64.148 1148.26 558.46
1054 0 70.4659 14.8015 1043 65.0192 1148.48 555.535
1055 0 72.3959 14.6417 1060 65.4811 1148.61 555.032
1056 0 75.5108 15.1634 1145 64.9389 1148.43 552.066
1057 1 40.468 11.7129 474 68.0316 1148.53 570.821
1058 0 40.151 11.9051 478 69.0983 1148.19 569.172
1059 0 42.3073 13.0947 554 67.7419 1148.72 567.978
1060 0 45.2823 13.0735 592 67.1402 1148.46 567.233
1061 0 47.5164 12.7956 608 67.3372 1148.88 565.382
1062 0 48.3654 13.6668 661 66.112 1148.35 566.08
1063 0 49.1544 13.8543 681 66.6858 1148.34 564.699
1064 0 52.4767 14.597 766 65.1893 1148.15 561.661
1065 0 55.4431 13.5454 751 65.9667 1148.4 561.771
1066 0 56.3546 13.9119 784 65.6288 1148.35 559.957
1067 0 59.5761 14.0996 840 65.0619 1148.05 558.899
1068 0 60.2602 13.4417 810 65.6136 1148.08 559.364
1069 0 65.3778 14.4697 946 62.9461 1148.29 558.067
1070 0 66.3898 14.4299 958 63.2568 1147.8 556.76
1071 0 66.407 13.1763 875 65.5669 1147.83 553.807
1072 0 70.4031 13.3091 937 64.6958 1147.8 552.883
1073 0 72.2471 13.1355 949 64.8166 1147.87 553.693
1074 0 76.2445 14.3092 1091 62.7727 1148.08 551.53
1075 1 39.2971 10.9932 432 65.2245 1148.06 568.488
1076 0 43.2217 11.7071 506 62.9743 1147.54 568.407
1077 0 43.1194 10.8536 468 64.4038 1147.35 568.361
1078 0 42.0567 12.0314 506 64.2036 1147.15 567.443
1079 0 47.2106 13.1326 620 61.6855 1146.92 566.635
1080 0 45.1141 12.7455 575 63.8713 1147.1 564.551
1081 0 49.0616 12.2295 600 63.0583 1147.29 565.325
1082 0 49.2307 12.9797 639 63.0501 1147.11 563.083
1083 0 50.1837 13.0919 657 62.9893 1146.98 561.877
1084 0 54.1921 12.917 700 62.4857 1147 561.309
1085 0 55.1151 13.2632 731 62.4432 1147 561.518
1086 0 56.1276 13.1486 738 62.8306 1147.34 559.897
1087 0 56.2113 13.4137 754 62.931 1147.16 558.647
1088 0 59.1557 12.9827 768 63.0807 1146.99 557.095
1089 0 61.2096 12.7921 783 62.9425 1147.03 558.67
1090 0 65.0797 13.737 894 61.4843 1146.55 556.191
1091 0 65.1554 13.2913 866 62.7725 1147.02 556.191
1092 0 66.1208 13.6417 902 62.908 1147.46 555.951
1093 0 70.0861 13.141 921 63.1802 1147.21 555.643
1094 0 73.0656 13.1389 960 63.3458 1147.17 550.76
1095 0 74.0468 12.5326 928 64.5539 1147.42 549.853
1096 0 78.2429 13.7393 1075 62.5777 1147.06 550.71
1097 0 79.114 13.6133 1077 63.4095 1146.96 548.103
1098 0 83.1117 12.8502 1068 63.9195 1147.01 544.882
1099 0 85.039 12.994 1105 63.819 1146.82 544.047
1100 0 90.1635 12.6104 1137 64.1697 1146.61 543.771
1101 1 49.1472 9.74624 479 63.3424 1146.67 564.605
1102 0 51.0373 9.24814 472 63.6822 1146.64 563.746
1103 0 51.0906 10.5695 540 62.9056 1146.46 561.97
1104 0 54.0647 11.0053 595 62.3042 1146.14 562.721
1105 0 55.0222 11.9588 658 61.9894 1146.31 559.84
1106 0 56.2098 12.2754 690 61.4768 1145.42 559.725
1107 0 58.2625 11.8429 690 61.571 1145.73 559.7
1108 0 61.1751 11.9493 731 60.4774 1145.57 560.153
1109 0 63.0805 12.064 761 61.138 1145.87 555.599
1110 0 64.337 11.3465 730 61.8959 1145.61 558.407
1111 0 68.1064 12.4805 850 60.4188 1145.28 556.094
1112 0 68.0886 12.4397 847 61.4238 1145.91 554.464
1113 0 70.1691 11.8286 830 62.2602 1145.61 552.707
1114 0 72.1757 12.2479 884 62.1878 1145.36 551.939
1115 0 75.1231 12.6725 952 61.8309 1145.22 551.087
1116 0 75.1218 11.9007 894 63.4318 1145.01 548.249
1117 0 77.1078 12.2945 948 62.9008 1145.35 549.419
1118 0 80.1323 12.392 993 62.8187 1145.09 546.722
1119 0 84.1445 12.7756 1075 62.4512 1145.23 546.713
1120 0 86.1443 12.363 1065 63.5146 1145.2 545.709
1121 0 88.102 12.3266 1086 64.4171 1145.19 545.278
1122 0 93.1823 11.8799 1107 64.6856 1145.18 544.058
1123 0 95.155 12.6636 1205 63.3768 1144.16 543.275
1124 0 99.1331 13.0431 1293 62.8469 1144.23 543.108
1125 0 100.132 12.5235 1254 64.0112 1144.42 542.748
1126 0 100.132 12.5334 1255 161.037 1145.44 542.831
1127 0 105.083 12.7518 1340 64.7112 1144.45 537.61
1128 0 108.131 12.901 1395 64.9642 1144.41 536.499
1129 0 113.173 12.936 1464 64.8019 1144.34 535.842
1130 0 113.081 12.8846 1457 65.5003 1144.76 533.508
1131 0 120.157 12.8748 1547 65.7699 1144.67 532.367
1132 0 124.221 13.4438 1670 65.5144 1144.82 529.908
1133 0 128.146 13.8046 1769 65.3363 1144.86 527.145
1134 0 131.139 13.1616 1726 66.7648 1145.3 525.904
1135 0 134.201 13.4127 1800 67.0111 1145.17 522.004
1136 0 141.246 14.3863 2032 65.0605 1145.13 520.966
1137 0 144.092 14.1368 2037 66.0187 1144.54 518.949
1138 0 151.088 13.9918 2114 66.0052 1144.94 517.702
1139 0 154.14 14.3246 2208 65.3637 1145.3 513.555
1140 0 157.302 13.5981 2139 67.4591 1144.5 512.075
1141 0 164.334 13.9533 2293 67.9808 1145.31 508.508
1142 0 168.268 14.3759 2419 67.7445 1145.32 505.263
1143 0 174.376 14.0673 2453 67.9959 1145.46 504.225
1144 1 95.1254 11.1327 1059 68.2115 1145.69 546.011
1145 0 98.168 11.246 1104 69.2889 1145.68 543.245
1146 0 100.154 12.5107 1253 67.9002 1146.04 541.033
1147 0 103.117 12.607 1300 68.0885 1146.21 538.071
1148 0 106.178 12.7334 1352 67.949 1146.5 538.359
1149 0 110.218 13.3735 1474 66.8426 1146.43 535.206
1150 0 113.142 13.24 1498 67.0047 1146.61 533.326
1151 0 115.148 12.4449 1433 68.1884 1146.66 532.592
1152 0 118.221 13.0434 1542 67.2581 1146.77 527.856
1153 0 122.178 13.3658 1633 66.4832 1147.1 526.991
1154 0 127.197 13.3415 1697 66.0619 1147.18 526.232
1155 0 131.412 13.1343 1726 66.2961 1147.7 523.721
1156 0 134.356 13.293 1786 66.234 1148.3 521.889
1157 0 137.204 12.9224 1773 67.2972 1148.82 518.574
1158 0 142.269 13.7346 1954 65.3552 1148.85 516.784
1159 1 75.1003 10.3462 777 66.0245 1149.74 550.287
1160 0 78.0772 11.399 890 65.6067 1150.09 548.669
1161 0 81.1241 12.2652 995 64.1648 1150.08 548.299
1162 0 84.0676 12.7516 1072 63.5681 1150.08 544.607
1163 0 88.1772 12.4409 1097 63.8241 1149.92 544.499
1164 0 89.0929 12.1895 1086 65.0985 1149.86 540.609
1165 0 92.1935 12.2568 1130 64.8 1149.75 538.792
1166 0 95.2105 11.4903 1094 65.5393 1150.11 540.305
1167 0 98.0823 12.3468 1211 64.6936 1150.65 537.762
1168 0 99.156 12.1828 1208 65.5679 1150.91 535.721
1169 0 103.126 12.1793 1256 65.4626 1151.01 533.756
1170 0 107.145 13.2531 1420 64.2169 1150.75 533.078
1171 0 109.112 12.4826 1362 65.2709 1150.56 532.722
1172 0 111.21 12.4449 1384 65.7919 1151 530.413
1173 0 115.134 12.7764 1471 65.5772 1151.13 528.265
1174 0 118.131 13.4765 1592 64.8398 1151.32 528.034
1175 0 120.136 12.8854 1548 65.9496 1151.48 525.745
1176 0 123.123 12.5241 1542 66.2769 1151.08 525.255
1177 0 127.26 13.2014 1680 65.4988 1151.04 524.205
1178 0 130.139 12.7249 1656 66.66 1150.71 520.329
1179 1 73.0199 9.62751 703 66.1408 1151.94 551.805
1180 0 76.0732 10.0298 763 65.9777 1151.41 551.463
1181 0 79.1151 11.6539 922 63.9751 1151.01 549.218
1182 0 80.056 12.4788 999 62.6757 1150.33 547.291
1183 0 83.0488 12.4626 1035 63.1923 1151.58 544.942
1184 0 85.0844 11.6943 995 64.0462 1151.59 543.748
1185 0 90.0837 12.2886 1107 63.0027 1150.34 541.284
1186 0 93.1347 11.6713 1087 63.1904 1150.66 541.13
1187 0 94.1077 11.2637 1060 64.3292 1150.1 538.648
1188 0 97.1012 12.42 1206 62.7172 1149.65 536.378
1189 0 101.136 12.8046 1295 62.1521 1149.84 535.863
1190 0 104.251 12.1534 1267 62.8871 1149.95 533.526
1191 1 55.0471 8.62897 475 64.9137 1150.02 558.937
1192 0 61.0143 10.8171 660 61.9 1149.37 558.047
1193 0 62.1114 11.7209 728 61.9231 1148 556.045
1194 0 66.1035 12.7376 842 59.9501 1147.95 554.021
1195 0 66.0366 11.3119 747 62.3012 1148.2 554.225
1196 0 66.0366 11.3876 752 143.484 1148.2 554.395
1197 0 68.1131 11.7892 803 62.9975 1148.03 551.953
1198 0 70.1081 12.1669 853 61.9648 1148.02 553.254
1199 0 73.0488 12.7449 931 61.2675 1147.72 550.105
1200 0 75.065 12.9355 971 61.3244 1147.9 551.176
1201 0 77.0432 12.7591 983 62.2106 1148.04 547.549
1202 0 79.1544 13.1389 1040 61.8192 1148.2 547.79
1203 0 81.0882 12.4679 1011 62.4906 1147.85 545.428
1204 0 84.0704 12.7631 1073 62.3299 1147.42 544.114
1205 0 85.077 11.7776 1002 64.2804 1147.95 543.666
1206 0 89.1194 13.106 1168 62.1866 1148.21 542.923
1207 0 91.0658 12.2549 1116 63.8557 1148.51 541.135
1208 0 96.1763 12.9242 1243 62.4006 1148.05 538.552
1209 0 98.1535 12.5925 1236 62.8414 1148.27 539.265
1210 0 101.199 12.9151 1307 62.114 1148.53 536.29
1211 0 104.099 13.3143 1386 61.7179 1148.2 535.578
1212 0 108.296 12.669 1372 62.4359 1147.98 533.448
1213 1 56.0845 10.716 601 61.4476 1147.97 560.499
1214 0 56.0847 10.8764 610 62.5738 1147.88 557.144
1215 0 59.0619 9.56623 565 63.3451 1147.76 558.945
1216 0 61.0239 10.7663 657 61.9802 1147.73 557.616
1217 0 62.0458 11.6527 723 60.9239 1146.28 556.373
1218 0 66.1161 12.5234 828 59.6763 1146.4 556.002
1219 0 66.0869 13.0283 861 59.4042 1146.46 556.29
1220 0 70.1987 12.7638 896 59.192 1146.04 553.826
1221 0 72.0751 12.9726 935 58.8503 1145.96 553.842
1222 0 76.098 13.6272 1037 57.4542 1146.14 552.229
1223 0 76.2011 12.5064 953 59.5268 1145.82 550.75
1224 0 79.0837 12.8345 1015 59.0719 1145.75 551.049
1225 0 79.1386 13.2805 1051 59.333 1145.3 548.132
1226 0 84.1896 12.6619 1066 59.6632 1145.74 548.218
1227 0 86.1643 13.2421 1141 58.7748 1145.41 546.316
1228 0 89.1747 12.6269 1126 59.7567 1145.36 544.783
1229 0 91.0851 12.911 1176 59.7662 1145.18 544.379
1230 0 92.0746 12.9134 1189 59.9108 1145.66 542.606
1231 0 97.3367 13.6536 1329 58.5643 1145.68 540.914
1232 0 99.1853 13.6815 1357 59.2609 1145.5 539.358
1233 0 104.184 13.8313 1441 58.8751 1145.2 539.044
1234 1 55.1206 10.341 570 61.2772 1145.53 562.307
1235 0 57.0649 10.7597 614 60.9283 1145.36 561.311
1236 0 56.0365 11.3854 638 60.8652 1145.93 560.572
1237 0 58.08 11.1398 647 60.3509 1145.84 560.839
1238 0 62.0637 12.6483 785 58.0841 1145.76 559.02
1239 0 64.0581 12.3169 789 59.0469 1144.95 557.824
1240 0 64.103 12.6203 809 59.6082 1144.93 556.941
1241 0 68.0709 12.531 853 59.0774 1144.93 556.651
1242 0 71.084 13.069 929 57.4769 1144.72 556.088
1243 0 73.1114 12.8161 937 58.2455 1144.43 555.159
1244 0 75.0714 12.5081 939 58.7827 1144.27 553.459
1245 0 75.1391 12.4037 932 59.5397 1144.55 551.088
1246 0 80.0701 12.6764 1015 58.5103 1144.4 550.31
1247 0 81.2314 12.5444 1019 59.2787 1144.1 546.665
1248 0 86.1555 13.1506 1133 58.9921 1144.4 546.211
1249 0 88.3692 12.9004 1140 59.964 1144.59 543.145
1250 0 91.1933 12.6325 1152 60.2995 1144.9 544.164
1251 0 94.2657 13.2074 1245 59.5518 1144.75 541.737
1252 1 46.0696 9.59418 442 61.5407 1145.18 566.086
1253 0 49.0521 9.969 489 60.272 1144.65 564.988
1254 0 52.1078 10.6894 557 59.3393 1145.04 563.305
1255 0 51.059 10.8306 553 59.9512 1144.35 561.049
1256 0 52.0923 11.3069 589 59.7929 1144.95 560.728
1257 0 55.0882 11.3817 627 59.8038 1146.09 561.451
1258 0 57.0237 11.7495 670 60.006 1145.99 560.478
1259 0 58.0952 12.118 704 59.5398 1146.44 560.237
1260 0 59.0299 12.4344 734 59.233 1146.22 559.96
1261 0 61.1473 12.429 760 59.5026 1146.72 558.153
1262 0 62.0641 12.3904 769 59.6398 1146.43 557.743
1263 0 64.0621 12.1601 779 60.5533 1146.6 556.272
1264 0 67.068 12.629 847 59.5372 1146.67 556.459
1265 0 67.0385 12.4108 832 60.3558 1146.78 554.3
1266 0 70.0536 12.8045 897 59.6433 1147.18 552.792
1267 0 73.0649 12.3999 906 60.0276 1146.75 552.109
1268 0 76.0956 12.734 969 59.5759 1147.33 550.739
1269 0 77.0464 12.7585 983 59.881 1148.07 550.555
1270 0 80.0977 13.1839 1056 59.2045 1147.8 548.473
1271 0 83.1785 12.3109 1024 60.2383 1148.04 547.342
1272 0 84.1652 12.8438 1081 59.6272 1148.58 546.61
1273 0 88.2734 13.6961 1209 58.4814 1149.07 543.356
1274 1 45.0387 10.0358 452 61.1659 1148.53 564.728
1275 0 47.0305 10.8015 508 60.9016 1148.99 562.776
1276 0 49.0262 10.4842 514 60.4339 1149.02 564.22
1277 0 49.0736 11.5745 568 59.7887 1149.37 560.972
1278 0 52.053 11.4691 597 59.4104 1149.13 560.693
1279 0 51.1012 11.7218 599 60.1836 1149.17 560.082
1280 0 57.0769 13.2453 756 57.1045 1149.2 560.783
1281 0 54.0642 11.7268 634 60.5599 1149.25 557.959
1282 0 57.1321 13.355 763 58.0393 1149.62 556.374
1283 0 58.1633 11.3302 659 60.3369 1150.12 559.496
1284 0 61.1065 12.6337 772 58.8873 1150.6 557.523
1285 0 63.1046 12.6615 799 58.4518 1150.18 553.648
1286 0 67.1059 13.5607 910 56.9736 1150.28 554.223
1287 0 69.0887 12.5491 867 58.3045 1150.27 552.862
1288 0 71.0482 13.0616 928 57.8384 1150.23 553.086
1289 0 73.0841 13.0945 957 57.8015 1150.57 549.825
1290 0 75.0931 12.9839 975 57.8933 1150.7 550.261
1291 0 78.1537 12.5906 984 58.2165 1150.74 548.093
1292 0 80.0879 12.274 983 58.293 1150.41 547.992
1293 1 44.077 11.0489 487 57.3368 1151.25 565.595
1294 0 44.0583 10.418 459 58.085 1151.31 564.847
1295 0 46.0301 11.7314 540 57.3296 1151.68 566.274
1296 0 49.0271 12.6257 619 55.7706 1151.2 564.242
1297 0 47.149 12.2802 579 57.2176 1150.62 562.824
1298 0 50.1231 12.3097 617 56.9773 1150.53 562.434
1299 0 52.1154 11.5321 601 57.5458 1150.9 560.118
1300 0 53.0626 12.6454 671 56.2697 1150.51 560.598
1301 0 56.1829 12.9043 725 55.1297 1150.29 560.796
1302 0 56.0216 12.2988 689 56.9927 1150.21 558.678
1303 0 58.1798 12.977 755 55.7616 1150.56 556.833
1304 0 62.1429 12.9701 806 54.7357 1150.19 558.089
1305 0 62.1545 13.0159 809 54.4425 1150.26 557.853
1306 0 62.1532 13.4989 839 55.006 1150.06 556.47
1307 0 62.1661 12.2414 761 56.4836 1150.23 555.206
1308 0 65.0526 12.1594 791 56.3616 1150.26 553.684
1309 0 68.0411 12.8158 872 55.1193 1149.99 553.71
1310 0 69.1625 12.8538 889 55.2632 1149.71 552.021
1311 0 72.1592 12.8605 928 54.8362 1149.54 552.283
1312 0 72.1217 12.2016 880 56.0886 1149.98 549.575
1313 0 75.2542 12.584 947 55.6209 1149.13 548.945
1314 1 40.0514 9.76245 391 55.7417 1149.65 567.138
1315 0 43.033 9.69025 417 55.7938 1149.47 565.82
1316 0 43.0324 10.922 470 54.6745 1148.99 569.381
1317 0 46.0479 11.2274 517 53.8685 1149.27 567.487
1318 0 46.0471 10.9019 502 54.5518 1149.06 565.406
1319 0 51.1163 10.7598 550 53.1273 1147.5 569.031
1320 0 50.1198 12.6896 636 53.434 1147.76 563.332
1321 0 52.0631 11.198 583 54.5969 1147.3 565.029
1322 0 53.1423 12.6453 672 53.5878 1147.3 562.308
1323 0 57.1221 12.9197 738 53.1206 1147.27 562.352
1324 0 57.1221 12.9197 738 133.18 1147.27 562.352
1325 0 58.1946 12.6816 738 53.2046 1146.71 561.843
1326 0 60.1961 12.4925 752 53.9814 1146.77 559.922
1327 0 62.0675 13.6625 848 53.2205 1146.77 556.527
1328 0 65.2723 13.5892 887 52.8906 1146.86 559.521
1329 0 65.216 12.4816 814 54.9779 1146.76 560.048
1330 0 68.2068 12.9459 883 54.6195 1146.86 557.328
1331 0 73.2993 12.6195 925 54.52 1146.72 556.926
1332 0 72.2067 12.672 915 54.882 1146.67 553.471
1333 0 73.1533 13.5195 989 54.3711 1146.93 552.669
1334 0 77.1289 14.3915 1110 55.055 1147.85 554.094
1335 0 79.1078 13.0202 1030 56.5825 1147.14 551.256
1336 0 82.0818 14.7048 1207 54.4192 1146.99 550.292
1337 0 83.1233 13.5702 1128 56.0718 1146.49 549.613
1338 1 44.0931 11.7025 516 56.8411 1146.95 569.634
1339 0 46.0138 11.6921 538 57.1933 1147.02 567.781
1340 0 47.0744 11.8536 558 56.8441 1146.54 567.349
1341 0 48.1816 11.7265 565 56.9469 1146.66 567.712
1342 0 53.1188 12.6886 674 54.9006 1147.41 566.708
1343 0 53.2201 13.5663 722 55.0471 1146.44 563.989
1344 0 53.1814 13.0685 695 55.7482 1146.1 563.542
1345 0 57.2301 13.402 767 55.2203 1146.01 563.443
1346 0 57.0835 13.2963 759 55.4993 1145.71 564.415
1347 0 60.1726 13.5111 813 55.5547 1145.81 561.625
1348 0 62.2246 12.4227 773 57.0336 1145.2 561.215
1349 0 65.1356 13.6331 888 55.5304 1145.43 561.248
1350 0 66.1202 13.8838 918 56.2418 1145.49 559.05
1351 0 66.2805 13.7899 914 56.7845 1144.96 558.984
1352 0 70.2287 13.5984 955 57.3613 1145.14 557.714
1353 0 70.1396 12.9884 911 59.1548 1144.84 556.934
1354 0 74.1369 14.3114 1061 57.5919 1144.48 553.59
1355 0 76.2415 14.0212 1069 58.3452 1144.43 555.051
1356 0 78.1975 14.4889 1133 58.7396 1144.22 552.695
1357 0 80.3131 13.933 1119 59.857 1143.93 552.332
1358 0 82.461 13.6671 1127 60.8332 1144.07 551.669
1359 1 42.1793 10.1234 427 64.7986 1143.1 571.464
1360 0 44.115 10.858 479 63.3361 1143.36 570.889
1361 0 44.2943 11.2204 497 64.2374 1143.29 569.115
1362 0 47.1436 12.324 581 62.4028 1143.49 569.823
1363 0 47.0845 12.0209 566 64.023 1143.4 568.996
1364 0 50.1128 12.2723 615 63.3642 1143.16 567.844
1365 0 52.09 12.824 668 62.7335 1143.12 567.359
1366 0 53.1559 13.3946 712 62.2444 1143.23 567.809
1367 0 54.1056 12.9746 702 63.9387 1143.23 567.407
1368 0 57.0358 13.5178 771 62.7925 1142.95 565.345
1369 0 55.0879 13.0882 721 65.2497 1143.22 566.684
1370 0 59.1287 14.1217 835 63.3545 1143.31 565.273
1371 0 61.1229 13.2847 812 64.4236 1143.3 565.016
1372 0 60.0946 13.6285 819 65.8364 1143.01 563.386
1373 0 62.1474 13.8381 860 66.0628 1143.34 562.516
1374 0 67.3347 14.6284 985 64.0234 1143.86 562.06
1375 0 69.1593 14.5172 1004 64.1952 1143.43 561.157
1376 0 71.0889 14.5733 1036 64.168 1143.19 558.707
1377 0 72.1379 13.8623 1000 65.766 1143.12 558.472
1378 0 73.1197 13.389 979 66.2768 1142.98 556.152
1379 1 39.0121 10.1507 396 67.1742 1143.28 574.563
1380 0 39.0252 11.1466 435 66.6966 1143.43 572.386
1381 0 40.0178 11.6948 468 65.7906 1143.8 572.536
1382 0 40.0742 11.9528 479 61.929 1144.04 572.96
1383 0 43.0927 12.3919 534 61.2341 1143.76 572.096
1384 0 43.1505 11.6569 503 64.4732 1144.32 571.823
1385 0 42.118 12.3463 520 65.2404 1144.31 570.894
1386 0 45.2342 12.4242 562 65.5018 1143.48 570.584
1387 0 45.0361 12.8786 580 65.2793 1143.3 569.817
1388 0 48.0597 12.7134 611 64.4026 1143.16 568.975
1389 0 51.0524 13.4764 688 62.9782 1143.54 567.283
1390 0 51.0692 13.2957 679 63.6789 1143.73 567.216
1391 0 53.1701 13.2029 702 62.8048 1143.46 567.325
1392 0 53.0697 12.738 676 64.3654 1143.3 565.499
1393 0 56.1752 13.5825 763 62.8309 1143.73 564.786
1394 0 58.1415 13.2092 768 63.0247 1144.34 564.1
1395 0 58.1997 12.9382 753 63.8898 1144.51 563.013
1396 0 60.2146 12.5385 755 64.355 1144.78 563.078
1397 0 63.0697 13.1283 828 63.1691 1144.74 559.586
1398 0 63.0697 13.1283 828 151.048 1144.72 559.598
1399 0 68.1312 13.6355 929 61.4069 1145.48 558.959
1400 0 68.111 13.7569 937 61.9157 1145.55 557.156
1401 0 70.1139 12.6366 886 62.8217 1145.63 557.906
1402 0 74.1447 13.1904 978 61.5256 1145.75 554.671
1403 0 77.1706 13.347 1030 60.9709 1145.99 553.256
1404 0 79.2159 14.1259 1119 59.5576 1145.98 553.975
1405 1 39.0916 11.1533 436 62.1858 1145.99 571.507
1406 0 45.1645 11.1149 502 61.2351 1146.33 570.145
1407 0 44.2058 11.5369 510 61.5608 1146.5 567.933
1408 0 46.0828 11.8699 547 60.777 1146.85 568.53
1409 0 46.067 11.9174 549 61.6721 1146.63 567.876
1410 0 47.0735 13.4258 632 60.3576 1147.21 565.897
1411 0 48.1008 12.5778 605 61.7917 1147.24 565.883
1412 0 53.0996 13.0886 695 59.905 1147.57 564.563
1413 0 55.0309 13.338 734 59.1839 1147.62 562.357
1414 0 54.1441 13.5379 733 59.4161 1147.53 562.432
1415 0 57.205 12.0794 691 61.0839 1147.82 562.454
1416 0 59.1735 13.4689 797 59.5822 1147.84 560.105
1417 0 61.1324 13.1191 802 59.2469 1148.17 559.074
1418 0 64.1109 13.3675 857 58.5333 1148.44 556.94
1419 0 68.2388 13.2476 904 57.8706 1148.12 556.439
1420 0 70.2976 13.2864 934 57.6842 1148.02 555.202
1421 0 72.2227 13.043 942 58.0881 1148.25 552.083
1422 1 35.1931 10.5987 373 59.0509 1148.31 569.472
1423 0 38.1466 10.2762 392 58.4974 1148.84 569.474
1424 0 40.074 11.1045 445 58.1348 1149.04 567.222
1425 0 40.0425 10.9134 437 58.5034 1148.55 567.995
1426 0 43.0137 11.8799 511 57.3718 1148.03 567.656
1427 0 45.0264 13.1256 591 55.511 1148.75 568.343
1428 0 45.0234 12.5268 564 56.5993 1148.98 566.449
1429 0 46.0413 11.9458 550 56.84 1148.64 567.398
1430 0 47.0192 12.4843 587 56.2828 1148.67 565.641
1431 0 49.0728 13.6328 669 54.4709 1148.75 565.347
1432 0 49.0342 13.0521 640 55.5406 1148.46 564.852
1433 0 51.0641 13.0228 665 55.2406 1148.09 562.988
1434 0 54.0788 13.2954 719 55.7065 1148.08 563.185
1435 0 53.0429 12.3108 653 57.6493 1147.74 560.861
1436 0 56.0462 13.4889 756 56.3294 1147.76 560.122
1437 0 58.0738 14.2577 828 55.7271 1147.71 560.519
1438 0 58.0776 13.6541 793 57.2156 1147.56 558.884
1439 0 60.0528 13.0718 785 58.2981 1147.18 557.959
1440 0 62.2319 13.6747 851 57.4665 1146.88 556.545
1441 0 64.1418 13.3922 859 57.7509 1147.39 556.15
1442 0 65.0928 13.089 852 58.7641 1147.27 557.106
1443 0 68.1204 13.6817 932 57.8273 1146.6 555.496
1444 0 71.2551 14.5814 1039 56.7834 1146.62 554.1
1445 0 73.091 14.4888 1059 57.6015 1146.62 552.465
1446 0 74.2161 13.9323 1034 58.9816 1146.54 552.644
1447 0 76.1812 13.8223 1053 59.9411 1146.12 550.189
1448 0 81.1303 13.9036 1128 59.3262 1146.37 549.436
1449 0 83.167 14.8617 1236 58.4612 1146.79 547.998
1450 0 86.2273 14.5546 1255 59.2956 1146.49 547.025
1451 0 87.1809 14.1086 1230 60.4821 1146.55 545.946
1452 0 90.2944 14.4084 1301 60.4389 1146.6 543.887
1453 0 95.1316 14.5378 1383 60.1786 1146.46 542.769
1454 1 50.0666 10.7257 537 62.6723 1146.95 566.479
1455 0 49.1362 11.3358 557 63.9461 1146.55 566.011
1456 0 50.0828 12.9785 650 62.6138 1145.64 565.926
1457 0 53.0312 12.3701 656 63.4665 1146.54 565.784
1458 0 55.0205 12.2136 672 63.9226 1146.19 563.685
1459 0 55.0247 12.2854 676 64.3743 1146.47 562.726
1460 0 57.0735 12.9482 739 63.5548 1146.48 560.958
1461 0 58.025 13.2357 768 63.5234 1145.8 561.299
1462 0 61.0574 13.6593 834 62.3597 1145.94 560.731
1463 0 63.1235 13.7667 869 62.5524 1146.04 559.075
1464 0 66.1294 13.3224 881 62.3575 1145.48 559.368
1465 0 66.044 13.8393 914 62.5153 1145.82 556.013
1466 0 69.0426 13.8031 953 61.7566 1145.63 555.092
1467 0 71.124 13.4554 957 62.278 1145.51 554.962
1468 0 74.1327 13.26 983 61.7681 1145.16 553.929
1469 0 74.0291 13.238 980 62.4551 1145.29 552.255
1470 0 80.0366 14.1935 1136 60.4727 1144.97 551.226
1471 0 82.0555 13.6371 1119 61.1171 1144.63 549.169
1472 1 42.0223 10.2089 429 62.8345 1144.2 570.247
1473 0 45.0554 11.1196 501 62.2974 1144.04 568.902
1474 0 46.0843 11.1969 516 62.3779 1144.49 568.517
1475 0 50.0908 11.9982 601 61.4742 1144.07 566.872
1476 0 49.1544 12.064 593 61.0135 1143.81 566.425
1477 0 53.0532 12.5911 668 61.0254 1142.99 565.058
1478 0 55.0905 12.7427 702 59.9829 1143.15 564.801
1479 0 56.0619 13.057 732 60.4699 1143.38 563.928
1480 0 58.1031 12.7532 741 60.5425 1143.79 563.265
1481 0 60.0875 12.5816 756 60.9286 1143.24 561.851
1482 0 61.1116 13.3363 815 60.9264 1142.88 560.497
1483 0 64.0653 12.8775 825 61.1333 1142.93 559.762
1484 0 67.0876 13.3706 897 60.1037 1143.38 559.562
1485 0 68.1001 13.5536 923 60.6425 1143.07 556.642
1486 0 69.048 14.1641 978 60.0767 1144 557.468
1487 0 70.1979 12.593 884 62.3371 1143.95 556.382
1488 0 74.1846 13.8439 1027 60.6543 1143.96 553.498
1489 0 76.1485 14.0778 1072 60.4963 1143.43 551.749
1490 0 81.0758 13.5922 1102 59.6407 1144.16 552.636
1491 0 80.2662 13.2434 1063 60.1279 1143.75 551.951
1492 0 83.126 13.3051 1106 60.5461 1144.18 549.147
1493 1 44.0534 10.5554 465 60.9527 1144.85 569.256
1494 0 48.0628 11.0689 532 59.9023 1145.11 568.254
1495 0 48.0164 11.6419 559 59.6064 1144.55 568.403
1496 0 50.0375 12.1909 610 59.4869 1144.63 565.977
1497 0 51.082 11.7654 601 59.7371 1144.88 564.958
1498 0 52.0878 12.8629 670 59.1746 1143.69 564.369
1499 0 55.0773 12.0376 663 60.4419 1144.06 563.24
1500 0 58.0467 12.7483 740 59.1041 1144.34 563.624
1501 0 57.0855 12.455 711 60.1181 1144.51 562.999
1502 0 59.0605 12.6819 749 59.6822 1144.87 560.091
1503 0 61.0484 12.613 770 59.8325 1145.07 560.305
1504 0 62.1208 13.6025 845 59.084 1144.88 560.12
1505 0 62.1507 12.7432 792 60.9141 1144.73 557.855
1506 0 66.1032 12.5713 831 60.0638 1145.08 556.934
1507 0 67.065 13.1067 879 59.3982 1145.07 555.024
1508 0 67.12 13.23 888 59.3761 1145.35 556.27
1509 0 71.1691 11.8591 844 60.5557 1145.44 553.741
1510 0 74.048 14.0314 1039 58.2791 1146.15 553.521
1511 0 74.1937 13.4243 996 59.493 1146.45 551.088
1512 0 77.1352 12.8476 991 60.6852 1146.63 550.192
1513 0 78.0539 13.4266 1048 60.2786 1146.69 549.794
1514 0 81.2263 13.5424 1100 60.1609 1146.93 548.325
1515 0 87.1856 13.6261 1188 59.0118 1147.1 547.077
1516 0 88.1738 14.2332 1255 59.0422 1147.63 545.12
1517 0 90.1354 13.6683 1232 60.1153 1148.15 543.526
1518 0 92.1258 12.6783 1168 61.4932 1148.18 542.187
1519 0 96.1418 14.5514 1399 59.3645 1148.58 541.132
1520 0 99.2348 13.7049 1360 60.5956 1148.47 538.271
1521 0 102.129 14.3642 1467 60.0007 1148.58 535.708
1522 0 103.199 14.0602 1451 60.53 1149.06 535.342
1523 0 106.076 13.4621 1428 61.0798 1148.87 531.709
1524 0 113.147 14.0084 1585 59.6612 1149.15 532.622
1525 1 56.0783 10.5567 592 61.0321 1149.32 561.694
1526 0 58.0607 10.179 591 60.5584 1149.2 562.183
1527 0 61.0404 11.3531 693 59.4358 1149.29 560.121
1528 0 64.1249 11.7427 753 58.583 1149.57 559.491
1529 0 64.0419 12.3513 791 58.7724 1149.34 555.796
1530 0 71.1106 13.936 991 55.5177 1149.59 556.155
1531 0 72.0473 14.1574 1020 55.4157 1149.31 553.585
1532 0 74.0808 13.5393 1003 56.6481 1149.32 553.252
1533 0 77.0696 13.2348 1020 57.2 1149.35 551.425
1534 0 80.0691 13.0387 1044 57.432 1149.34 550.342
1535 0 80.1687 12.349 990 58.7505 1149.35 550.496
1536 0 84.1114 12.6023 1060 58.2774 1149.32 548.209
1537 0 86.1227 13.4692 1160 58.2405 1148.78 546.562
1538 0 86.1153 12.2742 1057 59.9527 1148.37 544.993
1539 0 92.1079 13.6579 1258 58.6558 1148.83 545.82
1540 1 49.1051 11.567 568 58.7694 1148.61 566.702
1541 0 51.0363 11.051 564 59.5035 1148.81 565.394
1542 0 54.0434 13.5262 731 57.0342 1149 564.044
1543 0 54.1247 11.8245 640 59.1953 1149.09 561.772
1544 0 58.0563 12.5912 731 57.3735 1148.94 561.457
1545 0 58.0392 13.0257 756 57.8399 1149.11 558.077
1546 0 59.1357 11.8879 703 59.2347 1149.14 559.489
1547 0 64.2403 13.325 856 57.0035 1148.97 556.915
1548 0 64.0756 13.6089 872 57.2603 1148.92 557.651
1549 0 68.0726 12.4426 847 58.0968 1148.86 556.148
1550 0 69.0434 13.5567 936 57.5182 1148.57 555.1
1551 0 70.1317 12.391 869 60.1139 1148.65 553.572
1552 0 71.0972 13.0526 928 59.6724 1147.63 552.944
1553 0 77.3412 14.3261 1108 57.3231 1147.12 552.498
1554 0 76.3619 13.4098 1024 59.7354 1147.14 550.196
1555 0 80.3207 13.6453 1096 59.5137 1147.32 549.4
1556 0 84.4038 14.0515 1186 59.4089 1147.3 548.227
1557 0 84.2393 13.5566 1142 60.5867 1147.6 547.283
1558 0 89.247 13.6251 1216 60.9285 1147.6 546.255
1559 0 92.1573 14.5295 1339 60.8506 1147.79 544.734
1560 1 49.0967 11.8542 582 63.4639 1147.02 566.027
1561 0 49.1986 11.728 577 64.0728 1146.93 564.884
1562 0 50.0612 11.1264 557 66.2298 1146.8 564.666
1563 0 52.1193 12.3179 642 64.7508 1146.93 563.956
1564 0 55.1035 12.8486 708 64.6864 1146.35 563.081
1565 0 58.0923 13.8056 802 63.3117 1146.2 562.274
1566 0 59.0784 13.4567 795 64.3208 1145.97 561.22
1567 0 62.0852 14.319 889 63.0225 1145.62 561.488
1568 0 63.096 13.7568 868 64.8364 1145.6 560.144
1569 0 64.1651 13.4808 865 65.578 1145.79 558.005
1570 0 67.0883 13.281 891 65.3704 1145.83 556.791
1571 0 69.0668 13.9575 964 64.6224 1145.41 556.16
1572 0 72.1596 13.4147 968 64.9804 1145.08 555.596
1573 0 75.0288 13.7947 1035 64.3758 1145.12 553.696
1574 0 77.1743 14.5126 1120 63.2902 1145.01 552.629
1575 0 80.1405 14.7491 1182 62.8063 1144.85 551.517
1576 0 82.2265 14.3141 1177 64.0603 1144.82 550.78
1577 0 87.2587 14.4169 1258 63.399 1145.18 548.797
1578 0 88.149 14.4301 1272 64.217 1145.1 546.661
1579 0 93.1173 13.4561 1253 64.8779 1145.03 545.876
1580 0 96.2422 14.0894 1356 64.0457 1144.48 543.657
1581 0 98.3306 13.8919 1366 64.7672 1144.41 540.305
1582 1 50.157 11.6235 583 65.4751 1145.05 566.424
1583 0 53.0817 10.4367 554 66.5957 1144.64 565.684
1584 0 53.0315 12.2003 647 64.4297 1144.69 564.182
1585 0 54.0767 11.2803 610 65.682 1144.11 564.687
1586 0 56.0307 12.5289 702 64.7821 1144.14 561.905
1587 0 59.0753 12.5433 741 64.0756 1143.77 561.099
1588 0 58.0176 12.8065 743 64.5908 1143.85 560.458
1589 0 62.0929 13.2704 824 63.2015 1144.07 558.303
1590 0 64.1469 12.6429 811 63.942 1144.34 557.255
1591 0 66.0625 14.0322 927 62.1305 1144.89 555.73
1592 0 68.2251 13.7633 939 62.2716 1144.81 555.793
1593 0 69.2509 13.4872 934 63.4454 1144.58 553.441
1594 0 72.2173 13.4178 969 62.5676 1145.16 550.157
1595 0 74.2411 13.1329 975 62.9672 1145.26 550.216
1596 0 77.1617 12.9987 1003 62.7896 1145.35 551.106
1597 0 79.3032 13.4295 1065 62.5408 1145.09 547.727
1598 0 84.2856 13.739 1158 61.5354 1145.01 546.811
1599 0 84.097 13.2466 1114 62.5368 1144.96 545.287
1600 0 89.1256 13.5763 1210 61.3264 1145.12 545.079
1601 0 90.1893 14.1591 1277 61.1558 1144.86 542.144
1602 0 92.1699 13.6921 1262 61.9739 1145.56 540.693
1603 0 96.1517 13.1459 1264 62.0546 1145.41 539.669
1604 0 100.235 14.3663 1440 60.484 1145.7 538.862
1605 0 102.109 13.7793 1407 60.951 1145.76 536.175
1606 0 106.249 14.466 1537 60.0111 1145.47 534.231
1607 0 108.157 13.7208 1484 61.9077 1145.41 532.121
1608 0 111.229 13.4497 1496 61.8202 1145.66 533.926
1609 0 116.248 13.6777 1590 61.1365 1145.72 529.241
1610 1 65.187 11.3826 742 60.5499 1144.87 556.267
1611 0 66.1222 11.6602 771 60.5707 1145.65 555.659
1612 0 69.207 12.1375 840 61.6714 1145.86 555.561
1613 0 69.207 12.1664 842 160.74 1145.86 555.552
1614 0 73.2654 13.0075 953 59.8458 1146.53 551.598
1615 0 73.2654 13.0075 953 161.169 1147.53 551.598
1616 0 79.239 13.4025 1062 59.2524 1147.12 549.225
1617 0 81.2368 12.6913 1031 60.6528 1148.03 547.026
1618 0 84.0887 13.1766 1108 59.9937 1147.78 544.561
1619 0 87.2949 13.9871 1221 58.9533 1148.08 541.404
1620 0 87.3233 12.7686 1115 61.0099 1148.83 540.271
1621 0 91.3253 13.2274 1208 60.7997 1148.9 538.12
1622 0 93.2842 13.282 1239 60.3947 1149.14 541.01
1623 0 95.2886 13.139 1252 60.889 1149.2 536.425
1624 0 100.34 12.7964 1284 61.2352 1149.37 533.688
1625 0 104.424 12.6887 1325 60.7743 1149.64 534.301
1626 0 108.427 13.3638 1449 59.7598 1149.99 532.472
1627 0 109.172 12.8513 1403 61.1155 1150.18 526.649
1628 0 113.383 12.9737 1471 60.6424 1150.25 529.231
1629 0 119.519 13.4037 1602 59.4519 1150.22 525.3
1630 1 63.313 10.535 667 60.3658 1149.85 554.631
1631 0 66.7046 12.6228 842 57.3195 1150.59 554.296
1632 0 68.3736 11.8759 812 59.1108 1150.96 551.398
1633 0 70.5609 12.1172 855 58.9965 1151.19 548.34
1634 0 72.501 13.4343 974 57.8532 1151.11 547.677
1635 0 73.4224 11.8901 873 60.6254 1150.78 545.491
1636 0 77.529 13.9561 1082 57.7791 1150.61 545.063
1637 0 80.5817 13.6383 1099 57.5214 1150.92 545.17
1638 0 81.5147 12.2923 1002 59.9022 1150.03 542.353
1639 0 85.576 13.2748 1136 58.7218 1150.36 541.261
1640 0 87.4982 13.1431 1150 59.1852 1150.42 541.99
1641 0 90.3237 13.197 1192 58.7517 1149.88 537.478
1642 0 93.3632 12.4996 1167 59.9931 1149.82 535.994
1643 0 97.6078 13.6874 1336 58.491 1150.22 534.485
1644 0 97.6312 12.8647 1256 60.1154 1150.39 533.07
1645 0 102.365 13.188 1350 59.7726 1149.94 532.743
1646 0 104.355 13.3966 1398 59.7754 1149.94 531.153
1647 0 108.45 12.8908 1398 60.4528 1150.15 530.258
1648 0 111.367 12.984 1446 60.5145 1149.96 528.663
1649 0 115.416 12.7625 1473 61.1392 1149.73 526.754
1650 0 120.489 14.4993 1747 58.7418 1149.9 526.112
1651 0 122.342 13.1598 1610 60.6795 1149.42 525.484
1652 0 128.429 15.0978 1939 58.3301 1149.28 522.055
1653 0 131.343 13.499 1773 60.5589 1149.29 519.467
1654 0 134.308 13.7818 1851 60.08 1149.17 519.088
1655 0 141.387 13.9263 1969 60.5607 1148.8 516.158
1656 0 142.558 13.0754 1864 62.1524 1148.75 513.15
1657 0 149.477 13.962 2087 60.4696 1148.79 511.365
1658 1 79.3294 11.03 875 61.6971 1148.57 547.377
1659 0 82.5497 11.6294 960 61.3094 1148.54 544.486
1660 0 86.2506 12.7767 1102 60.5399 1148.87 543.184
1661 0 87.2434 12.3104 1074 61.3547 1148.4 542.469
1662 0 91.2386 13.4044 1223 60.3156 1148.32 536.804
1663 0 93.4882 13.2316 1237 60.6702 1148.35 537.381
1664 0 97.327 13.5009 1314 60.2192 1148.44 535.814
1665 0 100.472 13.5361 1360 60.4669 1147.71 533.862
1666 0 104.459 13.3162 1391 60.6219 1147.87 533.011
1667 0 108.454 13.757 1492 58.7192 1148 530.611
1668 0 110.335 14.6101 1612 57.4473 1147.86 529.734
1669 0 114.367 11.9527 1367 60.0549 1147.16 528.732
1670 0 118.642 12.8032 1519 58.6886 1147.4 525.901
1671 0 122.49 13.7725 1687 57.3183 1147.38 525.534
1672 0 125.352 13.4501 1686 58.0872 1146.98 523.141
1673 0 129.488 13.6693 1770 57.6966 1146.75 522.007
1674 0 132.304 13.1062 1734 58.3149 1147.07 519.753
1675 0 137.322 12.8603 1766 58.842 1146.79 516.685
1676 1 74.1535 10.1951 756 59.1164 1146.76 549.429
1677 0 79.0614 10.9409 865 59.0197 1146.32 548.599
1678 0 81.092 11.6411 944 58.6568 1146.1 545.383
1679 0 84.1227 13.8845 1168 56.3741 1145.24 543.693
1680 0 87.1867 12.2037 1064 58.5912 1145.22 542.027
1681 0 92.2163 13.0454 1203 56.8371 1145.2 542.339
1682 0 92.2699 13.5364 1249 57.2586 1145.54 540.047
1683 0 96.3101 12.9997 1252 57.7772 1145.57 539.728
1684 0 98.2409 12.9071 1268 57.2334 1146.04 535.057
1685 0 100.186 12.8061 1283 57.2494 1145.59 534.299
1686 0 105.291 12.4891 1315 57.2198 1145.68 533.094
1687 0 108.438 13.012 1411 56.8242 1145.04 533.226
1688 0 112.462 13.3734 1504 56.4754 1145.29 529.991
1689 0 114.257 13.2771 1517 56.6177 1144.97 527.999
1690 0 120.609 13.009 1569 56.1179 1145.14 529.192
1691 0 124.292 13.0178 1618 56.3455 1145.19 527.093
1692 0 125.31 12.505 1567 57.2291 1145.02 523.403
1693 0 129.224 13.2483 1712 56.2576 1145.15 521.875
1694 1 74.2063 10.8886 808 54.1386 1145.13 552.709
1695 0 74.1202 10.9552 812 54.6773 1144.7 552.159
1696 0 76.0877 11.053 841 55.0309 1144.39 550.141
1697 0 77.136 11.9788 924 53.9232 1144.6 550.877
1698 0 80.2703 12.7818 1026 53.1881 1144.08 549.427
1699 0 81.1024 11.6766 947 54.6716 1143.76 547.383
1700 0 82.1529 12.8906 1059 53.797 1144.05 546.38
1701 0 88.1497 12.1952 1075 54.053 1143.5 546.371
1702 0 89.2027 13.0153 1161 53.7089 1143.49 544.376
1703 0 93.2599 11.8057 1101 54.7421 1143.42 542.356
1704 0 96.2913 13.8123 1330 52.5617 1143.69 541.498
1705 0 99.1897 13.4086 1330 52.888 1143.72 540.794
1706 0 102.224 12.9128 1320 53.6242 1143.62 537.145
1707 0 104.216 12.4357 1296 54.0995 1143.79 534.939
1708 0 109.34 13.0967 1432 53.0454 1143.88 534.23
1709 0 110.334 12.5437 1384 53.9877 1144.01 531.408
1710 0 115.331 13.8558 1598 52.52 1144.05 529.99
1711 0 117.475 12.3515 1451 53.5472 1143.91 531.019
1712 0 120.239 12.2756 1476 54.1958 1144.65 525.434
1713 0 125.332 13.2529 1661 52.7176 1144.2 523.693
1714 0 128.305 14.2785 1832 51.9678 1144.86 522.563
1715 1 72.1712 9.61602 694 52.379 1145.22 555.35
1716 0 74.1912 10.8773 807 51.4597 1145.09 553.387
1717 0 77.1875 10.6105 819 52.116 1145.25 551.355
1718 0 78.237 11.8103 924 50.9946 1144.81 552.056
1719 0 81.1343 12.239 993 50.9476 1145.22 548.976
1720 0 83.1352 12.0767 1004 50.9671 1145.45 550.198
1721 0 85.0942 12.3628 1052 51.5646 1145.26 545.88
1722 0 88.041 11.6537 1026 52.3752 1145.42 543.863
1723 0 91.1142 12.7642 1163 50.9966 1145.05 545.5
1724 0 95.1532 13.3469 1270 50.3598 1145.41 543.98
1725 0 96.0975 12.4353 1195 52.4569 1145.68 540.269
1726 0 99.1669 12.6353 1253 52.3839 1145.69 539.607
1727 0 100.181 12.6271 1265 52.9012 1145.93 538.233
1728 0 105.106 13.0439 1371 52.5529 1146.45 536.906
1729 0 108.17 12.7854 1383 52.3059 1146.46 534.55
1730 0 111.218 12.2103 1358 53.2909 1146.51 532.714
1731 0 114.158 12.8769 1470 52.9701 1146.31 531.303
1732 0 117.335 12.9373 1518 52.8874 1146.55 529.262
1733 0 123.217 13.5047 1664 52.2518 1146.78 528.507
1734 1 67.1918 10.2245 687 52.7263 1147.22 556.683
1735 0 69.3031 9.8264 681 52.5213 1147.13 556.172
1736 0 71.1604 11.6216 827 50.4595 1147.06 550.718
1737 0 72.1688 11.0851 800 50.4738 1147.76 552.606
1738 0 75.2162 11.7395 883 49.752 1147.06 550.099
1739 0 79.1322 13.4964 1068 49.074 1147.43 548.052
1740 0 80.2222 12.9765 1041 49.5187 1148.2 547.937
1741 0 84.119 12.5774 1058 49.9499 1148.47 548.201
1742 0 82.1447 12.8188 1053 49.0769 1149.13 546.153
1743 0 88.1769 13.4843 1189 48.3583 1149.23 542.305
1744 0 92.167 13.7576 1268 48.8139 1149.84 543.441
1745 0 94.129 13.4921 1270 49.8236 1149.43 538.166
1746 0 98.1549 12.7961 1256 49.4713 1150.01 540.138
1747 0 98.2297 12.542 1232 50.6631 1150.61 536.791
1748 0 101.236 12.3277 1248 51.2933 1150.54 533.489
1749 0 106.181 12.5164 1329 50.9187 1150.8 534.017
1750 1 61.0343 9.38816 573 50.4817 1150.86 559.62
1751 0 63.1451 10.0245 633 51.564 1151.17 553.436
1752 0 62.1055 10.0796 626 51.6821 1149.76 555.497
1753 0 68.349 11.6754 798 49.8095 1149.44 554.078
1754 0 68.349 11.6315 795 149.894 1148.42 554.043
1755 0 70.1198 12.5927 883 49.248 1150.64 550.34
1756 0 72.2294 11.7265 847 50.1818 1150.2 551.118
1757 0 71.3771 10.9839 784 51.4872 1149.79 548.728
1758 0 77.3989 12.9072 999 49.2392 1149.98 546.618
1759 0 78.3415 12.2413 959 50.2795 1150.06 547.135
1760 0 79.3692 11.6292 923 51.4431 1150.04 545.09
1761 0 81.3538 12.2551 997 50.9809 1150.28 543.192
1762 0 85.3615 11.6563 995 51.6955 1150.52 540
1763 0 86.2955 12.5036 1079 51.3577 1150.23 540.224
1764 0 88.4375 12.9809 1148 51.2369 1149.5 536.935
1765 0 90.351 11.7984 1066 52.8405 1149.78 533.536
1766 0 95.2989 13.0851 1247 51.6215 1149.84 533.565
1767 0 97.6087 13.0419 1273 51.8539 1149.43 532.025
1768 0 99.4447 13.3441 1327 52.1861 1149.64 531.785
1769 0 102.643 13.0647 1341 52.8941 1149.37 531.133
1770 0 105.368 13.3342 1405 52.9267 1149.3 529.688
1771 0 109.387 13.274 1452 52.9201 1149.33 527.833
1772 0 111.421 12.897 1437 54.1962 1149.01 525.196
1773 0 116.46 14.271 1662 52.9639 1149.24 525.956
1774 0 117.271 11.9552 1402 55.6284 1148.81 523.633
1775 0 121.307 14.8055 1796 52.8898 1148.65 524.692
1776 1 65.3871 12.5407 820 51.3427 1149.15 555.899
1777 0 66.2669 11.5593 766 52.1044 1148.7 554.469
1778 0 68.0868 12.7631 869 52.2083 1148.25 552.463
1779 0 68.1342 12.7689 870 53.1943 1148.1 550.246
1780 0 73.2889 14.6816 1076 51.5446 1147.71 550.346
1781 0 75.0978 13.822 1038 52.9576 1147.76 550.394
1782 0 78.1071 13.904 1086 53.0737 1147.55 548.028
1783 0 80.1864 13.8178 1108 52.7807 1147.89 549.072
1784 0 83.2339 13.8285 1151 52.8897 1147.59 545.611
1785 0 83.2082 14.1332 1176 53.216 1147.69 544.537
1786 0 86.2637 13.5515 1169 53.6031 1147.39 543.183
1787 0 87.2614 13.832 1207 156.493 1147.43 543.626
1788 0 92.172 14.0715 1297 53.4734 1146.98 538.582
1789 0 94.2812 14.2871 1347 53.559 1147.12 539.482
1790 0 97.2123 14.6895 1428 53.1982 1146.76 536.383
1791 0 102.376 14.564 1491 53.0744 1147.04 536.012
1792 0 103.374 13.7559 1422 54.5977 1146.76 534.011
1793 0 103.374 13.7559 1422 160.43 1145.77 534.034
1794 0 109.235 14.6931 1605 53.6947 1146.43 530.522
1795 0 114.261 14.3794 1643 53.6786 1146.6 530.01
1796 1 61.1185 12.0095 734 53.97 1146.48 556.022
1797 0 60.2397 10.7238 646 55.6146 1145.35 556.537
1798 0 65.1387 11.1608 727 54.7428 1146.39 556.322
1799 0 67.2128 14.4318 970 51.7959 1146.39 555.62
1800 0 69.1031 13.2411 915 52.9202 1145.97 554.803
1801 0 71.0771 13.5205 961 52.7294 1146 553.879
1802 0 73.1341 12.4566 911 54.2415 1145.67 552.195
1803 0 77.1023 14.1889 1094 52.5356 1145.62 552.007
1804 0 77.1838 12.6451 976 54.2244 1145.59 550.555
1805 0 82.2129 13.465 1107 52.6703 1145.66 549.415
1806 0 83.4368 13.3274 1112 53.2221 1145.73 547.276
1807 0 87.2109 13.2094 1152 52.8542 1145.61 547.652
1808 0 91.3617 13.4739 1231 52.2039 1145.53 545.758
1809 0 93.3368 13.0709 1220 52.3148 1145.51 547.018
1810 0 96.2983 13.8424 1333 51.6234 1145.23 543.263
1811 0 99.2277 14.0989 1399 51.5683 1145.68 539.341
1812 1 56.1727 11.9453 671 51.1997 1145.23 561.978
1813 0 57.0862 11.5965 662 51.5785 1144.8 560.42
1814 0 57.0973 11.962 683 52.0717 1144.98 559.666
1815 0 61.1379 12.529 766 51 1145.99 559.62
1816 0 61.0914 12.7677 780 50.4 1146.39 558.499
1817 0 64.1136 12.2907 788 50.7513 1146.69 558.119
1818 0 64.1136 12.1971 782 154.547 1146.68 558.132
1819 0 67.1422 12.3171 827 50.9988 1146.33 556.081
1820 0 68.1838 13.4929 920 50.6609 1146.59 554.973
1821 0 70.2682 12.8934 906 51.0618 1145.9 554.155
1822 0 71.2033 13.2157 941 50.9915 1145.95 553.273
1823 0 75.21 13.7881 1037 50.0598 1146.27 552.311
1824 0 76.3061 13.0789 998 51.3377 1146.35 551.815
1825 0 79.1954 13.2583 1050 51.2571 1146.37 548.964
1826 0 80.2041 13.4033 1075 51.4065 1146.32 548.138
1827 0 85.1556 13.9274 1186 50.6501 1146.69 545.973
1828 0 87.1526 13.4018 1168 51.4187 1146.93 547.429
1829 0 89.1525 13.9424 1243 50.7329 1146.99 546.829
1830 0 91.305 12.5075 1142 52.4142 1146.8 544.884
1831 0 97.2162 13.8248 1344 51.0818 1146.82 541.374
1832 0 98.3482 13.6861 1346 51.7073 1146.92 539.166
1833 1 53.1371 11.2915 600 52.6633 1147.19 563.252
1834 0 55.1251 11.7188 646 52.3808 1147.29 562.17
1835 0 57.2322 11.2524 644 53.0373 1147.88 560.46
1836 0 60.205 13.371 805 51.0559 1148.51 557.219
1837 0 60.1863 12.6441 761 52.1367 1148.4 558.059
1838 0 65.0988 15.1001 983 48.9715 1149.51 556.699
1839 0 65.1427 14.3992 938 50.5235 1149.54 554.065
1840 0 66.1735 13.3739 885 51.7458 1149.59 553.516
1841 0 67.0731 13.0306 874 52.2563 1149.85 552.455
1842 0 72.0636 14.1542 1020 51.0922 1150.45 551.779
1843 0 74.1173 13.1413 974 51.7454 1150 551.228
1844 0 76.2724 13.7796 1051 51.4776 1150.35 550.749
1845 0 77.1306 14.7542 1138 50.9525 1150.41 548.84
1846 0 80.0527 13.641 1092 52.0797 1150.27 548.019
1847 0 83.1616 13.9006 1156 51.7656 1150.63 547.696
1848 0 86.1252 13.701 1180 52.3102 1150.83 543.078
1849 0 88.1137 14.7877 1303 51.5733 1150.79 543.257
1850 0 91.0705 14.3405 1306 52.193 1150.59 541.555
1851 0 97.0888 15.5528 1510 50.4437 1150.79 543.121
1852 0 96.089 14.4241 1386 52.1739 1150.56 538.711
1853 0 99.1112 13.5908 1347 52.2123 1150.12 535.212
1854 0 103.106 14.6161 1507 51.1088 1150.05 536.184
1855 1 54.0866 11.4261 618 52.7298 1150.31 558.194
1856 0 58.0377 10.3381 600 53.5617 1150.55 556.032
1857 0 57.0829 11.965 683 51.8404 1150.44 557.359
1858 0 61.1687 13.5036 826 50.1271 1150.23 555.983
1859 0 61.1198 11.7474 718 52.4861 1150.57 554.643
1860 0 64.0877 12.6233 809 51.3646 1150.22 555.129
1861 0 66.1032 13.0856 865 50.9838 1149.62 552.101
1862 0 68.0864 13.8647 944 50.2532 1149.56 550.758
1863 0 70.0625 13.1169 919 51.2753 1149.59 551.016
1864 0 70.1369 12.4756 875 52.3897 1148.83 548.278
1865 0 74.0769 13.9045 1030 50.4175 1149.07 548.111
1866 0 74.0534 12.8286 950 51.9916 1148.93 546.963
1867 0 78.0469 12.454 972 52.4712 1148.93 545.605
1868 0 81.0521 15.1014 1224 49.9003 1148.92 543.955
1869 0 82.0913 12.4983 1026 52.5682 1148.88 544.291
1870 0 84.1067 13.3521 1123 51.13 1149.07 544.785
1871 0 86.1604 12.4187 1070 51.9346 1149.08 540.411
1872 0 89.1813 12.7269 1135 51.2775 1148.78 541.263
1873 0 94.1079 13.102 1233 50.953 1149.47 540.564
1874 0 95.0874 14.229 1353 50.3962 1148.92 535.581
1875 0 97.0897 12.6584 1229 51.2685 1148.65 536.345
1876 1 57.0359 11.1859 638 49.5094 1148.81 559.323
1877 0 57.0359 11.221 640 140.48 1148.82 559.25
1878 0 57.0622 9.69118 553 51.5443 1148.67 557.501
1879 0 59.0699 11.3933 673 50.5988 1147.66 554.293
1880 0 63.0498 12.958 817 49.1726 1147.23 554.968
1881 0 64.2 12.2741 788 49.7779 1147.64 555.086
1882 0 68.1053 12.9799 884 49.0419 1147.14 552.43
1883 0 68.1085 11.6138 791 51.1492 1146.54 551.248
1884 0 71.0849 12.8297 912 50.2939 1146.92 552.965
1885 0 73.1341 12.0054 878 51.738 1147.18 550.682
1886 0 75.1409 12.7627 959 51.4807 1147.19 550.394
1887 0 78.1416 13.5267 1057 50.5525 1146.84 551.251
1888 0 79.08 13.6444 1079 50.949 1146.7 549.235
1889 0 83.0873 13.2993 1105 51.3738 1146.39 547.276
1890 0 84.1411 11.8491 997 53.4945 1146.32 544.001
1891 0 87.1155 13.0287 1135 52.3604 1146.6 544.693
1892 0 91.0597 13.5296 1232 51.9959 1146.44 542.704
1893 0 93.0641 12.1422 1130 53.5425 1146.15 543.276
1894 0 97.2196 14.1329 1374 52.0378 1145.23 540.6
1895 0 99.3098 14.0067 1391 52.9684 1145.64 538.613
1896 0 101.265 13.7856 1396 53.5616 1145.85 537.635
1897 0 104.209 13.2235 1378 54.3621 1146.03 537.498
1898 0 109.195 14.0483 1534 53.9941 1145.51 533.815
1899 1 61.1841 10.7708 659 54.1108 1145.21 560.745
1900 0 64.1428 11.3653 729 54.5089 1144.75 558.204
1901 0 64.161 11.5647 742 54.5647 1144.77 557.163
1902 0 67.1291 12.3344 828 54.7138 1144.92 554.959
1903 0 69.1451 12.4665 862 54.826 1145.25 556.165
1904 0 73.1975 12.1179 887 55.1297 1144.88 553.885
1905 0 75.1949 13.6046 1023 54.0499 1144.8 551.863
1906 0 78.1381 13.1946 1031 54.7042 1144.49 550.528
1907 0 80.2242 13.0011 1043 55.2493 1144.77 550.545
1908 0 84.2283 14.1164 1189 54.3625 1144.82 549.268
1909 0 83.1996 12.9808 1080 56.6694 1144.08 548.717
1910 0 88.3425 13.5722 1199 55.9483 1144.08 546.201
1911 0 92.3063 13.6827 1263 55.7759 1144.51 545.615
1912 0 95.2116 13.2337 1260 56.8913 1144.1 543.502
1913 1 50.1062 9.6994 486 58.0288 1143.67 568.068
1914 0 54.0791 11.5941 627 56.1611 1143.36 565.917
1915 0 54.1961 10.5912 574 57.6481 1143.1 566.385
1916 0 58.0989 11.1878 650 57.0015 1143.34 564.683
1917 0 59.1302 12.3625 731 56.3543 1142.88 563.772
1918 0 58.1336 12.1272 705 58.9376 1142.65 562.593
1919 0 62.143 12.8414 798 57.7168 1143.72 561.653
1920 0 65.2128 12.6356 824 58.2791 1144.09 558.17
1921 0 64.2239 12.3319 792 59.125 1143.62 559.548
1922 0 66.0618 13.3511 882 58.4626 1143.56 557.769
1923 0 68.2418 12.9832 886 58.8725 1143.69 557.817
1924 0 70.2323 12.7861 898 58.8875 1143.89 557.424
1925 0 73.2464 13.4341 984 57.9065 1143.5 556.564
1926 0 75.1085 13.0078 977 58.9324 1143.66 553.995
1927 0 79.2324 12.9997 1030 58.5146 1143.37 553.65
1928 0 79.1046 12.6415 1000 59.635 1143.7 553.731
1929 0 83.1565 13.7211 1141 57.7266 1143.34 551.461
1930 0 84.165 13.9844 1177 58.0272 1143.44 549.737
1931 0 86.1948 13.0634 1126 59.3091 1143.22 549.104
1932 0 90.1351 13.9901 1261 57.6519 1143.13 548.755
1933 0 91.1745 13.1287 1197 58.7561 1143.01 548.048
1934 0 96.2742 13.9601 1344 57.9226 1143.83 544.996
1935 0 99.2423 13.9356 1383 58.2162 1144.19 543.221
1936 0 101.248 14.0941 1427 58.2165 1144.28 541.878
1937 1 56.0282 10.6554 597 58.5126 1144.74 565.662
1938 0 57.1567 11.0748 633 58.5403 1144.89 564.482
1939 0 60.1541 12.0025 722 57.3837 1144.89 562.075
1940 0 61.1023 11.9799 732 57.4235 1144.51 560.769
1941 0 63.1556 13.3005 840 56.706 1144.57 557.211
1942 0 65.1826 13.4852 879 56.4619 1144.45 555.464
1943 0 67.184 14.0807 946 55.9218 1144.78 556.344
1944 0 68.1614 12.4264 847 56.34 1145.42 556.667
1945 0 71.1539 13.4638 958 55.096 1146.02 556.84
1946 0 72.1446 12.766 921 55.9729 1146 556.093
1947 0 77.1606 13.7505 1061 54.803 1146.05 552.136
1948 0 78.2017 14.2324 1113 54.1662 1145.56 551.967
1949 0 79.1927 13.1073 1038 55.7437 1146.12 550.975
1950 0 82.2229 13.8648 1140 54.914 1146.01 549.98
1951 0 85.1675 15.0879 1285 53.5222 1146.41 550.673
1952 0 87.1827 14.1886 1237 54.8278 1146.36 547.913
1953 0 90.1883 14.8245 1337 54.5527 1146.55 546.074
1954 0 92.0809 13.8139 1272 55.4308 1146.4 546.427
1955 0 93.1127 14.6919 1368 54.5154 1146.29 544.314
1956 0 95.1885 14.0668 1339 55.4444 1146.19 542.63
1957 0 102.162 15.221 1555 53.8006 1146.15 540.805
1958 0 105.331 14.0984 1485 54.8646 1146.33 540.385
1959 0 107.139 15.55 1666 53.3133 1146.63 537.896
1960 0 111.078 15.5837 1731 53.0543 1146.8 538.619
1961 0 115.141 15.3203 1764 53.5261 1147.13 534.629
1962 0 118.086 15.5056 1831 53.0759 1147.68 533.011
1963 0 120.288 15.5875 1875 53.3915 1147.77 532.53
1964 0 122.214 14.2127 1737 55.1906 1147.45 529.531
1965 0 127.217 16.0985 2048 53.1826 1147.43 526.243
1966 0 131.43 15.8335 2081 53.3912 1147.99 527.319
1967 0 135.28 15.1538 2050 54.3771 1148.17 523.786
1968 1 77.2075 10.5042 811 55.5413 1148.27 556.044
1969 0 78.132 12.1205 947 54.9081 1148.56 552.921
1970 0 82.1889 13.6028 1118 54.6825 1148.82 548.888
1971 0 83.1342 13.3278 1108 55.4955 1148.86 549.392
1972 0 88.2061 12.7769 1127 56.0834 1149.23 545.822
1973 0 89.1226 14.1827 1264 55.0989 1149.81 542.965
1974 0 95.2534 13.7318 1308 55.2401 1149.97 543.087
1975 0 97.1538 13.5661 1318 56.0554 1150.22 540.434
1976 0 99.1918 13.3983 1329 56.377 1150.86 539.734
1977 0 103.274 14.0694 1453 55.68 1151.22 538.193
1978 0 108.286 14.7757 1600 54.5681 1151 537.401
1979 0 111.224 15.8509 1763 53.8361 1151.42 535.939
1980 0 114.236 13.262 1515 56.901 1151.13 532.781
1981 1 62.1003 10.2737 638 57 1151.67 560.469
1982 0 63.1186 10.7892 681 57.7048 1151.85 557.847
1983 0 67.0582 12.1984 818 56.3178 1151.52 556.476
1984 0 67.1699 12.9076 867 56.2376 1151.65 552.588
1985 0 68.0546 12.1079 824 57.5692 1151.62 551.86
1986 0 73.0951 12.6684 926 55.8801 1151.74 551.636
1987 0 75.1128 13.553 1018 55.9804 1151.36 549.334
1988 0 78.0973 13.3679 1044 56.1801 1151.23 547.66
1989 0 81.1487 13.7525 1116 55.3763 1150.98 548.763
1990 0 81.154 13.5545 1100 56.0636 1151.21 547.557
1991 0 86.0749 13.6277 1173 56.2285 1151.31 542.707
1992 0 87.1297 14.048 1224 55.8194 1151.01 541.762
1993 0 93.1233 13.5949 1266 56.1445 1150.8 542.763
1994 0 93.1233 13.5841 1265 164.343 1150.81 542.846
1995 0 96.0978 13.5903 1306 56.9456 1150.5 539.524
1996 0 100.084 13.7885 1380 57.0804 1150.4 536.365
1997 0 103.159 14.4631 1492 56.2688 1149.99 537.025
1998 0 107.157 14.3994 1543 56.7647 1149.9 533.338
1999 0 108.224 14.1188 1528 57.5131 1149.83 532.14
2000 0 114.275 14.9639 1710 56.2895 1149.92 531.632
2001 0 115.139 14.0699 1620 57.2907 1149.4 531.817
2002 1 66.0565 11.581 765 56.5412 1149.3 556.422
2003 0 66.1275 10.3588 685 56.9124 1149.2 556.874
2004 0 70.1211 12.0506 845 55.5243 1149.59 557.044
2005 0 71.0867 12.7591 907 56.2811 1149.35 553.326
2006 0 72.1094 12.1898 879 57.1149 1148.82 552.535
2007 0 77.1242 13.8348 1067 54.7554 1148.81 549.459
2008 0 79.2003 12.5883 997 55.8215 1148.78 547.329
2009 0 82.1044 14.1284 1160 54.4655 1148.63 547.366
2010 0 85.3325 14.1798 1210 54.1074 1148.73 546.726
2011 0 86.1702 12.9279 1114 55.6185 1148.53 542.544
2012 0 90.2042 13.7133 1237 54.2643 1148.3 543.655
2013 0 93.1157 12.9946 1210 54.9983 1148.33 542.32
2014 0 96.284 13.1901 1270 54.9693 1148.07 540.437
2015 0 99.1301 12.9426 1283 54.8948 1148.02 540.263
2016 0 101.151 12.7828 1293 55.307 1148.22 539.346
2017 1 55.0264 10.1769 560 54.5536 1148.41 563.534
2018 0 54.0752 9.85664 533 55.1632 1148.17 562.392
2019 0 58.0775 11.8807 690 53.9058 1148.13 558.684
2020 0 61.0453 12.0075 733 52.5321 1147.4 561.396
2021 0 61.1572 12.3125 753 52.5618 1147.43 560.278
2022 0 64.0777 12.2195 783 52.963 1147.16 559.123
2023 0 66.0709 12.986 858 52.317 1146.97 556.501
2024 0 68.0929 13.8781 945 51.2529 1147.19 556.038
2025 0 70.0799 14.0411 984 51.5193 1147.51 554.791
2026 0 70.0444 11.4499 802 54.1546 1146.83 555.596
2027 0 73.057 12.9488 946 52.8055 1146.91 553.42
2028 0 74.1313 12.262 909 53.6986 1146.97 552.93
2029 0 78.0723 13.2057 1031 52.4656 1146.84 551.423
2030 0 80.1543 13.736 1101 52.2044 1146.85 551.261
2031 0 84.1639 13.6163 1146 52.1667 1147.03 552.122
2032 0 85.1443 12.8253 1092 53.4872 1147 548.66
2033 0 88.2136 13.8527 1222 52.8715 1146.83 546.109
2034 0 90.197 12.7166 1147 54.3374 1146.47 544.631
2035 0 93.3758 14.2114 1327 52.9013 1146.74 544.061
2036 0 95.2312 13.21 1258 54.3068 1146.69 544.447
2037 0 98.115 14.6053 1433 52.5087 1147.02 542.46
2038 0 99.2464 13.3405 1324 53.8739 1146.65 542.829
2039 0 103.267 13.9444 1440 53.0618 1146.38 542.514
2040 1 53.1099 10.3182 548 54.6533 1145.66 567.082
2041 0 56.1585 11.0402 620 55.0581 1145.8 563.558
2042 0 59.1073 11.6229 687 54.5371 1145.94 563.384
2043 0 60.1005 12.4292 747 53.8474 1145.92 561.9
2044 0 64.301 13.95 897 51.4961 1145.98 561.843
2045 0 64.1504 13.2033 847 53.4073 1146.26 560.475
2046 0 65.1649 13.274 865 53.4786 1146.36 559.813
2047 0 69.2299 13.968 967 52.637 1146.31 557.992
2048 0 70.0964 13.3816 938 53.7409 1145.9 556.657
2049 0 72.1757 13.9105 1004 53.4084 1146.01 554.95
2050 0 74.0606 13.5025 1000 54.124 1145.95 555.051
2051 0 77.1486 13.7138 1058 54.293 1145.33 553.874
2052 0 77.177 13.2034 1019 55.4446 1144.93 553.076
2053 0 81.22 13.7405 1116 56.7751 1145.09 551.289
2054 0 85.3284 14.0047 1195 56.3347 1144.87 551.624
2055 0 86.1709 14.1927 1223 56.2935 1144.82 550.344
2056 0 89.2254 14.7492 1316 56.25 1144.27 550.209
2057 0 89.2254 14.8164 1322 164.505 1144.29 550.195
2058 0 91.1331 14.627 1333 57.2926 1144.38 546.352
2059 0 95.2914 14.4504 1377 57.1692 1144.78 546.198
2060 0 98.2271 14.9348 1467 56.8684 1144.92 542.993
2061 0 100.132 15.3996 1542 56.8729 1144.74 540.898
2062 0 104.465 14.9524 1562 57.2183 1144.82 540.707
2063 0 105.332 15.2945 1611 57.3544 1144.45 537.88
2064 1 60.3011 11.7742 710 58.9732 1143.94 562.103
2065 0 64.1774 12.1227 778 58.383 1143.97 562.062
2066 0 65.166 12.4912 814 59.129 1144.33 560.151
2067 0 67.2402 13.5484 911 57.7563 1144.79 560.353
2068 0 68.1257 13.5485 923 58.3034 1145 559.391
2069 0 70.3288 13.7639 968 58.0186 1145.08 557.449
2070 0 72.3088 14.2721 1032 57.9583 1144.46 555.286
2071 0 77.263 14.4183 1114 57.9892 1145.1 554.379
2072 0 78.2689 13.8369 1083 59.5919 1145.65 553.107
2073 0 79.4468 13.8332 1099 60.2721 1145.61 552.178
2074 0 84.3285 14.1826 1196 59.7709 1145.37 550.7
2075 0 86.27 14.6401 1263 59.4885 1145.38 549.06
2076 0 88.4015 14.1966 1255 60.2112 1145.22 547.173
2077 1 47.0642 11.3462 534 59.6554 1145.81 569.695
2078 0 50.093 12.2772 615 59.0244 1146.15 567.239
2079 0 49.1396 11.3961 560 60.875 1146.16 566.536
2080 0 50.094 12.4366 623 59.8636 1146.54 568.554
2081 0 51.0865 13.7218 701 58.8017 1146.27 566.906
2082 0 53.1452 13.6042 723 59.6362 1146.69 565.83
2083 0 55.0855 12.4534 686 60.828 1146.92 564.92
2084 0 56.0862 13.6041 763 59.8427 1147.2 563.97
2085 0 58.1597 13.4285 781 60.1383 1147.27 563.215
2086 0 59.0678 13.0189 769 60.0819 1147.23 562.579
2087 0 62.2645 13.6193 848 59.52 1147.58 559.507
2088 0 64.2084 13.5185 868 59.5035 1148.59 558.622
2089 0 64.1556 12.9217 829 60.4427 1148.46 560.577
2090 0 67.1639 13.8318 929 59.6652 1148.99 557.753
2091 0 68.1989 14.5017 989 59.27 1149.12 557.364
2092 0 70.298 13.8695 975 60.1815 1148.56 557.36
2093 0 73.2097 13.9599 1022 59.908 1148.97 555.695
2094 0 74.1192 14.3148 1061 59.8454 1149.02 553.811
2095 0 76.2884 13.4228 1024 61.0918 1149.01 551.942
2096 0 82.2467 14.2985 1176 58.8163 1148.97 552.77
2097 0 82.141 14.4264 1185 59.8447 1149.32 552.196
2098 1 46.0403 11.642 536 61.6325 1149.16 570.043
2099 0 47.084 12.4034 584 62.9349 1149.11 568.05
2100 0 49.1078 12.9715 637 62.1868 1149.32 569.003
2101 0 49.0457 14.5986 716 61.2765 1149.44 566.473
2102 0 53.0856 13.8644 736 61.6033 1149.6 566.523
2103 0 53.0536 14.2497 756 62.1071 1149.79 564.413
2104 0 53.0536 14.3063 759 159.955 1149.78 564.394
2105 0 56.0441 13.8641 777 63.0849 1150.21 564.295
2106 0 59.02 13.6394 805 63.5242 1149.96 562.206
2107 0 60.0368 15.0741 905 61.747 1149.95 561.228
2108 0 63.0381 14.0391 885 63.0836 1150.2 560.588
2109 0 66.139 14.651 969 61.8968 1149.93 560.147
2110 0 67.0583 15.1063 1013 61.7601 1150.64 557.491
2111 0 71.0591 14.9453 1062 61.6959 1150.93 556.535
2112 0 72.0293 14.3553 1034 62.5832 1151.27 556.26
2113 0 76.0624 14.8299 1128 61.7996 1150.98 553.542
2114 0 76.1262 14.6467 1115 62.6592 1151.5 553.634
2115 0 79.086 14.832 1173 61.9267 1151.17 551.616
2116 0 83.2023 14.9155 1241 61.2143 1150.72 550.799
2117 0 85.0919 14.1847 1207 62.4764 1150.82 549.095
2118 1 45.2133 13.1599 595 64.2471 1150.13 567.704
2119 0 49.0639 13.3703 656 62.9405 1149.55 565.944
2120 0 47.1109 13.7123 646 62.9195 1149.15 566.889
2121 0 50.0719 13.5006 676 63.7574 1149.07 565.562
2122 0 53.0927 15.1622 805 61.6696 1149.44 564.473
2123 0 54.1467 14.6454 793 62.2573 1149.19 563.335
2124 0 56.1708 15.9157 894 60.1432 1148.93 563.285
2125 0 56.0718 14.6776 823 63.3038 1149.13 562.71
2126 0 62.3474 14.8202 924 61.2121 1148.67 561.63
2127 0 62.1476 15.4471 960 61.0427 1148.42 560.812
2128 0 65.2323 15.0846 984 61.5559 1148.72 559.565
2129 0 67.1387 16.0712 1079 60.3642 1148.52 557.705
2130 0 67.2114 16.0836 1081 61.5985 1148.61 556.817
2131 0 72.0343 15.6176 1125 61.5458 1148.63 555.295
2132 0 72.2145 15.1632 1095 62.6557 1148.84 555.845
2133 0 75.0802 14.7176 1105 63.495 1148.42 553.166
2134 1 40.4817 13.0923 530 65.2943 1147.92 571.183
2135 0 39.2011 14.2598 559 66.4812 1147.81 570.138
2136 0 42.1159 15.1487 638 64.326 1147.39 570.713
2137 0 43.1788 14.8452 641 65.7317 1147.81 570.261
2138 0 45.0783 15.1958 685 65.8088 1147.44 569.498
2139 0 45.1673 16.0736 726 65.1777 1146.87 567.537
2140 0 46.1284 15.11 697 67.4232 1146.82 566.633
2141 0 48.0568 14.5037 697 68.8077 1146.8 565.08
2142 0 51.1481 15.8364 810 66.6222 1146.84 565.859
2143 0 53.1341 15.922 846 66.0745 1147.13 565.726
2144 0 52.2401 15.1799 793 68.8815 1147.2 564.33
2145 0 56.1559 16.0268 900 66.8711 1146.86 564.989
2146 0 56.3107 15.5388 875 68.5257 1146.92 564.213
2147 0 60.2915 16.271 981 66.5861 1146.93 562.705
2148 0 62.2171 16.0406 998 67.3106 1147.39 561.622
2149 0 63.2355 16.4781 1042 67.4175 1146.94 560.556
2150 0 65.2448 17.3041 1129 66.3702 1146.7 558.906
2151 0 68.314 15.9118 1087 68.2953 1146.66 559.868
2152 0 71.3187 15.9425 1137 67.8355 1146.96 558.582
2153 0 72.1549 16.2983 1176 67.6641 1147.12 557.039
2154 0 74.3786 16.5639 1232 67.1412 1146.98 555.946
2155 0 76.2834 16.4518 1255 66.8231 1146.63 554.763
2156 0 80.2883 16.9016 1357 65.86 1147.04 552.987
2157 0 83.3326 15.4681 1289 67.4546 1146.73 552.128
2158 0 86.3063 16.6963 1441 65.3657 1146.5 550.076
2159 0 89.3075 15.7546 1407 66.7171 1146.41 548.395
2160 1 47.1054 12.3553 582 70.5137 1146.23 570.107
2161 0 50.136 14.5006 727 68.5062 1145.82 567.927
2162 0 52.4019 14.5605 763 68.2097 1145.89 568.383
2163 0 52.2206 14.209 742 69.1954 1146.02 568.341
2164 0 57.221 15.8508 907 66.0011 1146.21 567.122
2165 0 58.2236 14.8737 866 67.3649 1145.51 566.711
2166 0 60.1389 15.3811 925 66.3049 1145.13 566.208
2167 0 62.1351 15.4019 957 65.9112 1144.94 564.627
2168 0 64.2943 15.0558 968 66.2097 1144.58 563.143
2169 0 64.3241 14.9555 962 66.8732 1144.54 562.497
2170 0 70.3466 15.6227 1099 64.7152 1144.53 562.029
2171 0 70.7735 16.1784 1145 64.0227 1144.9 559.431
2172 0 74.1695 14.8848 1104 64.9538 1144.85 559.625
2173 0 78.4374 15.5538 1220 63.8762 1144.51 558.111
2174 0 79.2347 15.2585 1209 64.7461 1144.17 555.206
2175 1 45.1865 13.1013 592 66.1166 1144.85 573.014
2176 0 43.3803 13.4162 582 66.6186 1144.61 572.476
2177 0 48.1216 13.6321 656 65.4619 1145.01 571.088
2178 0 48.225 13.6651 659 66.3384 1145.06 570.108
2179 0 51.2818 14.5666 747 64.0442 1145.48 568.269
2180 0 52.1555 14.9744 781 64.8067 1145.64 568.697
2181 0 54.1872 14.6898 796 64.6533 1145.55 568.514
2182 0 55.3979 14.2605 790 64.9924 1145.25 567.684
2183 0 57.2605 14.565 834 64.6583 1145.2 566.468
2184 0 60.2621 14.0553 847 64.8217 1145.67 565.949
2185 0 63.2269 15.4048 974 62.5719 1146.05 563.258
2186 0 65.1739 15.052 981 62.79 1146.25 561.027
2187 0 68.2713 15.3212 1046 62.7428 1146.39 559.468
2188 0 70.0704 14.2999 1002 63.6208 1146.65 558.818
2189 0 73.1929 16.4497 1204 60.9427 1146.62 557.839
2190 0 77.1779 14.9784 1156 62.5614 1146.86 554.811
2191 0 78.2146 14.7543 1154 62.7418 1146.78 553.302
2192 0 81.0493 15.6078 1265 62.7945 1146.92 552.765
2193 0 82.1115 15.0649 1237 63.8181 1147.27 550.946
2194 0 86.247 14.4469 1246 64.004 1147.23 549.343
2195 0 88.122 16.114 1420 61.9225 1147.46 548.062
2196 0 91.1259 14.672 1337 64.5228 1147.27 546.127
2197 0 96.0547 16.5843 1593 61.7382 1147.56 544.468
2198 1 51.0455 12.4203 634 66.2729 1147.66 565.483
2199 0 53.0824 12.603 669 65.7997 1147.68 564.111
2200 0 55.0852 13.7423 757 64.5878 1147.89 562.917
2201 0 56.0528 13.7906 773 65.1889 1147.7 561.41
2202 0 56.0866 12.9443 726 67.5372 1147.97 559.923
2203 0 60.0513 13.8715 833 65.6903 1147.79 559.495
2204 0 63.0208 13.3607 842 66.3682 1148.28 557.651
2205 0 65.0339 15.4996 1008 63.5605 1148.28 556.159
2206 0 68.1645 14.6411 998 64.6503 1148.38 555.645
2207 0 70.0327 14.4504 1012 65.2302 1148.98 555.549
2208 0 71.0655 15.1128 1074 66.0987 1148.75 551.834
2209 0 75.0932 14.6218 1098 66.1311 1148.75 552.006
2210 0 76.1959 14.0821 1073 67.9851 1148.84 551.174
2211 0 79.0555 14.1167 1116 67.7195 1148.5 549.317
2212 0 82.101 14.811 1216 67.2525 1148.76 546.396
2213 0 84.1375 14.6783 1235 68.0753 1149 545.271
2214 0 88.073 14.0679 1239 68.8386 1149.03 544.114
2215 0 91.1457 14.3507 1308 68.9304 1149.17 540.814
2216 1 38.0804 9.21734 351 66.2991 1149.55 566.897
2217 0 39.067 8.60062 336 66.2262 1150.01 567.777
2218 0 39.0875 9.3636 366 66.3798 1150.14 566.298
2219 0 42.0423 10.4894 441 65.3084 1150.41 565.78
2220 0 44.1099 10.2698 453 65.9205 1150.42 565.94
2221 0 45.0726 9.62891 434 67.7512 1150.46 564.539
2222 0 45.1271 10.415 470 67.0234 1149.78 563.447
2223 0 50.3268 11.6041 584 64.4161 1149.93 563.634
2224 0 49.3279 11.2107 553 65.5732 1150 562.899
2225 0 52.3957 12.1002 634 64.7161 1149.67 559.628
2226 0 53.3269 10.8951 581 66.4871 1149.93 557.695
2227 0 55.3605 10.82 599 66.3856 1150.1 557.461
2228 0 60.2136 11.0606 666 67.0495 1149.62 556.713
2229 0 61.3501 11.0187 676 66.8713 1149.62 556.851
2230 0 60.318 11.1575 673 67.9539 1149.33 554.814
2231 0 63.2422 11.2899 714 67.6709 1149.23 552.746
2232 0 66.3853 11.373 755 67.1404 1149.37 549.514
2233 0 68.3286 11.2398 768 67.5234 1149.25 548.757
2234 0 70.3354 11.2461 791 66.8344 1149.49 550.32
2235 0 73.2476 11.2905 827 66.6675 1149.01 548.703
2236 0 76.3563 11.7607 898 66.0245 1148.9 548.34
2237 0 75.2512 11.4417 861 66.9861 1148.9 547.804
2238 0 77.2617 11.6358 899 66.0489 1148.38 546.434
2239 0 80.2917 10.9849 882 66.9977 1148.64 544.722
2240 0 85.2445 11.6019 989 66.0839 1148.38 543.32
2241 0 86.2938 11.5536 997 65.7894 1148.65 541.479
2242 0 92.2227 12.4915 1152 63.4592 1148.46 541.791
2243 0 93.2765 11.8894 1109 65.2002 1149.33 539.399
2244 1 50.2356 9.91329 498 145.994 1149.47 560.952
2245 0 53.144 10.1799 541 64.549 1148.88 557.253
2246 0 56.2415 9.67257 544 63.9467 1148.85 558.961
2247 0 57.1747 9.88199 565 64.3805 1148.92 556.154
2248 0 60.2802 11.6622 703 61.6501 1148.48 557.223
2249 0 61.1664 11.0355 675 62.9807 1148.6 556.329
2250 0 63.4187 10.6593 676 63.0769 1148.53 556.348
2251 0 63.2796 11.141 705 63.044 1148.6 554.294
2252 0 65.1711 11.0325 719 62.9026 1148.28 553.374
2253 0 68.1878 11.395 777 62.8417 1148.27 552.185
2254 0 69.4184 10.7608 747 63.9076 1147.73 551.565
2255 0 74.4771 12.3528 920 61.9533 1147.86 551.26
2256 0 75.1898 11.6372 875 62.6549 1147.84 551.575
2257 0 79.3325 12.5548 996 61.1637 1147.47 548.22
2258 0 80.1996 11.7083 939 62.6699 1147.41 547.073
2259 0 81.2869 11.1457 906 63.5993 1147 547.82
2260 0 83.29 11.0818 923 64.5742 1147.37 544.875
2261 0 83.29 11.0818 923 144.332 1147.37 544.888
2262 0 89.3632 12.466 1114 62.7765 1147.3 541.809
2263 0 92.2683 11.4666 1058 63.3422 1147.71 543.232
2264 0 96.3359 12.1969 1175 62.7353 1147.83 540.621
2265 0 98.3232 11.9097 1171 63.8241 1147.76 536.015
2266 0 102.212 12.4056 1268 63.0087 1147.66 530.341
2267 0 106.312 12.1811 1295 62.1606 1147.79 532.69
2268 1 59.4393 11.2888 671 60.0864 1147.61 556.741
2269 0 61.384 11.1104 682 60.0132 1147.6 556.377
2270 0 61.2246 11.2863 691 58.9841 1147.42 557.482
2271 0 63.3068 11.5154 729 58.8601 1147.26 556.001
2272 0 65.3553 11.2615 736 59.2595 1147.41 555.2
2273 0 67.1604 12.3287 828 58.6135 1148.42 556.064
2274 0 67.1604 12.3883 832 153.06 1148.44 555.99
2275 0 69.1386 13.2632 917 57.9793 1148.98 554.55
2276 0 71.144 12.5801 895 58.8793 1148.65 554.791
2277 0 73.1845 13.0082 952 58.7889 1148.01 552.395
2278 0 74.0901 12.1204 898 59.9944 1147.6 551.476
2279 0 76.2197 12.5296 955 59.777 1148.03 549.934
2280 0 77.2613 12.0371 930 60.8785 1147.03 549.551
2281 0 80.2 13.3541 1071 59.6947 1147.04 546.585
2282 0 84.21 14.1076 1188 58.2896 1146.78 545.884
2283 0 85.2604 13.6054 1160 58.8233 1146.29 547.672
2284 0 87.315 13.938 1217 59.0329 1146.31 546.263
2285 0 90.2657 13.8923 1254 59.0686 1146.16 545.76
2286 0 94.2396 14.548 1371 58.3902 1146.32 542.349
2287 0 95.2001 14.4223 1373 59.0874 1146.69 542.686
2288 0 99.4449 14.7318 1465 58.6662 1146.22 540.097
2289 0 101.364 14.5713 1477 58.8632 1146.33 537.441
2290 0 102.501 14.0096 1436 59.8162 1146.18 534.526
2291 0 108.354 15.5047 1680 57.3881 1145.88 536.396
2292 0 112.25 15.4654 1736 57.1411 1146.3 534.962
2293 0 115.43 15.8191 1826 56.8275 1145.94 532.975
2294 1 66.2521 12.4524 825 58.5782 1146.01 557.921
2295 0 69.1368 11.8461 819 58.5788 1145.84 558.768
2296 0 67.1934 11.8464 796 58.6156 1145.73 557.769
2297 0 72.3576 13.6544 988 56.6144 1146.1 555.871
2298 0 72.2046 13.7249 991 57.3754 1145.72 556.014
2299 0 72.3728 13.1127 949 57.6481 1145.85 552.286
2300 0 77.2308 13.9323 1076 56.0901 1146.08 551.719
2301 0 81.4133 14.236 1159 55.2373 1145.65 551.095
2302 0 84.3071 13.9727 1178 55.8056 1145.92 549.355
2303 0 84.1846 13.1259 1105 57.2887 1145.74 547.406
2304 0 90.2407 14.8935 1344 54.8088 1145.66 545.948
2305 0 92.3811 13.9639 1290 55.776 1145.69 545.733
2306 0 95.3951 13.8791 1324 55.6692 1145.73 545.37
2307 0 99.3024 13.2424 1315 56.6601 1145.16 543.779
2308 1 51.2569 10.3791 532 56.9605 1145.73 566.821
2309 0 54.1731 10.6141 575 56.5913 1145.4 565.624
2310 0 55.2005 11.4311 631 56.6941 1146.01 564.185
2311 0 57.1179 11.6601 666 57.455 1146.01 561.878
2312 0 59.1517 12.5102 740 56.2784 1146.2 560.496
2313 0 62.065 12.0841 750 56.4787 1145.99 560.663
2314 0 62.1737 11.6931 727 57.2985 1146.4 561.275
2315 0 64.0532 13.3483 855 55.6585 1146.39 559.097
2316 0 66.1723 12.9661 858 56.1643 1146.36 558.883
2317 0 69.1381 13.0608 903 56.0332 1146.74 556.267
2318 0 70.2661 12.8369 902 56.816 1147.15 554.553
2319 0 73.2048 12.2669 898 57.3318 1147.33 555.679
2320 0 76.2409 13.4574 1026 56.0146 1147.42 553.838
2321 0 77.2147 12.9638 1001 56.7373 1147.95 552.08
2322 0 80.2617 13.6429 1095 55.8922 1148.22 551.058
2323 0 80.3638 12.5554 1009 57.8563 1147.94 547.883
2324 0 85.2262 13.7164 1169 56.1925 1147.88 546.727
2325 0 86.2028 13.2826 1145 57.3135 1148.13 543.941
2326 0 91.3075 14.3362 1309 55.806 1148.05 542.18
2327 0 93.2832 14.3327 1337 55.8699 1148.13 543.302
2328 0 97.2862 14.4933 1410 55.9972 1148.29 542.405
2329 0 99.3101 14.3389 1424 56.5316 1148.56 540.279
2330 0 101.232 15.0743 1526 56.0157 1148.85 538.271
2331 0 105.32 14.4321 1520 56.8697 1149.01 535.801
2332 1 54.1172 10.5881 573 58.4642 1149.18 560.67
2333 0 59.179 11.1357 659 57.1184 1148.85 560.354
2334 0 59.3249 10.8723 645 57.4744 1149.25 556.513
2335 0 62.2346 12.019 748 56.5388 1149.46 555.854
2336 0 67.2779 14.284 961 54.2955 1149.37 555.89
2337 0 65.1605 13.3056 867 56.9123 1149.87 554.082
2338 0 68.098 13.0254 887 57.0451 1149.97 554.64
2339 0 69.0584 13.9447 963 56.5026 1149.43 554.366
2340 0 71.1892 12.3052 876 58.9075 1149.65 550.422
2341 0 74.1757 13.9803 1037 56.8602 1149.95 550.956
2342 0 74.2439 12.9303 960 58.6031 1150.06 549.132
2343 0 78.2266 13.3331 1043 58.0307 1149.82 548.248
2344 0 81.3316 13.6232 1108 58.2401 1149.83 545.69
2345 0 83.1313 15.1567 1260 56.7405 1149.68 544.049
2346 0 86.2404 14.5871 1258 57.438 1149.76 545.111
2347 0 88.1652 13.3953 1181 58.7189 1150.25 544.446
2348 0 90.2384 12.5889 1136 60.4401 1150.35 540.655
2349 0 92.2501 14.3198 1321 59.0886 1150.62 538.734
2350 0 96.338 15.2484 1469 57.6855 1150.63 539.941
2351 0 99.1944 13.5895 1348 59.6788 1150.62 537.707
2352 1 55.2255 11.1362 615 59.8732 1150.9 558.693
2353 0 57.231 10.0994 578 60.891 1151.13 557.343
2354 0 60.1368 10.6923 643 60.4059 1150.59 557.709
2355 0 61.1593 12.9498 792 57.9697 1150.66 556.417
2356 0 63.2694 12.4389 787 58.3151 1150.77 555.169
2357 0 64.174 12.3259 791 59.2212 1149.77 554.334
2358 0 66.0869 12.0447 796 60.6407 1149.36 551.484
2359 0 68.2163 12.9881 886 59.4707 1149.46 551.242
2360 0 70.1872 13.692 961 58.8699 1149.55 552.246
2361 0 71.235 12.3394 879 60.6985 1149.93 549.865
2362 0 75.1686 13.1571 989 58.8605 1149.98 549.673
2363 0 75.1124 13.2867 998 59.5912 1149.31 545.796
2364 0 80.129 13.8028 1106 58.6718 1149.36 546.832
2365 0 81.2287 12.9634 1053 59.7797 1149.13 546.344
2366 0 84.2371 13.3908 1128 60.4486 1149.16 543.839
2367 0 86.205 14.2683 1230 59.7537 1148.58 542.204
2368 0 90.1576 14.4414 1302 59.1767 1148.48 543.304
2369 0 92.2523 13.9834 1290 60.1496 1148.6 540.748
2370 0 93.2097 14.0007 1305 61.1272 1148.87 538.539
2371 0 97.3723 13.587 1323 60.8745 1148.68 538.232
2372 0 102.346 14.9394 1529 59.0216 1148.54 536.152
2373 1 55.2433 11.4222 631 61.7575 1148.23 557.103
2374 0 56.216 10.9399 615 61.2423 1148 559.753
2375 0 59.2395 10.8374 642 61.7632 1148.06 558.103
2376 0 60.3162 11.821 713 61.892 1148.01 556.628
2377 0 60.2042 11.0125 663 61.4314 1148.16 558.468
2378 0 61.1951 12.7788 782 60.1317 1148.23 556.578
2379 0 63.1658 13.3933 846 58.8322 1147.64 556.626
2380 0 67.183 13.0837 879 60.0865 1147.75 553.6
2381 0 68.1702 13.2609 904 57.0431 1147.62 553.382
2382 0 68.2306 13.982 954 56.9665 1147.85 553.487
2383 0 71.1476 12.8465 914 57.6422 1148.06 553.697
2384 0 73.1095 12.2146 893 58.4815 1147.86 552.602
2385 0 76.2305 14.3381 1093 56.6386 1147.94 550.625
2386 0 77.201 13.3936 1034 57.5928 1147.62 550.684
2387 0 81.1313 14.3964 1168 55.9238 1147.98 548.311
2388 0 82.1896 13.5662 1115 57.4152 1147.88 546.447
2389 0 84.296 14.1051 1189 56.8528 1147.86 546.526
2390 0 88.2302 14.9155 1316 56.022 1148.31 545.353
2391 0 91.1887 15.6379 1426 55.3008 1148.49 544.461
2392 0 90.2425 14.5386 1312 57.0274 1148.21 544.68
2393 0 94.183 14.6842 1383 56.5004 1148.29 542.698
2394 0 96.2391 13.4353 1293 58.181 1148.47 540.666
2395 0 101.223 15.2041 1539 56.1066 1147.89 538.519
2396 0 101.223 15.1843 1537 163.063 1146.91 538.538
2397 0 107.128 14.3473 1537 57.0586 1147.59 536.789
2398 0 109.163 14.9776 1635 56.3119 1147.96 533.237
2399 1 62.1693 11.1148 691 59.0507 1147.29 557.55
2400 0 63.2096 11.8495 749 58.4112 1146.95 557.619
2401 0 68.2072 13.3564 911 56.4885 1147.18 556.463
2402 0 70.1682 13.7669 966 56.0849 1147.2 554.876
2403 0 71.1407 13.7896 981 56.3649 1147.24 553.815
2404 0 73.149 14.4363 1056 55.7983 1146.88 553.535
2405 0 76.2655 14.0299 1070 55.9318 1146.62 553.258
2406 0 78.1884 13.7105 1072 56.791 1146.63 551.004
2407 0 78.1246 13.4785 1053 57.3343 1146.31 550.029
2408 0 83.1429 14.5893 1213 55.4707 1146.46 548.25
2409 0 85.1533 14.0805 1199 55.3528 1146.01 547.423
2410 0 90.1551 15.3291 1382 54.6064 1146.04 544.008
2411 0 93.2523 14.123 1317 55.7016 1145.85 543.525
2412 1 52.0745 12.0597 628 55.9268 1145.57 565.307
2413 0 53.1153 11.5598 614 57.1564 1145.5 562.694
2414 0 54.112 12.548 679 55.7599 1145.93 564.018
2415 0 58.1122 12.8716 748 55.1217 1145.35 562.934
2416 0 58.1107 12.1836 708 56.7514 1145.49 560.763
2417 0 60.1376 12.9204 777 55.9627 1144.82 560.382
2418 0 62.1037 13.6868 850 54.4835 1145.28 559.008
2419 0 63.0992 13.2014 833 55.3577 1144.93 558.654
2420 0 67.0781 13.8346 928 54.2543 1145.07 557.404
2421 0 68.0992 13.9943 953 54.3043 1144.89 557.489
2422 0 70.1107 13.493 946 54.851 1145.28 556.022
2423 0 70.0531 13.5326 948 55.5369 1145.28 556.161
2424 0 75.085 14.983 1125 54.1698 1145.2 554.735
2425 0 76.0492 14.7536 1122 54.5704 1145.45 554.205
2426 0 79.1705 14.8161 1173 54.7937 1145.48 551.859
2427 0 80.0918 14.7331 1180 54.8932 1145.27 552.831
2428 0 84.2332 13.9137 1172 55.7961 1145.01 550.8
2429 0 84.1211 14.5148 1221 55.5176 1145.12 548.753
2430 0 88.1559 14.1794 1250 56.0272 1145.12 547.28
2431 0 92.1184 15.86 1461 54.3388 1145.62 543.476
2432 0 95.1328 14.7899 1407 55.0498 1145.71 543.406
2433 1 53.0842 11.6796 620 56.2532 1145.61 564.998
2434 0 56.0474 11.8114 662 56.423 1145.71 564.405
2435 0 54.0752 12.4641 674 56.4228 1145.48 563.28
2436 0 59.0622 13.0202 769 55.7425 1145.75 563.202
2437 0 60.0465 13.2397 795 55.8629 1145.35 561.325
2438 0 60.1293 12.2902 739 57.4005 1145.63 560.298
2439 0 64.101 14.836 951 54.633 1145.28 558.063
2440 0 64.1129 13.9598 895 55.7765 1145.31 558.174
2441 0 67.1179 14.3479 963 55.0415 1145.03 557.197
2442 0 69.1148 13.8031 954 55.9832 1145.29 555.796
2443 0 74.1511 14.2007 1053 55.5157 1145.59 554.159
2444 0 75.1942 14.7086 1106 55.2224 1145.83 553.087
2445 0 78.0568 15.1172 1180 54.9085 1145.88 552.742
2446 0 81.0676 13.5689 1100 56.7182 1145.62 550.657
2447 0 81.0652 14.1368 1146 56.8019 1145.65 549.477
2448 0 85.0761 14.681 1249 56.0216 1145.85 548.034
2449 0 88.2916 14.4295 1274 56.9254 1146.37 544.781
2450 0 91.0991 14.7202 1341 55.8904 1146.11 545.492
2451 0 94.1371 13.799 1299 57.4403 1146.51 543.894
2452 1 55.0497 11.5532 636 57.4921 1146.15 564.035
2453 0 52.1141 11.3213 590 59.1085 1146.51 561.92
2454 0 55.1441 12.2951 678 55.9292 1146.18 561.445
2455 0 56.0493 12.9529 726 55.657 1146.49 559.698
2456 0 60.0621 13.4028 805 55.4783 1146.83 559.255
2457 0 62.061 13.3256 827 54.7521 1146.56 559.613
2458 0 61.1499 13.2625 811 56.0986 1146.9 557.16
2459 0 65.2144 13.8006 900 55.3589 1147.44 554.767
2460 0 67.189 14.0797 946 54.9588 1147.47 554.181
2461 0 68.2672 13.3593 912 55.9649 1147.54 553.917
2462 0 69.121 13.6861 946 56.0307 1147.72 552.085
2463 0 71.2327 14.4597 1030 55.1777 1147.97 552.283
2464 0 76.1984 13.9635 1064 54.9004 1148.09 551.114
2465 0 78.24 15.5164 1214 54.1161 1148.63 548.474
2466 0 78.2173 13.9355 1090 55.8055 1148.82 546.335
2467 0 81.3551 13.6193 1108 56.3664 1149.09 543.773
2468 0 85.3454 13.5918 1160 55.719 1148.74 544.978
2469 0 87.2539 14.3145 1249 55.5372 1149.02 540.131
2470 0 89.2709 13.5991 1214 56.4094 1148.92 540.46
2471 1 48.2019 10.539 508 57.5118 1148.92 559.591
2472 0 54.1777 12.1268 657 54.6591 1149.35 559.524
2473 0 55.1462 12.8023 706 55.2436 1150.07 557.405
2474 0 57.151 12.7732 730 55.2863 1150.84 556.712
2475 0 58.0444 13.0934 760 55.2947 1150.22 556.072
2476 0 60.0665 13.8014 829 54.2557 1150.53 555.315
2477 0 63.0575 15.129 954 52.8197 1150.57 552.831
2478 0 64.1438 13.8127 886 54.0497 1150.58 552.499
2479 0 65.1132 13.9296 907 54.5943 1150.61 548.71
2480 0 67.0766 14.3567 963 53.5909 1150.41 550.572
2481 0 70.1253 14.4028 1010 54.0168 1150.85 549.544
2482 0 72.0295 15.6602 1128 52.6454 1150.84 548.977
2483 0 74.0837 14.3621 1064 54.6391 1150.36 545.832
2484 0 76.0748 14.4989 1103 54.7099 1149.95 546.371
2485 0 80.1721 14.7183 1180 54.3093 1149.81 543.414
2486 0 80.1259 13.0919 1049 56.7455 1149.92 543.152
2487 0 83.0705 14.7947 1229 55.057 1149.92 541.744
2488 0 85.0977 12.9381 1101 57.5259 1149.86 540.87
2489 0 88.2139 14.9636 1320 55.7152 1149.71 537.531
2490 0 93.0391 15.4451 1437 54.3848 1149.97 537.8
2491 0 93.2351 13.9861 1304 56.6219 1149.47 536.604
2492 0 99.2032 15.3927 1527 54.7649 1149.72 536.33
2493 0 100.182 15.2822 1531 55.806 1149.67 534.549
2494 0 103.249 14.2665 1473 56.7366 1149.53 533.336
2495 0 107.478 15.7707 1695 55.3499 1149.37 532.292
2496 0 109.301 14.9312 1632 56.6581 1149.54 529.931
2497 0 114.181 15.7732 1801 55.4275 1149.18 528.019
2498 0 117.128 15.4105 1805 55.8975 1149.25 527.129
2499 0 121.228 15.9204 1930 54.9767 1148.79 525.303
2500 0 123.214 14.8765 1833 56.3301 1149.04 522.081
2501 1 68.1454 10.9765 748 56.9425 1148.55 552.67
2502 0 73.1571 12.9721 949 55.3087 1148.6 550.572
2503 0 73.0671 12.9059 943 55.8738 1148.55 549.504
2504 0 77.0983 13.6709 1054 54.814 1148.59 548.87
2505 0 78.1384 13.9112 1087 54.6808 1148.65 548.965
2506 0 81.2411 13.6384 1108 55.0271 1148.73 547.875
2507 0 84.2048 13.5859 1144 55.0201 1148.07 546.212
2508 0 86.1776 14.8763 1282 54.358 1148.22 540.921
2509 0 91.2374 15.4432 1409 54.0185 1147.93 541.966
2510 0 93.1585 14.792 1378 54.9811 1148.03 539.582
2511 0 96.1393 15.0511 1447 54.6323 1148.17 538.085
2512 0 98.1641 14.3331 1407 55.4876 1148.27 537.986
2513 0 103.068 14.4758 1492 55.4705 1148.03 535.901
2514 0 104.171 14.8122 1543 55.1069 1148.07 534.568
2515 0 108.259 14.4654 1566 55.8231 1148.07 529.748
2516 0 112.135 15.1514 1699 55.1366 1147.9 529.312
2517 0 116.2 14.9484 1737 55.2165 1147.43 528.197
2518 0 122.144 15.9648 1950 53.2815 1147.31 527.936
2519 0 125.462 15.1042 1895 54.7061 1147.2 525.583
2520 1 71.0443 11.5703 822 55.1144 1146.56 554.091
2521 0 74.0685 11.9484 885 54.5932 1146.57 553.942
2522 0 77.1617 13.0764 1009 53.8186 1146.56 550.999
2523 0 78.0658 13.2452 1034 54.2437 1146.48 549.088
2524 0 80.0897 14.1466 1133 53.1995 1146.61 550.926
2525 0 83.1869 12.8145 1066 54.925 1146.44 548.163
2526 0 86.066 13.6988 1179 54.3461 1146.3 547.454
2527 0 88.1019 12.9736 1143 55.6605 1146.03 544.129
2528 0 90.095 12.8309 1156 55.5554 1146.17 546.774
2529 0 95.0696 15.0101 1427 53.7267 1146.71 543.498
2530 0 98.126 15.5107 1522 53.5775 1146.88 540.81
2531 0 99.2567 12.4022 1231 56.723 1147.07 539.282
2532 0 104.183 13.8891 1447 54.9896 1146.99 540.619
2533 0 106.263 14.2759 1517 55.1444 1146.84 535.303
2534 1 58.1785 11.7741 685 56.5226 1147 560.218
2535 0 60.1358 10.5262 633 56.5592 1146.63 563.376
2536 0 63.0477 12.6412 797 55.3538 1146 559.501
2537 0 63.4409 12.4683 791 55.6523 1146.08 559.145
2538 0 66.0883 13.2701 877 55.6591 1145.9 559.921
2539 0 69.1591 13.9823 967 55.1996 1145.78 556.611
2540 0 70.108 14.3778 1008 55.0675 1145.95 555.058
2541 0 73.1999 13.3333 976 56.127 1145.97 554.036
2542 0 75.1365 13.8548 1041 55.4534 1145.98 552.434
2543 0 78.3247 13.8271 1083 55.8818 1145.53 552.426
2544 0 79.1264 14.0661 1113 56.46 1145.83 550.75
2545 0 82.1478 13.147 1080 57.0398 1145.86 550.152
2546 0 83.1067 13.3563 1110 57.2955 1145.96 548.577
2547 0 88.0956 15.4491 1361 54.9875 1145.9 546.777
2548 0 91.445 14.9379 1366 55.5088 1145.76 545.556
2549 0 93.349 14.1619 1322 56.5749 1145.67 544.585
2550 0 95.1545 13.0735 1244 57.7259 1146.08 544.035
2551 0 100.162 13.6279 1365 56.9531 1145.89 542.842
2552 0 103.203 13.9434 1439 56.9055 1145.86 542.328
2553 1 57.1875 13.0098 744 57.789 1145.88 562.317
2554 0 59.3884 12.3593 734 58.4005 1145.78 562.165
2555 0 62.2505 12.016 748 58.1644 1145.65 561.201
2556 0 63.2078 12.9098 816 58.0686 1145.55 561.153
2557 0 64.2077 12.9735 833 58.1885 1145.63 560.089
2558 0 66.0778 14.2862 944 56.9778 1145.41 558.874
2559 0 67.1724 14.1874 953 57.5278 1145.54 556.953
2560 0 68.1848 13.2141 901 58.9034 1145.6 556.297
2561 0 70.1687 13.9236 977 58.0942 1145.47 558.621
2562 0 72.2451 14.3954 1040 58.2413 1145.79 555.978
2563 0 73.0759 12.9454 946 59.5032 1145.28 555.737
2564 0 77.1174 14.8475 1145 58.3799 1145.63 553.364
2565 0 77.1336 13.8072 1065 59.6385 1145.15 553.9
2566 0 81.3406 14.593 1187 60.2098 1145.33 552.823
2567 0 80.0561 13.9652 1118 62.0644 1145.36 552.106
2568 0 88.1374 15.0447 1326 60.0219 1145.87 551.477
2569 0 90.2585 15.4999 1399 59.9485 1145.81 549.099
2570 0 91.1553 14.6783 1338 61.3408 1145.75 548.462
2571 0 94.1095 15.0463 1416 61.1024 1145.95 546.763
2572 0 97.2082 15.3176 1489 60.6259 1145.81 546.522
2573 0 100.099 15.2549 1527 60.8585 1145.72 543.382
2574 0 103.168 15.5475 1604 60.5817 1145.6 540.72
2575 0 106.23 15.3252 1628 60.8686 1145.38 541.771
2576 0 111.308 15.4346 1718 60.6362 1145.54 541.751
2577 0 118.209 13.5607 1603 61.4716 1145.41 542.039
2578 0 117.12 15.7018 1839 60.1903 1145.3 538.15
2579 1 66.1432 13.9848 925 61.2389 1145.04 562.503
2580 0 67.1498 13.9985 940 62.0532 1144.61 560.573
2581 0 67.1498 13.9539 937 179.316 1144.61 560.646
2582 0 71.0884 14.2217 1011 63.1217 1144.89 557.079
2583 0 76.1318 17.2595 1314 58.5228 1145.13 557.355
2584 0 77.1236 15.741 1214 60.5181 1145.41 555.833
2585 0 79.1862 16.4423 1302 59.702 1145.1 554.621
2586 0 82.3206 15.5976 1284 60.8505 1145.12 551.675
2587 0 85.1153 15.6259 1330 60.2714 1145.16 551.685
2588 0 89.0867 16.2763 1450 59.22 1145.16 549.641
2589 0 91.3085 15.3545 1402 60.1441 1145.38 546.986
2590 0 94.1234 15.8728 1494 60.0763 1145.43 545.965
2591 0 97.2931 16.6199 1617 59.0062 1145.53 545.404
2592 0 99.2978 16.5462 1643 59.4041 1145.78 542.695
2593 0 103.286 16.2365 1677 59.5295 1146 542.078
2594 0 106.226 16.1354 1714 59.3541 1145.9 538.882
2595 0 109.216 16.243 1774 59.3968 1145.82 540.111
2596 0 112.304 15.9923 1796 59.3602 1145.95 539.955
2597 0 116.457 16.2722 1895 59.4982 1146.34 536.735
2598 0 120.243 18.3212 2203 57.0536 1146.78 532.886
2599 0 124.378 16.482 2050 58.4649 1147.06 530.045
2600 1 67.167 14.1736 952 62.2395 1147.05 560.259
2601 0 69.0575 15.1902 1049 61.6597 1146.77 556.487
2602 0 71.2345 14.5997 1040 61.8529 1147.16 556.524
2603 0 75.1696 15.1391 1138 60.7601 1147.28 554.489
2604 0 78.2321 16.4511 1287 60.0567 1147.33 550.989
2605 0 81.0934 17.3874 1410 58.4567 1147.56 550.03
2606 0 84.1583 17.7641 1495 58.3712 1148.13 548.361
2607 0 84.1583 17.7641 1495 162.93 1148.13 548.361
2608 0 89.1014 16.8235 1499 59.2962 1148.55 546.538
2609 0 91.1177 15.6611 1427 60.6713 1148.71 547.011
2610 0 96.1598 18.4277 1772 57.0282 1149.31 546.566
2611 0 97.0887 16.1193 1565 60.1796 1149.27 544.504
2612 0 101.242 16.6038 1681 59.0761 1149.25 540.86
2613 0 103.284 16.2367 1677 59.9505 1149.86 540.642
2614 0 108.21 18.1499 1964 57.6359 1149.74 538.438
2615 0 113.182 18.8369 2132 56.5314 1149.88 537.662
2616 0 114.223 17.2907 1975 58.3787 1149.92 536.008
2617 0 118.15 16.132 1906 59.745 1149.83 535.525
2618 0 118.188 16.0423 1896 59.5881 1149.74 536.754
2619 1 64.0851 15.4326 989 60.9242 1149.73 559.729
2620 0 67.1239 16.3131 1095 59.9416 1149.88 558.129
2621 0 68.0505 16.8698 1148 60.8702 1150.49 554.543
2622 0 72.1501 17.6853 1276 59.9522 1150.13 552.984
2623 0 75.0709 17.4368 1309 59.958 1150.27 552.314
2624 0 78.1018 17.2595 1348 60.0749 1150.69 551.62
2625 0 80.1079 17.7511 1422 59.6188 1150.9 549.959
2626 0 85.1654 17.3075 1474 59.4396 1150.78 548.104
2627 0 87.0517 16.6223 1447 60.0283 1150.66 545.984
2628 1 41.0592 14.9784 615 62.3707 1150.24 567.94
2629 0 43.2444 14.6609 634 62.5095 1150.17 567.222
2630 0 45.0769 15.7065 708 60.8545 1150.13 567.859
2631 0 46.1975 16.4727 761 60.2155 1150.01 565.614
2632 0 48.0382 15.9665 767 60.9531 1149.6 563.979
2633 0 50.0993 17.5052 877 59.2041 1149.59 563.837
2634 0 52.1579 16.6034 866 59.5982 1150.05 562.796
2635 0 53.126 16.1315 857 60.6091 1149.97 561.678
2636 0 56.2569 15.8203 890 60.4169 1149.84 561.643
2637 0 57.2446 16.9623 971 59.6509 1149.8 560.498
2638 0 59.1356 18.7366 1108 57.7888 1149.74 559.687
2639 0 60.0878 17.8073 1070 58.8486 1149.67 558.866
2640 0 61.1688 16.0703 983 60.9095 1149.63 559.584
2641 0 64.2582 17.4297 1120 59.4295 1149.71 557.667
2642 0 65.2156 16.8978 1102 60.931 1149.46 557.613
2643 0 65.0776 17.3485 1129 61.2046 1149.29 558.481
2644 0 67.3135 17.0248 1146 62.301 1149.44 555.454
2645 0 68.1679 16.8995 1152 63.1866 1148.97 553.929
2646 0 68.1701 15.696 1070 65.1551 1149.33 553.605
2647 0 71.0769 17.5303 1246 63.0457 1149.39 554.486
2648 0 72.2181 16.921 1222 64.7087 1149.26 552.104
2649 0 75.1186 18.544 1393 60.524 1149.52 552.558
2650 0 76.1293 17.6279 1342 61.5306 1149.27 552.225
2651 0 77.1026 16.9644 1308 62.8884 1149.1 551.86
2652 0 80.3125 16.3735 1315 63.8973 1149.14 550.564
2653 0 82.4079 17.4012 1434 63.3717 1149.46 549.411
2654 0 83.138 16.7673 1394 64.5717 1149.03 548.53
2655 0 86.1612 17.444 1503 64.1158 1148.75 547.87
2656 0 89.3504 17.3027 1546 64.2503 1148.8 546.959
2657 0 90.262 17.1944 1552 65.1604 1148.71 545.662
2658 1 37.3358 14.3294 535 69.0112 1148.49 569.794
2659 0 36.2108 13.2005 478 70.5628 1148.22 571.042
2660 0 39.145 14.8933 583 68.8971 1148.14 569.449
2661 0 38.2262 14.6758 561 69.8752 1148.31 570.472
2662 0 37.3408 15.4791 578 71 1148.33 568.17
2663 0 38.128 15.1595 578 71.8668 1148.21 569.574
2664 0 41.1577 15.5256 639 71.3756 1148.12 568.552
2665 0 41.2868 15.4771 639 72.3052 1148.16 569.147
2666 0 40.0594 15.3772 616 74.9237 1148.38 569.112
2667 0 40.0828 16.0668 644 75.8043 1148.07 568.772
2668 0 40.1666 14.7635 593 78.2209 1148.59 569.405
2669 0 39.0878 15.4012 602 79.8837 1147.88 569.123
2670 0 42.0484 16.1005 677 77.9527 1148.12 568.783
2671 0 39.054 13.4941 527 59.9583 1147.91 570.497
2672 0 37.0248 11.0467 409 57.0196 1147.85 570.645
2673 0 39.0948 13.9149 544 52.1654 1147.78 569.45
2674 0 38.0984 10.8666 414 51.3213 1147.71 572.181
2675 1 83.1765 9.029 751 62.5739 1147.63 549.391
2676 0 84.2084 10.0465 846 62.4173 1147.73 544.645
2677 1 51.0278 14.6195 746 65.2962 1147.92 527.024
2678 0 54.0527 14.4489 781 64.8438 1147.8 527.211
2679 0 55.0599 14.8202 816 65.6458 1147.58 524.548
2680 0 56.026 15.4214 864 65.3333 1147.69 526.617
2681 0 59.1498 17.3289 1025 63.518 1147.3 525.735
2682 0 62.1106 16.7604 1041 63.3958 1147.48 528.125
2683 0 62.0092 15.7235 975 65.4687 1147.32 529.97
2684 0 64.1067 15.8018 1013 66.1096 1147.18 530.878
2685 0 67.032 15.7089 1053 66.4378 1147.12 531.602
2686 0 67.0611 15.046 1009 68.6997 1146.87 532.358
2687 0 70.0469 16.3462 1145 67.3729 1146.9 533.707
2688 0 71.0822 16.4176 1167 67.928 1146.89 534.793
2689 0 75.0985 15.5662 1169 68.7673 1146.67 536.956
2690 0 76.1634 16.3858 1248 68.4215 1146.36 537.036
2691 0 78.094 16.1472 1261 69.1253 1146.63 536.984
2692 0 81.0526 15.5331 1259 69.6878 1146.05 540.166
2693 0 84.0831 16.6383 1399 68.5268 1145.99 541.284
2694 0 86.0766 15.8115 1361 70.2586 1146.03 541.898
2695 0 90.1164 16.7783 1512 68.4735 1146.13 541.704
2696 1 43.0174 11.8557 510 71.5451 1146.18 567.725
2697 0 46.0292 12.4921 575 71.6817 1145.92 564.882
2698 0 46.0525 14.1143 650 70.2169 1145.61 563.468
2699 0 48.093 13.9521 671 68.7034 1145.8 564.817
2700 0 52.0412 13.2972 692 69.2558 1146 563.191
2701 0 50.0916 13.9944 701 69.2639 1145.74 562.581
2702 0 52.0429 13.3159 693 69.7143 1145.47 561.247
2703 0 56.1027 14.2774 801 67.5406 1145.8 561.501
2704 0 56.0391 13.9546 782 68.9348 1145.92 560.384
2705 0 60.098 14.2101 854 67.8033 1145.6 559.772
2706 0 60.0401 15.3397 921 66.8154 1145.98 559.066
2707 0 63.0442 14.4026 908 67.326 1145.83 558.029
2708 0 63.0456 13.4189 846 69.1395 1146.14 557.723
2709 0 67.1003 14.5156 974 66.9979 1146.26 555.685
2710 0 70.038 14.4493 1012 66.5771 1146.14 554.275
2711 0 73.0771 14.2863 1044 66.3142 1145.98 554.292
2712 0 76.0884 14.7066 1119 65.403 1145.63 552.803
2713 0 78.1963 14.5275 1136 65.544 1145.74 550.237
2714 1 41.0266 12.2603 503 66.7197 1145.8 569.445
2715 0 42.1094 12.2538 516 66.9671 1145.62 568.231
2716 0 44.1084 13.2401 584 63.2688 1146.11 567.479
2717 0 45.139 13.2258 597 63.6415 1146.03 566.67
2718 0 47.0514 13.1983 621 63.2383 1146.13 566.28
2719 0 48.0914 13.7863 663 62.9125 1145.7 564.321
2720 0 51.1577 15.2861 782 60.1407 1145.93 563.219
2721 0 52.1052 13.5111 704 62.3139 1145.64 561.926
2722 0 54.0339 14.1763 766 61.1697 1145.97 562.8
2723 0 56.0772 13.7667 772 61.7085 1145.89 561.9
2724 0 56.0714 14.4102 808 60.9233 1145.94 560.483
2725 0 59.0441 13.9387 823 60.8894 1146.23 559.809
2726 0 60.0963 14.1606 851 61.3537 1146.14 558.482
2727 0 60.0963 14.1939 853 158.73 1145.12 558.395
2728 0 64.0487 14.8949 954 60.9969 1146.2 553.442
2729 0 66.0705 13.9396 921 61.696 1146.43 555.182
2730 0 68.1842 13.1409 896 62.4319 1146.06 554.189
2731 0 71.1823 14.217 1012 60.9713 1146.68 552.886
