time division length width area intensity CMx CMy
0 0 54.199 13.4689 730 76.5767 1212.81 574.503
1 0 53.168 13.1094 697 79.7819 1212.52 571.831
2 0 57.1143 12.8514 734 78.3283 1212.49 572.144
3 0 61.2488 13.3227 816 75.7819 1212.6 572.347
4 0 61.1254 13.5459 828 76.6957 1212.42 569.64
5 0 63.2203 13.366 845 75.9148 1212.06 570.302
6 0 65.4853 13.4992 884 75.8043 1211.88 567.667
7 0 67.4847 13.3215 899 75.5617 1211.97 567.981
8 0 70.246 14.193 997 74.9659 1212.39 564.933
9 0 71.1849 13.9074 990 76.3152 1212.27 564.602
10 0 74.1754 13.9534 1035 76.5498 1212.28 563.382
11 0 77.2456 14.0073 1082 76.1497 1212.46 561.438
12 0 80.2908 13.2892 1067 77.1059 1212.68 561.014
13 0 80.2924 13.2267 1062 78.2533 1212.35 557.927
14 0 86.2563 12.9614 1118 77.9383 1212.46 556.977
15 0 89.235 13.6718 1220 75.9828 1212.88 555.468
16 1 45.3004 10.9491 496 78.5948 1212.56 576.865
17 0 47.1992 11.8222 558 76.8244 1212.77 576.4
18 0 50.1085 11.4152 572 77.8182 1212.62 574.872
19 0 51.2522 11.6678 598 78.3445 1212.51 575.911
20 0 51.1527 12.3161 630 78.173 1213.16 573.729
21 0 55.1042 12.2495 675 77.1452 1213.15 573
22 0 58.1878 12.7346 741 75.1781 1213.37 572.197
23 0 60.0776 13.1164 788 74.6104 1213.76 571.228
24 0 59.1302 13.1405 777 75.4453 1213.68 570.564
25 0 62.1832 12.7687 794 75.2972 1213.46 570.504
26 0 65.2856 12.8819 841 74.4851 1213.2 569.002
27 0 68.2227 13.9836 954 94.5744 1213.13 565.363
28 0 69.1965 13.0787 905 73.7536 1212.93 564.894
29 0 71.0717 13.1417 934 73.6135 1213.3 563.221
30 0 74.1135 13.6682 1013 72.4847 1213.58 563.37
31 0 76.1686 13.05 994 74.2515 1213.31 562.317
32 0 80.3051 12.8012 1028 74.1644 1213.61 562.02
33 0 80.3766 12.628 1015 75.4049 1213.56 560.358
34 0 84.335 13.4108 1131 73.7109 1213.67 557.208
35 0 87.3305 13.3859 1169 74.083 1214.27 557.077
36 0 90.3108 12.911 1166 74.6595 1214.62 556.666
37 0 95.2608 13.5208 1288 73.2034 1214.28 553.741
38 0 98.3126 13.7724 1354 73.1374 1214.14 552.202
39 1 54.1679 11.1874 606 75.7739 1214.67 574.149
40 0 53.1817 11.0376 587 75.8688 1215.16 574.494
41 0 55.1744 12.8864 711 73.4318 1214.62 573.98
42 0 57.1515 12.8781 736 74.0245 1214.92 571.183
43 0 58.1886 13.714 798 72.3559 1214.86 570.817
44 0 60.2245 12.9183 778 73.581 1214.96 570.566
45 0 63.227 13.3962 847 72.0885 1215.61 569.151
46 0 63.2378 13.2041 835 73.079 1215.65 567.903
47 0 66.2236 12.941 857 72.7935 1215.72 566.956
48 0 68.1829 12.9945 886 73.4526 1215.25 565.038
49 0 72.2523 13.3698 966 72.0445 1215.28 564.88
50 0 74.1617 14.2392 1056 70.428 1215.08 563.728
51 0 77.2132 13.78 1064 71.1945 1215.82 561.943
52 0 77.2584 12.6847 980 73.9102 1215.33 560.365
53 0 81.2276 13.493 1096 72.2299 1215.05 559.222
54 0 85.172 14.0774 1199 63.9183 1214.56 556.827
55 0 86.1465 12.7225 1096 67.0328 1215.21 557.702
56 0 91.1268 13.6294 1242 65.8736 1215.73 555.973
57 1 49.0761 11.4924 564 64.4592 1216.48 576.713
58 0 51.0303 10.3272 527 65.7628 1216.25 575.438
59 0 50.0847 11.0213 552 64.7047 1216.56 576.576
60 0 53.027 11.3338 601 65.4326 1216.94 573.534
61 0 53.0988 11.6764 620 66.5452 1216.96 572.823
62 0 56.1199 12.2416 687 65.4148 1216.7 570.459
63 0 58.1285 12.0939 703 65.9943 1215.92 569.92
64 0 60.1134 12.2103 734 65.3093 1216.46 568.911
65 0 62.0644 11.6008 720 66.5292 1216.39 567.761
66 0 64.0909 12.4199 796 65.1482 1216.14 566.759
67 0 66.1012 12.2993 813 65.4613 1216.74 566.551
68 0 67.204 12.5588 844 65.4858 1217.34 565.481
69 0 67.1655 11.896 799 66.776 1217.91 565.305
70 0 72.1579 13.1933 952 63.9622 1217.4 563.52
71 0 71.1167 12.0506 857 65.8973 1217.53 562.398
72 0 74.1884 12.2256 907 65.5965 1217.82 559.452
73 0 78.2054 12.7485 997 64.339 1217.89 559.645
74 0 82.1638 12.7672 1049 63.9276 1217.67 556.279
75 0 83.0942 11.4569 952 65.9769 1218 554.774
76 0 87.1448 12.4161 1082 64.3678 1217.59 552.777
77 0 90.1206 13.3488 1203 62.798 1218.43 551.466
78 1 48.0499 10.4475 502 61.4582 1218.46 575.042
79 0 49.0494 10.3569 508 62.4449 1218.98 572.396
80 0 52.1309 10.6271 554 61.0866 1219.04 572.984
81 0 52.1487 10.3167 538 61.9331 1218.96 570.513
82 0 54.1664 11.6677 632 60.5047 1218.51 569.628
83 0 56.286 11.0152 620 61.1597 1218.83 566.902
84 0 56.1144 10.7281 602 62.2193 1219.08 567.932
85 0 59.1222 12.009 710 60.1296 1219.65 566.237
86 0 61.1672 12.5721 769 59.329 1219.41 565.207
87 0 61.3275 12.3599 758 59.7137 1219.82 564.005
88 0 62.2663 11.2742 702 61.1966 1220.1 563.516
89 0 64.1677 10.9401 702 61.7236 1220.05 561.719
90 0 68.2144 11.9769 817 59.8213 1221.03 559.313
91 0 70.3061 12.3033 865 60.0763 1221.76 557.951
92 0 70.2979 11.2663 792 61.3548 1221.36 557.779
93 0 72.1859 12.7864 923 59.0758 1221.65 556.148
94 0 76.2435 12.9978 991 58.8698 1221.32 554.528
95 0 76.2545 12.2878 937 60.5358 1221.32 553.185
96 0 80.3855 12.3405 992 59.7198 1221.63 551.925
97 0 83.3406 12.4309 1036 59.3243 1221.29 549.877
98 1 43.2073 10.3223 446 58.8946 1221 569.453
99 0 43.1139 9.55609 412 59.915 1220.38 568.966
100 0 47.1077 11.5692 545 57.8404 1220.41 567.615
101 0 49.1353 11.6006 570 58.2947 1220.95 567.112
102 0 50.0889 11.3199 567 59.4286 1221.04 566.06
103 0 51.23 12.1218 621 59.8132 1220.44 564.366
104 0 53.1272 12.1219 644 59.8276 1220.32 564.354
105 0 56.1256 12.2582 688 59.9317 1220.84 563.001
106 0 57.4373 11.4734 659 61.2701 1220.75 562.58
107 0 59.1163 11.1644 660 61.8348 1220.97 561.368
108 0 60.1458 12.3034 740 60.4378 1221.42 561.531
109 0 62.1406 12.5683 781 60.1997 1221.44 560.656
110 0 63.1518 12.272 775 61.2052 1221.07 558.822
111 0 66.209 12.7475 844 60.5652 1220.47 559.132
112 0 67.2428 12.8192 862 61.2459 1220.02 556.667
113 0 69.1836 12.7487 882 60.8968 1220.32 557.149
114 0 71.1757 13.0522 929 60.6771 1220 555.912
115 0 72.3511 12.7849 925 61.0205 1220.12 554.786
116 0 75.2864 12.127 913 61.4031 1220.09 554.366
117 0 79.3657 12.2219 970 61.4021 1219.93 552.211
118 0 81.2032 12.7704 1037 61.6104 1220 550.268
119 0 83.4237 12.9939 1084 61.6531 1219.69 550.439
120 1 44.1429 9.99027 441 62.9048 1220.39 570.463
121 0 44.2488 11.0964 491 62.3646 1220.28 568.882
122 0 47.253 10.9834 519 62.1599 1220.24 569.925
123 0 47.1575 11.4722 541 62.7098 1219.61 567.344
124 0 49.2035 11.4423 563 63.3819 1219.68 567.314
125 0 50.1715 13.0752 656 61.2149 1219.87 565.665
126 0 49.1882 11.9134 586 64.0683 1218.79 565.667
127 0 49.1882 11.9134 586 152.049 1218.79 565.681
128 0 55.1844 12.2136 674 62.6291 1218.59 564.709
129 0 55.1283 12.3349 680 63.2985 1218.45 563.41
130 0 57.1533 11.3729 650 64.16 1217.89 562.928
131 0 57.1857 11.8036 675 64.043 1218.33 563.164
132 0 59.1383 12.4623 737 63.3243 1218.42 562.592
133 0 60.1319 12.8551 773 62.9405 1217.53 560.626
134 0 62.1761 13.1883 820 62.1951 1218.36 559.949
135 0 66.1704 12.0749 799 62.9574 1218.22 559.531
136 0 67.1968 13.0066 874 62.2677 1218.42 557.477
137 0 71.1278 13.3844 952 61.4706 1218.27 559.608
138 0 71.2341 13.1959 940 62.5872 1218.41 556.473
139 0 73.1961 12.2138 894 63.1555 1218.63 556.609
140 0 76.3156 12.1338 926 63.6555 1218.1 555.424
141 0 74.3173 11.5182 856 151.325 1217.03 554.569
142 0 82.229 12.8179 1054 62.4507 1218.47 552.358
143 0 83.2446 12.4452 1036 63.39 1218.26 551.452
144 0 86.3312 12.9617 1119 62.7453 1218.13 548.864
145 0 89.2518 12.616 1126 62.9689 1218.07 548.867
146 0 91.3838 12.3326 1127 63.4445 1218 546.833
147 0 95.1309 13.9913 1331 61.0496 1217.65 545.886
148 0 99.3549 12.4201 1234 62.2836 1217.35 546.181
149 0 100.337 12.8069 1285 62.4366 1217.09 542.91
150 0 103.245 13.2694 1370 62.235 1217.17 541.939
151 0 108.269 12.8292 1389 62.5536 1216.9 539.453
152 0 110.367 12.096 1335 63.7888 1216.35 534.309
153 1 55.2755 10.3301 571 61.711 1216.91 565.755
154 0 58.3514 10.6596 622 61.9277 1216.4 563.757
155 0 61.2171 11.5817 709 60.8928 1216.5 562.946
156 0 63.2227 11.8628 750 60.5893 1216.83 561.443
157 0 63.0626 11.5599 729 61.5748 1217.39 561.68
158 0 66.2371 11.7759 780 60.5385 1217.01 561.19
159 0 66.1674 12.3324 816 60.5086 1217.44 559.513
160 0 70.2063 11.6656 819 61.3028 1217.06 559.117
161 0 70.1651 11.8578 832 61.5216 1217.19 557.097
162 0 75.1732 12.5045 940 60.3447 1216.85 554.631
163 0 76.1681 12.2755 935 60.8599 1216.9 553.299
164 0 80.2129 12.2549 983 60.5554 1216.56 553.047
165 0 81.2095 11.6366 945 61.9111 1216.99 551.273
166 0 84.2513 12.4271 1047 61.1051 1216.94 550.307
167 0 87.217 12.7957 1116 60.9561 1216.69 548.431
168 0 90.2733 12.3071 1111 61.9568 1216.59 547.088
169 1 46.1511 9.92392 458 62.9301 1216.94 569.341
170 0 48.0954 10.8326 521 61.7869 1216.81 568.758
171 0 51.0653 11.6322 594 61.3603 1217 565.793
172 0 53.2691 10.9069 581 62.5301 1217.51 566.396
173 0 52.0897 12.2481 638 61.9342 1217.73 564.591
174 0 55.1387 12.4232 685 62.7547 1218.41 563.933
175 0 55.1146 12.5557 692 63.2529 1218.73 562.412
176 0 58.0611 12.4524 723 63.6625 1218.67 560.32
177 0 59.1585 12.6609 749 62.8785 1218.87 560.941
178 0 61.2315 13.3265 816 62.288 1219.26 559.737
179 0 63.3124 13.2991 842 62.3029 1219.47 560.046
180 0 64.2637 13.2579 852 63.5657 1219.57 559.147
181 0 67.1908 13.2756 892 64.0706 1219.61 557.522
182 0 70.2088 14.3572 1008 62.2282 1220.07 555.819
183 0 71.1663 12.8572 915 65.1596 1219.95 553.396
184 0 72.1437 12.8771 929 65.6868 1220.08 554.173
185 0 76.1376 13.6069 1036 64.5087 1220.12 553.021
186 0 79.1796 13.0463 1033 65.3853 1220.65 550.817
187 0 78.2739 14.0021 1096 64.6989 1220.35 550.885
188 0 83.2227 13.0013 1082 65.5832 1220.66 548.279
189 0 86.2194 13.2453 1142 65.3485 1220.31 546.794
190 0 92.2378 14.7228 1358 62.3012 1221.2 545.534
191 0 92.4018 12.3699 1143 66.4112 1221.16 545.051
192 0 96.2506 14.161 1363 63.0455 1221.4 542.867
193 0 96.2506 14.2025 1367 163.4 1221.4 542.876
194 1 53.2703 11.1882 596 64.1879 1221.5 563.168
195 0 53.278 12.3503 658 62.0061 1222.03 563.734
196 0 55.2652 12.7929 707 61.3975 1222.2 560.799
197 0 58.58 12.1885 714 62.9328 1222.4 559.81
198 0 58.4613 12.7435 745 64.5785 1222.56 559.85
199 0 63.2797 13.1638 833 63.9028 1222.72 559.255
200 0 63.1213 13.0067 821 66.4227 1222.86 555.903
201 0 66.4139 12.6329 839 67.18 1222.91 554.309
202 0 68.3655 13.9983 957 65.7231 1223.04 553.228
203 0 70.3055 13.2707 933 67.3108 1222.51 552.094
204 0 71.4425 13.4794 963 67.5628 1222.56 553.599
205 0 73.3766 13.0559 958 68.3319 1222.66 551.35
206 0 78.4108 13.6333 1069 67.2741 1223.06 549.529
207 0 80.4342 13.5887 1093 67.7173 1222.8 550.012
208 0 82.5445 13.7502 1135 68.2687 1222.9 548
209 0 83.2112 13.2674 1104 69.5 1222.89 547.401
210 0 89.2828 14.4037 1286 67.1742 1222.97 544.487
211 0 90.2779 13.6024 1228 68.829 1222.44 542.963
212 0 93.3117 13.5353 1263 68.9747 1222.42 542.044
213 1 49.1479 11.9028 585 69.5795 1222.79 564.726
214 0 50.2309 13.0398 655 68.4916 1222.74 563.808
215 0 52.2454 13.1112 685 68.8832 1222.86 562.496
216 0 52.2435 12.1546 635 70.1811 1223.03 562.649
217 0 54.4542 12.4692 679 69.7467 1222.48 561.015
218 0 54.3358 12.2571 666 70.1592 1222.35 560.535
219 0 58.5161 13.398 784 67.3253 1222.4 559.314
220 0 60.2305 13.1329 791 68.1315 1222.2 559.796
221 0 63.3 13.4597 852 66.9272 1221.86 559.33
222 0 63.3 13.4123 849 166.126 1221.85 559.309
223 0 65.2587 13.4082 875 67.1783 1221.8 556.479
224 0 67.1991 12.7531 857 67.8273 1221.68 557.244
225 0 70.2006 12.7634 896 67.4565 1221.18 555.719
226 0 71.1536 13.0844 931 67.3179 1220.89 552.15
227 0 73.2162 12.866 942 66.6104 1220.53 552.569
228 0 75.1223 13.1519 988 66.6468 1220.83 552.128
229 0 79.3233 13.1739 1045 65.755 1220.25 549.289
230 0 83.2416 13.0584 1087 65.2226 1220.58 548.6
231 0 85.1998 12.4296 1059 66.118 1220.61 546.452
232 0 89.1044 13.2092 1177 65.1504 1220.29 545.219
233 1 48.1382 10.0128 482 65.2697 1220.9 566.699
234 0 50.1413 11.2283 563 64.5151 1220.63 563.918
235 0 53.0784 11.3605 603 63.7927 1219.95 563.847
236 0 53.1582 10.7792 573 65.7138 1219.57 562.33
237 0 54.0681 11.8184 639 64.3991 1219.02 561.064
238 0 56.2041 12.508 703 63.0213 1218.99 561.248
239 0 58.1166 12.6814 737 62.5373 1219.38 559.615
240 0 61.0848 12.2944 751 62.7071 1219.55 559.591
241 0 63.1899 12.0431 761 62.9514 1219.57 558.706
242 0 64.1862 11.2797 724 63.7887 1219.54 558.576
243 0 67.0694 12.1963 818 62.3839 1219.53 557.322
244 0 70.1661 12.5987 884 61.2251 1219.19 555.239
245 0 74.1205 12.3043 912 61.3991 1219.59 555.083
246 0 74.3174 12.2851 913 61.6846 1219.22 553.56
247 0 76.2016 11.2334 856 62.5946 1219.12 551.276
248 0 76.2016 11.194 853 162.134 1219.12 551.245
249 0 85.1292 13.0625 1112 59.5045 1219.68 549.613
250 0 87.1652 12.7115 1108 59.8384 1220.08 547.719
251 0 91.0817 12.1539 1107 60.0036 1220.05 547.017
252 1 50.0592 9.60862 481 59.7713 1220.58 565.817
253 0 53.0397 9.72857 516 58.3198 1221.08 568.634
254 0 55.0493 11.2081 617 56.3371 1220.38 566.621
255 0 57.1231 10.6787 610 57.2656 1220.43 564.521
256 0 56.1211 11.0475 620 57.979 1221.12 563.81
257 0 58.0769 11.4676 666 57.6922 1220.5 563.18
258 0 61.1988 11.9447 731 56.7551 1220.39 562.502
259 0 61.1467 11.3825 696 57.4397 1220.44 563.282
260 0 64.2641 11.5928 745 57.3463 1219.69 560.608
261 0 67.1229 11.978 804 56.959 1219.77 559.32
262 0 70.1681 12.5983 884 56.3314 1219.53 557.437
263 0 69.166 11.1182 769 58.6996 1219.97 558.27
264 0 72.3712 11.0956 803 58.868 1219.49 556.991
265 0 76.1489 12.4493 948 57.1013 1219 556.105
266 0 77.2469 12.3759 956 58.2793 1219.39 554.76
267 0 81.3156 12.0272 978 58.7454 1219.73 554.049
268 0 82.1075 11.8016 969 59.452 1220.01 552.023
269 0 83.2237 11.2468 936 60.9081 1220.04 550.253
270 0 88.2206 12.6161 1113 59.3226 1220.2 548.241
271 0 91.1982 12.0287 1097 59.6855 1220.02 547.186
272 0 93.0945 11.4722 1068 60.7163 1220.44 546.836
273 0 97.1504 11.8167 1148 60.2509 1220.53 544.193
274 1 53.0325 10.3144 547 59.362 1221.01 566.236
275 0 54.0845 9.5961 519 60.3969 1221.29 566.84
276 0 57.0473 10.5001 599 59.1987 1221.64 564.586
277 0 57.0234 10.1713 580 60.9741 1221.77 564.176
278 0 59.0408 11.4666 677 59.6928 1221.68 561.035
279 0 62.0433 11.7176 727 59.4952 1221.64 560.483
280 0 62.1451 11.1996 696 60.5704 1220.62 559.756
281 0 62.1225 10.7208 666 61.455 1220.54 559.264
282 0 65.2146 12.0372 785 59.8471 1220.66 557.952
283 0 68.0819 12.0443 820 59.6902 1221.01 557.535
284 0 70.1499 12.5161 878 58.9704 1221.02 556.948
285 0 71.2956 12.1747 868 60.1118 1221.02 553.977
286 0 74.2064 12.3978 920 60.088 1221.39 554.15
287 0 76.141 12.9365 985 59.602 1221.27 552.984
288 0 77.2878 12.5634 971 60.3666 1221.42 551.172
289 0 80.2777 12.3446 991 60.6438 1221.96 550.208
290 0 83.2263 12.2798 1022 60.4247 1222.15 546.487
291 0 85.2111 12.78 1089 60.5776 1222.41 545.242
292 0 86.2659 12.9367 1116 60.4812 1222.74 545.016
293 0 91.2338 12.5721 1147 60.6312 1223.27 542.87
294 0 93.3175 12.2485 1143 61.1207 1223.69 541.239
295 1 48.1708 9.40405 453 60.7792 1224.55 564.925
296 0 51.0834 9.14191 467 60.4411 1224.55 564.216
297 0 52.1096 9.63355 502 60.2131 1224.78 563.51
298 0 54.0954 10.2042 552 60.0634 1225.38 562.27
299 0 54.066 10.7091 579 60.3679 1225 561.316
300 0 58.0291 11.5115 668 58.7695 1225.42 560.507
301 0 59.2441 10.9716 650 58.7785 1224.33 559.337
302 0 57.0816 11.5098 657 59.1583 1224.7 559.636
303 0 58.133 12.0414 700 58.8557 1224.54 559.169
304 0 63.0952 12.5525 792 57.6503 1224.62 556.995
305 0 63.0626 11.9405 753 58.5538 1224.93 557.194
306 0 66.096 11.8918 786 58.1387 1224.94 555.952
307 0 68.1003 11.9383 813 57.9975 1224.66 554.895
308 0 70.0831 12.4281 871 57.1332 1224.56 554.972
309 0 71.1277 11.7535 836 58.6998 1224.69 551.528
310 0 70.2108 11.1949 786 59.8486 1225.06 551.373
311 0 75.1579 11.9615 899 58.6029 1223.73 550.69
312 0 76.4467 13.0418 997 57.8084 1223.31 549.809
313 0 79.1445 12.9131 1022 57.9687 1223.76 545.892
314 0 79.1842 12.111 959 59.6027 1223.78 545.581
315 0 83.3784 12.2574 1022 59.3767 1223.46 543.871
316 0 86.1764 12.8922 1111 58.2016 1223.84 543.097
317 0 88.2732 13.2883 1173 58.9795 1223.65 540.711
318 0 91.3321 13.1827 1204 59.0473 1223.47 540.355
319 0 92.3972 13.1065 1211 59.6755 1223.39 539.089
320 0 97.3822 12.9901 1265 59.6356 1224.15 537.164
321 0 100.415 13.3047 1336 59.6377 1223.16 535.534
322 0 103.285 14.0389 1450 58.9972 1223.51 535.187
323 1 54.195 10.3146 559 61.1109 1223.62 560.884
324 0 55.2576 10.9849 607 60.0099 1223.71 559.418
325 0 55.2576 10.9668 606 161.838 1223.7 559.442
326 0 59.1485 10.7864 638 60.0251 1223.66 559.028
327 0 60.2238 10.5108 633 60.3555 1223.05 557.594
328 0 64.1593 11.8611 761 58.5966 1222.66 556.641
329 0 64.1207 11.494 737 59.536 1222.03 554.809
330 0 69.1162 12.8045 885 57.5638 1221.92 553.94
331 0 69.1009 12.0404 832 59.1046 1222.03 551.51
332 0 71.1 11.9972 853 59.3986 1221.86 551.982
333 0 74.2031 12.924 959 58.3316 1221.62 550.903
334 0 77.1762 12.8926 995 58.2372 1222.05 549.976
335 0 78.132 12.6197 986 59.3479 1222.07 548.21
336 0 81.2771 12.6481 1028 59.1216 1221.79 546.89
337 0 84.3451 13.6463 1151 57.4987 1221.77 546.471
338 0 87.2574 12.2282 1067 59.641 1222.04 543.666
339 1 47.1459 9.8842 466 59.515 1222.27 566.341
340 0 47.1107 10.4859 494 59.8462 1221.95 563.571
341 0 49.1371 11.7223 576 58.1701 1221.83 562.451
342 0 51.1412 11.654 596 57.3742 1221.43 562.262
343 0 53.2876 11.8414 631 58.2298 1221.34 562.845
344 0 53.2876 11.8414 631 153.426 1220.34 562.845
345 0 55.1626 11.8015 651 59.47 1221.52 560.224
346 0 55.1626 11.7108 646 159.215 1223.53 560.266
347 0 59.1603 12.5422 742 58.5391 1221.07 559.489
348 0 61.1727 12.8162 784 58.0217 1220.72 558.389
349 0 62.1221 12.7652 793 58.7188 1220.75 558.781
350 0 64.1597 12.3598 793 59.2926 1220.78 557.484
351 0 65.1632 12.9214 842 59.4394 1220.53 556.132
352 0 69.1172 12.3414 853 59.5826 1220.89 556.961
353 0 70.0965 12.7824 896 59.817 1220.86 554.836
354 0 73.0783 13.3555 976 58.8791 1221.23 554.419
355 0 73.1506 12.317 901 61.5683 1221.06 552.248
356 0 77.135 12.6402 975 60.8154 1221.1 552.883
357 0 79.1811 12.5156 991 61.558 1221.21 549.92
358 0 83.1456 12.5683 1045 61.1789 1221.63 550.998
359 0 85.0971 13.1967 1123 60.5093 1221.14 547.069
360 0 88.13 12.8447 1132 61.4602 1221.15 545.249
361 1 49.229 10.055 495 61.5697 1221.2 566.042
362 0 50.1533 11.1259 558 60.4803 1221.21 566.577
363 0 51.162 11.6493 596 60.0101 1220.94 564.965
364 0 51.1771 11.509 589 61.1222 1220.97 563.032
365 0 54.0811 11.8895 643 60.7574 1220.75 564.226
366 0 54.0655 11.9485 646 61.5077 1221.08 562.198
367 0 57.1001 12.049 688 60.5756 1221.21 561.797
368 0 57.1001 12.084 690 161.312 1222.21 561.841
369 0 58.2051 11.7515 684 62.1038 1222.51 559.599
370 0 63.05 12.609 795 59.9686 1222.1 558.415
371 0 61.2244 13.083 801 60.8127 1222.61 557.94
372 0 65.3824 12.098 791 61.4627 1222.07 557.282
373 0 67.222 13.3141 895 59.7933 1222.46 555.238
374 0 66.2185 12.6098 835 61.5066 1222.47 553.48
375 0 69.2634 12.2142 846 61.435 1222 553.363
376 0 73.283 12.7451 934 59.348 1222.31 552.17
377 0 74.3779 12.6113 938 60.1247 1222.58 550.711
378 0 75.3692 12.7373 960 60.1229 1222.77 549.683
379 0 77.2627 12.4381 961 61.0416 1222.93 547.757
380 0 80.2652 12.6207 1013 60.9348 1222.61 545.914
381 0 85.4644 13.2336 1131 59.6596 1223.12 545.612
382 0 86.4518 13.3716 1156 60.0061 1223.45 544.048
383 0 88.4591 12.6725 1121 61.3934 1223.64 541.007
384 0 91.6261 12.9876 1190 61.0538 1223.9 539.053
385 0 95.4713 13.7424 1312 59.8232 1224.08 539.182
386 1 51.2921 9.61162 493 62.6552 1224.69 560.635
387 0 52.3886 9.67769 507 63.4793 1224.82 559.611
388 0 55.2416 11.0967 613 61.0914 1225.04 560.091
389 0 58.1834 11.7559 684 60.6711 1225.27 558.664
390 0 58.2206 10.9068 635 61.7685 1225.19 558.208
391 0 59.2444 11.5116 682 62.5396 1225.26 555.456
392 0 62.1411 12.7774 794 60.1297 1225.26 556.509
393 0 64.1372 13.627 874 59.6487 1225.42 553.532
394 0 66.0661 13.0173 860 60.4547 1225.48 554.365
395 0 68.0658 13.0462 888 60.3637 1225.43 551.602
396 0 69.1156 13.2387 915 60.2984 1225.63 551.543
397 0 72.0656 13.2379 954 59.739 1225.74 551.557
398 0 75.1411 13.5212 1016 59.3396 1225.89 548.96
399 0 75.1303 13.0972 984 60.3811 1225.85 548.011
400 0 80.2709 13.28 1066 59.364 1225.94 545.778
401 0 80.1096 13.494 1081 59.5994 1225.94 546.673
402 0 83.2179 13.6629 1137 59.409 1226.08 545.358
403 0 86.1959 13.6665 1178 59.264 1225.82 543.542
404 0 88.3337 13.1094 1158 60.3394 1226.16 541.785
405 0 92.2567 13.0939 1208 60.0637 1226.28 539.941
406 1 51.2806 10.8423 556 60.5414 1226.56 562.2
407 0 51.0889 11.8225 604 60.2285 1226.32 560.727
408 0 55.0782 11.5109 634 60.4322 1226 560.054
409 0 54.0433 11.9164 644 60.0761 1226.36 559.092
410 0 57.0795 12.5789 718 58.9708 1226.65 557.401
411 0 59.1165 12.4162 734 59.1131 1226.14 558.016
412 0 60.1831 11.9967 722 59.4986 1226.11 557.143
413 0 62.0797 13.3377 828 58.1582 1225.62 554.585
414 0 63.0913 12.6483 798 59.2456 1225.47 554.664
415 0 65.0465 12.0068 781 59.9334 1225.9 553.649
416 0 68.1441 12.1654 829 59.4246 1225.69 550.737
417 0 71.1655 13.3211 948 57.5707 1225.14 551.673
418 0 71.1456 13.2405 942 58.1911 1224.93 550.027
419 0 73.2712 12.9382 948 58.4747 1224.32 549.474
420 0 76.1193 13.1898 1004 58.0179 1224.41 548.665
421 0 79.1107 13.2852 1051 57.5338 1224.31 548.786
422 0 81.2455 13.1453 1068 57.9672 1224.22 547.39
423 0 83.1067 12.7547 1060 58.7142 1224.14 547.842
424 0 86.0942 12.9509 1115 58.765 1224.25 542.942
425 0 89.2351 12.8873 1150 58.92 1223.03 542.733
426 0 89.2351 12.8649 1148 170.696 1222.02 542.743
427 0 95.1785 12.6184 1201 59.0991 1222.93 541.505
428 0 98.3093 14.4951 1425 57.1284 1222.73 539.044
429 0 100.089 13.9876 1400 58.0379 1222.15 538.461
430 1 50.1187 11.0737 555 59.3243 1222.2 563.486
431 0 53.1162 11.0701 588 59.8571 1221.81 561.983
432 0 53.1782 11.6965 622 59.2894 1222.4 560.341
433 0 54.0917 12.4788 675 58.5733 1222.35 560.107
434 0 56.0699 12.3774 694 58.5533 1222.14 561.903
435 0 60.0451 13.9728 839 56.5006 1222.29 558.392
436 0 60.0755 12.9504 778 58.347 1222.81 557.772
437 0 61.0834 13.1787 805 58.7739 1222.64 556.334
438 0 65.177 12.3356 804 60.0846 1222.49 557.301
439 0 66.1234 13.8529 916 58.2838 1222.6 556.261
440 0 69.1421 13.6675 945 58.6847 1222.54 554.768
441 0 71.2006 13.7639 980 58.9735 1222.58 553.06
442 0 73.279 14.0695 1031 58.8594 1222.23 552.555
443 0 74.1843 14.1809 1052 59.3375 1222.23 551.13
444 0 78.1905 13.8764 1085 59.6433 1222.94 551.364
445 0 79.2683 14.2175 1127 60.1056 1222.37 549.865
446 0 82.205 13.7583 1131 60.9098 1222.93 548.847
447 0 84.3731 13.6181 1149 61.5849 1222.82 548.205
448 0 87.14 14.207 1238 60.8069 1222.65 547.426
449 0 89.2468 14.2302 1270 61.2827 1222.48 546.434
450 0 93.1794 14.2735 1330 61.2203 1222.49 543.698
451 0 95.231 14.9636 1425 60.6098 1222.56 542.394
452 1 48.1413 11.3001 544 62.9669 1222.89 566.083
453 0 51.1494 11.4175 584 63.3784 1222.61 564.212
454 0 51.1491 11.359 581 63.4148 1222.7 566.301
455 0 54.0905 11.3698 615 63.4683 1222.43 564.764
456 0 57.0973 13.0829 747 61.7979 1222.29 562.177
457 0 58.1552 12.759 742 62.2237 1222.34 561.639
458 0 59.0661 12.7146 751 62.9601 1221.82 560.847
459 0 63.1366 13.352 843 61.7343 1221.4 558.79
460 0 64.0971 13.1987 846 62.5331 1222.04 557.954
461 0 66.1483 12.7895 846 62.6584 1221.75 557.56
462 0 66.1483 12.7592 844 172.124 1220.73 557.602
463 0 71.1269 13.0752 930 63.0785 1222.04 554.488
464 0 73.1913 12.9797 950 63.1274 1221.89 553.564
465 0 75.1047 12.862 966 63.6128 1221.84 553.855
466 0 78.0951 13.6884 1069 61.9841 1222.05 553.241
467 0 82.1413 13.7446 1129 61.6678 1222.07 551.663
468 0 84.1007 12.8061 1077 63.0799 1222.09 549.429
469 0 86.1532 13.209 1138 62.7258 1222.44 548.703
470 0 89.1377 13.5409 1207 62.2543 1222.44 547.332
471 0 91.1145 13.3568 1217 63.0288 1222.24 546.156
472 0 94.082 13.1375 1236 63.1828 1221.82 545.679
473 0 96.1304 12.223 1175 64.7379 1221.95 544.493
474 0 100.111 13.505 1352 63.6524 1222.15 541.345
475 0 103.277 13.1491 1358 64.0758 1222.02 541.443
476 0 107.086 13.5685 1453 63.5671 1222.47 538.583
477 0 109.089 13.3744 1459 64.294 1222.49 536.971
478 0 115.21 13.5839 1565 63.2454 1222.16 537.548
479 0 118.119 12.8261 1515 64.7406 1222.26 533.041
480 1 63.0662 10.9092 688 64.0814 1222.93 561.185
481 0 66.1326 11.356 751 63.8575 1222.76 559.59
482 0 68.1495 11.6802 796 64.6407 1222.54 559.149
483 0 72.0317 12.2446 882 64.4966 1222.96 555.502
484 0 75.1536 12.9335 972 63.5453 1221.69 556.853
485 0 75.159 12.5467 943 65.9374 1222.07 553.449
486 0 78.0961 13.2529 1035 64.8435 1222.33 552.549
487 0 80.1315 12.5419 1005 66.2229 1222.2 551.407
488 0 86.2328 13.162 1135 65.015 1222.46 550.7
489 0 87.0573 13.2556 1154 65.8544 1222.23 546.731
490 0 92.1258 13.0365 1201 66.0408 1222.79 545.709
491 0 96.2095 14.0942 1356 64.4757 1222.59 545.895
492 1 53.1238 11.3697 604 66.5166 1223.23 565.831
493 0 54.1284 10.5305 570 68.2965 1223.7 565.211
494 0 56.0443 12.1154 679 66.2091 1223.43 563.932
495 0 58.116 12.3202 716 65.6536 1223.73 562.811
496 0 59.0541 11.7519 694 67.2118 1223.2 560.72
497 0 62.0532 11.8769 737 66.4573 1222.65 559.798
498 0 62.0532 11.8769 737 172.35 1221.65 559.798
499 0 64.1779 13.3535 857 65.3466 1223 556.876
500 0 67.2838 12.5587 845 66.8343 1222.62 556.272
501 0 68.2202 12.7235 868 66.2166 1222.57 556.275
502 0 72.2124 12.9618 936 65.4904 1222.24 554.678
503 0 72.2059 13.143 949 65.9305 1222.62 553.383
504 0 74.3311 12.9959 966 66.6284 1222.51 553.047
505 0 77.2895 12.8995 997 66.8195 1222.39 552.47
506 0 80.177 13.0711 1048 66.2242 1222.63 549.942
507 0 84.3649 13.3468 1126 65.5657 1222.73 547.999
508 0 84.2455 13.4132 1130 66.0982 1222.28 547.666
509 1 45.1397 10.3014 465 66.6366 1222.79 567.271
510 0 45.1668 9.89666 447 68.0336 1222.49 566.96
511 0 47.2199 10.0805 476 68.8256 1222.46 566.252
512 0 50.1269 11.431 573 66.836 1222.04 564.3
513 0 51.1066 11.7793 602 66.1728 1222.17 564.96
514 0 51.0869 12.3319 630 66.2238 1222.44 562.683
515 0 52.2299 12.9236 675 65.9541 1222.35 561.237
516 0 55.1279 12.988 716 63.3394 1222.37 562.837
517 0 56.2218 12.6819 713 64.7377 1222.67 562.233
518 0 57.0614 13.1788 752 64.3125 1222.78 561.177
519 0 59.1994 12.8211 759 65.0988 1223.2 558.743
520 0 61.1961 12.7786 782 65.1777 1223.35 559.101
521 0 63.1157 13.911 878 63.6469 1223.21 558.092
522 0 64.1391 12.9095 828 66.1196 1223.09 556.116
523 0 65.1958 12.9763 846 66.0898 1223.04 557.362
524 0 68.0659 12.5467 854 66.5925 1222.94 556.636
525 0 69.1648 13.0991 906 67.1291 1222.81 555.315
526 0 73.2598 13.3361 977 66.0348 1222.92 554.665
527 0 73.231 12.9863 951 67.5121 1223.16 552.616
528 0 77.1405 13.7282 1059 67.0066 1223.43 551.376
529 0 78.1855 13.404 1048 67.7176 1222.92 550.031
530 0 80.1273 13.0667 1047 69.1652 1222.97 548.063
531 0 85.1934 13.2992 1133 67.8623 1222.96 546.623
532 0 87.3647 13.1403 1148 68.2936 1223.12 546.984
533 0 90.2637 13.66 1233 68.5523 1223.25 543.986
534 0 92.2776 13.0367 1203 69.6392 1223.68 542.095
535 1 47.2147 10.7382 507 69.2288 1223.55 565.11
536 0 50.1518 11.3256 568 68.4102 1223.19 564.227
537 0 50.142 10.9888 551 69.5826 1223.15 562.751
538 0 52.13 11.7015 610 67.941 1223.16 561.885
539 0 55.094 12.6329 696 66.4181 1222.92 559.816
540 0 57.0562 12.1109 691 66.6527 1223.18 559.533
541 0 57.0889 11.8762 678 68.0015 1223 559.653
542 0 59.1465 12.3761 732 67.1284 1223.09 556.223
543 0 61.078 11.4771 701 68.0642 1222.94 558.304
544 0 63.0685 11.8443 747 66.9371 1222.68 557.225
545 0 65.1714 11.7997 769 66.8101 1222.48 554.88
546 0 67.1394 12.3326 828 66.256 1222.4 553.502
547 0 70.1135 12.2373 858 65.5268 1222.04 553.226
548 0 72.1661 12.9424 934 64.2366 1222.15 551.815
549 0 75.1102 12.6215 948 64.7563 1221.97 550.561
550 0 76.267 12.3251 940 65.8489 1222.1 549.464
551 0 79.2033 12.651 1002 65.3174 1222.2 547.797
552 1 42.1657 9.58124 404 64.6931 1222.77 567.203
553 0 43.0664 10.24 441 63.9478 1223.04 567.082
554 0 44.0567 10.3503 456 64.6009 1222.96 565.482
555 0 47.0952 11.4237 538 62.9461 1222.37 565.418
556 0 46.1858 11.4537 529 63.4045 1222.06 565.176
557 0 48.1934 11.4331 551 63.4955 1222.06 564.207
558 0 50.1022 11.8159 592 63.2449 1221.71 562.899
559 0 52.2134 12.0659 630 61.973 1222.05 564.035
560 0 53.167 11.5109 612 63.9984 1222.02 562.438
561 0 53.1217 12.6878 674 62.6795 1221.35 561.504
562 0 53.2094 10.8815 579 65.8446 1221.67 561.337
563 0 56.1374 11.4006 640 65.3219 1221.85 560.364
564 0 59.1257 11.5178 681 65.1395 1221.48 558.28
565 0 61.1736 13.1429 804 62.6045 1221.5 557.461
566 0 61.1372 11.1062 679 65.6406 1220.81 558.944
567 0 64.1457 12.191 782 64.3875 1221.22 557.233
568 0 65.0988 11.1216 724 66.0456 1220.74 557.331
569 0 67.1452 12.3762 831 64.5523 1220.83 555.727
570 0 70.2549 12.355 868 64.5634 1220.92 554.332
571 1 35.1539 8.96059 315 64.9683 1221.58 571.375
572 0 35.1475 9.78734 344 64.3663 1221.56 571.009
573 0 37.1877 10.0571 374 64.3048 1222.08 570.588
574 0 39.1605 10.291 403 63.7667 1221.53 569.938
575 0 39.1534 10.8036 423 63.0378 1221.31 568.643
576 0 41.0264 10.9929 451 63.5565 1221.49 567.561
577 0 41.0561 10.4248 428 64.8528 1221.43 568.336
578 0 43.1394 11.6599 503 63.3002 1219.91 566.831
579 0 42.238 10.5592 446 64.7691 1220.02 567.814
580 0 43.0975 11.5784 499 63.8317 1219.71 567.285
581 0 46.1769 11.5859 535 62.9084 1219.41 565.467
582 0 46.1284 10.861 501 64.8204 1219.49 565.932
583 0 48.163 12.2916 592 62.5473 1219.15 564.823
584 0 51.2393 11.7683 603 63.4395 1219.6 563.562
585 0 52.1254 11.8368 617 64.107 1219.15 563.498
586 0 53.1136 11.6543 619 64.4426 1219.07 562.649
587 0 55.3786 12.1166 671 63.6185 1219.55 561.887
588 0 55.3786 12.0985 670 154.666 1220.54 561.869
589 0 58.1918 11.9261 694 65.1988 1219.13 559.513
590 0 60.2089 11.8587 714 65.2199 1219.48 561.675
591 0 61.1493 12.3305 754 65.2228 1218.99 559.83
592 0 64.2583 12.7921 822 65.2397 1219.26 558.408
593 0 66.1376 13.6231 901 64.2053 1218.99 557.766
594 0 66.1718 12.4676 825 67.1273 1218.84 557.605
595 0 72.1387 12.171 878 66.3075 1218.56 556.747
596 0 70.1229 12.4924 876 67.371 1218.87 555.947
597 0 74.2469 13.0915 972 66.5237 1218.87 552.664
598 0 74.0977 12.9559 960 67.4156 1218.66 554.293
599 0 78.1667 13.42 1049 66.7636 1219.1 551.864
600 0 81.1104 13.8207 1121 66.1392 1218.82 552.034
601 0 82.1129 13.1526 1080 67.8509 1218.5 549.899
602 0 85.1296 13.1212 1117 68.0269 1218.65 548.849
603 0 89.065 14.394 1282 65.5741 1218.79 547.718
604 0 91.0765 13.7906 1256 67.4976 1218.74 546.403
605 0 93.1281 13.2613 1235 68.3231 1219.19 545.522
606 0 97.3617 13.4755 1312 67.8018 1219.1 543.483
607 0 100.34 13.6635 1371 68.2443 1218.97 543.026
608 1 56.1472 10.615 596 70.396 1219.02 564.782
609 0 54.1276 11.1403 603 70.3814 1219.14 564.076
610 0 58.1509 12.0033 698 68.9413 1218.8 562.266
611 0 60.1717 11.9159 717 69.5523 1218.77 560.969
612 0 60.1717 11.9159 717 170.223 1218.79 560.961
613 0 65.2348 12.386 808 68.6757 1219.13 557.335
614 0 67.1691 12.476 838 68.9212 1219.28 556.464
615 0 70.183 12.2679 861 69.3531 1219.2 554.789
616 0 71.1929 12.122 863 69.6779 1219.26 554.246
617 0 74.1669 12.5932 934 68.1756 1219.34 554.317
618 0 75.1085 12.3954 931 69.0666 1219.1 551.087
619 0 79.1295 11.9551 946 69.1501 1219.24 550.276
620 1 41.0693 10.2266 420 67.3714 1219.44 568.826
621 0 42.0334 9.08802 382 68.3586 1219.82 569.471
622 0 43.1344 10.9425 472 67.4195 1219.95 566.553
623 0 45.1354 11.8754 536 66.6343 1220.43 567.181
624 0 46.1228 10.7322 495 69.3071 1219.85 565.869
625 0 48.0924 12.2057 587 66.7445 1220.17 566.206
626 0 46.0738 11.7637 542 68.7841 1219.96 565.782
627 0 50.0687 11.4842 575 67.793 1220.18 566.452
628 0 50.0412 11.8103 591 68.3655 1220.12 564.533
629 0 52.0944 11.6903 609 68.3744 1220.16 563.44
630 0 54.0636 12.1708 658 67.8587 1220.12 561.65
631 0 56.0817 12.6244 708 66.3164 1220.18 561.306
632 0 58.0803 12.4827 725 66.7917 1220.11 562.011
633 0 58.0778 12.1389 705 67.7277 1220.21 561.098
634 0 58.1867 11.7037 681 68.4038 1220.4 560.057
635 0 60.1741 12.0318 724 67.6782 1220.51 557.967
636 0 65.0912 12.9203 841 65.019 1220.69 555.546
637 0 66.1062 11.4966 760 67.3447 1220.77 555.343
638 0 67.1649 12.2981 826 66.5085 1220.94 553.62
639 0 70.1306 12.5338 879 65.7008 1220.65 551.371
640 0 73.0682 12.2215 893 65.8914 1220.75 550.394
641 0 76.2106 12.3999 945 65.5661 1221.02 549.656
642 0 76.1582 12.1458 925 66.6216 1221.01 547.548
643 0 80.1388 12.1414 973 65.8921 1221.38 548.853
644 0 82.2463 12.0978 995 66.002 1221.74 546.057
645 1 43.1944 10.9042 471 64.7113 1221.11 564.919
646 0 44.1631 9.80457 433 66.1547 1221.52 564.43
647 0 46.0353 10.9699 505 64.2475 1222.29 563.156
648 0 47.0919 11.1484 525 65.4552 1222.09 561.707
649 0 49.1913 11.3231 557 64.7145 1222.11 561.738
650 0 51.1306 12.4974 639 63.3865 1221.99 559.887
651 0 50.1516 11.8441 594 65.1886 1222.43 558.471
652 0 52.0806 11.6166 605 65.4496 1221.39 557.889
653 0 55.1169 11.6661 643 64.2504 1221.67 556.711
654 0 57.1374 11.5686 661 64.1346 1221.46 556.218
655 0 58.1094 11.5644 672 64.5417 1221.68 555.792
656 0 59.1076 12.1304 717 64.59 1221.97 554.269
657 0 63.0932 12.8223 809 63.0161 1221.98 553.868
658 0 64.1317 12.4587 799 63.3842 1222.32 552.695
659 0 67.1277 12.0964 812 63.6281 1222.08 550.382
660 0 69.1345 13.0615 903 61.9413 1222.55 550.89
661 0 71.1001 12.5879 895 62.8402 1222.35 547.02
662 0 74.1364 12.5444 930 62.2151 1222.76 547.955
663 0 80.1548 13.4365 1077 59.9499 1222.32 546.439
664 0 80.0817 12.6121 1010 61.5842 1223.06 545.271
665 1 40.0626 10.1092 405 63.1679 1222.5 562.701
666 0 40.0596 9.58572 384 64.2448 1222.7 562.388
667 0 43.0628 10.1944 439 63.1982 1222.68 562.597
668 0 46.0675 11.3312 522 61.7912 1222.76 560.414
669 0 48.0998 11.7048 563 60.8792 1222.89 560.867
670 0 50.1433 11.2079 562 60.9822 1223.67 560.505
671 0 50.073 12.0424 603 60.8607 1223.77 557.405
672 0 52.2323 11.1234 581 61.852 1223.67 557.067
673 0 54.0753 11.0032 595 62.1513 1223.92 555.845
674 0 55.0721 12.7288 701 60.2397 1224.14 554.061
675 0 56.1591 10.7017 601 63.2263 1224.17 552.91
676 0 59.0791 11.7131 692 61.8902 1224.47 553.003
677 0 61.0577 11.5956 708 61.5056 1224.34 554.109
678 0 63.1302 12.1337 766 61.4138 1224.43 551.322
679 0 65.1161 12.4086 808 60.0668 1224.69 552.712
680 0 66.2713 12.5544 832 60.8161 1224.42 550.554
681 0 67.1644 11.4495 769 63.0104 1224.31 549.754
682 0 69.1442 11.8593 820 62.4427 1224.23 548.727
683 0 73.1882 12.707 930 60.9624 1224.57 548.63
684 0 74.2025 12.4928 927 61.8544 1225.07 546.326
685 0 77.1112 12.3199 950 62.1274 1224.76 544.454
686 0 79.1286 11.8794 940 62.9128 1224.78 544.518
687 1 41.1228 9.9215 408 62.9877 1224.8 562.321
688 0 44.0178 10.5639 465 63.1634 1224.45 561.144
689 0 43.0509 10.2205 440 63.9727 1223.92 560.693
690 0 44.0452 11.6244 512 62.752 1223.61 560.764
691 0 47.0718 11.2382 529 62.5955 1223 559.238
692 0 49.1922 11.5669 569 63.2619 1224.19 561.274
693 0 49.092 11.9979 589 64.1596 1224.26 559.304
694 0 51.0628 11.8873 607 63.7529 1223.69 558.699
695 0 52.1235 11.7222 611 64.3993 1223.72 558.083
696 0 52.1235 11.7414 612 155.062 1223.74 558.113
697 0 55.2104 11.5015 635 65.4535 1223.59 557.025
698 0 57.0585 12.8815 735 63.6844 1223.2 555.112
699 0 57.1613 12.3685 707 65.5601 1223.56 554.836
700 0 59.0389 12.6357 746 64.7386 1223.37 555.802
701 0 61.1026 12.6181 771 65.0636 1222.92 552.87
702 0 63.1308 13.0998 827 64.4341 1223.12 551.982
703 0 63.0633 12.7332 803 65.8144 1223.11 551.66
704 0 67.1369 13.5991 913 64.5225 1223.05 551.591
705 0 67.1016 12.3991 832 66.3942 1222.77 551.144
706 0 70.2997 13.3713 940 64.766 1222.4 549.765
707 0 73.1533 12.8907 943 65.1209 1222.64 549.929
708 0 75.1668 12.6785 953 65.9906 1222.73 548.72
709 0 77.1366 12.8733 993 71.8389 1222.47 547.37
710 0 81.1353 13.8657 1125 75.7813 1222.1 545.082
711 0 83.1998 12.7044 1057 78.5279 1222.56 543.54
712 1 46.0239 11.494 529 78.6087 1222.26 561.518
713 0 46.0599 10.8554 500 79.894 1222.2 561.95
714 0 47.0146 11.3582 534 80.3483 1222.02 562.193
715 0 50.0548 11.9669 599 79.9015 1221.96 562.568
716 0 51.0542 13.6717 698 77.9713 1221.49 561.755
717 0 50.1586 12.5602 630 80.919 1221.36 562.211
718 0 53.1203 12.707 675 79.9259 1221.12 562.033
719 0 54.1509 12.9084 699 80.4392 1221.68 561.278
720 0 56.2711 12.9729 730 81.526 1221.47 559.464
721 0 57.1962 12.868 736 82.356 1221.47 559.106
722 0 58.1427 12.8477 747 82.4444 1221.24 558.854
723 0 61.2105 13.5761 831 82.0662 1221.15 559.276
724 0 61.1293 13.0706 799 83.1051 1221.25 558.305
725 0 64.1419 13.2519 850 82.9718 1220.82 556.092
726 0 67.2458 13.6514 918 81.1481 1220.53 556.142
727 0 68.1219 13.2703 904 82.5332 1220.76 555.621
728 0 70.2556 13.4224 943 83.1007 1220.61 554.143
729 0 72.2341 13.8023 997 82.8516 1220.04 552.318
730 0 74.1229 13.3157 987 84.0527 1220.6 551.887
731 0 78.1432 13.4241 1049 84.1163 1220.34 551.259
732 0 80.1629 13.7221 1100 84.0827 1220.98 549.694
733 0 84.1972 14.2523 1200 82.7458 1220.13 547.898
734 0 87.0685 13.2654 1155 84.9922 1220.27 548.402
735 0 87.0685 13.2654 1155 168.53 1220.28 548.287
736 0 92.1952 12.5386 1156 86.1652 1219.38 545.995
737 0 95.1161 13.9198 1324 84.9721 1219.51 542.554
738 0 98.1638 14.7916 1452 83.8506 1219.21 541.114
739 0 101.434 12.5303 1271 87.0527 1219.54 540.766
740 1 57.3348 12.5927 722 84.3615 1219.12 563.011
741 0 54.1682 12.1658 659 86.519 1219.21 560.991
742 0 58.2748 13.1103 764 83.8979 1219.29 561.838
743 0 58.1806 11.9112 693 86.6407 1219.02 560.577
744 0 62.1465 13.1142 815 85.054 1219.39 560.25
745 0 63.2286 12.1464 768 86.4805 1219.32 558.232
746 0 64.2031 12.5695 807 86.8686 1219.25 558.021
747 0 68.1305 13.1659 897 85.2887 1219.36 557.881
748 0 69.2419 12.8535 890 86.4742 1219.42 555.928
749 0 73.3772 13.601 998 85.6824 1219.36 556.216
750 0 75.4447 13.8512 1045 85.423 1219.47 555.048
751 0 78.5177 13.6275 1070 85.6935 1219.21 554.546
752 0 80.4076 14.5136 1167 83.5596 1219.48 552.797
753 0 80.2448 12.8357 1030 86.1883 1219.38 551.874
754 0 85.299 13.0834 1116 86.0457 1219.1 549.893
755 0 86.3098 13.6253 1176 86.2619 1218.78 548.41
756 0 89.4774 13.4894 1207 87.169 1218.42 546.009
757 0 95.2704 14.695 1400 86.0621 1218.82 543.93
758 1 51.566 12.2174 630 86.1587 1218.84 568.238
759 0 53.3364 12.7868 682 85.3094 1218.57 567.129
760 0 54.1962 12.4548 675 84.7496 1218.82 566.216
761 0 55.192 12.8461 709 85.6432 1219.1 563.196
762 0 58.2128 13.2961 774 85.363 1219.7 562.804
763 0 60.1327 13.0877 787 85.4485 1219.6 563.244
764 0 61.1923 14.6424 896 83.9241 1219.48 560.92
765 0 63.2546 12.5208 792 86.8763 1219.44 561.514
766 0 64.2529 13.6492 877 86.4344 1219.05 558.702
767 0 67.192 12.9926 873 87.1157 1218.97 560.953
768 0 68.4153 13.3888 916 86.5437 1218.78 558.405
769 0 72.1971 14.502 1047 84.3935 1218.69 558.78
770 0 74.3288 13.1174 975 85.1897 1218.33 556.447
771 0 73.3303 13.0642 958 86.0825 1218.89 554.77
772 0 73.3303 13.1051 961 154.356 1219.89 554.862
773 0 78.3257 13.4694 1055 85.8133 1218.34 552.601
774 0 84.3416 13.4809 1137 85.131 1218.82 552.617
775 0 85.2565 12.5738 1072 86.8535 1218.93 552.297
776 0 87.3409 13.2126 1154 87.0234 1218.85 550.814
777 0 92.3412 12.822 1184 87.3851 1218.84 548.578
778 0 94.1913 13.876 1307 86.7238 1218.82 542.431
779 0 99.3424 13.4786 1339 86.7946 1219.02 546.128
780 0 99.2486 14.4183 1431 75.4766 1219.11 542.312
781 0 100.27 13.3539 1339 77.3159 1219.36 543.304
782 1 53.1547 10.8739 578 78.1626 1219.18 564.057
783 0 57.1744 11.5961 663 78.0015 1218.57 564.228
784 0 60.118 12.5254 753 77.6361 1219 563.332
785 0 61.1327 12.7918 782 77.9578 1218.98 560.627
786 0 63.098 13.3443 842 78.4715 1219.46 559.481
787 0 66.2429 12.9825 860 79.1128 1219.17 558.576
788 0 66.0848 13.286 878 79.1036 1219.88 559.793
789 0 70.0983 13.21 926 79.4179 1220.29 557.841
790 0 69.1552 12.7395 881 81.6402 1220.23 554.787
791 0 73.1816 13.446 984 81.4238 1220.51 553.993
792 0 76.1632 13.4054 1021 81.4496 1220.11 555.834
793 0 77.3134 13.9821 1081 81.7956 1220.37 553.9
794 0 80.1957 13.8785 1113 82.2974 1220.12 553.719
795 0 85.3732 13.1306 1121 83.4139 1220.09 550.361
796 0 87.2861 12.7053 1109 84.8683 1220.5 549.4
797 0 90.1913 13.9925 1262 84.1886 1220.32 545.884
798 0 95.2557 13.0281 1241 76.1322 1220.7 544.87
799 0 96.1892 12.9536 1246 77.6605 1220.53 544.02
800 1 51.1274 11.5789 592 76.5912 1220.83 565.564
801 0 54.1401 12.0982 655 75.9771 1220.97 564.403
802 0 54.1301 12.2852 665 76.8316 1220.97 563.229
803 0 59.1151 13.8543 819 75.1062 1221.09 562.337
804 0 60.1091 13.4422 808 76.2649 1221.19 561.571
805 0 61.1385 13.1668 805 77.4273 1221.27 560.631
806 0 63.0631 13.1773 831 77.1143 1221.84 559.297
807 0 66.0916 13.7234 907 76.3407 1221.89 558.605
808 0 68.2848 12.8286 876 78.5776 1222.19 556.926
809 0 70.0451 12.8346 899 79.2714 1222.16 555.191
810 0 71.2041 13.5807 967 79.2937 1222.54 553.119
811 0 75.2819 12.8318 966 78.7847 1222.87 554.938
812 0 78.128 13.6827 1069 78.1983 1223.42 552.335
813 0 77.1518 13.2337 1021 80.4799 1223.02 550.057
814 0 82.0895 12.4742 1024 80.8916 1222.92 549.194
815 0 81.1544 11.9895 973 82.4317 1222.84 548.522
816 0 88.2661 12.9381 1142 80.2224 1222.69 549.868
817 0 91.1846 12.8421 1171 81.0009 1222.6 548.113
818 1 47.0393 11.1396 524 81.458 1222.83 567.086
819 0 50.1208 11.3925 571 80.9772 1223.06 567.646
820 0 51.0872 11.588 592 82 1222.96 566.193
821 0 56.1555 11.486 645 82.1116 1223.56 564.042
822 0 55.2145 12.2975 679 81.5817 1222.71 562.066
823 0 53.3117 12.924 689 82.9318 1222.26 562.096
824 0 57.0965 12.5051 714 83.3067 1222.34 562.262
825 0 57.0597 12.3905 707 83.3083 1222.51 560.474
826 0 59.1369 14.2381 842 81.4133 1222.28 559.103
827 0 63.177 14.5623 920 80.3859 1222.12 560.225
828 0 63.2008 12.5157 791 84.1125 1222.05 558.398
829 0 66.1428 12.216 808 83.8057 1223.06 559.228
830 0 67.2797 13.4216 903 82.4806 1222.63 556.25
831 0 70.1903 12.922 907 83.1047 1222.81 555.77
832 0 71.136 13.3125 947 83.4762 1222.52 553.414
833 0 73.1341 13.8239 1011 82.7329 1222.43 553.016
834 0 77.119 14.0951 1087 82.4296 1222.67 551.353
835 0 80.3252 14.2048 1141 82.1551 1222.65 551.175
836 0 80.1751 13.2585 1063 98.6068 1222.51 548.126
837 0 84.3825 11.5308 973 99.9188 1222.79 548.097
838 0 86.4078 12.6493 1093 97.2013 1222.43 546.192
839 0 89.2545 12.7949 1142 95.9475 1222.57 545.677
840 0 93.4446 12.7669 1193 94.4384 1222.35 544.832
841 1 49.2432 12.1641 599 92.394 1222.21 564.905
842 0 50.1272 12.4084 622 91.9453 1221.8 564.283
843 0 51.1227 13.184 674 88.1469 1221.63 562.99
844 0 54.0347 12.9546 700 87.8971 1222.37 563.75
845 0 54.1086 13.3251 721 87.5603 1222.22 561.763
846 0 57.2167 13.3353 763 86.9672 1222.32 562.498
847 0 57.1638 13.6625 781 87.1178 1221.38 561.423
848 0 59.1903 12.992 769 87.3641 1221.5 561.114
849 0 61.1327 13.5116 826 86.6998 1221.14 559.713
850 0 64.1673 12.8414 824 87.1833 1221.06 559.038
851 0 64.1795 12.7143 816 87.2512 1221.38 558.713
852 0 68.1152 13.947 950 84.6274 1221.19 556.927
853 0 69.2385 12.9697 898 85.6036 1220.59 556.171
854 0 71.1406 13.4382 956 84.9404 1220.9 554.573
855 0 73.115 13.0753 956 85.2667 1220.43 554.325
856 0 74.1873 12.3202 914 86.6269 1220.81 553.594
857 0 76.2842 13.3186 1016 85.1427 1221.26 552.907
858 0 79.3979 13.7913 1095 84.5945 1220.96 551.264
859 0 82.4281 12.7869 1054 85.741 1220.64 549.119
860 0 85.4279 13.7894 1178 84.253 1220.77 547.458
861 0 88.4265 12.5641 1111 85.7354 1220.4 547.961
862 0 89.2315 12.9775 1158 85.6865 1220.7 545.849
863 1 49.1942 11.7087 576 82.5851 1220.74 568.42
864 0 48.1828 11.4979 554 85.4946 1220.11 566.597
865 0 49.1365 12.0481 592 86.3632 1219.77 564.598
866 0 49.0618 11.4753 563 93.9734 1218.98 563.929
867 0 52.17 11.6542 608 94.0082 1218.58 564.049
868 0 52.1857 12.3214 643 95.3017 1219.3 563.344
869 0 55.0672 12.8025 705 96.0723 1218.99 562.596
870 0 58.2222 12.3492 719 95.4172 1218.4 560.46
871 0 56.055 11.1854 627 98.7177 1219.09 562.499
872 0 59.1041 12.0127 710 96.1141 1218.93 562.701
873 0 62.1894 12.5906 783 96.2452 1219.38 559.928
874 0 64.1868 13.2582 851 95.1539 1218.22 560.274
875 0 63.1737 12.4419 786 98.5916 1218.69 558.057
876 0 66.1005 11.8456 783 99.2682 1218.55 557.627
877 0 67.0866 11.9249 800 98.9312 1217.91 553.934
878 0 69.0448 11.9488 825 93.3952 1218.57 556.216
879 0 72.1342 13.1283 947 72.5692 1219.04 553.805
880 0 75.2784 12.8988 971 70.6169 1218.88 553.884
881 0 77.1358 13.3401 1029 69.688 1219.05 553.041
882 0 81.2266 13.3823 1087 68.5639 1219.2 551.064
883 0 83.2179 13.0861 1089 68.1368 1218.81 551.056
884 0 85.0856 13.5393 1152 66.4306 1219.13 549.802
885 1 44.0539 11.0773 488 66.8361 1218.5 568.355
886 0 47.1209 11.184 527 64.9051 1218.58 568.596
887 0 49.0546 11.5993 569 64.8664 1218.75 568.246
888 0 49.0414 11.3985 559 65.7191 1219.76 566.546
889 0 50.0794 11.8612 594 65.4865 1219.42 566.217
890 0 50.0988 12.655 634 64.4732 1220.41 563.312
891 0 54.1592 12.3709 670 63.7851 1220.65 563.588
892 0 56.1469 13.0907 735 62.9197 1220.52 563.031
893 0 56.2995 12.5401 706 63.9943 1220.69 562.618
894 0 58.3201 12.3971 723 63.9972 1220.76 561.548
895 0 59.2336 13.337 790 63.3101 1221.63 559.306
896 0 62.4625 12.9678 810 62.8358 1221.57 558.885
897 0 64.3285 13.7731 886 62.0711 1221.84 556.644
898 0 66.1829 14.2333 942 61.1412 1221.83 557.705
899 0 66.4941 14.1516 941 62.2593 1221.93 555.661
900 0 69.2852 14.0001 970 62.6515 1221.98 554.714
901 0 71.3428 14.0869 1005 62.2746 1222.14 554.716
902 0 73.4411 13.984 1027 62.4606 1222.39 552.727
903 0 76.481 13.3497 1021 63.1665 1222.21 550.559
904 0 76.5082 13.6979 1048 63.3302 1222.45 550.553
905 0 80.2065 14.0762 1129 62.2578 1222.89 548.312
906 0 82.3423 13.3346 1098 63.4107 1223.04 545.999
907 0 86.5555 13.5058 1169 62.5637 1222.74 546.142
908 1 42.2401 11.9081 503 65.0159 1222.91 565.129
909 0 43.4365 10.6362 462 66.2944 1222.94 565.61
910 0 46.1567 11.3743 525 64.7848 1223.34 565.632
911 0 46.1398 11.7469 542 64.4926 1223.14 563.915
912 0 49.4716 12.3707 612 62.933 1223.24 563.667
913 0 50.1986 12.829 644 62.7205 1223.08 561.88
914 0 52.133 12.5832 656 62.6098 1223.14 562.444
915 0 52.1421 12.5043 652 63.7224 1223.84 559.339
916 0 55.1582 13.0171 718 62.3008 1224.33 559.312
917 0 57.1111 13.5175 772 61.3497 1224.5 557.317
918 0 60.1583 12.8661 774 62.2326 1224.66 556.957
919 0 61.2356 12.95 793 62.4464 1224.73 556.185
920 0 63.3563 13.2741 841 62.1189 1224.9 555.635
921 0 64.2689 13.6302 876 61.7226 1224.89 555.243
922 0 65.33 13.1792 861 62.9141 1224.75 553.769
923 0 69.1614 13.3022 920 62.5424 1225.1 552.611
924 0 71.1738 13.3195 948 62.5897 1225.11 551.301
925 0 74.1558 13.5391 1004 62.1135 1224.94 550.546
926 0 75.3352 13.9775 1053 62.0475 1225.1 550.534
927 0 79.1947 14.1045 1117 61.4843 1224.64 549.223
928 0 82.1957 13.5409 1113 62.5867 1225.11 546.163
929 0 85.3396 13.7802 1176 62.1896 1225.55 546.099
930 0 87.4425 13.4603 1177 62.9822 1225.11 543.822
931 1 44.3033 10.8118 479 63.8873 1224.95 565.965
932 0 47.2396 11.1771 528 63.3674 1224.83 565.345
933 0 47.2144 12.1997 576 63.3698 1224.4 563.753
934 0 48.2132 13.0047 627 62.547 1224.33 562.137
935 0 48.1826 12.5772 606 63.9208 1224.13 561.579
936 0 49.1831 12.7686 628 64.1911 1224.52 561.473
937 0 52.1672 12.5749 656 63.8018 1224.28 561.476
938 0 52.0781 13.6142 709 62.8914 1223.98 561.269
939 0 56.0736 12.6619 710 63.5042 1223.4 560.434
940 0 58.2194 12.9338 753 63.2032 1223.61 559.857
941 0 58.0498 13.3678 776 63.5348 1223.61 558.095
942 0 61.0608 13.3965 818 62.2054 1223.73 559.214
943 0 62.0986 13.4142 833 62.4886 1223.29 557.178
944 0 64.222 13.9672 897 61.7759 1222.82 555.078
945 0 66.0417 12.9615 856 62.9918 1222.78 554.356
946 0 67.1525 13.715 921 62.2465 1222.94 553.599
947 0 70.0959 13.667 958 62.1221 1222.44 551.808
948 0 73.162 14.133 1034 61.4246 1222.59 551.235
949 0 75.172 14.1542 1064 61.1805 1222.73 549.875
950 0 78.0962 14.0212 1095 61.0484 1222.29 548.901
951 0 80.3062 13.6851 1099 61.6115 1221.93 546.467
952 1 42.1832 11.3078 477 62.7086 1221.95 567.222
953 0 44.0669 11.3918 502 62.8028 1222.41 566.361
954 0 45.07 10.872 490 63.151 1222.17 566.241
955 0 45.07 10.7832 486 165.572 1222.19 566.2
956 0 50.12 12.49 626 61.6789 1222.31 563.439
957 0 49.0622 12.7389 625 62.2608 1221.88 563.01
958 0 53.0484 13.5914 721 61.0735 1222.17 561.896
959 0 53.0411 13.1785 699 61.8984 1221.74 560.979
960 0 56.0829 13.1234 736 61.5978 1221.49 560.254
961 0 56.0829 13.1769 739 154.445 1221.5 560.237
962 0 59.1638 12.8457 760 60.7289 1221.68 558.854
963 0 61.091 13.7172 838 59.4033 1221.77 558.953
964 0 65.1063 13.7775 897 58.6254 1221.95 558.602
965 0 65.2457 13.9319 909 59.0638 1221.79 556.943
966 0 66.2036 13.0658 865 60.5954 1221.54 554.679
967 0 69.1939 12.689 878 60.6139 1221.59 554.149
968 0 73.1777 13.679 1001 59.7143 1221.44 552.229
969 0 76.279 14.0668 1073 58.4688 1221.17 551.192
970 0 78.1247 14.4769 1131 58.9876 1221.26 550.04
971 0 81.2032 14.0019 1137 59.4011 1221.23 549.124
972 0 83.0901 13.5395 1125 60.28 1221.3 547.5
973 0 87.1623 13.4118 1169 60.065 1221.08 547.195
974 0 89.2499 13.9048 1241 59.4795 1221.13 546.535
975 1 45.0992 10.7984 487 63.0698 1220.87 566.423
976 0 48.0283 12.3469 593 62.113 1220.74 563.609
977 0 50.0598 12.4251 622 62.0048 1220.29 563.732
978 0 51.0142 13.1532 671 61.7973 1220.13 562.435
979 0 54.0553 13.6712 739 61.4114 1220.05 562.478
980 0 55.0477 13.5519 746 62.1649 1220.15 561.02
981 0 57.1087 13.7282 784 61.4133 1220.09 558.584
982 0 58.0929 13.0481 758 62.1069 1219.85 558.897
983 0 60.1017 13.2442 796 62.191 1219.3 557.788
984 0 65.1346 12.835 836 62.1065 1219.41 556.984
985 0 64.11 14.0072 898 61.6336 1219.71 554.158
986 0 69.0651 14.2329 983 60.6836 1219.21 555.748
987 0 70.0885 13.9966 981 61.2232 1219.07 554.545
988 0 72.1156 13.7557 992 62.2732 1219.26 552.846
989 0 72.1156 13.7834 994 169.116 1219.26 552.847
990 0 77.1597 13.7118 1058 62.9045 1219.55 550.505
991 0 79.1666 13.3516 1057 63.649 1218.9 550.51
992 0 84.2421 15.2418 1284 60.5919 1219 545.593
993 0 85.205 13.7316 1170 63.7863 1218.75 546.316
994 0 87.2384 14.1108 1231 63.0382 1218.87 548.122
995 0 92.1927 14.9036 1374 62.4469 1219.27 543.218
996 0 94.237 13.933 1313 64.1881 1219.24 543.596
997 1 45.0701 12.5138 564 66.5195 1218.72 566.704
998 0 47.0934 12.5495 591 66.0745 1218.78 566.14
999 0 49.1569 12.5923 619 66.979 1218.86 564.144
1000 0 51.1508 12.7466 652 66.1794 1219.25 564.488
1001 0 53.1009 13.9922 743 65.0525 1219.08 563.144
1002 0 56.1384 13.4489 755 63.9364 1218.88 563.215
1003 0 58.4969 14.223 832 63.4519 1218.97 561.876
1004 0 58.2469 14.4042 839 63.6091 1218.88 561.038
1005 0 62.2559 14.2637 888 63.5439 1218.74 559.939
1006 0 63.0673 13.6997 864 64.4468 1218.56 559.654
1007 0 67.2483 14.6769 987 62.7052 1218.72 557.515
1008 0 67.339 14.479 975 64.1959 1218.8 557.131
1009 0 69.3463 14.0599 975 64.6031 1218.96 555.99
1010 0 71.2602 14.7067 1048 63.8788 1219.04 555.388
1011 0 74.2157 14.0671 1044 65.5268 1219.22 554.989
1012 0 78.2854 13.9106 1089 65.6364 1219.2 552.008
1013 0 80.1957 14.714 1180 64.5805 1218.91 551.44
1014 0 84.2068 14.4763 1219 64.8811 1219.19 549.759
1015 0 86.2439 14.0995 1216 65.1661 1218.77 548.366
1016 0 88.2023 13.4577 1187 66.1003 1218.9 546.516
1017 0 92.1612 13.9104 1282 65.3682 1219.48 545.156
1018 0 96.4853 14.2405 1374 63.9425 1219.52 542.726
1019 1 51.131 11.4216 584 67.7637 1219.12 565.281
1020 0 53.1529 12.0972 643 66.7356 1219.06 564.208
1021 0 55.1566 12.5824 694 65.9135 1219.71 563.182
1022 0 55.2763 13.1521 727 66.4402 1219.95 559.99
1023 0 60.2551 14.5714 878 62.3872 1219.87 560.173
1024 0 60.2872 13.303 802 65.3204 1220.02 558.661
1025 0 60.2872 13.3859 807 173.942 1221.04 558.642
1026 0 67.3872 14.9583 1008 61.1161 1220.25 555.27
1027 0 66.2449 13.601 901 64.2519 1220.09 555.301
1028 0 71.1963 13.9333 992 63.12 1220.25 554.798
1029 0 71.1488 13.1977 939 65.0266 1220.63 554.564
1030 0 75.4054 14.2298 1073 63.3346 1220.68 551.148
1031 0 78.1046 14.3782 1123 62.976 1220.69 550.759
1032 0 80.1871 14.541 1166 62.5 1220.7 549.221
1033 0 84.1098 13.7202 1154 63.4437 1221.63 547.352
1034 0 84.1098 13.6845 1151 170.059 1223.64 547.401
1035 0 89.111 13.7469 1225 64.1706 1222.15 543.794
1036 0 92.074 14.0431 1293 63.6752 1222.2 542.227
1037 1 48.0616 10.9651 527 65.5882 1222.3 566.214
1038 0 49.1146 11.5241 566 65.0336 1222.28 563.786
1039 0 51.083 12.7831 653 63.1026 1222.54 562.971
1040 0 50.0707 12.2427 613 64.7406 1222.72 561.713
1041 0 54.0548 12.3393 667 64.042 1222.7 560.679
1042 0 56.1113 13.4198 753 62.1833 1223.06 561.121
1043 0 57.2315 12.9824 743 62.6622 1222.92 560.51
1044 0 58.1315 12.8502 747 63.5743 1223.31 559.11
1045 0 60.2927 12.9535 781 63.1421 1223.4 558.94
1046 0 62.1284 13.3433 829 61.6634 1223.75 558.779
1047 0 65.3 13.706 895 61.1162 1223.52 557.289
1048 0 66.195 13.6717 905 61.7735 1223.44 556.452
1049 0 68.2725 12.8016 874 63.3707 1223.46 554.263
1050 0 70.1269 14.6021 1024 61.1494 1223.39 553.283
1051 0 72.0464 13.8105 995 62.9769 1223.77 552.361
1052 0 76.0462 13.0578 993 63.5509 1224.25 550.739
1053 0 78.1496 13.423 1049 63.6902 1224.03 549.177
1054 0 80.0653 14.1509 1133 62.8447 1224.28 547.009
1055 0 84.1377 13.6324 1147 63.5588 1224.47 546.323
1056 0 85.124 14.0148 1193 63.7972 1224.11 545.549
1057 0 86.2959 13.5232 1167 64.8698 1223.71 543.41
1058 1 46.1256 10.5148 485 63.9093 1223.34 565.926
1059 0 46.1028 10.9972 507 63.5306 1224.42 565.28
1060 0 48.1653 11.4605 552 64.0562 1224.38 563.58
1061 0 50.1193 12.4503 624 62.9006 1224.35 561.832
1062 0 53.1297 12.8742 684 62.5365 1224.01 564.028
1063 0 54.0553 12.1357 656 64.2454 1224.16 563.553
1064 0 53.0964 12.4679 662 65.1088 1223.81 561.66
1065 0 55.084 12.49 688 65.0422 1224.28 562.112
1066 0 59.1172 12.7712 755 63.7457 1224.08 561.36
1067 0 59.0361 12.1112 715 65.9552 1223.81 560.238
1068 0 60.0541 13.621 818 64.2347 1223.82 557.675
1069 0 64.139 13.4708 864 63.4306 1223.92 558.095
1070 0 66.1339 12.8225 848 64.2005 1223.65 557.413
1071 0 69.1442 13.5659 938 63.2889 1223.94 555.824
1072 0 70.0848 13.127 920 63.9739 1223.87 553.926
1073 0 73.0638 13.3445 975 63.6113 1223.93 553.4
1074 0 73.0297 12.5702 918 65.8769 1224.05 551.724
1075 0 77.0611 13.7164 1057 63.9442 1223.86 551.458
1076 0 79.0561 13.3829 1058 64.328 1223.33 550.201
1077 0 81.0665 13.2114 1071 64.7386 1223.23 548.093
1078 1 44.0361 11.3089 498 65.2169 1223.54 568.006
1079 0 43.0796 10.469 451 65.6829 1223.02 568.67
1080 0 44.0572 10.7133 472 66.375 1223.25 567.1
1081 0 47.0584 11.2839 531 65.1318 1223.43 566.168
1082 0 48.036 11.7412 564 66.1649 1223.32 565.014
1083 0 50.0783 11.9613 599 65.773 1223.16 562.988
1084 0 52.0689 12.9444 674 64.9926 1223.06 562.809
1085 0 55.0661 12.7846 704 64.8622 1222.9 562.639
1086 0 53.1311 12.6856 674 66.4451 1223.26 561.988
1087 0 56.0764 12.5365 703 66.3186 1222.76 560.71
1088 0 57.1996 12.9896 743 65.3701 1222.58 562.246
1089 0 60.114 13.7239 825 64.2873 1222.67 560.291
1090 0 62.1282 14.0194 871 63.6992 1222.03 559.309
1091 0 64.1099 13.7888 884 63.8552 1222.58 559.926
1092 0 63.0975 13.5504 855 65.0526 1223.38 559.268
1093 0 66.1307 13.7001 906 64.2517 1223.08 558.355
1094 0 69.2219 13.9407 965 63.5689 1222.89 556.155
1095 0 71.2955 13.6895 976 63.9508 1223.26 555.016
1096 0 74.4061 13.6951 1019 63.4436 1222.85 554.234
1097 1 38.1192 11.7526 448 64.3192 1222.69 571.83
1098 0 40.1778 10.9513 440 65.7273 1222.78 569.359
1099 0 41.0891 11.5846 476 65.0966 1222.7 568.057
1100 0 42.05 12.0095 505 65.2059 1222.46 568.04
1101 0 45.1409 12.4499 562 64.8879 1222.4 566.514
1102 0 45.1263 12.6312 570 65.9123 1222.42 564.696
1103 0 47.1221 13.1573 620 64.9145 1222.58 564.476
1104 0 48.2865 12.3637 597 66.4238 1222.26 565.159
1105 0 49.2195 13.2468 652 65.5077 1222.66 565.032
1106 0 52.1837 13.5291 706 64.1884 1222.43 563.755
1107 0 52.3318 12.9749 679 65.7997 1222.63 563.29
1108 0 52.2445 13.8388 723 64.8797 1222.46 562.905
1109 0 56.2895 13.7681 775 64.6361 1222.76 560.511
1110 0 56.2572 13.7227 772 65.0855 1222.24 561.106
1111 0 56.2572 13.7227 772 176.069 1221.24 561.106
1112 0 61.4201 14.7997 909 62.8075 1222.83 558.979
1113 0 63.3595 15.2937 969 61.936 1222.57 557.007
1114 0 65.3249 14.1906 927 62.9547 1222.23 557.888
1115 0 64.3299 13.4152 863 65.3163 1221.86 555.138
1116 0 68.3664 13.1936 902 65.4557 1221.62 554.241
1117 0 71.374 14.459 1032 63.47 1222.01 553.204
1118 0 73.4348 14.2575 1047 63.8883 1221.71 552.745
1119 0 75.3259 14.1917 1069 64.2133 1221.83 551.124
1120 0 76.3322 14.9085 1138 63.6134 1221.89 551.325
1121 1 40.2475 11.6032 467 67.4561 1221.89 569.518
1122 0 42.3882 11.8901 504 67.6647 1221.82 567.851
1123 0 41.528 12.3531 513 67.9766 1220.81 567.483
1124 0 43.2818 12.5226 542 68.238 1220.73 566.893
1125 0 42.2216 13.1923 557 67.9946 1220.92 566.546
1126 0 42.2216 13.1686 556 176.622 1221.88 566.592
1127 0 48.3809 14.3445 694 65.3617 1221.16 564.635
1128 0 49.2802 13.7175 676 66.8018 1220.97 564.683
1129 0 48.4494 13.7257 665 68.1699 1220.96 562.773
1130 0 51.2839 13.903 713 67.418 1221.51 562.48
1131 0 55.3643 14.233 788 66.2678 1221.38 562.887
1132 0 55.4369 13.9799 775 67.1148 1221.38 562.812
1133 0 57.349 14.4205 827 66.8924 1221.38 561.561
1134 0 58.4312 13.7427 803 68.3001 1221.89 560.563
1135 0 60.1979 14.1201 850 67.7012 1221.64 559.613
1136 0 63.3545 14.3794 911 66.9748 1221.59 559.821
1137 0 65.2799 14.0625 918 67.842 1221.18 558.842
1138 0 65.4403 14.2878 935 68.5807 1221.38 557.695
1139 0 68.2267 14.9355 1019 66.7753 1221.77 556.18
1140 0 72.1682 14.2999 1032 67.718 1221.51 555.54
1141 0 72.2951 14.8558 1074 69.5642 1222.29 554.383
1142 0 76.2435 14.5455 1109 69.615 1222.22 553.399
1143 0 78.0864 14.7657 1153 69.4753 1222.39 551.217
1144 0 80.1646 14.8694 1192 69.5998 1222.34 549.561
1145 0 81.1526 14.6514 1189 70.4062 1222.32 547.849
1146 0 85.1839 15.1672 1292 69.2461 1222.48 546.171
1147 0 88.1485 13.9878 1233 71.2895 1222.61 545.944
1148 0 91.0696 14.8019 1348 69.8501 1223.01 545.197
1149 0 94.1491 14.6682 1381 70.328 1222.87 541.356
1150 1 50.0348 10.9124 546 74.0513 1223.12 562.56
1151 0 52.1361 12.6975 662 71.4033 1223.15 562.757
1152 0 54.1043 12.7347 689 70.2845 1223.23 561.282
1153 0 58.0827 13.6529 793 68.2951 1223.64 559.663
1154 0 57.0434 13.4459 767 68.9518 1223.47 559.138
1155 0 61.086 13.7675 841 67.8502 1223.98 557.117
1156 0 63.0928 13.4405 848 68.2653 1224.63 555.525
1157 0 65.2354 13.5816 886 67.7269 1225.16 555.887
1158 0 68.06 12.68 863 68.0915 1225.25 552.37
1159 0 70.1784 13.6367 957 66.6552 1225.63 551.478
1160 0 75.1515 13.679 1028 65.9436 1226.17 549.034
1161 0 77.0634 12.9763 1000 66.349 1226.1 548.481
1162 0 80.1436 13.7254 1100 64.8055 1226.18 545.884
1163 0 83.1001 13.1528 1093 65.4135 1226.24 545.112
1164 1 47.0251 10.6113 499 63.5571 1226.59 563.417
1165 0 51.0359 10.2281 522 63.3123 1226.43 562.408
1166 0 50.0372 10.6721 534 63.2247 1226.73 562.114
1167 0 51.0411 11.0891 566 62.5212 1227.33 561.825
1168 0 54.0542 11.322 612 61.0768 1226.71 560.842
1169 0 54.0447 10.4173 563 62.2558 1226.88 558.581
1170 0 57.0481 11.5867 661 60.8941 1226.59 558.042
1171 0 59.0987 11.8615 701 59.9187 1226.41 558.341
1172 0 61.16 11.7724 720 59.4736 1226.85 557.662
1173 0 61.0993 11.1458 681 60.5419 1227.09 556.89
1174 0 64.1492 11.6915 750 59.972 1227.27 555.552
1175 0 67.0756 11.7479 788 59.5241 1227.53 554.431
1176 0 69.1049 11.4753 793 59.6318 1227.07 553.715
1177 0 71.0789 11.3395 806 60.2928 1226.89 551.63
1178 0 72.1311 11.7841 850 60.7447 1226.64 551.187
1179 0 74.1189 11.9133 883 60.5617 1227.59 549.26
1180 0 78.1622 12.1926 953 59.787 1227.49 548.326
1181 0 79.1028 11.3523 898 60.9131 1227.03 547.075
1182 0 85.1357 11.7929 1004 59.6086 1226.33 546.006
1183 0 87.0833 11.6211 1012 60.1453 1227.21 545.252
1184 0 90.0727 11.9015 1072 60.1119 1227.32 543.079
1185 0 93.1158 12.3287 1148 59.4895 1225.91 539.609
1186 0 95.1035 11.9028 1132 60.1184 1226.46 538.944
1187 0 98.1873 12.3336 1211 60.2799 1226.1 536.903
1188 0 101.151 11.4878 1162 61.1343 1225.84 535.945
1189 0 104.128 11.5243 1200 61.5075 1225.96 535.158
1190 0 108.129 11.3846 1231 61.5272 1226.02 531.93
1191 0 112.191 12.5233 1405 60.1915 1225.66 530.698
1192 0 115.101 12.0416 1386 60.5216 1225.58 530.533
1193 0 119.226 11.4908 1370 61.4401 1225.04 528.193
1194 0 125.152 12.4568 1559 60.2142 1225.04 525.194
1195 0 125.15 11.2505 1408 62.4659 1225.3 521.214
1196 0 125.15 11.2025 1402 162.802 1225.28 521.071
1197 1 74.0331 10.4008 770 58.6805 1225.61 550.587
1198 0 75.0547 10.2858 772 59.2863 1225.4 549.301
1199 0 81.0609 11.6332 943 57.4443 1224.92 545.916
1200 0 85.0697 11.6845 994 57.0755 1225.16 546.55
1201 0 85.1245 10.9722 934 58.5739 1225.3 544.185
1202 0 86.2482 11.4089 984 58.2866 1225.27 544.533
1203 0 91.1544 12.1662 1109 57.8052 1224.04 541.693
1204 0 94.2298 12.756 1202 57.3145 1223.34 539.022
1205 0 96.2852 11.9125 1147 58.4551 1223.64 537.867
1206 0 100.353 11.3001 1134 59.1499 1223.94 536.355
1207 0 101.234 11.5672 1171 59.041 1224.21 534.338
1208 0 107.191 12.1839 1306 57.8361 1223.53 533.73
1209 1 58.0711 9.62613 559 59.9785 1223.37 557.674
1210 0 60.1771 11.2667 678 56.0767 1223.46 557.715
1211 0 61.2266 10.551 646 57.308 1224.44 555.899
1212 0 64.2071 11.0424 709 55.4344 1224.54 538.901
1213 0 65.1691 11.7233 764 55.3312 1224.01 537.376
1214 0 67.2306 11.4085 767 55.704 1223.77 536.153
1215 0 69.1983 11.8211 818 55.489 1223.57 536.581
1216 0 69.1223 12.1524 840 55.631 1223.58 535.89
1217 0 72.0971 11.7064 844 56.4088 1223.1 539.942
1218 0 74.0563 11.1942 829 57.2388 1223.19 543.207
1219 0 76.1463 11.8587 903 56.598 1223.14 543.172
1220 0 79.2471 12.4042 983 56.1302 1222.65 544.05
1221 0 82.1525 12.8541 1056 55.143 1222.96 543.464
1222 0 84.3189 12.1918 1028 56.4446 1222.77 540.095
1223 0 85.3826 12.3093 1051 56.9039 1222.44 538.867
1224 1 43.4792 10.3958 452 57.2058 1222.06 560.097
1225 0 47.2557 10.2633 485 57.1856 1221.6 559.697
1226 0 47.3042 10.3162 488 57.377 1221.92 560.295
1227 0 49.172 10.1684 500 57.546 1221.45 559.45
1228 0 49.4442 11.3057 559 55.6243 1221.3 560.104
1229 0 51.0693 11.1417 569 56.5923 1221.48 551.84
1230 0 53.44 10.9469 585 54.5897 1221.24 560.797
1231 0 52.52 11.3861 598 55.0385 1221.41 559.634
1232 0 57.2694 13.7944 790 51.7418 1221.4 557.678
1233 0 63.6123 14.2268 905 49.2552 1221.58 554.586
1234 0 65.463 14.68 961 48.6306 1221.41 552.747
1235 0 67.4045 15.9485 1075 47.3479 1221.46 552.26
1236 0 66.4216 14.7844 982 49.3106 1220.56 552.591
1237 0 66.2855 15.1164 1002 49.3323 1220.7 552.342
1238 0 64.2189 13.0024 835 53.2731 1220.66 551.759
1239 0 67.2763 14.4182 970 51.5753 1220.69 551.01
1240 0 66.4721 13.2838 883 53.7769 1220.74 550.881
1241 0 68.3953 12.5008 855 54.9591 1220.38 554.22
1242 0 68.639 12.5293 860 54.936 1220.24 553.483
1243 0 70.28 12.934 909 54.9648 1220.05 553.755
1244 0 71.2888 12.7369 908 56.2004 1219.95 550.846
1245 0 73.2493 12.7373 933 56.1254 1220.33 550.701
1246 0 76.4857 12.7083 972 55.7274 1220.25 548.7
1247 0 79.4335 12.6521 1005 55.8915 1219.95 545.883
1248 0 81.3934 12.8143 1043 56.9223 1220.28 545.281
1249 1 44.2128 9.83877 435 59.3356 1220.12 563.598
1250 0 45.2747 9.89515 448 58.6518 1220.39 564.641
1251 0 46.319 10.8595 503 57.7913 1220.31 563.958
1252 0 48.1739 11.2717 543 57.6151 1220.77 562.138
1253 0 50.1101 10.7164 537 58.1862 1220.49 558.687
1254 0 50.0944 11.3386 568 57.9542 1221.27 551.736
1255 0 53.1313 11.8951 632 57.1725 1220.62 550.084
1256 0 55.1285 11.8995 656 57.0976 1221.12 549.532
1257 0 57.1561 11.4598 655 57.6962 1221.65 549.121
1258 0 57.1039 12.4335 710 57.2507 1221.06 551.099
1259 0 60.097 11.9806 720 57.25 1221.5 549.933
1260 0 60.108 12.4609 749 57.0961 1221.52 550.506
1261 0 65.0287 13.3787 870 55.346 1221.98 553.708
1262 0 64.0608 12.7535 817 56.9204 1221.62 553.04
1263 0 68.1857 13.6832 933 55.3258 1221.98 551.945
1264 0 70.1944 13.2347 929 56.1701 1222.08 550.788
1265 0 70.0596 12.6892 889 57.0664 1222.26 550.7
1266 0 72.2281 13.7343 992 55.9083 1222.69 547.1
1267 0 78.133 13.925 1088 54.8585 1222.87 546.958
1268 0 76.19 12.2982 937 57.6638 1223.62 544.923
1269 0 82.2833 13.2105 1087 55.8335 1224.15 544.444
1270 0 81.1799 12.6879 1030 57.3806 1223.48 542.65
1271 1 43.1467 9.82693 424 55.7807 1224.22 564.665
1272 0 42.164 10.1271 427 57.2108 1224.52 562.796
1273 0 47.2089 11.0149 520 56.0269 1225.06 562.629
1274 0 48.1267 11.3866 548 54.9872 1224.9 561.839
1275 0 48.1583 11.213 540 55.8407 1225.57 560.359
1276 0 48.2886 10.7686 520 56.2788 1225.95 559.9
1277 0 50.1264 11.8899 596 54.5872 1226.45 558.329
1278 0 52.1953 12.6256 659 53.4704 1226.36 557.499
1279 0 52.1712 10.8489 566 56.0212 1226.08 556.871
1280 0 55.156 10.9145 602 56.412 1226.02 556.42
1281 0 57.2216 12.3555 707 54.5446 1226.42 556.106
1282 0 59.2632 11.4405 678 54.8142 1226.73 556.136
1283 0 60.1982 12.5253 754 54.0584 1227.05 557.187
1284 0 60.1535 11.7699 708 55.8842 1227.42 553.963
1285 0 64.226 12.1135 778 54.536 1227.36 553.893
1286 0 63.2519 12.3474 781 55.5967 1227.08 551.702
1287 0 67.3011 11.7383 790 55.1658 1227.17 552.265
1288 0 69.3083 12.0909 838 54.8496 1227 551.722
1289 0 71.2857 14 998 52.7034 1227.2 549.936
1290 0 70.1519 12.2876 862 54.9698 1227.2 549.966
1291 0 72.1791 12.8015 924 54.1732 1227.52 547.398
1292 0 74.114 11.8871 881 54.8093 1227.37 545.716
1293 0 74.2499 12.1078 899 54.7853 1227.56 544.98
1294 0 75.1476 12.0962 909 55.0814 1227.67 544.509
1295 0 79.0936 11.8088 934 54.9101 1227.58 543.671
1296 0 82.2082 12.9671 1066 53.3818 1227.2 542.326
1297 0 82.2503 12.5349 1031 54.2532 1227.22 542.744
1298 0 83.3207 11.4017 950 55.6716 1227.09 539.601
1299 0 86.144 12.3978 1068 54.3661 1227.48 538.931
1300 0 88.2722 11.6571 1029 55.6657 1226.97 538.861
1301 0 92.2205 12.5026 1153 54.6409 1226.83 536.259
1302 0 92.1589 12.7497 1175 54.92 1226.81 536.769
1303 0 94.2764 12.5058 1179 55.0254 1227.13 534.108
1304 0 98.2862 12.6874 1247 54.9928 1226.61 533.566
1305 0 98.2114 12.5953 1237 55.6686 1226.75 533.2
1306 0 101.078 12.8218 1296 56.0023 1226.55 531.992
1307 0 103.348 13.0627 1350 55.6711 1226.76 530.793
1308 0 106.192 12.9294 1373 56.1661 1226.73 530.572
1309 0 111.214 12.9391 1439 56.376 1226.37 526.55
1310 0 114.205 12.8365 1466 55.9864 1226.19 526.013
1311 0 118.214 13.3825 1582 55.5278 1226.04 523.154
1312 0 120.218 12.4441 1496 57.004 1226.43 520.221
1313 0 124.33 12.9655 1612 56.5596 1225.56 519.06
1314 0 128.259 12.9659 1663 56.5568 1225.59 517.04
1315 0 134.336 13.3992 1800 55.6628 1225.46 514.471
1316 0 137.241 13.786 1892 55.4265 1224.94 515.982
1317 0 141.225 12.873 1818 56.2651 1224.93 513.187
1318 0 146.294 13.6574 1998 55.1231 1224.51 511.298
1319 0 146.19 11.1225 1626 57.9041 1224.22 516.55
1320 0 150.196 12.4437 1869 57.5179 1224.35 504.051
1321 0 155.367 13.4649 2092 56.9269 1223.87 505.476
1322 0 161.352 14.0749 2271 56.1295 1224.3 503.182
1323 0 165.459 13.7617 2277 56.8204 1224.37 501.365
1324 0 165.459 13.7617 2277 149.461 1224.37 501.365
1325 0 171.235 13.899 2380 56.5702 1223.98 498.203
1326 0 175.23 13.4395 2355 57.3567 1224.01 494.72
1327 0 181.319 13.843 2510 57.0578 1223.66 491.372
1328 0 186.296 14.332 2670 56.3742 1223.61 493.78
1329 0 189.332 13.8698 2626 57.5286 1223.34 488.372
1330 0 196.28 14.7646 2898 56.3192 1223.54 487.553
1331 0 201.228 14.6798 2954 57.0515 1223.38 483.899
1332 0 208.443 14.4932 3021 56.3357 1223.32 477.323
1333 0 213.245 14.6826 3131 55.8722 1223.61 477.222
1334 0 217.311 15.0061 3261 58.1705 1224.35 474.144
1335 0 227.251 14.7238 3346 57.9047 1223.89 471.77
1336 0 235.392 15.9903 3764 55.9644 1223.76 468.079
1337 0 243.355 15.8082 3847 56.2958 1223.4 460.517
1338 0 250.534 15.6067 3910 56.299 1223.76 461.265
1339 0 257.401 16.0605 4134 55.7598 1223.72 455.527
1340 0 264.397 16.1424 4268 55.5515 1223.41 450.347
1341 0 310.028 21.6174 6702 46.7793 1222.92 425.258
1342 0 307.758 21.0165 6468 47.7352 1222.97 414.274
1343 0 305.932 18.9192 5788 51.3022 1223.19 419.347
1344 1 82.1267 8.94959 735 58.5755 1222.3 546.657
1345 0 82.2182 8.96395 737 57.8616 1222.93 547.708
1346 0 84.1706 9.99161 841 57.1403 1222.35 546.65
1347 0 82.2474 9.44711 777 58.332 1222.17 547.996
1348 0 86.1641 11.246 969 58.0341 1221.74 544.745
1349 0 91.1516 11.9581 1090 56.5569 1221.81 545.293
1350 0 93.1457 12.1101 1128 55.6188 1221.32 543.457
1351 0 94.0691 11.5128 1083 56.6214 1220.92 542.506
1352 0 99.1029 13.4305 1331 54.3937 1221.09 539.859
1353 0 101.307 12.4967 1266 55.2615 1221.79 537.352
1354 0 106.161 13.1216 1393 55.1055 1221.33 537.902
1355 1 51.1041 9.72524 497 53.8592 1221.96 565.958
1356 0 51.038 9.38517 479 54.6994 1221.66 566.061
1357 0 52.0328 8.37933 436 54.3096 1221.31 548.761
1358 0 56.2161 11.0644 622 52.6093 1219.86 539.768
1359 0 54.169 10.578 573 52.9372 1219.56 511.642
1360 0 57.2024 10.1394 580 53.3534 1219.52 508.941
1361 0 59.1407 11.4811 679 51.9558 1219.43 510.781
1362 0 61.1851 12.1762 745 51.7517 1219.23 520.791
1363 0 63.2099 10.9951 695 53.3079 1219.49 520.932
1364 0 64.178 10.876 698 53.7937 1219.33 523.239
1365 0 66.1678 12.2718 812 52.5012 1219.31 523.963
1366 0 66.1236 10.8887 720 54.6111 1219.14 527.628
1367 0 67.1032 11.8027 792 54.3093 1219.45 526.91
1368 0 70.1748 11.2719 791 54.6802 1218.96 530.31
1369 0 73.1668 12.041 881 54.4745 1219.4 528.611
1370 0 74.1629 12.1085 898 55.5635 1219.34 526.512
1371 0 76.1821 13.2971 1013 53.9408 1219.4 529.905
1372 0 79.3679 12.4736 990 55.3444 1219.58 533.615
1373 0 80.3268 12.7604 1025 55.8224 1220.05 531.253
1374 0 83.2398 12.8424 1069 56.4724 1220.53 529.892
1375 1 45.1769 10.4035 470 57.066 1219.91 552.26
1376 0 45.1023 10.7755 486 57.5638 1219.43 550.971
1377 0 46.3304 10.7705 499 58.1463 1219.53 553.854
1378 0 49.1572 11.4937 565 58.3168 1219.33 555.338
1379 0 50.1568 12.0422 604 58.4222 1220.05 556.536
1380 0 52.1712 12.2673 640 56.7141 1220.18 554.648
1381 0 49.0646 10.9651 538 60.7862 1220.34 555.833
1382 0 54.1412 12.0426 652 55.9294 1220.54 556.873
1383 0 56.1358 13.1289 737 54.844 1220.55 563.077
1384 0 55.1432 12.4403 686 57.7843 1221.13 564.528
1385 0 58.1281 12.8681 748 57.8128 1221.19 564.295
1386 0 58.0836 11.845 688 60.1759 1220.72 563.433
1387 0 62.2281 13.0006 809 57.9555 1220.49 563.235
1388 0 61.1039 13.2397 809 59.2015 1220.28 561.6
1389 0 62.1572 12.5167 778 60.3303 1220.53 560.296
1390 0 68.0707 13.1481 895 58.7263 1220.63 559.074
1391 0 69.0994 14.5153 1003 57.0758 1220.24 556.871
1392 0 70.2219 13.1013 920 60.2663 1219.79 551.938
1393 0 72.2003 13.1163 947 60.2756 1220.35 552.729
1394 0 74.1609 13.228 981 59.5749 1220.76 551.859
1395 0 76.2054 13.4505 1025 59.4898 1221.01 550.105
1396 0 79.1683 13.7429 1088 58.8943 1220.97 550.142
1397 0 82.0831 13.9736 1147 58.3636 1221.19 549.108
1398 0 83.2476 13.8743 1155 58.8589 1221.21 545.738
1399 0 86.2597 13.3202 1149 59.5518 1221.02 541.499
1400 0 89.1964 13.6104 1214 58.6886 1221.05 542.709
1401 0 93.3051 13.7827 1286 57.9728 1221.19 542.327
1402 1 47.0623 9.66804 455 60.5253 1220.86 564.536
1403 0 50.0453 10.4305 522 59.2126 1220.93 564.605
1404 0 52.0572 11.91 620 56.6177 1221.55 564.069
1405 0 54.0773 11.9459 646 56.3978 1222.82 562.147
1406 0 55.0473 12.571 692 56.0997 1223.22 563.189
1407 0 59.1177 12.4666 737 56.0665 1223.41 561.161
1408 0 58.176 11.8262 688 56.9593 1223.76 562.517
1409 0 59.0866 12.5409 741 56.4953 1223.39 559.167
1410 0 63.1354 13.2572 837 54.7264 1224.08 557.963
1411 0 64.0985 13.4012 859 54.5064 1223.95 557.357
1412 0 66.1162 13.204 873 54.6747 1225.06 556.919
1413 0 69.0756 13.0582 902 54.1452 1224.89 554.83
1414 0 71.0472 13.484 958 53.381 1224.65 553.933
1415 0 73.103 14.6916 1074 52.2048 1225.07 553.819
1416 0 75.1037 12.3562 928 55.0744 1224.9 553.183
1417 0 75.1428 13.3346 1002 54.2465 1225.23 550.206
1418 0 79.0665 12.9638 1025 54.2156 1225.43 548.904
1419 0 80.0979 13.2713 1063 54.0038 1224.99 548.067
1420 0 84.1082 13.554 1140 53.507 1224.56 546.829
1421 0 86.1629 13.7066 1181 53.6749 1224.48 546.229
1422 1 46.1596 11.2219 518 54.0077 1224.54 565.108
1423 0 49.0878 10.9396 537 53.784 1224.77 565.121
1424 0 49.1648 10.3326 508 54.8209 1225.06 563.921
1425 0 51.0974 12.0358 615 53.3008 1224.93 562.821
1426 0 53.0759 12.9061 685 52.7285 1224.73 561.639
1427 0 53.1622 12.1891 648 53.4167 1224.59 562.358
1428 0 53.0931 12.092 642 54.0109 1224.84 562.391
1429 0 55.1054 12.3218 679 53.6981 1224.67 561.61
1430 0 55.053 11.5888 638 54.8668 1224.55 561.165
1431 0 58.1266 12.3868 720 53.95 1224.63 560.322
1432 0 60.1135 13.3581 803 52.7173 1224.46 559.493
1433 0 59.0978 11.9632 707 55.0792 1224.07 557.39
1434 0 63.1406 13.4145 847 53.9858 1224.1 558.732
1435 0 64.1427 12.4878 801 55.0999 1223.84 557.623
1436 0 67.1108 12.8891 865 55.259 1223.95 554.498
1437 0 69.0366 13.558 936 54.9402 1224.17 556.092
1438 0 71.0955 12.7434 906 56.6026 1224.25 553.438
1439 0 72.064 13.1133 945 56.4487 1224.01 553.969
1440 0 76.0264 12.8245 975 56.2687 1223.76 552.519
1441 0 77.0733 12.7152 980 56.9194 1224.28 550.764
1442 0 79.092 13.0734 1034 56.1857 1224.1 549.124
1443 0 84.0712 13.3339 1121 55.2507 1223.3 547.369
1444 1 43.0995 9.30405 401 58.1746 1223.64 568.244
1445 0 46.1034 9.50038 438 57.6575 1223.43 567.062
1446 0 48.093 10.5213 506 56.5336 1223.3 566.397
1447 0 48.045 11.3435 545 56.7193 1222.92 566.02
1448 0 51.1316 11.7735 602 56.6694 1222.49 564.164
1449 0 52.1611 12.0971 631 55.4849 1222.49 563.138
1450 0 54.1352 12.7089 688 54.3096 1222.44 563.696
1451 0 56.1351 11.6861 656 56.1494 1222.52 561.919
1452 0 57.2452 12.3329 706 55.6516 1222.42 561.156
1453 0 57.1695 12.4367 711 55.73 1222.45 561.07
1454 0 60.1372 13.8849 835 54.1246 1222.68 559.468
1455 0 61.0913 13.619 832 54.3305 1222.38 561.05
1456 0 64.1715 13.6665 877 54.5006 1221.77 558.852
1457 0 64.1288 13.0207 835 56.3413 1222.25 556.298
1458 0 66.1377 13.1997 873 56.2005 1222.08 557.41
1459 0 67.0538 12.6466 848 57.25 1222.14 555.495
1460 0 68.1675 13.2908 906 56.6082 1222.22 555
1461 0 72.1174 13.381 965 56.5689 1222.2 552.685
1462 0 73.1702 13.3251 975 56.1774 1222.42 551.906
1463 0 76.1299 12.9647 987 57.2553 1222.3 551.487
1464 0 77.2574 13.2026 1020 57.0922 1221.84 549.866
1465 0 81.1127 13.1299 1065 56.8545 1222.29 548.917
1466 0 85.1783 14.1585 1206 55.1899 1222.13 546.836
1467 0 87.2568 13.7525 1200 55.8792 1222.24 545.476
1468 1 45.0553 11.1197 501 55.1976 1222.58 568.846
1469 0 46.0819 11.3711 524 55.6298 1222.52 567.153
1470 0 49.1676 11.0439 543 56.1363 1222.19 566.742
1471 0 49.0192 11.3221 555 56.2865 1222.02 565.468
1472 0 51.0513 11.8116 603 55.5423 1221.36 565.604
1473 0 53.0339 11.8415 628 55.5414 1221.42 564.57
1474 0 53.034 12.7843 678 54.4041 1221.37 564.518
1475 0 57.0398 12.2371 698 55.0086 1220.44 562.473
1476 0 58.0945 11.7911 685 55.2993 1220.2 563.651
1477 0 60.0789 11.8511 712 54.8764 1219.56 562.032
1478 0 60.0229 11.8455 711 55.0985 1219.68 560.11
1479 0 66.0702 12.8954 852 52.5423 1219.97 559.252
1480 0 67.0989 13.0106 873 53.2428 1220.54 558.145
1481 0 69.0272 13.1977 911 53.5335 1219.95 556.271
1482 0 71.0582 12.5249 890 54.7404 1219.38 554.651
1483 0 73.0513 12.1148 885 55.078 1219.25 556.195
1484 0 76.1516 12.7115 968 54.5 1219.43 554.024
1485 0 78.1632 12.2692 959 55.3055 1219.32 551.965
1486 0 78.1021 11.9587 934 56.7527 1220.03 551.697
1487 0 82.139 12.9171 1061 55.0622 1219.92 552.183
1488 0 86.199 12.2275 1054 55.6461 1219.83 550.085
1489 0 89.1519 13.2246 1179 54.2952 1219.41 547.731
1490 0 93.2829 13.3143 1242 53.6731 1220.04 547.967
1491 0 94.1164 11.6027 1092 55.7885 1219.68 548.186
1492 0 97.2178 12.8577 1250 55.4032 1220.27 542.401
1493 1 50.1918 10.7986 542 54.1531 1220.99 567.277
1494 0 51.1949 10.3917 532 55.5733 1221 564.402
1495 0 54.1568 11.0051 596 54.9178 1220.2 563.953
1496 0 56.1251 11.3497 637 55.2951 1219.97 564.81
1497 0 59.1698 11.9487 707 53.9236 1219.79 564.433
1498 0 58.141 11.6957 680 55.8956 1219.33 562.247
1499 0 58.0787 12.6208 733 56.3111 1219.69 562.166
1500 0 60.1117 12.4269 747 56.1178 1219.93 562.656
1501 0 61.1816 12.2749 751 56.5526 1220.15 561.985
1502 0 62.2243 11.8121 735 58.3211 1220.66 559.122
1503 0 65.0519 13.3893 871 56.0918 1220.85 557.91
1504 0 68.1276 13.0197 887 56.3664 1220.9 559.406
1505 0 70.1971 13.6758 960 56.1198 1220.79 557.451
1506 0 70.1447 12.631 886 57.9199 1221.04 556.416
1507 0 72.1327 13.9327 1005 56.4925 1221.14 554.471
1508 0 76.3835 12.686 969 57.548 1221.24 553.951
1509 0 78.4689 13.2027 1036 57.0386 1221.39 551.364
1510 0 80.446 14.3326 1153 56.0746 1221.9 550.35
1511 0 82.1884 13.5299 1112 57.2599 1222.15 548.675
1512 1 42.0995 10.0951 425 58.2471 1222.52 569.388
1513 0 44.2614 10.4154 461 58.5249 1222.42 566.97
1514 0 45.2263 11.4314 517 57.7118 1222.92 566.565
1515 0 44.2014 10.9046 482 58.8942 1223.12 565.048
1516 0 47.0995 12.2931 579 57.6304 1223.53 566.007
1517 0 50.1679 12.9166 648 56.463 1224.04 565.491
1518 0 49.2108 12.0908 595 58.8958 1224.22 563.855
1519 0 52.1646 12.2305 638 58.2508 1224.61 563.724
1520 0 53.145 12.5129 665 58.0992 1224.77 561.821
1521 0 56.1915 12.582 707 57.9547 1224.75 561.126
1522 0 56.1618 12.6064 708 58.6088 1225.29 560.175
1523 0 60.2926 14.9935 904 54.3296 1225.53 556.25
1524 0 60.2761 13.4879 813 57.1415 1225.51 559.139
1525 0 60.3119 13.3639 806 58.0881 1225.58 559.104
1526 0 63.2539 12.7423 806 58.2357 1225.43 557.393
1527 0 66.246 12.5743 833 57.6675 1225.67 556.451
1528 0 66.3265 12.5139 830 58.294 1225.84 555.819
1529 0 69.4203 13.267 921 56.9913 1225.9 553.442
1530 0 69.3108 12.6099 874 58.4794 1225.99 553.989
1531 0 73.2049 13.4281 983 56.8932 1225.99 552.098
1532 1 39.1712 11.054 433 58.6351 1225.7 568.035
1533 0 40.144 11.3342 455 58.6264 1225.56 568.437
1534 0 41.3182 11.7866 487 58.4312 1225.77 565.696
1535 0 42.1283 11.9635 504 59.1429 1225.54 567.806
1536 0 43.085 11.1872 482 60.8942 1224.81 567.295
1537 0 46.2046 13.0506 603 59.01 1224.88 565.065
1538 0 47.1102 12.5238 590 60.0203 1224.61 565.205
1539 0 48.1106 11.9308 574 61.8746 1225.19 565.432
1540 0 49.0843 13.0184 639 60.7042 1225.17 565.405
1541 0 51.1269 13.0851 669 60.3901 1225.12 564.665
1542 0 53.1676 12.1126 644 61.9239 1224.99 564.949
1543 0 54.1035 13.5112 731 60.1819 1225.14 562.834
1544 0 56.1496 13.5709 762 60.2073 1224.97 560.472
1545 0 56.2036 12.775 718 61.8719 1224.97 558.351
1546 0 58.2317 13.5322 788 60.5063 1225.12 559.433
1547 0 60.2126 12.8046 771 61.8625 1224.97 557.323
1548 0 62.4828 13.7478 859 60.5378 1225.1 555.008
1549 0 63.2434 13.8354 875 60.5474 1225.21 555.302
1550 0 64.1873 13.1023 841 62.1403 1224.71 552.291
1551 0 68.2152 13.4867 920 60.8989 1224.99 553.471
1552 0 71.2199 14.041 1000 60.284 1224.03 551.193
1553 0 73.3201 13.0524 957 62.3647 1223.39 549.978
1554 1 36.0112 11.0799 399 63.5689 1223.47 568.519
1555 0 37.1372 10.3131 383 64.1671 1223.63 569.386
1556 0 40.1499 10.7099 430 63.4093 1223.41 569.167
1557 0 42.1562 11.5523 487 63.3018 1223.61 567.729
1558 0 42.2048 12.6526 534 62.8296 1223.58 567.732
1559 0 44.1325 12.4398 549 63.9344 1223.6 567.443
1560 0 44.2729 12.1293 537 65.0894 1223.09 566.171
1561 0 45.3753 13.5316 614 63.6775 1223.16 564.959
1562 0 47.1447 12.7904 603 64.9337 1223.04 564.876
1563 0 48.1627 12.9976 626 64.6486 1223.2 564.527
1564 0 50.2133 13.4028 673 64.7652 1222.62 562.207
1565 0 53.1933 13.1407 699 64.4263 1222.49 561.165
1566 0 53.0819 13.3002 706 64.5453 1222.26 561.16
1567 0 54.1603 13.2015 715 65.207 1221.98 561.221
1568 0 58.1933 14.6237 851 62.6863 1222.11 560.488
1569 0 59.1513 13.3049 787 64.8704 1222.13 559.206
1570 0 61.2041 13.3161 815 64.0761 1222.19 559.453
1571 0 62.2949 13.6608 851 63.8049 1221.68 559.264
1572 0 65.2095 13.357 871 64.1493 1221.28 558.013
1573 0 67.3023 14.5017 976 62.4119 1221.29 556.179
1574 0 69.2609 13.1965 914 64.3206 1221.03 556.128
1575 0 72.2944 14.0536 1016 63.0669 1220.97 555.048
1576 0 73.2841 13.9321 1021 63.6484 1221.03 554.684
1577 0 76.4732 13.9657 1068 63.6545 1221.33 552.241
1578 0 78.3236 13.1889 1033 65.0958 1221.21 551.058
1579 0 81.2988 13.0383 1060 65.4783 1221.09 548.903
1580 0 85.4567 13.1412 1123 64.7685 1220.53 547.765
1581 1 44.1278 11.1721 493 65.5882 1220.36 566.233
1582 0 45.2269 10.3699 469 67.0064 1220.88 568.527
1583 0 47.1508 12.1525 573 65.2461 1220.3 565.799
1584 0 48.1893 11.1436 537 65.8547 1220.37 565.104
1585 0 51.2574 11.3935 584 65.101 1219.75 564.442
1586 0 52.2797 12.1845 637 64.8414 1219.7 560.953
1587 0 55.3484 12.8098 709 63.7546 1219.75 560.388
1588 0 55.351 12.1226 671 64.6408 1220.5 560.803
1589 0 57.1392 12.4083 709 64.4316 1220.48 559.872
1590 0 60.3698 12.5559 758 63.3879 1220.56 558.825
1591 0 62.4144 12.1126 756 63.627 1221.47 558.718
1592 0 62.2728 12.6861 790 63.7354 1221.27 556.134
1593 0 65.1628 12.8141 835 63.1737 1221.12 552.311
1594 0 69.3787 12.8426 891 61.3895 1221.47 553.377
1595 0 72.5036 13.7235 995 59.8 1221.57 552.334
1596 0 73.4728 13.0524 959 60.5391 1221.56 551.52
1597 0 75.3345 12.6104 950 61.2179 1221.3 550.124
1598 0 77.2984 13.2603 1025 60.359 1221.08 548.397
1599 0 82.4675 13.5447 1117 59.376 1221.31 548.285
1600 0 83.3124 13.5634 1130 59.4991 1221.6 545.219
1601 0 88.4645 13.3161 1178 59.5187 1221.23 544.313
1602 0 90.5931 13.8642 1256 59.3782 1221.96 541.036
1603 1 50.3346 9.87392 497 60.8451 1221.84 565.543
1604 0 49.4588 10.6553 527 61.1006 1222.01 562.924
1605 0 49.2336 11.1915 551 59.833 1222.08 563.702
1606 0 52.598 11.6925 615 59.148 1222.09 562.58
1607 0 53.3051 12.5316 668 58.6841 1222.17 561.386
1608 0 55.452 12.2989 682 59.1129 1222.6 559.255
1609 0 54.297 11.2898 613 60.4878 1222.63 558.38
1610 0 60.6583 12.1006 734 58.9169 1222.41 557.387
1611 0 61.5649 12.7183 783 58.3857 1223.11 557.736
1612 0 61.4749 12.5905 774 59.1072 1222.97 557.065
1613 0 61.4749 12.5905 774 161.88 1222.97 557.065
1614 0 66.496 13.1737 876 57.5023 1223.68 554.177
1615 0 66.496 13.1737 876 161.962 1223.68 554.177
1616 0 71.4448 13.437 960 57.2208 1223.96 552.496
1617 0 71.4356 12.6268 902 58.8825 1224.82 550.676
1618 0 74.3416 13.6128 1012 57.416 1225.04 549.917
1619 0 77.2973 13.2993 1028 57.7753 1225.17 547.544
1620 0 80.4567 13.0753 1052 57.884 1225.86 546.536
1621 0 83.385 13.2158 1102 57.7069 1225.86 545.592
1622 0 84.3169 14.0185 1182 57.0888 1226.09 543.568
1623 0 89.6208 13.7357 1231 56.2307 1226.28 543.812
1624 0 92.5484 13.2147 1223 57.4113 1226.18 540.203
1625 0 93.5857 14.2971 1338 56.0762 1226.31 539.257
1626 0 98.5951 13.8141 1362 56.3554 1226.49 538.06
1627 0 99.4253 13.7088 1363 56.6493 1226.87 535.803
1628 0 104.575 13.55 1417 56.7756 1226.9 535.128
1629 0 105.637 13.679 1445 56.5675 1226.83 532.345
1630 0 107.543 13.6132 1464 56.9078 1226.79 530.81
1631 0 115.552 16.5207 1909 52.8172 1226.79 527.112
1632 0 122.564 17.6152 2159 50.8129 1227.18 524.135
1633 1 60.2085 11.1114 669 56.1794 1227.41 556.915
1634 0 62.3329 10.5402 657 57.6925 1227.21 555.683
1635 0 65.2292 11.2066 731 56.1245 1226.91 554.724
1636 0 65.2165 12.6962 828 55.407 1226.66 552.103
1637 0 69.2335 13.3028 921 53.9957 1226.97 551.376
1638 0 69.3961 12.4791 866 56.3129 1226.32 550.978
1639 0 72.2276 11.9345 862 56.478 1226.43 550.444
1640 0 74.425 12.9661 965 55.8642 1226.59 549.407
1641 0 75.4598 12.1654 918 56.5534 1226.1 546.709
1642 0 78.3821 12.7325 998 55.7996 1225.97 545.731
1643 0 81.2535 13.4763 1095 54.9379 1226.28 545.613
1644 0 83.2138 13.3271 1109 55.7106 1226.42 542.821
1645 0 86.5019 12.7512 1103 56.7298 1225.97 541.809
1646 0 89.3104 12.8652 1149 56.8573 1226.01 540.805
1647 0 90.2572 12.3314 1113 58.0512 1226.2 540.376
1648 0 96.3021 13.9665 1345 55.368 1226.09 538.28
1649 0 98.3508 12.8825 1267 57.135 1225.83 538.406
1650 0 99.2373 13.7146 1361 56.5107 1226 536.034
1651 1 54.2376 10.4724 568 57.5141 1225.49 559.6
1652 0 56.1071 10.4978 589 57.8879 1225.15 558.367
1653 0 58.1564 10.8672 632 56.9921 1225.19 558.551
1654 0 59.13 11.3141 669 57.0194 1224.77 557.581
1655 0 60.1656 12.8645 774 55.8475 1224.57 557.182
1656 0 62.1697 12.7232 791 55.6359 1224.31 555.814
1657 0 65.2017 11.9782 781 56.251 1224.38 554.037
1658 0 68.1142 11.8184 805 56.5938 1224.53 553.671
1659 0 70.0797 13.6416 956 54.5303 1224.38 553.004
1660 0 71.0655 12.7347 905 56.4199 1224.61 551.108
1661 0 73.1744 13.0784 957 55.8558 1224.36 550.645
1662 0 75.2072 13.4429 1011 55.6024 1224.17 545.824
1663 0 78.2877 12.9267 1012 56.2036 1224.22 545.883
1664 0 81.2463 13.416 1090 54.922 1224.11 545.377
1665 0 83.1487 12.9046 1073 56.3178 1223.27 542.856
1666 0 86.2094 13.0032 1121 56.1258 1223.56 543.176
1667 1 45.1416 10.2345 462 55.3636 1224.13 563.939
1668 0 45.0632 9.23149 416 57.2115 1224.05 562.245
1669 0 48.0373 10.4919 504 55.2321 1223.44 563.127
1670 0 49.0372 11.0528 542 55.0314 1223.81 562.162
1671 0 52.024 11.3986 593 54.4536 1223.89 561.369
1672 0 53.0837 12.2825 652 54.1104 1223.1 558.446
1673 0 55.0202 12.7408 701 53.6134 1222.54 557.244
1674 0 55.0866 12.3442 680 54.4235 1222.77 558.888
1675 0 57.0846 13.8216 789 52.9658 1222.73 556.011
1676 0 58.039 13.043 757 54.498 1222.51 555.845
1677 0 61.1032 13.109 801 54.3383 1222.49 556.542
1678 0 62.1384 13.1159 815 54.9963 1221.85 554.628
1679 0 64.0734 12.5169 802 55.4988 1221.81 554.076
1680 0 65.0981 12.3967 807 56.3346 1221.76 553.167
1681 0 67.1236 13.1399 882 55.7075 1221.45 553.382
1682 0 68.0891 13.218 900 56.5422 1221.69 551.467
1683 0 70.1039 12.7953 897 57.1906 1221.71 550.721
1684 0 72.1573 13.1934 952 55.6733 1221.82 550.851
1685 0 74.1138 12.5078 927 56.6429 1221.43 548.997
1686 0 77.2024 12.383 956 56.6967 1221.72 546.847
1687 0 79.1531 12.7348 1008 56.875 1221.07 547.322
1688 0 83.1669 13.0461 1085 56.494 1221.35 545.745
1689 1 45.0453 10.3229 465 57.4817 1220.63 565.596
1690 0 45.0529 10.6541 480 58.0146 1220.66 564.854
1691 0 47.0131 11.2735 530 56.9755 1220.85 566.091
1692 0 48.0547 11.8407 569 56.826 1220.55 564.924
1693 0 51.0482 12.067 616 56.9659 1220.71 563.138
1694 0 53.1155 11.5597 614 57.4625 1222.1 561.487
1695 0 55.1444 12.1499 670 56.6015 1221.67 561.507
1696 0 53.1681 11.8304 629 57.8045 1220.98 560.304
1697 0 58.1593 12.1563 707 56.8232 1220.73 560.103
1698 0 58.2018 12.8175 746 56.3177 1220.37 559.383
1699 0 61.1771 13.5018 826 55.1489 1220.17 558.895
1700 0 61.069 12.6251 771 56.5357 1220.31 558.475
1701 0 64.1466 13.1885 846 56.0733 1219.92 557.504
1702 0 64.054 11.9431 765 58.0824 1219.72 556.21
1703 0 67.1734 12.5943 846 57.0946 1219.6 555.377
1704 0 68.0712 13.2068 899 56.4327 1219.78 554.677
1705 0 70.0793 12.2575 859 57.3749 1219.65 552.804
1706 0 72.2005 13.421 969 56.3746 1219.33 552.563
1707 0 74.1524 13.0407 967 56.8314 1219.52 551.552
1708 0 75.1265 12.8716 967 57.5957 1219.44 549.33
1709 0 79.0684 14.1776 1121 55.7012 1219.77 548.819
1710 0 83.15 14.4077 1198 54.8347 1219.7 546.788
1711 0 85.1944 14.3906 1226 54.5783 1219.96 545.415
1712 0 88.1823 14.0845 1242 55.0298 1220.66 545.905
1713 0 90.3582 14.0109 1266 54.767 1220.44 540.893
1714 0 91.2284 14.1294 1289 55.3483 1221.16 544.428
1715 0 92.3179 14.9808 1383 54.9443 1221.25 541.738
1716 0 91.3169 14.7837 1350 56.4326 1221 540.695
1717 0 92.2289 14.4098 1329 57.4244 1221.44 539.424
1718 0 93.3609 14.2672 1332 57.3483 1221.33 543.051
1719 0 91.3105 14.5876 1332 58.1562 1221.47 540.949
1720 0 91.3105 14.5876 1332 167.354 1222.47 541.011
1721 0 90.2667 13.7814 1244 60.8754 1221.46 540.53
1722 0 92.1936 14.5346 1340 59.4925 1221.57 542.34
1723 0 93.3321 14.5609 1359 59.3569 1222.15 542.161
1724 0 93.2624 15.1079 1409 59.005 1222.31 541.342
1725 0 93.3626 14.5454 1358 60.3115 1222.61 541.241
1726 0 94.3465 15.3477 1448 59.7072 1222.47 540.291
1727 0 93.2397 15.0687 1405 60.7609 1222.65 540.041
1728 0 93.1595 14.9206 1390 60.9388 1223.08 539.744
1729 0 92.2398 14.2455 1314 62.1248 1222.89 539.434
1730 0 92.2835 15.0514 1389 61.6292 1222.92 541.531
1731 0 94.2523 14.3339 1351 61.792 1222.87 539.202
1732 0 94.1834 14.5886 1374 61.7533 1223.29 542.261
1733 0 95.3051 14.4798 1380 61.9384 1223.59 540.63
1734 0 96.1469 15.2787 1469 60.0769 1223.63 538.366
1735 0 96.383 14.9819 1444 60.2361 1223.6 539.587
1736 0 94.3172 15.5115 1463 59.7539 1224.11 540.183
1737 0 94.2632 16.6237 1567 58.1902 1224.27 540.805
1738 0 92.2217 15.723 1450 59.5697 1223.92 538.803
1739 0 92.2939 15.9599 1473 60 1224.37 539.251
1740 0 92.2154 15.1493 1397 61.6049 1224.81 540.375
1741 0 92.2855 14.4985 1338 62.843 1224.73 540.047
1742 0 93.2874 15.5434 1450 59.2172 1225.13 540.643
1743 0 93.231 15.3704 1433 59.6127 1225.56 540.637
1744 0 94.164 14.5597 1371 61.1692 1225.88 538.756
1745 0 93.2592 15.6017 1455 60.767 1225.85 538.731
1746 0 93.2861 15.0612 1405 60.5637 1226.21 538.559
1747 0 94.1934 16.2432 1530 58.8922 1226.99 537.057
1748 0 93.1227 15.0769 1404 61.0264 1226.65 537.298
1749 0 93.2073 15.2456 1421 60.9282 1227.05 539.102
1750 0 94.3268 16.0612 1515 59.6238 1226.92 538.31
1751 0 93.2458 15.561 1451 61.0703 1227.35 536.606
1752 0 92.1689 15.3197 1412 61.7925 1227.44 537.25
1753 0 95.2704 15.7971 1505 60.4512 1227.38 538.133
1754 0 95.2704 15.7971 1505 166.054 1227.38 538.133
1755 0 92.1417 15.1506 1396 61.9993 1227.54 537.259
1756 0 92.1614 15.3101 1411 62.0128 1227.35 536.707
1757 0 93.2611 15.848 1478 60.8823 1227.02 536.988
1758 0 94.2336 15.7905 1488 60.6163 1227.09 537.006
1759 0 91.2238 14.1959 1295 63.7691 1226.92 536.374
1760 0 94.3158 15.3845 1451 61.7305 1226.93 538.266
1761 0 91.1909 15.4621 1410 62.2021 1227.13 535.987
1762 0 90.1836 15.0803 1360 64.1904 1227.26 538.162
1763 0 94.2675 15.1378 1427 61.9755 1226.94 536.201
1764 0 90.2669 15.2326 1375 62.4378 1226.16 536.06
1765 0 91.1154 14.9042 1358 63.2062 1226.37 537.824
1766 0 92.1928 15.793 1456 61.4938 1226.46 536.272
1767 0 94.3097 15.3325 1446 60.9184 1226.12 537.112
1768 0 92.3031 14.6691 1354 62.6573 1226.26 537.589
1769 0 92.2604 14.8059 1366 62.2313 1225.96 537.251
1770 0 93.3559 14.5036 1354 62.3936 1225.91 538.835
1771 0 93.1377 15.6542 1458 61.0569 1225.91 536.857
1772 0 93.2237 15.6183 1456 61.6662 1225.63 535.849
1773 0 95.3027 15.6764 1494 61.1861 1225.87 537.423
1774 0 91.2815 14.8113 1352 63.2722 1225.39 535.851
1775 0 94.2059 16.4109 1546 60.7536 1225.4 538.294
1776 0 92.2408 16.793 1549 59.1382 1225.69 537.811
1777 0 91.2608 16.8966 1542 58.6258 1225.34 537.857
1778 0 93.2577 16.4169 1531 59.0202 1225.05 536.76
1779 0 93.1183 16.2052 1509 59.6143 1224.81 537.249
1780 0 93.0916 15.7157 1463 60.3158 1224.86 538.594
1781 0 93.2479 15.6572 1460 61.2959 1224.78 538.197
1782 0 93.249 16.3862 1528 60.0059 1224.78 538.82
1783 0 92.1298 15.9449 1469 60.7897 1224.97 540.024
1784 0 92.1702 15.428 1422 61.4515 1224.28 538.932
1785 0 90.1766 15.259 1376 61.3641 1224.3 538.569
1786 0 93.2918 15.8642 1480 60.1182 1224.14 539.273
1787 0 93.2918 15.8642 1480 167.473 1225.14 539.273
1788 0 91.1192 15.6059 1422 56.3833 1223.62 540.666
1789 0 93.2077 15.739 1467 60.8323 1223.84 541.685
1790 0 88.1779 14.5048 1279 62.9062 1222.98 538.769
1791 0 84.2843 14.8663 1253 65.7366 1223.29 541.18
1792 0 85.1149 15.4732 1317 65.6507 1222.47 542.929
1793 0 84.1125 15.0513 1266 165.758 1221.43 543.853
1794 0 87.168 14.8449 1294 66.0062 1222.39 543.508
1795 0 87.143 15.0901 1315 65.3757 1222.47 543.172
1796 0 86.2178 15.0085 1294 65.8439 1222.61 543.972
1797 0 87.0635 15.5174 1351 64.7972 1222.19 542.657
1798 0 88.1077 16.0031 1410 63.5511 1222.52 542.787
1799 0 89.1056 14.8588 1324 65.0302 1222.59 542.239
1800 0 89.1031 16.0152 1427 62.7737 1222.31 541.754
1801 0 89.1139 16.3274 1455 61.9863 1222.4 542.562
1802 0 91.2228 16.6515 1519 61.0928 1222.34 541.737
1803 0 92.1386 15.0751 1389 63.108 1222.37 541.38
1804 0 92.2574 15.4351 1424 62.1629 1222.55 541.475
1805 0 92.0845 15.6269 1439 61.5455 1222.53 540.213
1806 0 93.3364 15.2888 1427 61.4226 1222.63 542.405
1807 0 94.2063 15.9862 1506 60.3997 1222.62 540.142
1808 0 94.1663 15.3452 1445 60.7751 1222.45 541.966
1809 0 94.259 14.4814 1365 61.6696 1222.42 541.302
1810 0 96.2609 15.9151 1532 59.0111 1222.28 540.715
1811 0 96.1394 14.791 1422 60.5225 1222.61 540.191
1812 0 96.1515 15.6524 1505 59.2093 1222.19 538.894
1813 0 97.2422 15.847 1541 58.4666 1222.25 539.804
1814 0 98.273 16.4745 1619 57.7307 1222.51 538.838
1815 0 97.2558 15.5672 1514 58.8719 1222.98 539.15
1816 0 99.1326 16.2308 1609 57.6401 1223 537.634
1817 0 98.2666 15.5394 1527 58.7407 1223.31 538.227
1818 0 98.2666 15.5394 1527 164.445 1224.31 538.227
1819 0 99.1636 15.7719 1564 58.1605 1223.07 536.326
1820 0 99.2422 16.5252 1640 57.2201 1223.29 539.402
1821 0 100.239 16.361 1640 57.278 1222.57 536.286
1822 0 101.163 17.0516 1725 56.0742 1222.64 537.973
1823 0 101.18 16.7227 1692 56.5644 1223.01 537.879
1824 0 102.255 17.075 1746 55.9129 1223.18 537.061
1825 0 102.255 16.9479 1733 55.7513 1223.23 538.032
1826 0 100.177 17.5789 1761 55.7592 1223.04 537.183
1827 0 101.247 16.198 1640 56.8201 1223.37 537.72
1828 0 102.312 17.1535 1755 55.5385 1223.65 536.213
1829 0 101.18 16.0901 1628 56.6794 1223.97 536.668
1830 0 103.193 16.2026 1672 56.0538 1223.96 536.915
1831 0 102.143 16.4671 1682 55.8621 1223.85 535.75
1832 0 103.253 18.2271 1882 53.5659 1224.18 536.859
1833 0 103.396 16.6158 1718 55.3201 1224.07 537.563
1834 0 103.284 16.6144 1716 55.19 1224.23 534.896
1835 0 103.268 17.0237 1758 55.1433 1224.38 534.538
1836 0 102.144 15.9188 1626 56.2792 1224.84 535.17
1837 0 103.41 16.6426 1721 55.0936 1224.94 535.291
1838 0 102.188 16.0586 1641 55.8172 1225.67 536.11
1839 0 104.255 17.0736 1780 54.1579 1226 533.011
1840 0 105.188 17.654 1857 53.5579 1226.15 534.871
1841 0 103.237 16.8641 1741 54.5445 1226.26 531.836
1842 0 103.229 16.9526 1750 54.5606 1226.46 532.145
1843 0 102.406 16.8643 1727 55.0023 1226.08 531.859
1844 0 103.318 15.7669 1629 56.1172 1226.63 534.614
1845 0 105.255 16.9683 1786 54.2217 1226.68 536.243
1846 0 102.346 16.2586 1664 55.6677 1226.69 535.397
1847 0 105.413 17.1801 1811 53.7929 1226.91 536.008
1848 0 103.216 16.3153 1684 55.2625 1227.2 533.774
1849 0 104.225 16.2821 1697 55.3105 1227.28 532.83
1850 0 103.196 16.6867 1722 54.9617 1227.09 534.65
1851 0 103.403 16.808 1738 54.8562 1227.14 532.525
1852 0 103.244 15.6135 1612 55.8598 1226.98 532.239
1853 0 102.272 16.6419 1702 53.7544 1226.63 531.851
1854 0 101.148 15.6898 1587 54.9534 1226.53 532.338
1855 0 105.312 16.6269 1751 53.229 1226.58 532.492
1856 0 103.292 16.8067 1736 53.1941 1226.9 532.416
1857 0 104.232 17.3171 1805 52.3983 1226.95 533.799
1858 0 103.145 17.839 1840 52.1978 1226.94 532.054
1859 0 103.275 17.439 1801 52.457 1226.99 533.125
1860 0 105.328 16.6338 1752 52.8048 1226.77 533.432
1861 0 105.226 17.2676 1817 52.0385 1226.38 531.828
1862 0 105.319 17.1669 1808 52.3064 1226.36 532.553
1863 0 104.218 17.2522 1798 52.0818 1226.7 532.608
1864 0 105.26 17.1005 1800 52.0994 1225.82 532.836
1865 0 106.177 18.7517 1991 50.3893 1226.19 534.477
1866 0 103.133 17.3175 1786 52.5297 1225.7 530.841
1867 0 104.219 17.2522 1798 52.4438 1225.6 531.211
1868 0 107.32 17.8439 1915 51.0261 1225.62 532.845
1869 0 105.176 16.2869 1713 53.1232 1225.51 531.317
1870 0 105.163 17.9625 1889 50.7131 1225.65 531.182
1871 0 104.167 16.4543 1714 52.1721 1225.56 530.453
1872 0 105.298 17.5597 1849 50.7642 1225.36 530.64
1873 0 104.146 16.1696 1684 52.3527 1225.8 531.768
1874 0 105.197 17.472 1838 50.8885 1225.28 531.588
1875 0 105.166 17.3631 1826 50.6429 1225 532.927
1876 0 106.477 17.0553 1816 51.1795 1225.14 532.901
1877 0 106.477 17.0741 1818 173.468 1224.17 533.012
1878 0 103.325 16.0851 1662 52.5933 1224.79 531.973
1879 0 104.131 16.7481 1744 51.5545 1223.92 534.038
1880 0 103.264 17.6537 1823 51.0154 1223.54 533.886
1881 0 104.167 16.8191 1752 51.7506 1224.08 534.024
