time division length width area intensity CMx CMy
2110 0 52.0741 12.1366 632 55.394 1227.26 562.131
2111 0 53.1076 12.0698 641 55.9828 1227.52 560.863
2112 0 56.1804 12.6201 709 54.9704 1228 561.512
2113 0 58.1193 12.6292 734 55.2916 1227.64 558.533
2114 0 58.1845 13.0447 759 55.2503 1228.22 558.597
2115 0 59.1319 12.9203 764 55.8024 1227.99 555.364
2116 0 61.0585 12.4635 761 56.4468 1227.63 554.887
2117 0 63.1973 12.8012 809 56.0049 1227.69 555.19
2118 0 66.0752 13.0003 859 55.5215 1227.09 555.808
2119 0 68.1225 13.7399 936 54.7724 1226.7 553.104
2120 0 68.1662 12.8656 877 56.3717 1226.31 551.426
2121 0 70.1156 13.1497 922 56.2581 1226.14 552.473
2122 0 72.0843 12.0415 868 57.9228 1226.4 550.598
2123 0 76.1142 13.9396 1061 55.4486 1226.14 551.251
2124 0 79.1075 13.4627 1065 55.4019 1225.78 549.285
2125 0 81.1465 13.1121 1064 56.8665 1226.04 548.204
2126 0 82.1908 12.3858 1018 57.6405 1225.25 548.337
2127 0 85.187 13.5701 1156 56.3979 1224.66 545.144
2128 1 43.1233 9.83227 424 57.0613 1224.79 568.224
2129 0 45.0582 10.3866 468 56.9081 1223.99 565.244
2130 0 47.0346 11.4597 539 55.4434 1224.62 565.976
2131 0 46.1425 10.7927 498 56.5843 1223.69 564.797
2132 0 51.1747 12.2717 628 54.578 1224.26 564.506
2133 0 52.048 12.623 657 54.3257 1224.88 564.689
2134 0 50.0385 11.4912 575 57.2226 1224.86 562.202
2135 0 53.1015 12.4855 663 55.7149 1223.96 562.205
2136 0 55.0607 13.0038 716 55.1634 1223.53 562.197
2137 0 57.206 13.4776 771 54.4553 1224.1 563.468
2138 0 59.1268 12.989 768 55.1615 1223.61 561.017
2139 0 60.0728 12.9676 779 55.2054 1223.13 560.81
2140 0 59.1205 11.9248 705 57.0596 1223.19 558.356
2141 0 63.1234 11.9924 757 57.3765 1223.32 555.511
2142 0 65.0849 12.7065 827 56.3833 1223.27 558.349
2143 0 66.0705 12.0023 793 57.7831 1223.73 556.237
2144 0 69.2155 13.6964 948 56.0854 1223.88 555.565
2145 0 70.123 13.2339 928 56.9698 1223.25 554.383
2146 0 75.1451 12.8019 962 57.3545 1222.9 552.519
2147 0 78.2228 12.8096 1002 57.0679 1222.76 552.225
2148 0 80.2309 12.8005 1027 57.6261 1223.01 549.032
2149 1 42.0578 9.79605 412 59.0704 1222.22 568.381
2150 0 43.0313 9.8533 424 58.6108 1222.99 569.073
2151 0 43.0631 10.0086 431 58.8585 1222.39 568.93
2152 0 45.0514 11.2316 506 58.3636 1223.28 565.862
2153 0 45.0574 11.3855 513 58.731 1222.8 566.168
2154 0 48.2103 11.3669 548 58.0511 1222.75 564.885
2155 0 49.1788 11.997 590 57.1508 1222.68 565.183
2156 0 49.1569 11.9414 587 57.5997 1222.72 563
2157 0 52.1661 11.7893 615 57.4683 1222.66 563.532
2158 0 54.1217 12.6567 685 56.1036 1222.42 562.693
2159 0 55.1542 11.4407 631 58.1379 1222.42 561.677
2160 0 55.1206 11.9737 660 57.3758 1222.4 561.214
2161 0 59.1666 13.6564 808 55.2562 1222.22 561.157
2162 0 59.2187 12.361 732 57.0396 1222.06 560.68
2163 0 59.146 11.8689 702 58.3775 1222.2 560.023
2164 0 61.1707 12.9637 793 57.4023 1222.23 559.883
2165 0 64.1205 12.1178 777 57.6873 1221.72 558.988
2166 0 66.0895 13.5271 894 56.2696 1221.28 559.317
2167 0 68.2227 13.2947 907 56.4399 1221.19 557.562
2168 0 70.0338 13.622 954 56.066 1221.11 557.04
2169 0 72.0792 13.6378 983 56.4639 1221.07 555.435
2170 0 73.1261 13.1417 961 57.3361 1220.85 553.456
2171 0 77.0732 13.1952 1017 56.8319 1220.98 552.142
2172 0 78.1349 12.5808 983 57.5707 1220.27 552.245
2173 1 43.121 9.29941 401 58.2768 1219.86 571.948
2174 0 44.0416 10.5582 465 57.0301 1219.68 570.815
2175 0 45.0831 11.6673 526 55.2433 1221.08 571.059
2176 0 49.0237 11.1987 549 55.6466 1221.14 568.789
2177 0 49.0998 11.7312 576 56.2326 1220.25 567.278
2178 0 51.1542 12.5503 642 55.1153 1221.12 567.5
2179 0 52.101 13.0132 678 54.3156 1221.45 565.059
2180 0 55.0838 12.5808 693 54.8442 1221.72 566.101
2181 0 54.1275 12.1195 656 55.6601 1221.55 566.773
2182 0 56.1381 13.3243 748 54.5107 1221.3 565.439
2183 0 57.0853 12.2273 698 55.4599 1221.16 565.019
2184 0 59.0605 13.41 792 54.7121 1221.66 561.688
2185 0 61.0644 13.8706 847 54.1617 1221.92 563.419
2186 0 61.0513 13.3167 813 54.8844 1221.97 561.371
2187 0 64.1591 14.5887 936 53.5694 1222.31 560.132
2188 0 66.1084 13.2661 877 54.4584 1222.45 559.669
2189 0 67.1023 13.8147 927 54.4649 1222.52 558.173
2190 0 69.1407 14.4199 997 53.991 1222.92 556.429
2191 0 71.1129 13.3731 951 54.7277 1222.91 554.305
2192 0 74.0978 13.8331 1025 54.6546 1223.12 554.093
2193 0 76.1749 14.5061 1105 53.3303 1223.84 554.407
2194 0 78.0935 13.0741 1021 54.9902 1223.81 551.221
2195 0 80.0827 14.485 1160 53.1336 1224.02 550.447
2196 0 83.1632 13.9605 1161 54.4143 1223.91 547.189
2197 0 86.1677 14.6575 1263 53.4086 1224.11 546.271
2198 0 89.0717 14.4041 1283 53.4942 1224.11 545.404
2199 1 48.0806 10.2744 494 55.2085 1224.21 563.557
2200 0 50.0459 10.6702 534 53.3727 1224.55 565.496
2201 0 52.0422 11.6636 607 53.3262 1224.24 563.072
2202 0 54.0329 10.7527 581 54.3219 1224.48 562.709
2203 0 52.0601 11.4099 594 55.3872 1224.05 561.609
2204 0 59.0992 12.7244 752 52.508 1224.3 561.263
2205 0 58.0509 13.2125 767 52.8631 1223.99 560.525
2206 0 61.0804 12.5572 767 53.2999 1224.27 558.828
2207 0 61.053 13.1197 801 53.4045 1224.86 558.531
2208 0 64.1784 12.6834 814 53.5049 1224.82 559.356
2209 0 65.099 13.9941 911 52.685 1224.64 555.609
2210 0 68.1309 13.5328 922 53.0748 1224.93 555.815
2211 0 70.1252 12.2638 860 54.6081 1224.63 552.173
2212 0 72.1318 13.1981 952 53.8803 1224.86 552.895
2213 0 74.1556 12.8648 954 54.0398 1225.17 552.814
2214 0 75.1378 13.442 1010 54.2208 1225.14 551.789
2215 0 81.0993 13.1814 1069 53.9804 1225.13 549.554
2216 0 83.2103 14.0247 1167 53.4859 1225.38 543.452
2217 0 85.0422 13.2052 1123 54.8077 1225.72 543.329
2218 0 87.1961 13.1657 1148 55.2317 1225.94 542.389
2219 0 92.2399 13.9527 1287 54.0357 1226.39 540.678
2220 1 47.1176 10.7179 505 54.204 1226.84 565.877
2221 0 48.1045 11.7037 563 54.3908 1226.71 563.853
2222 0 48.148 11.4647 552 55.3007 1225.87 561.833
2223 0 52.1789 11.2498 587 55.1414 1225.83 561.838
2224 0 53.067 13.0778 694 54.0245 1226.37 561.669
2225 0 54.112 11.4947 622 56.0273 1225.92 558.114
2226 0 56.1064 12.1376 681 54.8737 1226.33 557.542
2227 0 58.1189 12.8874 749 54.3685 1226.31 555.151
2228 0 58.1549 12.2776 714 57.1821 1225.51 553.941
2229 0 60.1112 11.695 703 57.3385 1225.53 554.508
2230 0 63.1444 13.3028 840 55.7643 1225.37 551.689
2231 0 66.168 12.6647 838 55.8699 1225.18 551.964
2232 0 68.2332 11.7978 805 56.5255 1225.3 551.072
2233 0 71.2068 12.6673 902 55.7594 1225.58 548.682
2234 0 70.2249 12.3318 866 56.612 1225.32 547.596
2235 0 75.2431 13.3434 1004 55.239 1224.87 547.563
2236 0 78.1252 12.608 985 55.9492 1224.9 545.879
2237 0 79.1612 12.9104 1022 55.5793 1224.91 545.771
2238 0 83.1533 13.6976 1139 54.6778 1224.32 542.338
2239 0 85.2329 13.3751 1140 55.1912 1225.04 542.704
2240 1 46.0721 10.4619 482 55.8299 1224.97 563.929
2241 0 47.1588 10.6873 504 55.9405 1225.23 562.288
2242 0 49.0853 10.9198 536 55.0877 1225.01 563.09
2243 0 49.1118 11.6469 572 55.1556 1225.73 561.327
2244 0 49.1118 11.7691 578 154.993 1226.76 561.386
2245 0 53.0512 11.4041 605 55.086 1224.99 559.605
2246 0 53.086 12.3573 656 54.718 1225.16 558.116
2247 0 54.1284 12.3226 667 55.5007 1225.11 556.571
2248 0 58.0553 12.7981 743 54.5424 1225.13 556.616
2249 0 58.1029 12.7532 741 54.7314 1225.16 557.335
2250 0 59.1026 13.2651 784 54.7577 1225.12 554.224
2251 0 63.1039 13.0578 824 54.0692 1225.27 554.715
2252 0 65.1363 13.3259 868 53.4758 1225.27 555.184
2253 0 65.0575 13.1268 854 53.87 1225.16 554.828
2254 0 67.1596 13.6838 919 53.7486 1224.55 552.198
2255 0 66.0933 12.1949 806 56.4516 1224.64 552.019
2256 0 70.0359 12.6506 886 55.2223 1224.13 551.31
2257 0 74.0951 13.0238 965 54.058 1223.82 552.055
2258 0 76.0451 14.6229 1112 52.3237 1223.68 550.772
2259 0 77.2334 12.0932 934 55.6542 1223.34 546.611
2260 0 81.1407 12.6201 1024 54.9785 1223.96 546.506
2261 0 81.1407 12.5708 1020 163.569 1224.96 546.508
2262 1 45.0358 9.72559 438 55.9429 1224.88 565.438
2263 0 47.0415 10.225 481 55.6258 1225.33 564.8
2264 0 48.0616 10.8819 523 54.3728 1225.36 565.715
2265 0 48.0421 11.927 573 55.0838 1225.1 564.684
2266 0 51.0299 12.914 659 53.5933 1224.91 562.964
2267 0 51.0509 11.9293 609 55.1658 1224.74 562.018
2268 0 55.0749 13.7267 756 52.791 1224.81 561.149
2269 0 55.0901 12.7064 700 54.2514 1223.72 560.999
2270 0 57.0404 12.9557 739 54.3816 1223.51 559.277
2271 0 57.0248 12.7839 729 55.0261 1223.61 558.916
2272 0 59.0466 13.0914 773 54.7361 1223.44 558.317
2273 0 61.0546 14.2004 867 52.9942 1223.23 559.054
2274 0 61.0546 14.0366 857 157.62 1223.24 558.865
2275 0 65.0449 13.5137 879 54.0739 1223.83 556.866
2276 0 67.0531 13.2731 890 54.6854 1223.68 555.742
2277 0 70.0746 13.9708 979 53.7344 1223.3 555.17
2278 0 71.0636 12.9743 922 55.461 1223.25 552.428
2279 0 72.0953 13.926 1004 54.6205 1223.9 550.75
2280 0 76.1236 13.9904 1065 54.1587 1223.04 551.024
2281 0 75.1369 12.6303 949 56.3646 1222.97 548.77
2282 0 79.192 13.7766 1091 54.5399 1223.25 546.888
2283 0 81.1801 13.661 1109 54.9693 1222.8 544.799
2284 0 86.1065 14.8885 1282 53.4243 1222.69 543.029
2285 0 89.1587 13.1451 1172 54.7381 1222.42 544.962
2286 0 93.1355 14.6775 1367 53.0505 1222.31 543.122
2287 0 96.1385 14.2607 1371 54.0671 1222.73 540.915
2288 1 49.0899 11.2651 553 55.1555 1221.93 563.447
2289 0 51.0483 11.8515 605 54.7157 1221.96 562.159
2290 0 52.0395 11.6834 608 54.0855 1221.56 562.191
2291 0 54.0262 13.1418 710 53.3211 1221.6 560.575
2292 0 54.0424 13.878 750 53.128 1222.06 560.903
2293 0 57.0634 14.405 822 52.6727 1222.57 561.673
2294 0 57.1834 14.5847 834 53.4388 1222.82 561.253
2295 0 59.0621 12.9863 767 54.8018 1222.48 561.319
2296 0 57.1191 13.6557 780 55.0359 1222.18 561.01
2297 0 61.0639 13.8216 844 55.096 1222.43 559.916
2298 0 62.0786 13.7084 851 55.9659 1222.2 559.128
2299 0 63.0885 13.7902 870 55.5161 1222.4 560.455
2300 0 66.1208 13.7627 910 55.7385 1222.72 557.649
2301 0 68.0786 14.3511 977 54.8414 1221.62 555.908
2302 0 70.0543 14.1747 993 55.4723 1221.86 555.909
2303 0 72.0385 13.5344 975 56.4297 1221.8 553.748
2304 0 76.0635 14.5405 1106 55.019 1222.38 553.246
2305 0 77.0624 14.8581 1145 55.0769 1222.55 552.003
2306 0 80.0423 15.3294 1227 54.6112 1222.53 551.084
2307 0 82.0702 14.3779 1180 55.6356 1221.58 550.054
2308 0 86.1068 15.8176 1362 54.1872 1222.63 547.576
2309 1 44.0296 11.4014 502 57.512 1222.34 567.243
2310 0 46.0897 11.022 508 57.2657 1222.6 567.713
2311 0 49.0579 12.0877 593 56.5683 1222.23 565.742
2312 0 50.0848 12.6186 632 55.8228 1222.33 564.794
2313 0 50.082 13.0786 655 55.2137 1222.5 564.998
2314 0 52.0951 13.7441 716 54.7709 1222.77 563.645
2315 0 53.0837 12.8476 682 55.9912 1222.94 563.123
2316 0 54.0825 13.35 722 55.9515 1222.88 561.832
2317 0 57.0276 14.2037 810 55.137 1223.47 560.189
2318 0 58.1063 12.546 729 56.93 1223.68 560.425
2319 0 61.0868 13.4071 819 56.6068 1223.51 559.635
2320 0 64.0342 13.4928 864 55.978 1223.64 557.67
2321 0 64.0697 13.5009 865 56.4347 1224.09 557.05
2322 0 68.1248 14.0184 955 55.712 1223.89 556.128
2323 0 69.0931 14.0824 973 56.6074 1223.78 552.969
2324 0 73.0946 13.763 1006 56.3738 1223.82 552.606
2325 0 73.1547 13.1229 960 58.0167 1223.86 550.356
2326 0 77.0533 13.7567 1060 56.8311 1223.63 550.091
2327 0 78.0798 13.9601 1090 57.4743 1223.72 547.286
2328 0 81.0583 13.9653 1132 57.7845 1223.86 547.135
2329 0 85.1298 13.779 1173 57.6539 1224.18 547.49
2330 0 88.144 14.533 1281 56.9094 1224.54 544.383
2331 1 46.1101 11.9063 549 58.3024 1224.47 564.158
2332 0 47.0757 10.0901 475 60.0358 1224.52 563.886
2333 0 50.0493 12.188 610 57.6197 1224.51 563.616
2334 0 49.1125 11.5653 568 59.794 1224.56 561.004
2335 0 50.0558 12.4261 622 59.3569 1225.61 560.871
2336 0 54.0526 12.9688 701 57.8474 1225.43 561.417
2337 0 53.0778 13.7346 729 58.5652 1225.9 558.791
2338 0 55.0564 13.804 760 58.1618 1225.99 559.342
2339 0 58.0975 12.72 739 59.0149 1225.6 557.732
2340 0 58.0925 12.9621 753 59.3533 1226.06 556.823
2341 0 60.1363 13.0869 787 58.9123 1226.15 555.832
2342 0 63.0444 13.3874 844 57.8969 1226.21 555.225
2343 0 63.1165 13.7523 868 57.6094 1225.97 554.727
2344 0 67.0819 13.1928 885 58.1367 1226.05 552.22
2345 0 71.1064 14.8229 1054 55.5323 1225.87 550.724
2346 0 72.1324 13.4614 971 57.3924 1226.02 548.462
2347 0 73.0547 13.1135 958 57.6754 1226.42 549.793
2348 0 75.0546 13.5635 1018 57.2574 1226.61 547.565
2349 0 77.074 13.4027 1033 57.3437 1226.91 544.707
2350 0 83.1158 13.7038 1139 56.475 1226.88 544.102
2351 0 86.1558 13.6033 1172 56.4693 1226.86 543.614
2352 0 88.0788 12.1142 1067 58.5201 1226.82 542.846
2353 1 49.017 11.2002 549 57.3825 1226.57 560.976
2354 0 52.1011 12.2262 637 57.8069 1226.41 558.937
2355 0 53.291 12.0658 643 57.7123 1226.33 558.843
2356 0 55.0482 13.0976 721 56.5035 1226.6 555.716
2357 0 57.2559 12.907 739 56.7442 1226.41 556.574
2358 0 59.0315 14.433 852 55.2629 1226.14 556.144
2359 0 59.1517 12.6962 751 57.4447 1226.13 555.261
2360 0 61.0606 13.6094 831 56.503 1226.16 555.445
2361 0 63.0838 13.5058 852 56.7113 1226.26 553.031
2362 0 67.2034 13.3624 898 55.7294 1226.14 551.991
2363 0 67.2115 14.0006 941 54.7896 1225.42 552.584
2364 0 69.0568 13.8147 954 55.4329 1225.51 549.771
2365 0 71.067 13.0722 929 56.3305 1225.42 547.649
2366 0 71.0656 12.9317 919 157.714 1224.43 547.845
2367 0 75.1474 13.4402 1010 55.9653 1224.65 544.46
2368 0 80.208 13.5647 1088 55.0506 1224.68 545.82
2369 0 82.0999 12.8502 1055 56.1725 1224.84 543.615
2370 0 86.1566 13.6031 1172 55.291 1225.07 543.369
2371 0 90.1938 15.0675 1359 53.0802 1224.92 542.275
2372 0 93.2938 14.717 1373 53.6613 1224.74 539.736
2373 1 48.1468 10.7172 516 55.7558 1224.49 562.114
2374 0 50.1097 12.2531 614 54.3893 1224.11 559.824
2375 0 53.0525 11.4038 605 54.5653 1224.07 559.821
2376 0 54.1153 12.0299 651 54.1797 1224.12 559.833
2377 0 55.057 13.041 718 53.7493 1223.62 559.234
2378 0 56.0774 13.1247 736 53.9823 1223.71 558.185
2379 0 58.123 14.1252 821 52.5335 1223.56 558.245
2380 0 58.0881 12.2572 712 54.9115 1223.57 557.399
2381 0 60.1804 13.2601 798 51.386 1224 556.881
2382 0 63.1705 14.3738 908 50.4097 1224.29 556.569
2383 0 64.2252 13.9665 897 50.7202 1224.42 554.814
2384 0 65.0932 13.6113 886 51.184 1223.66 554.755
2385 0 66.2081 14.4091 954 50.2358 1223.82 554.002
2386 0 70.1589 14.1251 991 49.9334 1223.64 552.248
2387 0 73.2335 13.4501 985 50.401 1224.03 550.553
2388 0 74.3474 13.4369 999 50.4124 1223.83 549.909
2389 0 78.1491 14.4467 1129 49.5748 1223.86 547.526
2390 1 38.186 9.84654 376 50.8457 1223.9 568.878
2391 0 39.0647 9.82985 384 51.0443 1224.2 567.333
2392 0 42.1536 11.1971 472 49.5064 1224.04 565.627
2393 0 46.0931 11.6937 539 48.3173 1224.03 564.683
2394 0 46.0166 13.1474 605 47.5074 1224.4 563.585
2395 0 49.1472 12.8186 630 47.2778 1224.27 564.754
2396 0 46.1108 11.841 546 154.875 1223.28 563.053
2397 0 51.0815 13.7036 700 47.8157 1223.88 561.97
2398 0 52.0636 12.7344 663 48.552 1224.25 561.072
2399 0 54.1336 12.0443 652 49.339 1223.48 560.798
2400 0 54.0693 12.8354 694 48.9813 1222.98 560.689
2401 0 56.0843 13.6759 767 48.0574 1223.19 560.167
2402 0 57.0781 12.334 704 49.5412 1223.26 558.445
2403 0 61.1915 13.8908 850 47.6318 1223.11 557.425
2404 0 63.1487 14.2521 900 47.67 1222.61 556.842
2405 0 64.164 13.6993 879 48.2389 1222.28 556.684
2406 0 64.0847 12.6707 812 49.6379 1222.38 556.729
2407 0 65.0516 12.7284 828 49.6304 1222.52 556.307
2408 0 70.1248 14.6738 1029 47.9077 1223.23 554.723
2409 0 72.2125 13.3495 964 49.166 1222.68 553.662
2410 0 72.176 13.8689 1001 50.1339 1222.75 550.425
2411 0 77.086 13.7379 1059 49.6789 1222.68 550.466
2412 0 78.129 13.8617 1083 50.1311 1222.38 549.319
2413 0 82.1374 13.8183 1135 50.222 1222.4 549.035
2414 0 87.1906 15.0475 1312 48.8986 1222.87 547.491
2415 0 86.1492 13.3373 1149 51.1532 1222.34 546.311
2416 0 91.1321 14.4516 1317 50.0418 1222.48 544.219
2417 0 94.1836 15.5866 1468 49.0525 1221.77 544.687
2418 0 97.303 15.4363 1502 48.6518 1222.19 540.59
2419 1 52.1434 10.3369 539 50.3377 1221.9 565.182
2420 0 55.0511 11.6619 642 49.5623 1221.8 563.534
2421 0 57.1036 11.9257 681 49.3128 1221.23 563.27
2422 0 59.1729 13.2155 782 48.6125 1221.78 560.207
2423 0 61.0291 12.7808 780 48.5756 1220.88 561.969
2424 0 63.1742 13.9614 882 47.8844 1220.81 559.906
2425 0 65.1923 13.4678 878 48.2392 1221.21 559.894
2426 0 66.2169 13.7578 911 48.7333 1221.18 558.011
2427 0 68.1452 13.5593 924 48.6959 1221.18 557.234
2428 0 69.0698 14.6374 1011 48.179 1221.09 557.511
2429 0 72.0879 12.9009 930 49.6387 1221.12 556.768
2430 0 73.1675 12.8062 937 50.032 1221 554.838
2431 0 76.1024 13.2322 1007 49.9573 1221.33 552.68
2432 0 78.1222 13.5301 1057 49.9224 1221.43 551.028
2433 0 80.1799 14.3926 1154 49.1161 1221.51 550.667
2434 0 84.1744 14.1017 1187 49.7085 1221.84 547.799
2435 0 87.1753 13.9489 1216 49.3783 1222.11 547.862
2436 0 90.1752 14.0615 1268 49.9961 1222.48 545.553
2437 1 47.218 10.9916 519 50.5453 1222.41 567.173
2438 0 50.0277 11.5136 576 49.8681 1222.52 565.774
2439 0 52.0487 11.4892 598 49.6371 1221.63 566.204
2440 0 52.139 12.6968 662 49.9018 1222.13 562.583
2441 0 53.0516 13.4963 716 49.1355 1220.89 563.661
2442 0 56.0725 13.1972 740 49.5338 1221.22 563.192
2443 0 56.0963 13.2094 741 50.6302 1221.37 561.831
2444 0 59.1028 13.9418 824 50.1444 1221.64 559.306
2445 0 58.1532 13.0345 758 51.343 1221.69 558.883
2446 0 62.0898 14.2858 887 49.5107 1221.51 559.32
2447 0 65.2107 14.8748 970 48.6134 1221.6 558.319
2448 0 65.0972 13.5797 884 50.1425 1221.86 556.256
2449 0 67.1985 13.661 918 50.3932 1222.72 554.175
2450 0 68.1039 13.2298 901 50.7248 1222.85 552.093
2451 0 70.0907 13.0545 915 50.7585 1223.11 553.521
2452 0 74.1729 13.8056 1024 50.2588 1223.33 552.126
2453 0 75.2148 14.7976 1113 49.4394 1223.5 551.492
2454 0 78.0958 15.0584 1176 47.7449 1223.07 549.61
2455 0 79.0734 13.3167 1053 49.1111 1223.42 548.585
2456 0 81.0637 13.9273 1129 49.3826 1223.52 547.075
2457 0 83.1151 13.8362 1150 49.3957 1223.02 544.59
2458 0 87.1843 12.6399 1102 50.3648 1223.5 544.414
2459 0 90.1589 14.9847 1351 48.2635 1223.91 541.313
2460 0 93.2612 15.2904 1426 48.1809 1224.04 541.024
2461 0 95.2144 13.6114 1296 49.6944 1224.24 540.329
2462 0 101.26 13.9641 1414 49.2482 1224.55 540.287
2463 1 54.0692 12.9279 699 49.3705 1224.63 562.807
2464 0 55.2494 12.2173 675 49.5926 1224.86 562.043
2465 0 56.1283 12.9168 725 49.6221 1225.29 560.354
2466 0 60.1028 14.5085 872 47.7924 1225.4 558.396
2467 0 60.1823 14.5225 874 48.3604 1225.63 557.474
2468 0 60.1969 13.4891 812 49.9951 1225.36 556.682
2469 0 65.2402 13.9944 913 48.7985 1225.5 554.301
2470 0 67.1585 14.9646 1005 47.8328 1225.53 554.821
2471 0 69.1459 14.8093 1024 47.8965 1226 553.68
2472 0 69.238 15.1073 1046 48.1769 1226.3 550.705
2473 0 73.1259 14.646 1071 48.3016 1226.59 550.339
2474 0 75.092 13.3436 1002 49.497 1227.06 549.104
2475 0 77.2381 14.6948 1135 48.2969 1226.69 548.261
2476 0 81.2268 15.9553 1296 47.0154 1227.19 546.17
2477 0 83.1495 14.0951 1172 48.4667 1226.94 545.153
2478 0 86.159 14.2875 1231 47.7604 1227.04 545.421
2479 0 85.2991 13.5054 1152 49.2604 1226.97 540.917
2480 0 90.1668 13.7412 1239 48.5529 1226.93 542.429
2481 1 48.1201 11.305 544 49.3915 1227.69 563.228
2482 0 50.1407 10.67 535 50.3402 1227.33 561.108
2483 0 52.1798 11.9395 623 48.8042 1227.1 562.533
2484 0 55.1976 13.7506 759 48.2556 1226.51 559.041
2485 0 57.1464 12.2317 699 49.3476 1226.26 558.405
2486 0 57.1056 13.1511 751 49.3875 1226.27 556.915
2487 0 56.1211 13.8985 780 49.5962 1226.41 556.883
2488 0 61.0873 14.3892 879 48.5188 1226.44 557.126
2489 0 62.1017 14.589 906 48.9934 1226.03 555.098
2490 0 63.0485 15.9877 1008 47.495 1226.54 554.836
2491 0 67.1966 13.0959 880 49.75 1225.85 553.257
2492 0 67.1163 13.499 906 49.5143 1226.12 554.536
2493 0 69.4503 12.9157 897 50.7313 1225.93 552.972
2494 0 70.2946 14.738 1036 49.667 1225.91 550.46
2495 0 74.3101 14.8836 1106 49.2984 1225.68 550.241
2496 0 75.3443 14.6129 1101 49.9301 1225.92 550.939
2497 0 79.2134 15.7297 1246 49.0401 1225.54 548.039
2498 0 81.3257 15.149 1232 49.7622 1225.62 547.222
2499 0 85.2824 16.0408 1368 48.386 1225.25 547.292
2500 0 87.3215 14.0172 1224 50.8807 1225.43 545.083
2501 1 46.2128 10.4516 483 52.7723 1225.22 566.271
2502 0 47.1575 11.7479 554 52.4513 1225.15 564.509
2503 0 47.1134 12.3532 582 52.1392 1225.19 564.976
2504 0 50.0434 14.3276 717 50.5983 1225.04 564.056
2505 0 51.099 14.3056 731 50.8427 1225.06 563.241
2506 0 53.0148 15.0147 796 50.6482 1224.95 563.575
2507 0 52.0636 14.5207 756 51.9153 1224.53 561.84
2508 0 55.0965 14.6833 809 51.2361 1225.19 562.481
2509 0 56.0735 13.0186 730 53.6616 1224.97 560.715
2510 0 59.0568 14.5284 858 51.7203 1224.88 560.347
2511 0 60.0572 14.0366 843 52.3926 1224.98 560.361
2512 0 60.0918 13.3795 804 53.1331 1225.06 559.382
2513 0 63.1005 15.5942 984 51.1169 1224.82 557.874
2514 0 65.11 14.8211 965 51.8145 1224.88 556.249
2515 0 65.1043 13.8854 904 53.2235 1224.81 555.99
2516 0 69.1882 14.5256 1005 51.9731 1224.7 555.916
2517 0 71.1865 14.1319 1006 52.2475 1224.16 554.397
2518 0 73.1515 14.8049 1083 51.5596 1224.01 552.965
2519 0 75.325 15.2406 1148 51.5453 1223.9 551.625
2520 0 77.199 14.7929 1142 51.8975 1223.71 551.84
2521 1 38.1629 12.106 462 53.5909 1223.82 571.693
2522 0 39.034 11.6053 453 54.4702 1223.82 568.715
2523 0 39.0991 12.4811 488 53.9549 1223.94 568.586
2524 0 43.153 13.1161 566 52.871 1223.8 568.201
2525 0 43.112 13.3606 576 52.7292 1223.5 567.498
2526 0 44.0772 14.5654 642 52.1121 1223.38 566.226
2527 0 48.1396 14.9357 719 51.0904 1223.16 566.266
2528 0 47.1109 14.0944 664 52.6175 1223.19 565.245
2529 0 50.0756 12.9604 649 53.4838 1223.72 564.194
2530 0 51.1001 14.1878 725 52.1297 1223.39 564.269
2531 0 54.1293 15.0011 812 51.2377 1223.19 563.339
2532 0 55.0973 14.792 815 51.6221 1223.04 562.652
2533 0 55.1091 14.5711 803 52.3499 1222.86 562.054
2534 0 59.1115 15.3439 907 51.1687 1223.09 560.377
2535 0 61.054 15.1341 924 51.2013 1222.69 560.563
2536 0 62.1116 13.1698 818 52.9817 1222.59 561.286
2537 0 66.0338 14.5532 961 51.6972 1222.54 559.069
2538 0 68.0921 14.2895 973 52.6958 1222.58 557.914
2539 1 35.0192 12.9358 453 54.4967 1222.42 571.901
2540 0 34.0228 11.0514 376 56.3564 1222.53 571.949
2541 0 38.058 12.4284 473 54.3531 1222.46 572.137
2542 0 37.1829 11.7258 436 55.828 1222.33 570.933
2543 0 40.1831 12.0946 486 56.3498 1222.01 569.772
2544 0 38.1158 13.0655 498 57.1325 1222.19 568.476
2545 0 43.0686 14.117 608 54.4836 1222.29 569.541
2546 0 42.1039 14.8205 624 54.9712 1222.38 568.061
2547 0 42.0543 13.2923 559 56.8122 1222.22 567.617
2548 0 44.0443 13.5999 599 56.2404 1222.12 568.149
2549 0 45.3189 14.0339 636 56.4984 1222.17 567.064
2550 0 48.0973 14.0133 674 55.9599 1222.62 565.631
2551 0 47.0371 14.0953 663 56.8477 1222.55 565.837
2552 0 50.0786 14.0779 705 56.5319 1222.34 565.289
2553 0 53.1548 14.9751 796 55.1018 1222.46 564.534
2554 0 54.1032 15.1562 820 55.6146 1222.44 562.596
2555 0 54.1001 14.8798 805 56.2211 1222.19 561.734
2556 0 56.0903 14.3697 806 56.5099 1222.01 562.108
2557 0 61.3393 14.6562 899 55.7608 1222.13 561.964
2558 0 60.1339 14.4844 871 56.6188 1221.66 561.502
2559 0 62.0473 14.1988 881 56.9569 1221.65 559.087
2560 0 66.1588 14.5559 963 56.6116 1221.66 559.558
2561 0 69.1893 14.2652 987 57.4276 1221.66 557.35
2562 0 70.0759 13.6852 959 58.2127 1221.88 556.178
2563 0 75.1339 14.6938 1104 56.9266 1221.57 554.714
2564 1 38.1011 11.5482 440 60.7114 1221.56 571.232
2565 0 39.0695 14.0007 547 58.17 1221.33 570.907
2566 0 39.1049 13.8857 543 61.1584 1221.15 570.053
2567 0 43.2529 14.4961 627 59.2727 1221.24 570.485
2568 0 43.0549 12.937 557 61.9659 1221.5 569.287
2569 0 45.0588 14.0261 632 60.5902 1221.36 568.823
2570 0 46.1101 13.6846 631 61.084 1221.17 568.544
2571 0 48.1936 13.0308 628 61.9124 1221.29 568.003
2572 0 48.1258 14.6907 707 60.529 1221.1 566.499
2573 0 50.1172 13.7877 691 61.6729 1221.1 565.595
2574 0 52.0334 14.1255 735 60.7701 1220.95 565.155
2575 0 54.1328 14.5753 789 60.1825 1220.96 563.838
2576 0 56.056 14.1466 793 60.3594 1221.21 564.792
2577 0 55.0743 13.6361 751 61.5593 1221.14 562.798
2578 0 60.0937 14.7436 886 59.7054 1221.02 562.103
2579 0 62.1306 14.035 872 59.5 1220.92 560.968
2580 0 67.1315 15.9091 1068 56.5908 1220.52 560.084
2581 0 67.1315 15.9091 1068 159.735 1219.52 560.084
2582 0 71.1668 14.8665 1058 58.1408 1220.73 557.886
2583 0 73.099 15.1028 1104 57.846 1220.71 556.674
2584 0 76.0486 14.6091 1111 58.1773 1221.01 554.222
2585 1 41.1515 11.1782 460 61.5804 1220.4 570.089
2586 0 40.0566 11.5587 463 62.0173 1220.53 570.037
2587 0 42.2021 12.7956 540 60.0204 1220.49 569.139
2588 0 46.1236 13.4422 620 58.7435 1220.53 567.021
2589 0 46.0932 14.8829 686 57.2449 1221.02 566.545
2590 0 47.081 14.422 679 58.2872 1221.04 565.482
2591 0 49.1204 12.8053 629 59.5167 1220.96 566.409
2592 0 52.2553 13.855 724 57.7887 1221.36 565.496
2593 0 52.1128 13.8546 722 58.9224 1221.65 562.949
2594 0 52.1405 14.3267 747 58.3534 1221.43 562.573
2595 0 54.1588 13.922 754 58.504 1221.5 561.223
2596 0 56.1189 13.9525 783 58.493 1221.61 560.936
2597 0 58.1493 14.394 837 58.1983 1222.06 561.076
2598 0 61.1796 14.9887 917 57.313 1222.51 558.655
2599 0 64.2185 14.4818 930 56.9409 1222.88 556.182
2600 0 65.0714 13.9385 907 57.7189 1222.98 557.638
2601 0 67.1493 13.4923 906 58.7196 1222.94 554.712
2602 0 71.0413 13.9637 992 57.7117 1223.27 553.783
2603 0 71.1115 13.753 978 58.3783 1223.33 552.628
2604 0 76.0487 14.5433 1106 57.5561 1223.33 551.241
2605 1 38.1414 10.566 403 58.6824 1223.15 567.526
2606 0 40.1427 10.7616 432 59.0139 1223.74 566.961
2607 0 40.1427 10.7865 433 145.15 1224.76 566.972
2608 0 44.0138 11.2465 495 58.5354 1224.57 567.166
2609 0 42.0408 13.2728 558 58.2294 1224.66 565.005
2610 0 46.0667 11.5485 532 59.2556 1225.02 565.365
2611 0 45.1425 12.9811 586 59.0461 1225.46 564.645
2612 0 50.073 13.6001 681 56.8253 1225.64 563.791
2613 0 49.0814 13.773 676 57.7692 1226.28 563.883
2614 0 50.0703 13.1215 657 59.1202 1226 561.855
2615 0 52.0943 12.3814 645 59.8124 1226.3 560.605
2616 0 54.0272 13.049 705 59.6312 1226.34 558.733
2617 0 57.1853 12.2234 699 59.8956 1226.31 558.332
2618 0 57.078 13.9458 796 58.4347 1226.3 558.054
2619 0 57.1298 13.303 760 59.3053 1226.2 557.696
2620 0 59.1813 13.5178 800 59.1287 1226.35 555.335
2621 0 61.1035 12.6834 775 60.009 1227.03 553.052
2622 0 63.1244 13.212 834 59.8789 1226.63 551.496
2623 0 66.0901 13.5119 893 58.8611 1226.78 550.503
2624 0 69.1568 13.2308 915 59.2699 1227.2 550.251
2625 0 70.3183 13.3109 936 59.3365 1227.29 548.364
2626 0 74.148 13.8642 1028 57.5282 1227.46 550.95
2627 0 76.2211 13.6052 1037 57.2864 1227.42 548.314
2628 0 80.1157 14.0921 1129 56.837 1227.16 544.736
2629 1 43.056 10.2425 441 54.0045 1227.46 565.882
2630 0 43.044 9.08374 391 54.9258 1227.62 567.24
2631 0 43.1354 10.4091 449 53.9154 1227.4 565.481
2632 0 45.0933 11.7534 530 53.2774 1227.04 563.615
2633 0 47.0525 11.434 538 53.3346 1227 563.519
2634 0 46.0409 11.2726 519 53.7823 1227.47 562.179
2635 0 49.0487 10.8464 532 53.782 1227.48 562.273
2636 0 47.0338 10.3117 485 55.2866 1227.25 561.891
2637 0 51.0902 11.6461 595 53.3647 1227.06 561.025
2638 0 51.0902 11.6461 595 144.921 1227.06 561.025
2639 0 52.0509 11.1237 579 53.8066 1226.88 559.135
2640 0 55.1186 11.956 659 52.9939 1226.74 558.442
2641 0 56.0455 12.2044 684 52.8406 1226.89 557.246
2642 0 60.0294 11.9608 718 52.8175 1226.55 555.67
2643 0 61.0782 11.4116 697 54.0158 1226.24 554.562
2644 0 61.1967 10.2457 627 55.386 1225.9 553.989
2645 0 66.1872 11.4524 758 53.7889 1225.58 553.385
2646 0 67.1754 11.7156 787 53.8475 1225.92 550.464
2647 0 70.1182 12.0939 848 53.7358 1225.68 550.692
2648 0 72.1745 12.2897 887 52.9538 1225.63 551.115
2649 0 72.0985 12.0946 872 52.4014 1225.76 549.304
2650 1 39.1013 8.82324 345 52.0522 1226.1 566.383
2651 0 42.1598 10.3653 437 50.984 1226.02 566.014
2652 0 41.1764 9.27716 382 52.6911 1226.01 566.23
2653 0 42.2218 9.85274 416 52.9447 1226.24 565.382
2654 0 45.1056 11.1294 502 51.7689 1225.84 563.851
2655 0 47.1176 10.3995 490 52.5898 1225.29 562.041
2656 0 47.2604 12.082 571 51.8231 1225.53 562.893
2657 0 51.1431 11.634 595 51.3244 1225.36 564.103
2658 0 50.1201 10.7741 540 53.0537 1225.53 562.448
2659 0 51.2304 10.4625 536 53.4776 1225.12 561.771
2660 0 54.0942 11.8127 639 52.9468 1225.09 559.89
2661 0 53.1587 10.2147 543 54.6022 1225.31 560.941
2662 0 54.1111 12.5298 678 52.972 1225.29 558.813
2663 0 60.0747 13.0338 783 51.7178 1225.2 559.004
2664 0 59.1398 11.9378 706 53.5283 1225.01 558.129
2665 0 62.1402 11.6672 725 53.3159 1225.13 557.724
2666 0 63.1116 11.0915 700 54.2414 1225.21 555.633
2667 0 66.2512 11.5771 767 53.5437 1225.1 555.752
2668 0 69.2172 12.6269 874 52.0011 1225.53 555.812
2669 0 69.2888 11.6758 809 53.6193 1224.85 554.131
2670 0 72.3559 11.6507 843 53.7129 1225.01 550.132
2671 1 36.032 9.26954 334 53.8114 1225.65 567.865
2672 0 38.0129 9.6283 366 53.4126 1225.43 568.352
2673 0 39.0216 9.68695 378 54.2116 1225.18 565.847
2674 0 40.0325 10.3166 413 53.753 1225.35 567.608
2675 0 40.1079 9.94816 399 55.4035 1224.94 566.539
2676 0 42.2476 11.7166 495 53.2667 1224.62 567.149
2677 0 42.1468 10.6058 447 54.9329 1224.78 564.819
2678 0 46.0646 12.439 573 53.0332 1224.53 564.684
2679 0 45.1197 11.68 527 54.6565 1224.31 564.239
2680 0 49.0826 12.0002 589 53.8727 1224.27 565.136
2681 0 47.1657 10.8765 513 56.2495 1223.54 563.47
2682 0 49.1322 11.4589 563 55.7211 1223.92 562.385
2683 0 52.1133 12.3385 643 54.9378 1223.75 562.774
2684 0 52.0729 12.4057 646 55.291 1223.48 562.268
2685 0 53.0552 12.2137 648 56.4213 1223.58 561.691
2686 0 57.0574 12.7591 728 55.6676 1223.26 560.771
2687 0 57.0743 12.6502 722 56.7936 1223.45 559.778
2688 0 58.0897 14.185 824 55.4066 1223.15 559.875
2689 0 59.1267 12.1772 720 58.1625 1223.02 558.725
2690 0 63.0941 13.1549 830 56.3145 1222.77 558.749
2691 0 65.1068 12.948 843 56.4496 1222.76 558.142
2692 0 67.3378 13.1427 885 57.1277 1222.33 555.292
2693 0 69.1963 13.5123 935 56.9508 1222.22 555.655
2694 0 72.1151 13.631 983 57.0895 1222.19 551.759
2695 0 75.2157 13.5078 1016 56.4065 1222.26 554.483
2696 1 40.1628 10.557 424 59.4222 1222.42 569.554
2697 0 41.0871 11.6095 477 58.6268 1222.16 568.694
2698 0 44.1287 11.9197 526 58.4753 1221.81 567.401
2699 0 44.0339 11.8999 524 59.2844 1222.26 567.191
2700 0 46.1175 12.4898 576 58.2569 1222.41 566.083
2701 0 48.1277 11.6357 560 59.1107 1222.5 566.57
2702 0 49.1672 12.3253 606 58.2525 1222.16 565.345
2703 0 54.1015 12.9202 699 57.1545 1222.47 562.619
2704 0 53.0947 13.0333 692 57.6243 1222.57 562.939
2705 0 54.0734 13.4262 726 57.4449 1222.25 563.762
2706 0 56.0944 12.4611 699 58.681 1222.33 562.268
2707 0 58.0713 13.2423 769 58.1495 1222.37 561.204
2708 0 59.0985 13.7567 813 58.0098 1222.64 560.747
2709 0 60.0743 12.5678 755 59.2252 1222.74 558.744
2710 0 62.0753 13.983 868 57.8433 1222.65 556.25
2711 0 66.0891 12.8463 849 58.7326 1222.45 558.114
2712 0 69.1672 12.7373 881 58.2032 1222.11 557.977
2713 0 69.1238 12.6585 875 58.4994 1222.23 555.927
2714 0 70.0872 12.356 866 59.1097 1222.34 555.193
2715 1 41.0386 10.015 411 58.7664 1222.87 572.377
2716 0 41.0366 10.2591 421 58.0309 1223.12 570.366
2717 0 42.1026 11.9232 502 56.9124 1222.95 569.875
2718 0 43.0357 12.1295 522 57.4655 1223.23 567.72
2719 0 45.0561 12.0294 542 57.4354 1222.86 568.19
2720 0 47.0588 13.5363 637 55.1617 1222.87 567.713
2721 0 47.0782 11.8951 560 57.1375 1222.51 567.298
2722 0 51.0714 12.649 646 55.4768 1222.64 567.333
2723 0 50.0698 12.0631 604 57.2566 1222.5 566.035
2724 0 50.0422 11.89 595 57.7328 1222.58 564.659
2725 0 55.1113 12.6108 695 56.3496 1222.79 563.908
2726 0 55.0615 13.2034 727 56.4127 1222.59 562.199
2727 0 55.0615 13.2034 727 153.36 1223.59 562.199
2728 0 58.1534 13.8771 807 55.8947 1222.73 560.129
2729 0 61.1084 13.3206 814 56.4287 1223.01 559.33
2730 0 62.0844 13.7394 853 55.9988 1222.66 559.386
2731 0 66.1227 14.579 964 54.9658 1223.23 559.286
