time division length width area intensity CMx CMy
0 0 59.0412 12.957 765 73.2758 1365.23 570.865
1 0 60.047 13.4228 806 73.3511 1365.1 569.15
2 0 62.105 13.1068 814 73.5283 1365.04 568.564
3 0 64.1655 12.9509 831 73.5644 1365.05 568.179
4 0 67.0809 12.7756 857 73.1925 1365.04 566.719
5 0 70.1077 13.1655 923 71.9621 1364.76 565.467
6 0 74.1892 12.8051 950 71.4779 1364.58 565.688
7 0 74.1036 13.1168 972 71.9825 1364.61 564.405
8 0 78.0792 13.2942 1038 72.4017 1365.05 561.06
9 1 40.0487 10.637 426 74.8451 1364.9 579.92
10 0 43.0644 11.3086 487 74.0534 1364.71 578.565
11 0 46.1541 10.6166 490 73.2347 1364.89 578.488
12 0 47.1447 11.7086 552 73.5725 1365.02 576.062
13 0 48.143 12.3382 594 72.633 1364.65 576.29
14 0 49.0751 12.3688 607 73.0527 1364.58 574.746
15 0 51.0265 12.3465 630 72.3381 1365.04 574.544
16 0 53.0179 12.2412 649 73.2265 1364.92 571.581
17 0 54.1117 12.4188 672 72.4509 1364.91 573.321
18 0 56.1305 12.2928 690 72.7754 1364.91 572.259
19 0 57.0487 12.5857 718 73.2131 1364.82 570.57
20 0 59.0646 12.8842 761 72.6689 1365.36 569.38
21 0 61.0511 13.1038 800 71.9775 1365.28 569.966
22 0 63.0711 12.7 801 72.7441 1365.64 568.187
23 0 67.1103 12.7402 855 72.0082 1365.97 567.485
24 0 69.1805 13.79 954 70.522 1365.85 565.805
25 0 69.138 13.003 899 72.8098 1365.67 565.022
26 0 73.0839 13.2861 971 71.8054 1365.45 564.632
27 0 77.1951 13.2262 1021 94.7463 1365.54 563.763
28 0 77.1699 13.0232 1005 72.9542 1365.44 559.542
29 0 80.0818 13.199 1057 72.5885 1365.75 559.395
30 0 82.2621 12.679 1043 73.5302 1366.03 559.826
31 0 85.3481 13.6265 1163 72.1402 1365.79 556.42
32 0 87.1387 12.5891 1097 74.1331 1366.01 556.853
33 0 93.1481 13.0223 1213 72.4872 1366.21 555.384
34 1 46.1943 10.261 474 73.8734 1365.93 576.12
35 0 50.1363 11.2892 566 72.1749 1366.53 575.037
36 0 50.114 11.5138 577 72.539 1366.86 575.125
37 0 53.1371 12.1949 648 71.0617 1366.66 573.454
38 0 54.1448 12.3188 667 71.7076 1366.52 572.666
39 0 55.1441 12.3857 683 72.1157 1366.8 571.693
40 0 57.3501 12.8509 737 69.9701 1367.27 572.388
41 0 59.259 12.6394 749 70.6115 1366.74 570.8
42 0 62.2452 12.8363 799 69.3029 1366.92 569.26
43 0 64.2762 13.0997 842 69 1366.98 567.17
44 0 68.2625 13.0819 893 68.2273 1367.09 567.029
45 0 67.1575 12.8355 862 69.4501 1367.74 565.709
46 0 72.2799 13.4339 971 68.2101 1367.81 563.749
47 0 74.1504 12.9467 960 69.2271 1367.89 563.556
48 0 76.1028 12.5751 957 70.3783 1367.6 562.376
49 0 80.087 12.9234 1035 69.0715 1367.64 560.613
50 0 82.1857 12.4596 1024 70.0127 1367.34 559.067
51 0 84.1536 12.6673 1066 69.863 1368.12 556.453
52 1 41.0172 9.92267 407 68.8722 1367.34 578.646
53 0 41.0416 9.57565 393 70.7659 1366.81 577.463
54 0 44.027 10.8797 479 62.0271 1366.58 575.532
55 0 46.0658 11.1145 512 62.4199 1367.21 576.248
56 0 49.0308 11.7477 576 61.8108 1368.04 576.299
57 0 49.0359 12.705 623 61.3002 1367.93 574.393
58 0 48.0628 11.7971 567 62.0423 1367.77 574.757
59 0 52.0662 11.4278 595 61.7025 1367.67 573.024
60 0 53.0108 11.7523 623 61.6388 1368.34 571.689
61 0 54.0562 12.0245 650 62.3323 1368.41 570.345
62 0 55.0525 12.1884 671 62.5484 1368.37 568.288
63 0 58.0688 12.5541 729 61.6859 1367.59 568.272
64 0 60.0519 11.9896 720 62.6806 1368.18 566.903
65 0 62.1394 12.3593 768 62.3932 1368.47 565.961
66 0 62.2607 11.9337 743 63.424 1368.61 565.338
67 0 64.0707 12.7203 815 63.038 1369.23 563.429
68 0 67.1239 12.1715 817 63.3929 1369.73 563.404
69 0 70.0755 13.1858 924 62.2294 1370.36 562.534
70 0 70.1287 12.2774 861 63.6887 1369.62 560.821
71 0 73.3149 12.7805 937 63.0971 1369.85 560.3
72 0 75.115 13.4993 1014 62.6302 1370.32 557.666
73 0 76.1133 12.9938 989 63.7887 1370.46 558.355
74 0 80.3101 12.8004 1028 63.7247 1370.24 556.361
75 0 80.3949 13.5208 1087 63.6458 1370.67 554.456
76 0 84.3416 13.5402 1142 63.2627 1370.12 552.815
77 0 85.0631 12.8963 1097 64.4011 1370.82 551.742
78 0 90.2611 13.461 1215 63.3193 1370.35 549.563
79 0 92.1647 13.3782 1233 62.8143 1370.88 549.576
80 0 96.1381 13.0229 1252 63.4776 1370.77 547.427
81 0 98.2038 13.2989 1306 63.1738 1370.92 543.571
82 0 101.211 13.1112 1327 63.3474 1371.69 543.228
83 0 106.285 13.8683 1474 61.671 1372.03 541.887
84 0 110.171 13.6242 1501 61.9134 1372.09 539.522
85 0 114.13 13.6862 1562 61.098 1372.73 536.981
86 0 117.053 13.6861 1602 60.9988 1372.59 535.621
87 1 65.0744 10.4957 683 61.2958 1372.89 561.305
88 0 68.1106 10.7619 733 60.9809 1373.22 560.948
89 0 69.0336 11.5741 799 60.4243 1373.23 558.034
90 0 73.0464 11.8281 864 60.0475 1374.08 555.455
91 0 75.0852 12.1063 909 59.8977 1374.65 553.79
92 0 78.1374 12.5676 982 58.8595 1374.43 552.055
93 0 80.1298 12.1553 974 58.3172 1374.32 551.891
94 0 84.3057 13.3087 1122 56.8066 1374 549.409
95 0 87.0733 12.7823 1113 56.5723 1373.82 548.478
96 0 90.1239 12.9488 1167 55.5081 1374.1 545.757
97 0 93.0804 12.559 1169 55.651 1373.8 543.607
98 0 96.1734 11.6872 1124 55.9137 1373.32 544.535
99 1 53.0684 10.1567 539 55.3525 1372.58 562.755
100 0 57.0527 10.1485 579 54.8238 1372.84 562.763
101 0 57.061 11.146 636 54.5818 1373.6 561.189
102 0 60.113 12.1771 732 53.6776 1373.91 560.555
103 0 60.1523 11.554 695 56.4245 1373.55 558.499
104 0 65.2249 11.9586 780 54.9744 1373.37 557.195
105 0 66.2025 12.1143 802 55.7893 1373.77 556.075
106 0 68.2161 12.0353 821 56.0244 1373.66 556.185
107 0 69.1951 11.9373 826 56.8051 1373.87 553.587
108 0 72.0788 12.8054 923 55.7931 1373.84 552.922
109 0 75.1383 11.6053 872 57.2225 1373.94 552.948
110 0 76.3918 12.3835 946 56.982 1373.71 550.219
111 0 78.1524 13.2945 1039 56.3821 1373.09 549.66
112 0 81.1965 12.6853 1030 57.2573 1372.59 547.741
113 0 84.2124 12.7178 1071 56.788 1372.94 546.163
114 0 87.2501 12.2865 1072 57.2938 1372.63 546.37
115 0 90.1955 13.3377 1203 56.3857 1372.76 544.586
116 0 94.1228 12.4306 1170 57.4179 1372.84 540.77
117 0 96.3235 12.7487 1228 57.3909 1372.65 539.186
118 1 52.1268 10.1867 531 57.4539 1372.58 562.9
119 0 55.1244 10.9026 601 56.5341 1372.31 562.799
120 0 55.2285 11.208 619 57.0582 1373.06 562.559
121 0 58.0748 12.0534 700 57.6086 1373.76 560.714
122 0 61.0309 12.4363 759 56.8116 1373.62 560.493
123 0 61.2225 11.695 716 58.6075 1372.54 559.19
124 0 63.2359 12.2082 772 58.3744 1372.71 558.51
125 0 64.2011 12.1182 778 58.4589 1372.9 557.01
126 0 68.1126 12.6996 865 57.5017 1371.94 557.535
127 0 68.1126 12.6849 864 167.484 1370.94 557.476
128 0 73.1283 13.2097 966 56.4534 1371.83 554.369
129 0 73.1959 12.0772 884 58.4683 1371.73 554.008
130 0 78.078 12.9102 1008 57.1558 1371.36 551.905
131 0 79.16 12.9737 1027 57.8277 1371.65 551.086
132 0 81.1613 12.6538 1027 58.4382 1371.7 551.35
133 0 84.2041 12.826 1080 58.1296 1370.8 548.66
134 1 45.0186 10.5512 475 57.4737 1372.13 569.282
135 0 46.0386 10.0133 461 58.7332 1372.03 567.781
136 0 47.0148 10.9753 516 57.874 1372.21 568.401
137 0 50.0208 11.1354 557 58.1185 1372 568.325
138 0 51.1536 12.2572 627 55.1467 1371.01 566.772
139 0 52.1337 11.8158 616 55.5487 1371.1 565.023
140 0 51.1441 11.4383 585 56.8393 1370.58 564.234
141 0 51.1441 11.4383 585 150.357 1369.58 564.234
142 0 57.1273 11.5882 662 57.2039 1371.46 564.159
143 0 57.0863 11.2111 640 58.2141 1371.2 563.663
144 0 60.1527 12.5846 757 56.3712 1371.13 562.988
145 0 61.2252 11.8742 727 57.5983 1370.95 562.514
146 0 62.1785 12.2711 763 57.384 1371 563.21
147 0 66.1666 12.9521 857 56.4422 1370.58 560.644
148 0 67.2147 13.0477 877 56.6899 1370.3 559.603
149 0 69.1969 13.6856 947 56.0042 1370.1 559.423
150 0 71.2148 11.7251 835 58.7293 1370.2 560.267
151 0 74.1568 12.3927 919 58.6583 1369.72 556.838
152 0 75.2182 12.8028 963 58.8463 1369.15 554.639
153 0 77.2164 12.588 972 59.714 1369.2 554.308
154 0 81.2304 13.0493 1060 58.7811 1369.1 554.448
155 0 82.2977 12.4305 1023 60.5015 1369.39 553.364
156 0 85.238 12.9989 1108 60.2509 1369.9 551.977
157 1 48.2673 11.2499 543 59.1805 1370.06 571.339
158 0 47.1752 10.7048 505 61.2931 1369.77 570.386
159 0 48.277 11.2062 541 61.1386 1370.21 570.14
160 0 50.1985 11.8529 595 61.1748 1369.99 569.055
161 0 51.1368 11.7137 599 61.9382 1370.2 568.678
162 0 53.142 12.0997 643 61.0902 1369.77 567.398
163 0 54.1109 12.0309 651 61.765 1369.89 565.094
164 0 57.3013 11.553 662 62.8157 1369.69 566.254
165 0 58.201 12.1304 706 62.653 1370.25 563.343
166 0 59.2983 12.142 720 63.6875 1370.02 564.349
167 0 61.1407 12.3322 754 63.7334 1369.85 562.779
168 0 63.1759 12.8372 811 63.3921 1369.77 563.042
169 0 65.1622 12.9983 847 63.4085 1370.87 561.366
170 0 67.2676 11.982 806 64.7779 1370.64 559.721
171 0 68.4121 12.527 857 64.3629 1370.7 558.546
172 0 72.3427 12.5375 907 64.1929 1371.14 557.558
173 0 74.2697 12.872 956 64.0764 1371.54 556.065
174 0 74.3222 12.5804 935 65.1594 1371.28 556.275
175 1 41.1778 10.4911 432 64.8032 1372.44 571.461
176 0 41.2206 10.4317 430 65.4512 1372.36 570.4
177 0 43.1542 10.4045 449 64.7082 1372.77 570.272
178 0 46.168 11.3932 526 63.4601 1372.86 569.268
179 0 47.1425 11.6456 549 63.5993 1373.25 567.745
180 0 47.1575 11.2389 530 65.1981 1373.19 568.113
181 0 49.2043 11.0153 542 65.4022 1372.99 569.137
182 0 49.1883 11.8118 581 65.7935 1373.35 565.356
183 0 51.2746 11.2726 578 66.4152 1373.17 564.483
184 0 54.2297 12.4102 673 65.1902 1373.37 564.156
185 0 54.1715 12.0728 654 67.0872 1373.12 562.532
186 0 55.2332 12.2571 677 66.8936 1373.89 561.338
187 0 59.1417 12.2756 726 66.0179 1373.44 562.687
188 0 60.1329 12.5056 752 66.9441 1373.67 560.035
189 0 62.1483 12.2127 759 67.6877 1373.33 560.659
190 0 64.2135 12.583 808 67.125 1374.16 558.485
191 0 65.1504 12.5402 817 67.9731 1374.15 557.668
192 0 65.2452 12.2614 800 68.2375 1374.28 556.854
193 0 65.2452 12.2308 798 160.65 1374.29 556.786
194 0 73.1994 12.664 927 65.1305 1374.49 555.17
195 0 72.1713 12.1655 878 65.6845 1375.02 555.005
196 0 75.2015 12.1939 917 64.9662 1375.03 552.484
197 0 79.1531 13.1138 1038 64.2486 1375.42 551.936
198 0 81.1192 12.2782 996 66.7892 1375.26 550.443
199 0 83.1897 12.7299 1059 67.728 1375.43 549.246
200 1 46.0979 10.4994 484 69.8099 1376.45 567.395
201 0 48.1994 11.3694 548 69.5602 1376.48 565.693
202 0 47.1019 11.1248 524 71.4427 1376.73 564.99
203 0 50.0972 11.9567 599 70.4441 1376.51 563.708
204 0 53.0422 12.6692 672 68.756 1376.13 565.027
205 0 53.0891 12.0552 640 71.0656 1375.47 563.095
206 0 54.123 12.3238 667 71.1439 1375.91 562.138
207 0 55.2347 12.5646 694 71.6455 1375.78 561.744
208 0 59.1994 11.7569 696 71.4741 1375.77 561.293
209 0 61.2515 13.0119 797 69.7215 1375.76 559.753
210 0 61.1501 12.7718 781 71.0909 1375.78 557.894
211 0 62.2369 11.8097 735 73.0694 1375.26 557.135
212 0 64.1611 12.6712 813 71.7146 1375.33 556.738
213 0 67.3157 12.6122 849 71.5807 1375.22 555.773
214 0 70.1275 12.7625 895 70.8101 1375.33 555.587
215 0 71.3045 13.267 946 70.74 1375.48 553.699
216 0 73.2071 13.455 985 70.0893 1375.66 553.531
217 0 73.2064 13.5644 993 71.2638 1375.12 551.017
218 0 77.2175 12.9504 1000 71.647 1374.8 549.687
219 0 79.1846 12.7297 1008 72.7331 1374.89 548.434
220 0 81.1934 13.1045 1064 72.2303 1374.89 548.769
221 1 44.166 10.4605 462 73.5152 1374.79 566.814
222 0 44.166 10.37 458 177.19 1373.78 566.803
223 0 47.1516 10.5617 498 72.9779 1374.97 567.659
224 0 48.0456 10.9063 524 72.7538 1374.82 567.282
225 0 48.0509 11.8 567 71.7249 1374.51 565.328
226 0 53.0392 11.9157 632 70.4747 1374.18 563.234
227 0 52.0322 12.7229 662 69.5619 1373.81 563.539
228 0 53.1024 12.4476 661 71.2708 1373.61 564.179
229 0 57.0963 13.0657 746 68.6515 1373.03 562.016
230 0 57.2153 12.7588 730 70.0438 1373.31 560.652
231 0 60.0942 12.9297 777 69.2098 1373.32 560.396
232 0 60.1755 13.0618 786 70.299 1373.08 559.911
233 0 62.0656 12.7768 793 70.9798 1373.33 559.637
234 0 63.0948 13.3767 844 70.2796 1373.11 557.914
235 0 65.0949 13.3344 868 70.0438 1372.32 557.668
236 0 67.1238 13.2442 889 70.1564 1372.09 556.296
237 0 69.1815 13.0093 900 70.4967 1371.92 556.18
238 0 73.0774 13.4104 980 69.4959 1371.95 553.56
239 0 73.1346 14.0836 1030 68.0971 1372.43 554.614
240 0 76.2985 13.4865 1029 68.7017 1372.58 553.384
241 0 79.2057 13.3197 1055 68.8142 1372.45 552.268
242 0 81.2299 13.6034 1105 68.0208 1372.41 550.831
243 1 39.1266 10.3255 404 68.9802 1372.42 571.693
244 0 41.0803 10.7594 442 68.3575 1372.19 570.794
245 0 44.0216 11.7215 516 67.1395 1372.44 569.5
246 0 44.0257 11.2889 497 67.8753 1372.08 568.203
247 0 48.1752 12.2677 591 65.9746 1371.74 566.46
248 0 48.1752 12.33 594 164.569 1370.75 566.377
249 0 48.1887 12.7416 614 65.9723 1371.71 565.658
250 0 51.1703 11.7256 600 66.6133 1372.1 565.558
251 0 53.3286 12.1511 648 65.5926 1372.09 563.566
252 0 55.1857 12.8657 710 63.9775 1372.11 563.063
253 0 56.1229 12.0985 679 65.081 1372.62 563.034
254 0 58.1353 12.4193 722 64.7452 1372 561.193
255 0 58.223 11.8166 688 65.6105 1372.16 560.991
256 0 61.1519 12.9514 792 63.8093 1372.88 559.943
257 0 63.1775 13.0901 827 63.7158 1372.91 560.133
258 0 65.1883 12.6403 824 63.9745 1372.75 560.024
259 0 66.3338 12.8743 854 63.9368 1372.74 557.612
260 0 71.1682 12.5337 892 63.2141 1372.26 557.631
261 0 72.1052 13.4387 969 62.6718 1372.35 555.676
262 0 72.2665 12.786 924 63.803 1372.14 555.734
263 0 76.1416 12.9496 986 63.2312 1372.66 554.678
264 0 79.1001 13.2743 1050 62.9029 1372.27 552.553
265 0 80.2229 12.6772 1017 64.2793 1371.54 551.289
266 0 84.1881 12.9709 1092 64.1969 1371.71 551.036
267 0 87.2097 12.8197 1118 64.5161 1372.28 549.313
268 0 91.276 13.5961 1241 63.0492 1372.66 547.346
269 0 92.3149 13.1506 1214 64.2694 1372.59 546.673
270 0 96.1524 12.6466 1216 65.2985 1372.76 544.593
271 0 97.1304 13.034 1266 64.782 1372.6 542.167
272 0 103.215 13.2635 1369 64.2505 1373.01 540.468
273 0 105.163 13.151 1383 64.7737 1373.08 538.789
274 0 108.134 12.8637 1391 65.67 1372.83 536.012
275 0 112.137 13.5192 1516 65.0231 1373.09 534.691
276 0 116.194 13.727 1595 64.5655 1373.35 531.589
277 0 120.406 13.4296 1617 64.9938 1373.57 532.924
278 0 125.376 13.9022 1743 64.5158 1373.46 527.09
279 0 130.179 13.8655 1805 64.313 1373.41 526.93
280 0 133.147 13.5639 1806 65.0543 1373.6 523.21
281 0 140.279 14.5495 2041 63.0162 1373.55 519.857
282 0 143.17 13.7808 1973 64.7309 1373.72 517.437
283 1 81.0984 11.8621 962 65.817 1374.03 548.597
284 0 82.1511 10.785 886 67.4831 1373.88 547.93
285 0 88.1945 11.8942 1049 65.6311 1373.6 545.806
286 0 92.1696 11.4246 1053 66.283 1374.06 545.195
287 0 94.1653 12.2657 1155 65.7403 1373.94 542.066
288 0 99.1711 12.3826 1228 65.6344 1374.18 539.713
289 0 102.2 13.0431 1333 65.4089 1374.77 537.02
290 0 107.133 13.488 1445 64.2478 1375.07 534.104
291 0 111.172 13.0968 1456 65.1387 1375.22 533.321
292 0 114.189 12.8997 1473 66.1412 1375.53 532.345
293 0 118.154 13.5671 1603 64.9145 1375.96 527.853
294 0 124.156 13.636 1693 64.1861 1376.28 529.077
295 0 126.313 13.1815 1665 65.3742 1376.52 525.409
296 1 70.3133 10.9652 771 65.2023 1376.15 553.962
297 0 72.2565 11.9436 863 64.7972 1376.21 552.232
298 0 75.1901 11.5042 865 65.0601 1376.85 551.803
299 0 78.152 12.4245 971 64.2358 1376.62 549.122
300 0 80.1646 12.7737 1024 63.6934 1377.18 549.604
301 0 83.3108 12.3633 1030 64.0379 1377.17 547.97
302 0 85.2829 12.0423 1027 64.6495 1377.28 546.394
303 0 90.27 12.8836 1163 63.3594 1377.15 544.636
304 0 92.3113 12.6745 1170 63.4103 1377.34 543.374
305 0 95.246 12.473 1188 63.9975 1377.41 540.663
306 0 98.2327 12.4704 1225 63.3567 1377.52 540.046
307 0 102.166 12.881 1316 62.7979 1377.25 536.761
308 0 104.35 12.9947 1356 62.3466 1377.15 536.876
309 0 109.333 12.4482 1361 63.3071 1377.27 531.508
310 0 114.313 12.0634 1379 63.182 1377.91 531.221
311 1 62.2463 10.3781 646 61.7895 1376.72 555.851
312 0 64.2072 9.92101 637 62.0534 1376.38 556.619
313 0 66.2664 11.2727 747 60.3414 1376.66 554.918
314 0 69.32 12.0312 834 59.506 1376.59 553.568
315 0 69.214 11.8329 819 60.7033 1376 551.284
316 0 72.2462 11.9591 864 60.3981 1376.39 552.256
317 0 73.365 12.0357 883 61.1982 1376.34 549.343
318 0 74.2973 12.4904 928 60.4494 1376.08 549.683
319 0 79.3297 12.0888 959 60.9666 1376.03 548.208
320 0 81.188 12.9329 1050 60.4095 1376.81 545.66
321 0 83.183 12.8271 1067 60.9325 1375.96 546.161
322 0 87.3164 12.9529 1131 60.794 1376.26 544.763
323 0 88.2631 13.2218 1167 60.8475 1376.05 543.818
324 0 90.1312 12.4263 1120 62.492 1376.32 541.946
325 0 90.1312 12.382 1116 166.577 1376.32 541.929
326 0 99.3188 13.1294 1304 61.4233 1376.26 538.456
327 0 102.314 12.7744 1307 61.8424 1375.78 536.248
328 1 51.2681 10.1623 521 61.9271 1375.91 562.248
329 0 53.1806 11.3199 602 60.6013 1375.12 560.93
330 0 54.1624 10.5239 570 61.4404 1374.77 561.151
331 0 56.0745 10.4147 584 61.8442 1374.8 560.481
332 0 58.1992 11.8558 690 60.1116 1374.51 557.97
333 0 60.2042 11.5274 694 60.4179 1374.75 557.942
334 0 60.2452 11.171 673 61.3492 1375.23 557.777
335 0 63.2049 12.3725 782 59.6189 1375.18 556.775
336 0 65.231 11.7429 766 60.2102 1374.73 557.211
337 0 66.2102 12.7926 847 59.6222 1374.66 555.014
338 0 69.1703 12.78 884 58.7681 1375.75 554.913
339 0 70.0983 12.3969 869 59.855 1375.06 554.835
340 0 71.1613 11.9306 849 60.7856 1374.61 553.171
341 0 74.3115 12.6629 941 59.83 1374.2 551.535
342 0 76.2533 12.1044 923 60.4615 1373.71 549.358
343 0 79.2051 12.2719 972 60.4342 1373.77 549.925
344 0 79.2051 12.2719 972 162.087 1374.77 549.925
345 1 42.2871 9.19903 389 61.6864 1374.14 566.429
346 0 42.2871 9.15173 387 160.261 1372.12 566.222
347 0 45.1832 10.4242 471 61.138 1374.23 565.244
348 0 47.1444 11.1572 526 59.9715 1374.1 565.382
349 0 48.1504 10.218 492 60.9695 1373.98 564.374
350 0 51.1579 11.0833 567 59.3298 1373.82 563.39
351 0 51.35 11.7235 602 59.6329 1373.68 562.018
352 0 52.2168 11.548 603 60.0962 1373.84 562.335
353 0 53.3203 11.8154 630 60.4683 1373.8 562.284
354 0 57.2198 12.1112 693 58.9206 1374.19 561.596
355 0 57.3324 11.7734 675 60.2148 1374.06 560.567
356 0 61.229 12.0041 735 58.7714 1374.18 561.212
357 0 61.4282 12.307 756 59.254 1374.44 559.184
358 0 63.3237 12.3808 784 59.5115 1374.73 559.562
359 0 64.1578 12.4225 797 59.8281 1374.58 556.529
360 0 68.2193 12.0494 822 60.1411 1374.71 556.164
361 0 70.1827 12.5387 880 59.8693 1374.51 554.397
362 0 71.3792 11.7121 836 61.2333 1374.59 553.972
363 0 74.4402 12.2246 910 60.5791 1374.48 551.624
364 0 77.3423 12.4899 966 60.2733 1374.69 549.84
365 0 80.1855 13.1819 1057 59.4503 1374.25 550.815
366 0 81.21 12.7078 1032 60.7771 1374.76 548.348
367 0 85.3088 13.1053 1118 59.6619 1374.9 547.123
368 0 85.3088 13.117 1119 161.801 1374.91 547.104
369 0 89.1603 12.0457 1074 61.9823 1375.25 544.25
370 1 47.0771 10.4722 493 60.3895 1375.42 566.01
371 0 47.0416 10.0975 475 62.0716 1376.14 564.286
372 0 50.1175 10.9543 549 61.1694 1375.94 564.251
373 0 52.1652 11.0994 579 61.3661 1376.38 563.378
374 0 53.0612 12.0804 641 60.6303 1376.12 563.295
375 0 53.0659 11.759 624 62.0978 1376 560.755
376 0 54.0688 12.9095 698 59.3668 1376.34 561.483
377 0 55.0631 11.6049 639 61.7621 1376.54 560.268
378 0 58.1898 12.0983 704 60.5526 1376.49 558.474
379 0 59.1983 12.3821 733 59.9959 1376.03 556.753
380 0 62.1739 12.6741 788 59.4162 1375.75 556.857
381 0 62.1311 12.8116 796 59.5528 1376.15 557.241
382 0 66.2099 13.1551 871 58.4145 1376.46 557.161
383 0 67.1994 12.3067 827 59.5466 1376.67 555.279
384 0 68.1838 11.6157 792 59.6616 1376.79 554.715
385 0 71.2085 13.0743 931 57.7433 1376.95 553.107
386 0 72.2069 12.3118 889 58.4162 1377.31 549.96
387 0 75.1585 11.9747 900 58.1567 1377.4 550
388 0 78.1834 12.4707 975 57.6154 1377.55 547.236
389 0 78.239 11.1581 873 59.354 1377.93 546.326
390 0 80.1264 11.6566 934 59.3437 1377.88 544.058
391 0 83.2552 10.714 892 60.3386 1378.17 542.895
392 0 85.1791 11.8222 1007 59.003 1378.1 540.748
393 0 91.163 13.7666 1255 56.1713 1378.21 538.775
394 1 50.1082 9.57928 480 57.2313 1378.64 560.846
395 0 51.0731 9.26124 473 56.9619 1378.64 560.501
396 0 54.0751 11.3361 613 55.1485 1378.78 558.45
397 0 54.0583 9.84122 532 56.9868 1378.88 559.222
398 0 55.0478 10.8451 597 56.861 1378.72 555.906
399 0 56.0816 10.9305 613 56.9951 1378.84 555.225
400 0 59.0394 10.7725 636 57.2154 1379.21 552.896
401 0 62.0366 11.0419 685 56.3226 1379.34 554.708
402 0 61.0713 11.1509 681 57.0881 1379.52 552.84
403 0 65.0385 10.7167 697 57.1248 1379.21 551.958
404 0 66.0857 11.2127 741 56.2794 1379.39 551.892
405 0 68.0683 11.4444 779 56.0488 1379.55 547.802
406 0 70.1778 10.6301 746 56.7815 1379.17 549.767
407 0 73.0659 11.647 851 55.4489 1378.98 549.549
408 0 76.107 11.5101 876 55.4178 1378.74 547.945
409 0 77.1016 11.9323 920 55.4652 1379.09 545.628
410 0 81.1887 12.1815 989 55.2508 1379.28 543.638
411 0 84.1489 12.0857 1017 55.4395 1378.84 542.204
412 0 85.1083 11.8907 1012 56.1502 1378.48 540.776
413 0 90.2317 11.8584 1070 56.3598 1378.2 540.385
414 0 92.2297 12.1436 1120 56.3964 1378.05 538.583
415 0 95.2473 12.3363 1175 56.366 1378.52 538.24
416 1 50.1091 9.71879 487 56.6612 1379.02 559.774
417 0 52.0604 9.39293 489 56.2454 1378.37 562.372
418 0 53.0641 11.0809 588 55.5102 1378.07 559.16
419 0 56.0848 10.0919 566 55.9841 1377.64 560.422
420 0 56.1195 11.1013 623 55.5152 1377.51 557.896
421 0 57.0335 10.9059 622 55.6254 1377.56 558.532
422 0 60.0626 11.0218 662 55.9396 1377.63 557.122
423 0 63.0764 11.9855 756 55.8175 1377.91 556.798
424 0 61.1936 11.7169 717 56.8243 1376.98 554.912
425 0 64.1485 11.3798 730 56.4795 1376.19 556.275
426 0 64.1405 11.428 733 148.703 1375.18 556.281
427 0 70.2511 13.2952 934 54.2687 1376 553.283
428 0 71.211 12.2734 874 56.0961 1375.97 551.374
429 0 72.246 12.056 871 56.3318 1375.36 550.677
430 0 75.1271 11.9664 899 56.5729 1375.41 549.823
431 0 78.2438 12.1032 947 56.2946 1375.02 549.318
432 0 81.1268 12.351 1002 55.3832 1375.63 548.547
433 0 82.2599 11.6825 961 56.4766 1375.44 547.161
434 0 85.1313 12.3809 1054 55.5304 1375.13 547.247
435 0 89.309 11.9025 1063 56.0254 1375.46 544.308
436 0 91.2281 12.6935 1158 55.0941 1375.5 543.764
437 0 93.1276 12.3379 1149 55.8207 1375.37 542.101
438 0 97.1733 12.3388 1199 55.7973 1375.54 540.697
439 1 52.1052 10.498 547 53.9506 1375.66 564.799
440 0 52.1824 10.8657 567 54.8448 1375.88 563.871
441 0 53.1136 11.9932 637 54.2135 1375.47 563.207
442 0 56.0755 12.0195 674 54.1602 1375.76 560.877
443 0 57.1236 12.6743 724 53.6478 1375.01 561.086
444 0 58.2433 12.2589 714 54.0056 1375.7 561.762
445 0 61.1796 11.8177 723 54.4053 1375.22 560.131
446 0 61.1194 12.3856 757 54.2734 1375.64 557.602
447 0 62.2204 11.3628 707 55.2291 1375.56 558.774
448 0 64.2336 11.1001 713 55.0477 1375.61 558.593
449 0 67.116 12.2475 822 53.6995 1375.4 557.428
450 0 68.1127 11.9214 812 54.048 1375.38 555.479
451 0 73.1787 13.2962 973 51.8201 1375.53 553.879
452 0 73.4501 12.4302 913 53.1501 1375.56 553.337
453 0 75.1478 11.7635 884 53.9977 1375.39 550.09
454 0 77.2334 12.2874 949 53.3909 1375.4 552.129
455 0 79.1727 12.277 972 53.3632 1375.25 549.778
456 0 80.1778 12.4473 998 53.5912 1375.06 549.344
457 0 83.1624 12.9265 1075 53.4102 1375.21 547.189
458 0 86.2337 12.7212 1097 53.6764 1374.85 546.73
459 0 89.3252 12.5161 1118 53.8381 1374.48 547.14
460 0 91.2944 12.279 1121 54.9661 1374.88 542.837
461 0 94.2792 12.8448 1211 54.5822 1374.65 541.908
462 0 94.2792 12.8448 1211 147.532 1374.65 541.908
463 1 53.0976 9.30362 494 55.1883 1375.5 564.409
464 0 55.0792 8.87812 489 55.3661 1375.49 564.918
465 0 58.0411 11.4746 666 53.7357 1375.44 563.65
466 0 60.1095 11.9282 717 53.1813 1375.61 561.987
467 0 60.0561 11.789 708 54.7867 1375.37 559.934
468 0 62.0839 11.7744 731 54.8208 1375.01 558.725
469 0 65.1908 12.1183 790 54.8291 1375.08 559.603
470 0 66.3753 12.1883 809 54.9271 1374.94 559.739
471 0 67.1669 12.8635 864 54.478 1374.57 557.988
472 0 69.1803 12.8216 887 55.1962 1374.1 555.593
473 0 71.2932 13.0307 929 55.1927 1374.4 557.203
474 0 73.2822 12.9499 949 55.6386 1374.44 555.262
475 0 77.4119 12.8404 994 55.7093 1374.37 554.631
476 0 79.3056 13.2651 1052 55.9525 1374.75 552.197
477 0 81.4024 13.5377 1102 56.5 1374.71 551.159
478 0 84.3493 12.8158 1081 57.6235 1374.44 548.746
479 0 89.3969 13.8595 1239 56.1186 1374.73 548.339
480 0 91.3104 13.81 1261 56.5036 1374.93 547.032
481 0 94.304 13.764 1298 57.3421 1374.82 544.498
482 0 97.1939 13.8692 1348 57.388 1374.63 545.235
483 0 100.261 13.2754 1331 58.1007 1374.99 543.469
484 1 51.1981 10.8793 557 57.3573 1374.8 569.108
485 0 52.131 11.0683 577 58.383 1375.38 566.721
486 0 54.1322 12.1 655 57.2748 1375.44 565.046
487 0 55.1356 11.4808 633 58.2543 1375.3 563.964
488 0 56.1676 11.6437 654 58.445 1375.33 563.557
489 0 58.1882 12.7861 744 57.2379 1375.23 562.152
490 0 59.2163 11.7029 693 58.7879 1375.74 561.387
491 0 62.1882 11.7868 733 58.0136 1375.67 561.109
492 0 66.1612 13.0893 866 56.642 1375.77 559.397
493 0 67.1527 12.613 847 57.1854 1376.25 558.412
494 0 68.1747 12.4386 848 57.9729 1375.87 556.721
495 0 70.2624 11.8982 836 58.3062 1376.21 556.476
496 0 72.1758 12.2894 887 58.2232 1375.73 554.99
497 0 75.2087 12.5783 946 57.8636 1375.26 552.585
498 0 75.2087 12.5783 946 158.455 1374.26 552.585
499 0 80.1995 12.7557 1023 58.2835 1375.76 549.785
500 1 44.1077 9.54482 421 60.0404 1376.02 569.15
501 0 44.0581 10.1684 448 59.5112 1376.37 568.661
502 0 47.1012 10.488 494 59.6538 1376.05 568.186
503 0 50.0528 11.6078 581 58.1136 1376.38 567.024
504 0 49.0606 11.3125 555 59.3423 1376.31 566.598
505 0 50.1548 11.4047 572 59.1573 1375.36 565.89
506 0 52.1484 12.3494 644 58.3882 1375.63 563.969
507 0 52.1573 11.7912 615 59.5382 1376.01 563.982
508 0 54.1202 12.0657 653 59.5176 1375.47 563.758
509 0 58.1044 12.3743 719 58.5619 1375.83 561.672
510 0 58.1424 12.3834 720 59.5708 1375.38 561.993
511 0 59.1078 13.0609 772 59.1205 1375.53 561.019
512 0 61.1523 12.0846 739 60.5629 1375.13 560.065
513 0 63.1148 12.0732 762 61.0643 1375.03 558.283
514 0 65.2435 12.2924 802 60.7793 1375.38 558.071
515 0 66.0983 12.2847 812 61.3941 1375.33 557.272
516 0 69.0987 12.4749 862 60.1578 1375.35 556.177
517 0 71.095 12.0824 859 60.6519 1375.83 556.146
518 0 73.1895 12.1192 887 60.7103 1375.8 554.377
519 0 76.2274 13.0137 992 59.4819 1376.1 551.845
520 0 79.1362 12.5353 992 60.0968 1376.34 550.434
521 0 81.1448 12.8536 1043 59.7526 1376.12 550.31
522 0 84.133 12.3138 1036 60.5521 1376.09 547.469
523 1 47.1509 9.88316 466 60.1373 1376.43 567.024
524 0 47.0688 10.7502 506 58.9881 1376.42 567.731
525 0 47.0526 11.0302 519 60.0077 1376.44 567.262
526 0 51.0604 10.8499 554 59.3303 1376.36 566.816
527 0 50.2326 12.4023 623 59.1621 1376.31 564.612
528 0 53.1986 11.8988 633 59.861 1376.5 563.284
529 0 52.1581 12.0403 628 60.1783 1376.11 562.49
530 0 55.1541 11.35 626 60.647 1376.22 561.788
531 0 57.0953 12.4879 713 59.0407 1376.33 561.37
532 0 60.1311 11.8907 715 59.5552 1376.42 560.27
533 0 62.156 12.4364 773 58.9198 1376.69 559.515
534 0 63.1405 12.5276 791 59.2655 1376.96 558.954
535 0 64.1217 13.0377 836 58.372 1376.69 558.165
536 0 67.2174 12.3182 828 59.1051 1376.21 556.948
537 0 67.1876 12.0112 807 60.0942 1376.18 554.741
538 0 70.2075 12.1212 851 59.6181 1376.11 552.324
539 0 74.1286 13.0314 966 58.2236 1375.86 550.71
540 0 77.1585 13.4787 1040 57.3769 1376.01 550.243
541 0 78.1646 12.4865 976 59.4293 1375.86 549.823
542 1 43.0671 9.9612 429 59.2448 1376.84 568.538
543 0 43.1944 11.3209 489 59.0511 1376.74 568.008
544 0 44.0753 11.2989 498 59.008 1376.23 567.289
545 0 45.071 10.5611 476 60.6513 1375.78 565.248
546 0 48.1032 11.3714 547 59.5082 1375.56 565.267
547 0 48.1224 11.8448 570 59.5456 1375.02 565.272
548 0 51.157 12.1391 621 59.0821 1374.97 563.195
549 0 52.1743 12.3241 643 58.8554 1374.83 563.855
550 0 54.1449 12.5774 681 58.5463 1374.91 562.167
551 0 55.1958 12.8452 709 58.701 1375.08 561.69
552 0 57.3423 12.905 740 58.0649 1375.19 560.236
553 0 58.2335 12.5529 731 58.87 1375.48 560.628
554 0 61.1861 12.8461 786 58.6743 1375.37 557.973
555 0 62.1363 12.4726 775 59.1174 1375.16 558.551
556 0 64.1167 13.1479 843 58.2716 1375.2 557.05
557 0 64.1182 12.5705 806 59.7159 1375.17 555.47
558 0 66.1576 13.0597 864 59.4086 1374.92 554.802
559 0 69.2925 13.4502 932 59.0172 1375.2 551.918
560 0 71.1697 13.5591 965 59.4166 1375.31 551.915
561 0 73.2215 13.3294 976 60.1219 1374.6 551.299
562 0 76.2347 13.7077 1045 59.5799 1374.93 550.107
563 0 77.3093 12.9351 1000 61.28 1375.02 549.956
564 1 38.2004 10.2878 393 61.1094 1375.1 569.148
565 0 40.0808 10.5038 421 61.1069 1375.03 567.739
566 0 42.2465 10.8175 457 59.849 1374.3 568.265
567 0 43.069 10.6805 460 60.4239 1374.55 566.757
568 0 41.0206 10.6288 436 60.367 1374.08 567.289
569 0 45.0244 11.3272 510 59.2255 1373.92 565.582
570 0 46.0869 12.3028 567 58.9594 1374.28 563.37
571 0 47.1007 12.1867 574 60.3833 1373.93 563.948
572 0 48.1946 11.3706 548 61.2117 1374.09 564.058
573 0 49.1182 12.0729 593 60.4115 1374.34 562.616
574 0 52.081 12.0389 627 60.2137 1373.92 562.45
575 0 53.1366 13.0042 691 58.5933 1373.61 561.096
576 0 54.1316 12.6728 686 59.8207 1373.63 562.13
577 0 55.1473 12.5119 690 60.8232 1373.4 560.359
578 0 58.0834 12.1722 707 60.6959 1373.05 561.67
579 0 58.1397 12.3152 716 61.148 1373.01 559.531
580 0 60.0451 12.1908 732 61.2309 1372.62 558.628
581 0 64.1608 12.4531 799 60.0951 1372.48 557.468
582 0 65.0913 12.4594 811 60.7287 1372.31 556.819
583 0 66.0927 13.0877 865 60.6613 1372.07 554.578
584 0 69.1435 13.0743 904 60.604 1372.57 554.22
585 0 71.1328 12.9336 920 61.1946 1372.07 553.041
586 0 74.1313 12.3295 914 61.6357 1372.14 552.678
587 0 75.0679 13.6943 1028 60.1916 1372.65 551.896
588 0 78.1872 12.5852 984 61.4319 1372.61 551.249
589 0 80.1467 12.8889 1033 61.8074 1372.19 547.853
590 0 88.1466 13.4549 1186 59.8862 1372.38 548.685
591 1 45.0613 9.69789 437 61.8673 1372.62 570.291
592 0 47.0479 11.2226 528 60.7803 1373.05 568.727
593 0 47.0637 11.2188 528 62.2917 1372.35 566
594 0 48.0599 11.1944 538 61.5093 1372.32 566.247
595 0 50.0623 11.9251 597 60.2529 1372.04 565.561
596 0 52.157 11.5229 601 59.9384 1371.87 565.674
597 0 55.1161 11.8659 654 59.6697 1371.85 563.497
598 0 56.1652 11.4128 641 59.8658 1371.66 564.484
599 0 58.0884 12.0678 701 59.5235 1372.05 562.464
600 0 59.1181 11.6377 688 59.7195 1371.78 563.297
601 0 62.2043 12.2178 760 59.1053 1371.51 559.901
602 0 63.1223 12.0718 762 59.395 1371.56 560.21
603 0 69.1975 13.3964 927 56.466 1371.74 558.802
604 0 71.1119 12.6561 900 57.8411 1371.84 559.327
605 0 72.1864 11.9274 861 59.0453 1372.04 557.563
606 0 72.1864 11.9413 862 171.126 1372.04 557.479
607 0 78.1286 12.9786 1014 58.2456 1371.97 554.354
608 0 80.2351 12.0895 970 59.7711 1371.78 553.832
609 0 83.1846 12.5744 1046 58.9512 1371.91 551.173
610 1 40.1897 9.30587 374 59.4706 1372.44 572.313
611 0 43.1283 10.4572 451 58.8492 1372.38 570.424
612 0 43.1283 10.5731 456 166.026 1372.35 570.344
613 0 45.1465 11.8724 536 58.0672 1372.69 569.59
614 0 47.2285 11.8149 558 58.8835 1372.77 567.109
615 0 49.1863 11.7716 579 58.7323 1372.56 568.256
616 0 50.2613 12.3952 623 58.2167 1372.38 567.742
617 0 51.1712 12.6438 647 58.5394 1372.48 566.088
618 0 53.0963 12.1101 643 59.1151 1372.31 565.566
619 0 53.1006 11.9396 634 59.9779 1372.48 564.347
620 0 56.117 12.866 722 58.4127 1372.19 563.292
621 0 56.1447 12.3431 693 60.2381 1372.57 562.811
622 0 58.1156 11.8729 690 60.4768 1372.78 563.155
623 0 62.1632 13.0624 812 58.7845 1373.09 561.126
624 0 62.1094 12.5102 777 60.1197 1372.61 561.148
625 0 66.2583 12.3003 815 60.119 1372.99 559.956
626 0 66.2041 13.4282 889 59.4601 1372.66 557.882
627 0 69.1736 12.8806 891 59.6712 1373.16 557.924
628 0 70.1488 12.3452 866 60.6524 1373.26 556.813
629 0 74.278 13.3822 994 58.6328 1373.42 555.763
630 0 76.3081 12.3971 946 60.1691 1373.39 554.659
631 0 77.1578 12.779 986 60.3083 1373.47 553.615
632 0 79.3986 12.9599 1029 60.3965 1373.38 552.781
633 1 42.1 9.92873 418 60.1029 1374.07 572.335
634 0 42.1438 10.7489 453 60.4503 1374.29 569.905
635 0 43.1425 10.7551 464 59.4181 1374.52 570.608
636 0 47.0807 10.2377 482 59.6929 1374.56 568.965
637 0 46.0722 10.9393 504 59.125 1374.67 568.736
638 0 49.1137 11.6668 573 58.3124 1374.99 566.813
639 0 49.0839 11.3887 559 58.6977 1374.92 564.739
640 0 51.0738 12.1001 618 56.7055 1373.83 565.071
641 0 50.2241 11.6478 585 58.3897 1374.09 565.373
642 0 52.2441 12.0396 629 57.4515 1374.07 564.709
643 0 52.1102 12.013 626 57.901 1374.41 563.534
644 0 55.1932 11.65 643 57.7729 1374.58 563.09
645 0 58.0955 12.4967 726 56.7769 1374.17 561.123
646 0 59.2625 11.2719 668 58.1542 1374.56 559.855
647 0 60.1392 11.9223 717 57.4742 1375.07 558.059
648 0 63.1681 11.7464 742 57.593 1375.13 557.147
649 0 67.1878 12.1153 814 56.9705 1375.28 556.553
650 0 68.1888 12.1574 829 57.3522 1375.19 554.516
651 0 68.3261 10.9329 747 59.0455 1375.48 552.798
652 0 72.2628 11.6104 839 58.1871 1374.59 552.763
653 0 75.2668 11.9309 898 57.9209 1374.86 551.102
654 0 77.1616 11.7546 907 57.7596 1374.68 550.519
655 0 81.2106 11.3163 919 58.8183 1374.65 548.337
656 0 84.297 12.1475 1024 57.7305 1374.74 546.85
657 1 45.221 10.2386 463 58.041 1375.35 566.302
658 0 45.2512 9.7456 441 58.6825 1375.47 565.937
659 0 45.1686 11.1139 502 57.4821 1375.07 565.179
660 0 48.1077 10.5181 506 58.8004 1375.38 562.759
661 0 49.0796 11.0637 543 58.3794 1375.41 563.195
662 0 51.2029 11.347 581 57.9897 1375.51 561.552
663 0 53.1579 12.0772 642 57.1199 1375.13 561.134
664 0 53.2346 11.3272 603 59.1045 1375.7 559.826
665 0 54.178 11.0931 601 60.1032 1375.57 557.815
666 0 57.1234 11.7115 669 58.7354 1375.99 557.839
667 0 57.0888 11.8937 679 58.9396 1375.92 557.168
668 0 60.1682 11.2019 674 59.9555 1376.13 556.592
669 0 61.3507 12.0618 740 58.7527 1376.05 555.184
670 0 65.1086 11.8878 774 58.7183 1376.41 553.19
671 0 66.2124 12.037 797 58.522 1376.73 553.763
672 0 68.2576 12.5554 857 58.126 1376.58 551.669
673 0 71.1294 12.5124 890 57.9393 1376.9 550.03
674 0 72.2431 12.0842 873 59.1111 1377.06 549.597
675 0 73.2404 11.1687 818 60.6174 1376.93 547.087
676 0 77.1114 12.6051 972 58.7233 1377.25 545.853
677 0 81.2482 13.1695 1070 57.6271 1378.07 546.375
678 0 81.0988 12.306 998 59.0862 1378.03 545.169
679 1 40.0888 9.2794 372 61.5699 1378.57 564.145
680 0 42.0427 10.1801 428 59.8388 1378.34 564.047
681 0 43.1201 9.43875 407 60.6536 1378.04 563.595
682 0 44.0179 10.632 468 58.7094 1377.85 563.098
683 0 45.1215 11.5688 522 58.3946 1378.04 561.86
684 0 45.1815 11.5534 522 59.0536 1377.72 561.115
685 0 49.1786 11.6717 574 57.9965 1377.69 560.749
686 0 50.1974 11.7536 590 58.1068 1377.6 559.559
687 0 51.1729 11.5882 593 59.3508 1377.58 560.238
688 0 51.19 11.8773 608 59.5658 1377.25 559.184
689 0 55.1932 12.7371 703 58.1821 1377.26 557.633
690 0 58.2944 12.7113 741 57.5695 1377.33 557.536
691 0 58.1428 12.7961 744 57.9005 1376.79 557.444
692 0 58.1068 12.391 720 59.0444 1376.74 556.628
693 0 60.1488 11.8872 715 59.2797 1377.08 555.238
694 0 63.0903 12.4583 786 58.2061 1376.44 553.398
695 0 65.0974 13.4107 873 57.268 1376.49 552.813
696 0 65.0974 13.4107 873 158.47 1376.49 552.813
697 0 68.2122 13.1795 899 58.4594 1376.53 551.86
698 0 71.2173 13.4237 956 57.8107 1376.78 550.236
699 0 73.2454 12.9701 950 58.7432 1377.23 550.291
700 0 75.4433 12.9899 980 58.5214 1376.33 547.947
701 0 77.2867 13.6893 1058 57.9461 1375.76 547.958
702 0 80.3467 13.6035 1093 58.4062 1375.96 545.366
703 0 83.2897 13.7112 1142 58.6655 1375.92 542.727
704 1 42.2197 10.019 423 61.7045 1375.99 564.525
705 0 43.2377 10.7314 464 59.8815 1375.85 565.254
706 0 43.235 11.4028 493 60.9067 1375.27 563.625
707 0 45.1469 11.8059 533 60.0844 1375.46 563.893
708 0 47.0868 11.5319 543 60.7993 1375.43 563.884
709 0 48.1786 12.5989 607 64.3674 1375.29 563.252
710 0 50.1527 12.7012 637 70.3469 1375.14 561.986
711 0 50.1336 12.5265 628 71.9268 1375.32 561.346
712 0 51.1857 12.3863 634 72.959 1374.94 560.626
713 0 53.1407 12.608 670 73.3418 1374.91 559.833
714 0 56.1549 12.8039 719 73.3672 1374.59 560.15
715 0 56.1699 13.1031 736 74.3478 1374.87 559.469
716 0 60.1521 13.5656 816 73.4657 1374.81 559.016
717 0 59.0382 12.6698 748 76.135 1374.01 557.849
718 0 61.1768 12.2105 747 76.8273 1373.95 556.262
719 0 62.0793 11.8558 736 77.3886 1374.58 556.755
720 0 65.1153 12.2398 797 77.6562 1374.41 554.378
721 0 67.0938 12.6688 850 77.8094 1374.13 554.049
722 0 71.0438 12.8935 916 77.0688 1374.13 553.142
723 0 74.2779 13.3014 988 76.8462 1373.73 553.243
724 0 78.1003 13.1754 1029 77.4227 1373.56 550.354
725 0 78.1694 12.4985 977 79.2948 1373.67 549.551
726 0 81.2034 13.4108 1089 77.427 1373.09 547.959
727 0 81.0754 13.0743 1060 79.3566 1373.23 546.058
728 0 86.2525 12.9967 1121 79.6048 1373.06 545.707
729 1 43.0648 10.1475 437 80.5538 1371.84 565.586
730 0 45.04 11.7895 531 78.8041 1372.26 566.537
731 0 46.0155 11.2571 518 80.1467 1371.97 564.973
732 0 48.0445 12.2595 589 79.1443 1372.6 563.951
733 0 48.0376 12.0114 577 80.7088 1371.97 563.718
734 0 52.041 12.1251 631 80.8193 1372.23 563.097
735 0 52.0621 12.85 669 79.9357 1371.83 562.575
736 0 53.0365 11.5581 613 82.7455 1371.33 560.917
737 0 56.1013 12.2992 690 81.371 1371.58 561.003
738 0 57.1847 12.346 706 81.6643 1371.49 560.82
739 0 59.1094 12.8575 760 81.3132 1371.76 559.092
740 0 62.1245 12.7486 792 81.5126 1371.33 558.409
741 0 63.2276 12.7634 807 81.7782 1371.55 559.349
742 0 62.1272 12.4422 773 82.9987 1371.57 558.624
743 0 68.1943 13.1243 895 81.8525 1371.19 555.55
744 0 67.1638 12.9385 869 83.0587 1371.42 557.136
745 0 71.1843 13.5985 968 83.3936 1371.44 554.533
746 0 73.1149 14.4704 1058 83.1068 1371.47 553.067
747 0 76.1925 13.5971 1036 83.8977 1371.64 552.72
748 0 79.1497 12.8743 1019 84.8027 1371.67 552.013
749 0 79.3226 12.405 984 86.2134 1371.54 551.423
750 0 82.3302 12.5592 1034 85.7379 1371.72 551.281
751 1 44.0955 11.339 500 84.448 1371.31 568.966
752 0 45.0759 11.5805 522 83.3812 1371.82 567.96
753 0 48.0521 11.9038 572 83.1783 1372.53 567.563
754 0 50.2265 13.1405 660 82.1864 1371.21 565.489
755 0 51.1262 11.364 581 85.2478 1371.06 564.618
756 0 52.0685 12.8677 670 83.8015 1370.69 563.679
757 0 55.0768 12.9819 715 83.9091 1371.17 562.723
758 0 56.1915 12.582 707 84.9844 1370.97 564.617
759 0 54.1747 12.3489 669 86.3572 1370.75 563.2
760 0 58.1663 12.086 703 85.5078 1370.58 562.282
761 0 62.0544 12.6824 787 83.8081 1370.87 560.764
762 0 61.1385 12.071 738 85.5894 1371.46 559.835
763 0 64.1094 12.5879 807 85.2119 1371.5 558.52
764 0 66.2202 12.9568 858 85.4289 1371.41 557.369
765 0 68.1772 12.9075 880 85.7193 1371.24 558.285
766 0 71.1039 13.3889 952 85.75 1370.94 556.561
767 0 71.1315 12.1465 864 88.3368 1370.93 556.468
768 0 74.2535 12.4708 926 87.7149 1370.77 555.548
769 0 77.0554 12.3158 949 88.9431 1371.04 554.266
770 0 80.2196 13.4506 1079 86.5477 1370.65 552.159
771 0 82.1922 13.0791 1075 86.7172 1371.24 550.685
772 0 82.1922 13.1886 1084 153.014 1371.24 550.618
773 0 88.3033 12.7968 1130 87.1779 1371.32 550.672
774 0 93.1817 13.9298 1298 85.7327 1371.45 549.149
775 1 45.2015 11.3713 514 87.5467 1371.92 570.504
776 0 48.1207 12.1985 587 87.8518 1371.63 570.341
777 0 50.0894 11.9187 597 87.7136 1371.35 568.104
778 0 49.0903 11.489 564 89.711 1371.23 566.654
779 0 52.2321 12.3296 644 88.5839 1371.47 567.517
780 0 55.1619 12.1098 668 77.756 1371.73 566.579
781 0 55.2456 12.4535 688 78.6424 1371.91 564.52
782 0 58.1464 13.0017 756 77.8254 1371.75 563.888
783 0 60.358 12.6909 766 79.1149 1371.44 563.345
784 0 63.3328 13.0422 826 78.4479 1372.14 562.025
785 0 62.2899 12.6987 791 80.0278 1372.06 562.477
786 0 66.5443 13.1341 874 80.4519 1372.33 560.215
787 0 68.3256 13.1576 899 80.8521 1371.98 559.882
788 0 67.3467 12.5173 843 82.9597 1372.53 560.408
789 0 73.4009 13.8282 1015 81.0631 1373.15 557.405
790 0 72.2708 13.6708 988 82.331 1373.22 557.803
791 0 75.372 13.8646 1045 83.2833 1373.62 555.327
792 0 77.3962 14.0059 1084 83.9705 1373.26 553.863
793 0 79.4398 13.4064 1065 84.4714 1373.54 555.692
794 0 82.4819 12.8028 1056 86.0814 1373.23 555.013
795 0 85.4402 13.7172 1172 85.1229 1373.33 550.524
796 0 87.3291 13.2487 1157 86.4417 1373.56 550.145
797 1 46.2067 10.8859 503 86.8072 1373.33 569.455
798 0 47.3228 12.1083 573 76.9337 1373.7 568.494
799 0 50.2124 13.0048 653 76.6432 1373.45 567.499
800 0 52.1886 12.8381 670 76.9866 1373.86 566.794
801 0 51.1422 12.3773 633 78.5861 1374.19 564.897
802 0 52.1896 12.7612 666 78.467 1374.26 563.953
803 0 55.2542 13.2479 732 77.6161 1374.14 563.525
804 0 56.1632 13.6922 769 77.3277 1375 563.714
805 0 58.167 13.0486 759 77.9908 1374.93 563.42
806 0 60.1906 13.9889 842 76.69 1375.45 560.515
807 0 62.2602 14.0379 874 75.8375 1375.34 560.818
808 0 63.1991 13.7977 872 76.5447 1375.29 560.164
809 0 65.2853 11.9935 783 79.2746 1375.17 558.959
810 0 67.2454 14.8114 996 76.5633 1375.55 556.508
811 0 67.1379 13.301 893 78.8947 1376.06 557.44
812 0 69.3714 13.9971 971 78.5335 1376.45 556.232
813 0 74.2485 13.6973 1017 78.8132 1376.06 555.05
814 0 74.3428 13.1687 979 79.7446 1376.17 554.209
815 0 77.2247 13.247 1023 79.8583 1376.1 552.997
816 0 81.094 13.6262 1105 79.2371 1375.86 552.278
817 0 82.192 13.6875 1125 79.5093 1375.72 551.746
818 0 87.2591 14.6117 1275 78.0941 1375.76 550.461
819 1 45.1221 11.3692 513 80.4288 1376.41 570.133
820 0 45.0372 12.3676 557 81.4183 1376.12 568.732
821 0 46.045 13.4217 618 79.7476 1376.17 565.903
822 0 49.0917 13.0979 643 79.888 1376.01 566.198
823 0 50.0723 13.4206 672 80.3036 1375.77 566.562
824 0 52.0905 13.9373 726 80.4835 1375.64 564.904
825 0 52.186 14.0459 733 80.0723 1375.93 564.682
826 0 53.0841 13.959 741 81.166 1375.59 564.062
827 0 57.1214 13.5501 774 81.186 1375.45 562.676
828 0 57.0589 14.0381 801 81.8851 1375.32 562.13
829 0 58.0946 14.2354 827 81.4571 1375.78 561.513
830 0 61.2947 13.2638 813 81.8573 1375.54 560.973
831 0 62.1155 14.4086 895 80.8492 1375.68 559.472
832 0 66.2354 14.4485 957 80.8579 1375.41 558.408
833 0 67.1756 14.0676 945 81.0243 1375.29 557.174
834 0 68.2213 13.8666 946 82.0634 1375.52 556.874
835 0 71.2162 13.6205 970 82.2711 1375.36 555.342
836 0 73.4148 13.8664 1018 95.1385 1375.18 552.279
837 0 76.2471 12.7611 973 95.3196 1375.34 552.696
838 0 79.168 14.1598 1121 92.4175 1375.05 551.325
839 0 81.2042 13.9279 1131 92.2361 1375.19 550.424
840 0 83.1453 13.2419 1101 91.4096 1375.05 549.94
841 1 42.0533 11.0336 464 89.2328 1375.26 570.056
842 0 45.1215 12.7434 575 86.4991 1374.87 569.358
843 0 44.1139 12.4224 548 84.6533 1374.72 566.887
844 0 46.1305 12.1178 559 85.3202 1374.6 566.909
845 0 47.1199 12.4576 587 84.5963 1374.21 566.029
846 0 48.0895 13.0798 629 83.4785 1374.42 566.677
847 0 50.0339 13.0911 655 82.9832 1373.52 566.105
848 0 50.0871 13.5963 681 82.1175 1373.58 565.128
849 0 51.1729 13.4251 687 83.3115 1373.85 562.945
850 0 56.0737 13.8211 775 81.9316 1373.88 562.031
851 0 56.2314 14.3336 806 81.1985 1374.35 562.882
852 0 58.027 13.9073 807 81.3879 1373.95 561.765
853 0 58.1304 14.2438 828 81.2874 1373.43 559.606
854 0 62.0959 13.3342 828 81.0254 1373.92 559.357
855 0 64.0575 12.8166 821 81.3995 1373.61 558.25
856 0 68.0673 13.707 933 79.6581 1373.95 557.952
857 0 67.1607 11.9564 803 82.4658 1374.32 557.946
858 0 70.0878 11.7995 827 81.7823 1374.08 558.185
859 0 73.1039 13.3098 973 80.6588 1373.85 554.437
860 0 74.2772 13.315 989 80.6866 1373.98 552.204
861 1 41.0417 10.9888 451 79.9002 1373.09 572.042
862 0 42.0492 11.4865 483 79.4741 1373.34 570.342
863 0 42.1512 11.8146 498 80.1426 1373.36 570.365
864 0 43.0451 12.3591 532 81.0244 1373.15 568.628
865 0 43.0451 12.3359 531 157.718 1372.11 568.712
866 0 44.0329 12.4906 550 90.3127 1371.93 566.573
867 0 46.0727 12.2849 566 91.6502 1371.4 566.77
868 0 49.1111 12.2783 603 92.7927 1372.06 566.854
869 0 51.0645 13.2773 678 92.0501 1371.85 566.208
870 0 51.0543 12.5161 639 94.5962 1371.48 565.484
871 0 54.0424 13.5634 733 93.4857 1371.94 565.139
872 0 52.0277 11.8591 617 95.8817 1371.82 566.178
873 0 55.1101 12.7563 703 95.2703 1372.13 563.319
874 0 61.0623 12.7411 778 94.8445 1370.97 562.138
875 0 60.0671 13.1353 789 95.1521 1371.24 561.279
876 0 59.1195 13.3966 792 96.0025 1371.06 562.144
877 0 66.0257 14.358 948 93.7278 1370.41 558.951
878 0 65.1693 12.7361 830 96.012 1371.2 557.789
879 0 71.0366 13.3452 948 74.8449 1371.43 555.284
880 0 73.0834 13.0673 955 71.5319 1371.48 556.843
881 0 75.065 13.2951 998 71.2896 1371.62 554.581
882 1 42.0494 11.867 499 69.5391 1371.79 570.97
883 0 43.0884 12.045 519 69.185 1371.28 570.487
884 0 45.1047 11.9278 538 68.0074 1372 569.875
885 0 46.0343 12.23 563 66.2931 1371.33 568.869
886 0 46.1666 12.195 563 65.2345 1371.74 568.885
887 0 47.0932 12.4009 584 65.8168 1371.69 567.875
888 0 49.1593 12.6121 620 64.6887 1372.18 566.118
889 0 52.2646 12.2645 641 64.7301 1372.23 565.71
890 0 55.1921 12.846 709 63.7461 1372.2 564.298
891 0 56.2148 12.3989 697 65.0215 1372.6 564.684
892 0 57.2049 12.2892 703 65.0142 1373.02 563.936
893 0 59.1828 12.4698 738 65.0759 1373.24 562.453
894 0 61.1465 12.6091 771 65.2399 1373.32 559.822
895 0 63.2179 12.3066 778 65.6812 1373.79 559.581
896 0 64.1105 12.6344 810 65.7321 1373.71 557.926
897 0 67.1332 12.4826 838 65.8365 1374.12 556.043
898 0 70.1398 13.4018 940 63.4755 1374.04 556.02
899 1 34.1129 9.96689 340 64.9912 1373.02 571.891
900 0 38.1103 10.4696 399 63.6491 1373.22 571.782
901 0 38.248 10.4319 399 65.1554 1373.49 569.962
902 0 38.0591 10.3786 395 65.3114 1373.94 569.916
903 0 40.1955 11.6431 468 64.9466 1374.19 567.476
904 0 41.1844 11.9463 492 64.3374 1374.51 568.033
905 0 43.2377 11.749 508 65.063 1374.86 566.008
906 0 45.2252 12.4709 564 62.8014 1375.04 565.45
907 0 47.0922 12.9958 612 61.6013 1374.91 563.891
908 0 49.1772 12.6075 620 62.4323 1375.07 563.265
909 0 49.0717 11.9213 585 63.9248 1375.07 562.528
910 0 49.1412 12.7185 625 63.2336 1375.53 562.365
911 0 52.1974 12.2803 641 62.9204 1375.45 561.092
912 0 55.0892 11.5994 639 64.0438 1375.44 560.351
913 0 55.1176 12.4643 687 62.7831 1375.44 559.64
914 0 56.1247 12.1693 683 63.7701 1375.46 558.234
915 0 57.1293 13.0231 744 62.6573 1376.1 558.492
916 0 61.1479 12.249 749 62.9413 1376.53 557.463
917 0 62.1423 12.7449 792 61.952 1376.53 555.336
918 0 62.2465 12.5951 784 63.449 1376.7 556.33
919 0 64.546 12.89 832 63.143 1376.89 553.511
920 0 69.2861 13.4515 932 61.6416 1377.15 552.468
921 0 68.2954 13.5002 922 62.8232 1377.23 552.274
922 0 72.5203 12.8378 931 62.3577 1377.36 551.353
923 0 74.2498 12.5657 933 63.0096 1377.85 549.385
924 0 77.5435 12.8315 995 62.5779 1377.79 548.733
925 0 78.363 13.0419 1022 62.5235 1377.53 546.874
926 0 83.4644 13.2631 1107 61.8238 1377.64 545.321
927 0 86.3913 12.7675 1103 62.8957 1377.18 543.8
928 1 45.2256 11.2326 508 64.1102 1377.67 564.179
929 0 48.2141 11.9052 574 62.5366 1377.75 563.277
930 0 49.3142 11.0921 547 64.3985 1377.26 561.49
931 0 51.1878 12.0537 617 63.4344 1376.59 560.778
932 0 53.1781 12.6556 673 62.7043 1376.86 560.23
933 0 52.1451 13.0214 679 63.0928 1376.7 558.916
934 0 54.1096 13.1215 710 62.8352 1376.83 557.028
935 0 57.1294 12.4454 711 63.2546 1376.63 557.305
936 0 60.2373 13.6128 820 61.3939 1376.97 555.35
937 0 60.2913 12.8045 772 63.478 1376.71 555.144
938 0 61.2593 13.0103 797 63.67 1376.59 554.864
939 0 65.1697 13.0736 852 62.7711 1376.12 554.127
940 0 66.3338 12.422 824 63.4612 1376.17 553.24
941 0 71.3675 13.8719 990 61.2394 1375.58 550.932
942 0 72.2686 13.5605 980 61.5041 1375.75 551.153
943 0 73.2848 12.9085 946 62.9345 1375.46 550.67
944 0 78.1666 12.7804 999 62.6156 1375.01 547.565
945 0 79.277 13.497 1070 61.8009 1375.15 547.732
946 1 42.218 9.82992 415 63.7518 1375.31 566.429
947 0 43.1412 10.6395 459 63.2745 1374.77 565.412
948 0 45.1268 11.5453 521 62.3973 1374.95 565.036
949 0 45.1078 11.5279 520 63.8269 1374.97 563.458
950 0 48.0942 12.4131 597 61.7923 1374.54 563.66
951 0 49.227 11.579 570 63.0316 1374.39 561.867
952 0 52.2018 12.241 639 61.5618 1374.26 562.901
953 0 52.3634 12.0886 633 62.1611 1374.75 562.449
954 0 53.1206 11.9916 637 62.6562 1374.6 560.491
955 0 53.1206 12.0104 638 170.73 1373.6 560.453
956 0 57.2547 12.6976 727 62.5144 1374.88 557.337
957 0 57.2547 12.6976 727 161.663 1376.88 557.337
958 0 60.2035 12.7069 765 62.5333 1374.58 557.034
959 0 61.1835 12.8303 785 62.3363 1374.25 556.893
960 0 63.2729 12.1853 771 62.4332 1373.88 556.039
961 0 63.2729 12.2327 774 172.488 1372.89 556.034
962 0 67.3136 12.4046 835 60.3401 1374.03 554.872
963 0 72.3198 13.6201 985 58.5066 1374.23 552.943
964 0 72.356 13.0466 944 59.5477 1374.51 552.735
965 0 75.2937 13.1751 992 59.4688 1374.43 550.748
966 0 77.3209 12.9848 1004 59.7151 1374.26 549.502
967 0 81.3564 13.742 1118 58.2692 1374.3 547.769
968 0 83.4484 12.4388 1038 60.1561 1374.04 545.873
969 1 45.2718 10.8456 491 59.3849 1373.52 565.723
970 0 46.2681 10.8066 500 59.628 1373.61 565.104
971 0 48.4546 11.3302 549 59.0419 1373.69 564.195
972 0 46.2546 10.7233 496 60.25 1374.12 562.897
973 0 49.1668 11.5525 568 59.2535 1374.14 562.82
974 0 52.2383 12.5387 655 57.4046 1374.1 562.36
975 0 53.1694 12.037 640 58.3438 1373.83 562.658
976 0 54.2629 12.55 681 58.0631 1373.39 560.568
977 0 55.1448 11.8416 653 58.9051 1373.15 560.175
978 0 59.1995 13.1927 781 56.8399 1372.85 559.312
979 0 58.369 12.4552 727 58.5722 1372.54 560.036
980 0 61.2429 12.279 752 58.5519 1372.63 559.003
981 0 62.3933 12.3731 772 58.193 1372.56 556.627
982 0 65.53 12.788 838 57.7327 1372.4 555.741
983 0 67.3826 12.7333 858 57.5117 1372.01 555.389
984 0 69.1206 13.2811 918 56.89 1372.32 554.078
985 0 73.2971 12.8791 944 56.8623 1372.48 553.082
986 0 72.1744 12.4421 898 58.2138 1372.24 552.314
987 0 77.2218 12.6001 973 57.3834 1371.99 552.207
988 0 79.3127 12.3183 977 57.6704 1372.27 550.168
989 0 79.3127 12.2679 973 161.387 1373.25 550.176
990 0 85.2579 12.7261 1085 57.4498 1372.45 546.339
991 0 89.2744 12.8032 1143 57.0411 1371.99 545.365
992 1 47.0416 10.9903 517 56.4778 1371.3 566.515
993 0 47.1263 10.5886 499 57.507 1371.04 567.311
994 0 48.0536 10.8421 521 57.8791 1371.14 566.545
995 0 49.1021 12.0972 594 56.7559 1371.45 566.608
996 0 50.0753 12.5012 626 56.7955 1371.56 565.262
997 0 52.1542 12.2138 637 56.8336 1371.4 564.926
998 0 51.0735 12.3156 629 57.6264 1371.57 563.277
999 0 53.0662 11.9473 634 58.5394 1371.71 562.702
1000 0 54.193 11.662 632 59.0253 1372.56 561.932
1001 0 56.1148 12.9912 729 57.6722 1372.5 561.904
1002 0 59.1226 12.195 721 57.3523 1372.17 561.43
1003 0 60.1431 12.6199 759 57.5639 1372.38 561.576
1004 0 63.0987 13.3759 844 56.3424 1372.21 558.889
1005 0 63.1229 12.5311 791 58.0013 1371.92 558.712
1006 0 67.1213 12.5147 840 57.9869 1371.9 558.079
1007 0 67.0848 12.9537 869 58.0794 1371.95 557.518
1008 0 71.1352 13.3127 947 57.8184 1372.01 556.463
1009 0 74.0767 13.7965 1022 57.1301 1372.23 555.001
1010 0 75.0416 13.5925 1020 57.8275 1372.25 553.549
1011 0 78.1044 13.738 1073 58.8975 1372.39 552.093
1012 1 38.0071 9.23511 351 61.4786 1371.72 571.687
1013 0 41.0749 9.27573 381 60.7165 1371.56 572.265
1014 0 44.0396 9.76394 430 61.0093 1371.7 570.74
1015 0 45.1053 11.2404 507 60.7318 1372.24 571.012
1016 0 47.1347 12.7507 601 58.6556 1372.48 570.715
1017 0 48.1076 12.7838 615 59.3528 1372.97 569.062
1018 0 51.1183 13.0482 667 58.1559 1373.63 569.147
1019 0 51.1246 12.4402 636 59.7909 1373.73 567.925
1020 0 52.0976 12.419 647 60.4389 1373.58 567.27
1021 0 54.0399 13.342 721 59.2718 1374.07 564.886
1022 0 54.031 12.6409 683 60.8389 1374.12 564.17
1023 0 57.1199 13.2353 756 60.2288 1374.34 563.284
1024 0 60.0927 13.1796 792 60.0076 1374.41 563.672
1025 0 63.1294 13.6228 860 59.4372 1374.42 563.099
1026 0 63.0619 13.4154 846 60.2411 1374.54 561.701
1027 0 65.305 13.5671 886 60.1106 1374.32 561.357
1028 0 67.026 13.6216 913 60.5323 1374.38 559.979
1029 0 71.192 14.2853 1017 59.2114 1374.72 558.647
1030 0 73.1619 14.0784 1030 60.0437 1374.77 556.593
1031 0 73.1002 13.0369 953 62.234 1374.64 556.588
1032 0 77.2903 13.9733 1080 60.4926 1374.41 554.926
1033 1 38.0806 10.8717 414 63.8961 1375.33 572.715
1034 0 38.0806 10.8454 413 167.949 1376.35 572.731
1035 0 42.0848 11.7382 494 62.6802 1375.46 572.597
1036 0 43.0739 12.1419 523 62.0191 1375.59 571.948
1037 0 43.1678 12.741 550 63.3509 1375.65 570.849
1038 0 45.248 11.9342 540 64.3296 1375.43 569.339
1039 0 45.174 12.9499 585 63.7863 1375.71 568.52
1040 0 48.1918 12.8445 619 62.9176 1376.21 568.367
1041 0 49.157 13.1416 646 63.4211 1376.13 566.986
1042 0 49.1238 13.354 656 64.0198 1376.55 567.645
1043 0 52.1841 12.8967 673 63.9242 1376.32 567.657
1044 0 53.0984 12.8441 682 64.6378 1376.63 566.479
1045 0 52.1238 13.6598 712 63.8118 1376.88 566.275
1046 0 53.1607 13.0924 696 63.0445 1377.09 566.652
1047 0 57.1331 13.4073 766 62.6802 1376.81 564.775
1048 0 58.1433 13.4495 782 62.7941 1376.59 563.042
1049 0 61.0706 13.378 817 62.0343 1376.7 562.228
1050 0 63.0576 12.9564 817 62.4651 1377.18 561.58
1051 0 66.1292 14.0483 929 61.0441 1377.53 560.04
1052 0 67.0509 13.0796 877 62.5713 1377.9 557.363
1053 0 69.0697 13.1751 910 62.411 1377.63 557.914
1054 0 72.0591 13.6971 987 61.4742 1377.89 556.213
1055 0 74.1482 13.6483 1012 61.7935 1377.78 555.036
1056 0 77.0985 13.7227 1058 61.8563 1377.51 553.447
1057 1 40.0602 10.8337 434 65.53 1376.82 571.677
1058 0 41.0221 12.0179 493 63.6836 1376.71 571.099
1059 0 42.0832 12.6179 531 62.8418 1377.2 570.676
1060 0 42.1235 12.9856 547 63.415 1376.91 569.378
1061 0 47.0733 13.2984 626 61.1949 1377.34 568.49
1062 0 46.0627 13.6119 627 62.2297 1376.9 568.08
1063 0 49.077 13.9577 685 61.5898 1376.73 566.926
1064 0 48.0157 13.8496 665 62.8481 1376.5 566.471
1065 0 52.0432 14.3727 748 61.3944 1376.89 565.54
1066 0 54.162 13.3858 725 62.7062 1376.87 564.883
1067 0 55.0775 13.7987 760 62.8421 1376.69 564.593
1068 0 55.1963 14.0046 773 63.088 1376.75 563.31
1069 0 58.137 14.0186 815 62.7166 1376.66 562.506
1070 0 58.1609 14.4599 841 63.0095 1376.23 561.446
1071 0 61.1906 13.27 812 64.6453 1376.45 559.897
1072 0 63.0822 14.3781 907 63.0077 1376.41 559.744
1073 0 65.1593 14.5183 946 62.9292 1376.36 559.076
1074 0 67.1381 14.2095 954 63.9371 1376.38 557.766
1075 0 68.2692 14.3403 979 64.3575 1376.24 557.447
1076 0 72.123 14.1702 1022 64.6849 1375.75 554.75
1077 0 73.1456 14.0405 1027 65.2902 1375.49 555.425
1078 0 75.1458 14.6249 1099 65.0537 1375.5 553.944
1079 0 78.3783 14.481 1135 64.8502 1375.18 551.796
1080 0 82.2515 15.7809 1298 63 1375.26 550.076
1081 0 84.2117 14.7723 1244 64.4108 1375.4 548.119
1082 0 88.1299 15.1708 1337 64.2004 1375.34 546.027
1083 1 45.079 12.711 573 68.363 1374.5 567.876
1084 0 46.0706 12.4808 575 68.4852 1374.78 568.209
1085 0 47.0533 13.0278 613 68.6786 1374.62 566.71
1086 0 48.0716 12.8142 616 68.9318 1374.94 565.518
1087 0 52.1212 14.0058 730 66.8781 1374.93 563.059
1088 0 52.0682 14.5578 758 66.0765 1374.72 563.435
1089 0 54.0399 13.3235 720 67.8986 1374.83 563.361
1090 0 56.1146 14.8981 836 65.3565 1374.36 561.836
1091 0 58.0363 14.5771 846 65.1962 1374.87 562.297
1092 0 59.0639 14.696 868 65.6244 1375.43 561.172
1093 0 63.2831 14.6327 926 64.7343 1375.11 559.894
1094 0 64.152 14.4968 930 65.1129 1375.1 557.285
1095 0 69.1469 14.9247 1032 63.0552 1375.41 556.403
1096 0 70.057 14.9021 1044 63.4741 1374.97 555.812
1097 0 72.0998 14.8405 1070 63.6963 1374.97 555.182
1098 0 74.2196 14.5245 1078 64.0074 1375.03 553.019
1099 0 76.0664 14.7503 1122 63.4421 1374.93 551.864
1100 0 78.212 14.5118 1135 64.0907 1374.7 549.663
1101 0 83.2957 15.463 1288 61.8851 1374.63 549.098
1102 0 86.2506 15.3042 1320 61.828 1374.39 545.746
1103 0 90.2112 14.1335 1275 62.858 1374.46 544.458
1104 0 93.1107 15.1862 1414 61.5318 1374.27 543.902
1105 1 48.1831 12.6185 608 64.352 1374.09 565.778
1106 0 48.0721 12.6685 609 64.0657 1373.86 564.972
1107 0 51.0814 13.2925 679 62.5994 1374.17 564.348
1108 0 51.2213 13.959 715 61.9357 1373.9 562.755
1109 0 53.0174 13.0523 692 63.2731 1374.25 560.241
1110 0 56.1886 13.8284 777 61.3745 1373.81 561.443
1111 0 60.1196 13.6062 818 61.1968 1373.74 559.496
1112 0 62.1669 14.075 875 60.744 1374.26 558.53
1113 0 64.1613 13.1232 842 61.8361 1373.95 556.761
1114 0 65.1426 14.0001 912 61.295 1373.69 554.854
1115 0 67.1246 13.6314 915 61.847 1373.51 555.625
1116 0 69.192 13.542 937 62.2359 1373.36 553.306
1117 0 72.13 13.8361 998 62.1653 1373.6 551.773
1118 0 75.2387 13.4239 1010 62.703 1373.37 551.674
1119 0 77.1703 14.2931 1103 62.1614 1373.44 548.852
1120 0 81.2327 13.8245 1123 62.8077 1373.38 547.963
1121 1 44.0819 10.8661 479 64.0772 1373.09 567.182
1122 0 45.035 10.947 493 63.8235 1373.13 566.736
1123 0 49.0524 11.0902 544 63.4761 1372.11 566.048
1124 0 48.1211 11.5334 555 63.182 1372.14 566.014
1125 0 47.1219 11.6719 550 171.693 1371.12 566.167
1126 0 47.1219 11.6719 550 171.215 1370.12 566.167
1127 0 56.1228 13.0785 734 62.3243 1373.36 564.441
1128 0 57.0354 13.2549 756 62.6045 1373.19 563.147
1129 0 59.0549 13.6145 804 62.005 1373.35 562.701
1130 0 61.1583 13.1135 802 62.6696 1373.83 561.387
1131 0 62.0749 13.1293 815 63.908 1373.66 560.799
1132 0 63.1235 12.2141 771 64.9494 1373.8 561.099
1133 0 67.066 13.9266 934 62.8255 1373.77 557.336
1134 0 69.1342 14.0741 973 62.5457 1374.27 557.271
1135 0 69.1004 13.5744 938 63.613 1374.14 556.445
1136 0 72.0509 12.5883 907 65.151 1374.09 554.804
1137 0 74.1099 13.507 1001 64.5854 1373.75 553.352
1138 0 77.1439 13.0924 1010 64.7812 1374.11 553.604
1139 0 81.2035 14.1004 1145 62.379 1374.33 552.2
1140 0 83.0803 13.6615 1135 63.7894 1374.33 549.314
1141 0 86.2258 13.9981 1207 64.4772 1375.03 547.783
1142 0 90.0644 13.3016 1198 65.0075 1374.89 547.256
1143 0 91.2542 13.6213 1243 64.5253 1374.98 545.107
1144 1 46.1315 9.97149 460 65.5978 1374.66 567.909
1145 0 47.135 10.1835 480 65.2625 1374.56 567.246
1146 0 49.2011 11.6054 571 63.4764 1374.9 564.762
1147 0 49.0688 11.4737 563 63.9609 1374.85 564.13
1148 0 51.0734 12.4331 635 62.5228 1375.37 563.009
1149 0 54.1249 12.1386 657 62.5693 1375.24 562.679
1150 0 55.0815 11.7644 648 63.2454 1375.39 561.073
1151 0 57.126 12.0961 691 62.3169 1375.44 560.155
1152 0 60.1739 12.2645 738 60.4824 1375.44 559.752
1153 0 61.0791 12.2792 750 60.8253 1375.77 557.601
1154 0 65.0772 12.6619 824 60.0049 1375.57 557.602
1155 0 66.1453 12.2307 809 60.9629 1376.02 555.587
1156 0 69.1459 12.799 885 59.6644 1376.55 555.046
1157 0 71.1169 12.3037 875 60.2903 1376.97 554.237
1158 0 73.0951 12.8736 941 59.136 1377.09 550.752
1159 0 77.1601 12.8823 994 58.3491 1377.5 548.746
1160 0 78.1053 11.6253 908 59.7753 1377.78 549.12
1161 0 82.2684 12.994 1069 57.9991 1377.79 546.478
1162 0 85.0856 12.3875 1054 58.5313 1378.09 542.962
1163 0 88.3025 11.7777 1040 58.7058 1378.29 541.644
1164 1 45.043 10.0126 451 59.0399 1378.05 563.47
1165 0 47.1334 11.2659 531 57.9397 1377.75 561.158
1166 0 49.095 12.323 605 57.638 1378.87 564.251
1167 0 50.12 11.7318 588 58.1905 1379.04 562.816
1168 0 51.1268 12.557 642 57.3427 1379.9 561.916
1169 0 54.0984 11.9597 647 57.2581 1379.95 561.743
1170 0 54.1492 11.8192 640 57.4891 1379.74 562.064
1171 0 55.1972 11.7216 647 58.1546 1379.38 559.895
1172 0 59.1642 12.5921 745 56.6013 1379.99 561.16
1173 0 59.0941 12.184 720 57.4208 1380.07 561.072
1174 0 60.1488 12.6021 758 57.9314 1380.24 558.15
1175 0 64.1243 12.7721 819 57.1722 1380.41 557.723
1176 0 65.1424 12.3882 807 58.461 1380.08 556.219
1177 0 65.1157 12.0401 784 59.3469 1379.87 554.724
1178 0 69.1301 13.0479 902 58.0089 1379.63 555.583
1179 0 70.1253 12.3208 864 59.1551 1380.55 554.712
1180 0 72.1203 12.6178 910 59.3319 1380.52 552.626
1181 1 37.0708 10.7902 400 60.785 1380.65 568.317
1182 0 40.0721 10.1817 408 61.1078 1379.8 568.164
1183 0 41.0455 9.76965 401 61.8579 1380.76 568.135
1184 0 43.0633 11.1928 482 60.5311 1380.9 566.488
1185 0 45.1285 11.1238 502 60.8825 1379.44 565.141
1186 0 48.0495 12.2166 587 59.5622 1379.96 563.917
1187 0 49.0505 12.1507 596 60.1829 1379.76 563.562
1188 0 50.0221 12.7744 639 59.3146 1379.45 564.46
1189 0 52.0169 12.9766 675 59.3867 1379.59 562.104
1190 0 53.0832 12.1319 644 60.6475 1379.62 561.679
1191 0 54.0804 13.1841 713 59.2006 1379.24 560.99
1192 0 55.0524 13.0239 717 59.9582 1379.06 559.854
1193 0 59.0659 12.6638 748 59.3783 1378.42 559.594
1194 0 59.0331 13.7211 810 58.421 1378.33 559.126
1195 0 63.1633 13.6788 864 57.8947 1378.32 557.285
1196 0 63.1633 13.6788 864 156.973 1377.32 557.285
1197 0 65.074 13.1389 855 58.9485 1378.12 555.758
1198 0 66.1566 12.7123 841 59.6397 1377.97 554.945
1199 0 69.1186 13.947 964 58.1297 1377.54 552.589
1200 0 72.0985 13.2319 954 58.8857 1377.43 552.151
1201 0 73.1529 13.5743 993 59.2508 1377.47 550.808
1202 0 76.0933 13.8251 1052 58.423 1377.39 550.646
1203 0 78.1981 12.5706 983 59.7711 1377.13 549.94
1204 1 38.0658 10.1403 386 61.3782 1376.41 569.521
1205 0 41.0658 11.0067 452 60.635 1376.91 568.763
1206 0 41.0366 11.5994 476 61.3088 1377.33 567.794
1207 0 43.0731 12.4672 537 60.0745 1377.42 566.196
1208 0 45.0753 12.0909 545 60.5596 1376.68 566.136
1209 0 45.0673 13.2912 599 59.8982 1376.97 564.803
1210 0 47.057 13.2605 624 59.5449 1377.12 565.71
1211 0 47.2423 13.2932 628 60.621 1376.89 564.481
1212 0 48.0598 12.9006 620 61.6065 1376.6 564.731
1213 0 50.0248 13.6932 685 60.1781 1376.07 563.285
1214 0 54.1133 13.1761 713 60.1094 1375.98 562.997
1215 0 52.0462 13.123 683 61.8053 1375.81 562.366
1216 0 56.1038 13.2077 741 61.0243 1375.94 562.192
1217 0 56.0652 13.9659 783 60.6347 1375.35 560.9
1218 0 60.0369 14.0414 843 59.7841 1375.56 561.44
1219 0 60.0387 14.3574 862 60.4524 1375.5 561.265
1220 0 62.0996 13.5428 841 61.4471 1375.02 559.352
1221 0 65.1903 13.6984 893 61.2307 1374.96 559.656
1222 0 66.0752 14.9829 990 60.2081 1374.96 555.294
1223 0 68.1547 13.8802 946 61.4672 1374.66 555.561
1224 0 71.122 14.0885 1002 61.1946 1374.52 555.723
1225 0 71.1633 13.8133 983 62.2584 1374.14 553.641
1226 0 76.2389 13.9037 1060 61.8991 1374.51 552.108
1227 0 78.2403 13.5352 1059 61.9131 1374.1 552.626
1228 0 81.1569 14.0961 1144 61.3304 1374.13 550.096
1229 1 41.1522 11.8341 487 63.7064 1373.41 569.259
1230 0 43.1282 12.6831 547 63.4717 1374.02 566.495
1231 0 47.1379 12.0285 567 63.0758 1373.92 567.399
1232 0 46.1314 13.1147 605 62.8033 1373.66 566.602
1233 0 49.0896 13.18 647 62.0216 1373.42 566.966
1234 0 51.1356 13.6304 697 61.076 1373.26 566.413
1235 0 51.2448 13.3867 686 63.0525 1373.23 564.162
1236 0 53.0914 13.5238 718 62.9123 1373.77 563.801
1237 0 56.0983 13.1377 737 62.7463 1373.64 562.708
1238 0 57.0688 13.6502 779 62.1335 1373.72 561.769
1239 0 59.1637 13.2514 784 62.551 1373.52 562.323
1240 0 62.2586 14.0543 875 61.8491 1373.62 561.163
1241 0 61.0864 13.5873 830 63.3759 1373.51 560.539
1242 0 62.0902 13.271 824 63.4988 1373.37 559.067
1243 0 67.1999 13.5268 909 62.8372 1373.04 558.725
1244 0 69.4091 13.8887 964 62.3413 1372.86 556.371
1245 0 70.3166 13.6383 959 62.9958 1373.11 556.886
1246 0 73.2344 13.3271 976 63.3248 1373.17 554.48
1247 0 76.1943 13.3737 1019 63.2875 1372.84 552.988
1248 1 39.065 10.6489 416 66.4231 1372.76 571.618
1249 0 40.0932 11.8723 476 65.9685 1373.27 570.294
1250 0 42.1159 12.8693 542 64.738 1373.69 569.424
1251 0 44.0348 13.3304 587 64.7019 1373.65 568.446
1252 0 46.0399 12.8801 593 64.6948 1374.03 568.384
1253 0 47.0254 12.3976 583 66.4563 1373.54 567.043
1254 0 47.1111 13.3514 629 65.7281 1374.44 565.555
1255 0 48.0668 12.5034 601 67.406 1373.74 564.394
1256 0 52.0374 12.8561 669 66.0344 1374.23 565.075
1257 0 52.0759 13.5955 708 65.8121 1374.69 562.939
1258 0 54.0861 13.5155 731 66.2709 1374.65 562.42
1259 0 56.0322 14.1526 793 65.5864 1375 561.092
1260 0 59.0273 13.6886 808 65.7574 1374.85 560.006
1261 0 61.1132 13.8432 846 65.3097 1375.32 559.245
1262 0 64.0615 13.2529 849 65.7397 1375.01 558.969
1263 0 63.0959 13.2972 839 66.8081 1375.12 557.678
1264 0 68.1261 13.6218 928 65.4741 1375.4 557.51
1265 0 70.1693 13.9377 978 65.364 1375.57 555.707
1266 0 72.0857 14.5105 1046 64.6491 1375.83 554.275
1267 0 74.1198 13.8425 1026 65.5039 1375.99 553.48
1268 1 36.0578 10.6218 383 68.0392 1376.68 571.117
1269 0 38.253 10.509 402 67.4328 1377.08 570.716
1270 0 39.1081 11.5321 451 66.714 1376.39 569.727
1271 0 41.1002 11.7031 481 66.2266 1376.82 568.545
1272 0 43.0884 13.0894 564 63.8972 1377.7 568.7
1273 0 44.1338 12.8926 569 64.3216 1378.5 568.156
1274 0 44.1104 12.8314 566 64.9081 1378.19 567.23
1275 0 47.1927 12.7562 602 64.2591 1378.76 565.565
1276 0 46.1304 13.18 608 63.8684 1379.14 565.738
1277 0 49.0945 13.3212 654 62.6177 1379.47 563.604
1278 0 51.0588 12.7892 653 63.0184 1379.31 562.564
1279 0 53.1858 12.7478 678 62.4926 1379.04 563.153
1280 0 53.0889 12.7522 677 63.2851 1378.89 562.285
1281 0 57.1835 12.8708 736 62.2514 1379.06 560.208
1282 0 58.0675 13.0365 757 61.8032 1379.31 559.812
1283 0 60.0825 13.2817 798 61.1855 1379.69 560.598
1284 0 62.0888 13.1747 818 61.4218 1380.2 557.798
1285 0 64.1683 13.3555 857 60.6033 1379.91 558.471
1286 0 66.1224 12.8852 852 61.4249 1379.81 557.265
1287 0 66.0804 13.0144 860 61.8116 1379.87 555.163
1288 0 69.0506 12.8891 890 62.3225 1379.64 554.012
1289 0 73.141 13.3167 974 61.3953 1379.82 551.925
1290 0 74.0789 13.2561 982 61.7882 1379.87 551.586
1291 0 78.0795 13.4222 1048 61.604 1380.21 550.52
1292 0 80.0615 14.1766 1135 60.8176 1380.22 549.338
1293 1 45.0554 10.365 467 62.6188 1380.52 567.73
1294 0 45.044 11.3667 512 63.0605 1380.46 565.723
1295 0 47.0367 12.0119 565 62.3504 1380.34 566.589
1296 0 49.0594 12.1893 598 62.1154 1380.12 566.323
1297 0 48.0868 12.519 602 63.6711 1379.96 564.99
1298 0 51.0993 13.4836 689 61.4151 1379.86 564.71
1299 0 52.1183 14.256 743 61.0013 1380.16 561.304
1300 0 52.1114 12.8763 671 63.1997 1379.62 561.204
1301 0 55.1287 12.9878 716 62.8897 1379.43 561.848
1302 0 57.1595 12.4914 714 63.979 1379.4 560.655
1303 0 58.1276 13.2467 770 62.539 1379.65 560.143
1304 0 60.0937 13.1628 791 62.4918 1379.13 558.981
1305 0 63.1093 13.4845 851 61.6745 1379.18 556.85
1306 0 65.1579 13.1373 856 62.8867 1378.91 556.911
1307 0 66.2346 13.4673 892 62.1928 1378.91 554.058
1308 0 69.2364 14.0533 973 61.3556 1378.81 553.646
1309 0 71.2588 13.5141 963 62.0498 1378.59 550.464
1310 0 73.3446 12.5572 921 63.4126 1378.37 551.175
1311 1 38.2457 10.2234 391 63.6138 1378.05 568.88
1312 0 40.1206 11.4156 458 61.131 1378.56 568.002
1313 0 41.2381 11.373 469 62.4328 1377.85 567.207
1314 0 41.168 11.2223 462 62.6732 1377.94 566.424
1315 0 44.1436 11.6212 513 61.6745 1377.93 566.027
1316 0 46.083 12.6511 583 61.4854 1377.42 569.24
1317 0 48.1325 12.6526 609 61.5419 1377.61 566.99
1318 0 47.1657 13.2936 627 61.2982 1377.47 565.962
1319 0 57.1042 9.22874 527 61.4516 1376.98 569.59
1320 0 51.1999 12.2266 626 61.2476 1377.22 563.238
1321 0 52.1744 12.7457 665 61.6331 1376.69 562.42
1322 0 55.1068 13.247 730 60.4603 1376.82 561.796
1323 0 55.1068 13.1926 727 156.73 1376.83 561.728
1324 0 55.1068 13.1563 725 156.423 1376.82 561.683
1325 0 57.2881 12.5506 719 61.8887 1376.31 561.013
1326 0 60.2365 13.1482 792 60.9444 1376.48 559.061
1327 0 62.1844 13.0097 809 60.8789 1376.08 556.618
1328 0 64.2272 12.6738 814 61.2138 1375.99 556.645
1329 0 65.2161 13.0643 852 60.4965 1375.82 557.338
1330 0 68.1844 12.9648 884 60.4106 1375.9 556.285
1331 0 71.2756 13.3145 949 60.4731 1375.87 552.083
1332 0 75.5533 12.4548 941 60.0648 1375.8 550.834
1333 0 74.3675 13.2047 982 59.8982 1375.98 551.667
1334 1 36.3051 10.8525 394 63.8426 1376.44 569.475
1335 0 39.2843 11.4804 451 62.2971 1376.22 568.022
1336 0 41.3627 10.8552 449 62.3942 1376.37 567.964
1337 0 41.1129 11.5535 475 61.5137 1375.96 568.933
1338 0 43.1622 11.8159 510 61.0196 1376.37 568.622
1339 0 45.1897 12.4143 561 59.9733 1376.39 567.535
1340 0 47.1033 13.2899 626 58.3962 1376 567.971
1341 0 50.0715 11.7831 590 59.7729 1375.99 568.663
1342 0 50.0979 13.4537 674 57.8531 1376.05 565.432
1343 0 50.1002 12.3952 621 59.963 1375.44 565.063
1344 0 52.2229 13.2509 692 58.4335 1375.23 564.218
1345 0 53.1242 13.1767 700 58.9371 1375.02 563.624
1346 0 56.3234 12.1974 687 59.5721 1374.72 563
1347 0 55.1705 12.8511 709 59.7405 1374.61 561.439
1348 0 59.2321 12.9828 769 58.645 1374.27 561.74
1349 0 60.3722 12.6217 762 59.5787 1374.31 559.175
1350 0 61.435 12.8754 791 59.6751 1374.16 559.432
1351 0 65.5429 12.6329 828 58.913 1373.63 559.702
1352 0 65.3755 12.7112 831 60.3995 1373.81 556.964
1353 0 68.3586 12.8001 875 59.7006 1373.53 556.141
1354 1 36.8361 10.9675 404 60.8391 1372.71 570.423
1355 0 38.3656 10.5303 404 61.146 1372.81 570.676
1356 0 38.4065 10.5972 407 61.5749 1372.7 571.057
1357 0 40.261 11.8477 477 60.6101 1372.62 568.969
1358 0 41.1735 12.2166 503 59.7674 1372.99 572.012
1359 0 43.0898 11.1163 479 60.5324 1372.32 572.219
1360 0 44.067 12.9348 570 58.6246 1372.44 570.598
1361 0 45.0662 11.8936 536 60.3022 1372.35 569.763
1362 0 47.0936 12.6981 598 59.1171 1372.53 570.1
1363 0 50.121 11.7715 590 59.8864 1372.79 570.183
1364 0 49.1573 11.6768 574 61.1132 1372.72 569.47
1365 0 50.2003 12.0318 604 61.149 1372.62 567.667
1366 0 52.1397 12.5624 655 59.916 1372.76 568.461
1367 0 53.05 12.5165 664 60.7892 1372.71 566.997
1368 0 56.0747 12.0018 673 60.7623 1372.44 566.276
1369 0 56.1233 12.4013 696 61.2802 1372.66 566.612
1370 0 59.2168 12.4796 739 60.9702 1372.36 564.77
1371 0 61.3833 12.2672 753 60.6175 1372.54 564.444
1372 0 63.2852 13.131 831 60.3803 1372.31 563.922
1373 0 64.2903 12.428 799 61.9925 1372.47 561.546
1374 0 66.3897 12.0651 801 62.4507 1372.8 560.966
1375 0 67.3159 12.3299 830 62.2651 1372.48 561.371
1376 0 68.2811 12.2582 837 62.5579 1372.33 558.73
1377 0 72.1801 12.5381 905 62.537 1372.45 558.264
1378 0 72.1484 13.0287 940 62.0713 1372.51 556.197
1379 0 75.2797 12.0351 906 63.2362 1372.99 556.336
1380 0 77.4339 12.7463 987 61.9949 1372.98 555.157
1381 0 79.3636 12.1592 965 63.0052 1373.07 552.974
1382 0 83.4716 13.286 1109 58.9486 1373.23 551.032
1383 0 87.4252 12.9597 1133 59.0477 1373.03 549.923
1384 1 48.1946 11.2253 541 60.2292 1372.96 570.015
1385 0 48.1426 10.7182 516 61.7209 1372.84 569.601
1386 0 49.2483 11.2288 553 62.2206 1372.56 568.212
1387 0 51.2892 11.6204 596 61.4379 1372.46 566.961
1388 0 54.1257 11.8059 639 61.1831 1373.08 566.537
1389 0 56.0901 12.4977 701 60.2668 1373.79 566.478
1390 0 58.1229 13.265 771 58.5564 1372.98 566.244
1391 0 60.1478 13.2174 795 58.6616 1372.29 564.792
1392 0 62.1947 12.3966 771 59.8145 1372.08 563.529
1393 0 61.1258 12.6133 771 60.1699 1372.52 561.693
1394 0 65.1198 12.3618 805 59.4783 1373.02 561.591
1395 0 67.1705 13.3987 900 58.1333 1373.34 559.727
1396 0 68.166 12.5576 856 58.8248 1373.32 558.918
1397 0 71.1321 12.526 891 58.0819 1373.21 558.413
1398 0 74.073 13.2302 980 57.0837 1373.79 555.926
1399 0 76.1379 13.1603 1002 57.0898 1373.96 555.017
1400 0 77.0773 13.4151 1034 57.2785 1374.04 553.552
1401 0 79.2138 13.2048 1046 56.8805 1374.03 553.11
1402 0 81.1592 12.5186 1016 57.9429 1374.39 551.784
1403 1 45.0259 9.68331 436 57.9656 1374.49 571.339
1404 0 44.0163 10.6779 470 55.7851 1374.75 571.928
1405 0 48.0979 10.6034 510 55.9941 1374.93 568.935
1406 0 50.0125 10.7973 540 55.1981 1375.6 567.372
1407 0 51.0699 11.6899 597 54.6231 1376.52 566.566
1408 0 53.0264 12.2015 647 53.7743 1376.85 566.563
1409 0 54.0895 12.5718 680 53.6956 1376.47 563.747
1410 0 54.0838 11.9074 644 55.3866 1377.35 563.739
1411 0 58.1078 12.3391 717 54.4826 1376.84 562.63
1412 0 60.1127 12.5098 752 53.8404 1377.06 562.356
1413 0 61.1584 13.0644 799 53.184 1376.95 559.616
1414 0 61.1222 11.387 696 54.9052 1376.65 560.598
1415 0 66.1378 13.3358 882 52.5147 1377.14 558.503
1416 0 66.2182 12.0511 798 54.1328 1377.08 559.178
1417 0 68.1686 12.8945 879 53.4312 1377.62 556.11
1418 0 71.1767 13.3892 953 52.6978 1377.82 555.314
1419 0 72.2812 12.7972 925 53.3849 1377.54 553.92
1420 0 75.2175 13.441 1011 52.2977 1377.3 552.678
1421 0 79.1813 13.6522 1081 51.9482 1377.21 550.381
1422 0 81.2344 12.9009 1048 52.9676 1376.98 549.653
1423 1 44.1214 11.219 495 53.1111 1377.02 568.487
1424 0 44.0879 11.7719 519 52.264 1377.26 568.802
1425 0 47.1358 11.6684 550 52.0891 1377 567.062
1426 0 46.0934 11.6719 538 53.1171 1376.97 566.894
1427 0 48.1733 10.6075 511 54.771 1377.44 566.708
1428 0 51.1582 12.7057 650 52.4554 1377.43 565.366
1429 0 53.1306 12.4034 659 52.8649 1377.14 564.819
1430 0 54.1689 11.981 649 53.2265 1377.61 562.945
1431 0 55.1503 13.8893 766 51.1501 1377.67 563.175
1432 0 57.2028 12.7616 730 52.937 1377.24 560.392
1433 0 59.1397 12.4451 736 52.6726 1376.88 558.553
1434 0 62.1219 12.9906 807 52.995 1377.03 559.109
1435 0 65.2049 14.14 922 51.1963 1376.84 550.998
1436 0 65.2248 13.2158 862 53.5302 1377.04 552.814
1437 0 67.1583 12.7311 855 54.2281 1377.08 557.232
1438 0 69.1255 13.1355 908 53.5396 1377.1 555.707
1439 0 71.1235 13.3008 946 53.9958 1376.83 554.325
1440 0 76.1219 12.9266 984 53.2012 1376.56 554.551
1441 0 75.1124 13.4598 1011 53.5114 1377.03 551.527
1442 0 76.132 12.6097 960 54.4771 1376.69 549.916
1443 0 80.144 12.7645 1023 53.5464 1376.08 551.017
1444 0 83.1825 12.8633 1070 53.7776 1375.57 550.333
1445 0 84.2195 13.5242 1139 53.0316 1375.54 547.881
1446 0 89.1936 13.5996 1213 52.9967 1375.55 546.282
1447 0 90.3583 13.2473 1197 54.2874 1375.15 544.471
1448 0 96.1892 14.3675 1382 52.7981 1375.36 543.655
1449 0 98.3341 13.3118 1309 53.6845 1375.65 545.146
1450 0 101.255 14.0141 1419 53.2488 1375.68 540.326
1451 1 53.1047 10.9783 583 54.8079 1375.59 565.194
1452 0 55.1169 10.6319 586 55.1706 1375.67 563.998
1453 0 57.1639 11.6682 667 54.0075 1375.79 560.45
1454 0 58.1492 11.3157 658 54.6231 1375.71 562.491
1455 0 62.264 13.4749 839 52.2825 1375.42 558.85
1456 0 62.3686 12.9713 809 53.686 1374.55 556.313
1457 0 64.3195 13.0598 840 53.7988 1375.22 558.986
1458 0 65.1869 12.7786 833 54.425 1374.93 558.935
1459 0 69.2256 13.5644 939 53.3206 1375.08 555.518
1460 0 68.1782 12.79 872 54.6399 1375.13 554.095
1461 0 72.268 12.4675 901 54.3663 1374.9 552.876
1462 0 73.4011 12.8745 945 53.9587 1374.99 551.418
1463 0 77.7675 12.9231 1005 53.9821 1375.06 549.804
1464 0 79.4664 12.1938 969 54.7276 1374.52 549.445
1465 0 83.5727 12.5639 1050 53.7619 1374.7 546.099
1466 0 85.499 11.8247 1011 54.8991 1374.56 542.169
1467 0 86.4809 12.4652 1078 54.5482 1374.49 541.747
1468 1 46.3194 9.97421 462 53.9134 1373.97 564.416
1469 0 45.1401 9.65882 436 54.4083 1374.17 564.979
1470 0 46.3926 10.8422 503 53.5288 1374.37 565.392
1471 0 49.1791 10.7159 527 53.3605 1374.31 565.287
1472 0 51.1713 11.4908 588 52.3265 1373.9 562.675
1473 0 51.1459 12.2004 624 52.3798 1373.77 563.776
1474 0 54.1123 11.8827 643 53.0187 1374.29 562.963
1475 0 55.3237 12.2009 675 52.6756 1373.26 565.087
1476 0 56.2104 12.6489 711 52.7947 1372.91 564.536
1477 0 58.1687 11.7245 682 53.5557 1372.32 563.301
1478 0 60.214 12.605 759 52.5613 1372.58 561.868
1479 0 61.268 12.225 749 53.263 1372.82 561.12
1480 0 62.2439 12.7723 795 52.9849 1373.22 559.786
1481 0 66.2728 13.0521 865 52.3237 1372.64 558.275
1482 0 67.3865 12.8809 868 52.6083 1371.93 556.483
1483 0 68.2862 12.184 832 53.3017 1371.8 557.441
1484 0 71.4107 12.8692 919 52.8629 1372.06 555.206
1485 0 74.2625 12.5905 935 53.1743 1372.07 553.911
1486 0 75.3154 12.4145 935 53.9219 1372.97 552.152
1487 0 77.3288 12.5826 973 54.0195 1373.04 551.647
1488 0 80.3965 12.0528 969 53.8524 1373.14 551.824
1489 0 84.197 12.7439 1073 53.0103 1372.62 551.599
1490 0 87.2926 13.3459 1165 52.2361 1373.16 549.555
1491 0 90.2376 12.323 1112 53.5944 1372.89 547.678
1492 1 47.3031 10.401 492 53.1341 1373.13 567.329
1493 0 48.3606 11.0007 532 52.3365 1372.99 566.165
1494 0 50.3424 10.369 522 52.8831 1372.81 565.094
1495 0 53.2691 11.7516 626 51.2029 1372.97 565.006
1496 0 53.1151 12.0493 640 51.8703 1373.99 564.987
1497 0 55.0884 12.0897 666 51.3228 1373.8 564.911
1498 0 55.1486 11.8407 653 52.5574 1373.2 562.844
1499 0 57.2472 11.7211 671 53.0909 1373.61 562.705
1500 0 59.2649 12.5032 741 51.8475 1373.79 562.53
1501 0 60.1894 12.8096 771 51.9118 1373.88 561.262
1502 0 60.2096 12.5727 757 53.1268 1374.41 560.497
1503 0 65.2038 11.8705 774 52.978 1374.41 560.311
1504 0 65.4265 13.0375 853 52.5569 1373.95 557.294
1505 0 67.3928 12.2268 824 53.4478 1373.4 556.819
1506 0 70.1964 12.7642 896 52.8493 1373.69 553.421
1507 0 72.5038 12.9235 937 52.0993 1373.61 551.572
1508 0 75.5138 12.4481 940 52.4809 1373.75 552.567
1509 0 75.551 12.1772 920 53.1304 1374.09 549.724
1510 0 80.4529 13.2251 1064 52.0855 1374.57 547.82
1511 0 80.4174 12.4351 1000 53.476 1374.9 548.175
1512 0 85.5859 11.7309 1004 54.3546 1375.07 546.53
1513 0 88.7594 12.3705 1098 53.6366 1375.11 544.79
1514 1 47.4596 9.12355 433 54.7691 1374.64 565.901
1515 0 50.2872 10.7582 541 53.6543 1375.13 563.214
1516 0 50.3682 10.9593 552 53.3641 1375.58 563.611
1517 0 51.3417 11.2774 579 53.5786 1376.31 561.15
1518 0 53.135 11.8001 627 52.8134 1377.04 562.528
1519 0 54.221 12.0986 656 52.9375 1377.36 562.873
1520 0 57.2344 12.1256 694 53.1383 1377.49 559.729
1521 0 59.1831 12.0812 715 53.042 1377.44 558.969
1522 0 59.1179 11.993 709 53.7094 1378.12 558.23
1523 0 62.1428 11.6667 725 53.4055 1377.82 557.636
1524 0 62.2073 11.6385 724 53.5345 1378.19 558.456
1525 0 64.2519 10.9102 701 54.1284 1378.17 555.854
1526 0 67.2178 12.7496 857 52.2835 1378.03 554.188
1527 0 70.1625 11.7584 825 52.6194 1378.25 555.13
1528 0 72.3077 13.0415 943 51.1888 1378.5 554.102
1529 0 71.1455 11.3711 809 53.4079 1378.46 552.614
1530 0 76.2797 12.074 921 52.4028 1378.8 550.149
1531 0 78.2916 12.4024 971 52.1256 1378.52 550.138
1532 0 82.2089 12.8697 1058 52.2684 1378.36 547.596
1533 0 85.1771 13.1256 1118 51.9517 1378.41 545.215
1534 1 47.2691 9.66805 457 54.302 1377.53 565.751
1535 0 48.2577 9.7601 471 54.3907 1377.53 565.989
1536 0 51.1687 11.8041 604 52.6374 1377.6 562.748
1537 0 51.0439 10.5791 540 54.9593 1376.67 563.43
1538 0 53.0657 12.1547 645 52.7659 1378 563.104
1539 0 54.078 12.0751 653 53.3032 1378.45 564.034
1540 0 56.0229 12.9411 725 52.6179 1378.27 561.702
1541 0 58.1099 11.9257 693 54.1977 1378.43 560.732
1542 0 61.0951 13.1271 802 52.8042 1378.22 561.428
1543 0 61.0904 11.8185 722 54.6579 1378.17 559.508
1544 0 64.1068 11.7304 752 54.1436 1377.82 559.197
1545 0 66.1295 12.4755 825 53.3164 1378.08 555.501
1546 0 68.0295 12.2447 833 53.1116 1379.06 549.076
1547 0 71.1455 12.3128 876 52.8756 1378.83 548.705
1548 0 70.1765 12.1266 851 53.8425 1378.8 547.108
1549 0 73.1088 13.1585 962 52.3773 1378.9 550.022
1550 0 76.1567 12.3692 942 52.9745 1378.51 548.996
1551 0 77.1153 13.227 1020 52.4843 1378.8 548.775
1552 0 81.1729 13.231 1074 51.9888 1377.79 547.345
1553 0 82.1604 12.8164 1053 52.7379 1377 545.58
1554 0 84.1297 12.552 1056 53.1686 1376.91 545.093
1555 0 86.3683 12.4814 1078 53.1317 1377.1 544.02
1556 0 87.3028 12.0615 1053 53.9668 1376.94 544.138
1557 0 92.1142 12.8753 1186 52.8575 1376.85 542.505
1558 0 94.1305 12.6102 1187 53.1997 1377.18 542.21
1559 0 98.2488 12.56 1234 53.1499 1377.11 538.078
1560 0 101.121 13.6273 1378 52.812 1375.55 538.411
1561 0 105.157 12.5527 1320 53.5212 1375.35 537.27
1562 0 108.222 13.6016 1472 52.6644 1375.4 534.366
1563 1 55.0452 8.90178 490 54.1122 1374.64 561.961
1564 0 56.0888 9.41365 528 54.0341 1374.35 563.672
1565 0 57.0629 10.1642 580 54.2379 1374.07 558.341
1566 0 59.0724 10.4109 615 54.2894 1373.71 559.393
1567 0 63.0405 10.5012 662 54.0378 1373.45 559.195
1568 0 63.1116 12.1214 765 53.0758 1374.46 557.396
1569 0 67.1937 12.4565 837 52.724 1375.05 553.915
1570 0 71.3533 12.4451 888 52.3198 1375.1 555.475
1571 0 73.1912 12.4742 913 52.0274 1374.81 556.457
1572 0 75.3937 13.4096 1011 51.8961 1373.84 556.006
1573 0 75.1615 13.6107 1023 51.8524 1373.68 554.327
1574 0 79.1014 12.8569 1017 52.4189 1373.51 553.944
1575 0 81.1368 12.9658 1052 52.9401 1373.62 550.96
1576 0 84.1774 13.5309 1139 52.4864 1373.68 549.838
1577 0 87.0904 13.3769 1165 52.6609 1374.1 549.04
1578 0 88.0493 12.9359 1139 53.6523 1374.12 547.291
1579 0 92.2695 13.5148 1247 52.9134 1374.05 546.589
1580 0 93.1461 12.7864 1191 54.0336 1373.69 547.239
1581 0 98.1347 13.4 1315 53.2441 1373.74 543.317
1582 0 101.129 13.7251 1388 53.054 1374.24 544.004
1583 0 104.106 13.4286 1398 53.5064 1373.7 541.453
1584 0 105.14 12.7924 1345 54.3628 1373.7 538.836
1585 0 109.236 13.4479 1469 53.5779 1372.37 537.862
1586 0 114.105 13.8994 1586 53.1343 1372.58 535.682
1587 1 64.0495 11.413 731 53.1163 1372.48 562.501
1588 0 65.0998 11.5054 749 54.1816 1372.1 560.8
1589 0 67.1498 12.3455 829 53.3993 1372.99 560.105
1590 0 69.2721 13.1799 913 52.8269 1373.12 558.797
1591 0 70.159 13.1131 920 52.9989 1374.62 556.904
1592 0 74.1291 12.5996 934 52.8522 1374.46 557.123
1593 0 74.063 13.097 970 53 1374.46 554.494
1594 0 77.1797 13.0863 1010 52.3455 1374.82 553.175
1595 0 80.21 13.4148 1076 52.2249 1374.94 551.888
1596 0 81.1716 12.9972 1055 52.9659 1374.43 550.987
1597 0 85.0905 13.0567 1111 52.838 1374.27 550.563
1598 0 87.2947 13.0592 1140 52.7991 1374.2 548.757
1599 0 92.2577 13.6899 1263 52.0721 1374.3 546.933
1600 0 93.2046 13.1431 1225 52.9665 1374.59 545.244
1601 0 97.1841 14.1999 1380 51.9203 1374.32 541.751
1602 0 101.188 13.3514 1351 52.812 1374.99 542.232
1603 1 52.2473 11.0054 575 53.2157 1375.1 566.296
1604 0 53.1602 11.0045 585 54.0085 1375.41 564.046
1605 0 56.1104 11.317 635 52.8929 1375.35 563.019
1606 0 59.1847 12.6384 748 51.4144 1375.18 561.773
1607 0 59.1191 12.6017 745 52.5852 1375.01 561.317
1608 0 61.2056 13.087 801 52.0899 1375.43 560.452
1609 0 63.2208 11.6892 739 53.5101 1375.49 559.369
1610 0 66.2486 12.8305 850 52.5847 1375.27 556.898
1611 0 65.2021 12.6223 823 53.6197 1375.88 556.44
1612 0 69.2794 12.9764 899 52.9911 1375.62 556.21
1613 0 69.2794 12.9909 900 161.714 1375.62 556.143
1614 0 71.3377 11.6909 834 53.7782 1376.47 554.369
1615 0 72.3379 11.8195 855 156.182 1377.5 554.875
1616 0 79.4738 13.5013 1073 52.1221 1376.84 548.782
1617 0 78.3606 12.5701 985 54.0954 1377.71 547.669
1618 0 82.3411 13.3712 1101 52.8202 1377.76 547.852
1619 0 85.1335 13.1676 1121 52.9643 1378.09 545.706
1620 0 87.2452 13.6512 1191 52.6969 1378.69 541.791
1621 0 91.2696 12.107 1105 54.191 1378.68 542.315
1622 1 48.2181 10.1829 491 54.1059 1378.54 561.868
1623 0 51.0753 9.61325 491 54.0428 1379.23 561.809
1624 0 49.1061 11.1799 549 53.5647 1378.89 561.262
1625 0 53.0989 11.2055 595 53.6336 1378.78 558.832
1626 0 54.1747 12.3489 669 52.0912 1379.54 560.845
1627 0 54.0709 12.4836 675 52.4356 1379.91 559.742
1628 0 57.0978 11.8744 678 52.5501 1379.95 560.084
1629 0 59.0852 11.3396 670 52.7537 1379.81 559.618
1630 0 60.0749 12.1349 729 52.096 1379.85 559.13
1631 0 61.1969 12.7784 782 52.2775 1380.11 555.831
1632 0 61.0851 12.8182 783 52.682 1380.25 557.212
1633 0 65.2467 13.334 870 51.8046 1380.29 554.822
1634 0 67.1498 12.3753 831 53.0626 1380 554.165
1635 0 67.1708 11.7462 789 53.9518 1379.78 553.398
1636 0 70.1359 12.5043 877 53.39 1379.4 552.373
1637 0 71.1576 13.6036 968 52.2221 1379.72 550
1638 0 73.2456 12.9701 950 53.0589 1379.07 551.447
1639 0 76.1535 13.4334 1023 52.697 1379.23 549.003
1640 0 78.4138 13.0207 1021 53.5269 1379.22 547.752
1641 0 82.2517 13.6897 1126 51.8783 1378.9 547.274
1642 0 82.325 13.2159 1088 53.2619 1378.9 544.107
1643 0 86.3915 14.3185 1237 51.8222 1379.23 543.995
1644 0 88.2358 13.7926 1217 52.9565 1379.26 540.769
1645 0 91.3122 14.0507 1283 52.6189 1378.8 541.682
1646 0 93.2649 13.585 1267 53.7024 1379.03 539.595
1647 0 96.505 13.9578 1347 53.5635 1379.15 538.022
1648 0 101.353 13.8822 1407 52.9652 1379.06 536.662
1649 1 51.2515 10.868 557 54.5637 1378.89 561.393
1650 0 55.3236 10.4476 578 54.5069 1378.9 560.374
1651 0 57.1059 11.7501 671 53.7079 1378.39 558.125
1652 0 59.1018 12.4869 738 53.0732 1378.18 558.444
1653 0 61.2023 11.7152 717 53.3305 1378.12 558.704
1654 0 63.0863 13.3785 844 51.7299 1377.93 557.406
1655 0 63.1726 12.1572 768 53.5898 1377.62 556.522
1656 0 67.1826 12.6074 847 52.8973 1377.5 553.527
1657 0 68.256 12.3359 842 53.823 1377.61 552.051
1658 0 70.2012 12.6921 891 52.8934 1377.58 552.263
1659 0 71.1984 12.3458 879 53.9852 1377.29 550.708
1660 0 78.3118 13.6123 1066 52.3537 1377.52 549.751
1661 0 78.3086 12.489 978 54.3374 1377.15 546.704
1662 0 83.2864 13.5076 1125 52.6444 1376.83 544.441
1663 0 84.3686 13.441 1134 52.9982 1376.83 543.116
1664 0 87.2183 13.3458 1164 52.8153 1376.82 542.21
1665 0 91.2786 13.4971 1232 52.8718 1376.15 540.039
1666 1 48.3171 9.7274 470 53.866 1375.63 562.477
1667 0 49.2048 9.91773 488 52.6168 1375.95 560.697
1668 0 52.2975 10.2491 536 51.6119 1375.75 560.847
1669 0 52.2975 10.1534 531 164.772 1374.74 560.847
1670 0 58.3118 11.8672 692 49.5 1375.67 559.777
1671 0 58.0387 11.768 683 50.2884 1376.32 559.152
1672 0 58.061 12.0907 702 50.3689 1376.28 557.46
1673 0 63.1238 11.8656 749 49.5167 1375.93 556.887
1674 0 64.0844 12.9205 828 48.907 1376.18 556.048
1675 0 67.1561 12.4337 835 49.2024 1376.03 554.83
1676 0 68.2046 12.4478 849 49.6702 1375.85 553.001
1677 0 70.2212 13.1727 925 48.9416 1375.91 554.825
1678 0 73.1086 12.5567 918 49.8148 1375.28 551.727
1679 0 73.2578 12.6676 928 50.0938 1375.14 550.62
1680 0 78.2915 12.76 999 49.7728 1375.21 548.197
1681 0 79.1963 13.0814 1036 49.9778 1375.06 548.288
1682 1 40.1491 8.74241 351 51.1994 1375.03 569.191
1683 0 43.1388 9.66648 417 52.1799 1375.49 564.492
1684 0 43.2774 9.61242 416 50.8606 1375.5 565.695
1685 0 47.1226 10.6743 503 49.2545 1375.13 566.008
1686 0 49.2779 11.2018 552 48.8261 1375.42 565.953
1687 0 51.181 11.137 570 49.7298 1374.82 564.667
1688 0 51.1041 12.6017 644 48.9969 1375.29 563.21
1689 0 51.0904 13.4859 689 48.9782 1374.54 562.235
1690 0 53.1177 12.7076 675 49.4874 1374.44 563.35
1691 0 55.13 12.4796 688 49.9128 1374.51 562.926
1692 0 55.1579 11.7662 649 51.1664 1374.04 561.757
1693 0 59.1341 12.8183 758 49.2533 1374.15 562.061
1694 0 60.1281 12.6896 763 50.0157 1374.11 559.942
1695 0 61.2145 11.8273 724 50.826 1373.88 558.601
1696 0 62.1021 13.0269 809 49.6947 1373.89 557.423
1697 0 64.1533 13.7795 884 49.1267 1373.65 555.862
1698 0 66.0895 12.7706 844 49.6043 1373.36 558.058
1699 0 67.0846 12.6855 851 49.8167 1373.04 556.72
1700 0 70.0657 12.5311 878 49.7722 1373.12 556.257
1701 0 70.2514 13.2097 928 49.68 1372.53 555.783
1702 0 74.2068 12.6808 941 49.6982 1372.38 554.214
1703 0 74.1332 12.3966 919 50.84 1372.27 553.009
1704 0 78.1751 12.8941 1008 49.8046 1372.44 553.087
1705 0 79.2582 12.5287 993 50.428 1372.69 549.65
1706 0 84.1107 13.0304 1096 50.0912 1372.47 547.888
1707 0 85.2174 14.5041 1236 48.7184 1372.94 545.845
1708 0 87.2374 12.4832 1089 51.4646 1372.77 544.486
1709 1 48.1618 9.96641 480 50.6437 1373.53 566.64
1710 0 47.1757 11.5949 547 50.6252 1373.37 564.766
1711 0 51.0976 11.116 568 50.8873 1373.51 563.683
1712 0 51.1922 12.2089 625 50.712 1373.3 563.851
1713 0 51.0795 12.5295 640 50.8984 1372.06 564.448
1714 0 54.0427 12.4161 671 51.0417 1372.78 564.122
1715 0 55.0845 12.9619 714 51.056 1372.87 563.885
1716 0 58.1152 13.0947 761 50.657 1372.65 562.444
1717 0 57.0963 11.5069 657 53.6636 1373 560.96
1718 0 59.0953 12.8775 761 51.7477 1372.88 561.137
1719 0 60.073 13.3837 804 51.4216 1373.32 559.899
1720 0 63.0679 12.8592 811 52.2626 1373.18 560.298
1721 0 64.1395 12.5508 805 52.9242 1372.99 559.257
1722 0 65.0904 12.9205 841 53.1474 1373.12 557.832
1723 0 68.1092 13.17 897 52.932 1373.72 556.72
1724 0 69.0558 13.0619 902 53.0421 1373.91 556.162
1725 0 71.0777 13.239 941 53.491 1374.23 554.283
1726 0 72.1898 13.4645 972 53.6698 1374.09 553.156
1727 0 78.0352 13.5323 1056 53.1856 1374.6 551.719
1728 0 79.0921 13.7435 1087 53.3533 1375.16 550.681
1729 0 80.1999 13.192 1058 53.7552 1375.36 549.965
1730 0 83.2303 12.6637 1054 54.3605 1375.28 548.55
1731 0 86.3476 12.8087 1106 54.613 1375.45 546.99
1732 0 88.1961 13.1979 1164 54.5756 1375.72 545.508
1733 0 90.1458 14.1216 1273 53.8476 1375.94 543.475
1734 0 93.4046 13.3184 1244 54.7886 1376 541.814
1735 0 95.5103 14.7628 1410 53.3787 1375.93 539.796
1736 0 98.19 14.9608 1469 53.0252 1376.42 538.671
1737 0 101.209 13.8624 1403 53.3813 1376.62 537.42
1738 1 50.1709 11.7199 588 54.148 1375.78 562.196
1739 0 52.057 10.9111 568 55.7412 1375.93 560.717
1740 0 56.1086 11.9946 673 55.3299 1376.88 560.963
1741 0 58.0584 12.0741 701 55.9001 1376.91 558.359
1742 0 58.0587 12.1773 707 54.8472 1377.26 558.489
1743 0 62.1377 15.2886 950 51.7084 1377.75 555.937
1744 0 63.1288 13.3537 843 54.7675 1378.38 556.128
1745 0 64.0566 12.8949 826 56.0291 1378.27 554.11
1746 0 68.0418 13.3447 908 54.7698 1378.59 552.034
1747 0 70.1549 14.3967 1010 53.8109 1379.33 550.232
1748 0 72.2235 14.1644 1023 54.3822 1378.95 548.153
1749 0 74.2 14.124 1048 54.9485 1379.24 548.061
1750 0 78.2432 13.9309 1090 55.0147 1379.08 547.446
1751 0 80.146 14.6857 1177 54.6151 1379.69 546.359
1752 0 81.2193 14.3562 1166 55.2762 1379.77 545.495
1753 0 85.2696 14.1316 1205 55.3867 1379.57 544.284
1754 0 86.2723 14.0833 1215 170.728 1379.57 544.029
1755 0 88.1912 13.6748 1206 56.2595 1379.81 542.508
1756 0 90.1395 14.8104 1335 56.015 1379.94 540.178
1757 0 95.3285 16.1966 1544 53.9683 1379.55 539.23
1758 0 97.2411 14.3561 1396 55.9835 1379.59 537.451
1759 0 101.147 14.9287 1510 55.5344 1379.65 535.697
1760 0 101.342 14.7618 1496 56.367 1379.49 533.676
1761 0 106.221 14.7994 1572 55.7691 1379.7 533.155
1762 0 111.216 15.8161 1759 54.5435 1380.06 532.764
1763 1 59.0863 10.9501 647 56.9258 1379.27 557.728
1764 0 59.0508 11.9897 708 56.4449 1378.55 557.667
1765 0 62.17 12.5302 779 56.0051 1378.81 555.845
1766 0 65.2663 13.9276 909 54.8922 1378.83 554.317
1767 0 66.1059 13.2061 873 56.0378 1378.42 553.882
1768 0 68.0319 13.2732 903 55.5803 1378.52 553.28
1769 0 70.1373 12.6466 887 56.7193 1378.31 552.284
1770 0 73.0715 13.7263 1003 56.1515 1378.32 549.037
1771 0 75.1145 13.8855 1043 55.7047 1378.21 549.702
1772 0 79.054 14.5217 1148 55.6446 1378.08 548.097
1773 0 80.178 14.4553 1159 56.3857 1378.15 547.031
1774 0 82.1092 13.7743 1131 57.4483 1378.06 544.825
1775 0 85.1204 14.0389 1195 57.1649 1377.6 543.752
1776 0 88.095 14.9725 1319 55.2381 1377.98 542.241
1777 0 90.1951 14.2469 1285 55.2436 1377.81 543.093
1778 0 92.1061 13.1696 1213 57.0462 1377.5 540.646
1779 0 97.1186 16.0114 1555 53.9897 1377.34 539.318
1780 1 49.0486 10.9687 538 56.9294 1376.98 563.788
1781 0 52.0868 10.8473 565 58.331 1377.02 562.404
1782 0 54.0923 11.4434 619 58.0711 1376.98 559.85
1783 0 55.097 11.8881 655 57.1954 1377.31 560.588
1784 0 57.1803 12.4693 713 56.5961 1376.27 558.411
1785 0 61.1216 14.2012 868 54.0288 1376.2 556.824
1786 0 63.1507 12.6364 798 55.505 1376.04 556.019
1787 0 63.1507 12.6681 800 163.023 1376.05 555.962
1788 0 65.0757 12.8466 836 56.0359 1375.56 554.906
1789 0 69.1956 13.2956 920 55.2 1375.78 553.641
1790 0 71.239 12.2405 872 55.844 1375.54 552.817
1791 0 73.1794 13.3917 980 55.0827 1376 550.093
1792 0 77.1672 13.9178 1074 53.7346 1375.84 551.034
1793 0 77.1672 13.853 1069 157.976 1374.8 551.025
1794 0 82.2053 13.1987 1085 54.4894 1375.29 546.745
1795 0 85.2022 13.9081 1185 53.4743 1375.47 544.976
1796 0 88.2874 12.7878 1129 54.3924 1375.6 543.504
1797 1 49.0883 10.3894 510 53.8627 1374.86 564.524
1798 0 50.1266 11.3313 568 53.4102 1375.24 563.352
1799 0 51.0551 11.0665 565 53.5841 1375.17 563.596
1800 0 53.0419 10.2937 546 54.3663 1374.52 563.018
1801 0 54.1284 11.3619 615 53.5951 1374.44 561.569
1802 0 56.1109 11.7802 661 52.2769 1375.58 561.868
1803 0 59.1767 11.4234 676 52.6672 1375.52 561.808
1804 0 60.1502 11.9534 719 52.0167 1375.46 560.399
1805 0 63.0949 12.4891 788 50.9746 1375.51 559.725
1806 0 64.0791 13.0776 838 51.0883 1375.63 557.026
1807 0 67.0673 13.4045 899 50.4316 1375.32 557.328
1808 0 70.0657 14.0868 987 49.4742 1375 557.53
1809 0 70.1612 12.3145 864 51.7986 1374.99 554.112
1810 0 74.1223 14.2467 1056 49.447 1374.69 553.649
1811 0 74.0978 12.2136 905 52.0133 1375.11 552.662
1812 0 78.0739 13.7178 1071 50.5369 1374.69 549.495
1813 0 78.0723 12.3091 961 52.3143 1374.67 547.814
1814 0 81.1365 12.9165 1048 51.2872 1374.53 549.051
1815 0 86.101 12.9848 1118 51.5242 1375.22 546.326
1816 0 87.0855 12.2868 1070 52.5374 1375.14 546.957
1817 0 90.0785 13.9545 1257 51.2156 1375.46 544.898
1818 0 90.0785 13.8657 1249 148.455 1375.44 544.873
1819 0 96.0477 12.879 1237 52.8949 1375.62 541.807
1820 0 98.0629 12.441 1220 53.541 1375.57 542.74
1821 0 100.231 14.5563 1459 51.9308 1375.09 539.181
1822 0 101.244 13.433 1360 53.5044 1374.96 538.471
1823 0 105.131 13.1645 1384 53.8425 1375.4 536.611
1824 0 109.192 14.4791 1581 52.7704 1375.67 534.43
1825 0 111.145 13.7208 1525 53.8111 1375.56 531.986
1826 0 116.159 13.3179 1547 54.2165 1375.36 531.502
1827 0 119.308 13.5029 1611 54.2744 1375.77 528.69
1828 1 73.077 12.0284 879 55.2901 1375.8 552.21
1829 0 75.0933 11.4391 859 55.3912 1376.22 551.347
1830 0 78.0977 13.0862 1022 53.6155 1376.15 549.731
1831 0 82.1997 12.8103 1053 54.113 1375.95 546.923
1832 0 83.1073 13.3201 1107 54.2023 1376.14 544.798
1833 0 84.1114 13.6129 1145 54.0716 1375.94 547.212
1834 0 86.0786 13.1275 1130 54.8292 1376.41 544.338
1835 0 89.0739 13.7189 1222 54.1097 1376.57 543.625
1836 0 93.0852 13.2137 1230 54.7496 1377.18 539.915
1837 0 94.2161 13.0763 1232 54.9789 1377.32 539.697
1838 0 96.1572 13.2699 1276 54.7382 1378.1 537.683
1839 0 101.192 13.5386 1370 54.1416 1378.34 536.668
1840 0 104.114 13.7541 1432 53.9337 1378.51 535.166
1841 0 110.23 13.8528 1527 53.3608 1378.64 531.153
1842 0 112.163 13.5071 1515 53.7762 1378.89 531.014
1843 1 61.0814 10.1504 620 53.4435 1378.89 556.652
1844 0 62.1073 11.3835 707 52.4455 1379.23 554.491
1845 0 63.1182 10.4566 660 54.2348 1379.21 554.388
1846 0 65.1258 11.5469 752 53.7035 1379.24 551.705
1847 0 68.0892 11.9108 811 52.4661 1379.37 546.376
1848 0 71.2072 12.2881 875 51.6594 1380.29 547.671
1849 0 73.076 12.5759 919 51.6322 1380.22 547.97
1850 0 73.4042 11.2255 824 54.7015 1379.54 549.752
1851 0 74.2141 11.2917 838 53.8377 1380.07 547.85
1852 0 77.2032 12.3181 951 52.5468 1379.77 545.603
1853 0 81.2203 12.9894 1055 50.7261 1379.52 543.457
1854 0 85.4345 12.9456 1106 50.3499 1379.57 540.981
1855 0 87.2165 12.7499 1112 51.1987 1379.36 539.683
1856 0 91.1423 12.859 1172 51.3814 1378.98 539.308
1857 0 92.2159 12.4599 1149 51.9661 1379.12 537.14
1858 0 96.2203 12.9494 1246 51.1894 1379.06 536.486
1859 0 99.4312 14.5528 1447 49.4444 1379.27 534.077
1860 0 102.375 14.6227 1497 49.2191 1379.67 535.658
1861 1 54.284 10.9609 595 51.1193 1378.88 557.494
1862 0 55.2353 10.7721 595 50.5866 1378.81 558.617
1863 0 58.1367 11.4902 668 50.2021 1379.19 556.398
1864 0 60.3007 11.8572 715 50.2993 1378.2 553.397
1865 0 63.0395 12.167 767 49.5046 1379.31 555.585
1866 0 63.0392 11.2311 708 50.4788 1379.03 556.011
1867 0 66.1343 12.3688 818 49.7213 1377.94 554.72
1868 0 66.1979 12.4777 826 50.3269 1377.66 552.53
1869 0 69.1389 12.511 865 50.1075 1377.67 554.005
1870 0 70.1989 12.2367 859 49.8545 1377.51 551.554
1871 0 72.1779 12.58 908 49.5176 1377.66 548.536
1872 0 75.1625 13.6371 1025 48.678 1377.38 550.164
1873 0 77.16 13.323 1028 49.5224 1377.95 548.999
1874 0 79.0804 13.7708 1089 48.9118 1377.47 549.14
1875 0 81.1074 12.9951 1054 49.6338 1377.23 545.203
1876 0 84.1509 12.644 1064 50.2782 1376.99 543.916
1877 0 84.1509 12.644 1064 152.897 1377.99 543.882
1878 0 91.3185 13.6007 1242 49.1892 1377.07 542.915
1879 0 94.2693 13.8221 1303 49.1236 1376.23 541.265
1880 1 48.0914 9.44036 454 51.1696 1376.01 564.524
1881 0 51.0757 10.7879 551 50.637 1377.09 564.813
1882 0 53.1109 11.8808 631 49.5626 1376.9 563.582
1883 0 53.2119 11.5388 614 50.6792 1375.97 562.655
1884 0 55.1167 12.3737 682 50.5733 1375.98 561.836
1885 0 55.128 12.0991 667 51.4993 1376.13 561.843
1886 0 58.1214 12.1126 704 51.3253 1375.9 561.544
1887 0 58.1282 13.281 772 50.7953 1375.59 561.051
1888 0 60.0687 12.6522 760 51.8092 1375.69 559.867
1889 0 61.1038 12.6997 776 51.9961 1375.18 560.396
1890 0 62.0975 12.738 791 51.8622 1375.37 560.537
1891 0 64.2066 12.9893 834 52.2086 1375.55 558.526
1892 0 65.0761 12.4316 809 52.7676 1375.44 558.267
1893 0 67.1058 13.1732 884 52.4955 1375.43 556.131
1894 0 69.1628 14.4586 1000 51.222 1374.95 554.671
1895 0 69.2039 12.9039 893 53.4255 1375.04 552.952
1896 0 73.1869 13.609 996 52.7309 1375.29 551.913
1897 0 73.2327 13.341 977 53.4923 1375.43 550.986
1898 0 77.1886 13.9917 1080 52.5417 1375.3 550.764
1899 0 80.1839 13.918 1116 52.2912 1375.02 550.537
1900 0 81.1798 13.4147 1089 52.9247 1374.55 547.341
1901 0 83.2067 13.6167 1133 52.6496 1374.76 548.221
1902 0 86.1544 13.0231 1122 53.5107 1374.72 545.119
1903 0 88.1121 13.4374 1184 53.0583 1374.56 545.864
1904 1 47.1282 10.5245 496 53.494 1374.46 567.381
1905 0 48.1088 10.3723 499 53.5611 1374.43 567.102
1906 0 51.1419 11.6734 597 52.938 1373.71 564.226
1907 0 52.071 11.926 621 52.6264 1373.85 564.919
1908 0 54.0285 12.586 680 51.9485 1374.08 565.651
1909 0 57.1151 12.5536 717 51.9052 1373.46 563.874
1910 0 57.0513 13.0234 743 52.4509 1373.36 563.214
1911 0 58.0735 13.3107 773 52.4217 1373.63 562.351
1912 0 59.074 12.8144 757 52.9538 1373.43 561.927
1913 0 61.1404 12.0869 739 53.6455 1373.37 562.258
1914 0 63.2674 13.0715 827 52.6989 1373.17 560.062
1915 0 65.0562 13.3577 869 52.8918 1372.86 559.282
1916 0 68.1015 13.8323 942 52.189 1373.32 557.443
1917 0 71.075 13.0566 928 52.7662 1372.81 558.053
1918 0 72.1554 13.5679 979 53.4208 1372.45 555.669
1919 0 75.0927 13.9294 1046 53.1119 1373.53 555.882
1920 0 75.1206 12.0606 906 55.7859 1374.05 552.775
1921 0 80.1484 13.4001 1074 54.1639 1373.36 552.343
1922 0 84.2426 14.0546 1184 53.0431 1373.21 550.863
1923 0 85.0931 13.3971 1140 54.1368 1373.43 549.746
1924 0 87.1413 13.3232 1161 54.0215 1373.46 547.696
1925 1 45.0235 10.1725 458 54.941 1373.32 569.886
1926 0 50.1728 11.281 566 53.6325 1373.3 568.594
1927 0 48.0416 11.5941 557 53.9569 1373.12 569.19
1928 0 50.0399 11.7306 587 53.7973 1372.47 567.794
1929 0 51.0711 12.6294 645 53.0992 1372.09 566.313
1930 0 54.0373 13.0095 703 52.4879 1372.3 566.999
1931 0 55.0641 12.8577 708 52.8602 1372.07 565.459
1932 0 59.141 12.6985 751 52.02 1372 565.108
1933 0 61.0786 12.1646 743 52.7672 1371.92 563.319
1934 0 61.0976 12.4228 759 52.8551 1372.56 562.692
1935 0 64.0773 12.8907 826 52.2058 1372.87 562.351
1936 0 68.1634 13.5557 924 50.8463 1372.97 560.76
1937 0 68.107 12.2454 834 52.6103 1373.17 559.086
1938 0 71.1441 12.3693 880 52.2568 1373.36 556.734
1939 0 74.0639 12.3677 916 52.0055 1373.87 556.02
1940 0 75.099 12.357 928 52.2263 1373.55 556.349
1941 0 79.1634 13.1247 1039 51.4735 1373.58 553.09
1942 0 82.092 13.2169 1085 51.0654 1373.91 551.518
1943 0 87.1999 12.9358 1128 50.5567 1373.77 549.962
1944 0 89.1195 12.6908 1131 49.3519 1374.45 549.694
1945 1 46.0246 12.3412 568 49.662 1374.76 570.556
1946 0 46.0826 12.6946 585 49.9983 1374.61 568.715
1947 0 49.1613 13.1608 647 49.0278 1374.65 566.723
1948 0 51.0406 13.597 694 48.4669 1374.16 566.226
1949 0 53.0749 13.1324 697 48.6255 1374.56 565.102
1950 0 53.0461 12.7059 674 48.9703 1374.51 566.473
1951 0 55.0254 13.1212 722 48.3338 1374.79 565.904
1952 0 56.058 12.7903 717 48.9582 1374.96 562.598
1953 0 58.131 13.3492 776 48.3595 1375.52 563.03
1954 0 60.0589 13.5034 811 47.5549 1375.7 560.015
1955 0 63.0735 13.9203 878 47.0558 1375.45 559.591
1956 0 64.1088 13.7267 880 47.0602 1375.27 558.032
1957 0 66.3138 13.421 890 47.3966 1375.24 557.89
1958 0 68.0874 13.8058 940 47.1479 1375.45 555.452
1959 0 70.0697 12.773 895 47.3508 1375.56 556.638
1960 0 73.2798 13.196 967 46.9762 1375.68 554.616
1961 0 76.1921 12.9672 988 47.1447 1375.99 552.966
1962 0 78.2253 12.6813 992 47.2681 1376.52 549.991
1963 0 79.1066 13.4502 1064 46.8759 1376.67 551.036
1964 0 84.2339 14.1392 1191 46.3401 1376.58 546.807
1965 0 86.265 13.6208 1175 46.5728 1376.45 547.353
1966 1 42.2589 10.8616 459 48.1068 1377.15 568.033
1967 0 47.1096 11.3565 535 47.529 1377.18 568.116
1968 0 49.1443 10.7642 529 48.1645 1377.23 563.934
1969 0 50.229 12.5824 632 47.1725 1377.74 563.875
1970 0 52.3123 12.9797 679 46.9647 1378.31 564.297
1971 0 52.1337 12.372 645 48.6093 1378.4 563.74
1972 0 56.1779 12.8698 723 47.9696 1378.57 560.697
1973 0 57.1117 12.747 728 48.0481 1379.18 560.179
1974 0 56.1491 12.4134 697 49.0287 1379.28 558.237
1975 0 60.0859 13.048 784 48.1008 1379.79 558.091
1976 0 60.0964 12.6297 759 49.083 1380.1 556.983
1977 0 64.2304 13.7941 886 47.702 1380.6 557.54
1978 0 67.3095 12.9105 869 48.1807 1380.25 556.15
1979 0 69.4352 14.2003 986 47.4168 1380.74 555.996
1980 0 72.3001 13.4855 975 48.1713 1380.44 553.05
1981 0 71.2264 13.4922 961 49.1769 1380.79 552.502
1982 0 73.3534 12.8965 946 49.9123 1380.81 551.416
1983 0 76.3447 13.9106 1062 49.3023 1380.7 547.022
1984 0 80.4717 12.9238 1040 49.9538 1380.74 548.672
1985 0 84.3853 13.4502 1135 49.548 1380.63 545.315
1986 0 87.3699 15.6232 1365 47.5143 1381 543.647
1987 0 87.2592 13.8897 1212 49.7483 1380.55 544.224
1988 1 47.3012 11.0145 521 50.618 1380.45 565.173
1989 0 48.1431 11.0712 533 51.2364 1380.01 563.383
1990 0 49.1631 12.1839 599 50.4624 1380.16 563.16
1991 0 53.1268 12.3855 658 50.3556 1380.41 560.673
1992 0 54.0827 11.8152 639 50.4977 1380.15 562.255
1993 0 54.1686 13.3841 725 50.6193 1379.72 558.561
1994 0 54.1686 13.4949 731 160.211 1379.7 558.65
1995 0 61.1906 12.4529 762 50.5433 1379.5 558.572
1996 0 60.1505 13.5161 813 50.3296 1379.47 557.474
1997 0 65.2478 14.6059 953 48.8059 1379.22 556.572
1998 0 65.1606 14.1343 921 50.1683 1379.18 554.099
1999 0 67.0678 14.7463 989 49.5126 1379.14 555.009
2000 0 69.2794 13.5827 941 51.2009 1379.05 551.77
2001 0 71.1991 14.6631 1044 50.022 1378.7 552.722
2002 0 75.249 13.2095 994 51.3501 1378.31 550.774
2003 0 77.3471 14.5319 1124 49.8479 1378.33 550.381
2004 0 79.1082 14.537 1150 50.7348 1378.2 547.11
2005 0 81.131 13.583 1102 52.2868 1378.16 548.201
2006 0 85.2857 14.8911 1270 50.9354 1378.02 546.285
2007 0 88.2274 15.3127 1351 50.5596 1377.98 543.595
2008 0 90.0931 14.8846 1341 51.1626 1377.86 542.642
2009 0 94.1349 15.3184 1442 50.8828 1377.77 541.495
2010 1 48.0392 10.7829 518 52.9865 1378.06 564.568
2011 0 51.0677 11.2987 577 53.0589 1377.96 562.776
2012 0 49.0739 11.8597 582 53.0034 1377.59 561.634
2013 0 54.0471 13.0997 708 51.3573 1376.88 562.881
2014 0 57.1177 13.4634 769 51.0611 1376.59 561.815
2015 0 56.1142 12.528 703 52.5434 1376.56 560.747
2016 0 57.0732 12.4402 710 53.1775 1376.72 559.217
2017 0 60.058 13.8033 829 51.9723 1376.45 559.597
2018 0 63.0565 13.2262 834 52.3633 1376.08 558.646
2019 0 64.1142 13.5071 866 52.4723 1376.14 557.345
2020 0 67.0307 13.009 872 53.2878 1376.32 557.095
2021 0 68.1513 14.5999 995 51.993 1376.41 555.537
2022 0 69.1396 13.885 960 53.549 1376.25 555.251
2023 0 71.0908 13.5883 966 54.412 1376.13 553.352
2024 0 74.071 14.7696 1094 52.9945 1376.4 554.272
2025 0 76.2232 13.7885 1051 54.4415 1376.38 550.909
2026 0 80.1499 13.8615 1111 54.342 1375.89 550.517
2027 0 83.1286 15.1452 1259 53.0699 1376.08 549.102
2028 0 87.0943 13.56 1181 54.7519 1376.21 546.8
2029 0 89.1489 15.031 1340 53.297 1376.25 545.668
2030 0 92.111 13.6791 1260 55.1381 1376.05 544.199
2031 1 46.0559 11.0084 507 56.3314 1376.23 567.68
2032 0 49.1209 11.5633 568 55.9842 1375.96 566.931
2033 0 50.0649 12.284 615 55.3138 1376.08 565.499
2034 0 51.1652 12.4303 636 55.7264 1375.71 564.981
2035 0 54.0473 13.0626 706 55.0297 1375.9 563.867
2036 0 54.0944 13.9201 753 55.1541 1375.78 564.268
2037 0 57.1102 12.7123 726 55.5207 1375.83 564.156
2038 0 57.1005 12.7319 727 56.1155 1375.7 562.138
2039 0 60.1458 12.8687 774 55.6344 1375.27 562.668
2040 0 62.1658 12.9653 806 55.5918 1375.26 560.805
2041 0 64.1951 13.6615 877 55.1984 1375.28 560.788
2042 0 67.1373 13.7479 923 55.0888 1375.5 559.46
2043 0 70.127 14.2741 1001 54.8611 1375.57 555.886
2044 0 72.2075 13.2673 958 55.6566 1375.24 557.456
2045 0 72.2134 14.2633 1030 55.5845 1375.6 553.733
2046 0 75.1604 13.2251 994 56.2485 1375.83 554.559
2047 0 80.2074 13.7643 1104 55.2391 1375.79 552.845
2048 0 83.2903 13.8792 1156 55.6998 1375.4 550.502
2049 0 86.2785 14.3721 1240 54.7677 1375.4 550.408
2050 0 88.3009 13.839 1222 55.7545 1375.43 548.571
2051 0 91.2502 13.8301 1262 55.9358 1374.57 547.032
2052 1 46.2985 10.1083 468 57.0128 1374.2 569.551
2053 0 48.1837 11.3524 547 58.8135 1374.6 567.784
2054 0 50.1533 11.1857 561 57.8324 1374.2 568.725
2055 0 53.1245 11.9154 633 56.9163 1374.08 567.815
2056 0 54.1232 11.9912 649 57.2866 1373.83 566.992
2057 0 52.1534 11.3895 594 152.746 1373.8 566.153
2058 0 58.1179 11.7003 680 57.6118 1373.23 564.424
2059 0 60.1012 12.0297 723 57.2241 1373.62 562.663
2060 0 62.1222 12.9905 807 55.8786 1373.64 562.677
2061 0 64.166 11.9378 766 56.7885 1373.6 562.856
2062 0 67.1741 13.398 900 55.44 1373.64 561.413
2063 0 68.2165 12.6069 860 56.4581 1373.45 560.728
2064 0 71.1771 13.4313 956 55.5575 1373.17 560.808
2065 0 72.17 12.4013 895 57.1955 1373.31 558.99
2066 0 75.4749 12.905 974 56.7382 1373.77 558.106
2067 0 79.2802 13.2694 1052 56.3051 1374.32 555.253
2068 0 82.2109 12.5531 1032 57.312 1374.28 554.694
2069 0 84.4476 13.4284 1134 56.164 1374.2 552.817
2070 0 85.3033 13.2586 1131 56.6154 1373.76 550.939
2071 0 89.1507 13.9539 1244 56.5193 1374.34 548.469
2072 1 47.3497 10.3063 488 56.8074 1374.36 571.496
2073 0 48.3546 10.0301 485 58.8866 1374.38 567.518
2074 0 50.2315 10.6308 534 58.3933 1374.28 566.631
2075 0 53.312 10.6918 570 57.6579 1373.84 565.307
2076 0 54.2345 10.639 577 58.2114 1373.89 564.536
2077 0 56.195 12.2075 686 55.8732 1374.57 563.341
2078 0 58.089 12.0333 699 56.4464 1375.34 561.196
2079 0 58.0501 12.248 711 56.7187 1375.53 563.982
2080 0 62.1899 13.105 815 55.4503 1375.99 563.764
2081 0 60.049 13.0394 783 56.3704 1375.78 562.267
2082 0 64.2789 13.3481 858 55.4417 1375.99 561.83
2083 0 67.1977 13.3636 898 55.1403 1376.28 558.945
2084 0 65.125 12.6833 826 56.5956 1376.56 558.864
2085 0 70.2616 12.8377 902 55.5166 1376.59 558.476
2086 0 71.1916 13.1336 935 54.9733 1376.61 555.69
2087 0 73.2461 13.3522 978 54.8988 1376.68 554.437
2088 0 76.2252 14.1161 1076 53.8829 1377.67 553.792
2089 0 77.3022 12.6646 979 55.2308 1377.74 553.86
2090 0 78.3397 12.8287 1005 55.5085 1378.21 551.772
2091 0 81.1941 13.7941 1120 54.3875 1378 550.66
2092 0 84.4115 14.0621 1187 53.9671 1377.7 549.366
2093 0 87.2139 13.1745 1149 54.7389 1378.21 548.044
2094 0 90.2264 14.1644 1278 53.8161 1378.21 541.637
2095 0 93.21 13.4749 1256 54.4944 1378.18 541.635
2096 0 95.217 12.5818 1198 55.3088 1378.08 541.445
2097 1 51.1495 10.9678 561 55.8717 1378.11 562.209
2098 0 52.1651 10.6393 555 55.4396 1377.88 561.281
2099 0 57.0976 10.7885 616 55.0049 1378.01 561.334
2100 0 57.0177 11.8384 675 54.4104 1378.04 561.239
2101 0 58.0424 11.526 669 54.6218 1377.8 560.149
2102 0 63.1632 13.9163 879 51.917 1378.78 558.009
2103 0 62.0837 13.4979 838 53.2422 1379.12 556.387
2104 0 62.0837 13.514 839 140.254 1380.11 556.39
2105 0 65.0471 12.0374 783 54.6552 1379.52 557.41
2106 0 68.1404 14.4701 986 52.6298 1379.6 552.304
2107 0 69.0844 13.3894 925 53.8811 1379.3 553.73
2108 0 71.0797 12.9714 922 54.8829 1379.69 552.178
2109 0 75.149 13.7993 1037 53.7531 1379.36 551.958
2110 0 77.1206 14.4838 1117 53.8541 1379.55 551.407
2111 0 79.0909 14.3379 1134 53.9453 1379.83 549.155
2112 0 81.2872 13.6307 1108 55.3023 1380.2 547.775
2113 0 84.1993 14.4419 1216 54.2015 1379.9 546.655
2114 0 87.1536 13.895 1211 54.6532 1380.37 546.562
2115 0 90.1561 14.0534 1267 54.2794 1380.16 543.852
2116 0 93.2235 13.4086 1250 54.6088 1379.8 542.174
2117 1 52.1207 11.6461 607 54.4234 1379.47 563.9
2118 0 51.0469 10.8528 554 55.9079 1379.04 563.009
2119 0 52.1479 11.5057 600 54.7683 1378.7 562.452
2120 0 55.0801 11.6013 639 55.4757 1378.71 560.263
2121 0 57.0851 12.7003 725 54.2 1378.47 558.408
2122 0 58.0629 13.2443 769 54.7776 1378.98 557.412
2123 0 62.1071 13.686 850 53.2482 1378.56 558.856
2124 0 63.1133 13.1193 828 53.0242 1378.23 557.85
2125 0 64.1291 13.3949 859 53.3318 1378.7 558.942
2126 0 68.2526 13.1424 897 53.0836 1378.11 555.799
2127 0 69.3215 13.3436 925 53.2076 1377.82 554.059
2128 0 72.4054 13.7006 992 52.9284 1378.08 553.981
2129 0 73.3929 13.1075 962 53.2235 1377.78 551.638
2130 0 77.3248 13.5791 1050 52.6457 1378.05 553.325
2131 0 79.2401 14.1469 1121 52.2971 1377.99 549.866
2132 0 81.3127 14.5857 1186 52.2597 1378.12 548.935
2133 0 85.4689 14.5082 1240 51.846 1377.75 547.731
2134 0 89.2401 13.9175 1242 52.2126 1377.7 546.788
2135 0 92.255 14.6767 1354 51.8109 1377.44 543.575
2136 0 93.1809 13.6616 1273 53.1485 1376.72 543.511
2137 0 98.3375 13.8299 1360 52.936 1376.95 540.765
2138 0 100.194 14.372 1440 52.5986 1376.64 539.469
2139 1 53.1294 11.105 590 53.5034 1376.28 563.488
2140 0 54.18 11.1296 603 54.0133 1376.19 561.688
2141 0 55.0898 11.3633 626 53.869 1376.31 559.161
2142 0 57.1174 11.5376 659 54.1184 1376.15 559.577
2143 0 62.1341 12.2799 763 52.882 1376.34 558.553
2144 0 62.077 12.0012 745 53.8389 1376.1 557.326
2145 0 65.0233 12.5955 819 53.2027 1375.86 557.466
2146 0 66.1213 12.8703 851 53.8414 1375.5 555.1
2147 0 70.0587 13.6742 958 52.4489 1375.48 555.952
2148 0 72.0449 13.1307 946 53.5751 1375.98 554.535
2149 0 72.0737 13.1671 949 53.9979 1375.6 554.064
2150 0 74.0535 13.9764 1035 53.7517 1375.79 550.639
2151 0 78.1965 13.5044 1056 53.9924 1375.76 550.821
2152 0 81.1682 13.7615 1117 53.7493 1376 549.409
2153 0 84.1353 13.5496 1140 54.2693 1376.18 547.495
2154 0 87.0916 13.836 1205 53.732 1376.12 545.786
2155 0 91.1175 14.2234 1296 53.0394 1375.9 544.921
2156 0 94.1875 13.8447 1304 53.5015 1376.08 543.518
2157 1 50.1167 9.97671 500 54.224 1376.15 565.93
2158 0 50.0155 10.6367 532 54.2312 1375.88 565.269
2159 0 52.0978 10.8834 567 54.261 1376.13 564.048
2160 0 55.2037 11.9557 660 53.0455 1374.73 563.964
2161 0 55.0926 12.3792 682 53.4941 1374.62 563.658
2162 0 58.1556 13.5843 790 51.8177 1374.64 564.027
2163 0 58.1917 11.9948 698 53.8754 1374.65 564.861
2164 0 63.1154 12.897 814 52.3833 1374.64 563.604
2165 0 63.2274 13.491 853 51.9215 1374.32 564.191
2166 0 65.1265 13.0515 850 52.7518 1373.94 562.145
2167 0 69.1943 14.0763 974 50.9179 1373.82 561.321
2168 0 69.1023 13.8056 954 51.3627 1373.32 560.121
2169 0 72.0769 12.6115 909 52.5908 1373.37 559.763
2170 0 75.1195 14.1641 1064 51.0686 1373.37 557.38
2171 0 78.1448 13.7565 1075 51.3823 1373.59 556.4
2172 0 79.2976 13.2665 1052 51.8726 1373.37 555.572
2173 0 84.1716 13.5794 1143 51.5381 1373.09 553.988
2174 0 86.1762 13.7509 1185 51.4785 1372.95 552.859
2175 1 48.0424 10.7821 518 52.6776 1372.78 572.083
2176 0 50.1519 11.7244 588 51.8231 1372.67 571.418
2177 0 50.0518 10.8687 544 52.5901 1373.12 572.274
2178 0 51.063 12.3377 630 52.2841 1373.37 569.703
2179 0 54.111 12.6407 684 51.5863 1373.57 568.111
2180 0 55.2067 12.8427 709 53.0677 1374.17 567.487
2181 0 57.1519 14.0853 805 51.5602 1373.89 567.409
2182 0 57.0831 14.0147 800 52.2987 1373.61 566.76
2183 0 59.0443 13.1935 779 52.7869 1373.45 566.497
2184 0 62.058 13.0362 809 52.7701 1374.12 565.169
2185 0 64.1576 13.9033 892 52.3487 1374.61 564.378
2186 0 66.0676 13.5013 892 52.75 1374.77 563.233
2187 0 65.0278 14.317 931 53.5242 1375.26 562.121
2188 0 68.1641 14.245 971 53.0175 1375.33 558.642
2189 0 71.0885 13.5465 963 53.9782 1375.25 559.077
2190 0 73.1362 13.4954 987 53.9554 1375.47 557.926
2191 0 75.2266 14.7023 1106 52.5579 1375.63 555.981
2192 0 78.1102 13.4169 1048 54.5763 1375.61 555.442
2193 0 81.1389 13.6063 1104 54.1087 1376.16 553.042
2194 0 84.3069 13.8304 1166 53.4906 1376.01 550.263
2195 0 88.1034 14.2106 1252 53.016 1376.28 549.966
2196 0 91.2317 12.7478 1163 54.9484 1376.24 549.549
2197 1 47.11 11.0804 522 56.0498 1376.34 569.667
2198 0 51.1482 11.1441 570 55.9228 1376.19 567.084
2199 0 52.2084 11.3392 592 55.7111 1376.22 566.174
2200 0 55.0561 13.0231 717 54.3445 1376.41 564.815
2201 0 55.2173 13.5646 749 54.6115 1376.18 562.045
2202 0 58.2187 13.2432 771 55.2996 1376.64 562.064
2203 0 59.1191 12.7708 755 56.5166 1376.38 561.121
2204 0 61.2064 13.5117 827 55.5949 1376.64 558.745
2205 0 63.1507 13.9983 884 55.0339 1376.69 559.618
2206 0 64.3097 12.0666 776 57.5696 1376.94 557.474
2207 0 67.1916 13.3796 899 56.0167 1377.61 556.72
2208 0 70.3397 13.449 946 55.945 1377.29 555.59
2209 0 73.2218 13.0699 957 56.1045 1377.21 554.213
2210 0 75.2166 13.8267 1040 55.926 1377.56 552.499
2211 0 77.398 13.7471 1064 55.8985 1377.21 549.058
2212 0 78.3677 13.4749 1056 56.5616 1377.45 550.39
2213 0 84.3111 14.7312 1242 54.5306 1377.71 547.999
2214 1 42.1301 10.9423 461 57.6226 1377.75 567.354
2215 0 41.4597 8.94846 371 60 1377.6 567.321
2216 0 44.5689 10.2762 458 58.9454 1377.79 563.293
2217 0 45.3732 11.747 533 57.7674 1378.4 561.829
2218 0 48.3489 12.3271 596 56.8658 1378.57 562.366
2219 0 47.3741 12.0319 570 57.4807 1378.76 561.556
2220 0 50.1803 13.5511 680 55.9074 1378.98 561.181
2221 0 51.4315 12.7937 658 57.2766 1378.72 560.863
2222 0 52.0733 12.0215 626 58.3179 1378.08 559.738
2223 0 53.1624 13.7127 729 56.8669 1378.32 559.173
2224 0 55.2319 12.7644 705 58.2284 1378.57 559.485
2225 0 57.2016 12.2899 703 58.6828 1378.11 556.29
2226 0 59.1742 11.8126 699 59.505 1378.27 556.548
2227 0 61.0505 13.022 795 57.8403 1378.62 554.936
2228 0 65.1468 12.9554 844 58.6789 1378.25 553.812
2229 0 67.1028 12.7715 857 58.8425 1378.15 552.977
2230 0 68.0614 13.4731 917 57.9727 1377.95 552.062
2231 0 69.232 12.7542 883 59.2424 1378.21 549.718
2232 1 38.0565 10.1428 386 59.3731 1378.11 565.736
2233 0 40.1509 10.0371 403 58.5881 1378.11 564.543
2234 0 42.0993 10.9028 459 58.2658 1378.29 563.222
2235 0 43.112 11.1802 482 57.9212 1377.68 561.907
2236 0 45.2292 12.6467 572 56.5402 1377.69 560.483
2237 0 46.1541 12.3716 571 56.2119 1377.51 561.475
2238 0 46.0602 12.158 560 56.9107 1376.87 559.539
2239 0 47.0484 12.0939 569 57.5747 1377.01 559.04
2240 0 50.11 13.0712 655 55.6626 1377.04 559.508
2241 0 51.1012 12.9938 664 56.0241 1377.74 560.099
2242 0 53.0866 13.2802 705 55.4454 1377.47 559.759
2243 0 54.1675 13.1998 715 55.5077 1378.38 556.997
2244 0 58.0807 13.8084 802 53.9875 1378.07 557.581
2245 0 58.3387 12.9588 756 55.1402 1377.79 557.302
2246 0 59.1941 13.7345 813 54.2091 1377.88 557.224
2247 0 62.1955 13.6666 850 54.2929 1377.94 553.42
2248 0 63.2545 13.4062 848 54.3196 1377.76 554.591
2249 0 67.1882 13.7971 927 53.4401 1378.08 554.717
2250 0 68.1306 13.6796 932 53.9163 1378.02 552.011
2251 0 70.2502 12.9822 912 54.341 1378.03 551.321
2252 0 73.185 13.541 991 53.4904 1377.82 549.919
2253 0 76.227 12.9219 985 54.1107 1377.85 548.079
2254 0 79.2025 13.5981 1077 53.5432 1377.28 546.632
2255 1 43.0573 10.5673 455 55.3956 1377.74 565.18
2256 0 47.1454 12.0902 570 52.7298 1377.84 566.202
2257 0 47.0669 11.2181 528 54.4299 1377.49 564.735
2258 0 49.0832 11.45 562 54.0801 1377.43 562.708
2259 0 49.0401 11.9086 584 54.3425 1375.71 563.308
2260 0 50.0634 12.644 633 53.9716 1376.2 563.385
2261 0 50.0634 12.584 630 153.516 1376.23 563.398
2262 0 56.0551 12.5056 701 53.5421 1376.09 562.512
2263 0 56.0323 12.6891 711 54.0928 1376.55 561.36
2264 0 59.1427 12.8165 758 54.0989 1376.6 560.563
2265 0 59.0505 12.6333 746 54.9397 1376.46 560.308
2266 0 61.0683 12.4778 762 55.2375 1376.46 558.731
2267 0 65.0864 14.4577 941 52.8087 1376.75 558.41
2268 0 66.0864 13.9968 925 53.4962 1376.75 557.799
2269 0 68.0623 12.9146 879 54.463 1376.61 556.838
2270 0 69.1439 13.4791 932 54.3723 1376.58 555.046
2271 0 72.0569 13.2951 958 54.5574 1376.52 553.468
2272 0 74.0646 13.3127 986 54.2738 1376.46 554.136
2273 0 77.1772 13.7735 1063 53.6491 1376.51 552.777
2274 0 77.1772 13.6958 1057 156.588 1376.51 552.806
2275 0 82.1074 13.799 1133 53.6337 1376.99 550.683
2276 0 85.0487 13.2395 1126 54.3242 1376.67 548.979
2277 1 46.0264 10.9937 506 55.664 1376.05 567.089
2278 0 50.0136 11.7768 589 54.1036 1375.84 566.014
2279 0 51.0901 12.4682 637 54.0251 1377.23 565.143
2280 0 50.0423 12.5294 627 54.3493 1376.34 564.697
2281 0 54.1056 13.3443 722 53.5305 1376.43 563.177
2282 0 57.0698 14.2107 811 52.7879 1376.69 560.954
2283 0 58.0415 12.8529 746 54.1461 1376.3 561.277
2284 0 60.0746 12.7841 768 54.1667 1375.95 560.477
2285 0 62.1544 13.4182 834 53.6187 1375.76 560.667
2286 0 66.0848 13.9215 920 52.8413 1375.32 559.272
2287 0 66.1312 14.2444 942 53.465 1375.6 558.613
2288 0 68.1622 13.8787 946 53.759 1375.34 557.864
2289 0 70.1285 13.6321 956 54.1862 1375.35 555.996
2290 0 73.1663 14.2689 1044 53.8075 1375.06 553.955
2291 0 75.1323 13.5095 1015 54.536 1375.03 552.774
2292 0 78.1751 14.1861 1109 53.6682 1375.5 553.447
2293 0 79.1492 14.062 1113 54.5526 1375.04 551.262
2294 0 83.1166 14.221 1182 54.3206 1375.27 552.209
2295 0 87.1189 15.1861 1323 53.3288 1375.48 549.906
2296 0 90.2083 14.6106 1318 53.3027 1375.08 549.308
2297 0 92.2032 14.9669 1380 53.7928 1375.35 546.639
2298 0 95.1625 14.2913 1360 54.7838 1375.15 545.936
2299 0 100.147 15.657 1568 52.5217 1375.36 546.785
2300 0 102.25 14.7873 1512 53.5324 1375.51 542.034
2301 0 104.452 14.1405 1477 54.5396 1375.12 540.477
2302 0 108.329 14.2528 1544 54.6004 1375.44 537.672
2303 0 113.242 15.4536 1750 53.3234 1375.29 536.326
2304 0 113.283 14.4329 1635 54.4532 1375.34 536.185
2305 0 120.317 15.5506 1871 53.0609 1375.52 533.003
2306 0 122.17 15.6011 1906 53.4066 1375.48 528.475
2307 0 126.264 14.042 1773 54.8951 1374.99 530.286
2308 0 133.415 15.0508 2008 53.5055 1375.39 527.856
2309 0 136.198 14.8387 2021 54.1069 1375.15 524.491
2310 0 142.192 14.4453 2054 54.4883 1375.55 522.564
2311 1 75.2432 11.4828 864 55.7604 1375.35 556.433
2312 0 76.1352 11.9787 912 55.8564 1375.46 553.776
2313 0 79.2452 13.3257 1056 53.9593 1374.97 552.686
2314 0 80.1951 13.4547 1079 54.6895 1375.34 550.553
2315 0 82.0801 13.1457 1079 55.0936 1375.78 549.958
2316 0 88.1125 13.8232 1218 54.3177 1375.76 548.618
2317 0 89.166 13.0543 1164 55.4648 1376.31 548.68
2318 0 94.1542 14.1045 1328 54.2658 1376.64 545.147
2319 0 98.1335 13.4307 1318 55.2769 1376.58 543.486
2320 0 99.2554 13.3192 1322 55.9024 1376.54 540.399
2321 0 102.255 14.2683 1459 55.0062 1377.11 538.267
2322 0 102.255 14.2683 1459 165.024 1378.12 538.236
2323 0 108.179 12.9877 1405 56.4918 1376.86 535.582
2324 0 112.118 13.6642 1532 55.6292 1376.81 534.124
2325 0 115.137 13.0279 1500 56.3227 1376.99 532.623
2326 0 119.173 12.6203 1504 57.127 1376.47 530.013
2327 0 123.219 13.9914 1724 55.5934 1376.78 526.503
2328 0 129.182 14.1429 1827 55.0482 1377.19 524.194
2329 1 71.11 11.0392 785 56.4 1377.25 553.696
2330 0 73.1025 11.1214 813 56.0787 1377.48 552.715
2331 0 76.1422 12.6868 966 54.6667 1377.73 551.031
2332 0 78.1853 12.5215 979 55.1798 1377.77 547.792
2333 0 82.1784 12.9596 1065 54.7174 1377.78 545.5
2334 0 84.2208 12.7759 1076 54.6608 1377.61 544.484
2335 0 89.1985 14.3949 1284 52.8185 1378.33 542.034
2336 0 91.1498 12.9677 1182 54.6472 1378.23 542.03
2337 0 94.3325 14.2475 1344 53.2686 1378.63 540.976
2338 0 98.1598 13.9263 1367 53.4931 1379.03 539.761
2339 0 102.358 12.2902 1258 54.6844 1378.68 538.961
2340 0 105.12 13.0232 1369 54.431 1379.13 535.048
2341 0 110.329 14.6924 1621 52.4855 1379.35 532.677
2342 1 60.1911 11.1977 674 53.9065 1379.46 557.801
2343 0 59.3378 10.4655 621 54.6393 1378.91 558.121
2344 0 63.2303 11.9247 754 54.1154 1378.83 554.687
2345 0 66.2474 13.6005 901 51.8679 1378.32 551.758
2346 0 66.2399 13.0435 864 52.9711 1378.66 550.593
2347 0 69.2715 13.5698 940 52.05 1378.72 547.477
2348 0 68.3076 11.9313 815 53.7264 1378.84 550.081
2349 0 71.2275 13.0006 926 52.4395 1379.01 549.166
2350 0 72.1793 12.7737 922 53.1356 1379.11 547.003
2351 0 75.1766 12.3044 925 53.5016 1379.09 546.422
2352 0 77.2325 13.0903 1011 52.9723 1379.35 543.922
2353 0 81.2309 13.7017 1113 52.2947 1379.49 542.905
2354 0 84.2429 13.3305 1123 52.8041 1379.1 542.835
2355 0 85.2306 13.9973 1193 52.373 1379.24 541.102
2356 0 89.2339 13.0892 1168 52.7971 1379.3 540.545
2357 0 92.2642 14.9679 1381 51.1926 1379.13 538.908
2358 0 94.1979 14.0449 1323 52.7037 1378.87 537.414
2359 0 97.3821 14.3045 1393 52.9397 1378.94 535.113
2360 0 97.2712 13.8479 1347 54.1559 1378.84 534.408
2361 0 101.253 13.5502 1372 54.1939 1379.2 534.679
2362 1 55.1947 11.5772 639 52.6495 1378.66 558.31
2363 0 55.2168 11.1198 614 53.5977 1377.91 557.362
2364 0 57.2106 10.4177 596 54.2903 1377.9 556.876
2365 0 59.0975 11.1172 657 53.6743 1377.96 554.321
2366 0 61.0633 13.314 813 52.9705 1378.08 554.856
2367 0 63.136 13.8907 877 52.5051 1377.32 553.108
2368 0 64.189 13.3045 854 53.3876 1377.28 553.952
2369 0 67.2173 13.2704 892 53.3823 1377.44 551.354
2370 0 69.2796 12.3413 855 54.552 1377.71 551.822
2371 0 71.2987 13.5767 968 52.9184 1377.42 549.757
2372 0 74.2698 13.7337 1020 52.5569 1377.27 550.595
2373 0 75.1945 14.6021 1098 52.9244 1377.15 547.174
2374 0 77.2324 13.8802 1072 53.5392 1377.06 547.576
2375 0 80.2329 13.7226 1101 53.7811 1376.86 545.726
2376 0 84.307 14.4353 1217 53.2062 1376.88 544.918
2377 0 86.1973 14.2812 1231 53.8278 1376.85 542.63
2378 0 91.1543 14.2835 1302 53.4025 1376.98 542.978
2379 0 93.2434 14.8643 1386 52.9012 1376.71 541.291
2380 0 94.1254 14.2363 1340 54.3537 1376.66 539.624
2381 0 97.1531 13.031 1266 52.59 1376.45 542.135
2382 0 100.295 14.5571 1460 51.8521 1376.65 537.147
2383 0 103.242 14.5773 1505 52.01 1376.78 534.88
2384 0 105.163 14.4633 1521 52.2893 1376.53 533.12
2385 0 110.216 13.7003 1510 52.6762 1376.6 534.811
2386 1 61.1322 12.3339 754 52.4231 1376.11 558.279
2387 0 63.1747 13.4073 847 51.0779 1376.8 554.915
2388 0 66.0872 13.8151 913 50.4239 1376.46 555.747
2389 0 67.0783 12.2096 819 52.1636 1376.4 554.818
2390 0 70.1064 14.1214 990 50.8313 1377.08 553.937
2391 0 71.1732 13.3477 950 51.4421 1377.38 552.553
2392 0 74.0688 13.852 1026 50.6862 1377.16 551.87
2393 0 75.0998 12.7164 955 52.0974 1377.3 551.804
2394 0 77.1231 13.083 1009 51.9703 1377.47 549.036
2395 0 82.0863 13.1325 1078 51.6688 1376.89 549.297
2396 0 82.0863 13.1569 1080 157.232 1376.89 549.373
2397 0 86.0957 14.0657 1211 51.5268 1376.51 544.782
2398 0 89.0808 13.2352 1179 52.3579 1376.84 543.802
2399 0 92.1134 13.2228 1218 52.9171 1376.38 542.953
2400 0 95.2457 14.1319 1346 52.1315 1375.96 539.805
2401 1 51.1402 9.93347 508 52.9232 1375.93 564.431
2402 0 51.0828 10.2187 522 53.682 1376.05 562.531
2403 0 53.1591 10.478 557 52.8707 1376.2 563.33
2404 0 55.1083 11.2869 622 52.201 1375.79 562.621
2405 0 57.1659 10.9856 628 53.0717 1375.36 560.748
2406 0 60.1134 12.5263 753 51.51 1375.3 561.053
2407 0 61.2228 13.165 806 50.8524 1375.12 559.268
2408 0 61.1177 11.9115 728 52.3764 1375.52 558.655
2409 0 64.0896 12.7946 820 50.9841 1375.14 559.272
2410 0 65.0625 11.1739 727 53.0344 1375.28 557.453
2411 0 68.1879 12.7002 866 51.6005 1375.09 556.61
2412 0 70.0806 11.4582 803 52.6227 1375 556.174
2413 0 74.2779 12.911 959 51.3441 1375.33 553.937
2414 0 75.2853 13.1898 993 51.3807 1375.82 553.079
2415 0 78.2835 12.2376 958 51.9718 1375.17 553.421
2416 0 80.1983 13.6412 1094 50.7459 1375.34 552.212
2417 0 83.2516 13.1529 1095 51.579 1374.55 550.201
2418 0 84.2488 12.6174 1063 51.6435 1374.88 545.849
2419 0 87.1605 13.2399 1154 51.0572 1374.53 546.556
2420 0 89.2487 14.0842 1257 50.4837 1374.74 544.753
2421 0 92.1606 12.6193 1163 51.4334 1374.34 547.063
2422 0 96.2688 13.7843 1327 50.5132 1374.71 542.376
2423 0 98.3319 14.207 1397 50.378 1374.68 541.221
2424 0 102.252 13.5156 1382 51.0912 1374.59 539.2
2425 1 58.1745 11.2077 652 51.204 1374.99 563.414
2426 0 56.0898 10.8754 610 51.7721 1374.99 563.375
2427 0 58.1077 12.2187 710 50.7732 1374.24 562.359
2428 0 60.1605 13.0817 787 50.5476 1374.05 562.635
2429 0 64.0529 13.7855 883 49.5277 1375.23 559.875
2430 0 65.0962 13.4417 875 49.904 1374.71 560.269
2431 0 66.08 13.9679 923 50.0845 1374.86 556.671
2432 0 69.1264 13.4247 928 50.1778 1374.84 558.18
2433 0 71.0638 12.5802 894 50.6913 1374.85 558.125
2434 0 73.0925 12.9425 946 51.0772 1375.21 555.693
2435 0 77.0669 14.429 1112 49.2329 1375.38 554.807
2436 0 77.1394 13.9358 1075 50.2614 1375.65 554.74
2437 0 80.0793 13.5366 1084 50.9779 1375.3 551.321
2438 0 84.1999 13.5036 1137 50.8478 1375.13 547.871
2439 0 88.2133 13.7054 1209 50.2597 1374.4 546.919
2440 1 46.0967 11.9097 549 51.3862 1375 565.585
2441 0 48.1218 10.2033 491 52.1263 1374.38 567.21
2442 0 51.0763 11.8646 606 51.6073 1374.95 564.074
2443 0 52.1791 12.2079 637 51.2779 1375.27 563.848
2444 0 54.1072 12.8633 696 51.6394 1375.53 562.326
2445 0 54.0951 13.5687 734 51.5068 1375.48 561.379
2446 0 56.0474 12.4181 696 52.3032 1375.31 561.282
2447 0 58.0523 13.0916 760 51.7895 1375.46 559.917
2448 0 60.1655 13.1305 790 51.5658 1375.63 560.192
2449 0 60.0743 13.7496 826 52.1356 1376.1 558.678
2450 0 63.1187 14.1321 892 51.3442 1375.11 557.026
2451 0 62.1341 13.7123 852 52.7042 1375.37 555.435
2452 0 66.0791 14.6945 971 52.0721 1375.61 554.92
2453 0 66.2061 13.8205 915 53.1574 1375.65 554.321
2454 0 69.1038 13.8632 958 51.667 1375.39 552.805
2455 0 71.1054 14.5981 1038 51.0684 1376.01 551.346
2456 0 73.0944 13.5715 992 52.4929 1376.26 551.087
2457 0 76.1954 14.6859 1119 51.1993 1375.9 548.63
2458 0 78.1115 14.889 1163 51.1539 1376.54 548.071
2459 0 79.1065 13.6146 1077 52.6481 1377.02 546.739
2460 0 82.1334 14.1721 1164 52.0112 1377.24 546.149
2461 0 85.1484 15.103 1286 51.3305 1377.41 544.395
2462 0 90.1877 14.4255 1301 51.1837 1377.74 545.604
2463 0 89.1423 14.3591 1280 52.207 1377.89 540.196
2464 0 93.0788 14.1171 1314 51.6903 1377.95 542.149
2465 1 53.1352 11.4425 608 52.1201 1378.47 562.401
2466 0 52.124 11.7221 611 51.234 1378.58 563.416
2467 0 56.1034 12.7622 716 50.6103 1378.76 560.029
2468 0 57.0959 11.5245 658 52.1945 1378.63 559.479
2469 0 59.1337 13.5963 804 50.2475 1378.67 557.21
2470 0 60.1919 13.3407 803 50.3176 1378.52 558.017
2471 0 60.212 13.7016 825 50.6776 1378.89 555.607
2472 0 62.1286 13.3755 831 50.2708 1379.23 556.457
2473 0 66.158 12.6666 838 50.4845 1379.42 557.041
2474 0 67.1236 13.4826 905 50.611 1379.98 552.611
2475 0 68.1024 13.744 936 50.4487 1379.61 553.604
2476 0 72.3891 15.0299 1088 49.1011 1379.95 551.867
2477 0 73.0936 13.9274 1018 50.2908 1379.88 551.082
2478 0 76.2477 13.784 1051 50.5414 1380.02 548.913
2479 0 79.1969 14.1293 1119 50.2976 1380.01 547.097
2480 0 80.1782 13.9439 1118 50.2352 1379.76 546.387
2481 0 83.1694 12.8894 1072 52.0588 1380.13 544.973
2482 0 87.1144 14.4523 1259 50.3542 1380.3 541.305
2483 1 49.0768 12.5314 615 49.9415 1379.46 562.62
2484 0 49.0576 11.2725 553 51.3996 1379.3 561.933
2485 0 50.1037 11.9352 598 51.3344 1379.32 559.804
2486 0 50.0241 10.7948 540 52.4407 1379.32 561.298
2487 0 54.0537 12.8206 693 49.9105 1379.19 561.348
2488 0 54.187 14.4869 785 49.5439 1378.98 559.902
2489 0 56.1902 13.2941 747 50.5489 1378.81 559.282
2490 0 57.0904 12.2437 699 51.2275 1378.99 558.252
2491 0 59.1403 14.0006 828 49.8804 1378.53 555.789
2492 0 61.0619 12.4791 762 50.6995 1378.68 557.749
2493 0 65.0535 13.2045 859 49.9756 1378.69 556.087
2494 0 65.0739 12.7086 827 50.2709 1378.66 555.364
2495 0 67.0943 13.9654 937 49.5347 1378.37 553.111
2496 0 71.1555 12.3111 876 50.347 1378.73 553.952
2497 0 73.1942 13.9492 1021 48.9246 1378.28 552.561
2498 0 74.0824 13.1745 976 49.7182 1378.41 550.986
2499 0 76.1039 13.429 1022 50.2789 1378.07 548.348
2500 0 78.2088 15.1517 1185 48.6363 1378.43 547.459
2501 0 81.1218 15.5569 1262 48.1704 1378.17 547.662
2502 0 83.1456 14.4085 1198 49.7204 1378.08 545.375
2503 0 85.2349 13.7033 1168 50.417 1378.09 546.223
2504 0 88.1541 14.1457 1247 50.1443 1378.17 543.154
2505 0 88.1547 14.3498 1265 50.7091 1378.13 541.696
2506 0 94.2395 16.4262 1548 48.8404 1378.18 539.839
2507 0 97.2072 14.1965 1380 50.3986 1377.5 541.346
2508 0 101.166 15.1138 1529 49.5455 1377.5 538.904
2509 0 103.296 15.1699 1567 50.0249 1377.34 537.925
2510 0 107.226 14.5301 1558 50.7555 1377.4 534.332
2511 1 60.0967 13.3452 802 50.1808 1377.34 558.369
2512 0 60.0901 12.398 745 50.8779 1377.43 559.307
2513 0 62.3514 13.1834 822 50.7725 1377.14 555.564
2514 0 62.0847 12.789 794 51.2292 1377.71 554.975
2515 0 64.2354 14.2601 916 49.7686 1377.6 555.852
2516 0 66.2089 12.672 839 51.3242 1377.53 554.412
2517 0 68.2956 14.1151 964 50.1961 1376.99 551.457
2518 0 71.1462 14.2945 1017 49.7689 1376.91 549.486
2519 0 76.2068 13.6339 1039 50.2002 1376.79 549.491
2520 0 77.2259 13.972 1079 50.0093 1376.81 550.122
2521 0 78.2312 13.9203 1089 50.4885 1376.41 548.955
2522 0 82.2622 14.3079 1177 49.7638 1376.81 546.739
2523 0 87.2624 13.9006 1213 50.2432 1376.71 544.357
2524 0 87.3416 12.8576 1123 51.1621 1376.69 546.688
2525 0 90.275 14.3118 1292 50.4683 1376.51 544.049
2526 0 91.1873 12.6114 1150 52.093 1376.42 543.529
2527 0 95.1187 14.8656 1414 50.6252 1376.21 541.078
2528 0 99.2535 16.1506 1603 49.31 1376.43 541.533
2529 0 102.325 14.5322 1487 51.0968 1376.63 537.891
2530 0 105.101 14.8048 1556 50.6009 1376.3 537.384
2531 0 109.098 16.1323 1760 49.5926 1376.19 535.648
2532 1 58.0462 11.5081 668 52.3308 1375.9 559.087
2533 0 61.1137 11.1595 682 52.0264 1375.58 559.194
2534 0 63.0455 10.2307 645 52.4729 1375.77 558.535
2535 0 63.0533 12.8939 813 51.4502 1375.43 556.285
2536 0 68.1919 15.691 1070 48.6047 1375.52 554.861
2537 0 69.1079 14.1229 976 50.7049 1375.46 553.742
2538 0 72.1085 13.8819 1001 51.3067 1375.49 555.396
2539 0 73.2127 13.0988 959 52.5944 1375.2 551.844
2540 0 77.2036 15.1029 1166 50.169 1375.47 550.56
2541 0 78.1611 14.4061 1126 51.0009 1375.26 549.321
2542 0 82.0954 14.1299 1160 51.1483 1375.23 547.353
2543 0 83.2154 15.3818 1280 50.4844 1374.82 546.7
2544 0 85.2585 14.2156 1212 52.0949 1375.19 544.461
2545 0 89.2342 13.5486 1209 51.9396 1375.11 545.052
2546 0 92.1594 13.3681 1232 52.4675 1375.35 541.213
2547 0 95.2474 14.1421 1347 51.4417 1375.22 541.297
2548 0 97.1701 15.0869 1466 50.6269 1375.1 540.961
2549 0 100.122 14.6621 1468 51.218 1375.26 538.637
2550 1 52.157 9.93154 518 53.1969 1375.53 563.042
2551 0 57.1655 12.7524 729 50.3992 1375.58 561.857
2552 0 57.0881 10.8779 621 52.4541 1375.22 560.662
2553 0 58.1092 11.5989 674 51.3116 1375.39 560.153
2554 0 63.2193 12.0691 763 50.5688 1375.38 559.464
2555 0 64.2187 13.3917 860 49.2093 1375.07 558.965
2556 0 65.2064 13.6336 889 49.4679 1374.95 555.895
2557 0 69.2905 14.2155 985 48.6213 1375.04 555.769
2558 0 70.2094 13.1606 924 49.71 1374.71 555.551
2559 0 73.193 14.2637 1044 48.5259 1374.88 551.457
2560 0 76.3266 13.3243 1017 48.9548 1374.8 552.777
2561 0 79.1902 13.6381 1080 49.0731 1374.88 551.822
2562 0 79.2189 13.0398 1033 49.8316 1375.12 549.815
2563 0 82.1789 13.1542 1081 49.7502 1374.63 550.125
2564 0 84.3001 12.4911 1053 50.7616 1374.85 547.728
2565 0 86.1259 14.3743 1238 49.3522 1374.61 546.062
2566 0 90.1435 14.3771 1296 50.5918 1374.64 545.12
2567 0 90.2289 13.2773 1198 52.0334 1374.55 545.144
2568 0 93.1919 13.22 1232 52.1843 1374.89 542.914
2569 0 98.2484 13.6084 1337 51.914 1374.79 542.678
2570 0 99.1266 13.4273 1331 52.6183 1374.63 540.904
2571 0 103.13 14.5254 1498 51.6382 1374.82 540.678
2572 0 106.125 13.7856 1463 52.2714 1374.67 536.767
2573 0 108.218 13.1308 1421 53.121 1374.51 533.314
2574 0 114.198 14.7989 1690 51.0988 1374.29 533.194
2575 1 59.0174 9.62429 568 52.1127 1373.83 562.368
2576 0 62.0511 11.9418 741 50.027 1373.97 562.835
2577 0 65.1627 12.1542 792 49.8068 1374.04 560.083
2578 0 65.0522 12.6053 820 50.1598 1373.94 559.501
2579 0 69.1014 12.7783 883 49.4507 1373.77 558.127
2580 0 70.0974 11.5696 811 50.9951 1373.31 554.174
2581 0 70.0974 11.5268 808 149.908 1373.33 554.189
2582 0 75.1029 12.9156 970 50.3278 1374.81 553.485
2583 0 78.1377 12.2092 954 50.522 1374.67 555.209
2584 0 80.1426 12.8147 1027 50.5093 1375 551.347
2585 0 84.3131 12.9399 1091 50.1613 1374.65 550.968
2586 0 87.094 11.5507 1006 51.8141 1374.78 547.468
2587 0 89.1747 12.5708 1121 51.0517 1374.74 545.644
2588 0 93.1374 11.4562 1067 51.8135 1374.75 543.444
2589 0 98.2152 12.7781 1255 50.4645 1374.97 543.298
2590 1 52.1363 10.2424 534 51.6367 1374.99 565.182
2591 0 51.0748 10.5531 539 51.8813 1374.81 566.148
2592 0 55.0739 11.766 648 51.4136 1374.97 563.77
2593 0 55.0636 11.8409 652 51.5767 1374.25 563.321
2594 0 57.0311 12.0987 690 51.9638 1373.97 560.83
2595 0 57.1036 12.1008 691 52.8234 1373.94 560.197
2596 0 60.0863 12.998 781 51.6889 1374.21 560.149
2597 0 61.0624 12.6101 770 52.4221 1374.61 561.074
2598 0 64.0722 12.1426 778 52.8393 1375.04 560.513
2599 0 66.0481 14.2623 942 51.0913 1375.55 556.136
2600 0 67.0706 12.1663 816 53.5772 1375.7 558.12
2601 0 71.039 13.4011 952 52.7027 1375.43 555.764
2602 0 71.0428 12.781 908 53.6233 1375.69 555.424
2603 0 75.1143 15.0038 1127 51.9539 1376.61 552.654
2604 0 75.1293 14.0425 1055 53.7981 1376.28 553.15
2605 0 79.1095 13.4118 1061 54.1338 1376.31 551.741
2606 0 82.26 13.7005 1127 54.2138 1376.95 549.856
2607 0 82.26 13.8099 1136 155.504 1376.96 549.917
2608 0 88.1654 14.6202 1289 53.8852 1377.56 548.808
2609 1 49.1329 12.5578 617 54.6418 1377.52 567.767
2610 0 51.0796 12.0596 616 55.6039 1378.62 565.792
2611 0 53.151 11.4956 611 57.0376 1378.89 564.489
2612 0 53.1032 13.1442 698 55.9026 1378.97 562.593
2613 0 56.0451 13.2572 743 56.0363 1378.28 562.665
2614 0 58.092 13.3753 777 55.9562 1379.06 562.023
2615 0 60.0952 13.3455 802 56.6085 1379.4 559.812
2616 0 59.0344 13.5514 800 56.9162 1379.6 558.831
2617 0 62.2978 13.3713 833 56.8451 1379.42 559.741
2618 0 62.0453 13.0227 808 58.0186 1379.32 558.475
2619 0 66.1842 13.5682 898 56.3641 1379.26 557.984
2620 0 67.1802 15.1235 1016 55.1309 1379.05 555.998
2621 0 68.0925 13.3495 909 57.3806 1379.7 553.123
2622 0 72.1669 14.9376 1078 55.3683 1379.42 552.671
2623 0 72.2022 13.1575 950 57.6368 1379.54 552.3
2624 0 76.2041 14.6055 1113 56.0521 1380.06 552.644
2625 0 78.2101 13.6172 1065 57.43 1380.2 550.146
2626 0 81.0996 13.4526 1091 57.3831 1380.19 550.467
2627 0 83.159 13.853 1152 56.5095 1380.09 548.607
2628 0 85.1304 13.403 1141 57.305 1379.87 547.047
2629 1 47.1281 11.0974 523 58.044 1379.93 566.803
2630 0 49.0898 12.0595 592 57.6605 1380 565.02
2631 0 52.0577 12.4093 646 55.8235 1379.93 565.342
2632 0 52.0422 12.7973 666 56.5826 1379.35 563.449
2633 0 54.0637 13.2621 717 55.9149 1379.17 563.319
2634 0 56.0514 13.1308 736 56.5041 1379.78 560.59
2635 0 58.1422 14.7397 857 54.804 1379.35 559.3
2636 0 60.1884 13.8233 832 55.5589 1379.28 560.653
2637 0 61.1128 14.596 892 55.1536 1379.25 559.325
2638 0 62.0966 13.785 856 55.4369 1378.97 558.804
2639 0 65.0705 13.6928 891 55.0887 1379.02 556.787
2640 0 66.1574 14.0876 932 55.2543 1378.96 554.226
2641 0 71.0737 14.8156 1053 53.1178 1379.11 555.685
2642 0 72.0806 14.3451 1034 54.2776 1378.72 551.767
2643 0 73.2092 13.0311 954 55.8082 1378.66 552.636
2644 0 76.1915 14.5948 1112 54.3957 1378.77 550.186
2645 0 78.1599 14.0481 1098 54.7523 1378.32 548.916
2646 0 82.0988 14.8967 1223 53.7751 1378.61 546.787
2647 0 83.212 14.6493 1219 54.5505 1378.42 543.249
2648 0 85.0575 14.837 1262 54.2504 1378.41 542.82
2649 0 90.0396 14.4714 1303 52.8266 1378.89 543.183
2650 0 92.1409 14.0654 1296 52.9946 1378.54 542.63
2651 0 96.2129 14.707 1415 52.0219 1378.34 539.094
2652 1 53.0888 12.545 666 53.5871 1378.59 561.734
2653 0 55.121 12.3909 683 53.5447 1378.69 563.133
2654 0 60.0911 12.8139 770 52.8649 1378.26 560.106
2655 0 59.1161 13.2113 781 53.4481 1378.13 558.166
2656 0 62.2236 14.0943 877 52.6078 1378.18 557.865
2657 0 61.2595 13.9897 857 53.7888 1377.54 556.378
2658 0 65.2361 13.8574 904 53.4679 1377.62 555.544
2659 0 67.2535 16.2817 1095 51.0484 1377.33 554.396
2660 0 68.1657 14.2594 972 53.2562 1377.16 554.118
2661 0 70.1557 14.0545 986 53.8114 1377.31 552.513
2662 0 73.1451 14.8335 1085 52.7189 1377.25 552.149
2663 0 77.1479 14.9842 1156 52.3633 1377.32 552.246
2664 0 78.3491 14.3333 1123 53.1906 1377.12 551.889
2665 0 82.3996 15.5826 1284 51.3489 1377.26 550.106
2666 0 84.2557 16.3787 1380 51.1406 1377.32 545.637
2667 0 86.1767 14.0177 1208 53.2045 1377.03 546.718
2668 0 89.2018 14.9997 1338 51.8468 1377.59 545.13
2669 0 92.1725 15.8073 1457 51.0872 1377.1 541.212
2670 1 49.2342 13.3444 657 53.7915 1377.13 562.271
2671 0 51.177 13.6389 698 53.808 1376.79 560.795
2672 0 51.2414 13.0363 668 54.2545 1376.95 561.754
2673 0 54.2303 13.9221 755 53.3126 1376.71 558.812
2674 0 56.199 14.3597 807 52.5688 1376.67 559.432
2675 0 57.2395 16.2475 930 51.2301 1376.37 558.663
2676 0 57.2587 14.0415 804 53.4453 1376.22 557.909
2677 0 60.2871 15.0945 910 51.9505 1376.29 557.416
2678 0 63.4209 14.7428 935 52.0096 1376.29 555.893
2679 0 65.1273 14.249 928 52.2791 1376.06 553.983
2680 0 65.1917 14.5264 947 52.7793 1376.12 554.844
2681 0 70.2602 15.3857 1081 51.3848 1375.81 552.069
2682 0 69.2396 14.3848 996 52.8896 1375.84 551.726
2683 0 75.1849 15.003 1128 51.4973 1375.87 552.147
2684 0 78.1424 15.1006 1180 51.55 1375.82 549.374
2685 0 81.2377 14.8946 1210 51.3818 1375.76 550.804
2686 0 83.1753 15.7859 1313 51.2171 1375.54 546.226
2687 0 84.1053 15.659 1317 51.6682 1375.79 545.568
2688 0 88.2815 13.9893 1235 53.0656 1375.52 544.619
2689 0 90.2564 14.481 1307 52.9885 1375.46 544.702
2690 1 50.2419 11.3849 572 54.042 1374.82 565.713
2691 0 52.121 11.9146 621 53.8325 1375.05 564.092
2692 0 52.0289 12.9351 673 53.6122 1374.64 563.36
2693 0 53.1549 13.3384 709 53.8914 1374.76 562.227
2694 0 57.0558 13.8286 789 52.948 1374.81 561.091
2695 0 58.0224 14.5116 842 52.4596 1374.8 558.513
2696 0 59.0962 13.6388 806 53.263 1374.95 558.097
2697 0 61.1421 13.8857 849 53.0188 1374.77 558.509
2698 0 66.2993 14.4044 955 52.2314 1374.45 556.784
2699 0 66.073 13.3337 881 53.6175 1374.64 554.551
2700 0 69.0686 13.711 947 52.793 1374.8 555.167
2701 0 73.1794 15.0452 1101 51.5704 1374.62 553.845
2702 0 77.1869 14.4195 1113 52.2561 1374.47 551.018
2703 0 76.1857 13.2702 1011 53.547 1374.74 550.875
2704 0 80.1315 14.0394 1125 52.7671 1374.76 550.195
2705 0 83.1499 14.4799 1204 52.8405 1374.42 549.192
2706 0 85.163 14.4664 1232 53.2873 1374.9 546.265
2707 0 90.2518 15.1576 1368 52.2376 1375.02 546.075
2708 0 93.2303 13.8689 1293 53.4578 1375.22 545.021
2709 1 54.1175 11.512 623 52.313 1375.34 565.955
2710 0 54.0365 12.436 672 52.7158 1375.28 564.152
2711 0 54.1078 12.4751 675 53.5615 1375.18 564.495
2712 0 57.133 13.4598 769 52.5332 1375.37 562.453
2713 0 59.1027 12.3683 731 53.3352 1375.48 560.373
2714 0 61.1235 12.0903 739 53.41 1375.71 561.245
2715 0 61.0487 12.6129 770 53.1974 1375.69 560.745
2716 0 66.07 14.0609 929 50.5996 1376.03 557.363
2717 0 67.193 12.5757 845 51.9527 1375.57 555.834
2718 0 70.181 12.8097 899 51.158 1375.85 555.576
2719 0 70.0656 12.7309 892 51.8229 1375.42 553.031
2720 0 75.1235 12.5926 946 51.3066 1375.62 553.517
2721 0 78.1464 12.2079 954 51.2746 1375.48 553.32
2722 0 81.2822 12.4751 1014 51.1213 1375.2 551.464
2723 1 46.1365 9.23347 426 49.8052 1374.32 571.404
2724 0 46.0851 9.76454 450 49.8956 1374.33 568.749
2725 0 46.0392 10.8169 498 49.6647 1374.84 567.819
2726 0 48.0759 10.3586 498 49.7209 1374.87 566.426
2727 0 48.0759 10.4418 502 141.52 1374.86 566.518
2728 0 52.0418 12.2402 637 48.6609 1374.65 564.372
2729 0 54.2613 12.3108 668 48.8593 1374.69 562.569
2730 0 54.0995 12.6988 687 48.5895 1374.37 563.109
2731 0 58.1511 11.7796 685 49.146 1375.05 562.543
