time division length width area intensity CMx CMy
0 0 39.2009 11.3008 443 75.2032 1058.99 581.738
1 0 41.1237 10.6994 440 75.5977 1058.8 581.58
2 0 43.1775 10.839 468 75.7009 1058.76 581.015
3 0 45.1122 11.8593 535 74.8935 1058.95 579.886
4 0 45.1676 12.4868 564 74.3138 1058.7 580.113
5 0 47.1921 12.9471 611 73.9133 1058.61 579.124
6 0 48.1509 12.4816 601 74.7604 1058.36 578.569
7 0 50.2017 12.6689 636 75.0425 1058.57 576.717
8 0 51.1937 13.1461 673 75.1828 1058.92 575.736
9 0 52.2469 12.6515 661 76.938 1058.92 575.679
10 0 54.1031 12.9752 702 76.7721 1058.86 574.809
11 0 56.0342 13.0635 732 76.4617 1058.73 574.27
12 0 56.0297 12.7254 713 78.3394 1059.03 573.027
13 0 60.0383 13.1416 789 76.9861 1058.83 571.522
14 0 60.102 13.0944 787 77.7319 1059.01 570.525
15 0 63.0993 13.3757 844 77.1611 1059.48 569.222
16 0 65.1419 13.3094 867 76.714 1059.12 569.131
17 0 68.1125 13.5511 923 76.5471 1059.32 567.661
18 0 70.2603 13.4642 946 76.87 1059.34 567.001
19 0 73.1771 13.1735 964 77.4969 1059.17 566.657
20 0 73.1484 13.001 951 78.5657 1059.73 564.855
21 0 76.1768 13.6918 1043 77.8121 1059.63 563.822
22 0 80.1779 13.6072 1091 77.791 1059.81 562.139
23 0 83.1291 14.0625 1169 77.4217 1060.26 560.121
24 0 86.3312 13.3671 1154 78.1759 1060.12 559.184
25 1 46.1595 11.4386 528 78.3939 1059.45 580.93
26 0 49.2053 11.828 582 78.6838 1059.41 579.376
27 0 51.2046 12.3817 634 100.347 1059.65 577.968
28 0 51.1241 12.2643 627 79.3907 1059.52 576.04
29 0 52.0907 13.2461 690 78.3725 1059.95 574.929
30 0 56.1092 12.9747 728 78.3283 1060.32 574.368
31 0 58.1271 13.2124 768 77.4492 1059.99 573.406
32 0 56.1793 12.7627 717 79.4282 1060.16 573.48
33 0 60.0512 13.7882 828 76.2971 1060.33 572.844
34 0 63.1647 12.8236 810 77.0617 1060.2 570.427
35 0 66.0973 13.5406 895 74.7229 1060.71 569.476
36 0 67.2122 13.197 887 75.3664 1061.08 569.733
37 0 70.1076 13.736 963 73.9346 1060.8 567.542
38 0 71.2158 13.101 933 75.3451 1060.76 566.729
39 0 74.1529 13.1215 973 75.7924 1061.18 565.473
40 0 76.1552 13.5644 1033 74.3456 1061.7 564.913
41 0 79.2106 13.3821 1060 74.5726 1061.1 563.818
42 0 82.2697 13.2005 1086 74.4199 1061.31 561.805
43 0 85.203 13.4972 1150 74.0148 1061.25 558.127
44 0 88.1757 13.6999 1208 73.0993 1061.32 558.135
45 1 45.02 10.8174 487 75.5462 1061.71 579.138
46 0 47.0354 11.8847 559 75.0572 1061.71 577.191
47 0 49.041 12.1531 596 74.4312 1061.82 576.52
48 0 50.027 12.4333 622 74.1383 1061.39 576.471
49 0 52.076 12.8274 668 73.7754 1061.62 574.636
50 0 53.1139 13.2357 703 73.266 1061.33 575.317
51 0 54.0523 12.6359 683 74.9239 1062.19 573.318
52 0 56.1006 13.1728 739 74.4384 1061.87 572.697
53 0 58.1172 13.1803 766 74.393 1061.45 571.231
54 0 61.0935 12.7182 777 67.3269 1061.04 570.216
55 0 63.0857 13.2835 838 66.8091 1061.62 571.147
56 0 65.0649 12.6643 824 68.483 1062.14 570.289
57 0 67.1173 13.8116 927 65.7238 1062.35 568.997
58 0 68.1423 13.149 896 66.3348 1062.03 567.946
59 0 70.0663 13.8298 969 65.8421 1062.34 566.725
60 0 73.2457 13.5844 995 66.3226 1062.91 564.581
61 0 77.1511 14.504 1119 65.4629 1063.2 561.534
62 0 81.1443 13.4452 1091 66.8213 1063.09 560.014
63 0 82.1646 13.3147 1094 67.5411 1062.39 558.921
64 0 87.0961 13.6057 1185 66.8717 1063 556.851
65 0 89.0959 13.7941 1229 66.4378 1063.15 555.722
66 0 91.3098 13.602 1242 66.9549 1062.86 553.368
67 0 95.1615 13.2301 1259 67.7482 1063.47 553.076
68 1 49.1999 10.6301 523 68.6941 1063.58 576.837
69 0 50.1829 11.7171 588 68.2653 1064.22 575.281
70 0 53.0599 11.8168 627 67.9219 1063.61 573.791
71 0 52.1466 11.9663 624 68.2612 1063.93 574.072
72 0 56.1254 11.7594 660 68.8121 1064.25 571.33
73 0 56.1412 12.5576 705 68.034 1064.31 570.885
74 0 57.1989 12.1681 696 68.4971 1063.81 569.477
75 0 61.0521 13.8406 845 65.955 1064.32 568.114
76 0 62.1466 13.1141 815 67.6393 1063.77 567.467
77 0 65.1309 12.9739 845 68.1041 1064.64 566.299
78 0 66.2308 13.4077 888 67.7365 1064.18 566.755
79 0 69.1554 13.8962 961 66.9209 1064.72 564.078
80 0 71.1243 13.2303 941 68.1775 1064.56 563.003
81 0 74.1855 13.5876 1008 67.9782 1064.59 559.688
82 0 73.1267 13.1689 963 70.215 1065.46 559.688
83 0 76.2759 12.9792 990 70.5667 1065.82 557.544
84 0 80.4127 13.8162 1111 68.8335 1065.87 556.448
85 0 83.2612 13.2475 1103 69.7171 1066.45 555.268
86 1 44.2173 11.4435 506 70.087 1065.87 573.81
87 0 46.0801 11.4583 528 69.1155 1066.19 573.502
88 0 46.1486 11.268 520 69.3019 1066.83 573.048
89 0 49.0382 12.8063 628 67.7675 1066.97 571.065
90 0 50.0441 11.6297 582 69.5464 1067.76 570.83
91 0 50.1053 12.3939 621 70.3366 1068.33 567.939
92 0 51.1647 12.9386 662 69.6148 1068.12 567.068
93 0 52.0679 12.2532 638 69.9592 1068.19 565.665
94 0 54.0745 13.0191 704 69.1165 1067.97 566.413
95 0 60.0509 13.0389 783 67.5275 1067.98 564.547
96 0 60.1333 13.4867 811 67.4464 1068.4 561.894
97 0 63.2261 12.9693 820 67.3341 1067.95 562.098
98 0 64.135 12.2866 788 68.7805 1067.56 561.302
99 0 67.0523 13.1986 885 67.5119 1066.98 559.427
100 0 68.1205 13.7991 940 67.2383 1067.23 557.819
101 0 71.1153 13.5976 967 67.7466 1067.81 557.885
102 0 73.1342 12.9351 946 69.2812 1067.81 556.957
103 0 76.1071 13.4022 1020 70.2206 1067.28 553.782
104 0 78.1674 13.3048 1040 70.7394 1067.09 552.136
105 0 80.195 13.8163 1108 70.9305 1067.47 551.615
106 0 81.1153 12.6856 1029 72.7493 1067.48 551.226
107 0 87.1089 13.8907 1210 70.4727 1067.61 547.818
108 1 44.0414 9.76354 430 73.6791 1067.19 570.505
109 0 46.0385 10.7953 497 71.9517 1067.38 569.388
110 0 48.0301 11.4303 549 71.2113 1067.17 568.12
111 0 49.1903 11.8519 583 70.7959 1066.58 567.427
112 0 51.1338 11.4992 588 72.3827 1066.7 565.704
113 0 52.1091 12.1476 633 70.9463 1066.77 565.539
114 0 54.1196 12.6387 684 69.9152 1066.54 563.898
115 0 55.115 11.9024 656 71.2287 1066.56 564.226
116 0 58.1637 12.0694 702 70.604 1066.56 563.05
117 0 59.0525 12.074 713 70.4951 1066.36 562.708
118 0 61.115 12.5828 769 70.4161 1066.65 560.875
119 0 61.1492 12.4123 759 71.4822 1066.3 560.813
120 0 65.0713 12.0022 781 70.8015 1066.71 561.27
121 0 67.1198 12.2319 821 70.3045 1066.66 558.216
122 0 69.0778 12.2905 849 70.3369 1066.53 556.674
123 0 73.0881 13.2853 971 68.8733 1066.09 554.478
124 0 75.1232 12.2466 920 70.6837 1066.2 555.292
125 0 77.1915 12.7475 984 70.0254 1066.69 551.578
126 0 83.1619 13.7563 1144 67.3855 1065.69 552.599
127 0 83.1831 12.8151 1066 69.8752 1065.49 551.46
128 1 46.0243 10.0164 461 71.0824 1064.93 569.421
129 0 45.0177 10.9068 491 71.5112 1064.85 568.711
130 0 47.0451 10.5006 494 71.6599 1064.37 567.737
131 0 51.0462 10.5786 540 71.7389 1064.79 566.807
132 0 53.0776 11.4926 610 69.7262 1064.95 566.866
133 0 54.0287 12.0677 652 68.8282 1064.07 565.526
134 0 53.1357 12.0823 642 69.866 1065.21 565.12
135 0 56.1367 12.1667 683 69.0322 1065.06 564.184
136 0 57.1756 12.3654 707 69.1867 1065.22 564.465
137 0 59.0642 12.5457 741 69.5317 1065.17 563.85
138 0 61.083 12.5239 765 69.1085 1065.49 563.193
139 0 65.1236 13.0214 848 66.9139 1065.56 561.159
140 0 67.1213 13.1255 881 67.0114 1065.13 559.314
141 0 67.1213 13.1255 881 149.523 1065.13 559.314
142 0 71.0725 12.832 912 67.8542 1065.48 556.479
143 0 73.0757 12.795 935 68.0695 1065.14 556.544
144 0 75.1771 12.424 934 68.5707 1065.06 556.521
145 0 78.1475 12.566 982 68.4175 1065.01 555.825
146 0 79.0783 12.4307 983 69.4883 1064.96 553.961
147 1 42.0269 10.4457 439 68.6788 1064.22 572.695
148 0 44.0607 9.60039 423 69.6407 1063.98 572.792
149 0 43.0835 11.8143 509 66.7151 1063.88 572.409
150 0 44.0221 11.3579 500 67.512 1063.79 571.598
151 0 46.0157 11.3005 520 68.3096 1063.56 570.746
152 0 48.0948 11.706 563 67.3606 1062.99 568.917
153 0 49.0622 12.0052 589 67.5722 1062.99 568.75
154 0 49.1509 11.9632 588 67.9966 1062.8 568.519
155 0 52.0766 11.4639 597 68.66 1062.96 567.658
156 0 52.0685 11.7345 611 68.3175 1063.42 567.478
157 0 54.208 12.5074 678 67.41 1063.43 567.108
158 0 56.1436 12.6461 710 67.2944 1063.64 564.297
159 0 57.0884 13.1901 753 66.2829 1064.08 565.199
160 0 59.0729 12.2391 723 68.0747 1063.88 564.43
161 0 60.0369 13.2585 796 67.2161 1064.09 562.05
162 0 61.1078 13.0098 795 68.0013 1063.56 562.347
163 0 63.1204 12.9752 819 68.3871 1063.83 561.294
164 0 66.1312 13.7454 909 66.9307 1063.52 560.565
165 0 68.0286 12.8475 874 69.1808 1064.23 558.735
166 0 69.0469 12.9767 896 70.1931 1064.14 558.489
167 0 71.1595 13.5611 965 69.9585 1063.87 557.595
168 0 71.1229 12.6963 903 72.0853 1063.78 557.813
169 0 76.1793 13.2057 1006 70.7117 1064.29 556.414
170 0 79.2949 13.2922 1054 70.4023 1064.19 554.585
171 0 81.1498 14.0604 1141 69.4847 1064.55 552.419
172 0 83.1814 13.3564 1111 71.2763 1065.06 550.968
173 0 86.1902 13.4354 1158 71.0967 1065.41 549.821
174 1 44.1209 10.9472 483 71.617 1064.99 570.47
175 0 44.0898 10.8188 477 72.956 1065.35 568.201
176 0 48.2355 11.2158 541 70.8078 1065.28 568.654
177 0 48.1584 10.6939 515 72.5359 1065.64 567.165
178 0 51.1377 11.2441 575 71.6313 1066.03 567.043
179 0 51.1872 12.2882 629 71.3847 1066.31 564.051
180 0 54.1093 12.0866 654 71.5474 1066.26 564.786
181 0 57.1764 12.6101 721 70.0569 1066.48 564.204
182 0 57.0981 12.785 730 70.6822 1067.01 562.456
183 0 59.0917 12.3198 728 71.6786 1066.99 561.14
184 0 60.2516 12.6138 760 71.7605 1066.98 561.717
185 0 62.1162 13.4265 834 70.7098 1066.89 560.012
186 0 63.3941 12.446 789 72.8251 1067.64 556.873
187 0 65.1569 12.6617 825 72.4667 1067.2 558.741
188 0 67.1776 12.7275 855 72.883 1067.64 555.593
189 0 69.0886 12.7083 878 72.8838 1067.24 556.542
190 0 72.0425 13.3255 960 71.1521 1068.06 555.266
191 0 74.1645 13.2813 985 71.9472 1068.04 553.306
192 0 76.1759 12.9437 986 71.7241 1068.23 552.281
193 0 76.1759 12.9175 984 164.619 1068.23 552.349
194 0 81.2867 13.5323 1100 68.6845 1068.43 551.38
195 0 83.1211 13.1134 1090 68.8972 1068.86 549.604
196 0 86.1618 13.8576 1194 66.8819 1068.9 546.599
197 0 87.2427 12.6314 1102 69.5064 1069.17 546.996
198 0 90.1839 13.2507 1195 70.3029 1069.21 544.196
199 0 94.2124 13.4483 1267 70.8777 1069.41 542.856
200 0 96.1718 13.2887 1278 72.0501 1069.72 540.554
201 1 51.1729 11.0019 563 72.5702 1069.48 562.643
202 0 54.0925 10.0938 546 73.7527 1069.6 562.046
203 0 55.0757 10.5128 579 72.9171 1069.24 562.972
204 0 58.1465 11.9698 696 71.4641 1069.24 562.056
205 0 58.1277 11.5264 670 71.9 1069.53 561.122
206 0 62.1171 12.3798 769 70.6359 1069.7 558.637
207 0 64.1193 12.2896 788 70.7234 1069.68 559.867
208 0 65.1698 12.337 804 70.8843 1069.67 557.163
209 0 68.1764 12.9517 883 69.3511 1069.71 556.426
210 0 70.282 12.6633 890 69.964 1069.75 554.696
211 0 72.2013 12.4236 897 71.0045 1069.42 552.381
212 0 75.161 12.5464 943 70.6002 1069.34 553.215
213 0 75.1476 12.4422 935 72.1059 1069.31 550.095
214 0 79.2157 12.5985 998 71.0561 1069.27 550.953
215 0 84.2342 13.2369 1115 70.1874 1069.42 547.413
216 0 87.175 12.2397 1067 71.2099 1069.67 546.966
217 1 42.0973 10.9033 459 71.6993 1069.12 567.083
218 0 46.1935 11.1488 515 69.6738 1068.95 566.528
219 0 45.0445 11.8327 533 70.7824 1068.65 565.306
220 0 49.0776 12.2255 600 69.7217 1068.24 565.378
221 0 50.0844 12.419 622 69.6093 1068.3 566.891
222 0 50.0844 12.3392 618 164.456 1067.29 566.888
223 0 50.081 12.0205 602 71.9751 1068.22 566.06
224 0 51.0734 12.1981 623 72.1364 1068.14 565.437
225 0 53.13 12.9682 689 71.5123 1067.73 563.044
226 0 55.1475 12.53 691 72.3227 1067.42 563.472
227 0 59.1334 12.8354 759 70.4256 1066.99 562.478
228 0 59.1588 12.5256 741 72.2375 1067.28 563.263
229 0 61.1484 12.2325 748 72.8757 1066.61 561.084
230 0 63.0938 13.9475 880 70.65 1066.95 559.974
231 0 63.0546 12.3385 778 75.0463 1066.96 558.631
232 0 67.1274 12.9008 866 73.485 1066.6 558.385
233 0 68.0601 13.1942 898 73.7116 1066.92 556.396
234 0 70.1464 12.7876 897 74.379 1066.78 554.804
235 0 71.107 12.8398 913 74.6846 1065.92 554.561
236 0 75.0797 12.893 968 74.032 1065.74 552.919
237 0 77.0663 13.2224 1019 73.1923 1065.55 553.039
238 0 81.0668 13.5074 1095 72.3936 1065.71 550.921
239 1 41.0405 10.0389 412 74.1238 1065.59 571.027
240 0 43.0568 11.4732 494 71.2571 1065.98 571.581
241 0 43.048 10.4767 451 73.5344 1065.91 570.519
242 0 45.034 10.9029 491 73.6517 1065.94 569.892
243 0 45.0342 12.435 560 71.2125 1066.27 569.311
244 0 48.1528 11.8166 569 71.1248 1066.05 568.525
245 0 47.0883 12.8694 606 70.3317 1066.51 568.482
246 0 49.0922 11.9978 589 70.8472 1066.1 567.998
247 0 51.092 12.4873 638 69.9843 1065.89 566.781
248 0 50.0927 12.1774 610 164.357 1064.89 566.27
249 0 51.1344 12.2814 628 72.0366 1066.14 566.623
250 0 52.0661 12.2921 640 72.1359 1066.4 565.925
251 0 55.1059 12.4306 685 71.4657 1066.32 565.492
252 0 58.1428 12.5553 730 70.4274 1066.34 564.707
253 0 57.0444 12.9022 736 71.2255 1066.85 564.367
254 0 60.1017 13.2109 794 70.102 1066.26 562.772
255 0 61.0452 13.3835 817 69.9596 1066.63 562.344
256 0 62.0853 12.0157 746 72.2869 1067.26 563.359
257 0 67.1337 13.138 882 69.7279 1067.31 562.085
258 0 67.1037 12.8011 859 70.61 1067.12 561.024
259 0 69.0748 13.5071 933 69.7535 1067.01 559.946
260 0 73.2326 13.4503 985 69.5604 1066.62 558.099
261 0 75.224 13.3069 1001 70.5165 1066.53 557.656
262 0 76.1516 13.0135 991 71.6589 1066.26 556.171
263 0 77.2063 13.5999 1050 71.7533 1066.7 554.451
264 0 83.2096 13.2797 1105 71.7629 1066.33 554.391
265 0 83.233 13.264 1104 73.0154 1065.71 552.547
266 0 88.1489 12.8986 1137 73.7221 1066.02 551.602
267 0 89.2066 13.9227 1242 72.4742 1066.29 549.3
268 1 46.1926 11.2789 521 74.142 1066.32 571.023
269 0 46.2121 10.2787 475 75.7053 1066.18 571.427
270 0 49.3558 11.1436 550 74.0509 1066.59 570.811
271 0 50.2153 11.9286 599 72.7412 1066.47 569.482
272 0 51.1282 10.992 562 74.4822 1067 568.347
273 0 51.1112 11.9935 613 73.0881 1066.91 568.093
274 0 54.1303 11.9157 645 72.8682 1066.74 567.344
275 0 55.1724 11.89 656 73.2317 1067.21 565.852
276 0 57.0989 12.2069 697 72.241 1067.4 564.802
277 0 60.0206 12.0792 725 71.7752 1067.67 563.988
278 0 62.0904 13.0294 809 70.2299 1067.4 560.695
279 0 63.1356 12.291 776 71.4704 1067.49 560.407
280 0 66.1928 12.7506 844 70.0498 1067.58 559.128
281 0 68.128 13.2104 900 68.9389 1067.3 557.683
282 0 71.1571 12.4935 889 70.117 1067.56 556.852
283 0 72.119 13.3945 966 69.4576 1067.99 554.707
284 0 75.1454 12.6422 950 70.4968 1067.91 554.226
285 0 78.1094 13.4043 1047 69.2923 1067.8 552.826
286 0 79.1954 12.6775 1004 71.2311 1068.18 552.066
287 0 82.105 13.3609 1097 70.3582 1067.93 549.83
288 0 83.181 12.1662 1012 72.3132 1068.06 548.978
289 1 47.0717 11.748 553 70.8608 1068.2 567.058
290 0 50.0832 11.6207 582 70.3832 1068.47 566.177
291 0 50.0458 11.4096 571 72.7023 1068.74 563.632
292 0 51.0609 11.3198 578 72.4516 1069.05 564.093
293 0 55.0188 12.632 695 69.3612 1069.56 562.594
294 0 56.1104 12.6714 711 69.4613 1070.1 561.134
295 0 58.067 13.14 763 69.2647 1070.86 560.072
296 0 60.0649 12.4532 748 70.2099 1070.71 558.307
297 0 62.0728 13.3714 830 68.9566 1070.93 555.977
298 0 63.0849 12.1741 768 70.0807 1071.3 556.654
299 0 67.0886 11.6413 781 69.9616 1071.03 556.077
300 0 69.1844 13.3267 922 67.0705 1071.55 554.751
301 0 72.1847 13.7702 994 65.9376 1071.54 553.188
302 0 74.0896 13.2947 985 66.9695 1071.85 551.379
303 0 75.0886 12.2122 917 69.0131 1071.54 550.671
304 0 77.0868 12.7778 985 67.8437 1071.58 550.411
305 0 80.1908 13.0813 1049 67.164 1071.77 549.448
306 0 83.1494 13.3014 1106 66.2794 1071.95 549.197
307 0 87.1249 13.6241 1187 65.6546 1071.64 546.166
308 0 89.1922 13.2299 1180 66.339 1071.42 544.752
309 1 44.0907 11.1588 492 65.9919 1070.95 567.024
310 0 45.0833 10.5582 476 67.1176 1071.24 565.693
311 0 47.197 11.6745 551 64.4229 1070.22 565.563
312 0 48.0345 12.1163 582 64.8763 1070.06 564.388
313 0 50.0614 12.4048 621 63.9726 1070.49 563.494
314 0 50.0383 11.8909 595 66.0874 1070.56 560.605
315 0 53.1792 12.0724 642 64.9922 1070.16 560.447
316 0 54.1138 12.0857 654 64.6911 1070.36 560.485
317 0 56.0744 12.0911 678 65.0103 1070.19 560.263
318 0 56.0385 11.849 664 66.2575 1070.08 558.577
319 0 58.108 12.8898 749 64.8518 1069.92 558.142
320 0 62.2085 13.085 814 64.0762 1070.6 557.009
321 0 62.227 13.1615 819 64.5238 1069.7 556.195
322 0 63.3059 12.6213 799 65.8185 1069.96 555.761
323 0 67.149 13.0456 876 65.089 1069.83 554.941
324 0 67.1876 12.9042 867 66.3495 1070.11 553.037
325 0 67.1876 12.9191 868 168.382 1069.1 553.055
326 0 70.1289 12.9618 909 66.8933 1070.05 553.043
327 0 74.1677 13.5638 1006 65.8618 1069.53 550.275
328 0 73.2104 11.5421 845 69.6911 1069.64 550.497
329 0 79.2425 13.7174 1087 65.7213 1068.94 549.709
330 1 41.1464 9.64847 397 68.2418 1068.45 566.756
331 0 41.1616 10.4223 429 67.5594 1068.63 566.501
332 0 42.1639 10.1746 429 68.2937 1068.3 566.485
333 0 46.3267 11.3326 525 65.5124 1068.25 566.227
334 0 47.0819 12.1915 574 64.2178 1068.7 565.97
335 0 48.1057 12.3478 594 64.4461 1068.77 564.554
336 0 50.0702 12.2428 613 64.0522 1067.79 564.821
337 0 51.0982 12.2901 628 64.551 1067.89 564.158
338 0 52.1124 12.1468 633 65.2591 1068.3 561.837
339 0 52.0677 12.0612 628 65.6131 1067.87 563.303
340 0 53.0969 12.4113 659 65.6722 1067.77 561.904
341 0 56.1774 13.1725 740 64.023 1067.77 560.53
342 0 55.1824 12.0872 667 66.5697 1067.61 559.303
343 0 60.117 13.4904 811 63.3613 1067.63 559.351
344 0 60.117 13.5236 813 156.961 1067.63 559.321
345 0 61.225 11.7272 718 66.1657 1067.81 557.911
346 0 61.225 11.7272 718 167.882 1067.81 557.891
347 0 65.0872 13.044 849 64.9847 1067.51 555.146
348 0 66.1086 13.1602 870 64.9989 1067.39 554.813
349 0 69.1086 12.2561 847 66.2373 1067.39 552.222
350 0 72.2134 12.92 933 65.0761 1067.32 551.905
351 1 37.015 9.67175 358 66.9274 1067.08 569.176
352 0 38.035 10.6744 406 65.6059 1067.22 569.135
353 0 38.0477 10.6445 405 67.0148 1067.17 567.669
354 0 40.0445 11.687 468 64.4573 1067.62 568.282
355 0 42.0489 11.4153 480 65.5333 1067.64 566.852
356 0 43.055 11.7756 507 64.641 1067.71 567.369
357 0 45.0814 13.3093 600 62.405 1067.85 567.908
358 0 44.0676 12.0497 531 65.4896 1068.12 567.966
359 0 45.1021 12.5271 565 65.1611 1068.02 566.864
360 0 45.0972 11.5972 523 67.8031 1068.07 565.96
361 0 49.0883 12.7118 624 64.9696 1067.93 566.138
362 0 49.1002 11.5478 567 67.328 1068.12 566.305
363 0 52.0198 12.8797 670 65.0985 1068.11 563.957
364 0 51.0798 12.6665 647 66.3431 1068.24 563.845
365 0 54.0655 12.5033 676 66.463 1067.81 563.641
366 0 54.0511 13.4502 727 65.9945 1068.46 561.887
367 0 57.0385 13.9905 798 64.5125 1068.62 561.712
368 0 57.0385 14.0081 799 157.537 1069.63 561.701
369 0 59.1057 12.7399 753 67.3028 1069.06 559.742
370 0 61.0554 12.6934 775 67.5665 1068.82 557.778
371 0 62.0595 13.5193 839 65.8284 1069.33 558.206
372 0 66.0892 13.6936 905 65.4431 1069.15 555.4
373 0 66.0885 12.9523 856 66.7617 1069.33 554.779
374 0 70.0682 13.2157 926 65.7559 1069.43 554.168
375 0 73.0765 13.3285 974 65.1335 1069 553.134
376 0 75.0552 12.6174 947 64.6895 1069.33 551.61
377 0 75.057 12.5638 943 64.772 1069.64 551.632
378 1 41.029 11.1385 457 64.4179 1069.27 567.484
379 0 42.0538 11.6755 491 64.0652 1069.55 566.8
380 0 43.0395 11.7334 505 64.1802 1069.01 566.818
381 0 44.1294 12.5313 553 63.4557 1069.39 566.427
382 0 46.0723 11.9378 550 63.8345 1069.39 566.38
383 0 47.1054 11.4424 539 64.3692 1069.76 565.399
384 0 49.0615 12.4334 610 63.2328 1070.03 563.475
385 0 52.0823 12.461 649 63.1094 1070.12 563.336
386 0 52.064 13.1569 685 62.0088 1070.59 563.212
387 0 55.1579 13.3979 739 61.0541 1070.74 561.253
388 0 55.0471 12.9344 712 62.5702 1070.93 560.215
389 0 57.0999 12.6445 722 62.9765 1071.35 559.353
390 0 60.0369 12.7755 767 63.0378 1071.35 557.735
391 0 62.0344 13.0411 809 62.4635 1071.71 556.714
392 0 63.0782 13.2534 836 62.5969 1071.59 555.108
393 0 65.0723 12.3248 802 63.818 1071.69 554.183
394 0 65.1612 13.106 854 63.6183 1071.71 554.297
395 0 69.1744 12.5046 865 63.9988 1071.61 550.862
396 0 71.2945 13.1847 940 63.1489 1071.96 551.488
397 0 73.1217 12.5134 915 64.6055 1072.1 550.832
398 0 75.1535 12.9468 973 64.1357 1072.17 549.377
399 1 43.1542 10.1497 438 65.4041 1071.74 565.171
400 0 44.0778 10.5042 463 65.1857 1071.83 564.449
401 0 46.151 10.7257 495 64.7818 1072 565.501
402 0 47.0941 11.063 521 64.3301 1072.08 565.167
403 0 47.0294 11.546 543 64.1676 1071.89 563.7
404 0 51.0651 11.8084 603 63.0912 1072.51 563.166
405 0 51.1571 12.1977 624 63.3542 1072.63 561.466
406 0 52.1639 12.5182 653 63.3047 1072.46 561.012
407 0 54.1142 12.1964 660 63.0576 1072.18 561.952
408 0 57.2516 13.1699 754 61.8926 1072.07 559.684
409 0 60.1612 12.4831 751 62.9454 1072.56 558.333
410 0 62.1132 13.0085 808 61.9975 1072.85 558.448
411 0 62.1202 12.3309 766 64.0352 1072.75 556.456
412 0 66.0998 12.4206 821 63.3203 1072.26 555.933
413 0 69.1257 12.3688 855 63.7977 1071.96 554.019
414 0 71.0967 12.1243 862 64.1531 1071.83 554.232
415 0 72.1195 12.202 880 65.9511 1072.35 551.677
416 1 40.075 10.7049 429 66.4312 1072.04 567.235
417 0 42.0998 11.5678 487 64.5133 1071.29 568.965
418 0 43.1256 11.8955 513 65.4483 1071.12 567.24
419 0 45.1322 12.7847 577 64.5754 1070.6 566.69
420 0 44.1323 10.7631 475 68.7179 1070.72 566.408
421 0 45.1367 10.9667 495 68.1778 1070.51 566.582
422 0 47.1644 11.8946 561 67.1462 1070.42 565.765
423 0 49.1672 12.3863 609 66.5337 1070.29 565.742
424 0 51.1156 12.3837 633 67.1627 1070.71 562.276
425 0 53.1267 12.2537 651 66.6682 1069.43 563.453
426 0 53.1267 12.2349 650 169.528 1069.41 563.557
427 0 56.1768 11.9622 672 68.0893 1069.49 563.644
428 0 60.0947 13.4288 807 65.461 1069.52 560.342
429 0 60.1652 13.4463 809 66.8158 1069.01 558.824
430 0 61.1159 13.0081 795 67.5258 1068.91 559.238
431 0 64.141 12.5661 806 68.6861 1068.55 556.702
432 0 66.1119 12.5393 829 67.8528 1069.05 557.461
433 1 36.0141 11.1623 402 68.5373 1068.25 571.756
434 0 35.0981 10.6843 375 68.7627 1068.04 573.376
435 0 37.0683 11.1955 415 68.294 1068.36 571.906
436 0 39.11 11.5827 453 68.5519 1068.93 571.064
437 0 41.1635 11.2478 463 69.0886 1068.54 570.955
438 0 40.256 11.0791 446 70.8453 1068.55 571.35
439 0 41.1551 11.7604 484 70.0248 1068.68 571.138
440 0 44.1268 11.9882 529 68.9055 1068.6 570.781
441 0 44.1699 12.4972 552 69.1775 1068.71 569.408
442 0 45.1362 12.3847 559 69.0125 1068.31 569.064
443 0 47.0785 12.2137 575 70.3165 1068.36 568.278
444 0 46.0984 12.3648 570 70.7579 1069.16 568.849
445 0 49.1157 12.6436 621 70.0515 1068.75 567.765
446 0 51.134 12.4379 636 70.3286 1069.39 567.706
447 0 52.1659 12.9203 674 70.0653 1069.29 566.074
448 0 54.1108 12.6407 684 70.6988 1069.11 565.715
449 0 55.1378 12.9494 714 70.7857 1069.05 565.276
450 0 55.1936 13.2987 734 71.1008 1069.25 562.462
451 0 58.1025 13.0115 756 71.0079 1069.32 562.43
452 0 59.4089 12.8768 765 71.4588 1069.49 560.519
453 0 61.1225 12.6304 772 71.4948 1069.3 560.179
454 0 62.2597 12.48 777 71.9125 1069.24 560.607
455 0 65.3367 13.7595 899 69.2725 1069.12 557.56
456 0 69.3361 13.3408 925 68.6962 1069.04 556.657
457 0 71.3818 13.5048 964 67.9481 1069.04 556.13
458 0 72.2223 12.8769 930 69.3731 1068.57 555.773
459 1 35.204 10.1693 358 71.7598 1068.35 574.363
460 0 36.0972 11.1089 401 71.9027 1068.95 573.03
461 0 39.1035 11.5335 451 69.3636 1068.35 572.878
462 0 39.1035 11.5079 450 163.3 1068.36 572.92
463 0 40.0897 12.1478 487 70.6427 1068.21 572.546
464 0 40.0864 12.7475 511 70.3268 1068.23 572.205
465 0 43.0669 12.6547 545 70.8055 1068.24 571.961
466 0 42.1666 12.2372 516 72.5446 1068.6 571.19
467 0 43.0703 12.259 528 73.3011 1068.6 570.53
468 0 43.1248 12.6841 547 72.5722 1068.62 570.038
469 0 47.1209 14.3248 675 68.9348 1069.02 569.6
470 0 47.1707 13.0166 614 71.8404 1069.14 568.875
471 0 50.031 12.992 650 70.7677 1068.86 569.157
472 0 51.0638 13.4538 687 70.6652 1068.62 566.47
473 0 51.1089 13.8332 707 70.512 1068.8 567.612
474 0 53.0567 13.2688 704 71.3707 1068.87 567.057
475 0 53.0802 13.5455 719 71.7803 1068.77 567.296
476 0 56.1223 14.308 803 69.7173 1069.32 565.407
477 0 57.0421 13.9897 798 69.8609 1069.3 566.365
478 0 60.0624 13.7357 825 69.0533 1069.05 564.275
479 0 59.1197 13.1936 780 71.0218 1069.19 562.914
480 0 62.2421 13.7849 858 69.4196 1069.45 561.474
481 0 64.1718 13.5729 871 69.3812 1069.28 562.063
482 0 65.2408 13.5805 886 70.0519 1069 560.394
483 0 69.2441 14.0806 975 68.241 1069.43 559.969
484 0 71.2926 14.3774 1025 68.0507 1068.85 558.936
485 0 73.2409 13.4351 984 70.0132 1069.32 556.934
486 0 74.1708 14.4127 1069 68.8877 1069.7 555.226
487 0 78.0987 14.7762 1154 68.0199 1069.55 553.929
488 1 40.0161 13.0947 524 70.9351 1069.32 573.38
489 0 42.0476 13.2469 557 71.0341 1069.09 571.935
490 0 42.0248 13.3017 559 72.1503 1069.57 571.043
491 0 44.0703 14.4996 639 69.7136 1069.57 570.432
492 0 46.0983 13.2109 609 71.6798 1069.69 570.054
493 0 46.0952 13.5155 623 71.8668 1069.84 569.575
494 0 49.1879 14.3125 704 69.8665 1069.58 567.973
495 0 51.17 13.6017 696 70.4928 1069.95 567.967
496 0 51.0454 13.0472 666 72.542 1069.43 567.152
497 0 53.0659 14.0391 745 70.0832 1068.91 566.918
498 0 53.0659 13.9261 739 168.133 1068.93 566.972
499 0 57.0963 14.4318 824 70.216 1069.45 561.738
500 0 60.1011 13.8933 835 70.4946 1069.12 563.319
501 0 61.091 13.0625 798 71.8697 1069.33 561.694
502 0 62.076 13.7895 856 71.0105 1068.94 561.799
503 0 66.1449 14.4531 956 69.7197 1069.26 559.249
504 1 32.0097 12.59 403 72.9479 1068.76 575.859
505 0 34.0642 11.5077 392 74.8827 1068.69 575.464
506 0 35.0537 12.6663 444 73.8423 1069.08 573.108
507 0 36.1069 12.8784 465 73.6473 1069.18 573.449
508 0 37.1049 13.1789 489 73.7096 1068.72 573.09
509 0 37.0202 12.6417 468 75.6282 1069.07 571.483
510 0 40.094 14.0919 565 72.5664 1068.77 571.818
511 0 41.0405 14.4248 592 72.1689 1068.87 570.101
512 0 43.1045 14.1981 612 72.2271 1068.5 569.142
513 0 43.0502 14.216 612 73.402 1068.51 569.113
514 0 46.0704 13.6747 630 73.2095 1068.69 568.519
515 0 45.028 14.2578 642 73.6277 1068.73 567.508
516 0 49.0371 13.5408 664 71.7349 1068.85 567.304
517 0 49.0892 13.4857 662 72.3459 1069.33 567.545
518 0 52.0321 13.8761 722 71.313 1069.19 566.868
519 0 52.1103 13.932 726 71.9325 1069.59 564.377
520 0 54.2384 14.1044 765 71.098 1069.76 565.685
521 0 55.1377 13.8744 765 72.4497 1069.58 563.127
522 0 56.0832 14.7994 830 71.7169 1069.67 560.846
523 0 58.0595 13.6584 793 73.0845 1069.69 562.082
524 0 62.1695 14.3157 890 71.336 1069.55 560.644
525 0 63.1626 13.6315 861 73.2532 1069.5 560.74
526 0 63.0839 13.268 837 74.8076 1069.66 560.652
527 0 67.0734 14.8196 994 71.9014 1069.93 559.02
528 1 33.1934 12.6832 421 76.399 1069.76 573.527
529 0 35.0833 12.9121 453 74.8234 1069.21 573.567
530 0 35.1055 13.1888 463 76.9741 1069.44 571.948
531 0 36.0571 13.2845 479 77.0835 1069.47 571.075
532 0 39.1012 15.089 590 73.9254 1069.56 570.334
533 0 40.1088 15.0341 603 75.2106 1069.76 569.28
534 0 42.1446 13.952 588 76.4388 1070.25 569.175
535 0 45.3389 14.6673 665 74.0376 1070.01 568.516
536 0 44.2321 14.3335 634 76.6341 1069.63 568.405
537 0 46.187 13.9866 646 77.5031 1069.58 566.327
538 0 50.2253 14.7933 743 73.7039 1069.54 566.789
539 0 48.3043 14.6364 707 76.239 1069.35 564.777
540 0 50.3553 15.2318 767 75.09 1069.53 564.124
541 0 54.3511 14.9951 815 75.2209 1069.45 562.783
542 0 55.2585 15.6356 864 73.8484 1069.49 562.778
543 0 57.1906 13.9708 799 77.0263 1069.5 562.596
544 0 59.5169 14.5673 867 76.3276 1069.18 560.564
545 0 61.1461 14.4899 886 76.8521 1068.93 557.853
546 0 65.2936 14.5956 953 75.7765 1068.91 557.833
547 1 29.1306 11.3969 332 82.1898 1067.95 573.949
548 0 32.4484 12.7279 413 78.3027 1067.89 574.07
549 0 33.2645 12.7764 425 79.9153 1068.02 572.995
550 0 35.3715 12.8917 456 79.7982 1068.19 571.886
551 0 37.2945 14.3185 534 77.7566 1068.19 570.985
552 0 35.3563 14.1417 500 79.876 1068.35 570.53
553 0 38.2129 14.4977 554 78.4314 1068.43 570.179
554 0 40.3237 14.7308 594 78.3199 1068.39 568.278
555 0 41.2781 14.2691 589 80.0289 1068.22 568.132
556 0 43.5426 13.8944 605 79.4661 1068.32 567.471
557 0 44.5378 14.6168 651 78.5822 1068.32 566.611
558 0 44.4394 14.0641 625 80.504 1068.08 566.488
559 0 45.4822 14.9289 679 79.6406 1068.34 565.68
560 0 49.6397 14.6858 729 78.8738 1068.44 565.41
561 0 49.3825 14.8433 733 79.2019 1067.74 564.688
562 0 51.3622 14.7385 757 78.8269 1068.1 564.133
563 0 53.3211 14.2345 759 79.9183 1068.28 564.282
564 0 55.2732 14.4012 796 79.6043 1067.87 561.977
565 0 55.2611 13.8072 763 81.097 1067.92 561.716
566 0 57.179 14.3409 820 80.0244 1067.24 562.13
567 0 60.4033 15.0157 907 78.409 1067.65 560.264
568 1 29.4121 12.0358 354 84.0678 1066.84 573.297
569 0 29.163 12.7902 373 82.3646 1066.75 573.606
570 0 33.4375 13.7869 461 79.423 1066.98 572.696
571 0 31.2552 12.7019 397 81.8564 1066.91 572.471
572 0 32.1869 12.707 409 81.1834 1066.95 573.276
573 0 34.4034 13.923 479 79.2338 1067.63 572.296
574 0 35.2575 14.4934 511 78.9413 1066.87 571.673
575 0 35.2514 13.8151 487 80.2505 1066.83 571.485
576 0 37.2411 14.9029 555 78.7423 1066.71 571.351
577 0 37.2429 14.0967 525 80.7714 1066.67 571.173
578 0 39.4095 14.6665 578 78.7076 1066.11 570.204
579 0 41.317 14.062 581 78.6351 1066.25 569.688
580 0 42.283 14.6158 618 77.6699 1065.85 570.126
581 0 44.4133 14.7478 655 76.3466 1065.71 568.524
582 0 43.452 14.4297 627 77.8852 1065.72 568.356
583 0 47.2565 15.3206 724 75.1989 1065.45 567.88
584 0 48.4643 14.5468 705 76.0028 1065.95 567.061
585 0 49.5279 15.143 750 75.6907 1065.57 566.276
586 0 50.3221 14.8642 748 76.2781 1065.58 566.283
587 0 52.3249 15.6522 819 75.0965 1065.97 565.341
588 0 52.3037 15.0467 787 76.7217 1065.98 565.09
589 0 55.3658 15.4608 856 75.9836 1065.68 564.069
590 0 56.3603 15.8445 893 75.8242 1065.8 564.695
591 0 57.5364 15.3816 885 76.5616 1065.37 564.56
592 0 59.5477 15.349 914 76.6761 1065.78 563.503
593 0 60.7123 15.4829 940 77.5851 1065.39 561.634
594 0 62.4572 15.2745 954 77.5723 1065.23 560.81
595 0 66.5609 16.0905 1071 75.098 1065.02 559.932
596 0 68.7045 16.7529 1151 73.7941 1065.27 559.482
597 0 69.7251 15.5898 1087 76.1389 1065.37 558.812
598 0 71.643 15.5354 1113 76.2758 1065.07 558.487
599 0 76.4082 16.1108 1231 74.6954 1065.57 557.738
600 0 76.449 16.063 1228 75.5261 1065.4 556.081
601 0 79.2915 16.0925 1276 74.8864 1065.05 554.103
602 0 84.6319 15.8923 1345 74.1041 1065.23 553.755
603 0 86.454 15.7656 1363 74.4255 1065.33 550.523
604 0 88.3442 15.8697 1402 74.6377 1065.4 549.92
605 1 40.4498 13.2263 535 75.0598 1065.2 573.258
606 0 41.359 13.4916 558 74.8369 1065.33 572.514
607 0 40.1962 13.5336 544 75.4375 1065.3 573.34
608 0 43.7112 14.0467 614 74.9577 1065.19 572.44
609 0 44.4887 14.8352 660 73.1106 1065.46 571.998
610 0 44.4181 15.174 674 74.1662 1065.12 570.773
611 0 45.2737 14.5559 659 74.6161 1065.19 570.53
612 0 45.2737 14.5338 658 167.239 1065.19 570.629
613 0 49.1982 14.655 721 74.6366 1065.56 568.926
614 0 50.2922 14.7339 741 75.3725 1065.87 567.842
615 0 52.5253 15.0404 790 75.0835 1065.79 566.718
616 0 51.6809 15.557 804 75.3669 1065.83 566.669
617 0 54.4123 14.9415 813 76.385 1065.85 564.208
618 0 57.6519 14.9171 860 75.2616 1065.81 563.876
619 0 57.3088 15.0762 864 76.2303 1065.97 563.051
620 0 60.5237 15.2998 926 75.3423 1065.56 562.161
621 0 62.3168 14.8756 927 76.0518 1066.13 561.248
622 0 64.2962 15.3819 989 75.2558 1066.39 560.699
623 0 64.1969 16.2936 1046 74.9904 1066.68 559.137
624 0 66.4123 15.976 1061 74.8341 1066.22 559.368
625 0 67.3885 15.8187 1066 75.1923 1066.5 558.738
626 0 67.3885 15.8929 1071 150.062 1067.52 558.735
627 0 72.3002 15.325 1108 75.2401 1066.61 557.143
628 0 74.4675 14.6373 1090 75.9101 1066.52 556.167
629 0 75.4674 15.2781 1153 74.8716 1066.6 556.126
630 0 79.5939 15.4534 1230 74.2528 1066.63 555.09
631 0 81.3139 15.4709 1258 74.3339 1066.7 553.452
632 0 81.7647 15.2633 1248 75.2035 1066.69 553.632
633 0 84.7216 15.5686 1319 74.5603 1066.75 551.846
634 0 86.3665 15.5153 1340 74.806 1067.16 551.62
635 0 89.2636 15.2134 1358 75.0221 1067.23 550.128
636 0 92.9964 15.2156 1415 75.0834 1067.38 546.951
637 0 93.787 14.8208 1390 75.7993 1067.29 545.945
638 0 97.7084 14.9629 1462 75.7866 1067.7 543.433
639 0 99.8317 14.9251 1490 75.9215 1067.53 542.537
640 0 104.419 14.7291 1538 75.9818 1067.59 540.923
641 0 107.706 15.8301 1705 75.0804 1067.88 539.117
642 0 111.526 16.1936 1806 74.4214 1067.8 538.4
643 0 113.472 15.6955 1781 75.5345 1068.13 537.107
644 1 61.7507 13.6679 844 74.7654 1068.13 560.596
645 0 62.2753 14.2271 886 75.684 1067.68 558.676
646 0 64.4553 15.406 993 74.5448 1068.02 557.154
647 0 65.6446 14.0758 924 76.2619 1068.55 556.518
648 0 67.7519 14.6564 993 76.2044 1068.53 555.016
649 0 71.7334 14.2751 1024 76.0156 1068.81 555.064
650 0 71.9713 15.4506 1112 75.232 1068.93 552.825
651 0 74.6326 15.0738 1125 75.4907 1069.24 551.516
652 0 77.9531 14.8807 1160 75.6793 1068.33 549.184
653 0 78.7028 14.6373 1152 75.6667 1068.56 550.14
654 0 79.7713 13.5763 1083 77.4838 1068.51 547.539
655 0 81.8876 13.604 1114 77.5592 1068.71 545.822
656 0 89.0964 14.1532 1261 75.839 1068.93 542.885
657 0 92.1884 13.2229 1219 75.5783 1068.99 542.196
658 0 99.6816 13.1218 1308 74.0191 1069.38 539.207
659 0 106.182 13.4392 1427 71.9804 1069.24 535.81
660 0 104.203 4.15537 433 67.1963 1068.69 562.529
661 0 105.633 5.53807 585 70.253 1068.81 548.81
662 0 104.637 5.17981 542 69.8911 1069.56 549.47
663 1 63.2156 10.0924 638 65.1144 1069.21 554.801
664 0 66.3573 9.70503 644 65.0932 1070.42 552.8
665 0 67.4003 10.7566 725 64.5724 1070.51 550.93
666 0 68.3899 9.4166 644 66.9705 1070.84 550.882
667 0 71.5625 10.8437 776 65.7191 1070.66 550.379
668 0 70.3384 9.88081 695 68.5122 1070.96 549.515
669 0 74.5331 10.8811 811 67.0617 1070.78 550.838
670 0 74.692 10.4429 780 68.9577 1071.13 550.722
671 0 72.5667 10.3767 753 70.8778 1071.23 548.287
672 0 74.5137 9.64923 719 71.8053 1071.14 549.307
673 0 77.4058 11.0586 856 70.2675 1071.37 549.449
674 0 75.5729 10.9563 828 73.4903 1071.63 545.822
675 0 79.6477 11.2621 897 71.6756 1071.56 547.707
676 1 44.1806 9.98175 441 69.8889 1072.2 566.964
677 0 43.098 9.25798 399 70.8922 1072.16 566.165
678 0 49.1761 8.84576 435 69.3977 1072.22 566.018
679 0 48.1622 9.42647 454 69.2269 1072.66 563.78
680 0 47.221 9.91084 468 69.4509 1072.4 562.28
681 0 48.1193 9.33098 449 69.4788 1072.13 562.935
682 1 23.2931 8.15693 190 70.0105 1071.55 573.9
683 0 24.2071 9.12957 221 67.8643 1071.67 575.385
684 0 27.0738 9.38178 254 67.2677 1071.98 573.72
685 0 25.1356 9.03102 227 69.8458 1071.76 573.159
686 0 27.2399 9.141 249 68.1606 1071.73 573.317
687 0 28.063 10.0845 283 67.8375 1071.75 571.081
688 0 29.1117 10.4425 304 67.5099 1071.14 571.237
689 0 29.0689 10.4579 304 68.6382 1071.68 570.855
690 0 29.1757 10.1797 297 69.2559 1071.63 572.801
691 0 31.1561 10.3993 324 69.2685 1071.01 571.654
692 0 30.1936 9.30662 281 70.8363 1071.14 571.431
693 0 32.1308 10.9241 351 68.0769 1071.42 569.709
694 0 32.196 10.2497 330 69.697 1070.88 569.642
695 0 35.2147 9.68345 341 70.0557 1070.64 569.384
696 0 35.2147 9.76864 344 137.39 1069.6 569.41
697 0 35.2931 9.66194 341 71.1202 1070.47 568.026
698 0 36.1985 9.5584 346 71.4855 1070.03 567.309
699 0 39.1691 11.3355 444 69.2027 1070.24 565.948
700 0 40.1818 10.6765 429 69.6946 1069.99 567.438
701 0 42.2082 11.1827 472 68.7945 1069.45 564.468
702 0 42.2139 10.3757 438 71.0137 1069.76 565.167
703 0 43.5623 11.7074 510 69.3941 1069.52 563.969
704 0 46.2253 11.9415 552 70.0145 1069.28 563.103
705 0 46.2619 12.1914 564 69.8599 1069.02 563.709
706 0 45.142 11.918 538 71.8829 1068.71 562.697
707 0 48.2843 11.3701 549 71.9945 1069.05 563.69
708 0 47.2975 12.0514 570 72.2544 1069.03 562.414
709 0 49.224 11.8235 582 79.2354 1068.7 562.751
710 0 52.3411 13.0872 685 82.7139 1068.42 559.99
711 0 53.2813 12.4246 662 84.5483 1068.82 560.219
712 0 53.3338 12.6186 673 85.1679 1068.4 559.19
713 0 56.4432 13.3231 752 83.3856 1068.46 560.378
714 0 57.4042 12.8562 738 85.0041 1068.27 559.652
715 0 58.4689 11.9551 699 87.4707 1068.51 559.655
716 0 60.3088 12.3531 745 87.7826 1068.71 557.733
717 0 60.368 11.6949 706 89.1799 1067.88 558.745
718 0 65.6429 12.5528 824 86.9478 1067.95 556.142
719 0 66.3653 11.7682 781 88.7849 1068.49 556.496
720 0 68.393 12.1357 830 88.8675 1068.44 555.269
721 0 72.3812 13.567 982 87.1589 1068.28 551.61
722 0 74.6025 13.0425 973 87.2826 1068.09 551.721
723 1 40.4182 10.5151 425 89.8871 1067.26 569.134
724 0 41.3693 9.81404 406 89.0911 1066.75 568.975
725 0 45.3168 10.8569 492 87.3354 1066.49 567.724
726 0 45.1283 11.5005 519 85.8902 1066.44 567.476
727 0 45.1069 12.0381 543 86.046 1066.69 566.89
728 0 47.1174 12.0126 566 87.9329 1066.85 566.288
729 0 50.1495 13.2005 662 86.8142 1066.1 563.364
730 0 51.147 13.1386 672 87.2366 1066.52 565.848
731 0 52.1979 13.0657 682 88.2302 1066.47 563.5
732 0 57.2073 14.666 839 84.8367 1067 562.912
733 0 57.1057 14.1667 809 87.115 1066.27 561.475
734 0 57.1786 13.2567 758 90.3034 1066.48 562.136
735 0 60.2081 12.7059 765 89.319 1066.1 563.387
736 0 59.1112 12.8571 760 91.3224 1065.42 561.62
737 0 63.2495 14.4033 911 88.528 1065.75 560.855
738 0 64.3832 14.1031 908 89.6542 1065.59 559.221
739 0 64.2315 13.5915 873 91.4937 1065.75 559.258
740 0 67.2244 13.8938 934 91.2281 1065.55 557.741
741 0 69.2451 12.9973 900 92.4189 1065.7 557.851
742 0 73.2684 13.6075 997 91.1966 1065.83 557.196
743 0 74.2756 13.3422 991 92.5247 1065.52 554.65
744 0 75.289 13.6142 1025 93.2049 1065.94 554.63
745 0 76.3845 13.8903 1061 93.1451 1065.8 553.065
746 0 81.3691 13.322 1084 93.5452 1065.61 552.376
747 0 83.2932 13.5665 1130 93.3894 1065.75 551.723
748 1 44.092 11.7708 519 92.9114 1065.26 569.572
749 0 42.173 10.7652 454 94.0639 1065.51 571.205
750 0 45.1058 10.9964 496 94.1532 1065.93 570.21
751 0 49.0792 11.7973 579 92.7254 1065.93 568.991
752 0 48.2093 13.2547 639 89.6338 1066.29 567.549
753 0 51.1168 12.403 634 92.3533 1065.87 565.976
754 0 52.1575 12.098 631 93.5594 1065.65 565.436
755 0 55.108 13.4826 743 89.8318 1065.38 565.207
756 0 55.1995 12.6632 699 92.3405 1065.11 564.787
757 0 58.1454 12.2796 714 92.6681 1065.44 564.3
758 0 58.2548 12.3767 721 93.9293 1065.39 563.61
759 0 60.2846 12.358 745 92.7477 1065.13 563.25
760 0 61.101 13.6986 837 88.73 1065.38 561.662
761 0 66.2133 12.7467 844 88.2701 1065.65 561.499
762 0 67.3633 13.3901 902 88.3415 1066.27 559.261
763 0 69.2052 13.9007 962 87.4678 1066.06 557.468
764 0 71.3494 12.3757 883 90.2763 1066.09 557.156
765 0 73.5817 13.2914 978 89.09 1065.98 557.353
766 0 75.3961 13.8071 1041 88.3372 1065.63 555.956
767 0 79.421 13.2333 1051 89.1189 1065.61 555.893
768 0 83.4469 14.3564 1198 86.3364 1065.44 555.329
769 0 83.2145 13.5553 1128 89.1755 1065.43 551.587
770 0 86.3644 12.922 1116 87.8271 1065.02 551.045
771 0 87.3093 13.4923 1178 87.6579 1065.57 548.166
772 0 87.3093 13.5152 1180 141.05 1065.56 548.145
773 0 93.5142 12.0623 1128 88.9459 1065.01 550.547
774 0 96.3079 13.2907 1280 88.7414 1065.58 544.617
775 0 100.493 13.2944 1336 88.8278 1065.76 546.237
776 0 103.203 12.9647 1338 89.9126 1065.66 545.711
777 0 109.294 13.4865 1474 89.5577 1065.57 543.245
778 0 111.267 13.0947 1457 89.9458 1065.4 540.519
779 1 62.1177 12.1543 755 89.8437 1065.42 565.784
780 0 64.123 14.3162 918 77.5545 1065.62 561.824
781 0 64.212 13.2063 848 79.9163 1065.73 563.34
782 0 66.3029 13.8908 921 80.0109 1065.51 560.009
783 0 68.2302 13.7769 940 81.8298 1065.2 559.041
784 0 71.3646 13.6062 971 82.6931 1065.79 557.797
785 0 74.3259 14.2212 1057 82.3794 1065.76 556.312
786 0 77.2454 14.7582 1140 82.1307 1065.75 555.863
787 0 80.3649 14.3222 1151 83.987 1065.54 554.167
788 0 82.1217 14.0401 1153 85.2021 1066.03 553.416
789 0 86.2074 14.1055 1216 85.801 1066.73 550.306
790 0 89.4132 14.1478 1265 85.7739 1066.88 550.466
791 0 90.4003 13.8274 1250 87.5496 1067.5 546.687
792 0 93.3152 14.0813 1314 88.1697 1067.09 545.605
793 0 99.3827 14.7812 1469 87.194 1067.34 544.732
794 1 52.5453 11.4187 600 91.52 1066.74 566.655
795 0 52.2761 13.0653 683 90.0015 1066.66 564.982
796 0 55.2026 14.4377 797 88.8733 1067.15 562.892
797 0 55.3652 13.3658 740 91.6122 1066.82 563.636
798 0 58.402 14.6399 855 80.393 1067.12 560.053
799 0 60.484 14.2352 861 81.4274 1067.09 559.848
800 0 62.4979 13.9525 872 81.5172 1067.33 558.624
801 0 65.396 14.7257 963 80.2825 1067.62 557.891
802 0 66.4263 13.9102 924 81.7154 1067.62 555.69
803 0 69.2638 13.6724 947 82.2809 1067.76 555.499
804 0 71.2797 15.1516 1080 80.5843 1067.83 556.01
805 0 72.4874 13.961 1012 82.9565 1067.9 553.007
806 0 75.3091 13.5575 1021 83.2605 1068.54 552.109
807 0 77.6353 14.3363 1113 82.6748 1068.53 549.997
808 0 81.5366 14.055 1146 83.3709 1068.54 548.191
809 0 83.2703 13.4021 1116 84.3369 1068.54 549.43
810 0 87.1611 13.1251 1144 85.417 1069.02 547.353
811 0 91.3209 14.7502 1347 82.7446 1069.62 546.579
812 0 93.3885 13.9418 1302 84.8395 1069.9 543.923
813 1 48.214 11.4075 550 86.7491 1069.54 564.611
814 0 52.1209 11.3582 592 85.0777 1069.59 565.965
815 0 53.1924 13.611 724 83.511 1069.62 564.069
816 0 52.1395 11.6035 605 86.7025 1069.33 564.909
817 0 56.3104 13.9228 784 83.3099 1069.27 563.267
818 0 56.3089 12.8221 722 85.446 1069.23 561.276
819 0 59.2108 12.6328 748 85.1992 1069.7 562.36
820 0 61.4499 13.1652 809 84.7998 1069.52 560.714
821 0 63.1264 12.4195 784 85.5829 1069.67 559.258
822 0 64.2957 13.0957 842 86.0154 1069.71 555.124
823 0 67.1991 12.4704 838 86.9797 1069.43 555.326
824 0 69.3857 14.3113 993 84.3625 1069.39 555.435
825 0 70.4357 13.019 917 84.9553 1069.83 554.48
826 0 73.2878 14.5863 1069 83.1001 1069.43 554.835
827 0 77.214 13.21 1020 85.052 1069.23 551.978
828 0 79.4005 13.1233 1042 85.9395 1069.18 550.342
829 0 81.2498 14.1539 1150 84.5183 1069.56 549.94
830 0 83.3729 13.5656 1131 84.9867 1069.21 547.698
831 0 87.2511 13.7534 1200 83.8742 1069.44 547.102
832 1 46.1415 12.9818 599 83.4307 1068.26 566.242
833 0 50.1209 12.6095 632 83.193 1068.24 563.063
834 0 50.049 11.3888 570 85.0526 1068.76 563.296
835 0 52.1752 11.7872 615 85.4065 1068.81 563.408
836 0 52.088 11.0966 578 103.173 1069.05 560.334
837 0 55.0505 12.207 672 99.5491 1069.31 559.805
838 0 59.1068 12.6889 750 95.504 1068.91 560.7
839 0 59.1354 12.8519 760 95.2737 1069.09 558.466
840 0 62.1081 13.2028 820 92.5598 1068.97 557.909
841 0 64.1386 13.5956 872 91.2718 1068.98 555.739
842 0 67.1921 13.8409 930 88.5957 1068.68 556.141
843 0 69.2239 13.5214 936 84.0855 1068.66 557.714
844 0 71.2313 13.1824 939 85.1523 1068.66 553.408
845 0 74.0637 14.15 1048 83.1956 1068.48 554.085
846 0 74.1023 12.2668 909 86.6799 1068.42 550.959
847 0 78.2583 13.3915 1048 84.3779 1067.65 550.586
848 0 80.188 12.6453 1014 85.0523 1067.85 548.805
849 0 83.2442 12.0849 1006 85.7018 1067.48 548.48
850 0 85.2538 13.3601 1139 84.2291 1067.56 548.403
851 0 90.2996 13.2559 1197 83.7101 1068.08 546.478
852 0 91.2564 12.7881 1167 85.0814 1067.81 542.079
853 1 47.2129 10.9292 516 83.4225 1067.26 563.921
854 0 50.078 11.6818 585 81.2667 1067.31 565.022
855 0 50.1213 12.9685 650 80.1323 1067.25 565.406
856 0 53.2799 11.6742 622 80.9775 1067.54 564.863
857 0 52.2258 12.446 650 81.4077 1068.37 562.789
858 0 54.1615 12.9428 701 80.6177 1068.18 561.85
859 0 58.173 11.9643 696 81.2112 1067.92 562.27
860 0 59.1526 13.2538 784 79.7015 1067.77 560.852
861 0 62.1845 14.5213 903 77.7874 1067.18 561.992
862 0 63.0907 11.5548 729 81.6255 1067.32 561.151
863 0 63.1792 11.9976 758 83.4776 1067.5 557.488
864 0 67.2328 12.3749 832 84.0048 1067.19 556.732
865 0 67.2434 12.9232 869 86.6893 1066.44 555.923
866 0 70.1601 12.728 893 92.71 1066.47 556.639
867 0 72.2056 12.6306 912 94.545 1065.96 553.321
868 0 73.1726 12.614 923 96.4334 1066.39 554.202
869 0 75.2082 12.605 948 98.1255 1066.21 553.338
870 0 76.1621 13.0642 995 99.3106 1066.01 550.403
871 0 81.0826 11.9384 968 100.503 1066.31 551.589
872 0 82.0691 11.2344 922 101.266 1066.25 550.778
873 0 86.2738 12.2169 1054 101.566 1066.69 546.839
874 0 88.2755 11.5661 1021 102.711 1065.76 547.876
875 0 92.2332 14.214 1311 99.8276 1066.19 545.001
876 0 94.1613 12.298 1158 103.402 1065.97 543.135
877 0 96.184 11.7795 1133 102.071 1065.58 541.774
878 1 51.1338 11.9686 612 90.7337 1066.29 564.732
879 0 54.1051 12.1985 660 71.6591 1065.72 564.545
880 0 56.0914 12.854 721 68.7254 1065.95 564.021
881 0 57.103 12.5037 714 68.3515 1065.86 564.608
882 0 59.0736 12.459 736 67.9837 1066.08 560.849
883 0 61.0752 12.9513 791 66.2971 1065.54 560.637
884 0 61.0674 11.168 682 67.4912 1065.99 561.217
885 0 62.1121 12.735 791 65.0759 1065.49 560.336
886 0 64.0899 12.6853 813 63.9803 1065.35 558.727
887 0 67.1186 12.9621 870 63.3655 1065.25 558.389
888 0 68.1076 12.0545 821 63.8819 1065.9 557.614
889 0 68.0367 12.3463 840 64.5536 1066.01 555.593
890 0 74.0613 12.5437 929 63.5759 1065.97 552.971
891 0 74.1114 12.1574 901 65.2619 1066.36 552.514
892 0 76.0649 12.1344 923 64.5515 1066.93 551.203
893 0 78.0333 12.8791 1005 63.5204 1067.09 550.979
894 0 84.0748 12.4651 1048 62.855 1067.11 549.353
895 0 83.1792 12.431 1034 64.4217 1067.93 545.654
896 0 86.1329 12.7942 1102 63.8149 1067.93 543.245
897 1 46.0218 9.5607 440 64.5386 1068.06 565.745
898 0 46.0509 9.90208 456 64.3026 1067.77 566.02
899 0 49.0739 11.2483 552 62.8967 1068.28 563.382
900 0 49.0707 11.7585 577 62.6707 1068.04 563.343
901 0 54.0542 12.395 670 61.5284 1067.93 563.313
902 0 54.1049 11.5701 626 63.5607 1068.42 562.257
903 0 54.0627 11.5792 626 64.2236 1068.34 560.585
904 0 55.063 11.4414 630 65.0048 1068.83 560.168
905 0 57.1189 12.7103 726 62.6322 1069.07 560.738
906 0 57.1898 12.1875 697 64.4476 1069.22 557.799
907 0 59.1897 11.4209 676 64.4837 1069.04 558.54
908 0 63.0561 12.5761 793 62.826 1069.23 556.895
909 0 64.0987 13.1828 845 62.5254 1069.2 555.972
910 0 64.0984 12.4028 795 64.2038 1069.75 555.516
911 0 67.2056 13.5256 909 62.2013 1069.55 553.82
912 0 69.1963 13.0354 902 63.459 1069.65 551.257
913 0 71.1151 12.993 924 63.2294 1069.55 551.6
914 0 74.2355 12.7163 944 63.7097 1069.67 550.461
915 0 76.1618 14.0228 1068 62.6498 1070.29 550.26
916 0 77.3467 13.0839 1012 64.0514 1070.7 548.797
917 0 78.2489 13.521 1058 63.6881 1070.56 546.809
918 0 82.2581 13.6643 1124 63.4867 1070.74 544.94
919 0 85.3296 13.7115 1170 63.4957 1070.79 542.762
920 0 89.3193 12.7968 1143 64.4304 1070.87 543.833
921 1 47.0857 10.9375 515 63.7107 1070.12 564.581
922 0 48.1496 10.7374 517 64.0948 1070.16 564.052
923 0 50.0985 11.0782 555 63.9532 1070.61 562.258
924 0 52.0266 12.0323 626 62.4888 1071.23 561.848
925 0 53.0231 11.693 620 62.9758 1071.05 562.019
926 0 52.1623 12.1352 633 63.6414 1071.59 560.445
927 0 55.1357 12.8592 709 61.9422 1071.01 560.142
928 0 60.1829 11.598 698 62.798 1071.57 558.746
929 0 60.2172 12.8701 775 62.0465 1071.73 558.423
930 0 62.2609 13.2668 826 61.3571 1071.47 556.211
931 0 64.2042 13.8776 891 60.8721 1071.29 554.976
932 0 65.1363 13.2799 865 61.8948 1071.11 555.79
933 0 66.1034 13.8117 913 61.6101 1070.8 554.564
934 0 67.2031 13.1839 886 62.7336 1070.96 551.514
935 0 72.1068 12.8421 926 62.3413 1070.63 552.245
936 0 71.1079 12.7131 904 63.76 1071.01 550.967
937 0 76.1008 13.1405 1000 62.528 1070.89 550.986
938 0 78.0908 13.1257 1025 63.1912 1070.74 549.368
939 0 81.1793 13.8829 1127 62.1553 1070.28 548.516
940 1 43.0399 10.0604 433 64.2841 1069.82 567.598
941 0 44.0928 10.614 468 64.5598 1069.4 565.932
942 0 46.0578 10.4651 482 64.1722 1069.57 565.836
943 0 48.0717 11.7949 567 63.3016 1069.33 564.503
944 0 51.0295 12.189 622 62.5289 1068.92 562.957
945 0 49.0487 11.8046 579 65.1434 1068.86 562.661
946 0 53.0347 12.6332 670 62.8299 1069.22 561.452
947 0 56.0871 11.8744 666 63.9715 1069.2 560.541
948 0 55.1879 12.7564 704 64.0597 1069.29 559.551
949 0 57.0906 13.4523 768 62.7214 1069.46 557.388
950 0 61.1182 13.1221 802 61.6534 1068.94 560.085
951 0 61.1123 13.3197 814 62.6904 1068.59 557.241
952 0 62.1047 12.3984 770 64.1468 1068.29 558.562
953 0 62.1153 12.2675 762 65.168 1068.86 557.173
954 0 67.2047 12.2164 821 64.5359 1068.66 556.019
955 0 67.2047 12.2164 821 159.786 1067.67 556.093
956 0 69.0475 12.4262 858 65.5559 1069.06 551.549
957 0 71.1191 13.9766 994 62.7958 1068.85 551.748
958 0 73.1256 12.4307 909 64.6392 1068.91 551.385
959 0 75.1263 13.5505 1018 62.9411 1068.75 549.295
960 0 78.1012 13.3801 1045 62.9455 1068.46 549.745
961 0 78.1012 13.3929 1046 150.852 1068.46 549.737
962 0 82.2036 12.4934 1027 63.6125 1068.55 547.28
963 1 43.0674 9.72893 419 63.8759 1068.79 567.73
964 0 46.0392 11.2296 517 61.9903 1068.9 567.315
965 0 46.1749 11.3482 524 60.9981 1068.56 567.468
966 0 46.1616 11.7847 544 61.8309 1068.48 565.546
967 0 47.0966 11.5507 544 60.9449 1068.7 565.004
968 0 50.1318 12.0682 605 60.5041 1068.6 563.965
969 0 50.0445 12.0093 601 61.0649 1067.34 563.261
970 0 52.1248 12.7003 662 59.7764 1067.6 563.844
971 0 55.0251 13.4302 739 58.9026 1067.61 561.797
972 0 55.0548 12.4058 683 60.4978 1067.81 560.518
973 0 56.0757 12.4296 697 60.5352 1067.61 561.283
974 0 60.0306 13.4098 805 58.9528 1067.82 559.811
975 0 61.0902 12.9317 790 59.8443 1067.64 558.27
976 0 63.0938 12.9331 816 59.75 1067.56 557.279
977 0 65.1009 13.6865 891 58.9618 1067.1 556.11
978 0 67.0512 13.1094 879 59.3333 1067.02 556.115
979 0 69.0795 12.6087 871 60.814 1066.67 556.125
980 0 71.0804 12.9431 920 60.5576 1066.85 555.716
981 0 73.2572 13.4867 988 59.9049 1066.85 553.062
982 0 74.0877 13.2006 978 61.0992 1066.66 552.732
983 0 75.1671 13.1574 989 62.2538 1066.26 551.022
984 0 80.1052 13.5447 1085 61.1088 1066.53 550.739
985 0 82.1526 13.8644 1139 60.986 1066.77 549.57
986 0 85.1103 14.1933 1208 60.7955 1066.51 548.942
987 0 88.222 14.5655 1285 60.4304 1066.24 548.819
988 0 88.2284 14.0544 1240 62.079 1066.52 546.131
989 0 92.2007 13.9478 1286 62.2978 1066.58 544.916
990 0 95.1933 14.5283 1383 61.9516 1066.94 543.185
991 0 98.3178 13.7005 1347 63.0468 1066.33 542.903
992 0 100.173 14.3252 1435 62.8397 1066.29 539.951
993 0 102.35 14.3722 1471 63.0571 1065.99 539.111
994 0 105.18 13.5673 1427 64.4233 1066.31 539.804
995 1 57.1528 11.3905 651 64.6728 1066 564.596
996 0 57.1266 12.446 711 64.6174 1066.32 563.331
997 0 60.0828 11.4841 690 65.2377 1066.06 562.816
998 0 61.0848 12.7364 778 64.7134 1066.13 560.422
999 0 66.0926 13.6324 901 63.0011 1066.31 558.935
1000 0 64.0956 11.9821 768 66.2122 1066.98 559.456
1001 0 66.0655 12.972 857 64.9183 1066.86 559.531
1002 0 69.1107 13.6014 940 64.1638 1066.64 558.043
1003 0 70.1021 12.7528 894 65.9385 1066.71 557.199
1004 0 72.1629 13.8298 998 64.6703 1066.56 555.63
1005 0 74.1548 13.9843 1037 64.8611 1066.41 555.15
1006 0 76.2572 13.743 1048 65.5487 1066.42 554.11
1007 0 80.0946 13.6214 1091 65.3181 1066.46 553.33
1008 0 83.0952 13.7072 1139 65.6989 1066.48 550.11
1009 0 86.2273 13.6732 1179 65.4716 1066.63 549.92
1010 0 88.2204 13.2736 1171 66.4714 1066.74 547.823
1011 0 92.1634 13.845 1276 66.8276 1066.89 545.647
1012 0 95.1831 13.4688 1282 67.5967 1066.76 545.67
1013 1 49.1282 10.2792 505 69.0832 1066.42 568.055
1014 0 50.1824 10.6013 532 69.5808 1066.53 567.712
1015 0 52.1363 11.9303 622 67.5096 1066.26 565.302
1016 0 54.184 12.1253 657 67.1553 1066.42 565.192
1017 0 55.1888 11.8865 656 67.6692 1066.73 564.848
1018 0 57.1668 12.3323 705 66.7404 1066.74 564.377
1019 0 58.121 12.4568 724 66.9434 1066.76 562.446
1020 0 61.1262 12.1715 744 66.9355 1066.65 562.718
1021 0 63.0313 11.5974 731 67.4063 1067.17 561.097
1022 0 62.0904 11.9825 744 67.832 1067.23 558.659
1023 0 67.089 12.2971 825 66.5212 1067.63 558.682
1024 0 68.1911 13.5355 923 65.3055 1067.63 556.979
1025 0 70.1046 13.2659 930 65.7183 1067.59 557.26
1026 0 72.1212 12.7424 919 66.1295 1067.76 555.482
1027 0 75.1081 12.462 936 66.0224 1067.48 555.429
1028 0 78.3421 13.4921 1057 64.8865 1067.45 552.907
1029 0 79.2071 12.966 1027 66.0672 1067.91 551.957
1030 0 80.3861 13.0993 1053 66.0019 1067.9 551.155
1031 0 85.1586 13.4338 1144 65.66 1067.87 548.92
1032 0 86.3532 13.41 1158 65.5458 1067.82 548.877
1033 0 90.1714 13.2304 1193 66.1442 1068.69 545.997
1034 0 90.1714 13.2304 1193 159.775 1069.69 545.961
1035 1 49.0526 11.7017 574 66.007 1068.63 567.51
1036 0 50.0711 11.0643 554 67.2401 1068.62 565.413
1037 0 52.083 11.9425 622 66.508 1069.91 564.563
1038 0 52.0443 11.6824 608 67.5329 1069.69 561.48
1039 0 56.0184 13.4956 756 64.623 1069.84 562.279
1040 0 58.1651 12.8599 748 65.3182 1069.84 560.933
1041 0 59.0531 12.7004 750 66.2333 1070.05 559.375
1042 0 62.1484 13.146 817 65.3097 1070.39 559.7
1043 0 62.157 13.2889 826 65.9915 1070.21 558.678
1044 0 64.102 12.7921 820 66.5866 1070.47 557.578
1045 0 66.0713 13.7125 906 65.7406 1070.68 557.765
1046 0 68.1093 13.5077 920 65.1543 1071.14 557.003
1047 0 69.0884 12.6505 874 67.0572 1070.81 555.23
1048 0 74.107 13.2241 980 65.3949 1070.69 554.187
1049 0 75.1006 13.5951 1021 65.3663 1070.82 552.831
1050 0 78.0886 13.6768 1068 65.5543 1070.63 550.449
1051 0 79.246 11.8744 941 69.0861 1070.94 548.753
1052 0 82.0732 13.3174 1093 67.548 1071.54 545.272
1053 0 87.1586 14.5023 1264 65.129 1071.41 544.55
1054 1 45.0583 10.3421 466 69.7918 1071.31 564.079
1055 0 47.086 10.8312 510 69.1176 1071.4 565.404
1056 0 48.0925 12.0601 580 68.7017 1071.06 563.824
1057 0 50.1498 13.0808 656 66.5732 1070.95 563.791
1058 0 53.0768 12.9623 688 66.8183 1070.82 564.346
1059 0 54.1402 12.6339 684 67.9591 1071.37 562.456
1060 0 54.2108 13.3737 725 67.1834 1071.07 561.543
1061 0 55.2219 13.2918 734 67.6744 1071.44 560.396
1062 0 56.1122 12.475 700 68.9614 1070.95 560.757
1063 0 60.1757 12.5134 753 68.5046 1071.19 558.983
1064 0 60.2275 13.7645 829 67.1665 1070.91 556.592
1065 0 63.225 12.8272 811 68.1615 1071.17 556.131
1066 0 65.2145 13.1566 858 67.5058 1071.12 555.864
1067 0 68.2111 14.0007 955 66.3738 1070.82 556.015
1068 0 69.2805 12.9041 894 68.7125 1070.95 553.71
1069 0 69.2855 12.9897 900 69.16 1070.97 553.81
1070 0 72.1796 13.12 947 69.1732 1070.62 551.879
1071 0 74.1178 12.4127 920 70.9337 1070.76 548.809
1072 0 76.1501 13.4997 1028 68.7704 1070.93 549.377
1073 0 81.2393 12.8017 1040 69.5317 1070.87 547.8
1074 0 83.232 13.3002 1107 69.0262 1071.04 545.39
1075 1 43.1247 10.8986 470 69.1553 1071.4 566.711
1076 0 45.0945 10.4669 472 69.5297 1070.74 566.343
1077 0 46.0434 10.7073 493 71.0142 1070.78 566.016
1078 0 49.0646 11.9231 585 68.5094 1070.59 565.4
1079 0 49.0551 12.1904 598 70.0769 1069.54 565.475
1080 0 50.0704 11.9432 598 71.2291 1069.36 564.065
1081 0 52.0583 13.2928 692 69.2746 1069.66 563.351
1082 0 52.1514 12.9431 675 70.3719 1069.67 562.844
1083 0 56.1767 13.4575 756 68.8029 1069.44 562.224
1084 0 57.1765 13.3272 762 69.21 1069.63 561.475
1085 0 59.2274 13.2709 786 69.5751 1069.54 560.272
1086 0 61.0666 12.8712 786 70.4542 1069.9 558.408
1087 0 62.1304 12.3933 770 70.8156 1069.72 558.099
1088 0 63.0882 13.6634 862 69.7958 1069.76 557.282
1089 0 65.0376 13.5306 880 70.1102 1069.72 555.991
1090 0 68.1265 13.8125 941 69.1392 1069.15 554.507
1091 0 70.0602 13.9166 975 68.6523 1069.8 555.741
1092 0 70.0416 12.9352 906 71.0475 1070.19 553.661
1093 0 73.0415 13.5813 992 69.8498 1069.99 552.773
1094 0 77.1026 13.4107 1034 70.0329 1069.91 551.978
1095 0 79.097 13.6668 1081 69.8076 1070.11 549.948
1096 0 83.1483 13.8908 1155 69.1645 1069.9 550.119
1097 0 84.0741 14.1899 1193 68.8382 1069.79 549.108
1098 0 86.0346 14.4825 1246 68.813 1069.91 545.73
1099 0 89.2263 13.3257 1189 70.2935 1069.67 545.04
1100 1 48.1025 10.4153 501 70.7565 1069.21 567.938
1101 0 49.1093 10.4665 514 71.0661 1069.05 566.844
1102 0 50.0382 11.5312 577 69.8769 1068.84 564.553
1103 0 51.107 12.3662 632 68.8623 1068.91 562.37
1104 0 55.191 12.2665 677 68.0325 1068.58 563.236
1105 0 56.0761 12.4474 698 68.5831 1068.75 562.288
1106 0 56.0875 11.9278 669 69.6801 1068.33 561.064
1107 0 59.2094 12.0758 715 68.8448 1068.56 560.691
1108 0 61.1032 12.3725 756 67.4272 1068.34 561.262
1109 0 63.0799 12.9518 817 66.978 1068.51 558.005
1110 0 63.0619 13.352 842 66.8052 1068.09 557.008
1111 0 67.1941 12.7541 857 66.4597 1067.88 558.023
1112 0 69.22 13.3343 923 65.4854 1068.5 556.823
1113 0 71.2635 13.3308 950 65.3147 1068.2 554.717
1114 0 74.3068 13.5788 1009 64.6313 1067.89 553.767
1115 0 75.3466 12.2899 926 66.8337 1067.76 552.199
1116 0 79.1679 13.705 1085 64.3742 1067.54 551.289
1117 0 81.2348 13.4917 1096 65.0465 1067.79 547.906
1118 0 85.334 13.7343 1172 64.0922 1067.59 548.796
1119 0 87.3654 13.4722 1177 64.8394 1067.68 545.494
1120 0 89.3799 12.7769 1142 66.1252 1067.52 546.114
1121 0 91.6591 13.9975 1283 65.2915 1067.72 542.03
1122 0 94.5738 13.1326 1242 66.1779 1067.53 542.165
1123 0 97.4843 13.3355 1300 65.3408 1066.65 540.827
1124 0 99.5092 13.4359 1337 65.2468 1066.71 538.996
1125 1 56.2964 10.7822 607 65.4152 1066.74 563.509
1126 0 56.2964 10.8 608 161.62 1066.73 563.505
1127 0 59.5392 11.7234 698 65.2034 1066.89 560.576
1128 0 61.2467 11.4945 704 65.0852 1066.82 561.641
1129 0 63.2966 12.3387 781 64.6146 1066.77 559.613
1130 0 66.3442 12.4352 825 63.863 1067.28 558.407
1131 0 66.269 12.1625 806 65.1973 1067.24 558.215
1132 0 68.3652 12.6234 863 64.4855 1067.19 556.628
1133 0 70.3671 12.5058 880 64.8477 1067.16 555.008
1134 0 73.5137 12.8547 945 64.819 1067.72 554.126
1135 0 77.4322 13.3536 1034 63.8627 1067.5 551.953
1136 0 77.4389 13.3008 1030 64.4291 1067.4 551.979
1137 0 81.3619 12.3276 1003 66.1396 1067.16 549.549
1138 0 83.2449 13.4543 1120 64.8625 1067.61 548.82
1139 0 86.4236 13.3413 1153 63.9575 1067.53 548.834
1140 0 88.1846 12.814 1130 65.6257 1067.43 547.646
1141 0 92.2092 13.3718 1233 66.1906 1068.23 543.723
1142 1 51.1132 9.5083 486 68.6276 1067.33 567.093
1143 0 53.0469 10.9526 581 67.0275 1067.67 565.234
1144 0 52.0297 10.8015 562 69.0427 1067.67 563.084
1145 0 55.0287 11.2123 617 67.0292 1068.27 563.036
1146 0 58.0166 11.3416 658 66.9514 1068.21 561.977
1147 0 60.0969 12.1637 731 66.1587 1068.75 559.855
1148 0 61.1423 12.7408 779 65.199 1069.2 559.306
1149 0 63.0825 13.2208 834 64.8945 1069.03 557.23
1150 0 65.0635 13.2178 860 64.9919 1069.17 555.337
1151 0 66.0524 13.3076 879 64.5131 1069.24 557.073
1152 0 68.0497 12.8436 874 64.8707 1069.4 554.395
1153 0 71.0894 12.7304 905 64.5227 1069.81 553.316
1154 0 73.1013 13.6796 1000 63.246 1069.79 552.027
1155 0 75.0328 13.3275 1000 63.671 1070.2 551.381
1156 0 77.1825 14.0705 1086 62.8674 1070.92 548.837
1157 0 80.1063 14.0064 1122 62.3601 1071.57 548.512
1158 0 81.0678 11.99 972 64.9825 1071.66 547.869
1159 0 85.1182 13.0994 1115 63.2529 1072.18 546.503
1160 0 88.2219 13.3754 1180 62.8788 1072.66 543.348
1161 0 89.2295 12.6191 1126 63.8046 1072.63 544.253
1162 1 50.1395 11.6874 586 62.3976 1072.77 563.609
1163 0 50.117 11.4931 576 63.4618 1072.88 562.762
1164 0 54.1675 12.1291 657 61.5297 1072.65 562.268
1165 0 57.1147 11.5732 661 62.1271 1072.58 561.144
1166 0 56.1117 12.2791 689 62.537 1072.95 560.08
1167 0 59.0825 13.2019 780 61.1962 1073.41 557.432
1168 0 60.1059 12.2783 738 62.8306 1073.34 557.949
1169 0 61.1502 12.9027 789 62.0063 1073.54 556.573
1170 0 62.2313 12.8553 800 62.53 1073.26 556.436
1171 0 64.1874 13.0244 836 62.1184 1072.98 554.764
1172 0 67.2134 12.7058 854 62.3302 1073.48 554.674
1173 0 70.3181 13.894 977 60.4596 1073.57 553.8
1174 0 71.1655 13.8129 983 61.0946 1073.86 552.981
1175 0 75.1594 13.3982 1007 61.1658 1074.09 551.346
1176 0 74.1645 13.079 970 62.3588 1073.74 550.297
1177 0 76.2337 13.3406 1017 62.4297 1073.65 550.796
1178 0 80.2399 12.6994 1019 63.0834 1073.36 550.547
1179 0 81.1043 13.2792 1077 62.7484 1074.32 547.854
1180 0 84.2204 14.2721 1202 61.6889 1074.25 545.799
1181 0 89.22 14.8621 1326 60.2104 1073.73 544.903
1182 0 89.2222 12.3064 1098 64.4863 1072.89 544.361
1183 0 93.2176 13.0877 1220 63.2828 1073.7 542.578
1184 1 50.2328 11.5064 578 64.3253 1073.4 562.867
1185 0 52.0546 11.5456 601 64.5973 1072.59 561.669
1186 0 53.1694 12.5072 665 63.9729 1073.12 559.904
1187 0 57.0557 11.9182 680 63.7162 1072.87 560.996
1188 0 57.1877 12.9049 738 62.5434 1072.53 560.744
1189 0 59.2705 12.9069 765 63.1072 1072.67 559.063
1190 0 56.1651 11.9469 671 66.0417 1072.86 557.177
1191 0 62.189 13.3947 833 62.9028 1072.47 555.562
1192 0 63.1485 14.7272 930 61.2978 1072.27 555.287
1193 0 67.2013 13.9432 937 61.5261 1071.79 554.784
1194 0 69.2577 14.4533 1001 60.6773 1071.83 554.749
1195 0 71.2221 13.2543 944 62.3093 1071.79 552.381
1196 0 71.2221 13.2543 944 162.242 1071.8 552.34
1197 0 75.216 13.654 1027 61.409 1071.77 549.696
1198 0 77.3615 13.4951 1044 62.0192 1071.66 549.112
1199 0 78.421 12.8537 1008 63.5258 1071.18 545.314
1200 0 81.2298 13.431 1091 62.4024 1071.43 545.396
1201 0 87.3052 14.7758 1290 59.8535 1071.46 544.853
1202 0 87.2938 13.403 1170 62.1872 1071.66 541.698
1203 0 92.3091 13.184 1217 62.1224 1071.26 541.705
1204 0 94.2204 13.8717 1307 61.43 1070.79 538.034
1205 0 96.3219 12.9462 1247 62.7065 1071.22 538.186
1206 0 100.373 13.7885 1384 61.4422 1071.42 537.631
1207 0 103.182 13.7621 1420 61.6775 1071.68 534.305
1208 0 106.218 13.8959 1476 61.1741 1071.08 529.287
1209 1 60.2893 11.8595 715 60.807 1070.97 556.585
1210 0 59.35 11.8113 701 60.7061 1071.14 556.516
1211 0 65.3526 12.8381 839 58.8105 1070.74 554.477
1212 0 64.1841 12.246 786 59.9822 1070.51 553.724
1213 0 64.1885 12.1984 783 164.728 1071.5 553.602
1214 0 70.2591 13.5498 952 57.9769 1069.86 549.07
1215 0 71.3812 12.062 861 59.4762 1069.8 549.555
1216 0 74.2252 13.1896 979 58.4842 1069.83 547.465
1217 0 77.2371 12.4681 963 59.0935 1069.49 546.141
1218 0 79.3684 12.6751 1006 58.4841 1069.66 546.919
1219 0 84.3962 12.8323 1083 57.7821 1069.72 545.458
1220 0 84.1679 12.2137 1028 59.2344 1069.35 544.575
1221 0 87.2236 13.1386 1146 57.8717 1069.26 542.623
1222 0 92.1526 13.9985 1290 56.2907 1069.19 540.885
1223 0 95.284 13.6119 1297 56.5821 1069.06 539.382
1224 0 98.2309 14.1096 1386 55.5433 1068.97 538.765
1225 0 101.192 13.4596 1362 56.5228 1068.62 537.223
1226 0 105.169 13.5972 1430 56.414 1068.96 535.097
1227 0 107.248 13.0725 1402 56.831 1068.52 533.665
1228 0 110.207 12.8939 1421 56.9937 1068.46 532.379
1229 1 61.0807 10.1505 620 57.5661 1068.01 557.948
1230 0 62.1566 10.5701 657 57.1857 1068.58 556.411
1231 0 65.0954 11.9056 775 55.1677 1068.61 556.781
1232 0 66.1496 10.703 708 56.9294 1068.23 556.244
1233 0 69.2718 13.1944 914 54.4004 1067.98 553.224
1234 0 69.076 12.6093 871 55.6808 1067.72 553.496
1235 0 72.1558 12.3483 891 55.9158 1067.62 552.097
1236 0 77.0936 13.555 1045 53.7923 1067.99 552.168
1237 0 78.1793 13.7888 1078 53.7328 1068.08 551.265
1238 0 81.1864 12.5391 1018 55.499 1067.96 547.074
1239 0 84.1249 13.5156 1137 54.058 1067.83 546.756
1240 0 86.0725 14.36 1236 53.5712 1067.87 545.239
1241 0 89.1945 13.8013 1231 54.0414 1067.68 545.894
1242 0 90.1894 12.4294 1121 55.5674 1067.54 545.459
1243 0 94.1368 12.8961 1214 55.4217 1067.26 542.23
1244 0 95.173 12.367 1177 56.3093 1066.98 540.467
1245 0 100.171 12.7881 1281 55.8025 1067.4 539.251
1246 0 102.184 13.9063 1421 54.6636 1067.37 536.844
1247 0 107.486 13.0157 1399 55.5132 1066.92 532.825
1248 1 53.0628 7.72669 410 59.7732 1066.83 560.229
1249 0 58.173 11.0017 640 56.5359 1067.25 558.184
1250 0 60.2442 11.5696 697 56.538 1067.86 557.488
1251 0 62.3024 11.9899 747 56.2182 1067.96 557.454
1252 0 62.2304 11.3449 706 57.2096 1068.31 558.292
1253 0 64.146 13.251 850 55.8929 1067.92 555.188
1254 0 68.2096 12.9161 881 56.025 1068.72 553.565
1255 0 70.1276 12.9478 908 55.8062 1068.19 552.983
1256 0 69.2029 11.5458 799 58.2103 1068.62 550.922
1257 0 73.2237 13.37 979 55.7446 1069.28 550.097
1258 0 74.292 13.0566 970 56.6289 1069.08 551.878
1259 0 78.3693 13.5768 1064 55.4887 1069.5 549.252
1260 0 79.3482 12.6531 1004 56.6106 1069.28 548.219
1261 0 84.2453 14.1492 1192 54.526 1069.74 547.049
1262 0 86.5126 14.0211 1213 55.0231 1069.58 545.373
1263 1 47.3701 10.9985 521 57.3743 1069.39 563.129
1264 0 47.225 11.3711 537 56.0968 1069.74 565.263
1265 0 50.2688 10.7423 540 57.3426 1069.59 563.48
1266 0 51.2312 10.1306 519 56.9114 1070.25 563.59
1267 0 52.3955 12.0048 629 55.973 1070.4 560.816
1268 0 55.2672 12.2134 675 55.4681 1071.13 558.396
1269 0 57.2323 11.4795 657 56.621 1071.45 558.737
1270 0 60.1564 12.1184 729 55.9561 1070.78 558.661
1271 0 60.1136 12.5928 757 56.5178 1071.03 555.256
1272 0 62.1832 13.4281 835 55.0287 1071.65 555.51
1273 0 64.222 12.9239 830 55.6783 1072.39 554.18
1274 0 65.136 12.7272 829 56.2292 1072.17 552.858
1275 0 68.2739 12.5963 860 55.7744 1072.83 552.623
1276 0 69.1848 13.1098 907 55.484 1073.13 551.363
1277 0 71.1609 12.8722 916 55.5371 1073.49 548.633
1278 0 73.4127 13.8804 1019 54.5976 1073.6 547.628
1279 0 76.305 13.066 997 55.3681 1073.27 546.484
1280 0 78.3142 13.4841 1056 55.5388 1073.03 545.069
1281 0 84.3168 14.6471 1235 53.0372 1073.55 546.832
1282 1 44.1811 10.7738 476 55.2038 1073.98 564.25
1283 0 46.4397 10.8528 504 55.0258 1074.19 564.313
1284 0 46.1611 11.2432 519 54.6647 1074.71 564.154
1285 0 50.0768 11.3825 570 54.5316 1073.64 562.821
1286 0 48.1853 11.3313 546 56.2344 1073.71 562.099
1287 0 52.133 13.0436 680 53.8132 1073.88 561.753
1288 0 52.1875 12.3593 645 55.2202 1073.67 560.628
1289 0 54.1345 12.9492 701 54.2896 1073.94 559.153
1290 0 55.2581 13.7717 761 53.9553 1073.87 557.218
1291 0 58.2287 12.6226 735 54.6517 1074.25 557.377
1292 0 57.2818 12.6567 725 55.3697 1074.12 554.819
1293 0 60.2327 13.3648 805 54.113 1074.37 552.831
1294 0 62.2394 12.8054 797 54.4128 1074.52 553.394
1295 0 64.1951 12.5711 807 55.026 1074.4 553.14
1296 0 66.1946 13.0071 861 54.5796 1074.16 552.272
1297 0 69.219 13.2045 914 54.3457 1074.22 551.322
1298 0 70.0921 13.4823 945 54.7704 1074.08 549.92
1299 0 71.2734 13.5955 969 54.9092 1074.57 546.275
1300 0 74.1976 13.1136 973 55.3083 1074 545.818
1301 0 77.3352 13.3962 1036 55.2278 1073.83 544.653
1302 0 80.4331 13.4522 1082 55.658 1073.8 543.018
1303 0 83.304 13.9369 1161 54.5805 1074.1 544.079
1304 0 83.229 12.3995 1032 56.8488 1073.57 540.947
1305 0 87.4171 13.0066 1137 55.8004 1073.7 539.002
1306 0 91.3873 12.9559 1184 56.8919 1073.51 539.517
1307 0 92.3508 12.42 1147 57.4028 1073.5 537.885
1308 0 97.4514 13.5042 1316 56.0904 1073.66 537.871
1309 0 100.61 13.4281 1351 56.604 1073.4 534.6
1310 1 51.5234 9.97605 514 58.0661 1073.56 561.327
1311 0 53.4395 11.8452 633 57.0885 1073.25 558.678
1312 0 55.329 11.7841 652 55.6058 1073.89 558.917
1313 0 57.0339 12.8871 735 55.181 1072.13 560.94
1314 0 57.0636 12.7577 728 56.3736 1072.25 556.08
1315 0 60.1339 13.2704 798 55.3759 1072.17 557.393
1316 0 60.18 13.0608 786 56.2405 1071.61 561.941
1317 0 62.443 13.0039 812 56.3805 1071.91 559.156
1318 0 63.1313 12.672 800 57.29 1071.76 557.664
1319 0 68.0463 11.3305 771 57.0169 1071.36 561.069
1320 0 68.2103 12.5201 854 57.534 1071.6 554.283
1321 0 69.1839 12.1271 839 59.006 1071.17 551.371
1322 0 70.1317 13.1039 919 57.4733 1071.31 551.383
1323 0 72.4661 13.1924 956 57.4456 1071.36 549.604
1324 0 72.4661 13.1924 956 159.203 1072.36 549.604
1325 0 77.2143 12.8862 995 57.404 1070.99 548.601
1326 0 81.4796 12.9603 1056 56.8741 1071.14 547.188
1327 0 83.2776 12.9807 1081 57.0833 1070.67 545.517
1328 0 85.2697 12.7947 1091 57.1412 1070.73 546.709
1329 0 89.2349 13.1787 1176 56.875 1070.52 544.643
1330 0 91.3568 13.5294 1236 56.5688 1070.59 543.154
1331 0 93.2198 12.2292 1140 58.2684 1070.36 542.675
1332 0 98.2699 12.7302 1251 56.797 1070.19 538.197
1333 0 98.3693 12.6056 1240 56.9298 1070.52 539.452
1334 0 101.298 13.3665 1354 58.4453 1071.31 536.977
1335 0 105.407 14.8567 1566 55.961 1071.04 536.541
1336 0 110.348 14.1642 1563 56.5605 1071.09 533.232
1337 1 57.1163 12.3082 703 56.8834 1069.82 561.841
1338 0 59.1467 12.6127 746 56.2761 1070.27 561.228
1339 0 60.1097 12.0946 727 56.8088 1070.31 559.678
1340 0 63.1061 12.4077 783 55.636 1069.95 560.511
1341 0 66.1486 12.3056 814 55.6597 1070.12 559.472
1342 0 68.18 13.2737 905 54.4497 1070.2 555.214
1343 0 71.0928 12.8986 917 54.8103 1069.74 554.902
1344 0 72.1194 12.0633 870 55.4287 1069.33 556.464
1345 0 75.0696 12.2153 917 55.6609 1069.32 554.072
1346 0 78.1546 12.7824 999 55.0821 1068.96 552.565
1347 0 81.128 13.3986 1087 54.276 1069.07 550.715
1348 0 84.188 12.9116 1087 55.1868 1069.07 549.296
1349 0 84.1459 11.6227 978 56.9714 1069.16 548.262
1350 0 88.1588 12.4888 1101 56.2943 1069.16 544.012
1351 0 89.3701 12.5098 1118 56.4839 1068.7 544.249
1352 1 48.0246 11.744 564 55.7128 1068.44 567.521
1353 0 48.0663 11.7754 566 56.6572 1067.6 567.198
1354 0 48.0499 12.2373 588 56.5714 1067.13 566.905
1355 0 51.0943 12.6237 645 55.6837 1067.29 566.132
1356 0 50.0346 12.1716 609 57.619 1066.51 565.91
1357 0 54.106 12.2537 663 56.7526 1066.31 566.673
1358 0 55.091 13.4505 741 55.9069 1066.46 565.468
1359 0 57.0516 12.3222 703 57.5121 1066.26 564.576
1360 0 57.0685 12.7391 727 57.3741 1066.25 563.674
1361 0 59.0557 13.3264 787 56.5248 1066.39 562.356
1362 0 60.0627 12.8699 773 58.2135 1066.36 561.823
1363 0 62.0544 12.908 801 57.7878 1066.57 561.477
1364 0 62.1581 12.3234 766 59.0117 1066.58 561.491
1365 0 66.0842 12.8018 846 58.6253 1066.42 559.946
1366 0 66.0832 13.8159 913 57.5476 1066.35 559.682
1367 0 69.1196 14.3375 991 56.8042 1066.5 558.41
1368 0 70.1473 12.8444 901 58.8302 1066.14 557.529
1369 0 72.1727 13.3153 961 58.3059 1066.63 559.639
1370 0 74.1568 13.458 998 58.2986 1066.37 556.876
1371 0 75.2311 13.0797 984 59.0722 1066.42 555.255
1372 0 79.2411 13.806 1094 58.0777 1066.39 555.295
1373 0 79.2754 12.8791 1021 60.1234 1066.7 554.692
1374 0 81.1829 13.7221 1114 59.3528 1066.86 551.09
1375 0 84.2977 13.1676 1110 59.8505 1066.43 551.051
1376 0 86.1491 12.0721 1040 61.1856 1066.35 551.327
1377 0 90.1824 13.1733 1188 59.7921 1066.52 549.149
1378 1 51.2038 10.0188 513 60.3977 1066.19 569.579
1379 0 54.171 9.74691 528 60.5814 1066.66 567.545
1380 0 55.2362 11.5504 638 59.3574 1067.24 562.962
1381 0 57.194 12.9559 741 57.3657 1067.39 562.155
1382 0 59.5042 12.7218 757 56.0462 1067.38 562.4
1383 0 60.1728 13.0624 786 56.3677 1066.88 563.56
1384 0 62.2347 12.1476 756 58.6587 1067.48 564.086
1385 0 64.2793 13.1613 846 58.1525 1067.43 562.015
1386 0 65.2562 13.1329 857 58.6418 1067.05 561.41
1387 0 69.3629 13.2924 922 57.8297 1066.77 560.584
1388 0 69.2696 13.4836 934 58.333 1066.86 559.379
1389 0 72.1359 13.5577 978 58.0982 1067.13 556.506
1390 0 72.3414 12.9248 935 59.7369 1067.24 556.804
1391 0 76.389 13.5883 1038 58.684 1066.91 556.164
1392 0 79.2132 14.1264 1119 57.966 1066.81 555.1
1393 0 82.2905 13.5739 1117 58.8738 1066.95 553.323
1394 0 83.2752 13.2572 1104 59.0969 1067.39 551.658
1395 0 88.3674 14.4058 1273 57.7023 1067.66 549.639
1396 0 90.3628 13.0695 1181 59.4818 1067.63 549.057
1397 1 48.0863 9.81569 472 60.8432 1067.02 568.216
1398 0 51.1107 10.0762 515 59.765 1067.61 568.75
1399 0 54.0624 11.8937 643 57.6143 1067.95 566.739
1400 0 54.0957 11.0915 600 59.485 1068.06 564.832
1401 0 55.0497 11.5532 636 58.8113 1068.34 564.195
1402 0 58.0314 12.5794 730 57.5877 1068.55 564.214
1403 0 61.0594 13.8554 846 56.0697 1068.79 562.21
1404 0 61.0642 13.3139 813 56.9902 1068.98 562.614
1405 0 63.0627 12.5114 789 58.1863 1069.2 561.541
1406 0 66.0621 14.0777 930 56.3774 1069.78 558.966
1407 0 67.1262 12.9309 868 57.7258 1069.82 558.143
1408 0 68.0972 13.5835 925 57.1719 1070.16 559.124
1409 0 71.1803 13.4026 954 57.5975 1069.95 555.745
1410 0 71.1341 14.2407 1013 57.1708 1070.81 553.985
1411 0 75.1132 13.2733 997 57.6891 1070.86 555.478
1412 0 78.1303 13.1831 1030 58.1369 1071.21 550.674
1413 0 79.2176 12.5098 991 58.5207 1071.07 548.756
1414 0 83.2526 13.5251 1126 56.9183 1070.84 548.788
1415 0 84.3887 12.5372 1058 58.4234 1070.97 547.917
1416 1 49.028 11.8096 579 56.3661 1070.63 568.618
1417 0 48.0425 11.8853 571 57.3135 1071 566.926
1418 0 50.0613 12.245 613 56.1746 1071.23 567.17
1419 0 52.1524 12.9428 675 56.0133 1071.18 566
1420 0 52.0546 12.6022 656 56.8506 1070.88 564.12
1421 0 55.0923 13.196 727 56.2641 1070.96 563.941
1422 0 56.1456 13.2869 746 56.6743 1071.3 562.555
1423 0 58.1212 13.1966 767 56.9296 1071.43 560.764
1424 0 59.1882 13.1276 777 57.556 1071.55 559.302
1425 0 61.1008 13.4368 821 56.7588 1071.4 560.207
1426 0 63.0557 13.1154 827 58.0326 1071.16 557.664
1427 0 67.0904 13.5489 909 56.6931 1071.32 557.485
1428 0 67.1673 14.516 975 55.9303 1071.63 556.391
1429 0 70.0891 13.654 957 56.6876 1071.56 556.154
1430 0 72.0471 14.0186 1010 56.3931 1071.53 554.479
1431 0 72.1054 13.7576 992 57.3679 1071.47 552.368
1432 0 75.0697 14.4133 1082 56.6701 1071.39 552.165
1433 0 79.2 13.8889 1100 57.0473 1071.19 549.305
1434 0 81.3279 14.4969 1179 57.5589 1071.14 551.487
1435 0 84.1186 13.7782 1159 58.4685 1070.86 548.318
1436 0 87.0965 13.3989 1167 59.7438 1070.91 547.079
1437 0 89.1045 14.0397 1251 59.8209 1071.02 545.95
1438 0 92.1094 13.7554 1267 60.247 1071.19 543.77
1439 1 53.079 11.2286 596 61.5134 1070.6 564.121
1440 0 54.1381 11.4522 620 61.1129 1070.15 563.065
1441 0 55.0788 11.9828 660 60.4 1070.65 562.365
1442 0 58.0529 12.3336 716 59.3073 1070.59 562.172
1443 0 59.0199 12.7415 752 59.5346 1069.84 562.027
1444 0 61.0906 12.6206 771 59.7899 1069.52 561.266
1445 0 62.086 13.6424 847 58.503 1069.13 559.727
1446 0 64.1841 12.3395 792 60.1326 1069.15 559.838
1447 0 66.1379 14.3791 951 57.8728 1068.98 558.559
1448 0 69.1533 13.8388 957 58.3166 1069.13 558.184
1449 0 70.1115 13.7638 965 58.6953 1069.53 556.905
1450 0 72.1842 13.8396 999 59.3824 1069.38 555.304
1451 0 74.2037 12.3309 915 61.1333 1069.36 555.051
1452 0 76.1365 14.0537 1070 59.5692 1069.6 552.018
1453 0 79.2112 14.5308 1151 58.7567 1069.57 550.824
1454 0 80.0727 13.2629 1062 61.1798 1069.74 550.369
1455 0 84.2017 14.2752 1202 59.3968 1069.18 551.926
1456 0 86.1721 13.1481 1133 61.9885 1068.6 548.879
1457 0 90.1179 12.9164 1164 62.4897 1069.25 546.592
1458 0 94.2464 13.3692 1260 61.5389 1069.03 546.021
1459 0 95.1843 13.4056 1276 62.4099 1069.15 543.042
1460 0 99.2017 14.0623 1395 61.6595 1069.35 540.281
1461 0 103.378 14.7226 1522 60.5223 1069.12 541.074
1462 0 106.24 14.5896 1550 60.76 1069.34 537.268
1463 0 110.237 15.0584 1660 60.4837 1069.41 536.956
1464 0 113.408 14.8138 1680 60.7804 1068.86 534.874
1465 0 115.307 14.0754 1623 62.3771 1069.26 532.092
1466 1 62.099 11.0952 689 62.688 1068.6 561.554
1467 0 61.1669 10.4959 642 63.9299 1068.6 562.22
1468 0 65.2225 11.5758 755 62.2437 1068.4 560.772
1469 0 65.2812 11.3509 741 62.776 1068.51 559.73
1470 0 68.3431 12.686 867 62.1845 1068.26 558.346
1471 0 71.3851 14.6249 1044 59.3142 1067.96 556.73
1472 0 74.1963 13.8012 1024 60.0479 1067.23 556.068
1473 0 74.187 13.5199 1003 60.8315 1067.18 555.711
1474 0 78.358 13.9998 1097 59.8551 1067.57 555.322
1475 0 80.2573 13.843 1111 60.7417 1066.7 552.349
1476 0 82.467 12.4777 1029 62.3013 1066.46 552.649
1477 0 88.2369 14.2911 1261 59.3656 1065.87 549.585
1478 0 89.4688 13.1778 1179 60.788 1066.09 547.63
1479 0 92.2259 13.8356 1276 60.3017 1066.37 545.514
1480 0 95.2356 14.2804 1360 59.936 1066.96 545.021
1481 0 98.3183 13.6801 1345 60.9599 1066.49 543.822
1482 0 101.287 14.1973 1438 60.4089 1066.24 542.407
1483 0 105.18 13.6433 1435 60.8648 1066.18 541.676
1484 0 105.276 13.004 1369 62.6224 1066.66 536.461
1485 0 111.407 14.6938 1637 59.8931 1066.51 537.45
1486 0 115.201 14.4791 1668 59.7794 1067.44 535.409
1487 0 116.295 12.9498 1506 62.2178 1067.29 535.29
1488 0 120.2 13.8269 1662 61.1143 1067.28 530.035
1489 0 126.335 13.3771 1690 60.8385 1066.74 528.776
1490 0 131.247 14.4232 1893 59.0264 1067.35 526.392
1491 0 132.416 14.2505 1887 59.7101 1066.98 525.219
1492 0 139.297 15.0326 2094 58.5692 1067.46 523.747
1493 0 143.401 15.0836 2163 57.9547 1067.63 523.017
1494 0 148.359 14.6132 2168 58.4986 1067.7 518.481
1495 0 154.226 14.8224 2286 58.1549 1067.32 514.516
1496 0 158.285 15.3205 2425 58.1988 1067.84 510.842
1497 0 164.284 14.3471 2357 58.9915 1067.63 510.199
1498 0 169.401 15.1534 2567 58.8356 1067.15 508.068
1499 0 172.399 13.9792 2410 61.2751 1067.42 505.926
1500 0 179.274 13.722 2460 61.6793 1067.68 502.65
1501 0 184.26 13.5841 2503 61.8929 1067.81 500.621
1502 0 192.35 15.4302 2968 59.5013 1068.26 494.739
1503 0 201.326 16.5652 3335 57.6135 1068.44 485.145
1504 0 207.463 16.9476 3516 57.3658 1068.22 481.349
1505 0 209.438 16.6064 3478 58.4045 1068.08 483.427
1506 0 215.346 16.1322 3474 59.0576 1068.34 484.053
1507 0 221.348 15.1255 3348 60.3644 1068.5 476.95
1508 0 230.501 17.1062 3943 57.546 1068.71 473.034
1509 1 173.228 11.9611 2072 62.6443 1068.55 506.802
1510 0 180.272 14.1231 2546 60.2773 1069.04 506.466
1511 0 186.306 13.4778 2511 61.5424 1069.16 501.37
1512 0 192.294 13.9994 2692 61.4551 1069.43 493.789
1513 0 201.27 15.0147 3022 60.0936 1069.53 491.373
1514 0 206.298 14.2803 2946 61.5418 1069.71 485.595
1515 0 215.323 14.5363 3130 60.8543 1069.85 483.596
1516 0 223.291 14.9625 3341 60.2867 1070.54 481.919
1517 1 162.314 11.182 1815 63.9339 1070.85 514.611
1518 0 170.246 12.3586 2104 63.049 1071.05 510.278
1519 0 176.193 13.2525 2335 62.4994 1071.64 503.681
1520 0 183.237 13.9055 2548 61.6201 1071.64 501.261
1521 0 186.306 13.3276 2483 63.4611 1071.61 492.507
1522 0 194.172 14.1936 2756 62.1524 1072.24 491.279
1523 0 201.23 15.6339 3146 60.1186 1072.3 487.031
1524 0 206.377 14.614 3016 61.5305 1072.6 485.242
1525 0 215.393 15.1444 3262 60.8682 1072.59 481.071
1526 0 221.466 14.6569 3246 61.5844 1072.57 478.296
1527 0 229.457 15.1706 3481 60.4806 1072.9 474.946
1528 0 233.46 16.0327 3743 59.09 1073.23 472.085
1529 0 239.358 15.2199 3643 60.4337 1073.09 465.219
1530 0 248.382 15.5808 3870 59.6357 1073.36 463.769
1531 0 259.409 15.5353 4030 59.4027 1073.18 461.729
1532 1 77.1271 13.1342 1013 58.9526 1072.41 553.606
1533 0 79.1343 13.2307 1047 60.1261 1072.41 550.022
1534 0 82.16 13.9119 1143 59.608 1072.73 548.11
1535 0 82.2497 12.2189 1005 62.9612 1072.81 547.014
1536 0 86.2388 13.3467 1151 61.9183 1072.68 543.119
1537 0 90.2778 13.2702 1198 62.0417 1072.37 545.017
1538 0 92.2307 13.2819 1225 61.6498 1072.22 545.878
1539 0 94.1583 13.6048 1281 62.4176 1073 542.915
1540 0 99.2817 13.084 1299 62.7182 1072.83 541.049
1541 0 101.156 13.4643 1362 62.5631 1072.69 538.634
1542 1 57.4518 12.8804 740 62.3486 1072.64 561.769
1543 0 58.1681 10.6416 619 65.63 1072.64 560.249
1544 0 61.295 11.7954 723 63.3817 1072.54 558.867
1545 0 62.3515 13.055 814 62.0184 1072.49 557.093
1546 0 67.3384 14.1376 952 60.0231 1072.73 555.038
1547 0 66.3128 13.572 900 61.4356 1072.59 554.358
1548 0 69.2707 13.7576 953 61.3704 1072.64 552.451
1549 0 71.2377 13.9252 992 60.7611 1072.92 552.306
1550 0 74.3265 13.7501 1022 60.638 1072.55 551.549
1551 0 76.1858 14.2809 1088 60.0441 1072.85 551.038
1552 0 77.3416 14.3519 1110 60.3396 1071.92 550.226
1553 0 80.4011 13.2585 1066 61.5901 1071.22 549.512
1554 0 82.1678 14.1296 1161 60.9225 1071.38 545.793
1555 0 84.3119 13.4619 1135 62.2176 1071.38 544.626
1556 0 88.3642 13.1501 1162 62.1971 1071.4 544.009
1557 0 91.1898 13.7735 1256 61.4618 1071.57 541.218
1558 1 55.317 11.7866 652 64.1104 1071.82 559.417
1559 0 56.1757 12.0337 676 64.1657 1071.99 558.663
1560 0 59.2871 13.6623 810 61.9049 1071.36 557.78
1561 0 60.1886 13.5242 814 63.0479 1071.12 554.58
1562 0 63.2982 13.4127 849 63.6514 1071.07 553.406
1563 0 65.3501 14.0321 917 61.9607 1071.22 550.719
1564 0 66.1668 13.6624 904 62.8905 1070.6 551.374
1565 0 69.1575 15.5732 1077 60.0037 1070.41 550.968
1566 0 71.1664 14.8806 1059 60.8961 1070.21 549.858
1567 0 74.381 15.434 1148 59.7125 1069.73 548.977
1568 0 76.1715 15.3732 1171 59.6345 1069.77 549.584
1569 0 80.1843 14.9156 1196 60.3043 1069.76 546.676
1570 0 82.4045 14.6715 1209 60.397 1069.77 546.218
1571 0 83.2682 14.7355 1227 60.3863 1069.33 546.171
1572 0 86.3292 13.5412 1169 61.7887 1068.83 544.393
1573 0 90.2385 14.3841 1298 60.4284 1068.99 544.397
1574 0 94.2605 14.9798 1412 59.0779 1068.93 543.749
1575 0 96.3227 13.3509 1286 61.6524 1068.5 538.61
1576 0 99.179 13.9243 1381 61.2013 1068.45 536.521
1577 0 102.212 14.783 1511 59.773 1068.87 537.117
1578 0 107.391 15.588 1674 58.4677 1069.04 537.409
1579 0 111.225 15.527 1727 58.8813 1068.91 534.373
1580 0 114.249 15.615 1784 58.9389 1068.22 531.495
1581 0 118.279 14.0261 1659 60.8855 1068.11 528.634
1582 0 122.235 14.9957 1833 59.7736 1068.51 528.561
1583 0 124.225 14.9729 1860 59.6145 1068.14 527.927
1584 0 130.187 14.8402 1932 59.1677 1068.14 523.565
1585 1 72.1144 12.1474 876 60.9269 1067.98 553.882
1586 0 73.0578 12.8802 941 59.7205 1068.1 552.881
1587 0 74.0818 12.2162 905 61.2354 1067.83 550.418
1588 0 78.1337 12.5682 982 60.1324 1068.07 550.738
1589 0 80.0907 13.1476 1053 59.9782 1068.16 547.449
1590 0 83.1424 13.5551 1127 59.4055 1068.16 546.052
1591 0 85.1295 14.1667 1206 58.3176 1068.89 547.963
1592 0 88.0713 14.8289 1306 57.8469 1068.72 545.23
1593 0 91.1582 13.1749 1201 59.7269 1068.45 542.492
1594 0 94.2498 14.1963 1338 57.5987 1068.71 542.418
1595 0 97.1404 14.7313 1431 57.2306 1068.77 537.97
1596 0 104.149 13.7207 1429 57.8649 1068.83 539.321
1597 0 104.24 14.2652 1487 57.7128 1068.51 536.592
1598 0 107.346 14.0759 1511 58.1939 1068.4 535.528
1599 0 113.155 14.6172 1654 56.997 1068.48 534.93
1600 0 115.252 12.8848 1485 59.1845 1068.91 531.737
1601 0 118.204 13.2313 1564 59.1995 1068.48 528.087
1602 0 124.184 13.0855 1625 59.0874 1069.1 528.89
1603 0 128.306 14.3874 1846 57.4085 1069 524.622
1604 0 134.24 15.1893 2039 56.5272 1069.22 523.155
1605 0 139.248 14.2552 1985 57.3184 1069.2 520.222
1606 1 74.1216 9.90265 734 58.5668 1069.07 552.82
1607 0 77.1904 10.8951 841 58.2069 1069.09 551.25
1608 0 79.2991 12.1439 963 57.0353 1069.4 548.444
1609 0 81.2 12.0197 976 56.2766 1069.25 547.35
1610 0 82.2512 12.2916 1011 56.3017 1068.87 546.297
1611 0 86.3151 11.933 1030 55.8738 1069.65 545.306
1612 0 88.249 11.2862 996 56.3655 1069.48 545.063
1613 0 88.249 11.2636 994 143.504 1069.48 545.08
1614 0 93.1076 12.9635 1207 54.7001 1070.3 539.44
1615 0 93.1076 12.9635 1207 141.281 1071.3 539.44
1616 0 97.1898 12.9438 1258 55.1105 1070.92 537.653
1617 0 100.141 12.3726 1239 56.1937 1072.01 535.399
1618 0 104.121 12.2165 1272 56.5393 1072.2 533.814
1619 0 105.208 11.5011 1210 57.9595 1072.31 531.404
1620 0 109.176 12.2463 1337 57.2977 1073 529.659
1621 0 111.132 12.0038 1334 57.9843 1073.08 527.606
1622 0 115.105 12.6233 1453 57.5313 1073.25 526.825
1623 0 118.133 11.8257 1397 58.5519 1073.49 522.259
1624 0 122.18 12.8335 1568 57.5389 1073.68 522.617
1625 0 127.209 12.7035 1616 57.6318 1073.98 518.838
1626 0 130.146 11.5178 1499 58.7285 1074.29 514.64
1627 0 137.275 13.5713 1863 56.2099 1074.56 514.282
1628 0 140.242 12.1005 1697 58.3907 1074.73 508.992
1629 1 79.2564 9.45034 749 54.4646 1074.86 546.459
1630 0 79.2598 8.07471 640 55.3266 1074.82 546.722
1631 0 80.1763 9.71608 779 54.1694 1074.57 544.041
1632 0 85.2094 9.6703 824 53.3483 1074.89 542.749
1633 0 85.2482 10.2641 875 53.8331 1074.92 540.751
1634 0 89.0955 11.3249 1009 52.7463 1074.92 538.856
1635 0 92.1217 9.7154 895 54.4045 1074.56 534.942
1636 0 93.1548 10.2625 956 54.1245 1074.14 536.451
1637 0 99.1425 11.1758 1108 52.8827 1073.95 535.414
1638 0 100.229 11.3241 1135 52.9947 1073.22 531
1639 0 104.167 10.6272 1107 53.9259 1073.34 531.92
1640 0 104.251 9.73616 1015 55.2926 1073.48 528.314
1641 0 108.151 10.1895 1102 53.9102 1072.7 530.868
1642 0 112.177 11.9276 1338 52.2526 1072.55 529.345
1643 0 112.234 11.1463 1251 53.773 1073.04 526.978
1644 0 118.252 10.9766 1298 53.9299 1073.37 522.85
1645 0 123.319 12.2528 1511 52.1343 1073.3 526.788
1646 0 126.198 12.0842 1525 53.1731 1073.61 522.092
1647 1 73.0978 9.71302 710 53.2408 1073.98 551.169
1648 0 75.0807 10.229 768 52.6068 1073.29 549.543
1649 0 76.1025 9.31638 709 54.0931 1072.95 548.739
1650 0 78.1554 10.9014 852 53.0786 1073.64 545.16
1651 0 78.1539 10.1083 790 54.2278 1073.03 543.535
1652 0 85.195 10.4936 894 54.1443 1073.03 543.566
1653 0 85.1621 11.4488 975 53.6482 1073.16 540.289
1654 0 88.0933 11.4538 1009 52.8652 1072.75 543.656
1655 0 93.287 12.2311 1141 52.3716 1072.45 540.494
1656 0 93.336 11.2818 1053 53.8613 1072.31 538.781
1657 0 98.2214 11.6573 1145 53.5066 1072.16 538.578
1658 0 101.377 11.5805 1174 53.3041 1072.35 539.022
1659 0 105.336 12.3794 1304 53.1028 1072.25 534.717
1660 0 107.263 12.3901 1329 54.0745 1072.28 530.473
1661 0 112.471 12.9812 1460 53.1452 1071.75 531.682
1662 0 116.458 13.4469 1566 52.9355 1071.27 520.875
1663 1 60.3341 7.97228 481 56.1227 1071.06 556.22
1664 0 65.4202 10.6542 697 52.7991 1071.05 556.128
1665 0 64.3549 10.3955 669 54.0164 1070.33 553.924
1666 0 66.2386 10.7037 709 53.5458 1070.41 555.154
1667 0 68.2567 11.1344 760 53.3395 1070.52 551.221
1668 0 69.407 12.4483 864 51.7153 1070.34 552.056
1669 0 71.3517 12.2352 873 52.5934 1069.68 550.54
1670 0 73.3412 12.5578 921 52.0467 1070.01 551.59
1671 0 76.2631 13.1387 1002 51.9341 1070.02 548.192
1672 0 78.4404 12.4553 977 52.8117 1069.74 546.862
1673 0 77.2931 12.5755 972 53.6574 1069.57 544.182
1674 0 80.3426 12.4965 1004 53.754 1069.85 544.312
1675 0 85.4495 13.8444 1183 51.6923 1069.57 544.79
1676 0 86.5335 12.2727 1062 54.2382 1069.65 544.188
1677 0 87.6014 12.4085 1087 54.3487 1069.65 543.777
1678 0 92.6954 12.6004 1168 53.7551 1069 539.891
1679 1 49.263 9.90602 488 55.502 1068.46 560.465
1680 0 48.2545 10.8591 524 55.5267 1068.53 560.118
1681 0 50.2213 9.25902 465 57.0989 1068.4 560.325
1682 0 52.3367 10.2032 534 57.0169 1068.59 559.185
1683 0 55.2289 11.6244 642 55.0561 1068.31 559.668
1684 0 57.1208 13.4802 770 52.0961 1069.01 556.912
1685 0 57.2696 12.1705 697 54.0359 1068.38 558.643
1686 0 59.1438 12.85 760 53.1237 1068.49 559.097
1687 0 61.2348 13.0318 798 53.3283 1067.98 557.639
1688 0 63.2707 12.8337 812 53.5591 1068.18 556.086
1689 0 62.1746 12.5292 779 54.7253 1067.95 555.005
1690 0 64.1588 12.7029 815 54.2626 1068.04 556.621
1691 0 64.0962 12.7309 816 55.6985 1068.15 554.612
1692 0 67.2764 12.5899 847 55.4238 1067.91 555.998
1693 0 70.1881 12.8084 899 55.0656 1067.97 553.845
1694 0 69.2364 13.2011 914 55.6171 1068.22 553.542
1695 0 71.156 12.4094 883 56.7067 1068.02 551.407
1696 0 74.2755 13.0864 972 56.0165 1067.9 550.322
1697 0 74.3415 12.7116 945 57.1661 1067.57 551.25
1698 0 77.4307 13.1085 1015 56.4562 1067.57 550.115
1699 0 80.4622 13.149 1058 56.4026 1067.23 547.893
1700 0 85.5149 14.1262 1208 54.4139 1067.17 549.491
1701 0 87.3204 14.6358 1278 54.7191 1066.71 546.207
1702 0 87.316 12.1627 1062 58.4605 1066.65 546.532
1703 0 90.3398 13.5599 1225 56.9298 1066.61 543.155
1704 1 47.2385 10.4999 496 58.8891 1065.99 565.831
1705 0 49.292 10.9348 539 58.5455 1065.9 565.058
1706 0 50.171 10.4642 525 58.9905 1065.65 564.726
1707 0 52.2753 11.3629 594 58.7609 1066 561.636
1708 0 53.1848 12.936 688 57.4608 1065.86 561.576
1709 0 54.2139 12.4507 675 58.3393 1066.09 560.839
1710 0 59.2276 13.5579 803 55.4633 1066.24 562.181
1711 0 57.1265 11.5533 660 59.0076 1066.35 560.27
1712 0 61.2339 13.2606 812 56.3017 1067.02 558.682
1713 0 64.1866 12.8687 826 56.0884 1066.69 558.305
1714 0 64.2772 13.224 850 56.2882 1067.23 558.591
1715 0 67.2706 13.7802 927 54.904 1067.68 557.06
1716 0 68.2056 13.2101 901 56.0111 1067.39 554.218
1717 0 70.0998 12.8674 902 56.5698 1067.95 552.803
1718 0 74.2486 13.4279 997 55.2758 1067.74 553.007
1719 0 73.0932 12.2173 893 57.6898 1068.01 552.066
1720 0 76.3369 13.1129 1001 56.9211 1068.28 550.204
1721 0 78.2297 13.0257 1019 56.7655 1068.01 549.519
1722 0 82.2133 14.061 1156 55.7128 1067.84 546.069
1723 0 84.2664 14.6084 1231 55.2616 1068.31 545.164
1724 0 86.2575 14.1205 1218 56.0805 1068.7 546.416
1725 0 91.3004 13.3077 1215 57.2708 1068.96 543.979
1726 0 93.3455 14.0874 1315 56.6183 1068.7 541.22
1727 1 48.2129 10.2255 493 58.1602 1068.79 564.765
1728 0 49.1172 10.9738 539 58.8237 1069.39 562.23
1729 0 53.1107 10.8829 578 57.3547 1069.66 563.426
1730 0 53.1254 12.0093 638 56.6646 1069.15 560.89
1731 0 56.0549 12.6662 710 56.3775 1069.11 560.58
1732 0 57.0267 12.2399 698 56.7607 1070.02 561.801
1733 0 57.0523 12.8479 733 57.131 1070.06 559.641
1734 0 58.0865 13.1528 764 56.6623 1070.09 559.779
1735 0 59.0212 12.199 720 57.4986 1069.89 558.767
1736 0 63.077 12.9683 818 56.1137 1070.25 555.991
1737 0 64.0742 13.5 865 54.8925 1070.42 555.228
1738 0 65.0746 12.8622 837 55.6691 1070.16 554.677
1739 0 65.0834 12.2305 796 57.549 1070.51 553.317
1740 0 69.0849 14.0986 974 56.3111 1071.13 551.945
1741 0 72.1108 14.4916 1045 55.6057 1071.24 551.713
1742 0 74.0644 15.0545 1115 54.0556 1071.62 551.126
1743 0 75.0825 14.5973 1096 54.9516 1072.08 550.864
1744 0 76.0437 12.4402 946 59.5159 1072.56 546.34
1745 0 81.1639 13.4419 1091 58.6095 1072.3 546.902
1746 0 84.1199 13.5759 1142 57.521 1072.98 546.827
1747 1 45.0323 10.1705 458 59.0895 1074.3 563.983
1748 0 47.0662 9.13608 430 61.093 1073.85 563.514
1749 0 48.1501 9.96882 480 60.8188 1074.05 562.85
1750 0 49.1051 11.0579 543 59.9171 1073.51 561.186
1751 0 48.1693 10.6292 512 61.8809 1074.21 560.592
1752 0 50.2251 11.8865 597 60.3819 1073.64 560.266
1753 0 52.3217 12.0791 632 59.5332 1073.34 560.88
1754 0 52.3231 12.1553 636 150.597 1073.36 560.774
1755 0 56.0709 13.7326 770 58.0857 1073.51 559.319
1756 0 58.05 13.2472 769 59.4915 1073.46 557.433
1757 0 58.0506 12.7992 743 60.8627 1073.05 556.222
1758 0 60.0384 12.6586 760 61.1237 1073.1 555.62
1759 0 61.0446 13.1707 804 61.0398 1073.03 555.515
1760 0 63.0306 12.8668 811 61.9692 1073.12 553.334
1761 0 65.1075 13.3164 867 60.9031 1073.38 553.288
1762 0 67.106 13.6053 913 61.2125 1073.77 550.991
1763 0 69.0956 14.3569 992 60.3185 1073.36 549.254
1764 0 70.0892 13.6112 954 61.6342 1072.71 549.844
1765 0 73.0915 14.0646 1028 61.2918 1072.94 548.066
1766 0 76.0964 14.1662 1078 61.1521 1072.96 546.559
1767 0 76.1546 12.5403 955 64.2534 1072.56 545.836
1768 0 81.1149 13.6843 1110 62.1108 1072.75 545.49
1769 0 81.0921 13.4908 1094 63.2514 1072.53 545.027
1770 0 84.1163 14.1708 1192 62.2139 1072.51 544.606
1771 0 88.1046 15.0616 1327 60.4702 1072.4 543.164
1772 0 91.1041 14.2365 1297 62.6284 1072.2 539.726
1773 0 94.1511 14.2749 1344 62.375 1072.28 537.798
1774 1 51.1924 12.6191 646 61.8684 1071.53 560.497
1775 0 53.1641 11.3799 605 64.4281 1071.28 557.84
1776 0 55.1363 12.986 716 59.1899 1071.52 560.109
1777 0 55.1978 12.7904 706 59.9193 1071.29 558.557
1778 0 57.0574 13.5302 772 60.2345 1071.23 555.648
1779 0 61.0448 13.957 852 59.1068 1071.02 555.376
1780 0 61.0726 13.0828 799 60.9737 1070.88 556.043
1781 0 63.0722 12.7631 805 62.0857 1070.96 553.217
1782 0 65.1265 14.1571 922 60.0434 1070.99 554.118
1783 0 67.1869 12.8597 864 61.537 1071.23 553.767
1784 0 69.1104 12.9213 893 61.5006 1070.55 552.856
1785 0 71.0822 12.6333 898 61.5702 1070.67 552.958
1786 0 72.2294 12.7372 920 62.4087 1070.32 548.408
1787 0 70.2281 11.8471 832 171.107 1069.34 549.476
1788 0 78.205 13.3879 1047 61.6819 1069.58 547.569
1789 0 81.0752 14.0487 1139 60.6857 1069.8 546.727
1790 0 82.0464 12.9927 1066 62.1707 1069.51 545.05
1791 0 85.2068 12.8746 1097 62.4977 1069.73 543.617
1792 0 89.1064 13.6242 1214 60.9901 1069.48 544.017
1793 0 94.3224 14.6201 1379 59.5431 1069.46 542.445
1794 0 95.1016 13.4067 1275 61.1631 1069.13 539.733
1795 0 98.126 13.2687 1302 61.0699 1069.2 540.065
1796 0 103.171 14.161 1461 60.0664 1069.42 538.192
1797 1 55.067 11.2409 619 60.1276 1068.57 561.257
1798 0 54.0486 10.7681 582 62.3265 1069.04 558.873
1799 0 57.023 11.1008 633 60.7836 1069.2 560.567
1800 0 59.1865 12.3001 728 59.3915 1068.96 558.584
1801 0 61.0323 11.3219 691 60.2388 1068.83 558.59
1802 0 61.0663 12.4127 758 60.5237 1069.31 554.505
1803 0 64.0792 12.4533 798 60.2231 1069.14 553.465
1804 0 67.0921 11.9388 801 60.5081 1069.15 554.734
1805 0 68.0323 11.7297 798 61.0677 1069.01 553.727
1806 0 72.1562 12.4591 899 59.9911 1069.08 552.869
1807 0 73.0411 13.0748 955 59.0869 1068.96 552.266
1808 0 76.0588 12.3983 943 59.7306 1068.9 552.189
1809 0 78.1798 12.6503 989 59.9221 1068.81 549.069
1810 0 80.0989 13.0214 1043 59.7881 1068.5 547.29
1811 0 82.2156 11.8104 971 61.3759 1068.88 545.582
1812 0 86.1727 12.3821 1067 60.09 1068.44 547.138
1813 0 89.1234 12.1068 1079 59.9685 1068.51 546.237
1814 0 94.2151 13.2251 1246 59.0369 1068.73 543.21
1815 1 48.0744 9.2773 446 60.5202 1068.83 565.877
1816 0 52.0498 10.6821 556 59.1835 1068.89 564.959
1817 0 52.1217 11.1086 579 59.2712 1069.7 563.204
1818 0 52.1217 11.1662 582 148.919 1070.72 563.225
1819 0 54.1881 11.0356 598 60.4983 1070.1 560.788
1820 0 56.0801 11.2339 630 60.046 1070.31 561.03
1821 0 57.1485 13.1762 753 58.0292 1069.59 559.118
1822 0 58.1728 11.3455 660 60.4273 1069.35 558.839
1823 0 60.2098 11.4433 689 60.1132 1069.69 557.73
1824 0 62.1161 11.7683 731 60.3817 1069.95 557.048
1825 0 64.1576 12.0484 773 59.8008 1069.99 554.608
1826 0 67.1015 12.3842 831 59.2816 1069.96 553.471
1827 0 68.1914 12.6116 860 59.0965 1070.3 552.848
1828 0 70.0815 12.0003 841 59.9239 1070.47 552.155
1829 0 72.164 12.9427 934 57.94 1070.81 553.409
1830 0 75.1016 11.8506 890 59.4865 1070.36 551.102
1831 0 78.1233 11.9299 932 59.441 1070.26 549.219
1832 0 82.06 12.174 999 59.038 1070.38 547.704
1833 1 45.0697 9.47421 427 59.7026 1070.5 567.525
1834 0 44.0963 9.61531 424 60.3278 1070.72 565.729
1835 0 45.0427 10.1459 457 60.035 1070.86 564.604
1836 0 49.2878 11.2604 555 58.1189 1071.03 563.524
1837 0 51.2504 12.4877 640 56.1406 1071.31 565.163
1838 0 52.0521 12.622 657 56.6865 1071.46 562.017
1839 0 52.0758 10.8688 566 59.1007 1071.52 560.846
1840 0 55.0175 12.1052 666 57.0871 1071.61 561.083
1841 0 56.0402 11.5631 648 57.7994 1071.88 559.448
1842 0 57.0236 9.76788 557 60.6122 1072.1 558.673
1843 0 60.0801 12.6165 758 56.9327 1072.15 556.431
1844 0 64.1115 13.6325 874 55.2426 1072.84 556.537
1845 0 64.0789 13.0464 836 56.4629 1072.88 554.374
1846 0 65.1566 13.1376 856 56.5502 1072.94 555.187
1847 0 66.1139 12.4785 825 57.8133 1073.17 552.976
1848 0 67.1503 13.1496 883 57.0091 1073.58 553.327
1849 0 71.1454 12.875 916 56.3963 1073.68 552.855
1850 0 71.1296 13.2294 941 56.7141 1073.6 551.443
1851 0 73.0973 12.0114 878 57.9601 1073.76 547.181
1852 0 77.1331 13.6906 1056 55.4943 1073.7 548.116
1853 0 79.0792 13.8089 1092 54.2317 1073.36 546.008
1854 0 81.1263 12.7949 1038 55.499 1073.19 545.576
1855 0 86.11 13.7615 1185 53.9646 1073.04 544.53
1856 1 46.0263 11.4717 528 55.0189 1072.66 563.483
1857 0 46.0229 10.4079 479 56.3382 1072.82 562.896
1858 0 50.087 11.4201 572 54.7762 1072.65 561.462
1859 0 48.1608 12.3337 594 54.8384 1072.81 560.449
1860 0 51.0524 12.7712 652 54.7699 1073.59 560.034
1861 0 52.1525 13.8824 724 53.3439 1072.94 558.652
1862 0 52.031 11.397 593 56.3356 1072.77 558.796
1863 0 55.1494 12.9466 714 54.4608 1073.03 557.004
1864 0 57.0827 13.1213 749 54.2804 1072.25 557.012
1865 0 59.0567 13.614 804 53.6667 1072.37 555.698
1866 0 62.1035 14.2665 886 52.6117 1072.45 552.837
1867 0 63.0998 13.9937 883 53.4836 1072.3 552.781
1868 0 65.1046 12.8101 834 54.8381 1072.03 551.501
1869 0 67.0676 14.0903 945 53.1249 1072.11 554.675
1870 0 67.0669 12.7485 855 54.448 1071.9 553.282
1871 0 69.0785 13.9696 965 53.2497 1072.3 549.95
1872 0 73.1314 13.4689 985 53.3036 1071.96 550.277
1873 0 74.1099 14.411 1068 52.6713 1072.56 550.025
1874 0 76.0827 14.5763 1109 52.3868 1071.94 549.915
1875 0 80.0948 12.7224 1019 53.8096 1071.53 547.68
1876 0 82.1065 13.6895 1124 52.9377 1071.56 545.835
1877 0 85.137 13.2492 1128 52.7598 1071.6 546.005
1878 1 46.1277 11.75 542 53.4041 1071.09 564.063
1879 0 48.0429 12.5513 603 52.9652 1070.33 562.484
1880 0 50.0149 10.8967 545 55.1321 1070.21 561.051
1881 0 51.0433 13.4787 688 52.3895 1070.67 562.606
1882 0 52.0466 12.4504 648 54.3056 1069.95 559.978
1883 0 54.1643 12.6098 683 54.3192 1069.54 560.284
1884 0 55.0432 11.2821 621 56.4187 1069.89 560.147
1885 0 60.1033 14.0259 843 52.9359 1070.22 559.937
1886 0 60.0852 13.3477 802 54.5923 1070.02 558.799
1887 0 61.0657 13.0515 797 54.7478 1069.66 559.163
1888 0 62.125 13.3923 832 54.5385 1069.6 557.554
1889 0 66.082 14.0734 930 53.1108 1069.42 557.891
1890 0 69.0885 12.4188 858 54.6212 1069.58 557.69
1891 0 69.0938 14.6757 1014 52.8511 1069.95 553.878
1892 0 71.1337 13.1864 938 54.2687 1069.58 555.242
1893 0 75.1181 13.7251 1031 53.6819 1069.63 553.487
1894 0 76.0562 14.9363 1136 52.6787 1069.21 551.762
1895 0 78.1441 13.4879 1054 54.2628 1069.25 548.629
1896 0 84.0532 14.3718 1208 52.5215 1069.46 548.571
1897 0 87.1115 13.4081 1168 53.9623 1069.57 545.32
1898 1 43.0645 10.9139 470 55.4319 1068.6 565.943
1899 0 48.0607 10.0706 484 54.6612 1068.43 567.014
1900 0 49.0764 11.6349 571 53.5727 1067.94 565.292
1901 0 51.0683 11.2399 574 53.7056 1067.99 567.005
1902 0 51.044 13.5961 694 52.8473 1068.3 564.401
1903 0 52.0265 11.6479 606 54.8828 1068.19 565.013
1904 0 57.0369 13.2195 754 52.3024 1068.32 563.447
1905 0 56.0754 12.6972 712 54.2486 1068.14 561.475
1906 0 57.0495 12.9537 739 53.7321 1067.69 561.87
1907 0 60.0903 13.5962 817 52.9388 1067.98 558.231
1908 0 61.1179 13.8585 847 53.0744 1068.12 558.566
1909 0 64.0486 12.7872 819 53.9792 1067.35 559.835
1910 0 65.1004 11.9661 779 55.2285 1067.39 558.733
1911 0 67.0913 12.5203 840 55.281 1067.69 558.069
1912 0 69.0532 13.0914 904 54.9403 1067.49 556.876
1913 0 73.1034 13.9528 1020 53.4784 1067.48 556.418
1914 0 75.0517 13.6439 1024 54.5449 1067.17 554.441
1915 0 76.1259 13.504 1028 55.3327 1066.88 553.719
1916 0 77.0996 12.7757 985 56.2964 1067.23 552.188
1917 0 82.065 13.1603 1080 55.7694 1066.63 550.838
1918 0 85.0774 13.7522 1170 56.4231 1066.55 549.641
1919 1 47.1131 10.8038 509 56.9548 1067.37 570.379
1920 0 46.0321 10.9054 502 58.0478 1067.8 567.793
1921 0 48.1241 10.7015 515 58.9534 1066.78 568.961
1922 0 51.0778 11.5119 588 58.6463 1066.66 566.534
1923 0 52.08 12.2504 638 58.2304 1067.35 566.846
1924 0 54.0138 12.2191 660 58.4045 1066.92 564.914
1925 0 55.0524 13.1148 722 57.5859 1066.91 563.399
1926 0 55.0987 12.6863 699 59.0815 1066.78 564.246
1927 0 58.1137 13.1466 764 58.5681 1066.63 563.213
1928 0 60.1522 12.7011 764 58.5092 1066.82 562.814
1929 0 64.1858 13.7881 885 56.9593 1066.53 559.95
1930 0 64.1406 13.4236 861 57.8328 1066.62 560.089
1931 0 65.1746 13.0572 851 58.9083 1066.42 558.595
1932 0 67.2325 14.2342 957 57.4357 1066.07 557.723
1933 0 69.3258 13.9486 967 57.8728 1066.16 555.551
1934 0 72.2551 13.1894 953 58.7251 1066.86 555.614
1935 0 71.3274 12.5197 893 59.9798 1067.08 553.725
1936 0 76.3079 13.7207 1047 57.9236 1067.02 552.694
1937 0 80.5822 13.9981 1128 56.9699 1067.37 551.237
1938 0 81.3944 13.8462 1127 57.8589 1067.53 548.799
1939 1 40.3285 10.0673 406 60.2365 1067.47 569.82
1940 0 43.5615 10.2843 448 60.1853 1067.15 567.77
1941 0 45.3035 11.3236 513 58.77 1067.3 569.016
1942 0 45.4067 11.1437 506 58.3004 1067.6 567.417
1943 0 48.2058 12.1977 588 57.3486 1067.91 567.105
1944 0 50.233 12.4619 626 55.0703 1068.33 566.626
1945 0 51.0173 11.8979 607 56.3954 1068.92 566.787
1946 0 51.1542 11.7292 600 57.2883 1069.08 566.257
1947 0 56.0923 12.7468 715 54.635 1069.12 563.54
1948 0 56.058 12.7368 714 54.5826 1068.57 564.392
1949 0 59.0894 13.9111 822 53.2397 1069.12 563.163
1950 0 60.052 13.0054 781 53.9142 1069.23 562.207
1951 0 62.0544 14.584 905 52.2917 1069.49 560.788
1952 0 67.1017 15.8118 1061 50.213 1069.64 560.189
1953 0 65.0849 12.138 790 55.3418 1069.58 559.009
1954 0 66.0799 13.181 871 54.6636 1069.52 556.786
1955 0 69.0402 14.9913 1035 51.9295 1069.23 554.774
1956 0 71.0873 13.7718 979 53.5312 1069.26 552.352
1957 0 72.0973 14.0227 1011 53.8497 1069.1 553.204
1958 0 75.1216 12.5397 942 55.7123 1069.3 550.219
1959 0 79.0319 13.7666 1088 53.4182 1069.49 550.652
1960 0 81.0657 13.816 1120 53.4518 1069.62 551.901
1961 0 83.0482 14.0641 1168 53.5702 1069.93 547.982
1962 0 87.1112 14.2921 1245 53.3124 1070.34 545.953
1963 0 88.0662 13.7624 1212 54.6312 1070.49 544.883
1964 0 93.0596 16.3336 1520 51.6895 1070.58 544.449
1965 1 49.025 9.68894 475 55.8863 1070.48 566.526
1966 0 52.0186 11.1499 580 55.1466 1070.91 564.805
1967 0 54.0385 12.6021 681 54.0073 1071.07 564.866
1968 0 56.08 12.714 713 53.5582 1071.22 563.607
1969 0 57.0509 11.2706 643 55.563 1071.64 561.16
1970 0 58.0668 12.5545 729 54.9492 1071.91 561.373
1971 0 59.1042 12.1819 720 55.8486 1071.96 559.911
1972 0 61.0611 12.4465 760 56.0553 1072.05 557.843
1973 0 65.0763 14.1219 919 53.5375 1072.66 558.413
1974 0 67.0682 14.9997 1006 53.1392 1072.81 556.917
1975 0 68.0886 13.6146 927 55.0939 1072.99 556.154
1976 0 70.1871 12.7089 892 56.3655 1073.61 555.437
1977 0 73.0751 14.1361 1033 54.2604 1073.96 556.287
1978 0 73.0813 12.8213 937 56.4824 1073.87 553.835
1979 0 74.0789 14.579 1080 55.2194 1074.22 552.884
1980 0 78.0907 13.2666 1036 56.64 1073.94 550.766
1981 0 81.0647 14.9634 1213 54.6134 1074.4 550.185
1982 0 82.091 13.5581 1113 56.5606 1074.46 546.797
1983 0 84.1417 13.2633 1116 57.2563 1074.42 546.036
1984 0 87.1017 14.1444 1232 56.1972 1074.56 543.446
1985 0 89.1417 12.7774 1139 57.4671 1074.55 544.03
1986 0 94.156 14.3592 1352 54.9275 1074.81 542.869
1987 0 96.1285 13.4611 1294 56.211 1074.39 542.587
1988 0 100.143 15.2483 1527 54.5206 1074.51 538.652
1989 1 51.0415 10.4817 535 57.1271 1073.73 563.551
1990 0 53.0616 11.4772 609 56.5419 1073.92 560.424
1991 0 53.0623 11.0436 586 57.7014 1073.94 558.49
1992 0 58.0579 12.6942 737 54.9539 1073.71 560.28
1993 0 56.0751 11.0923 622 57.8794 1073.59 558.86
1994 0 56.0751 11.0566 620 163.595 1073.6 558.915
1995 0 63.4066 13.5633 860 54.4291 1073.25 556.622
1996 0 63.1105 12.5969 795 56.4101 1073.48 553.236
1997 0 65.0522 13.1433 855 55.7018 1073.04 553.25
1998 0 68.0835 12.4847 850 56.5271 1072.93 553.867
1999 0 71.0801 13.2105 939 55.688 1072.84 551.541
2000 0 74.0859 14.6722 1087 54.1904 1072.95 550.753
2001 0 75.0912 13.5169 1015 55.1833 1072.53 551.024
2002 0 78.0689 13.1807 1029 55.9699 1072.32 548.669
2003 0 79.0493 12.6377 999 56.5906 1071.95 546.627
2004 0 83.0437 12.8005 1063 56.7413 1071.8 546.638
2005 0 87.1204 13.7511 1198 56.1811 1071.74 543.759
2006 0 88.0556 14.9792 1319 55.2737 1071.74 544.17
2007 0 90.15 13.4664 1214 56.9563 1071.67 542.604
2008 0 93.2729 13.691 1277 57.018 1071.75 537.947
2009 1 51.0381 11.5012 587 57.1738 1071.4 562.891
2010 0 51.1271 9.66219 494 59.4838 1071.29 562.002
2011 0 55.0874 11.6179 640 57.3438 1071.11 561.175
2012 0 56.0714 12.9121 724 56.4475 1070.96 558.16
2013 0 59.0454 12.3295 728 56.5192 1071.07 558.309
2014 0 60.1568 11.7028 704 56.8509 1070.95 558.827
2015 0 64.0782 13.9205 892 53.8318 1070.81 558.691
2016 0 65.1248 12.8983 840 55.9012 1071.12 555.826
2017 0 69.1018 13.9649 965 54.487 1070.93 554.321
2018 0 70.1577 13.0563 916 55.4672 1070.67 553.619
2019 0 71.135 12.413 883 56.4326 1070.75 553.053
2020 0 73.0636 13.4677 984 55.7459 1071.03 551.151
2021 0 75.1391 12.6299 949 56.4974 1071.04 550.572
2022 0 80.0609 12.2407 980 56.7418 1070.94 549.759
2023 0 82.0898 13.0345 1070 56.3888 1070.72 546.568
2024 0 86.1633 13.869 1195 55.2167 1070.99 544.728
2025 1 42.1332 8.56805 361 57.6454 1070.4 569.191
2026 0 44.0888 10.1386 447 56.2416 1069.43 567.602
2027 0 46.1267 12.0321 555 53.8324 1069.44 567.906
2028 0 46.0965 11.6278 536 55.0131 1069.85 566.261
2029 0 47.1146 11.3977 537 55.7709 1070 565.747
2030 0 49.1 12.22 600 54.2283 1069.76 566.172
2031 0 51.1094 13.2657 678 53.3466 1070.11 566.164
2032 0 52.0725 11.9065 620 55.2032 1069.25 565.669
2033 0 55.0242 12.5945 693 54.4776 1069.11 563.462
2034 0 54.0543 12.1914 659 55.4507 1068.6 562.756
2035 0 57.0787 12.474 712 54.3553 1068.84 564.19
2036 0 59.0453 13.0239 769 54.8114 1068.92 561.662
2037 0 60.0539 12.1724 731 55.5732 1069.48 561.287
2038 0 62.085 12.1769 756 55.5026 1069.65 559.065
2039 0 63.0701 11.8757 749 55.8091 1068.97 560.611
2040 0 64.0997 13.4322 861 54.2962 1069.18 557.812
2041 0 67.0871 12.8788 864 55.0405 1069.18 558.543
2042 0 68.1418 13.4572 917 54.7317 1069.46 557.981
2043 0 70.1655 13.3114 934 54.9764 1069.11 555.806
2044 0 73.0759 13.3423 975 54.8472 1069.01 555.452
2045 0 75.0263 11.9158 894 56.3434 1069.22 554.918
2046 0 75.0267 12.5689 943 55.8462 1069.53 553.654
2047 0 79.0672 13.8869 1098 54.5929 1069.4 550.943
2048 0 82.0722 13.0373 1070 54.9327 1069.04 551.673
2049 0 83.0872 13.0104 1081 55.7808 1069.18 550.88
2050 0 88.0497 13.2993 1171 55.4552 1069.23 547.716
2051 1 48.0914 10.0018 481 56.9252 1068.59 568.453
2052 0 47.0606 10.3696 488 57.0512 1068.1 568.162
2053 0 49.0336 10.0135 491 59.7862 1068.52 567.114
2054 0 51.069 9.61444 491 59.6701 1068.55 567.819
2055 0 52.0897 11.3842 593 58.9764 1067.92 564.988
2056 0 55.0838 11.9091 656 58.1646 1067.66 563.899
2057 0 54.0795 11.779 637 141.414 1067.71 563.441
2058 0 59.0696 12.5276 740 57.7054 1067.51 563.231
2059 0 61.04 13.3519 815 57.0037 1067.81 562.444
2060 0 64.0766 13.8428 887 56.071 1067.72 562.936
2061 0 63.0784 12.4607 786 58.729 1067.56 560.41
2062 0 66.0589 13.4577 889 57.297 1067.82 560.539
2063 0 69.0886 13.0412 901 57.6659 1067.67 559.023
2064 0 71.1458 12.622 898 58.2394 1067.28 559.578
2065 0 73.1296 12.9633 948 57.5886 1067.76 557.987
2066 0 76.1413 13.4224 1022 57.5568 1068.23 554.967
2067 0 79.0858 13.7446 1087 57.4333 1068.56 553.944
2068 0 79.0755 13.2658 1049 58.8141 1068.52 552.592
2069 0 83.0936 12.9011 1072 59.2136 1068.56 551.056
2070 0 88.1449 13.5118 1191 58.115 1068 550.407
2071 0 90.1836 13.6832 1234 59.0737 1068.49 547.211
2072 1 47.0638 10.3052 485 60.4825 1068.82 570.953
2073 0 51.1314 11.226 574 60.0941 1069.1 568.216
2074 0 52.0784 11.7707 613 59.9641 1068.67 568.447
2075 0 53.0953 11.4888 610 60.223 1068.5 568.182
2076 0 55.0775 11.4203 629 60.3498 1068.48 566.199
2077 0 56.1218 12.8827 723 58.6113 1069.03 565.155
2078 0 57.1824 13.4132 767 58.5789 1069.33 563.267
2079 0 60.0515 12.6059 757 58.7028 1069.45 564.437
2080 0 60.1198 12.4917 751 60.0892 1070.21 562.302
2081 0 62.1723 13.4465 836 58.7691 1069.89 560.398
2082 0 65.1159 14.3283 933 57.6581 1069.82 560.477
2083 0 68.0445 13.1825 897 59.3266 1070.2 557.734
2084 0 70.1008 13.9228 976 58.0953 1070.31 557.429
2085 0 70.0678 12.9303 906 60.2483 1070.63 555.966
2086 0 73.119 14.2234 1040 57.8567 1070.56 555.853
2087 0 74.1359 14.1092 1046 59.1864 1070.71 553.519
2088 0 77.0952 14.1773 1093 59.1912 1071.7 550.234
2089 0 80.1516 13.5244 1084 59.8321 1071.61 551.896
2090 0 83.1559 14.1662 1178 59.5518 1072.03 551.323
2091 0 85.216 13.9997 1193 60.3026 1072.01 550.148
2092 0 86.125 12.9347 1114 62.3995 1071.7 548.591
2093 1 49.0795 11.3082 555 61.0108 1071.65 568.521
2094 0 52.116 10.6685 556 62.4281 1071.86 565.255
2095 0 53.0783 12.1518 645 61.9953 1071.86 564.057
2096 0 51.0347 12.031 614 63.3046 1071.94 561.793
2097 0 56.0538 12.7199 713 62.0771 1072.54 561.698
2098 0 55.0748 12.8008 705 63.1291 1072.69 558.692
2099 0 58.0375 14.0082 813 61.5006 1072.72 560.894
2100 0 58.0537 12.1956 708 64.5975 1072.9 559.931
2101 0 61.053 14.3318 875 61.3657 1072.74 560.514
2102 0 62.1415 14.2739 887 62.0541 1073.03 558.873
2103 0 65.1554 14.5345 947 62.0433 1073.32 557.836
2104 0 65.1554 14.4424 941 162.738 1073.29 557.782
2105 0 69.0848 15.2132 1051 61.4558 1073.93 557.684
2106 0 71.0518 14.0039 995 63.4513 1073.66 556.398
2107 0 73.0544 15.0299 1098 62.9089 1073.58 550.975
2108 0 74.0571 14.2053 1052 64.6217 1074 551.664
2109 0 77.1355 14.3773 1109 64.8224 1073.8 550.37
2110 0 78.0774 16.0354 1252 63.0296 1074.42 550.815
2111 0 81.032 13.8587 1123 65.9831 1074.64 547.912
2112 0 84.0351 14.7795 1242 65.1618 1075.07 547.132
2113 0 87.0853 15.3643 1338 64.346 1074.82 545.71
2114 0 88.2069 15.0328 1326 65.1169 1075.18 545.675
2115 0 92.1507 14.6282 1348 65.5378 1075.04 544.51
2116 0 94.1404 14.489 1364 65.5007 1074.65 542.382
2117 1 47.0785 9.91959 467 68.2719 1074.91 564.837
2118 0 50.0992 12.1958 611 64.7234 1074 566.119
2119 0 51.0744 10.7099 547 67.3437 1073.49 562.987
2120 0 52.1281 12.1432 633 66.2496 1073.06 562.043
2121 0 54.1813 12.3659 670 65.5433 1072.75 562.01
2122 0 56.1281 12.2042 685 65.7124 1072.91 560.809
2123 0 57.1534 12.9126 738 64.7805 1072.6 560.776
2124 0 59.0873 12.2023 721 64.81 1072.3 560.232
2125 0 61.1005 12.5531 767 64.1252 1072.59 560.977
2126 0 63.0754 12.16 767 64.7757 1072.11 558.626
2127 0 66.0864 12.8922 852 63.1702 1071.53 557.536
2128 0 67.1171 11.994 805 64.5155 1071.77 555.875
2129 0 67.0376 12.9778 870 63.6724 1071.45 552.916
2130 0 74.1474 13.7024 1016 61.2963 1071.68 553.919
2131 0 74.0582 12.4227 920 63.8457 1071.64 551.827
2132 0 78.0719 14.3073 1117 60.598 1071.91 553.295
2133 0 78.106 13.1488 1027 62.6193 1071.4 551.855
2134 0 82.0562 12.6499 1038 63.1156 1071.36 548.475
2135 0 83.0899 12.5286 1041 63.7666 1071.19 549.501
2136 0 88.0968 13.9165 1226 61.7219 1070.64 547.419
2137 0 88.1754 13.303 1173 63.2046 1070.93 546.269
2138 0 93.0662 14.4843 1348 61.5623 1070.64 546.264
2139 0 94.1215 13.6207 1282 62.8869 1070 544.477
2140 0 96.2407 13.0818 1259 64.4337 1069.98 541.467
2141 0 100.105 13.4459 1346 64.1999 1070.05 537.749
2142 0 103.219 14.2706 1473 63.37 1069.97 538.95
2143 1 54.1259 11.6211 629 64.7409 1070.13 560.994
2144 0 56.141 11.4533 643 63.3421 1070.11 563.625
2145 0 57.0914 11.8932 679 63.8233 1069.94 561.373
2146 0 60.1337 11.2582 677 65.0355 1069.82 560.133
2147 0 63.0589 13.6698 862 62.1392 1069.84 558.681
2148 0 65.1893 13.3611 871 63.3054 1070.2 556.958
2149 0 66.2357 13.6633 905 62.7691 1069.79 557.675
2150 0 68.3199 13.7003 936 63.3301 1069.62 555.575
2151 0 71.1945 13.9758 995 63.206 1069.52 554.958
2152 0 75.23 13.8774 1044 62.4885 1069.85 553.421
2153 0 77.2677 13.0326 1007 63.9722 1069.97 551.853
2154 0 78.1627 12.9218 1010 64.4941 1069.8 550.699
2155 0 84.2748 14.607 1231 61.4874 1069.53 549.635
2156 0 84.1688 14.2689 1201 62.8002 1069.85 546.801
2157 0 88.255 13.7329 1212 63.146 1069.65 546.479
2158 0 88.2011 13.0497 1151 64.2858 1069.31 545.336
2159 0 93.1107 14.0585 1309 63.272 1069.47 543.85
2160 0 97.1975 14.1362 1374 62.5699 1069.28 542.276
2161 1 51.1006 9.56936 489 65.184 1068.4 565.949
2162 0 52.0891 9.65652 503 65.0815 1068.58 566.614
2163 0 54.1127 10.4042 563 65.1865 1068.77 565.346
2164 0 57.0884 13.3302 761 61.6715 1069.97 561.581
2165 0 57.116 12.8861 736 62.9688 1068.54 559.993
2166 0 61.1092 12.4858 763 63.0944 1067.92 561.41
2167 0 63.0487 10.9439 690 64.7377 1067.65 561.167
2168 0 66.2131 12.4447 824 62.8774 1067.34 557.802
2169 0 67.0937 12.326 827 63.6747 1067.37 558.551
2170 0 70.1023 13.6515 957 62.0251 1067.42 557.41
2171 0 72.335 14.2946 1034 61.8182 1067.74 554.697
2172 0 72.064 13.155 948 64.0432 1067.72 554.557
2173 0 76.17 13.181 1004 63.9582 1067.35 553.627
2174 0 77.2305 13.2072 1020 64.1059 1067.2 554.759
2175 0 78.1122 12.3284 963 65.2264 1067.51 553.731
2176 0 82.0707 13.0619 1072 64.9944 1067.35 551.125
2177 0 83.2016 12.8483 1069 65.5762 1067.79 548.96
2178 0 87.1447 12.2211 1065 66.0845 1068.02 549.517
2179 0 90.1824 14.2711 1287 62.6853 1068.33 544.893
2180 0 92.188 12.7674 1177 65.8046 1068.47 545.747
2181 1 51.2113 10.3688 531 64.6968 1068.22 567.217
2182 0 53.2097 9.84783 524 65.7061 1067.94 564.674
2183 0 55.1602 11.0406 609 65.2003 1067.92 563.384
2184 0 58.2377 11.9854 698 62.5143 1068.99 565.554
2185 0 60.0698 12.8184 770 62.1636 1068.88 563.392
2186 0 61.1681 12.9806 794 62.1348 1068.91 560.654
2187 0 63.1388 12.3854 782 62.7647 1069.11 561.472
2188 0 66.2621 14.7445 977 59.3818 1069.5 558.739
2189 0 66.0951 12.9813 858 62.0618 1069.61 558.283
2190 0 70.1644 13.2546 930 60.9774 1069.89 556.686
2191 0 73.1304 13.7152 1003 59.7478 1069.83 555.252
2192 0 74.2832 13.3408 991 61.6044 1070.22 554.382
2193 0 74.0459 12.3707 916 62.8777 1070.57 552.034
2194 0 79.1125 13.386 1059 60.8083 1070.57 549.88
2195 0 82.0761 14.3525 1178 59.3837 1070.69 549.685
2196 0 85.0824 13.2107 1124 60.8149 1070.56 548.585
2197 0 87.0558 14.3127 1246 59.5193 1070.82 544.896
2198 0 91.0347 13.028 1186 60.6273 1070.78 544.125
2199 0 95.1125 13.1003 1246 60.5859 1070.84 542.241
2200 1 50.0291 9.37454 469 60.9829 1071.02 564.527
2201 0 54.047 10.3984 562 58.9466 1071.02 564.297
2202 0 53.0446 9.5957 509 61.0157 1071.34 564.084
2203 0 53.0252 11.2399 596 59.6829 1070.79 563.262
2204 0 57.0668 12.0385 687 58.1994 1071.64 560.787
2205 0 57.0423 11.7983 673 59.3774 1071.71 559.838
2206 0 59.1228 13.4635 796 57.598 1071.9 559.155
2207 0 61.0557 12.0054 733 59.558 1072.16 558.128
2208 0 63.1247 11.6595 736 59.1943 1071.89 559.952
2209 0 66.087 12.8921 852 58.0094 1071.81 556.818
2210 0 68.1383 12.0343 820 59.2134 1072.27 556.884
2211 0 70.096 12.4686 874 58.484 1071.98 554.454
2212 0 71.0717 12.0582 857 59.1015 1072.15 552.862
2213 0 75.049 13.8709 1041 56.6878 1072.32 552.121
2214 0 78.0906 13.3563 1043 57.4679 1071.99 550.563
2215 0 77.1621 12.2729 947 59.8849 1072.19 550.171
2216 0 82.1751 12.5585 1032 58.8634 1072.47 548.68
2217 0 82.22 11.0192 906 62.0894 1073 544.506
2218 0 87.1245 13.0273 1135 59.7004 1073.27 541.952
2219 0 91.1982 13.0485 1190 58.6185 1073.45 543.852
2220 0 94.1345 12.9496 1219 58.9475 1073.4 544.19
2221 1 51.107 10.1552 519 59.2351 1074.02 565.218
2222 0 52.1218 9.91907 517 59.8356 1073.93 563.731
2223 0 52.1149 10.7647 561 59.4724 1074 564.469
2224 0 54.088 11.4628 620 59.429 1073.8 561.916
2225 0 56.2985 11.4035 642 59.796 1073.45 559.981
2226 0 56.4031 11.7369 662 60.0604 1073.33 557.412
2227 0 59.1282 12.0078 710 59.4437 1073.3 558.314
2228 0 61.1814 13.0268 797 59.8695 1072.98 557.287
2229 0 61.0881 12.2282 747 61.2236 1073.1 556.059
2230 0 61.115 13.2373 809 60.6057 1072.72 555.633
2231 0 65.1166 12.7464 830 60.5602 1072.69 554.387
2232 0 66.1289 11.9161 788 61.401 1072.78 553.334
2233 0 68.1288 11.581 789 61.5133 1072.59 550.314
2234 0 71.2772 13.2862 947 59.2482 1072.85 550.809
2235 0 73.1661 12.9158 945 59.0053 1072.28 551.679
2236 0 75.3822 12.1116 913 60.2322 1072.27 548.525
2237 0 78.3686 12.773 1001 58.8392 1072.32 546.384
2238 0 81.3474 12.3053 1001 58.6593 1071.76 546.777
2239 0 81.3792 12.153 989 59.0566 1071.98 543.788
2240 0 86.4402 12.2165 1056 58.5294 1071.76 543.985
2241 0 89.4299 12.9934 1162 57.7453 1072.04 540.546
2242 0 88.3766 11.1794 988 59.8391 1071.86 540.471
2243 0 93.4368 11.976 1119 58.0643 1072.38 539.545
2244 0 99.5522 13.1891 1313 56.4158 1072.07 536.018
2245 0 101.544 11.9948 1218 58.014 1071.86 533.667
2246 0 104.598 13.2029 1381 56.1665 1071.6 532.665
2247 0 107.376 12.3212 1323 57.3462 1071.76 531.822
2248 1 58.1868 12.1162 705 58.2369 1072.2 554.024
2249 0 59.2958 11.1812 663 58.5279 1072.17 555.632
2250 0 64.2772 11.7771 757 57.638 1071.69 552.507
2251 0 66.1877 14.2172 941 54.6493 1071.79 552.542
2252 0 69.3247 14.0787 976 54.4191 1071.41 552.529
2253 0 69.2147 13.2486 917 56.6761 1071.56 549.489
2254 0 71.3235 12.7728 911 57.2261 1071.09 548.6
2255 0 72.457 13.056 946 57.4249 1071.1 549.589
2256 0 75.3885 13.5299 1020 56.3716 1070.84 549.091
2257 0 77.3641 13.1715 1019 56.4652 1070.53 549.001
2258 0 78.4752 12.7429 1000 58.371 1070.62 542.646
2259 0 81.3506 12.7965 1041 58.2786 1070.16 545.109
2260 0 83.3506 13.2573 1105 58.086 1070.51 544.647
2261 0 85.2108 14.0945 1201 57.8285 1070.66 543.163
2262 0 90.288 13.6674 1234 57.8971 1070.53 541.912
2263 0 92.3235 12.9978 1200 59.0892 1071.09 540.565
2264 0 98.3056 14.7397 1449 56.4279 1071.12 540.902
2265 0 100.404 13.1569 1321 59.3838 1071.12 535.674
2266 0 105.359 13.9618 1471 58.38 1070.93 535.789
2267 1 57.3171 11.5847 664 58.8855 1070.86 560.625
2268 0 57.2551 12.1386 695 58.8676 1071.03 559.114
2269 0 58.1939 11.8054 687 60.0364 1070.86 558.352
2270 0 61.16 12.3447 755 59.204 1071 558.196
2271 0 61.1814 14.171 867 58.1084 1071.09 556.048
2272 0 67.2148 17.1688 1154 53.604 1071.04 553.438
2273 0 64.1677 13.6205 874 59.5378 1070.93 556.398
2274 0 67.1004 14.0238 941 59.4591 1071.23 554.682
2275 0 70.1533 14.0834 988 59.2925 1071.47 553.25
2276 0 69.1326 13.0908 905 61.5945 1071.1 550.653
2277 0 71.0837 13.5334 962 61.606 1070.64 550.024
2278 0 72.2743 12.9922 939 62.4643 1070.43 549.742
2279 0 76.2518 13.9013 1060 60.9443 1071.12 551.988
2280 0 78.2859 14.3832 1126 60.6341 1070.23 549.89
2281 0 81.3227 13.6493 1110 61.7586 1069.86 547.372
2282 0 83.2952 14.1545 1179 61.5802 1070.07 542.326
2283 0 85.4389 13.5067 1154 62.6438 1069.78 542.44
2284 0 87.3398 14.0257 1225 62.0955 1069.58 542.798
2285 0 90.3421 13.2718 1199 62.8198 1069.5 542.158
2286 0 93.2885 13.5922 1268 62.6806 1069.44 541.385
2287 0 97.2642 13.6947 1332 62.777 1069.71 540.078
2288 1 52.1476 10.4319 544 63.546 1068.78 561.509
2289 0 55.2107 11.6825 645 62.4837 1068.77 559.022
2290 0 54.1884 8.54427 463 65.3456 1068.54 560.708
2291 0 59.1371 11.0421 653 62.8744 1069.21 559.164
2292 0 59.3363 12.4713 740 61.6851 1069.92 557.818
2293 0 62.2205 12.5361 780 61.1538 1069.53 557.262
2294 0 64.3241 13.2299 851 60.6863 1069.64 556.484
2295 0 65.2004 13.0827 853 60.7937 1069.35 557.045
2296 0 68.0641 13.4432 915 59.3781 1069 556.399
2297 0 69.1316 12.8595 889 61.5804 1069.15 554.346
2298 0 70.082 13.4414 942 61.6624 1068.95 552.179
2299 0 73.1379 13.8916 1016 60.2825 1069.06 552.046
2300 0 77.1537 13.1685 1016 60.5669 1069.21 550.723
2301 0 77.2524 13.5271 1045 60.5474 1068.84 549.348
2302 0 79.195 13.4099 1062 61.5876 1069.04 545.285
2303 0 83.1623 14.4176 1199 60.1093 1068.99 546.736
2304 0 86.1837 15.0609 1298 59.49 1069.18 543.743
2305 0 87.2214 13.4256 1171 61.6909 1069.05 544.479
2306 0 90.1009 13.7512 1239 61.1412 1069.15 543.723
2307 0 94.3045 15.0364 1418 59.9126 1068.72 541.428
2308 0 97.2395 14.0684 1368 61.2018 1069.08 539.968
2309 0 99.1709 14.5405 1442 60.966 1068.83 536.922
2310 0 103.121 13.8575 1429 61.4934 1069.17 538.607
2311 0 105.122 14.4023 1514 61.4141 1068.89 535.873
2312 1 57.1107 10.2958 588 63.2092 1069.02 558.245
2313 0 58.0994 9.94847 578 63.1332 1068.92 558.218
2314 0 60.2962 9.93429 599 62.4858 1069.45 558.467
2315 0 64.1351 13.3312 855 57.8865 1069.67 557.246
2316 0 65.0183 12.5965 819 59.9109 1069.44 556.006
2317 0 67.1077 12.398 832 59.8113 1069.79 555.862
2318 0 71.0708 13.0574 928 58.9752 1070.1 554.801
2319 0 72.1598 12.9019 931 59.5274 1070.25 553.069
2320 0 73.077 13.4653 984 59.253 1070.33 551.216
2321 0 75.1549 12.9732 975 59.7108 1070.9 549.792
2322 0 78.1403 14.282 1116 58.0009 1071.12 548.312
2323 0 80.1391 13.3268 1068 59.4841 1070.86 545.637
2324 0 83.0828 13.7814 1145 58.6734 1070.81 545.032
2325 0 86.14 13.3852 1153 59.0642 1071.02 542.996
2326 0 90.1856 13.949 1258 58.2218 1071 541.592
2327 0 92.172 14.4838 1335 57.9348 1071.3 536.301
2328 0 95.2753 13.3823 1275 59.0196 1071.39 536.81
2329 0 98.2014 13.7167 1347 58.5687 1071.77 535.363
2330 0 100.216 13.6205 1365 58.1985 1072.07 535.351
2331 0 105.19 13.9558 1468 57.7629 1072.18 529.616
2332 1 57.0526 9.99079 570 57.7263 1072.5 558.832
2333 0 56.0334 10.1725 570 58.8754 1071.54 556.409
2334 0 58.1007 10.0515 584 58.3545 1071.1 555.442
2335 0 60.0616 10.1229 608 57.3849 1071.41 558.373
2336 0 63.0445 12.0232 758 55.7982 1071.43 555.511
2337 0 63.0916 11.3803 718 57.156 1072.56 554.157
2338 0 64.122 12.5386 804 55.6953 1072.66 554.027
2339 0 67.1138 11.5028 772 56.3795 1072.21 552.179
2340 0 70.1518 13.0004 912 54.6294 1072.54 552.397
2341 0 71.1206 12.8514 914 54.7637 1072.57 551.64
2342 0 73.0883 13.8736 1014 53.212 1072.81 550.16
2343 0 74.0839 12.8098 949 54.098 1072.51 547.872
2344 0 77.1138 12.89 994 53.9447 1072.68 545.489
2345 0 80.2391 12.4877 1002 53.6427 1072.44 544.869
2346 0 84.0921 12.855 1081 52.8131 1072.43 544.24
2347 0 85.0842 11.5298 981 53.9888 1072.97 543.042
2348 0 90.1175 12.7278 1147 52.8727 1073.26 538.127
2349 0 93.0904 14.4805 1348 50.6721 1073.51 540.319
2350 0 94.1254 14.4276 1358 51.3019 1073.65 536.286
2351 0 100.147 13.9496 1397 51.0472 1073.71 535.359
2352 0 102.108 12.9471 1322 52.0174 1074.04 534.666
2353 0 106.216 13.9339 1480 50.8642 1074.58 530.867
2354 1 58.0341 10.2009 592 52.5743 1073.18 556.701
2355 0 64.0999 10.8736 697 51.6499 1073.21 554.973
2356 0 66.0799 13.2869 878 49.3736 1073.79 552.861
2357 0 67.1392 12.7199 854 50.3759 1073.54 552.074
2358 0 69.0856 12.1733 841 51.8109 1073.18 548.886
2359 0 69.0752 13.5215 934 50.5385 1073.09 550.855
2360 0 72.1312 12.5189 903 51.392 1073.24 549.598
2361 0 78.1036 13.4053 1047 50.1318 1073.65 546.91
2362 0 78.1559 13.9209 1088 49.8171 1073.29 546.123
2363 0 80.1269 14.0652 1127 49.3052 1072.53 546.671
2364 0 83.0744 12.1698 1011 51.7715 1072.55 543.171
2365 0 85.0884 11.823 1006 51.9821 1072.13 543.927
2366 0 88.0749 13.023 1147 51.7655 1072.3 539.461
2367 0 91.08 12.5274 1141 52.1884 1071.93 539.951
2368 0 94.1451 12.8313 1208 52.3725 1071.74 538.217
2369 0 96.2632 13.3177 1282 52.8612 1072 535.611
2370 1 54.3173 11.8931 646 51.9567 1072.26 558.622
2371 0 53.265 9.66864 515 54.2718 1071.92 559.216
2372 0 59.4436 12.0619 717 51.8438 1071.62 557.724
2373 0 60.2445 13.7938 831 50.6402 1071.71 556.829
2374 0 60.2871 11.6609 703 53.0868 1071.44 557.003
2375 0 62.2632 12.4472 775 53.6361 1071.12 553.48
2376 0 63.4129 13.1204 832 52.9796 1071.17 555.447
2377 0 63.3036 13.0482 826 54.3535 1071.23 551.454
2378 0 67.3625 14.4739 975 52.3067 1071.37 553.247
2379 0 68.2927 12.2268 835 54.715 1071.05 551.768
2380 0 72.2171 15.3426 1108 51.6354 1071.06 548.514
2381 0 76.3264 15.9709 1219 48.4348 1070.75 548.462
2382 0 75.3649 13.7066 1033 51.4463 1071.18 547.083
2383 0 75.3677 12.3926 934 52.7323 1071.38 546.593
2384 0 79.5711 13.0826 1041 52.2161 1071.22 544.339
2385 0 82.5116 13.3315 1100 51.9364 1071.21 543.03
2386 0 83.2476 13.3217 1109 52.1118 1070.87 543.816
2387 0 88.5284 14.4925 1283 50.3375 1071.18 541.841
2388 0 90.3982 12.4449 1125 52.4853 1071.02 541.307
2389 0 95.3538 13.623 1299 51.2217 1071.06 539.589
2390 1 53.2603 10.0262 534 52.2341 1071.27 561.773
2391 0 52.2519 9.03317 472 54.1992 1071.91 559.629
2392 0 56.3155 13.1758 742 49.6375 1071.27 560.005
2393 0 58.261 11.4142 665 52.0541 1071.62 557.979
2394 0 59.0813 13.1514 777 50.8533 1071.83 557.252
2395 0 61.1761 12.3414 755 51.5139 1071.06 557.434
2396 0 60.1567 11.9022 716 52.7165 1071.57 555.566
2397 0 64.2839 13.5493 871 50.8312 1070.66 556.226
2398 0 66.3314 11.6385 772 52.4262 1071.03 555.514
2399 0 66.1207 13.1426 869 52.2463 1070.55 552.658
2400 0 70.2157 14.9967 1053 50.0513 1070.2 552.763
2401 0 75.3689 14.2234 1072 50.0009 1070.35 551.401
2402 0 74.3238 13.8179 1027 51.3077 1070.51 549.746
2403 0 76.2721 12.8618 981 52.3109 1070.48 546.49
2404 0 79.2818 13.4079 1063 51.5588 1069.99 550.681
2405 0 83.3111 13.0235 1085 51.7078 1069.69 549.225
2406 0 85.3348 14.4959 1237 50.5578 1069.73 547.99
2407 0 88.2374 14.597 1288 51.347 1069.66 543.532
2408 0 90.3665 14.2088 1284 51.919 1069.91 541.551
2409 0 93.3755 13.6438 1274 52.2504 1069.61 541.029
2410 0 96.2814 15.1431 1458 51.5583 1069.69 540.167
2411 0 101.173 16.0418 1623 50.8226 1069.43 538.196
2412 1 51.2985 10.7411 551 53.274 1068.79 563.799
2413 0 56.1835 9.54017 536 54.1474 1068.98 561.625
2414 0 58.2514 10.8839 634 52.9621 1069.18 561.603
2415 0 58.241 10.6798 622 53.709 1068.79 560.63
2416 0 61.102 10.8834 665 53.1218 1069.15 560.448
2417 0 60.0435 14.0731 845 51.2036 1068.36 556.63
2418 0 65.2603 13.1014 855 50.6023 1068.64 557.485
2419 0 67.2182 13.4041 901 50.5649 1068.69 554.954
2420 0 69.2155 13.4219 929 50.493 1068.61 555.767
2421 0 68.3138 12.911 882 51.7823 1068.5 553.052
2422 0 70.3241 12.414 873 52.1077 1068.87 552.037
2423 0 75.2321 12.3219 927 51.6958 1068.82 553.276
2424 0 78.1776 13.3158 1041 50.9404 1068.63 551.905
2425 0 79.2364 12.8855 1021 52.1606 1068.85 551.003
2426 0 83.138 15.5525 1293 49.7347 1068.93 550.012
2427 0 82.1133 12.6532 1039 52.9249 1068.68 547.742
2428 0 89.3393 14.6632 1310 50.3794 1068.22 547.934
2429 0 91.1905 14.2449 1299 51.0662 1068.44 543.979
2430 0 89.2135 12.4084 1107 53.5203 1068.33 541.369
2431 0 96.1563 12.0533 1159 53.6178 1068.6 541.419
2432 0 99.2284 13.3631 1326 52.3967 1068.75 537.22
2433 1 56.116 12.0999 679 50.7143 1068.47 561.95
2434 0 56.0932 11.3561 637 52.6845 1068.73 559.961
2435 0 58.0799 11.7769 684 51.6447 1068.54 559.572
2436 0 59.0979 13.2661 784 50.9732 1068.97 560.555
2437 0 62.1146 13.1209 815 51.4098 1068.91 556.996
2438 0 63.0576 14.0824 888 50.4696 1069.03 557.401
2439 0 65.0811 11.4473 745 53.1477 1068.33 555.322
2440 0 64.1323 11.3048 725 53.6083 1068.49 554.61
2441 0 68.1079 14.6532 998 50.4218 1068.24 554.913
2442 0 70.1338 13.2176 927 52.2157 1068.58 553.838
2443 0 73.1181 14.1552 1035 51.5005 1068.87 551.205
2444 0 74.111 12.4543 923 53.8537 1069.06 549.493
2445 0 78.0848 14.1513 1105 51.9566 1069.11 549.07
2446 0 80.1435 13.9125 1115 52.3426 1068.95 545.413
2447 0 83.0872 12.8299 1066 53.4268 1068.99 544.674
2448 0 85.0707 13.8003 1174 52.517 1069.07 545.051
2449 0 86.0435 12.4704 1073 54.1994 1069.73 542.233
2450 0 90.1445 14.6986 1325 52.1208 1069.32 540.465
2451 0 94.069 13.6814 1287 52.9417 1069.67 538.601
2452 0 96.0727 14.0519 1350 53.0385 1069.87 536.571
2453 0 96.0982 13.2052 1269 54.2333 1069.98 533.952
2454 0 101.104 14.2428 1440 51.0979 1069.63 536.043
2455 1 54.0624 7.60232 411 53.6788 1069.53 560.051
2456 0 57.0654 10.2514 585 51.5402 1070.02 560.159
2457 0 59.1019 12.0977 715 50.0895 1069.58 558.45
2458 0 62.1161 13.1528 817 49.3329 1070.23 555.803
2459 0 62.1033 12.7207 790 49.9405 1070.81 554.968
2460 0 66.025 14.6157 965 48.0933 1070.81 554.667
2461 0 66.0485 12.506 826 50.477 1071.04 552.454
2462 0 67.0887 11.9841 804 51.1878 1071.5 552.604
2463 0 72.1803 12.3579 892 50.1401 1071.48 550.655
2464 0 73.1404 13.604 995 48.7337 1071.94 551.493
2465 0 77.0982 14.4751 1116 48.0484 1072.47 550.641
2466 0 79.0783 14.6311 1157 47.8608 1072.58 548.196
2467 0 79.1421 13.2294 1047 49.5215 1072.67 542.582
2468 0 84.2321 14.6381 1233 48.0065 1072.29 544.697
2469 0 86.1714 15.0398 1296 47.9105 1072.22 541.15
2470 0 90.2331 12.368 1116 50.0878 1071.95 540.679
2471 0 91.1589 12.5934 1148 50.0287 1072.63 537.541
2472 0 95.1949 13.2255 1259 48.8006 1072.88 538.076
2473 0 97.2338 13.0819 1272 48.8986 1073.1 535.616
2474 1 53.1316 10.9351 581 47.4182 1072.99 558.945
2475 0 55.0196 11.6504 641 47.1045 1073.19 556.897
2476 0 56.0798 13.4451 754 46.0809 1073.57 556.406
2477 0 59.0644 11.1742 660 47.1303 1074.18 555.715
2478 0 61.1517 14.6357 895 44.7687 1074.29 554.584
2479 0 61.1332 12.8572 786 46.3333 1074.22 551.994
2480 0 63.1781 13.1216 829 45.7298 1074.17 551.905
2481 0 65.2436 13.1354 857 46.1645 1074.36 551.042
2482 0 65.0404 10.4397 679 47.9381 1074.13 551.837
2483 0 69.0626 13.7846 952 45.2994 1073.91 549.477
2484 0 68.0887 12.3222 839 46.8033 1073.4 547.423
2485 0 72.1923 12.6468 913 46.0679 1073.37 546.827
2486 0 75.2281 13.3727 1006 45.8926 1073.34 545.75
2487 0 78.0694 14.9482 1167 44.5844 1073.33 546.847
2488 0 78.1302 13.7335 1073 45.8173 1073.47 545.996
2489 0 79.1491 12.4701 987 46.8501 1072.98 543.813
2490 0 84.0663 14.3577 1207 45.0762 1073.47 541.471
2491 0 87.0822 14.4691 1260 45.1222 1072.97 539.19
2492 0 89.1103 13.5113 1204 45.8198 1073.02 540.207
2493 0 91.0312 14.0501 1279 45.7318 1072.97 539.953
2494 0 91.149 14.6244 1333 45.6174 1072.99 536.696
2495 0 95.1242 13.0041 1237 47.1027 1072.65 535.609
2496 0 100.152 14.2584 1428 45.9384 1073.12 535.41
2497 0 99.151 14.0896 1397 46.7409 1072.64 533.701
2498 0 102.173 15.0432 1537 46.0826 1072.74 531.398
2499 0 106.176 13.4776 1431 46.7715 1072.15 533.125
2500 1 60.079 10.353 622 46.9116 1072.44 555.445
2501 0 62.0862 10.3405 642 47.4019 1072.14 555.445
2502 0 65.1025 13.9012 905 44.7912 1072.23 553.897
2503 0 68.1208 13.1678 897 45.7737 1072.33 553.058
2504 0 68.2117 11.7722 803 47.4172 1072.36 550.088
2505 0 67.1568 12.6718 851 47.4324 1072.53 549.199
2506 0 73.196 13.1155 960 46.7896 1072.63 550.293
2507 0 74.1193 12.0886 896 47.6641 1072 550.548
2508 0 78.2391 12.5768 984 47.4248 1071.73 546.599
2509 0 80.1684 11.7378 941 49.1073 1071.57 543.922
2510 0 84.2075 13.8111 1163 47.7197 1071.81 543.483
2511 0 87.2375 13.8358 1207 48.0431 1071.94 540.987
2512 0 88.1944 13.6743 1206 48.5381 1071.95 539.813
2513 0 91.29 13.0135 1188 49.4596 1071.68 537.226
2514 0 95.3184 12.4215 1184 50.0228 1071.92 538.989
2515 0 97.1566 13.6275 1324 49.3837 1071.98 537.06
2516 0 100.223 13.9888 1402 49.0278 1071.83 537.631
2517 0 102.17 13.4579 1375 49.5084 1071.38 535.361
2518 0 108.204 14.1308 1529 48.811 1071.26 533.53
2519 0 113.287 15.4034 1745 47.604 1071.18 534.673
2520 1 59.1473 11.9701 708 48.9816 1070.64 558.771
2521 0 59.1782 10.3585 613 50.3703 1070.37 555.563
2522 0 64.0939 12.7469 817 48.4529 1070.42 556.25
2523 0 65.0595 12.0659 785 49.3567 1069.9 554.2
2524 0 69.0834 13.2883 918 47.8824 1070.11 554.282
2525 0 70.1284 13.404 940 47.8809 1069.8 554.938
2526 0 72.0865 12.6098 909 48.7657 1069.84 552.812
2527 0 73.0492 13.9221 1017 48.297 1069.58 551.145
2528 0 76.1118 12.6393 962 49.0343 1069.64 552.073
2529 0 79.0509 13.4597 1064 48.8167 1070.2 547.946
2530 0 82.0481 14.0284 1151 48.0964 1069.94 546.384
2531 0 85.1097 12.5603 1069 49.1328 1069.83 546.66
2532 0 87.0979 12.1128 1055 49.4246 1069.82 547.955
2533 0 90.1024 13.4958 1216 48.8651 1070 541.961
2534 0 92.113 13.1469 1211 49.019 1069.7 541.701
2535 0 97.1565 13.1952 1282 48.9228 1069.54 540.8
2536 0 99.1099 13.8533 1373 48.3015 1069.51 541.243
2537 0 101.261 11.8704 1202 50.5158 1069.67 537.326
2538 0 106.177 13.0443 1385 49.8542 1070.09 538.269
2539 1 58.1637 12.8431 747 49.3949 1069.53 558.506
2540 0 60.2393 14.7412 888 47.7477 1069.35 556.669
2541 0 63.1123 12.8026 808 49.177 1069.31 556.441
2542 0 64.1396 12.7067 815 49.6515 1069.72 554.572
2543 0 65.2347 14.1949 926 48.9687 1069.2 553.325
2544 0 68.0965 14.3767 979 48.5832 1068.93 556.091
2545 0 70.0695 12.7302 892 49.8217 1069.13 555.173
2546 0 70.1267 13.989 981 49.3935 1069.14 555.016
2547 0 74.1184 14.7737 1095 48.4137 1069.25 552.921
2548 0 77.1133 15.1984 1172 48.2756 1068.92 550.637
2549 0 77.1935 13.4597 1039 50.7488 1069.29 549.145
2550 0 80.0612 13.1275 1051 50.941 1069.65 549.214
2551 0 83.0973 14.8501 1234 49.1434 1069.66 551.11
2552 0 86.167 14.2978 1232 50.2232 1069.66 547.707
2553 0 86.3289 13.4254 1159 51.3563 1069.66 546.965
2554 0 90.1782 14.8816 1342 50.4232 1069.82 544.922
2555 0 92.1233 15.2079 1401 50.7887 1069.57 540.734
2556 1 47.2566 9.79757 463 54.8898 1068.92 561.838
2557 0 48.1652 11.5644 557 53.7953 1068.9 563.291
2558 0 54.1839 12.4022 672 52.1667 1068.57 563.155
2559 0 54.1542 11.7443 636 53.6242 1069.14 560.803
2560 0 56.0586 10.8636 609 53.9097 1069.28 562.282
2561 0 58.2179 14.0678 819 51.9145 1068.79 560.726
2562 0 60.0433 14.0399 843 52.535 1069.11 559.164
2563 0 60.1711 12.0157 723 54.4149 1068.79 560.12
2564 0 63.0776 12.3182 777 54.6512 1069.07 560.503
2565 0 65.2004 13.6502 890 53.273 1068.7 559.375
2566 0 68.1154 13.4037 913 55.2092 1068.72 557.388
2567 0 69.14 13.2051 913 55.8061 1068.82 557.171
2568 0 72.292 14.6074 1056 54.6979 1069.08 555.098
2569 0 74.1557 15.3731 1140 54.3325 1068.96 553.741
2570 0 76.2462 15.4106 1175 55.0391 1068.84 552.435
2571 0 80.1347 14.5754 1168 55.601 1068.93 552.64
2572 0 80.3098 14.2448 1144 56.8042 1068.72 549.865
2573 0 84.2183 14.1774 1194 56.9883 1068.58 547.851
2574 0 85.2372 14.2074 1211 57.1718 1068.45 546.149
2575 0 89.1599 15.5002 1382 56.0919 1068.47 545.616
2576 0 93.2997 15.9379 1487 55.3013 1068.7 545.754
2577 0 93.3321 12.9323 1207 58.6926 1068.63 546.289
2578 0 99.2211 16.2365 1611 55.6741 1068.65 542.928
2579 0 101.219 14.2166 1439 57.4322 1068.65 539.231
2580 0 102.182 15.2081 1554 56.713 1068 539.732
2581 0 103.183 15.3319 1582 155.223 1068.05 539.374
2582 1 58.2129 10.8395 631 58.4865 1068.17 564.261
2583 0 58.1099 11.2545 654 58.3425 1068.33 562.754
2584 0 61.0904 12.0805 738 57.7846 1068.65 559.259
2585 0 64.2112 13.2064 848 56.5943 1068.32 557.998
2586 0 67.1979 12.1135 814 57.5725 1068.4 557.345
2587 0 69.0984 13.7774 952 56.2668 1068.45 555.989
2588 0 72.3121 14.4374 1044 55.0086 1068.39 555.736
2589 0 73.2903 13.3033 975 56.1908 1068.68 554.312
2590 0 75.2121 13.1096 986 56.7505 1068.9 552.011
2591 0 79.2437 14.222 1127 55.0151 1068.88 551.614
2592 0 83.2235 14.0946 1173 55.2293 1069.22 549.364
2593 0 85.411 14.2019 1213 55.6867 1069.34 547.068
2594 0 87.1844 13.741 1198 56.222 1069.13 545.029
2595 1 49.352 8.97633 443 56.9684 1068.5 567.603
2596 0 49.3333 9.83109 485 57.967 1068.55 564.256
2597 0 51.4051 12.4501 640 55.2078 1069.3 564.503
2598 0 51.1999 11.8164 605 56.4446 1069.74 563.972
2599 0 53.1162 12.2938 653 55.9877 1070.63 562.436
2600 0 55.0346 12.3377 679 56.1222 1070.64 563.003
2601 0 55.1192 12.228 674 56.4466 1070.37 562.328
2602 0 58.0932 13.4956 784 54.7921 1070.23 562.342
2603 0 61.1081 12.797 782 55.3312 1070.3 559.449
2604 0 62.123 14.2942 888 54.2342 1070.38 559.161
2605 0 65.1383 15.0603 981 53.6769 1070.75 556.647
2606 0 64.0575 12.7698 818 56.4914 1071.02 556.257
2607 0 64.0575 12.7386 816 148.303 1072.01 556.279
2608 0 71.1093 13.866 986 55.1785 1071.96 553.625
2609 0 71.1049 13.8106 982 55.8055 1072.18 554.142
2610 0 74.0915 14.2122 1053 55.9088 1072.61 551.995
2611 0 78.1076 14.3392 1120 55.5241 1072.94 551.721
2612 0 78.1598 13.8946 1086 56.5433 1072.93 547.842
2613 0 82.2039 14.2086 1168 56.1875 1073.52 548.732
2614 0 85.1364 16.0331 1365 53.8696 1073.64 550.034
2615 0 88.176 15.9227 1404 54.2058 1073.7 546.981
2616 0 90.1245 15.0902 1360 55.8272 1073.97 543.851
2617 0 93.1579 15.1463 1411 55.7725 1074.03 543.848
2618 0 96.2128 15.5177 1493 55.0455 1073.87 543.273
2619 1 51.2041 9.58907 491 59.0122 1073.78 561.635
2620 0 53.0637 10.3084 547 58.1097 1073.72 561.441
2621 0 55.2361 10.953 605 58.1669 1073.9 556.567
2622 0 58.2377 12.1227 706 56.6289 1073.26 556.384
2623 0 60.2488 14.0584 847 54.5998 1073.45 555.92
2624 0 63.1438 12.5111 790 56.5873 1073.61 556.122
2625 0 62.0823 12.7412 791 56.3793 1073.92 555.133
2626 0 64.0681 12.1745 780 57.3218 1073.95 554.437
2627 0 68.0706 13.1334 894 55.2796 1073.88 552.847
2628 0 70.1096 12.4947 876 55.6963 1073.72 552.385
2629 0 70.188 12.8227 900 55.9111 1073.71 550.109
2630 0 73.186 13.0899 958 55.1722 1073.84 550.157
2631 0 77.2027 15.1549 1170 52.7675 1073.82 547.526
2632 0 80.1755 15.2665 1224 52.2574 1073.12 548.227
2633 0 81.3628 14.3432 1167 53.8029 1072.98 544.379
2634 0 84.2901 13.2163 1114 54.5916 1073.02 542.373
2635 0 86.4036 14.9762 1294 53.0811 1073.16 541.342
2636 0 91.4307 13.3434 1220 54.3344 1073.06 541.599
2637 0 94.1527 13.9029 1309 53.8816 1073.05 540.526
2638 0 97.2735 15.112 1470 52.3361 1073.01 540.786
2639 1 56.2913 11.8491 667 52.8801 1072.73 560.049
2640 0 58.1234 11.8713 690 53.1275 1072.64 559.31
2641 0 56.0982 12.4425 698 54.1074 1072.97 554.38
2642 0 62.0754 13.9991 869 51.29 1073.28 558.586
2643 0 62.082 11.5976 720 54.5181 1072.6 556.831
2644 0 62.1493 11.1988 696 55.217 1072.89 554.125
2645 0 65.1637 13.5965 886 52.8623 1072.52 553.244
2646 0 67.1085 12.8598 863 53.7486 1072.89 552.549
2647 0 70.1546 13.4845 946 53.3837 1072.93 548.445
2648 0 71.0823 12.0283 855 55 1072.8 547.444
2649 0 74.2292 11.5318 856 53.3107 1072.82 549.576
2650 0 76.1233 12.3352 939 52.361 1072.96 546.366
2651 0 82.2826 15.0579 1239 49.2115 1072.81 547.395
2652 0 84.1512 14.1531 1191 50.4475 1072.82 545.927
2653 0 82.224 11.3227 931 54.1633 1072.97 543.218
2654 0 89.1308 14.619 1303 50.4021 1072.68 544.824
2655 0 92.0667 14.3374 1320 51.2992 1072.34 541.727
2656 0 94.2992 13.5314 1276 52.3072 1072.54 539.554
2657 1 53.1126 10.3554 550 52.3255 1072.05 562.553
2658 0 54.2418 11.0063 597 52.8442 1072.26 559.687
2659 0 56.1959 12.1183 681 52.4273 1072 558.937
2660 0 58.1129 12.2176 710 52.8028 1072 557.287
2661 0 61.1089 13.4841 824 51.4454 1072.26 559.592
2662 0 60.0676 12.9687 779 53.0103 1072.26 555.429
2663 0 63.0979 13.899 877 52.0468 1072.28 555.493
2664 0 67.2888 12.6321 850 52.3365 1071.92 556.309
2665 0 64.1238 13.1464 843 53.3891 1071.93 553.52
2666 0 69.3337 14.7836 1025 51.6576 1071.99 552.796
2667 0 72.3031 14.6605 1060 51.4972 1071.67 553.119
2668 0 71.2879 13.2982 948 53.6224 1072.14 550.158
2669 0 74.2337 13.8886 1031 53.2473 1071.56 547.126
2670 0 77.2548 13.6432 1054 53.1309 1071.73 548.246
2671 0 78.2388 12.9475 1013 54.3603 1071.59 544.677
2672 0 83.2307 15.2468 1269 51.5926 1071.62 545.203
2673 0 85.1897 13.3349 1136 53.3706 1071.34 542.854
2674 0 87.2294 11.7621 1026 54.8928 1071.32 545.481
2675 0 90.1131 13.1058 1181 54.1617 1071 537.277
2676 0 93.2344 13.1282 1224 53.7704 1070.86 538.762
2677 0 98.2125 13.3792 1314 53.3714 1070.9 537.538
2678 0 101.283 14.4151 1460 52.3829 1070.96 535.684
2679 0 103.118 14.3621 1481 52.5719 1070.63 534.902
2680 0 106.2 13.371 1420 53.7225 1070.58 533.07
2681 1 57.0758 9.75896 557 54.07 1069.75 558.368
2682 0 58.0964 10.0695 585 53.2598 1070.78 556.901
2683 0 59.1081 12.5025 739 51.203 1070.9 557.457
2684 0 61.1096 11.3894 696 52.5187 1070.8 556.72
2685 0 63.1101 12.7713 806 51.4132 1070.89 556.357
2686 0 65.0574 13.9262 906 51.1236 1070.1 556.494
2687 0 67.0747 13.1644 883 52.0396 1070.23 556.451
2688 0 69.0754 13.4201 927 52.3398 1070.09 553.078
2689 0 72.0705 13.681 986 51.7789 1070.17 554.748
2690 0 73.0768 13.52 988 52.4828 1069.89 550.74
2691 0 73.1036 11.9009 870 54.6368 1069.88 550.79
2692 0 77.098 13.3207 1027 53.6115 1069.39 548.121
2693 0 79.0888 14.3004 1131 53.1034 1069.18 546.563
2694 0 80.076 12.663 1014 55.2919 1069.27 544.909
2695 0 85.1313 14.5188 1236 53.2055 1069.21 547.244
2696 0 87.2361 14.2258 1241 54.2111 1069.46 544.927
2697 0 91.0724 15.57 1418 52.842 1069.36 542.827
2698 0 92.052 14.2637 1313 55.1714 1069.03 542.391
2699 0 94.1581 13.4986 1271 56.033 1069.41 543.402
2700 0 98.1375 12.5233 1229 57.3841 1069.79 539.33
2701 0 102.193 14.3258 1464 55.6995 1069.8 534.842
2702 1 55.1165 9.76114 538 58.0595 1069.61 560.582
2703 0 58.0932 11.3094 657 56.8204 1069.84 558.898
2704 0 59.0527 10.3806 613 57.6933 1069.7 559.4
2705 0 59.0306 12.6714 748 56.0936 1069.65 557.011
2706 0 61.1314 12.0887 739 56.724 1069.22 558.76
2707 0 66.0325 13.7811 910 54.3022 1069.51 557.891
2708 0 68.0683 13.9419 949 54.5553 1069.73 556.013
2709 0 69.0861 13.447 929 55.3014 1069.92 555.183
2710 0 72.1744 12.83 926 55.5724 1069.77 553.761
2711 0 74.0671 14.2303 1054 53.9753 1069.62 554.717
2712 0 76.1564 14.7066 1120 53.9536 1069.16 552.376
2713 0 77.0763 14.3365 1105 54.4869 1069.4 550.556
2714 0 81.1095 13.451 1091 55.4445 1069.2 549.357
2715 0 81.0619 12.5706 1019 56.3454 1069.4 549.256
2716 0 85.1866 13.6993 1167 54.2836 1069.56 546.028
2717 0 89.083 13.1114 1168 54.9469 1069.43 544.763
2718 0 90.0604 14.9122 1343 53.3723 1069.92 542.139
2719 0 94.1832 15.215 1433 53.0509 1069.48 543.429
2720 0 95.0934 13.3658 1271 55.247 1069.4 541.799
2721 0 96.098 13.2989 1278 55.6909 1069.31 538.338
2722 0 100.139 13.611 1363 55.3566 1069.54 538.365
2723 0 101.103 12.8582 1300 56.4638 1069.43 535.995
2724 0 108.105 14.0604 1520 54.8474 1069.58 535.325
2725 0 111.127 15.2528 1695 53.6077 1069.8 534.368
2726 1 62.0889 9.76021 606 56.9257 1069.4 558.573
2727 0 64.0934 11.0776 710 55.4352 1069.18 555.986
2728 0 66.0655 12.6087 833 53.6158 1069.3 558.25
2729 0 69.1402 12.6265 873 54.1466 1069.85 555.647
2730 0 71.2607 13.7242 978 53.1973 1069.22 555.971
2731 0 74.1322 12.3428 915 54.7104 1069.96 551.416
