time division length width area intensity CMx CMy
0 0 80.2473 13.1842 1058 77.3611 1324.83 568.871
1 1 38.1481 10.0398 383 78.6762 1325.39 588.465
2 0 40.105 10.1484 407 78.0246 1325.42 588.317
3 0 43.0859 11.4887 495 75.0202 1325.52 588.212
4 0 45.1352 12.3629 558 73.4588 1325.25 585.833
5 0 46.1086 12.1236 559 73.8748 1325.09 585.358
6 0 47.1392 12.6222 595 73.3597 1325.15 582.494
7 0 49.0541 12.3945 608 73.8783 1325.63 584.589
8 0 52.0889 12.2867 640 74.3188 1325.97 584.041
9 0 51.0535 11.7524 600 77.2433 1326.08 582.862
10 0 53.0599 12.0807 641 77.1092 1325.46 581.306
11 0 53.0785 11.6997 621 78.6329 1325.16 580.754
12 0 55.0485 12.2256 673 78.0906 1325.43 580.695
13 0 56.1979 11.9755 673 78.9554 1325.59 578.725
14 0 59.1096 13.1451 777 75.7104 1325.19 578.384
15 0 61.1278 12.8747 787 75.5222 1325.26 575.794
16 0 61.0947 12.1451 742 77.6375 1325.24 574.694
17 0 64.099 12.6679 812 76.6416 1325.08 574.202
18 0 67.1785 12.6231 848 76.0295 1324.94 574.199
19 0 67.0749 12.7469 855 76.7263 1324.98 573.615
20 0 69.1594 12.9989 899 77.2558 1325.35 571.129
21 0 71.1874 12.8534 915 77.2678 1325.07 570.964
22 0 75.0936 13.2368 994 76.4507 1324.67 569.132
23 0 78.1423 13.9489 1090 74.9541 1325.29 568.194
24 0 76.1079 12.4166 945 77.018 1325.23 567.235
25 0 79.1452 13.1151 1038 81.1291 1325.31 567.275
26 0 80.1653 13.4846 1081 79.4995 1325.32 567.298
27 0 86.1556 13.8703 1195 102.744 1325.36 563.795
28 1 47.0551 10.7746 507 78.9665 1325.67 584.059
29 0 48.0948 10.3753 499 80.0621 1325.8 582.828
30 0 48.1053 10.3523 498 78.3735 1325.85 582.608
31 0 50.1046 11.1367 558 77.5968 1325.87 580.314
32 0 52.1475 11.2374 586 78.442 1325.96 581.457
33 0 53.3119 11.1983 597 77.9548 1325.89 582.531
34 0 55.3283 12.5975 697 76.0359 1326.41 579.927
35 0 57.1773 13.2395 757 74.2021 1326.15 577.474
36 0 59.1428 12.4276 735 75.3878 1326.23 577.165
37 0 62.1743 12.6741 788 74.415 1326.26 578.033
38 0 63.2185 11.5472 730 76.9836 1326.01 576.267
39 0 66.0932 13.133 868 73.7442 1326.36 575.902
40 0 69.1478 12.7119 879 73.9181 1326.39 574.19
41 0 69.1434 12.597 871 74.9116 1326.07 573.08
42 0 74.1554 12.9997 964 73.1763 1325.46 571.139
43 0 76.2212 13.4215 1023 72.9658 1325.94 569.71
44 0 78.1399 13.0023 1016 73.8967 1326.25 569.847
45 0 80.1232 13.4293 1076 73.3903 1326.19 567.201
46 0 83.1707 13.2258 1100 74.1273 1326.37 566.328
47 0 82.1714 12.912 1061 76.1885 1326.49 564.509
48 0 87.2756 13.3256 1163 74.5924 1326.59 565.256
49 0 89.1605 12.8644 1147 76.5414 1326.49 561.132
50 0 92.2201 13.1642 1214 75.3913 1326.75 561.918
51 0 94.1865 14.3545 1352 74.1546 1327.1 559.97
52 0 97.1708 13.9857 1359 74.9536 1326.72 559.284
53 0 98.1263 14.0329 1377 75.7001 1326.25 557.634
54 0 101.272 13.7551 1393 68.6892 1326.31 555.352
55 0 105.294 13.9704 1471 68.7063 1326.35 554.188
56 0 110.356 14.5619 1607 67.1437 1327.07 553.781
57 0 111.364 13.2897 1480 70.6149 1326.93 550.974
58 1 62.1272 11.1062 690 67.6928 1326.92 579.393
59 0 64.179 12.1535 780 66.9449 1327.31 575.31
60 0 66.1632 11.9251 789 66.91 1327.4 576.837
61 0 67.2221 12.3025 827 68.0024 1327.58 575.214
62 0 70.2488 12.4842 877 67.8871 1327.35 573.448
63 0 71.1573 12.2827 874 68.619 1326.82 572.316
64 0 69.1555 11.5103 796 171.129 1326.77 570.966
65 0 77.2048 13.095 1011 67.3284 1327.43 569.002
66 0 77.3491 12.3983 959 68.7341 1327.27 567.202
67 0 80.3505 12.2961 988 69.2996 1327.2 565.237
68 0 82.3492 12.3984 1021 68.4261 1327.35 565.441
69 0 84.2374 12.1561 1024 69.5146 1327.31 561.477
70 0 87.3247 11.9096 1040 69.3231 1327.44 560.439
71 0 91.4523 12.4218 1136 68.3961 1327.81 559.121
72 0 95.3756 12.844 1225 67.4286 1328.32 556.623
73 0 96.3792 12.6791 1222 68.0295 1328.83 555.655
74 0 99.3924 12.7475 1267 67.7482 1328.73 555.267
75 0 101.411 11.6752 1184 69.288 1329.18 551.373
76 0 106.314 12.4536 1324 67.9743 1328.84 549.014
77 0 109.288 13.3135 1455 66.488 1328.65 549.706
78 1 58.1871 10.6553 620 66.0742 1329 576.129
79 0 61.1833 10.2642 628 66.2787 1329.74 573.584
80 0 62.1632 11.4698 713 66.2847 1329.3 570.098
81 0 66.2586 12.1343 804 65.0908 1329.88 567.578
82 0 69.1212 12.1815 842 63.8895 1330.69 568.448
83 0 72.2312 12.6954 917 63.3304 1330.58 566.788
84 0 75.264 12.5425 944 63.8453 1331.16 565.709
85 0 75.2412 11.7223 882 65.4694 1331.45 563.296
86 0 80.2461 12.6486 1015 62.8601 1331.26 563.756
87 0 82.3743 11.6177 957 63.2936 1331.52 562.436
88 0 83.2595 11.6383 969 63.2962 1331.66 559.753
89 0 86.1477 12.3161 1061 62.5495 1331.66 557.168
90 0 91.2195 12.6837 1157 62.242 1332.32 555.582
91 1 48.1357 9.7433 469 60.0469 1333.51 577.659
92 0 49.0639 9.23286 453 62.6998 1333.84 577.684
93 0 50.0819 10.0036 501 63.4012 1333.71 573.078
94 0 53.132 10.5398 560 61.8446 1333.92 573.811
95 0 53.3432 11.4166 609 60.5764 1333.05 571.115
96 0 55.2655 10.911 603 59.6949 1333.12 572.604
97 0 55.344 11.04 611 59.8822 1333.15 570.989
98 0 57.3588 10.844 622 59.8312 1333.01 570.444
99 0 57.1697 10.67 610 60.718 1332.98 569.246
100 0 59.2178 11.6688 691 60.0854 1332.99 568.57
101 0 61.2653 11.8991 729 60.8395 1333.28 566.936
102 0 62.2105 11.8629 738 62.4593 1332.94 566.646
103 0 67.196 11.8906 799 62.8285 1332.75 564.812
104 0 67.2947 12.1704 819 63.293 1333.12 565.065
105 0 69.3697 11.9649 830 63.8169 1332.75 562.777
106 0 71.1658 11.5926 825 64.2012 1333.5 562.945
107 0 74.199 13.1808 978 63.137 1333.17 560.856
108 0 75.1541 12.0818 908 65.4493 1333.45 560.715
109 0 78.1204 12.4167 970 64.9402 1332.93 559.464
110 0 80.1291 12.1804 976 66.1137 1332.7 557.007
111 0 82.2655 11.5966 954 67.0734 1332.55 555.868
112 1 44.1461 10.9183 482 63.2448 1333.25 573.929
113 0 48.2527 9.90618 478 63.046 1332.63 574.803
114 0 49.372 11.1197 549 62.3424 1332.52 571.65
115 0 51.3383 10.0899 518 63.0753 1332.81 572.431
116 0 52.2733 12.6833 663 61.0543 1332.26 569.932
117 0 53.3775 11.1658 596 63.5134 1332.28 569.822
118 0 56.2914 11.7425 661 62.531 1332.25 569.629
119 0 54.1856 11.4421 620 64.2226 1331.79 569.479
120 0 58.1763 12.5652 731 61.9535 1332.47 568.585
121 0 60.2874 11.7603 709 63.0451 1332.59 567.755
122 0 60.2221 12.1052 729 62.8148 1332.51 566.735
123 0 62.1782 12.2229 760 62.9658 1332.69 566.397
124 0 64.1123 12.7121 815 62.6135 1332.27 565.486
125 0 64.1425 12.1604 780 64.0128 1332.27 565.433
126 0 67.207 12.7963 860 63.1895 1331.81 563.691
127 0 68.1736 12.8495 876 63.1438 1331.64 564.042
128 0 71.1837 12.3905 882 64.2517 1331.54 562.122
129 0 73.1498 13.0964 958 63.595 1331.2 561.469
130 0 73.1498 13.0417 954 162.544 1331.2 561.514
131 1 39.0621 9.2161 360 65.6556 1331.71 579.275
132 0 42.2146 10.873 459 63.061 1331.42 579.155
133 0 43.141 11.2654 486 63.6914 1330.85 577.167
134 0 44.1324 10.3326 456 64.9035 1331.19 578.151
135 0 45.1539 9.85519 445 65.4112 1331.48 576.784
136 0 47.1557 12.1936 575 62.1426 1331.09 575.224
137 0 49.1737 12.6084 620 62.0242 1331.22 575.648
138 0 49.263 11.2661 555 64.5171 1331.46 575.175
139 0 51.1598 13.7999 706 61.0014 1330.75 573.948
140 0 51.2714 11.8585 608 64.4408 1331.09 575.497
141 0 54.2443 11.7247 636 64.2987 1331.06 573.187
142 0 55.182 11.8154 652 64.2117 1330.68 571.785
143 0 57.1356 11.919 681 64.3392 1330.56 570.229
144 0 56.2382 11.7002 658 65.1474 1330.53 571.122
145 0 60.2337 12.7836 770 63.9039 1330.26 569.366
146 0 62.3432 13.0407 813 62.8635 1330.2 569.581
147 0 62.1819 11.9649 744 65.4987 1330.03 568.117
148 0 64.1716 12.4354 798 64.3697 1329.74 567.826
149 0 66.2229 13.0015 861 64.4855 1329.66 565.362
150 0 67.1809 13.0096 874 64.6545 1329.61 565.864
151 0 70.2098 12.9754 911 64.3469 1329.97 566.09
152 0 72.2468 12.3327 891 65.0561 1330.16 566.342
153 0 75.2485 12.9969 978 65.1585 1329.59 562.459
154 0 77.3142 13.0895 1012 65.2164 1329.68 561.384
155 0 81.1972 12.8453 1043 65.6059 1329.73 559.514
156 0 82.2718 12.6532 1041 66.6119 1329.67 559.055
157 1 43.1666 11.7683 508 64.2894 1330.15 578.362
158 0 44.2483 11.9327 528 64.7348 1329.48 577.25
159 0 44.2382 11.9128 527 65.5712 1329.81 576.342
160 0 45.257 11.3132 512 66.3164 1329.33 576.936
161 0 47.2479 11.7254 554 65.9097 1329.46 575.662
162 0 50.2755 11.9144 599 65.0968 1329.54 574.503
163 0 51.4219 11.3959 586 65.4727 1329.17 574.717
164 0 53.311 11.3673 606 65.6436 1329.51 573.474
165 0 53.4365 11.4341 611 66.0442 1329.38 572.704
166 0 55.2233 11.6255 642 66.1526 1329.57 572.565
167 0 57.2488 11.6334 666 66.2523 1329.75 571.745
168 0 56.1721 12.5507 705 65.6837 1330.06 572.129
169 0 57.3153 12.5621 720 65.7417 1330.42 570.561
170 0 61.3408 13.1071 804 64.8246 1330.17 569.121
171 0 63.274 12.7066 804 64.8669 1330.41 568.17
172 0 64.2114 13.222 849 64.5724 1330.52 567.642
173 0 66.2318 13.2414 877 65.1802 1330.99 566.575
174 0 67.1035 13.889 932 64.6878 1330.95 565.826
175 0 68.134 13.1212 894 66.2841 1331.48 564.287
176 0 70.2596 13.0943 920 66.3793 1331.55 564.029
177 0 71.1786 12.6302 899 67.693 1331.77 562.217
178 0 75.2543 13.2883 1000 66.399 1331.73 561.672
179 0 78.3358 12.7911 1002 67.4461 1331.83 560.37
180 0 81.2091 13.2251 1074 67.1732 1332.56 557.67
181 1 44.1448 10.4203 460 67.55 1332.95 577.191
182 0 44.2224 9.5879 424 68.342 1333.42 578.189
183 0 48.2138 11.3246 546 67.0073 1333.35 575.451
184 0 47.2147 11.31 534 68.7266 1333.51 574.985
185 0 50.1623 12.7785 641 66.649 1333.58 572.697
186 0 52.2439 13.0159 680 65.9882 1334.07 573.132
187 0 53.1326 13.024 692 66.3613 1333.9 570.321
188 0 54.1956 12.1966 661 67.4009 1334.09 571.095
189 0 56.2542 12.4257 699 67.2103 1334.11 568.408
190 0 58.2864 13.142 766 66.2611 1334.02 566.965
191 0 59.1631 13.3698 791 66.4286 1334.54 567.15
192 0 64.1908 13.491 866 65.4053 1334.58 565.733
193 0 64.2203 13.0333 837 66.4301 1335 564.953
194 0 67.1626 13.0579 877 64.4162 1334.71 564.543
195 0 68.1743 14.0962 961 62.2872 1335.22 563.011
196 0 70.1462 13.5574 951 62.1409 1334.76 562.688
197 0 73.2547 13.9513 1022 62.6947 1334.59 562.661
198 0 76.1915 13.9254 1061 64.6296 1334.75 559.972
199 0 76.1805 13.8093 1052 67.4392 1334.7 558.741
200 1 42.1084 10.6867 450 70.74 1336.05 575.767
201 0 44.0842 10.548 465 70.8602 1336.25 575.856
202 0 46.0837 11.0234 508 71.9213 1336.15 573.787
203 0 46.1421 10.7061 494 72.2854 1336.13 573.921
204 0 49.1532 12.5729 618 69.5534 1335.52 573.587
205 0 49.2204 12.0275 592 71.4375 1334.96 571.674
206 0 51.1915 12.2286 626 71.8722 1335.08 570.623
207 0 52.1895 12.2055 637 71.7692 1335.2 571.807
208 0 53.344 12.71 678 71.6711 1335.93 569.497
209 0 54.1933 12.4 672 72.5015 1335.28 569.67
210 0 57.3322 13.0468 748 71.4051 1335.55 568.184
211 0 57.1966 12.1336 694 73.2305 1335.37 567.591
212 0 60.1771 12.5297 754 72.8408 1335.24 566.538
213 0 62.1719 13.3179 828 71.8345 1334.97 565.909
214 0 64.0969 12.8399 823 72.6051 1335.38 566.656
215 0 65.2386 12.9984 848 73.3844 1335.26 565.001
216 0 69.1212 13.3823 925 71.6973 1335.49 563.541
217 0 68.1606 12.5586 856 74.2745 1334.51 562.597
218 0 72.1546 13.4572 971 72.8733 1334.84 560.483
219 0 70.1559 10.0776 707 79.3239 1334.29 556.372
220 0 78.162 12.6916 992 73.5736 1334.2 559.351
221 1 42.1555 10.0105 422 74.4739 1334.91 577.329
222 0 45.0871 10.6461 480 74.4292 1334.55 575.39
223 0 49.2802 10.7142 528 73.6042 1333.94 575.337
224 0 49.1319 12.0085 590 72.4847 1333.81 575.368
225 0 50.2272 12.3837 622 72.4228 1333.42 573.83
226 0 53.3637 12.218 652 72.1534 1333.74 572.925
227 0 52.3035 11.8348 619 73.9774 1333.22 571.964
228 0 55.2062 11.9914 662 73.7689 1333.29 572.662
229 0 56.2876 12.2229 688 74.6788 1332.95 569.846
230 0 57.2036 12.8314 734 74.0559 1333.09 568.323
231 0 60.3177 12.6165 761 73.5874 1333.16 569.158
232 0 62.1716 13.0445 811 73.5413 1332.89 568.284
233 0 63.1498 12.9692 819 73.3651 1332.85 568.842
234 0 64.2691 13.2101 849 74.0236 1331.6 565.973
235 0 68.2755 12.889 880 74.3034 1331.81 563.857
236 0 69.2266 13.0297 902 74.092 1331.93 562.963
237 0 71.457 12.609 901 74.8158 1331.23 563.252
238 1 39.1604 10.0101 392 75.1939 1331.65 579.929
239 0 40.1775 10.7025 430 74.0605 1331.94 578.884
240 0 39.1122 11.0451 432 73.6111 1332.49 579.986
241 0 42.1936 10.9495 462 73.4892 1332.24 578.918
242 0 44.0798 12.2732 541 70.9002 1332.15 578.288
243 0 44.1202 11.922 526 71.2662 1332.32 577.321
244 0 43.2286 11.1038 480 72.6688 1331.45 577.712
245 0 44.296 11.9198 528 71.4678 1331.22 578.294
246 0 45.2359 11.3848 515 72.565 1331.02 577.887
247 0 47.2495 11.3017 534 72.6404 1331.19 576.431
248 0 49.2777 12.0136 592 71.1605 1331.55 576.677
249 0 51.2048 12.2449 627 70.7416 1330.64 576.716
250 0 51.2353 12.1206 621 72.124 1330.72 574.726
251 0 53.3046 12.1753 649 71.4468 1330.63 574.122
252 0 55.2102 11.7551 649 71.4407 1331.23 573.986
253 0 56.3683 11.5136 649 72.7982 1330.98 572.616
254 0 57.3002 12.0768 692 71.7991 1330.63 573.535
255 0 60.2031 12.6405 761 70.293 1330.77 573.344
256 0 60.2593 11.5833 698 72.6146 1330.66 572.838
257 0 62.2807 12.3313 768 71.3958 1330.58 571.398
258 0 64.2391 12.3756 795 71.3975 1330.81 570.317
259 0 67.2444 13.0717 879 69.9488 1330.59 568.953
260 0 68.1841 13.0969 893 70.4894 1329.68 566.41
261 0 70.1679 13.3109 934 70.1403 1330.13 566.63
262 0 74.1826 13.1163 973 70.1377 1330.29 564.132
263 1 36.2125 10.1898 369 69.336 1330.74 584.379
264 0 39.2155 10.8886 427 68.548 1330.65 583.934
265 0 39.1052 10.2288 400 70.67 1330.8 581.762
266 0 40.1181 11.5658 464 69.0991 1330.85 580.849
267 0 43.18 11.9268 515 68.7515 1330.13 580.386
268 0 43.3758 10.9278 474 71.0675 1330.22 579.709
269 0 45.3153 11.9606 542 69.2915 1329.94 579.459
270 0 48.259 11.8527 572 69.3217 1329.96 579.365
271 0 48.2455 10.7368 518 70.9228 1330.11 579.824
272 0 50.2788 12.4904 628 68.5032 1330.38 577.632
273 0 52.3397 12.6673 663 68.178 1330.53 576.602
274 0 52.2839 11.3037 591 71.0931 1330.35 576.056
275 0 53.1903 11.5999 617 71.3323 1330.32 575.538
276 0 54.2683 12.4382 675 70.84 1330.21 573.963
277 0 56.421 12.2295 690 70.8232 1330.18 573.416
278 0 57.1776 12.4349 711 70.7426 1330.7 572.097
279 0 59.3222 12.5417 744 70.4059 1330.92 572.077
280 0 60.3207 12.218 737 70.8128 1331.36 570.29
281 0 62.4123 12.4334 776 70.1714 1331.43 569.106
282 0 64.264 12.8065 823 69.2272 1331.64 568.038
283 0 69.4918 13.2102 918 67.5773 1331.71 566.473
284 0 69.482 11.816 821 70.2558 1331.34 564.888
285 0 72.3426 11.9708 866 70.0162 1331.41 563.74
286 1 39.3446 10.1157 398 69.4045 1331.92 579.505
287 0 41.3706 10.4422 432 67.8704 1331.64 579.516
288 0 42.3011 11.1345 471 66.7771 1332.23 579.522
289 0 43.3223 11.1721 484 67.4855 1331.92 577.399
290 0 45.2467 11.6915 529 66.4405 1332.13 576.231
291 0 45.2457 11.095 502 68.1574 1332.63 574.876
292 0 48.2742 11.4761 554 66.2473 1333.23 575.056
293 0 47.2739 11.2113 530 67.1472 1332.93 573.974
294 0 49.1686 12.0605 593 65.8229 1332.98 573.793
295 0 50.3193 11.9636 602 66.1196 1332.86 573.477
296 0 52.2884 12.2972 643 65.8212 1333 571.339
297 0 54.1875 10.9066 591 67.9509 1332.91 570.594
298 0 55.2246 12.4944 690 65.4493 1333.4 570.359
299 0 55.304 12.3318 682 66.3387 1333.56 568.236
300 0 58.1753 12.978 755 65.1974 1333.53 566.017
301 0 61.2564 12.5538 769 65.2588 1333.92 564.623
302 0 62.4702 11.8457 740 66.0432 1334.2 564.432
303 0 64.289 12.4282 799 65.1477 1333.82 564.049
304 0 66.4279 11.1098 738 66.2751 1333.55 562.043
305 1 33.2493 9.14306 304 64.7862 1334.13 577.921
306 0 36.3224 9.82865 357 62.8515 1333.79 577.44
307 0 36.2656 10.3404 375 63.1307 1333.74 575.597
308 0 39.251 10.2163 401 62.0623 1333.69 576.431
309 0 39.3703 10.9727 432 62.9144 1333.89 573.887
310 0 41.5046 11.1072 461 62.3644 1333.66 572.902
311 0 41.316 10.6738 441 63.0839 1334.54 572.293
312 0 43.4354 11.3041 491 61.7923 1334.46 572.316
313 0 45.3672 10.7126 486 62.1831 1334.49 571.473
314 0 48.3865 10.5195 509 61.6051 1334.55 569.004
315 0 48.3035 10.5997 512 61.9629 1334.09 570.027
316 0 51.2873 11.4648 588 59.9881 1334.06 569.264
317 0 51.3897 11.656 599 60.4424 1334.34 567.958
318 0 53.2023 12.1611 647 59.8485 1333.72 566.294
319 0 55.2562 11.5643 639 60.4554 1333.76 565.604
320 0 56.3764 10.8201 610 61.0443 1333.45 566.215
321 0 60.315 12.2192 737 59.1479 1333.37 564.818
322 0 59.2374 11.8506 702 60.7764 1333.35 563.41
323 0 62.3662 11.1599 696 60.5 1333.26 565.214
324 0 62.2076 11.108 691 61.097 1333.37 563.224
325 0 65.3506 11.3541 742 61.0889 1332.74 560.627
326 0 69.2376 12.1321 840 59.8869 1332.8 559.48
327 0 72.43 12.412 899 59.4705 1332.9 558.898
328 1 39.2479 8.76481 344 60.6163 1332.96 576.753
329 0 41.2575 11.0041 454 59.2291 1332.28 575.304
330 0 43.2865 9.95691 431 60.3434 1332.45 574.821
331 0 43.3907 10.0021 434 60.7005 1332.32 574.804
332 0 43.3496 11.2342 487 60.1068 1332.38 573.83
333 0 44.3994 11.6668 518 60.3687 1332.3 573.255
334 0 46.2135 12.2475 566 59.7951 1331.81 571.389
335 0 47.401 11.0124 522 61.7816 1332.26 571.412
336 0 49.5771 10.7509 533 61.5291 1331.8 570.659
337 0 49.2805 10.6736 526 59.9221 1332.35 571.139
338 0 51.2689 11.3129 580 59.4931 1332.17 569.167
339 0 52.3806 11.2637 590 59.4153 1331.78 570.712
340 0 54.2316 10.9715 595 59.6387 1331.95 569.729
341 0 56.2547 11.8568 667 58.9505 1331.49 568.01
342 0 57.1208 12.3423 705 58.9234 1331.11 566.586
343 0 58.186 10.7758 627 60.5343 1331.54 568.026
344 0 60.2395 12.7159 766 58.8042 1331.44 566.401
345 0 60.122 11.9756 720 60.6069 1331.2 565.711
346 0 63.2428 12.6022 797 60.0113 1331.5 563.91
347 0 66.1374 12.6857 839 59.441 1331.39 562.72
348 0 68.1295 13.1514 896 58.9821 1331.42 562.644
349 0 69.142 12.5973 871 60.403 1331.71 562.122
350 0 71.1751 12.4341 885 60.9006 1331.37 561.358
351 0 72.2473 13.2877 960 59.476 1330.99 558.69
352 0 75.1389 11.7116 880 61.4023 1331.32 558.502
353 0 78.0851 12.3071 961 60.2893 1331.18 558.7
354 0 81.2409 12.4322 1010 60.5525 1331.33 556.282
355 0 84.155 12.4889 1051 60.8173 1331.16 554.144
356 1 44.103 10.022 442 61.0724 1331.6 573.715
357 0 45.1314 11.4776 518 62.0985 1331.54 569.931
358 0 46.058 9.90056 456 62.943 1331.5 570.52
359 0 48.0301 10.5351 506 63.3261 1331.27 569.451
360 0 51.2416 11.3189 580 62.0983 1330.84 566.498
361 0 48.1574 10.9225 526 64.2795 1330.01 564.47
362 0 53.0379 12.1988 647 63.7156 1331.29 565.87
363 0 54.2003 11.8634 643 64.5925 1331.08 567.305
364 0 56.1603 12.7492 716 63.1941 1331.19 569.074
365 0 57.154 12.3876 708 65.2345 1331.29 566.599
366 0 59.1 13.0118 769 64.7568 1331.41 567.36
367 0 60.195 12.6256 760 65.1632 1332.1 566.788
368 0 64.1614 12.4841 801 64.764 1332.39 565.755
369 0 66.4548 12.3693 822 65.5925 1332.68 563.765
370 0 65.1849 12.733 830 66.0446 1332.56 563.924
371 0 67.2507 12.8177 862 66.1995 1332.36 561.524
372 0 71.2087 12.6529 901 66.2408 1332.61 562.063
373 0 73.1055 13.1591 962 66.1528 1332.39 559.603
374 0 74.1844 13.8708 1029 65.9155 1332.71 558.6
375 0 77.2007 13.1087 1012 67.164 1333.12 559.087
376 0 79.3649 13.6836 1086 65.4936 1333.42 556.423
377 0 82.201 13.832 1137 65.146 1333.61 555.047
378 0 86.2595 13.7956 1190 65.3807 1333.34 554.034
379 0 88.217 14.1129 1245 65.6884 1333.49 551.19
380 0 89.1811 13.6688 1219 67.1649 1333.73 549.093
381 1 48.1622 10.8176 521 67.5048 1334.39 572.793
382 0 50.1201 11.7917 591 67.7343 1334.54 571.127
383 0 50.3458 11.7587 592 68.5338 1334.71 569.963
384 0 52.2204 10.9153 570 69.5667 1334.74 570.068
385 0 52.26 12.61 659 68.5357 1334.77 568.279
386 0 55.2282 12.5842 695 68.3755 1334.89 568.729
387 0 58.1971 12.9732 755 67.6331 1334.79 567.049
388 0 59.3754 12.6315 750 68.584 1334.89 565.273
389 0 61.2409 11.7732 721 69.656 1335.36 565.279
390 0 65.1791 13.1024 854 67.719 1334.94 562.676
391 0 67.2782 12.8422 864 68.1354 1335.25 562.203
392 0 69.2348 13.5914 941 67.2806 1335.22 559.812
393 0 69.2178 12.5401 868 69.2212 1335.18 561.031
394 0 75.1771 13.4216 1009 67.7929 1335.2 558.148
395 0 76.227 13.4204 1023 68.262 1336.01 557.445
396 0 79.3602 13.8609 1100 67.8527 1335.69 556.351
397 0 82.3326 13.8584 1141 68.3532 1336.01 554.642
398 0 85.4092 13.0899 1118 69.9651 1335.8 552.406
399 1 47.2962 10.9311 517 68.3191 1336.27 573.414
400 0 46.1984 11.5372 533 69.3096 1335.56 570.069
401 0 47.2489 11.1325 526 70.0551 1335.95 570.838
402 0 49.2565 10.2931 507 70.6864 1335.9 570.765
403 0 51.2362 11.6324 596 69.0319 1335.59 569.505
404 0 52.1562 11.7915 615 68.9659 1336.54 567.691
405 0 55.1603 12.4002 684 68.4006 1336.68 565.832
406 0 57.2267 11.9699 685 68.1212 1336.8 566.895
407 0 60.2163 12.0067 723 67.9225 1336.31 565.418
408 0 60.1494 12.4191 747 67.6372 1336.4 564.398
409 0 63.331 12.6952 804 67.0535 1336.03 564.348
410 0 65.2813 12.7295 831 67.0806 1335.83 562.226
411 0 67.4246 12.844 866 66.6109 1335.5 561.291
412 0 69.4189 12.5326 870 66.969 1335.38 558.862
413 0 71.472 12.0047 858 67.5956 1335.4 559.573
414 0 72.2219 12.6139 911 67.0604 1334.66 557.902
415 0 74.5072 11.9049 887 68.2649 1334.75 555.963
416 1 40.3676 9.8594 398 67.0528 1335.18 573.239
417 0 39.4199 8.39678 331 67.3686 1335.01 576.224
418 0 40.3836 10.2269 413 66.7579 1334.86 573.99
419 0 42.3462 10.792 457 63.8425 1334.24 572.545
420 0 44.4485 10.394 462 64.039 1334.07 573.271
421 0 44.3168 10.786 478 64.5607 1333.93 573.49
422 0 45.27 11.575 524 66.4065 1333.02 571.324
423 0 47.3236 11.6855 553 65.962 1333.34 571.069
424 0 49.3099 12.2693 605 64.919 1332.94 569.61
425 0 49.3012 11.6427 574 66.1864 1332.71 569.908
426 0 50.4528 11.6545 588 66.0544 1332.55 568.634
427 0 52.3774 12.2381 641 64.0998 1332.58 569.012
428 0 55.3217 12.7798 707 61.9024 1332.53 566.952
429 0 56.2632 12.6904 714 62.6317 1331.99 566.378
430 0 56.288 12.2584 690 63.7116 1332.04 566.329
431 0 56.3914 12.094 682 64.1965 1331.95 566.191
432 0 58.3798 12.1789 711 64.0816 1331.75 565.267
433 0 62.5109 12.2539 766 62.953 1331.65 565.548
434 0 63.3252 13.0754 828 62.1401 1331.53 563.94
435 0 64.446 12.1032 780 63.6372 1331.55 563.781
436 0 65.3794 11.7621 769 64.0078 1331.56 563.313
437 0 68.197 12.3759 844 63.5284 1331.73 562.645
438 0 71.2292 12.6353 900 64.0722 1331.59 560.769
439 0 72.5021 12.1928 884 64.8767 1331.66 559.704
440 0 75.3299 13.1687 992 63.1442 1331.46 560.308
441 0 78.4842 13.1619 1033 63.5837 1331.09 557.931
442 0 81.302 12.8287 1043 64.4036 1331.74 556.52
443 0 83.4563 13.3243 1112 64.0818 1330.99 554.559
444 1 47.4047 10.6319 504 66.2659 1332.24 574.591
445 0 47.2776 11.5065 544 65.7279 1332.25 572.794
446 0 48.3974 10.2072 494 66.9757 1332.4 574.02
447 0 49.1888 11.7303 577 66.0884 1332.06 573.241
448 0 51.191 11.6622 597 65.2194 1331.7 571.224
449 0 53.0872 12.8656 683 63.7833 1332.54 570.373
450 0 55.2589 13.0115 719 63.8248 1332.01 570.045
451 0 57.334 12.1045 694 64.9928 1332.17 569.896
452 0 58.3006 12.4699 727 65.1403 1332.08 568.508
453 0 57.2831 12.5168 717 65.5732 1331.98 568.109
454 0 60.1931 12.8752 775 64.6581 1332.35 567.966
455 0 62.3415 12.6882 791 64.8938 1331.94 566.301
456 0 64.4315 13.3165 858 63.6911 1331.78 566.451
457 0 66.3236 13.1024 869 63.6133 1331.7 564.018
458 0 68.3733 14.1137 965 62.4839 1331.64 562.763
459 0 69.3743 13.2037 916 63.7838 1331.92 563.598
460 0 71.1716 14.1067 1004 63.3018 1332.2 561.491
461 0 74.1793 13.6965 1016 64.2461 1331.83 559.099
462 0 77.1581 13.5955 1049 64.0315 1331.86 559.846
463 0 82.239 14.1539 1164 62.8668 1331.63 557.33
464 0 83.1626 14.2492 1185 63.5814 1331.99 555.544
465 0 87.1976 14.6105 1274 62.9223 1331.86 553.836
466 0 89.2431 14.0403 1253 63.5962 1331.61 554.865
467 1 44.1218 10.607 468 65.3312 1331.96 576.051
468 0 48.267 12.0787 583 63.542 1331.84 575.033
469 0 49.221 11.8649 584 64.125 1331.68 573.163
470 0 51.3257 11.5926 595 63.9529 1332.02 574.331
471 0 52.2888 13.1577 688 62.9578 1331.81 571.846
472 0 54.1267 13.7271 743 61.7308 1331.32 571.837
473 0 54.2702 12.8247 696 63.2227 1331.9 571.907
474 0 57.2984 13.1766 755 62.4358 1331.7 571.707
475 0 56.2564 13.4029 754 63.2984 1331.8 568.886
476 0 57.2518 13.135 752 63.8138 1332.06 569.306
477 0 59.232 12.966 768 63.3659 1331.75 569.576
478 0 61.4745 13.6317 838 62.58 1331.82 567.229
479 0 64.3372 13.9888 900 61.7867 1331.87 566.571
480 0 65.2995 13.752 898 62.1292 1332.17 566.703
481 0 66.4114 12.9195 858 63.4802 1332.19 566.534
482 0 69.3175 13.6762 948 62.7405 1332.34 564.958
483 0 71.3323 13.5843 969 62.5913 1332.07 563.407
484 0 75.4478 13.1084 989 62.2952 1332.19 564.388
485 0 76.4219 13.2423 1012 63.3182 1332.46 561.344
486 0 79.2727 13.9518 1106 62.0787 1332.97 559.351
487 0 83.1905 15.158 1261 60.3323 1332.79 557.464
488 0 85.3556 13.4262 1146 62.9136 1332.94 556.962
489 0 86.2333 13.7534 1186 62.9882 1332.77 554.957
490 0 90.1669 14.0961 1271 62.5563 1332.67 554.563
491 0 93.2823 13.7432 1282 62.727 1332.61 554.19
492 0 96.2338 13.3633 1286 63.4425 1332.95 551.953
493 0 98.3328 14.1052 1387 62.6734 1332.8 550.243
494 0 103.288 14.2998 1477 62.3859 1332.95 547.91
495 0 106.321 13.6003 1446 62.9509 1333.13 545.095
496 0 113.356 14.159 1605 61.5072 1332.98 543.892
497 1 66.3215 12.1831 808 62.3032 1333.27 565.538
498 0 69.2292 12.4514 862 62.022 1333.41 564.862
499 0 68.1267 13.6657 931 61.9667 1333.41 563.128
500 0 73.1517 13.6155 996 61.5301 1333.17 561.864
501 0 75.1541 13.2794 998 61.9619 1333.58 560.468
502 0 77.255 12.4523 962 62.9044 1333.21 560.474
503 0 81.259 13.1678 1070 62.2636 1333.05 555.975
504 0 86.429 13.9305 1204 61.0017 1332.97 555.615
505 0 88.3757 13.7821 1218 61.7931 1332.82 554.444
506 0 89.2842 12.8802 1150 63.5139 1332.92 552.943
507 0 94.313 13.8369 1305 62.3157 1333.01 551.203
508 0 96.4457 13.7383 1325 62.7215 1333.1 550.506
509 0 100.412 13.7036 1376 62.9346 1333.21 548.547
510 0 104.349 13.8957 1450 63.1807 1332.91 545.841
511 1 57.2885 11.3461 650 63.8938 1333.68 568.695
512 0 58.2923 11.5453 673 64.1248 1333.27 569.177
513 0 60.1629 12.0008 722 63.9044 1333.99 567.255
514 0 62.3068 12.3903 772 63.0207 1333.36 566.359
515 0 64.1819 13.0566 838 62.457 1332.67 563.661
516 0 66.3873 11.7342 779 63.4891 1333.46 563.585
517 0 69.153 13.5352 936 61.1271 1333.64 563.031
518 0 72.2029 13.1435 949 61.5722 1333.59 560.311
519 0 73.2008 12.6775 928 62.4591 1333.62 559.23
520 0 77.2287 12.7284 983 62.7447 1334.07 558.359
521 0 80.1896 13.3933 1074 61.9758 1333.74 555.973
522 0 84.2761 13.7999 1163 60.9604 1333.91 554.866
523 0 84.2495 12.8191 1080 63.0537 1333.6 552.578
524 0 89.2701 13.0391 1164 62.4407 1334.23 551.615
525 0 92.241 13.2371 1221 62.1441 1334.17 550.193
526 0 94.304 12.8308 1210 62.938 1333.83 550.893
527 0 97.3004 12.7132 1237 63.979 1334.11 547.083
528 1 50.1588 10.2475 514 63.2432 1334.29 570.183
529 0 53.1613 11.3428 603 61.3284 1334.41 569.801
530 0 54.2172 11.5277 625 60.936 1334.58 569.149
531 0 56.1038 11.4965 645 60.4202 1334.9 568.35
532 0 56.1678 11.5368 648 60.6096 1335.31 567.318
533 0 58.25 12.3949 722 60.9488 1334.73 566.472
534 0 60.2093 12.2406 737 60.3012 1334.83 564.796
535 0 62.2293 11.763 732 60.3046 1334.75 565.803
536 0 65.1211 11.7013 762 60.1706 1334.32 564.457
537 0 65.3093 12.1881 796 60.0578 1334.44 562.275
538 0 68.1523 12.2373 834 59.9005 1334.6 559.791
539 0 71.1267 12.8503 914 58.5263 1333.82 560.075
540 0 73.2212 12.3871 907 59.4961 1333.79 557.611
541 0 76.319 13.3125 1016 58.2372 1333.83 556.152
542 0 79.2606 12.9068 1023 58.8563 1333.7 555.523
543 0 79.2606 12.9068 1023 160.84 1333.7 555.523
544 0 83.2934 12.2098 1017 59.6116 1333.06 552.513
545 0 87.3374 12.9612 1132 58.6731 1333.46 550.526
546 0 90.2548 12.3539 1115 59.3892 1333.38 548.401
547 0 90.2548 12.4093 1120 149.393 1333.37 548.371
548 1 49.1188 10.9123 536 57.0951 1333.17 570.599
549 0 51.1071 10.0964 516 57.4012 1333.32 570.676
550 0 51.0726 11.3955 582 56.3162 1333.2 569.239
551 0 52.0317 12.3386 642 57.3707 1333.23 568.182
552 0 55.0591 10.97 604 58.3328 1333.13 569.505
553 0 54.039 11.5657 625 58.3088 1332.98 566.818
554 0 56.0734 11.6455 653 57.9173 1333.25 566.403
555 0 58.0768 12.1563 706 57.5538 1332.87 565.88
556 0 60.0572 12.4048 745 57.3826 1333.2 564.826
557 0 60.0986 11.8306 711 58.9437 1333.32 563.221
558 0 65.0884 13.0745 851 57.1716 1333.1 562.224
559 0 65.0604 12.8803 838 58.432 1332.99 562.302
560 0 67.1021 12.0265 807 60.3209 1333.2 560.455
561 0 69.0883 13.6203 941 58.1339 1333.24 558.224
562 0 74.0653 12.57 931 57.9936 1333.01 558.772
563 0 77.2316 13.0387 1007 56.996 1332.7 559.612
564 1 40.0684 11.4804 460 59.5065 1332.3 574.604
565 0 42.0686 10.9583 461 59.5879 1332.09 573.334
566 0 43.0775 12.0481 519 58.6204 1331.56 572.659
567 0 46.1879 11.8646 548 59.0493 1331.79 572.75
568 0 44.1174 12.2174 539 59.5844 1331.18 571.132
569 0 47.2312 12.6188 596 59.3792 1331.51 572.232
570 0 47.3318 12.0004 568 60.7148 1331.52 572.053
571 0 50.324 12.6778 638 59.4624 1330.98 570.107
572 0 52.2386 12.596 658 59.8161 1331.36 569.383
573 0 52.1297 11.951 623 60.2215 1331.42 568.994
574 0 55.2446 12.146 671 59.3338 1330.76 569.335
575 0 55.1147 12.7189 701 59.1526 1330.83 567.743
576 0 55.1229 12.844 708 60.6073 1330.36 567.323
577 0 56.0535 13.3622 749 60.5033 1330.27 566.112
578 0 58.1871 13.6628 795 59.5975 1329.94 565.623
579 0 60.1811 12.695 764 61.0942 1329.74 564.045
580 0 62.2106 13.4704 838 59.2816 1330.09 563.932
581 0 67.1979 12.7236 855 59.1298 1330.09 564.091
582 0 68.1838 12.9943 886 59.0959 1329.51 562.454
583 0 71.1098 13.6549 971 59.0989 1329.41 560.58
584 0 72.2182 13.9716 1009 59.0396 1330.01 557.684
585 0 75.1411 13.8805 1043 59.1505 1329.53 556.386
586 0 77.2253 13.5448 1046 59.6252 1329.44 555.37
587 0 84.4582 13.6636 1154 58.7643 1329.49 553.161
588 0 85.2109 12.9444 1103 59.9909 1329.49 552.677
589 1 44.1938 12.581 556 59.3993 1329.28 570.827
590 0 47.2514 11.8092 558 59.0986 1329.53 571.247
591 0 47.2331 11.8349 559 59.7871 1329.4 570.553
592 0 47.2801 11.9924 567 60.5168 1329.02 569.046
593 0 49.0949 12.5064 614 59.6205 1329.36 567.979
594 0 52.0996 12.9943 677 57.9527 1329.63 570.87
595 0 52.2792 12.4524 651 58.8341 1329.04 570.594
596 0 55.2961 12.207 675 58.6459 1329.05 569.249
597 0 56.2189 12.5225 704 59.1761 1329.47 568.386
598 0 57.232 12.825 734 58.8733 1329.61 567.441
599 0 57.3371 13.7433 788 58.7563 1329.58 565.845
600 0 62.17 12.7714 794 58.9018 1329.65 564.772
601 0 63.3248 14.1493 896 57.5636 1329.41 562.55
602 0 65.3794 13.6893 895 58.3196 1329.41 562.473
603 0 67.5101 12.961 875 58.9303 1329.47 563.263
604 0 70.1556 12.8856 904 59.3617 1329.52 561.945
605 0 73.2707 13.2249 969 58.1228 1329.95 561.846
606 0 76.177 13.4818 1027 57.7741 1329.4 560.829
607 0 76.177 13.4424 1024 164.668 1329.39 560.921
608 0 81.1199 13.5725 1101 59.7393 1329.61 558.025
609 0 85.1167 14.0043 1192 58.8809 1329.67 555.15
610 0 89.2725 13.0163 1162 60.3477 1329.45 554.635
611 1 48.0365 11.637 559 60.0644 1329.72 573.619
612 0 49.0322 10.6461 522 61.569 1330 572.789
613 0 48.1356 12.257 590 62.1847 1329.8 570.941
614 0 50.0394 12.0105 601 62.8286 1329.22 570.99
615 0 52.0708 13.0399 679 61.6878 1330.13 569.807
616 0 55.0908 13.1419 724 61.2873 1329.87 568.97
617 0 55.0621 12.0046 661 63.0348 1329.87 568.528
618 0 60.0553 13.5375 813 60.0947 1329.72 566.074
619 0 62.1327 12.9561 805 60.4609 1329.53 566.48
620 0 61.0894 13.5539 828 60.7959 1329.64 565.399
621 0 62.0859 12.3539 767 63.0482 1329.49 563.956
622 0 67.1747 13.9189 935 60.4738 1330.08 563.234
623 0 68.1061 13.7286 935 61.5005 1330.33 560.895
624 0 68.1986 13.1234 895 62.9933 1330.35 560.927
625 0 72.1337 12.8789 929 62.7158 1330.32 559.461
626 0 75.1222 12.9655 974 62.3994 1330.37 558.066
627 0 77.1703 13.1268 1013 62.233 1330.69 557
628 0 81.1905 13.5853 1103 61.5839 1330.68 555.926
629 0 85.192 13.1116 1117 62.094 1330.61 553.671
630 0 86.3348 13.1349 1134 62.4145 1330.96 552.153
631 1 45.0948 10.2894 464 62.8685 1331.45 573.358
632 0 46.0377 11.8381 545 62.222 1332.3 574.116
633 0 49.2667 11.7727 580 62.0793 1331.77 572.39
634 0 50.0877 12.4182 622 61.3312 1331.5 571.193
635 0 52.1268 12.7765 666 60.9009 1331.78 570.491
636 0 54.1803 13.2336 717 59.5314 1332.08 569.675
637 0 56.1259 12.8639 722 60.6205 1332.13 567.49
638 0 58.106 12.2363 711 60.9283 1332.11 567.262
639 0 60.0966 11.7977 709 61.2708 1332.06 566.116
640 0 60.1191 12.3754 744 61.1022 1332.35 564.921
641 0 62.1286 12.8765 800 60.2738 1332.56 564.332
642 0 66.1059 13.0094 860 59.8233 1332.63 563.274
643 0 67.0865 12.6404 848 60.27 1332.72 561.518
644 0 70.1407 13.0595 916 59.9607 1333.37 558.83
645 0 73.139 12.9616 948 59.6646 1333.07 558.755
646 0 74.2067 13.1659 977 60.0072 1332.78 557.222
647 0 77.1109 12.4366 959 60.6569 1333.06 556.684
648 0 81.1878 12.8098 1040 60.2202 1333.32 554.996
649 1 41.1374 9.72352 400 60.3925 1333.95 575.565
650 0 43.2023 11.3651 491 59.3075 1334 572.165
651 0 46.1003 11.5834 534 58.3427 1335.15 572.414
652 0 48.2338 11.9418 576 57.4115 1334.33 570.675
653 0 50.1571 11.9026 597 60.0017 1333.67 568.516
654 0 49.3356 11.8373 584 60.5068 1333.76 568.729
655 0 52.1433 12.6766 661 59.1679 1334.15 567.107
656 0 51.1501 11.8866 608 60.7401 1334.29 566.738
657 0 55.1578 12.7634 704 59.0384 1333.89 565.678
658 0 57.1384 12.0934 691 59.1968 1333.77 565.321
659 0 58.1388 13.1066 762 58.2664 1333.8 564.51
660 0 60.1259 12.8231 771 58.0999 1333.88 563.567
661 0 62.152 12.1959 758 59.2058 1334.02 561.654
662 0 62.16 11.8726 738 59.4472 1333.93 560.056
663 0 67.1839 12.7114 854 57.9473 1333.91 558.342
664 0 68.2108 12.432 848 58.5613 1334.2 557.69
665 0 68.2467 12.0592 823 59.4945 1333.85 557.38
666 0 71.1542 14.4053 1025 56.878 1333.8 554.756
667 0 71.1985 12.9918 925 59.2065 1333.45 555.01
668 0 73.2247 13.3425 977 57.739 1333.69 554.274
669 0 74.1707 12.4038 920 59.3043 1334.15 552.85
670 0 78.1383 13.6681 1068 57.3343 1333.52 549.775
671 0 75.1239 12.0867 908 60.424 1333.91 550.193
672 0 82.1049 12.8372 1054 58.9801 1333.7 548.176
673 0 86.1451 12.6995 1094 59.2925 1333.94 547.084
674 1 45.2266 11.6524 527 59.8046 1333.94 565.288
675 0 48.1317 11.614 559 59.7925 1334.06 565.789
676 0 47.1722 11.6806 551 60.461 1334.05 563.808
677 0 48.3146 11.4044 551 60.9347 1334.22 563.454
678 0 52.1979 12.2802 641 58.8019 1334.25 562.538
679 0 50.3279 12.1006 609 59.7422 1334.44 561.235
680 0 54.2299 12.8711 698 58.0544 1334.23 561.288
681 0 55.2697 13.4432 743 58.105 1334.38 559.167
682 0 55.191 12.9731 716 58.5293 1334.4 559.01
683 0 56.3975 12.2169 689 59.9013 1334.48 557.282
684 0 58.5763 11.4039 668 61.1257 1334.49 556.392
685 0 65.2804 12.5612 820 58.8939 1334.16 555.478
686 0 64.3336 13.1191 844 58.6137 1333.99 553.256
687 0 66.4653 12.7285 846 59.1537 1334.04 555.502
688 0 69.4698 12.8545 893 59.1243 1333.89 553.964
689 0 69.2691 13.3826 927 59.5318 1334.1 551.501
690 0 72.2547 13.4247 970 59.4485 1333.77 551.173
691 0 76.234 13.393 1021 59.4447 1333.6 549.881
692 0 78.3254 13.7631 1078 58.9007 1334.14 548.449
693 0 81.1093 13.6976 1111 58.8272 1333.79 549.054
694 0 82.0995 13.5202 1110 59.2342 1334.09 545.475
695 1 42.2234 11.1313 470 60.034 1333.62 566.783
696 0 45.2183 10.7258 485 59.8515 1334.22 565.922
697 0 45.0986 11.9738 540 59.6852 1334.61 564.559
698 0 46.199 11.3639 525 59.7886 1334.26 564.362
699 0 48.2411 12.479 602 58.7724 1333.99 563.131
700 0 50.358 12.0338 606 58.8548 1333.64 563.182
701 0 53.104 12.9369 687 57.6623 1333.36 562.026
702 0 56.0783 13.4098 752 56.4016 1332.95 561.033
703 0 57.2469 13.2234 757 57.4003 1332.91 559.122
704 0 59.1645 13.1667 779 58.1335 1332.9 558.139
705 0 62.37 13.2756 828 59.2415 1332.8 556.711
706 0 63.1486 13.4287 848 61.7512 1332.39 558.621
707 0 65.2018 13.0671 852 63.8815 1332.43 556.575
708 0 69.3912 13.9643 969 65.6708 1332.49 554.655
709 0 70.1874 13.35 937 76.0843 1332.39 555.007
710 0 74.3561 12.9781 965 63.3959 1332.28 554.298
711 0 74.4158 13.6396 1015 64.2847 1332.73 552.856
712 0 77.329 12.2852 950 67.0537 1332.17 551.256
713 0 79.37 13.6197 1081 66.766 1331.92 549.321
714 0 82.1968 13.8205 1136 67.6452 1332.44 549.305
715 0 85.2182 13.6238 1161 68.9035 1332.22 550.379
716 0 88.1928 14.7744 1303 68.8304 1332.14 547.091
717 0 90.068 14.7999 1333 69.4929 1332.12 547.857
718 0 92.1504 13.9446 1285 72.2054 1331.96 545.213
719 0 98.3465 13.6965 1347 72.2628 1332.1 542.695
720 1 54.1131 11.8271 640 72.1906 1331.75 564.598
721 0 57.1668 12.9446 740 71.1041 1331.59 564.911
722 0 59.0511 12.8871 761 72.6689 1331.69 562.526
723 0 56.1248 11.9911 673 75.0832 1331.62 562.163
724 0 61.0718 12.1005 739 74.9188 1331.61 561.053
725 0 65.0582 13.3112 866 74.8279 1331.17 558.457
726 0 67.1697 11.8506 796 75.8769 1331.93 557.784
727 0 70.0779 12.5717 881 75.361 1331.45 559
728 0 73.2293 12.1946 893 77.2553 1331.63 556.996
729 0 74.1373 12.9355 959 76.781 1331.72 557.806
730 0 77.2162 13.7665 1063 76.9643 1331.39 554.329
731 0 81.1545 13.0369 1058 77.2873 1330.98 557.765
732 0 83.2358 14.2967 1190 77.6605 1331.13 554.418
733 0 87.2662 13.2583 1157 79.3155 1330.84 551.775
734 0 88.5159 12.7661 1130 81.4062 1330.81 552.163
735 0 94.2501 11.8302 1115 82.0081 1330.36 549.437
736 0 97.2468 13.2755 1291 81.5345 1330.85 550.737
737 0 100.238 15.1339 1517 80.8425 1330.6 546.254
738 0 245.743 11.1499 2740 91.0551 1330.1 493.103
739 0 244.738 11.9638 2928 91.527 1330.21 486.914
740 0 244.854 14.5188 3555 90.9527 1330.16 477.963
741 1 203.612 14.5227 2957 90.3429 1330.24 494.35
742 0 211.8 13.0076 2755 92.6621 1329.99 494.058
743 0 219.729 13.767 3025 92.5937 1329.67 490.098
744 0 226.676 13.8965 3150 93.9444 1330.25 483.407
745 0 235.517 13.5659 3195 94.579 1330.34 487.505
746 0 244.697 14.0091 3428 96.4145 1330.15 477.535
747 0 253.734 13.7073 3478 98.8249 1330.14 470.095
748 0 0 0 1 73 1332 596
749 0 211.607 13.0525 2762 98.9522 1329.82 495.591
750 0 216.728 13.6808 2965 99.6513 1329.9 493.102
751 0 223.885 12.5734 2815 103.488 1329.8 491.444
752 1 90.3667 12.6042 1139 82.8077 1330.29 552.717
753 0 92.3622 12.8624 1188 83.3695 1330.08 554.257
754 0 93.3523 11.6548 1088 84.9531 1329.79 550.831
755 0 99.2348 14.8839 1477 82.0108 1329.87 548.96
756 0 102.369 13.7933 1412 84.2132 1330.03 546.455
757 0 108.423 13.5119 1465 83.6546 1330.14 546.625
758 0 108.333 14.9724 1622 83.5203 1330.26 544.56
759 1 202.56 13.9267 2821 88.8738 1329.45 499.68
760 1 113.3 13.0362 1477 85.9959 1329.84 542.222
761 0 114.231 12.4835 1426 86.6094 1329.3 537.341
762 0 117.312 11.8061 1385 86.5271 1329.04 541.425
763 0 119.227 10.0313 1196 87.8294 1329.48 541.788
764 1 75.201 11.9812 901 83.0522 1330.17 562.485
765 0 75.3648 10.6416 802 84.1384 1330 563.302
766 0 79.1753 14.1584 1121 79.9973 1329.87 562.175
767 0 80.1259 12.6676 1015 82.8355 1329.33 559.101
768 0 81.182 13.0078 1056 82.6013 1329.63 558.563
769 0 82.2783 11.7163 964 84.2676 1329.57 559.601
770 0 85.1977 12.1834 1038 84.4489 1329.19 555.616
771 0 89.1445 12.9453 1154 84.1248 1329.23 554.632
772 0 89.3001 12.7995 1143 84.2992 1328.82 555.112
773 0 94.3143 12.9991 1226 85.5122 1328.59 551.558
774 0 96.1828 13.1624 1266 86.4882 1328.68 550.229
775 0 96.304 13.1355 1265 87.1494 1328.81 550.601
776 0 102.274 13.7474 1406 87.5718 1328.97 549.454
777 0 106.247 13.1298 1395 89.367 1328.44 547.387
778 0 105.378 12.5928 1327 91.2871 1328.75 546.561
779 0 103.297 9.8067 1013 89.4472 1328.93 548.956
780 0 103.255 9.28767 959 87.5495 1329 551.542
781 1 65.0996 10.5991 690 83.4029 1329.62 567.601
782 0 67.1313 10.8146 726 84.6749 1329.81 565.876
783 0 69.204 11.5889 802 86.1197 1329.38 566.281
784 0 73.231 12.126 888 85.8851 1329.43 565.546
785 0 74.1184 12.1697 902 86.4424 1330.6 565.466
786 0 73.1831 12.9948 951 88.0736 1330.12 560.65
787 0 78.2078 13.8222 1081 87.0759 1330.22 561.059
788 0 80.2261 13.1129 1052 88.8175 1330.02 559.913
789 0 83.2472 13.0695 1088 88.7776 1330.38 558.863
790 0 84.421 13.3971 1131 87.443 1330.45 557.605
791 0 88.5182 14.031 1242 86.4783 1330.69 557.229
792 0 89.3825 13.9065 1243 88.5688 1330.51 554.254
793 0 91.2148 13.0352 1189 90.169 1330.62 552.399
794 0 92.407 14.2522 1317 89.6583 1330.41 553.005
795 0 97.4347 13.137 1280 91.0391 1330.14 552.129
796 0 106.595 12.9743 1383 90.7122 1330.48 553.612
797 0 103.439 14.4627 1496 91.3376 1330.76 547.709
798 0 106.307 12.652 1345 85.2342 1330.4 547.153
799 0 112.22 13.3755 1501 84.8867 1331.27 544.106
800 0 111.352 12.6536 1409 86.3251 1331.78 545.396
801 0 120.332 13.0057 1565 86.4441 1332.07 539.62
802 0 119.44 12.86 1536 87.2396 1332.11 539.415
803 0 118.626 11.9957 1423 88.8271 1332.12 539.716
804 0 119.57 9.8854 1182 90.4721 1332.08 545.703
805 0 121.704 9.67923 1178 90.4839 1332.08 545.673
806 1 140.66 13.4651 1894 88.6547 1332.32 531.184
807 0 143.635 13.7988 1982 88.5484 1332.01 526.874
808 0 147.721 13.6744 2020 89.9124 1332.29 524.203
809 0 157.744 13.1986 2082 89.8324 1332.43 522.014
810 0 156.758 12.6756 1987 92.1404 1332.42 518.902
811 1 234.127 12.4889 2924 97.7302 1332.29 483.831
812 0 243.174 13.7227 3337 97.6779 1332.01 478.422
813 0 251.301 12.881 3237 98.8424 1332.41 476.006
814 1 183.881 11.2355 2066 96.6602 1332.38 506.926
815 0 183.937 13.5427 2491 94.7515 1332.79 505.348
816 0 191.859 13.5308 2596 95.4915 1332.79 502.209
817 0 196.576 11.7156 2303 97.8554 1332.43 499.838
818 1 100.266 12.7261 1276 91.7061 1332.97 547.938
819 0 101.277 13.3298 1350 92.0481 1333.25 543.549
820 0 105.35 13.365 1408 92.978 1333.01 544.291
821 0 108.325 12.9333 1401 93.4283 1332.96 543.665
822 0 108.567 12.9413 1405 94.0363 1332.91 544.132
823 0 107.528 11.1785 1202 97.2038 1332.82 545.349
824 0 107.575 9.49104 1021 99.0294 1332.94 547.829
825 1 66.1817 13.478 892 93.4697 1333.76 559.256
826 0 67.1703 13.1457 883 91.5062 1333.5 560.168
827 0 68.1987 11.5105 785 93.7083 1333.51 562.331
828 0 67.199 12.1728 818 95.2225 1333.17 559.978
829 0 68.1505 12.6191 860 95.8349 1333.15 560.388
830 0 72.1158 12.8405 926 92.7289 1333.39 558.632
831 0 72.1075 12.3149 888 95.134 1334.18 560.698
832 0 75.1492 13.2802 998 96.0681 1332.97 558.799
833 0 77.1451 12.2885 948 97.5042 1332.68 558.83
834 0 74.1517 9.85817 731 101.562 1332.62 562.499
835 0 76.0674 10.5959 806 104.32 1331.77 560.722
836 0 76.0631 11.5562 879 146.92 1330.72 559.131
837 0 86.1847 12.4384 1072 74.7164 1331.81 553.074
838 0 91.1626 13.7008 1249 70.2178 1331.93 548.686
839 0 92.2035 12.7002 1171 71.5389 1330.92 548.994
840 1 49.0737 10.7186 526 68.9734 1332.38 571.933
841 0 50.1561 10.9458 549 67.6047 1330.84 569.612
842 0 52.2071 9.90287 517 69.5029 1330.02 564.592
843 0 55.1852 12.3765 683 67.9268 1330.01 558.13
844 0 54.0907 11.037 597 69.3953 1329.63 555.585
845 0 54.0335 10.7526 581 70.7539 1329.45 555.122
846 0 58.027 12.8389 745 68.6362 1329.99 556.298
847 0 57.2877 11.6255 666 70.1517 1330.59 560.225
848 0 57.3304 11.6866 670 70.5716 1330.34 562.112
849 0 62.2431 11.7764 733 70.6889 1330.56 564.621
850 0 63.2688 12.2809 777 71.6834 1330.75 565.655
851 0 66.1706 12.1655 805 72.8248 1330.87 564.097
852 0 69.2552 13.0243 902 72.0953 1330.75 561.938
853 0 68.3125 12.1647 831 73.6799 1330.55 563.381
854 0 72.3442 12.4129 898 73.1437 1330.81 563.906
855 0 75.4185 13.1268 990 72.8424 1330.29 560.298
856 0 77.3175 11.6015 897 74.9643 1330.65 561.038
857 0 79.283 12.8401 1018 73.9764 1330.66 556.984
858 0 80.3752 11.7449 944 75.5964 1330.53 556.954
859 0 85.2978 12.7319 1086 73.0221 1330.98 555.054
860 0 88.4017 13.3708 1182 73.0051 1330.14 554.244
861 0 91.2422 12.8011 1168 72.0899 1330.56 554.973
862 1 49.2422 10.5397 519 72.5645 1330.33 572.104
863 0 50.1829 10.5614 530 73.3642 1330.84 571.745
864 0 51.2334 12.3552 633 70.0948 1331.41 568.735
865 0 52.2397 12.3086 643 63.3142 1330.28 570.589
866 0 53.4526 11.2062 599 56.5159 1330.56 572.033
867 0 55.3435 11.3654 629 57.6836 1330.12 569.734
868 0 56.2252 11.3472 638 58.5251 1329.64 567.494
869 0 57.2391 12.4216 711 58.2236 1329.99 566.792
870 0 58.3679 11.9244 696 59.4095 1329.72 566.964
871 0 61.1697 12.1792 745 59.0443 1329.16 566.207
872 0 62.1941 12.2198 760 59.5132 1329.48 565.651
873 0 65.2012 11.8709 774 59.0426 1329.84 564.528
874 0 66.171 12.1654 805 59.2534 1329.42 563.021
875 0 66.1845 12.0119 795 59.7799 1329.8 563.309
876 0 69.1749 10.7553 744 60.7997 1329.78 562.692
877 0 73.1943 12.3234 902 58.367 1329.64 562.644
878 0 72.2469 12.1389 877 58.8233 1329.95 559.384
879 0 74.2243 11.5326 856 59.4065 1329.27 558.259
880 0 77.1151 11.5671 892 59.4731 1329.03 557.286
881 0 80.2228 12.0415 966 59.354 1329.64 556.538
882 0 82.176 12.023 988 59.0962 1329.47 554.425
883 1 43.0341 10.6427 458 56.6965 1330.5 575.948
884 0 45.1194 8.71022 393 59.0891 1330.53 577.743
885 0 47.0611 10.4758 493 58.1176 1330.45 574.574
886 0 48.0854 9.52471 458 59.1004 1330.66 574.614
887 0 49.1573 11.5344 567 58.0511 1330.57 572.09
888 0 51.0872 12.6646 647 57.7079 1330.78 567.394
889 0 51.0852 11.6863 597 59.2998 1331.24 571.755
890 0 51.0785 11.5508 590 60.2237 1331.15 570.564
891 0 54.1121 11.4947 622 60.3569 1331.07 570.367
892 0 56.1432 12.4503 699 58.5408 1331.45 567.953
893 0 57.0972 11.6468 665 59.6752 1331.82 567.606
894 0 58.0539 11.7994 685 59.7416 1331.96 567.496
895 0 60.0512 12.4227 746 59.441 1332.59 565.887
896 0 60.0512 12.4227 746 163.216 1332.59 565.887
897 0 66.1 14.0091 926 57.1112 1332.93 562.316
898 0 66.2571 12.21 809 60.1681 1332.99 562.219
899 0 66.2571 12.21 809 167.672 1333.99 562.219
900 0 72.1462 13.334 962 58.9075 1333.69 562.567
901 0 72.2137 11.8814 858 58.796 1332.38 560.955
902 0 73.276 12.2141 895 58.8503 1332.19 559.959
903 0 76.1656 12.8404 978 58.0542 1332.32 557.273
904 0 78.2584 12.3821 969 59.6512 1332.21 555.025
905 0 82.3142 13.2905 1094 57.9872 1332.3 554.316
906 0 83.2783 11.4195 951 60.9159 1332.53 553.307
907 0 86.1945 11.9845 1033 59.5111 1332.92 551.836
908 0 88.1814 11.5897 1022 59.9804 1332.67 550.734
909 0 93.2811 11.7709 1098 58.9454 1332.75 547.243
910 1 50.2081 9.75938 490 59.298 1333.97 570.027
911 0 52.1939 11.0549 577 57.3917 1334.02 567.542
912 0 53.1285 11.331 602 57.4718 1333.72 566.528
913 0 53.1654 10.3827 552 57.6975 1333.49 562.043
914 0 55.0338 10.5208 579 57.8048 1334.65 565.565
915 0 58.0254 10.909 633 57.2638 1334.56 562.784
916 0 58.0709 11.6926 679 57.3034 1334.7 561.816
917 0 60.1066 10.5978 637 58.562 1334.64 561.053
918 0 63.0411 11.0721 698 58.4685 1334.96 562.643
919 0 64.0483 11.788 755 57.6291 1334.96 560.374
920 0 66.0387 11.9627 790 57.4633 1335.04 559.666
921 0 68.2163 11.229 766 59.0522 1335.33 559.336
922 0 69.1811 11.7807 815 58.7239 1335.32 556.227
923 0 72.2199 11.6034 838 58.8628 1335.23 556.495
924 0 76.1355 11.9918 913 58.0011 1335.06 555.874
925 0 78.2396 11.7715 921 57.5364 1333.95 554.68
926 0 83.252 13.297 1107 55.8365 1334.29 552.959
927 0 83.2015 12.9325 1076 57.6608 1334.38 551.941
928 0 85.1906 12.6188 1075 58.8679 1335.16 549.706
929 0 89.3495 13.408 1198 58.0351 1335.16 547.522
930 1 46.0957 10.3263 476 59.2731 1335.09 568.143
931 0 49.1283 10.1571 499 61.8417 1335.45 568.527
932 0 50.0915 11.8583 594 59.9478 1335.35 568.537
933 0 53.2155 12.083 643 60.2208 1335.13 566.586
934 0 52.1009 11.1514 581 61.4045 1335 546.575
935 0 56.062 12.6467 709 59.2553 1334.98 547.708
936 0 56.085 12.1601 682 59.5103 1334.73 546.808
937 0 57.1866 12.1007 692 60.0679 1334.74 546.897
938 0 59.0901 13.7925 815 57.8319 1334.1 552.613
939 0 59.1803 11.6762 691 61.1823 1334.47 556.148
940 0 61.1538 12.2478 749 60.2884 1334.47 559.786
941 0 62.1016 11.4812 713 62.237 1334.59 562.496
942 0 65.1256 12.284 800 59.6325 1334.07 562.89
943 0 66.1605 12.6359 836 61.5766 1333.74 562.279
944 0 68.1194 12.5662 856 61.715 1333.42 560.5
945 0 71.1607 12.5631 894 60.6902 1333.18 559.961
946 0 71.1779 11.6328 828 63.4553 1333.24 559.744
947 0 75.121 12.9791 975 62.0338 1332.46 558.086
948 0 77.2234 12.7034 981 62.6483 1332.89 555.894
949 0 77.1816 12.8139 989 63.5035 1332.74 553.913
950 0 83.2367 12.3383 1027 63.0604 1332.62 554.064
951 0 84.0874 12.6535 1064 61.9333 1332.77 553.309
952 0 88.0804 12.7611 1124 62.6317 1332.87 551.624
953 1 45.0448 11.2111 505 63.5465 1332.44 572.073
954 0 47.0899 10.3632 488 64.3197 1331.93 571.889
955 0 49.1543 11.7182 576 62.9184 1332.26 568.7
956 0 51.1878 12.6983 650 62.9569 1332.37 570.262
957 0 52.1518 12.5211 653 62.6723 1332.28 571.602
958 0 54.0159 12.7555 689 61.3759 1332.54 569.074
959 0 54.0875 12.7201 688 62.5436 1332.76 566.985
960 0 56.0744 12.9471 726 61.8526 1332.51 567.368
961 0 56.1883 12.1733 684 63.1053 1331.98 566.905
962 0 59.1026 12.4868 738 61.4106 1332.66 566.732
963 0 62.1711 13.3985 833 59.9796 1332.71 564.36
964 0 64.1701 13.137 843 60.637 1332.53 562.368
965 0 66.1248 12.3252 815 61.3767 1332.51 563.474
966 0 69.2354 12.8836 892 60.6244 1332.57 561.304
967 0 73.099 13.5159 988 59.001 1332.15 560.587
968 0 74.3123 12.2322 909 60.8988 1332.06 560.348
969 1 39.1463 10.5502 413 60.753 1331.81 576.804
970 0 41.1885 10.3427 426 61.6737 1331.86 576.88
971 0 41.1087 10.2411 421 62.9786 1331.65 576.109
972 0 44.2859 10.7258 475 62.9663 1332.38 575.56
973 0 43.1863 11.323 489 63.5419 1331.87 574.35
974 0 48.1651 12.7894 616 59.5438 1331.44 573.14
975 0 47.0291 12.3966 583 61.5386 1332.13 572.765
976 0 48.0647 13.1697 633 61.4171 1331.96 570.485
977 0 50.0882 13.1568 659 61.695 1331.83 570.68
978 0 53.2417 13.4857 718 60.7688 1331.37 570.614
979 0 53.0533 12.5157 664 63.0994 1331.17 569.217
980 0 54.0916 12.904 698 62.8911 1330.9 570.203
981 0 55.0664 13.0388 718 63.6699 1331 568.664
982 0 57.1664 13.5744 776 62.6598 1330.97 568.42
983 0 59.0475 13.7178 810 63.179 1330.77 565.826
984 0 60.1012 12.8117 770 63.6325 1330.82 567.592
985 0 64.053 13.239 848 62.6639 1330.82 567.389
986 0 64.08 13.53 867 63.3137 1330.63 566.55
987 0 66.0936 14.1012 932 63.5354 1330.84 564.251
988 0 67.0716 13.1799 884 65.3213 1330.61 564.822
989 0 71.135 13.4814 959 64.1001 1330.35 565.569
990 0 72.1583 13.4704 972 65.0967 1330.34 564.229
991 0 76.1641 13.3659 1018 64.9185 1329.86 562.844
992 0 77.2349 13.9704 1079 64.988 1329.88 560.318
993 0 79.1715 14.0328 1111 65.1683 1329.99 559.416
994 1 43.0579 12.0303 518 67.7452 1329.76 576.988
995 0 45.1462 10.9865 496 68.5968 1329.53 578.214
996 0 46.1717 11.3706 525 68.5524 1329.78 576.811
997 0 47.2584 11.2573 532 69.1071 1329.61 577.165
998 0 49.0434 12.0913 593 68.0017 1329.4 575.536
999 0 49.0434 12.1321 595 174.145 1329.41 575.477
1000 0 52.031 14.3184 745 64.6832 1330.57 573.372
1001 0 52.052 13.1791 686 67.1122 1329.29 573.321
1002 0 55.0915 14.1038 777 64.4311 1329.45 572.627
1003 0 55.0622 12.6766 698 66.5688 1328.95 573.04
1004 0 55.0622 12.731 701 173.773 1328.94 572.946
1005 0 59.0539 13.6316 805 65.3528 1329.52 571.171
1006 0 61.0501 14.3325 875 63.8709 1329.89 570.859
1007 0 63.079 13.4276 847 64.8406 1330.18 570.519
1008 0 66.2652 13.8081 915 64.3246 1330.03 569.408
1009 0 68.1014 13.568 924 65.3658 1330.54 567.303
1010 0 68.1014 13.6267 928 174.224 1330.52 567.311
1011 0 73.1107 14.3891 1052 64.635 1330.66 564.909
1012 0 75.0757 13.866 1041 65.5764 1330.36 563
1013 0 81.175 14.3517 1165 63.8429 1330.45 563.4
1014 0 83.0769 14.625 1215 63.744 1330.56 559.716
1015 0 86.1978 14.3739 1239 63.5319 1330.42 559.957
1016 1 45.1168 12.6339 570 64.8474 1330.74 579.126
1017 0 45.0718 10.6275 479 67.8476 1330.94 580.307
1018 0 47.1294 12.4551 587 66.5383 1330.54 577.572
1019 0 49.0555 12.0272 590 66.7881 1330.71 578.468
1020 0 50.3133 13.5153 680 65.5529 1330.51 576.731
1021 0 50.2359 13.556 681 66.2159 1330.38 574.138
1022 0 52.1589 13.4781 703 66.0441 1331.05 573.768
1023 0 52.091 13.7452 716 65.7207 1330.92 573.571
1024 0 55.0822 13.3982 738 66.748 1330.61 572.051
1025 0 56.0806 14.2652 800 65.5075 1330.84 570.246
1026 0 59.0946 14.6037 863 64.4079 1330.89 570.542
1027 0 59.1045 13.6707 808 66.4307 1331.2 570.291
1028 0 62.1232 14.2942 888 65.5146 1331.33 568.92
1029 0 63.167 14.5329 918 65.6057 1331.54 567.752
1030 0 66.1139 14.3086 946 65.6501 1331.84 565.913
1031 0 69.1489 14.5772 1008 65.7708 1332.06 564.281
1032 0 72.0859 15.1209 1090 64.3046 1331.87 563.293
1033 0 73.287 14.9549 1096 65.4325 1332.53 563.038
1034 0 75.0851 14.2638 1071 66.9542 1332.41 561.921
1035 0 78.2537 15.2964 1197 65.5831 1332.43 560.863
1036 0 79.4722 14.1559 1125 67.9671 1332.67 560.076
1037 0 80.2594 14.3784 1154 68.3076 1333.19 558.253
1038 1 41.1553 13.2182 544 70.8897 1332.81 575.733
1039 0 41.0862 13.1674 541 71.3641 1333.11 575.479
1040 0 44.1073 12.855 567 70.9788 1333.5 575.016
1041 0 46.1601 14.4714 668 68.7784 1334.04 574.877
1042 0 47.1072 15.2843 720 68.4917 1333.8 572.115
1043 0 47.1144 13.8174 651 70.8479 1334.21 573.052
1044 0 51.0891 14.3475 733 69.4379 1334.13 571.098
1045 0 51.1329 15.0392 769 69.2406 1334.18 570.958
1046 0 51.0583 14.6108 746 69.6944 1334.14 570.436
1047 0 54.0575 14.9841 810 68.4284 1334.66 569.043
1048 0 56.1762 15.3802 864 67.6088 1334.27 568.575
1049 0 59.0726 15.0154 887 67.3608 1334.26 568.637
1050 0 61.2151 14.8656 910 66.9934 1334.34 567.297
1051 0 63.1154 15.4321 974 66.616 1334.65 566.025
1052 0 64.285 13.8602 891 68.8642 1334.73 565.398
1053 0 68.095 15.3315 1044 66.1466 1334.75 563.384
1054 0 69.2207 14.4754 1002 67.7016 1334.96 563.011
1055 0 73.1553 13.9019 1017 67.9027 1335.01 562.26
1056 0 75.3655 14.4098 1086 67.6639 1334.71 560.214
1057 0 77.2726 15.0247 1161 66.8389 1334.56 560.013
1058 1 38.2096 12.6931 485 69.0474 1334.8 578.718
1059 0 39.2037 13.4681 528 68.75 1334.55 577.309
1060 0 40.0835 13.8212 554 68.4368 1334.96 577.44
1061 0 43.1484 15.3888 664 65.6928 1335.19 576.434
1062 0 43.1585 14.3656 620 67.95 1334.75 577.434
1063 0 45.1174 15.1383 683 67.5564 1334.23 574.811
1064 0 46.0649 14.5664 671 68.8852 1334.53 574.645
1065 0 49.3328 15.0002 740 67.2635 1334.67 574.569
1066 0 49.1189 13.8236 679 70.0206 1334.36 574.009
1067 0 51.1469 14.5072 742 69.0256 1334.28 573.092
1068 0 53.3471 14.2463 760 69.0276 1334.27 572.641
1069 0 56.4999 15.0443 850 68.0635 1334.32 571.168
1070 0 57.2528 14.8464 850 68.7506 1333.82 570.073
1071 0 59.3874 14.7506 876 68.7043 1334.08 568.763
1072 0 61.3344 15.2769 937 67.9093 1334.2 568.498
1073 0 63.3109 14.8316 939 69.0916 1334.22 566.633
1074 0 65.397 14.9548 978 69.0961 1334.14 566.374
1075 0 67.4238 14.3718 969 70.9917 1333.86 565.053
1076 0 69.2642 14.0621 974 71.4702 1333.62 564.336
1077 0 72.2275 15.7281 1136 68.7975 1333.36 562.933
1078 0 75.3413 15.4895 1167 69.7232 1333.37 562.213
1079 0 77.3667 14.8643 1150 71.1209 1333.46 561.302
1080 1 39.2368 13.7371 539 73.6549 1333.77 580.108
1081 0 40.2323 12.9995 523 74.2639 1333.56 579.312
1082 0 45.1362 13.7584 621 72.4654 1333.61 578.539
1083 0 42.2459 13.4924 570 75.5035 1333.69 577.295
1084 0 46.1888 14.3541 663 73.0287 1333.51 577.181
1085 0 44.1849 14.2583 630 75.4778 1333.29 577.121
1086 0 48.2872 14.2895 690 74.3232 1333.21 576.222
1087 0 49.0996 14.8474 729 73.9177 1333.51 575.883
1088 0 50.103 14.7696 740 74.4824 1333.31 575.478
1089 0 52.3473 15.359 804 73.296 1333.25 573.586
1090 0 56.204 14.9278 839 72.7128 1333.43 573.589
1091 0 56.1707 14.1355 794 74.7506 1333.73 573.31
1092 0 58.265 15.1721 884 73.5385 1333.73 572.296
1093 0 60.1558 14.396 866 74.3176 1333.53 571.173
1094 0 62.178 14.6997 914 74.2473 1333.42 569.371
1095 0 65.1846 14.9268 973 73.554 1333.49 567.629
1096 0 69.1752 15.1499 1048 72.3445 1333.05 567.362
1097 0 70.1507 14.312 1004 73.8416 1333.19 567.186
1098 0 73.0925 14.8989 1089 72.7557 1332.72 564.863
1099 1 35.1582 14.0223 493 76.7647 1333.23 583.647
1100 0 37.1396 13.732 510 77.9255 1333.09 580.433
1101 0 37.161 13.6972 509 78.4028 1333.34 581.493
1102 0 40.1432 13.5266 543 77.8085 1333.21 581.81
1103 0 42.1678 14.2052 599 77.1068 1333 581.022
1104 0 42.0482 14.531 611 77.9804 1332.73 578.768
1105 0 43.1801 15.0764 651 77.4869 1332.68 578.214
1106 0 45.1873 14.805 669 77.9193 1332.06 577.233
1107 0 48.0591 15.2104 731 77.1423 1332.51 576.544
1108 0 48.3494 13.7747 666 79.4174 1332.53 576.434
1109 0 50.2169 14.3577 721 78.3329 1331.99 575.226
1110 0 53.2268 14.767 786 77.1501 1331.9 574.006
1111 0 53.1986 14.85 790 78.1772 1331.58 572.88
1112 0 54.1032 15.0268 813 78.2977 1331.94 573.359
1113 0 57.2759 13.758 788 80.0419 1331.67 572.245
1114 0 59.3163 14.5323 862 78.2204 1331.5 570.473
1115 0 60.2692 14.5016 874 78.2895 1331.6 569.771
1116 0 64.1405 14.7333 945 76.6222 1331.26 568.253
1117 0 65.2454 14.2386 929 78.1991 1330.83 567.436
1118 0 68.1016 13.612 927 78.9018 1330.97 566.229
1119 1 33.0497 11.9819 396 80.1187 1331.26 581.927
1120 0 35.0159 11.4519 401 79.7781 1331.05 582.212
1121 0 34.0763 11.6503 397 81.5466 1331.04 581.899
1122 0 37.1029 12.371 459 79.0959 1330.84 580.556
1123 0 38.107 12.7798 487 77.193 1330.26 580.637
1124 0 40.0432 13.1608 527 75.4459 1330.86 579.419
1125 0 39.0299 13.195 515 76.1049 1330.59 579.61
1126 0 42.0891 13.02 548 76.5091 1331.32 578.535
1127 0 43.1287 13.7495 593 75.2664 1330.79 577.533
1128 0 44.1775 12.9704 573 75.6824 1330.87 578.71
1129 0 44.2162 13.4114 593 76.4975 1330.52 577.518
1130 0 46.0517 13.1157 604 75.947 1330.79 577.659
1131 0 48.1324 13.8368 666 74.3138 1331.39 576.737
1132 0 48.067 13.71 659 75.6024 1330.95 574.959
1133 0 50.0778 13.6188 682 75.2229 1331.37 574.88
1134 0 53.2863 13.9435 743 74.1225 1331.48 572.787
1135 0 54.15 13.4811 730 74.4959 1331.57 573.664
1136 0 55.218 13.5282 747 75.0522 1331.65 572.497
1137 0 56.1783 14.009 787 74.7802 1331.14 571.46
1138 0 59.1405 13.0875 774 75.2571 1330.96 570.301
1139 0 61.299 13.7523 843 74.0214 1331.42 568.941
1140 0 63.0727 13.8887 876 74.2683 1331.48 566.968
1141 0 65.2468 14.0543 917 75.7165 1331.64 566.877
1142 0 66.1328 14.0777 931 75.5854 1331.66 565.882
1143 0 69.2647 13.9032 963 75.8733 1331.93 564.081
1144 0 71.1093 15.0332 1069 74.3835 1332.03 562.833
1145 0 75.0972 14.2482 1070 74.8579 1332.27 561.936
1146 0 77.2306 13.6215 1052 76.192 1332.02 559.333
1147 1 40.026 11.2177 449 75.7751 1332.51 579.263
1148 0 43.1545 11.4704 495 74.099 1333.35 578.588
1149 0 44.0153 12.632 556 73.268 1333.14 577.919
1150 0 43.0455 13.0327 561 73.8146 1333.17 576.221
1151 0 46.0443 13.183 607 73.7084 1332.87 574.01
1152 0 47.1054 13.0346 614 72.9609 1333.01 574.754
1153 0 50.1094 12.8519 644 71.9208 1333.31 573.304
1154 0 52.0943 12.8613 670 71.4746 1333.57 571.818
1155 0 54.2451 12.6647 687 70.7205 1333.77 571.68
1156 0 56.2106 12.9335 727 69.8349 1334.48 569.08
1157 0 58.2605 12.9762 756 69.3148 1334.35 568.406
1158 0 61.2773 12.321 755 69.2265 1334.66 565.948
1159 0 60.2177 12.4216 748 69.2754 1334.96 566.434
1160 0 64.3215 12.764 821 68.5213 1335.2 562.972
1161 0 67.3963 13.1164 884 67.4186 1335.85 562.898
1162 0 68.4692 13.7288 940 66.6106 1335.84 561.143
1163 0 70.5002 12.2978 867 68.0657 1335.61 560.942
1164 0 74.5879 13.0986 977 66.089 1335.46 557.075
1165 0 77.445 12.2151 946 66.8446 1335.81 556.893
1166 1 40.3754 11.1454 450 64.1867 1336.01 577.402
1167 0 39.3636 10.619 418 65.7081 1336.41 576.766
1168 0 42.3212 10.6094 449 65.7394 1336.38 575.869
1169 0 42.1531 10.9126 460 66.9978 1336.13 573.87
1170 0 44.1158 11.9685 528 65.2955 1336.35 572.867
1171 0 46.2045 13.029 602 63.4136 1336.15 572.394
1172 0 45.4012 11.5856 526 65.4373 1335.99 572.675
1173 0 49.2241 11.7219 577 64.3518 1336.19 572.669
1174 0 51.1649 12.4499 637 63.9937 1336.74 569.816
1175 0 53.1677 12.0186 639 63.9703 1336.07 569.648
1176 0 53.2478 12.3573 658 63.7842 1336.31 569.916
1177 0 54.1557 12.4271 673 63.8366 1336.29 568.006
1178 0 56.251 12.6398 711 61.8861 1336.25 568.15
1179 0 59.4262 12.0149 714 63.2017 1336.14 566.692
1180 0 61.3479 12.1928 748 62.738 1336.28 565.417
1181 0 62.3315 11.1661 696 64.0187 1335.67 564.927
1182 0 66.4832 12.2136 812 61.5665 1336.07 563.078
1183 0 68.6276 11.934 819 61.7509 1335.68 559.626
1184 0 71.6002 12.081 865 61.1815 1335.44 559.81
1185 0 73.5069 12.4614 916 60.6517 1335.06 556.508
1186 0 77.7168 12.2882 955 60.2524 1335.35 557.853
1187 1 39.692 9.6745 384 61.1849 1335.68 575.409
1188 0 40.4107 10.6407 430 60.4884 1335.24 574.609
1189 0 44.4282 10.6464 473 60.3214 1334.62 573.854
1190 0 45.295 11.1712 506 60.5474 1335.22 571.427
1191 0 47.1758 11.5737 546 60.4908 1335.42 572.344
1192 0 47.2079 12.6462 597 59.9715 1335.39 571.526
1193 0 50.0642 12.8035 641 59.5164 1335.33 570.115
1194 0 49.1999 12.5 615 60.2553 1334.74 570.137
1195 0 53.2804 12.1433 647 60.6708 1334.7 569.233
1196 0 53.4025 12.4713 666 60.5631 1334.56 568.959
1197 0 54.399 12.0591 656 61.4832 1334.63 568.456
1198 0 56.4333 12.2091 689 61.4644 1334.65 566.782
1199 0 59.6627 13.0065 776 59.8969 1334.18 564.366
1200 0 60.639 13.2588 804 59.6766 1334.77 563.507
1201 0 62.4505 12.8262 801 60.9338 1334.44 559.062
1202 0 65.6176 13.5329 888 59.2477 1334.01 558.589
1203 0 67.4627 13.1925 890 59.7955 1333.97 557.829
1204 0 71.7217 13.7615 987 58.692 1333.67 557.071
1205 0 69.6952 13.0425 909 164.322 1333.61 555.82
1206 0 73.3602 12.9225 948 60.5169 1333.79 554.58
1207 0 78.6276 13.3032 1046 59.8289 1333.56 552.973
1208 0 80.6529 12.6592 1021 60.047 1333.25 552.05
1209 1 42.4958 11.0599 470 59.6596 1332.67 571.006
1210 0 46.4419 11.4767 533 58.0394 1332.79 570.749
1211 0 45.4548 11.7699 535 58.7738 1332.64 571.297
1212 0 46.3112 10.6238 492 60.0589 1332.41 571.171
1213 0 49.204 12.2754 604 58.4106 1332.63 571.959
1214 0 51.3296 12.41 637 58.0754 1332.43 572.24
1215 0 51.155 12.6087 645 58.6837 1333.02 571.157
1216 0 55.2769 12.9892 718 57.2939 1332.45 570.442
1217 0 56.3268 12.9423 729 57.7545 1332.52 569.627
1218 0 58.1789 12.7194 740 57.7176 1332.13 569.236
1219 0 59.1213 13.2947 786 57.5165 1331.6 568.344
1220 0 62.3595 13.9032 867 55.8662 1331.61 568.099
1221 0 63.125 12.5782 794 58.1864 1331.59 564.955
1222 0 65.2821 13.0051 849 57.2214 1331.35 563.57
1223 0 65.2003 12.2852 801 58.5705 1330.84 564.382
1224 0 69.4711 13.4588 935 56.6171 1330.78 560.651
1225 0 73.3208 13.8705 1017 55.116 1331.3 558.027
1226 0 77.3335 14.9095 1153 53.2073 1331.51 556.023
1227 0 77.5831 13.9334 1081 55.2044 1331.12 556.698
1228 0 80.399 14.2663 1147 54.7437 1331.12 556.065
1229 1 41.2707 9.95864 411 57.4672 1331.46 573.837
1230 0 42.3213 10.3258 437 57.7071 1331.32 574.394
1231 0 43.1841 10.6984 462 57.197 1331.26 575.496
1232 0 44.1837 11.1806 494 56.7247 1330.3 575.251
1233 0 47.2274 11.8575 560 54.8554 1330.24 573.862
1234 0 47.2919 12.37 585 54.5658 1330.25 574.238
1235 0 46.2155 11.4031 527 56.6338 1330.37 573.871
1236 0 50.1962 12.9691 651 53.9217 1330.81 572.829
1237 0 53.1711 11.6981 622 54.1495 1330.66 574.537
1238 0 57.3118 14.1681 812 49.9187 1330.14 570.39
1239 0 59.1414 14.5414 860 49.1767 1329.67 568.521
1240 0 62.2688 15.8025 984 47.8689 1330.22 569.24
1241 0 63.1501 16.2945 1029 48.5015 1329.85 566.35
1242 0 63.1689 14.2633 901 50.2264 1330.14 568.214
1243 0 62.1732 13.8162 859 51.4494 1329.94 568.27
1244 0 65.3316 14.4647 945 50.382 1330.1 566.019
1245 0 62.2981 13.0502 813 53.6421 1329.94 566.51
1246 0 65.342 12.4116 811 54.6005 1330.1 565.991
1247 0 68.1366 12.6657 863 54.3326 1330.24 564.512
1248 0 70.1877 13.4781 946 53.9577 1330.17 564.029
1249 0 71.4158 11.9721 855 55.7439 1330.31 563.483
1250 0 74.2302 12.7711 948 55.134 1330.26 561.133
1251 0 76.2748 12.9925 991 55.1271 1330.19 558.543
1252 0 80.2702 13.7162 1101 53.9155 1330.49 556.933
1253 0 84.2887 13.7978 1163 53.9252 1330.58 557.77
1254 1 44.4942 11.7993 525 55.2286 1331.56 576.011
1255 0 44.2413 10.7366 475 56.3158 1331.4 577.156
1256 0 47.2733 12.0998 572 55.5927 1330.99 572.89
1257 0 49.1362 11.9057 585 56.1521 1331.12 572.757
1258 0 51.1163 11.601 593 56.5228 1331.17 572.801
1259 0 52.1629 12.4993 652 55.7899 1331.75 571.555
1260 0 51.2507 12.3706 634 56.6767 1331.34 570.89
1261 0 55.2552 12.6504 699 56.4006 1331.38 569.835
1262 0 57.3977 13.2235 759 55.1937 1331.74 570.094
1263 0 57.3592 13.4939 774 56.1886 1332.06 568.034
1264 0 60.5026 13.6523 826 55.6683 1332.39 567.529
1265 0 62.3935 13.2706 828 56.1365 1332.9 566.345
1266 0 62.2775 13.3756 833 56.9364 1332.96 565.531
1267 0 66.3235 13.4191 890 56.3315 1332.88 563.753
1268 0 68.3714 14.6699 1003 55.1755 1332.96 562.719
1269 0 68.399 13.5821 929 56.9634 1333.1 562.614
1270 0 72.389 13.3308 965 57.1368 1333.61 560.747
1271 0 74.4049 13.5072 1005 57.197 1333.83 559.075
1272 0 76.4007 13.4423 1027 57.0682 1334.3 558.693
1273 0 80.3525 13.9386 1120 56.6723 1334.5 557.678
1274 0 81.4399 14.2805 1163 56.81 1334.69 554.814
1275 0 85.2568 14.6029 1245 56.1671 1334.84 553.303
1276 1 39.2232 10.8609 426 59.6244 1335.39 573.934
1277 0 43.2006 10.3008 445 58.1685 1335.7 574.874
1278 0 47.1645 11.8945 561 56.8717 1335.87 572.109
1279 0 45.1384 12.5392 566 57.1219 1336.34 573.21
1280 0 47.0607 12.0908 569 57.7469 1336.2 571.761
1281 0 49.142 12.82 630 57.1048 1336.82 572.084
1282 0 50.0788 12.7599 639 57.7731 1336.84 570.89
1283 0 52.1323 12.8711 671 57.1818 1337.06 570.338
1284 0 53.0636 12.9844 689 57.701 1337.44 570.104
1285 0 55.0909 13.8498 763 56.3788 1336.83 569.26
1286 0 57.0952 12.7506 728 58.2761 1337.01 567.39
1287 0 58.1843 12.2713 714 58.3894 1337.47 567.368
1288 0 60.1631 13.2141 795 57.6138 1337.28 565.942
1289 0 61.1141 13.1066 801 58.0849 1337.14 565.481
1290 0 65.203 13.1589 858 57.4918 1337.03 564.134
1291 0 68.1541 13.7042 934 57.076 1336.54 562.361
1292 0 67.3153 12.85 865 58.5595 1336.5 561.437
1293 0 72.2166 13.9165 1005 56.3821 1336.36 560.981
1294 0 72.2372 12.8189 926 58.1501 1336.65 560.108
1295 0 76.2909 13.9859 1067 56.94 1336.27 558.101
1296 0 77.253 12.8409 992 58.4456 1336.41 557.805
1297 0 80.3301 13.0213 1046 58.6128 1336.28 555.361
1298 0 84.2548 13.5541 1142 57.5639 1336.13 554.001
1299 1 41.3435 10.4007 430 58.4186 1336.7 576.067
1300 0 43.2397 11.3322 490 57.8633 1336.31 575.124
1301 0 44.1114 11.947 527 58.9545 1335.52 573.77
1302 0 43.2418 12.5804 544 60.1011 1335.82 572.379
1303 0 46.1467 11.9402 551 60.1361 1335.93 572.123
1304 0 49.0846 12.0608 592 59.3666 1335.68 571.774
1305 0 51.2229 12.6116 646 59 1336.07 571.159
1306 0 51.2049 12.9284 662 58.8263 1335.99 567.921
1307 0 52.3354 13.4708 705 58.305 1335.98 567.308
1308 0 52.4323 13.2743 696 59.0891 1335.65 567.611
1309 0 54.4413 13.611 741 58.5695 1335.45 566.503
1310 0 55.3411 13.5162 748 58.7259 1335.18 566.524
1311 0 57.3938 12.9282 742 59.7102 1335.07 565.427
1312 0 61.6268 13.5168 833 57.7383 1335.37 563.791
1313 0 62.6643 13.4686 844 58.1256 1334.72 564.575
1314 0 63.4214 13.5916 862 58.8306 1334.38 561.271
1315 0 67.6799 13.357 904 58.0841 1334.37 561.743
1316 0 68.3974 13.1291 898 58.5457 1333.73 563.339
1317 0 71.6131 14.2432 1020 57.4304 1333.7 559.997
1318 0 72.7255 13.0353 948 58.9968 1333.5 559.658
1319 0 77.8358 14.0938 1097 57.0966 1333.12 559.376
1320 0 78.6973 13.3931 1054 58.9848 1333.08 556.908
1321 0 82.6796 13.8849 1148 57.9338 1333.25 557.108
1322 0 84.6517 12.829 1086 59.0212 1332.78 555.481
1323 1 43.4383 12.0861 525 59.7276 1332.64 574.545
1324 0 45.4348 11.8191 537 59.9125 1332.73 572.499
1325 0 47.5488 13.2916 632 58.144 1332.99 572.223
1326 0 51.7757 13.5198 700 57.46 1332.46 571.909
1327 0 50.6581 12.9693 657 59.2801 1332.56 569.481
1328 0 51.573 12.6617 653 59.4778 1332.58 569.983
1329 0 53.488 13.891 743 57.9381 1332.73 569.964
1330 0 55.6638 13.8331 770 58.0727 1332.84 567.965
1331 0 57.5583 14.1769 816 58.2892 1332.23 566.719
1332 0 61.5461 14.1358 870 56.5506 1331.98 567.241
1333 0 61.5998 13.1332 809 58.6143 1332.28 567.261
1334 0 62.4725 14.0542 878 59.5091 1332.21 566.555
1335 0 63.721 13.8416 882 59.6485 1332.57 564.93
1336 0 66.519 14.1614 942 58.8822 1332.04 563.515
1337 0 69.3778 14.0679 976 59.168 1331.88 561.766
1338 0 71.6805 13.5183 969 59.6522 1332.04 561.665
1339 0 75.6287 14.8621 1124 57.3772 1331.88 559.818
1340 0 77.6334 13.5766 1054 59.1641 1331.64 559.711
1341 0 78.5428 14.1834 1114 58.9632 1331.72 558.288
1342 0 80.6207 13.5201 1090 60.144 1332.12 557.371
1343 0 82.5507 14.1852 1171 59.8198 1331.88 554.662
1344 0 86.5122 14.4257 1248 59.399 1331.64 553.688
1345 0 90.519 14.0302 1270 59.8661 1331 553.378
1346 1 41.4538 10.4213 432 63.956 1331.34 576.007
1347 0 42.7964 11.1692 478 64.9791 1330.79 572.605
1348 0 45.5065 12.7454 580 62.9017 1330.93 571.69
1349 0 46.5509 11.3854 530 66.0566 1330.53 571.64
1350 0 48.5619 12.4789 606 65.0165 1330.38 571.003
1351 0 48.4586 12.8151 621 65.5523 1330.3 568.148
1352 0 49.6219 13.4819 669 65.4634 1330.59 568.16
1353 0 51.4791 14.1028 726 64.6997 1330.2 567.51
1354 0 53.6463 13.6263 731 65.5185 1330.18 567.081
1355 0 54.4867 13.7465 749 65.2924 1330.17 567.947
1356 0 55.4784 13.8252 767 65.7223 1329.79 566.82
1357 0 58.3913 13.8034 806 65.768 1329.36 564.67
1358 0 61.6525 13.7869 850 65.0247 1329.28 564.64
1359 0 61.7687 12.8706 795 66.9761 1329.21 564.001
1360 0 63.4688 13.7548 873 65.9175 1329.03 562.947
1361 0 66.7068 13.4919 900 66.0522 1329 562.221
1362 0 69.6935 14.0759 981 64.8899 1329.39 561.822
1363 0 70.5998 13.5411 956 66.8766 1328.8 558.922
1364 0 72.409 14.3076 1036 65.2693 1328.95 558.126
1365 0 75.828 13.4251 1018 66.7701 1328.85 557.287
1366 1 39.4296 9.86567 389 67.4704 1329.66 575.951
1367 0 40.3868 10.548 426 68.4742 1329.45 573.716
1368 0 42.2465 10.5808 447 66.8591 1329.28 575.107
1369 0 42.4256 10.7011 454 68.5022 1328.8 575.013
1370 0 45.2934 12.2534 555 66.1586 1328.7 573.728
1371 0 46.1493 11.3978 526 67.2681 1329.08 573.302
1372 0 48.1249 11.3663 547 67.1115 1328.57 574.079
1373 0 49.3068 12.1282 598 66.8144 1328.49 571.881
1374 0 50.1965 12.8495 645 65.7767 1329.03 570.065
1375 0 53.294 12.5342 668 66.0479 1329 569.972
1376 0 53.2933 12.8159 683 66.0132 1329.14 568.568
1377 0 56.5563 12.6423 715 65.6909 1329.27 569.813
1378 0 55.2264 12.2224 675 67.0948 1328.72 567.415
1379 0 58.52 12.4402 728 66.2157 1329.49 566.511
1380 0 60.4056 13.3762 808 64.2339 1329.59 565.657
1381 0 62.2883 13.582 846 63.5768 1329.44 564.396
1382 0 64.6388 13.3356 862 61.5197 1329.79 566.274
1383 0 66.3994 12.8616 854 62.9672 1329.77 563.79
1384 0 69.3612 13.1053 909 62.9659 1329.43 561.747
1385 0 70.3847 12.9858 914 64.8643 1329.64 559.966
1386 0 73.3728 13.4927 990 63.496 1329.78 559.124
1387 0 73.2593 13.6638 1001 63.6613 1329.62 559.573
1388 0 76.3415 13.4134 1024 63.8818 1330.13 557.187
1389 0 80.4802 13.5561 1091 63.1797 1330.08 555.653
1390 0 83.4522 13.8163 1153 62.9419 1330.38 554.1
1391 0 84.4371 13.8446 1169 62.7802 1330.02 553.523
1392 0 89.4905 13.7557 1231 62.3591 1330.54 552.249
1393 1 45.3122 9.6442 437 62.1465 1330.94 575.192
1394 0 47.3324 10.8594 514 61.4027 1330.94 573.152
1395 0 48.2843 10.9767 530 61.366 1330.93 573.351
1396 0 49.187 11.8527 583 60.7444 1330.66 572.696
1397 0 51.4492 12.7699 657 59.5449 1330.58 571.396
1398 0 53.2455 11.9071 634 60.5315 1330.99 570.631
1399 0 52.1599 13.056 681 59.7034 1331.44 570.088
1400 0 55.3099 12.439 688 59.702 1331.86 569.733
1401 0 55.1584 12.6182 696 59.4353 1331.88 568.244
1402 0 59.2847 13.393 794 57.9849 1332.38 564.655
1403 0 61.2794 12.9897 796 57.5088 1332.33 565.742
1404 0 62.4709 12.934 808 57.6374 1332.81 563.54
1405 0 64.4428 11.4986 741 58.5695 1332.86 563.093
1406 0 66.4992 12.6017 838 57.4308 1333.2 561.171
1407 0 69.4535 13.3614 928 56.7716 1333.72 560.839
1408 0 72.7217 13.6548 993 56.3061 1333.88 558.762
1409 0 74.4517 13.0017 968 57.0444 1333.7 556.811
1410 0 77.7788 13.6798 1064 56.0395 1333.86 555.557
1411 0 80.4385 13.7372 1105 55.9774 1334.18 553.446
1412 0 81.3459 12.7235 1035 57.5005 1334.4 554.143
1413 1 43.3713 11.0672 480 55.1479 1334.82 573.34
1414 0 45.2686 10.3162 467 56.1242 1334.3 574.131
1415 0 47.2854 10.4472 494 55.3117 1334.16 572.49
1416 0 48.26 11.4795 554 55.4657 1334.21 570.614
1417 0 50.336 11.6219 585 54.6632 1334.98 570.829
1418 0 52.1524 11.8499 618 53.8188 1335.2 570.536
1419 0 52.1931 11.8406 618 53.9547 1335.03 569.202
1420 0 54.1525 11.4676 621 54.6361 1335.08 567.768
1421 0 57.3058 12.7736 732 52.4194 1335.23 566.673
1422 0 59.2772 12.1632 721 53.1137 1335.37 567.007
1423 0 61.3487 11.3613 697 54.2023 1335.22 565.692
1424 0 64.3358 12.7923 823 52.4581 1335.08 564.644
1425 0 66.44 12.2667 815 52.5718 1334.98 562.429
1426 0 67.342 12.0133 809 52.9592 1335.04 562.334
1427 0 68.3894 11.727 802 53.8753 1334.29 560.971
1428 0 70.4818 11.8754 837 54.0538 1334.62 560.141
1429 0 74.5098 12.7634 951 52.6362 1334.25 559.526
1430 0 74.4922 11.9878 893 54.0952 1334.39 557.356
1431 0 76.4703 11.8739 908 53.761 1334.52 556.075
1432 0 79.5693 12.1404 966 53.7391 1334.81 553.052
1433 0 85.4483 13.3765 1143 52.0131 1334.54 554.836
1434 1 42.395 9.03409 383 52.7546 1335.17 576.514
1435 0 42.3617 9.30085 394 52.6701 1334.98 576.668
1436 0 44.4175 10.1536 451 53.1175 1334.53 574.062
1437 0 46.1161 10.6904 493 53.0061 1334.58 574.077
1438 0 47.1851 11.3595 536 53.7612 1334.83 572.649
1439 0 47.2299 11.1794 528 54.2765 1334.7 572.578
1440 0 49.1782 11.4075 561 53.0553 1334.5 571.945
1441 0 52.3287 11.9246 624 52.4583 1334.5 570.446
1442 0 53.3187 12.7723 681 51.6344 1334.66 570.523
1443 0 53.1936 12.4263 661 52.466 1333.96 569.472
1444 0 54.3827 12.081 657 54.7473 1334.33 569.146
1445 0 57.1766 12.2428 700 54.2443 1334.6 568.71
1446 0 57.2436 11.7218 671 54.845 1334.75 569.192
1447 0 60.3873 11.4097 689 54.82 1334.17 567.224
1448 0 61.4089 12.5063 768 53.7904 1334.42 566.111
1449 0 61.2454 12.7846 783 53.9144 1334.42 565.365
1450 0 63.2754 12.4061 785 54.3605 1333.86 565.608
1451 0 66.3953 12.6666 841 53.962 1334.09 564.015
1452 0 67.2872 12.4392 837 54.5114 1333.3 562.993
1453 0 69.4517 12.1955 847 54.5667 1333.19 561.803
1454 0 69.3885 12.1922 846 55.1253 1333.36 561.726
1455 0 73.4587 13.3136 978 53.3558 1332.81 560.792
1456 0 75.6092 13.5566 1025 53.7405 1332.97 558.284
1457 0 76.5178 13.3302 1020 54.2392 1332 557.614
1458 0 77.658 12.5937 978 55.3947 1332.06 556.393
1459 0 81.3803 13.652 1111 54.1485 1332.53 555.57
1460 0 81.6374 13.1435 1073 54.9702 1332.05 555.839
1461 0 85.5123 12.3374 1055 55.3507 1331.7 555.61
1462 1 45.4721 10.1381 461 54.462 1332.36 575.252
1463 0 45.3491 10.0553 456 54.261 1332.23 577.456
1464 0 45.2672 10.0293 454 55.2423 1332.2 575.482
1465 0 46.2797 10.0692 466 54.9807 1331.94 577.03
1466 0 49.1665 11.1865 550 54.2 1331.77 573.533
1467 0 50.148 11.5857 581 54.3494 1331.65 572.85
1468 0 51.2328 10.8134 554 55.2762 1331.5 573.74
1469 0 53.3739 10.6981 571 55.9667 1331.49 572.779
1470 0 54.1881 11.6815 633 54.9937 1331.54 573.299
1471 0 57.3237 12.0718 692 54.2934 1331.08 570.215
1472 0 58.3372 12.702 741 53.525 1330.39 571.023
1473 0 60.2535 11.7504 708 54.6257 1331.28 567.387
1474 0 62.3117 12.5498 782 53.9987 1331.5 568.069
1475 0 63.2472 12.3167 779 54.5866 1330.94 567.779
1476 0 63.2472 12.3167 779 151.633 1329.94 567.779
1477 0 63.2472 12.3167 779 151.01 1328.94 567.779
1478 0 70.1822 12.895 905 53.747 1330.38 563.551
1479 0 72.3586 12.6454 915 54.2874 1330.02 564.413
1480 0 74.4706 13.4147 999 53.3403 1329.86 563.283
1481 0 77.4412 14.3076 1108 52.815 1329.48 561.231
1482 0 79.4153 13.2468 1052 54.3489 1329.74 560.291
1483 0 80.2117 13.1278 1053 54.9449 1329.83 559.846
1484 0 82.3454 13.577 1118 54.856 1329.96 558.161
1485 0 84.2661 12.5673 1059 56.2446 1329.49 557.315
1486 0 87.3325 13.2253 1155 55.1048 1329.63 557.858
1487 0 89.393 12.3388 1103 56.5168 1329.56 555.563
1488 0 94.3063 14.2302 1342 53.965 1329.58 553.806
1489 1 51.1038 10.7428 549 56.816 1329.84 574.204
1490 0 53.0641 11.0621 587 56.1465 1329.99 574.697
1491 0 58.0951 12.5484 729 53.8738 1330.3 572.952
1492 0 57.1235 11.729 670 56.5284 1330.04 571.057
1493 0 58.087 11.4311 664 56.738 1330.23 570.166
1494 0 63.0656 12.7328 803 54.6289 1330.4 569.735
1495 0 63.1126 12.8342 810 55.4123 1329.72 566.942
1496 0 66.1228 12.87 851 55.2162 1330.35 566.586
1497 0 69.1858 12.8639 890 55.0764 1330.15 564.774
1498 0 71.1157 14.0053 996 54.8343 1330.57 564.31
1499 0 74.0905 13.335 988 55.3451 1330.54 561.472
1500 0 75.146 13.2409 995 56.209 1330.96 561.303
1501 0 78.0793 12.0775 943 57.8165 1330.85 560.446
1502 0 80.1363 13.5519 1086 56.1851 1331.35 560.98
1503 0 82.1814 13.0321 1071 57.2568 1331.64 557.709
1504 0 86.1761 13.6697 1178 56.753 1331.4 556.479
1505 0 86.1972 13.3647 1152 57.7839 1331.6 555.194
1506 0 89.1052 12.9173 1151 58.3128 1331.5 555.803
1507 0 93.1588 13.6541 1272 57.5558 1331.89 552.729
1508 0 95.323 13.407 1278 57.9757 1332.2 551.895
1509 0 97.2861 13.5271 1316 57.4453 1332.13 550.093
1510 0 102.289 13.5596 1387 57.3994 1332.29 549.107
1511 0 102.265 11.9786 1225 60.1061 1333.21 547.576
1512 0 108.275 13.7428 1488 57.9341 1333.31 546.164
1513 0 110.179 13.8139 1522 58.1899 1333.33 545.612
1514 1 57.0262 11.293 644 58.7748 1334.25 571.663
1515 0 61.0857 12.1305 741 57.2686 1334.29 570.923
1516 0 60.133 11.5577 695 59.3612 1334.45 567.22
1517 0 64.0754 13.1252 841 57.0547 1334.69 566.772
1518 0 67.0676 12.3308 827 57.1125 1334.52 565.981
1519 0 69.2634 12.6185 874 56.8707 1334.88 563.755
1520 0 71.0906 12.7865 909 56.9098 1334.84 561.816
1521 0 72.0986 12.372 892 57.6558 1335.21 561.774
1522 0 75.1058 13.3279 1001 56.8472 1335.49 560.047
1523 0 79.1415 13.1284 1039 57.0731 1335.44 558.899
1524 0 79.0808 13.4546 1064 57.0733 1335.72 558.656
1525 0 82.1461 13.3908 1100 57.3891 1335.84 556.98
1526 0 86.1488 13.2445 1141 56.7809 1335.5 556.569
1527 0 89.1725 13.3449 1190 56.6857 1335.76 552.998
1528 0 92.1504 13.6299 1256 55.7803 1335.89 553.153
1529 0 93.4194 12.5135 1169 57.8777 1335.32 551.175
1530 0 98.2417 13.5788 1334 56.0577 1335.66 550.326
1531 0 99.2974 14.4314 1433 55.5415 1335.37 547.556
1532 0 103.157 13.1353 1355 57.7764 1335.41 545.328
1533 0 107.153 13.1215 1406 58.229 1335.09 543.94
1534 1 54.0869 10.7605 582 58.1959 1335.54 570.258
1535 0 58.0765 12.0186 698 56.6375 1335.98 570.327
1536 0 59.063 12.0041 709 56.6417 1335.75 567.963
1537 0 61.1753 12.8647 787 56.5362 1334.62 568.348
1538 0 63.1374 11.8313 747 57.9424 1334.46 568.612
1539 0 64.2361 13.3258 856 56.5082 1334.88 566.638
1540 0 67.2845 13.2869 894 56.2371 1334.86 564.676
1541 0 67.315 13.2363 891 56.7228 1334.66 563.586
1542 0 70.1723 12.8113 899 56.8977 1334.83 562.979
1543 0 74.1662 12.7551 946 56.8837 1334.9 561.317
1544 0 75.2612 13.3934 1008 56.1349 1334.68 560.468
1545 0 78.3152 12.9604 1015 56.5626 1334.99 559.271
1546 0 81.2526 12.3196 1001 56.8511 1335.07 558.09
1547 0 84.1643 13.3192 1121 55.6307 1334.64 556.628
1548 0 87.3319 13.5804 1186 55.4975 1334.54 555.278
1549 0 89.368 13.036 1165 55.8275 1334.5 555.083
1550 1 49.1293 10.5436 518 56.2297 1334.3 571.683
1551 0 51.2287 11.6732 598 54.2742 1334.61 571.069
1552 0 50.1408 11.8865 596 55.5252 1333.91 569.421
1553 0 52.2057 12.4699 651 54.9293 1333.68 566.903
1554 0 55.165 12.2541 676 54.7604 1333.4 566.287
1555 0 54.1154 12.9353 700 54.5243 1333.73 567.637
1556 0 55.0864 12.199 672 55.7634 1333.42 566.897
1557 0 55.0901 12.9787 715 55.0909 1333.54 566.997
1558 0 59.0658 13.2395 782 53.945 1334.43 567.309
1559 0 62.1471 12.921 803 54.5143 1333.86 565.672
1560 0 63.1391 13.2406 836 54.4665 1333.49 562.902
1561 0 66.1237 13.5504 896 54.2388 1333.39 562.613
1562 0 70.1944 13.8188 970 53.1103 1333.8 563.324
1563 0 68.2182 12.5187 854 55.4098 1333.79 561.54
1564 0 70.2185 13.0165 914 54.8337 1333.58 560.907
1565 0 76.1359 12.4252 946 55.0233 1332.92 561.475
1566 0 75.1029 13.8077 1037 54.2527 1333.17 558.1
1567 0 78.0775 13.2304 1033 54.7754 1332.85 556.279
1568 0 82.1333 13.1615 1081 54.6401 1332.58 558.519
1569 0 84.1724 13.306 1120 54.7438 1332.38 554.404
1570 0 86.2003 13.5382 1167 54.3162 1332.51 553.207
1571 1 45.095 11.2208 506 55.7016 1332.1 573.787
1572 0 44.0398 11.8529 522 55.8295 1332.45 573.881
1573 0 50.061 12.7045 636 54.2736 1332.08 572.569
1574 0 50.044 12.9286 647 54.0726 1332.08 571.719
1575 0 51.0241 11.9747 611 55.5188 1331.95 571.005
1576 0 53.1165 13.0092 691 54.5586 1332.35 570.362
1577 0 55.0665 13.4746 742 53.8962 1332.47 569.349
1578 0 58.1056 12.6494 735 55.4544 1331.99 569.946
1579 0 62.1334 14.0343 872 53.2741 1331.97 569.962
1580 0 63.129 13.7655 869 53.817 1331.6 569.162
1581 0 65.1185 13.867 903 53.7984 1331.15 567.906
1582 0 67.2296 13.3721 899 54.1135 1331.59 567.633
1583 0 68.2746 12.4058 847 55.1795 1330.61 565.514
1584 0 73.1519 12.7406 932 54.1845 1330.79 564.662
1585 0 76.3283 12.931 987 53.7183 1331.08 563.634
1586 0 78.2353 13.3316 1043 53.5561 1330.88 562.426
1587 0 81.1664 12.69 1030 54.1602 1330.82 560.741
1588 0 83.2194 11.9924 998 54.4148 1330.28 559.754
1589 0 86.2035 12.7953 1103 53.4071 1329.57 557.25
1590 1 44.0798 10.5491 465 54.2903 1330.19 576.114
1591 0 48.1035 11.3505 546 52.2839 1330.68 577.839
1592 0 46.1754 11.2398 519 53.7399 1330.37 575.647
1593 0 50.1335 12.6064 632 52.0775 1330.37 574.494
1594 0 51.1984 13.0278 667 51.1244 1330.48 572.79
1595 0 55.1676 12.1992 673 51.4562 1330.35 573.064
1596 0 55.1639 12.2181 674 51.9095 1330.74 573.141
1597 0 57.1699 13.0663 747 50.9746 1330.79 570.189
1598 0 59.1991 13.1252 777 50.61 1330.81 570.306
1599 0 61.1661 12.932 791 51.0923 1330.68 568.703
1600 0 63.1215 12.769 806 50.9454 1331.06 567.603
1601 0 64.2338 13.8089 887 50.4645 1330.73 567
1602 0 65.1319 13.0197 848 51.4422 1330.71 565.37
1603 0 69.3617 14.3162 993 49.6788 1331.48 564.515
1604 0 70.2441 13.4104 942 51.0106 1330.97 562.403
1605 0 72.1279 14.2247 1026 50.768 1332.15 557.566
1606 0 76.1896 14.6214 1114 49.7837 1331.82 555.949
1607 0 78.2532 13.4946 1056 51.0994 1332.03 556.633
1608 0 79.1121 13.9043 1100 51.34 1331.95 557.324
1609 0 84.1558 14.3424 1207 50.5253 1332.49 555.402
1610 0 84.1558 14.3543 1208 147.598 1332.51 555.317
1611 1 45.093 11.3987 514 52.1128 1332.98 573.905
1612 0 45.093 11.3765 513 154.823 1334.01 573.979
1613 0 48.0896 11.0003 529 52.6881 1333.46 572.762
1614 0 49.0676 12.1058 594 51.8855 1333.49 572.921
1615 0 50.0835 12.7787 640 51.6312 1333.41 572.112
1616 0 52.1155 12.2804 640 52.3266 1333.42 571.356
1617 0 54.0477 12.7295 688 52.5189 1334.07 570.18
1618 0 57.0922 13.1016 748 52.3984 1335.38 569.294
1619 0 57.049 13.1115 748 53.1377 1335.58 567.201
1620 0 60.0709 13.8337 831 52.3779 1335.51 567.061
1621 0 59.1136 13.2964 786 53.8728 1335.41 566.48
1622 0 61.08 13.0157 795 54.5384 1335.62 563.947
1623 0 65.2141 14.2147 927 52.4876 1335.76 563.544
1624 0 65.1705 14.0247 914 53.4442 1335.46 561.732
1625 0 69.2628 13.6292 944 53.1801 1335.47 561.562
1626 0 71.1965 13.3715 952 53.5326 1335.61 560.107
1627 0 72.2111 14.2914 1032 53.3837 1336.07 558.823
1628 0 75.2651 14.0038 1054 53.9573 1336.23 557.979
1629 0 77.1794 12.5292 967 55.9328 1336.75 556.029
1630 0 80.1529 13.5741 1088 54.7289 1336.2 555.356
1631 0 81.1876 13.5735 1102 55.5417 1336.24 552.544
1632 0 84.3113 14.399 1214 54.43 1336.32 551.849
1633 0 87.2143 14.0229 1223 55.3704 1336.04 550.708
1634 0 90.3483 14.1674 1280 55.4023 1336.38 549.604
1635 0 93.2732 13.7875 1286 55.7838 1336.34 548.627
1636 0 94.2349 12.9464 1220 56.8139 1336.1 548.104
1637 1 50.2025 10.2983 517 57.4662 1336.87 568.876
1638 0 55.162 12.3455 681 55.2496 1336.06 568.28
1639 0 54.2016 11.6048 629 56.504 1336.06 567.824
1640 0 58.1977 12.6465 736 55.7772 1336.15 566.268
1641 0 58.0522 12.2131 709 55.4189 1336.51 567.003
1642 0 59.1271 12.1941 721 55.9584 1336.77 566.687
1643 0 63.1364 13.4312 848 54.4965 1336.92 563.482
1644 0 65.1003 12.2734 799 55.2153 1336.31 564.333
1645 0 67.116 13.2308 888 54.5203 1336.02 561.511
1646 0 69.1814 13.3273 922 54.5282 1335.93 560.708
1647 0 71.2498 12.5895 897 55.2899 1336.38 560.854
1648 0 72.2939 13.1823 953 55.0325 1336.27 556.963
1649 0 76.353 13.7388 1049 54.4004 1335.83 557.661
1650 0 78.2702 12.9296 1012 54.9437 1335.57 556.808
1651 0 81.1475 13.8883 1127 54.3079 1335.45 553.76
1652 0 83.1404 12.6172 1049 55.4757 1335.16 553.478
1653 0 84.2313 11.5278 971 56.5366 1335.14 552.699
1654 0 90.2363 12.8551 1160 54.6379 1335.4 549.628
1655 0 92.1364 13.3823 1233 54.026 1335.26 550.06
1656 0 96.1837 13.1519 1265 54.0174 1334.85 546.991
1657 0 98.2421 13.426 1319 53.8848 1334.6 544.939
1658 0 101.292 13.16 1333 53.6534 1334.34 543.602
1659 0 105.312 13.3128 1402 53.5036 1333.83 543.313
1660 0 105.32 12.5807 1325 54.5457 1334.07 540.449
1661 0 111.391 12.9275 1440 53.5549 1333.86 538.591
1662 1 60.184 11.847 713 51.8485 1333.97 564.262
1663 0 64.1453 9.88381 634 53.0726 1334.13 563.899
1664 0 65.2221 11.4838 749 51.733 1334.09 563.981
1665 0 68.2583 11.1928 764 51.7317 1333.68 562.776
1666 0 72.1407 12.5865 908 51.4791 1334.44 558.9
1667 0 74.128 12.8561 953 49.8437 1334.19 557.239
1668 0 74.197 11.7929 875 51.0857 1333.9 558.319
1669 0 77.1042 11.7892 909 50.462 1333.66 557.359
1670 0 81.1953 12.4268 1009 49.4906 1333.63 555.588
1671 0 83.2189 11.7762 980 50.25 1333.21 553.065
1672 0 86.1955 11.7059 1009 50.1219 1332.33 554.525
1673 0 90.1847 12.807 1155 49.4597 1332.11 550.629
1674 0 92.3032 12.4589 1150 49.5757 1332.4 549.223
1675 0 97.3812 12.9594 1262 48.939 1331.98 549.285
1676 0 99.3812 13.1212 1304 49.1725 1332.25 545.536
1677 0 101.328 11.6651 1182 50.6261 1332.18 547.028
1678 0 104.356 12.3998 1294 50.3895 1331.56 544.918
1679 0 106.323 12.4432 1323 50.5964 1331.43 544.883
1680 0 112.315 13.2841 1492 50.1602 1331.71 539.801
1681 0 115.356 13.48 1555 50.319 1331.61 540.451
1682 0 115.212 12.3338 1421 52.2315 1331.57 535.742
1683 0 119.357 12.693 1515 52.0607 1331.6 537.106
1684 0 119.464 12.3134 1471 52.015 1331.64 534.219
1685 0 125.219 13.2169 1655 51.1946 1331.24 533.748
1686 0 130.332 13.1587 1715 51.2851 1331.31 534.988
1687 0 131.335 13.4466 1766 51.9071 1330.93 534.504
1688 0 135.345 13.0555 1767 52.6225 1331.03 529.604
1689 0 141.308 14.3092 2022 51.5084 1330.84 526.155
1690 0 144.488 13.752 1987 52.5531 1330.65 524.848
1691 0 147.176 13.2359 1948 53.614 1330.67 524.485
1692 0 151.568 13.4198 2034 54.1996 1329.77 519.488
1693 0 156.235 13.4349 2099 54.8552 1329.29 518.411
1694 0 160.381 13.4617 2159 55.4169 1329.91 515.33
1695 0 166.288 13.8254 2299 55.4176 1329.76 513.394
1696 0 170.265 14.2249 2422 55.4616 1329.37 509.929
1697 0 174.405 13.0157 2270 57.1586 1329.3 509.413
1698 0 179.328 14.0748 2524 55.8867 1329.24 506.25
1699 0 184.387 13.9977 2581 56.408 1329.11 504.824
1700 0 190.384 13.935 2653 56.6883 1329.11 501.945
1701 0 194.394 14.162 2753 56.9506 1328.69 501.409
1702 0 198.42 14.3786 2853 57.4651 1329.2 498.93
1703 0 205.33 14.7129 3021 57.5257 1328.96 491.658
1704 0 210.358 14.4468 3039 58.1787 1328.76 493.068
1705 0 213.384 14.0311 2994 59.3784 1328.78 490.597
1706 0 223.357 15.4506 3451 57.1159 1328.4 486.356
1707 0 230.403 15.5727 3588 56.9816 1329.03 481.327
1708 0 235.339 14.9444 3517 58.2977 1328.95 476.918
1709 0 241.251 15.5067 3741 57.563 1329.12 474.519
1710 0 250.388 14.7971 3705 58.2432 1328.74 469.184
1711 0 256.334 15.7997 4050 56.8494 1329.27 466.578
1712 0 264.333 16.3733 4328 56.3699 1329.17 465.119
1713 0 270.57 15.3675 4158 57.5755 1329.42 457.12
1714 0 277.543 14.668 4071 58.5534 1329.58 456.004
1715 0 287.456 15.3449 4411 57.516 1329.41 450.923
1716 0 296.387 16.1512 4787 56.6773 1329.41 448.41
1717 0 302.483 15.753 4765 57.3324 1329.64 442.17
1718 0 310.559 15.5139 4818 57.2829 1329.66 438.284
1719 0 316.611 15.1827 4807 57.9488 1329.6 435.089