time division length width area intensity CMx CMy
0 0 67.4534 12.6902 856 71.1297 1019.92 577.79
1 0 69.548 12.7969 890 71.6292 1019.67 576.29
2 0 72.3338 13.0783 946 71.2283 1019.63 575.733
3 1 34.5725 10.5864 366 71.735 1020.26 593.396
4 0 37.5214 10.5007 394 72.3198 1019.78 591.068
5 0 37.4786 10.8862 408 71.2745 1019.75 591.966
6 0 40.3246 11.1098 448 71.0714 1019.64 589.824
7 0 41.2201 11.7418 484 71.2893 1020.14 590.339
8 0 41.4806 11.427 474 73.3987 1020.24 589.755
9 0 44.4162 11.9101 529 72.5047 1020.45 589.182
10 0 43.2994 11.4551 496 74.3468 1019.79 588.379
11 0 45.3488 12.5692 570 72.8702 1019.34 587.377
12 0 46.3008 11.7277 543 74.7385 1019.64 587.029
13 0 48.31 12.5647 607 73.7628 1019.83 584.862
14 0 49.3222 12.8745 635 73.0268 1019.4 584.553
15 0 50.4229 11.4234 576 74.0729 1019.66 584.698
16 0 53.3672 12.3484 659 72.8923 1019.65 581.906
17 0 57.3361 12.9412 742 71.0499 1019.54 581.958
18 0 56.2627 12.6727 713 72.5456 1019.39 580.927
19 0 59.3028 12.1073 718 73.4694 1019.57 579.393
20 0 62.3317 12.8346 800 72.2675 1019.88 579.519
21 0 63.4786 13.6581 867 71.6967 1019.72 577.931
22 0 64.437 13.3619 861 73.2567 1019.31 577.436
23 0 66.4514 13.3631 888 73.9043 1019.91 576.423
24 0 67.2422 13.4291 903 75.4474 1019.86 574.931
25 0 67.2422 13.4291 903 172.932 1019.86 574.893
26 0 72.488 13.0918 949 76.0727 1020.11 573.698
27 0 74.4369 13.3267 992 100.992 1020.21 571.802
28 1 38.596 10.856 419 77.852 1020.51 590.007
29 0 39.4738 10.7666 425 78.6518 1020.67 589.666
30 0 41.3728 11.7952 488 77.0594 1021.18 589.523
31 0 42.4421 12.4169 527 76.9924 1021.2 589.12
32 0 45.4059 12.3332 560 77.0071 1021.04 587.477
33 0 47.3469 12.6302 598 76.4833 1020.89 587.773
34 0 48.3497 12.4096 600 77.6433 1021.51 587.343
35 0 48.3162 12.3561 597 78.9916 1021.19 585.084
36 0 50.324 12.4593 627 78.5152 1021.16 585.175
37 0 53.3567 13.2504 707 77.0608 1021.17 584.007
38 0 53.3486 12.6339 674 78.2166 1021.16 585.358
39 0 54.3189 13.0894 711 79.0098 1021.26 582.9
40 0 55.2655 13.5166 747 78.4177 1021.38 581.312
41 0 59.2621 12.8919 764 78.2291 1021.16 581.834
42 0 61.2832 12.9562 794 78.1562 1020.57 579.798
43 0 63.2174 13.6671 864 76.6123 1021.06 579.457
44 0 63.1641 12.8871 814 79.6941 1021.1 577.773
45 0 66.2535 13.2068 875 78.1931 1021.05 576.634
46 0 68.1946 13.7988 941 77.4878 1021.21 575.136
47 0 70.089 13.1547 922 79.4642 1021.33 573.395
48 0 73.1029 12.927 945 79.7608 1021.27 571.77
49 0 77.2352 13.6337 1053 77.8376 1021.33 571.219
50 0 77.3829 13.375 1035 78.9179 1021.57 569.866
51 0 82.2487 13.3011 1094 77.9772 1021.78 568.872
52 1 41.2588 10.8825 449 80.4699 1021.81 587.702
53 0 42.1247 11.4185 481 79.7713 1021.41 586.468
54 0 44.1836 12.4028 548 70.7956 1021.48 584.568
55 0 45.3277 13.0163 590 70.0068 1021.52 584.795
56 0 47.1125 12.2685 578 70.9706 1021.98 584.118
57 0 48.2366 11.3399 547 72.7331 1021.97 583.757
58 0 51.1507 13.6655 699 67.9742 1021.54 582.621
59 0 52.1483 12.963 676 68.8935 1021.95 581.929
60 0 55.2594 13.0476 721 68.5784 1021.85 581.04
61 0 56.1427 12.4504 699 70.9328 1022.2 581.044
62 0 58.1958 12.836 747 69.9973 1021.97 579.621
63 0 58.1635 13.2386 770 70.8545 1021.51 578.553
64 0 61.0922 13.5042 825 70.1236 1021.86 576.099
65 0 63.1256 13.0692 825 71.2861 1022.09 575.261
66 0 64.0646 13.4084 859 70.8161 1021.82 573.285
67 0 67.1032 13.0992 879 71.182 1021.79 572.309
68 0 69.073 13.3482 922 70.9685 1021.75 570.721
69 0 71.0739 12.9302 919 72.1959 1021.72 569.737
70 0 74.0856 14.2403 1055 69.9318 1021.87 568.427
71 0 78.0533 14.2595 1113 69.1671 1022.15 566.79
72 0 79.1144 13.234 1047 71.8243 1022.6 564.871
73 0 82.1619 13.8994 1142 70.3345 1023.02 563.715
74 0 83.1342 13.5083 1123 72.1069 1022.93 561.158
75 1 44.0579 10.804 476 71.7101 1023.11 581.935
76 0 45.0115 10.6195 478 73.5481 1022.86 580.544
77 0 49.036 11.2978 554 71.3718 1022.42 580.363
78 0 50.0648 12.2841 615 71.252 1022.51 578.67
79 0 52.0122 12.1702 633 71.0205 1023.28 577.515
80 0 52.1198 12.3178 642 71.5327 1023.4 575.796
81 0 56.1056 12.9577 727 69.8473 1023.89 574.376
82 0 57.2136 12.1649 696 71.2859 1024.48 573.356
83 0 57.0912 12.2085 697 71.5725 1024.53 572.821
84 0 59.1597 12.8128 758 70.9617 1025.11 572.828
85 0 62.0996 12.7215 790 71.1367 1025.55 571.271
86 0 64.1363 13.0659 838 69.8055 1025.22 569.64
87 0 68.1249 13.4459 916 67.6386 1025.46 567.717
88 0 69.1222 12.9192 893 67.5532 1025.67 566.237
89 0 69.1165 12.2691 848 69.2146 1025.8 565.333
90 0 73.1322 13.4277 982 67.2271 1026.48 564.071
91 0 75.1638 13.2511 996 67.744 1026.74 563.426
92 0 77.0685 12.6251 973 70.5242 1026.98 560.36
93 0 79.1861 12.4264 984 72.1169 1027.08 558.327
94 0 82.3071 13.8627 1141 68.6109 1027.27 557.777
95 0 87.1392 13.0366 1136 68.1725 1027.39 554.919
96 0 89.2081 13.1602 1174 66.8075 1027.35 553.736
97 1 47.2017 10.4022 491 66.4969 1027.57 573.998
98 0 47.2017 10.381 490 167.933 1028.58 573.959
99 0 50.2846 10.5599 531 65.7326 1027.45 572.298
100 0 50.2846 10.5599 531 168.492 1025.4 572.311
101 0 54.0625 11.8197 639 65.9264 1027.96 569.393
102 0 57.046 12.6564 722 66.036 1027.63 570.086
103 0 59.1468 12.5789 744 67.9005 1026.77 566.854
104 0 62.1665 12.1931 758 68.0449 1027.11 567.439
105 0 63.049 12.07 761 68.5966 1026.89 565.113
106 0 64.2383 12.5159 804 67.9428 1027.56 563.913
107 0 66.1141 12.1003 800 68.2538 1027.48 564.114
108 0 70.1698 13.0255 914 67.3906 1027.7 562.733
109 0 72.1223 11.7439 847 69.3884 1027.35 561.194
110 0 74.1494 12.6771 940 68.8106 1027.14 558.865
111 0 75.1527 13.1599 989 68.6512 1026.87 557.784
112 0 79.1866 12.6663 1003 68.1037 1027.13 555.917
113 0 80.0816 12.5997 1009 69.1388 1026.68 554.711
114 0 84.3106 12.8454 1083 67.2364 1026.62 553.246
115 1 45.0255 9.01712 406 67.6749 1026.33 573.461
116 0 46.068 10.2023 470 66.2638 1025.77 572.251
117 0 49.0453 10.4393 512 64.7852 1025.86 572.695
118 0 51.0617 11.4371 584 66.1764 1025.92 570.349
119 0 53.2185 12.2326 651 66.381 1026.47 572.648
120 0 54.3288 12.59 684 66.655 1027.23 570.773
121 0 56.2492 12.4091 698 66.1734 1027.75 571.201
122 0 58.285 13.6056 793 64 1027.71 569.339
123 0 59.2387 12.2555 726 65.9669 1027.76 569.169
124 0 60.1981 12.924 778 65.7738 1027.3 568.882
125 0 61.349 12.4859 766 67.0966 1027.07 567.461
126 0 64.3255 13.0897 842 66.0249 1026.33 565.945
127 0 66.2585 13.4926 894 65.6275 1026.06 565.271
128 0 68.3083 14.3321 979 64.7395 1026.17 564.824
129 0 70.2815 13.4602 946 66.3531 1025.86 563.914
130 0 72.1975 13.3523 964 67.166 1025.85 562.469
131 0 74.542 13.5897 1013 67.1441 1025.84 563.135
132 0 75.2709 13.0861 985 68.6883 1025.87 563.593
133 0 77.1319 13.8334 1067 67.5202 1025.57 560.282
134 0 78.1057 13.8146 1079 68.5524 1025.31 559.37
135 0 78.1057 13.8146 1079 176.165 1024.31 559.398
136 0 86.184 14.2834 1231 67.4606 1025.58 555.467
137 0 87.2669 14.7593 1288 67.5831 1025.78 554.85
138 0 86.1599 13.8928 1197 70.3124 1025.78 553.801
139 0 92.1194 14.6332 1348 68.109 1025.29 552.484
140 0 93.1744 14.1241 1316 69.4772 1025.65 553.199
141 0 95.1673 13.2503 1261 71.4219 1025.47 551.086
142 0 99.1572 13.998 1388 70.4431 1025.17 549.11
143 0 103.153 15.0359 1551 68.3308 1025.21 546.35
144 0 105.318 14.0432 1479 70.1548 1024.96 545.562
145 1 56.0838 11.2154 629 71.1399 1024.69 569.595
146 0 59.1667 11.3577 672 70.1205 1024.63 568.705
147 0 62.0804 12.1455 754 69.508 1024.54 567.725
148 0 62.0384 12.6535 785 68.6611 1024.27 567.003
149 0 64.0727 12.1112 776 69.9317 1024.29 564.812
150 0 66.0768 12.8336 848 68.7854 1024.28 565.224
151 0 68.0518 13.0048 885 68.5277 1024.57 564.525
152 0 72.1029 12.607 909 69.0583 1024.84 562.87
153 0 75.0629 13.4687 1011 68.0762 1024.26 560.779
154 0 78.0768 13.1793 1029 68.3858 1024.22 559.831
155 0 78.2091 12.9269 1011 69.4055 1024.32 558.813
156 0 82.0872 13.6684 1122 68.5294 1024.43 557.324
157 0 84.1946 13.2669 1117 69.5819 1024.43 555.199
158 1 44.0302 10.2884 453 67.2208 1024.59 576.662
159 0 44.0338 10.6055 467 67.4861 1024.84 574.902
160 0 47.1138 10.1244 477 67.5975 1024.21 574.776
161 0 47.0669 11.0481 520 66.3327 1024.27 574.071
162 0 50.1495 11.4059 572 65.2762 1024.36 573.519
163 0 49.0642 11.2302 551 66.931 1024.11 572.343
164 0 51.0763 11.7863 602 65.9618 1024.33 571.228
165 0 55.0732 11.8206 651 64.9263 1024.3 569.819
166 0 54.0422 11.8981 643 65.7932 1024.38 569.118
167 0 56.0566 11.9522 670 65.3179 1024.58 569.537
168 0 58.0698 12.175 707 65.1485 1024.33 568.888
169 0 58.0491 11.9209 692 66.1835 1024.55 567.523
170 0 61.0973 12.5537 767 64.9544 1024.65 567.107
171 0 65.0698 12.1869 793 64.4237 1025.01 566.454
172 0 64.1349 11.8968 763 65.7222 1025.34 565.748
173 0 66.1189 12.6288 835 64.1593 1025.97 565.856
174 0 69.0657 12.5677 868 64.0542 1025.85 563.105
175 0 72.1026 12.6625 913 64.0471 1026.22 561.425
176 0 74.1893 12.239 908 64.6057 1026.4 560.666
177 0 76.1926 13.2165 1007 63.1847 1026.65 557.604
178 0 78.2394 12.2317 957 64.3678 1026.5 557.754
179 0 80.2717 12.2708 985 64.6051 1026.75 555.845
180 0 84.159 12.215 1028 64.5953 1027.43 553.498
181 0 86.2941 12.8746 1111 64.0171 1027.26 551.47
182 1 43.0286 9.45883 407 63.1056 1027.65 574.3
183 0 46.029 10.6455 490 62.1224 1027.85 572.58
184 0 48.0406 11.1572 536 61.278 1027.76 571.711
185 0 50.0879 10.4017 521 61.9405 1027.77 570.524
186 0 50.1226 11.5317 578 61.7716 1028.15 569.611
187 0 51.081 11.3154 578 61.9204 1027.78 568.225
188 0 53.1273 10.7666 572 62.3601 1027.91 568.079
189 0 55.0245 11.4494 630 60.6317 1027.97 568.198
190 0 56.0718 10.9324 613 62.385 1028.01 565.917
191 0 56.0889 11.2143 629 62.9237 1028.33 564.315
192 0 58.043 11.9394 693 61.5988 1028.54 564.302
193 0 60.069 11.1705 671 61.8063 1029 564.778
194 0 62.0199 11.8188 733 59.7244 1028.53 561.674
195 0 64.0561 12.4734 799 58.0163 1028.84 561.834
196 0 68.055 12.7103 865 56.6821 1028.99 560.061
197 0 68.2224 11.4332 780 59.741 1028.69 560.905
198 0 69.0833 11.5368 797 61.5621 1028.97 559.847
199 0 73.1715 12.5185 916 61.786 1028.87 557.049
200 0 75.2494 12.2526 922 63.2375 1029.54 555.906
201 0 76.1794 12.0899 921 64.2704 1029.68 554.81
202 0 79.2501 12.4542 987 63.7244 1029.83 554.532
203 1 42.0648 9.00991 379 63.5356 1029.08 572.029
204 0 43.0497 10.0117 431 62.3248 1028.57 573.981
205 0 44.0295 10.334 455 62.7055 1028.79 570.928
206 0 47.0438 10.6922 503 62.6918 1028.9 570.469
207 0 48.0494 11.3009 543 62.3812 1028.85 570.646
208 0 48.0812 11.0022 529 63.758 1029.71 569.877
209 0 50.0572 11.1672 559 63.8855 1029.25 569.626
210 0 52.1167 11.4743 598 63.6739 1029.49 567.781
211 0 55.0593 12.4593 686 62.3353 1029.41 566.72
212 0 55.0709 11.8756 654 64.0367 1029.4 566.813
213 0 57.0578 11.9528 682 64.6481 1029.1 564.928
214 0 58.1101 12.1666 707 64.7709 1030.41 565.239
215 0 60.1006 11.8967 715 66.1091 1030.29 565.695
216 0 61.058 12.2179 746 65.9075 1030.41 563.138
217 0 64.1145 12.7428 817 65.541 1029.48 562.938
218 0 67.0551 13.0341 874 66.1476 1029.85 561.073
219 0 68.226 12.9569 884 67.0102 1028.66 560.894
220 0 71.1341 12.7365 906 67.4018 1028.42 560.897
221 0 72.1786 12.7462 920 68.3576 1028.34 558.448
222 1 37.0276 9.85751 365 69.3151 1027.75 576.342
223 0 41.0334 10.7717 442 66.9548 1027.81 576.62
224 0 41.0801 10.3213 424 68.5472 1027.65 577.021
225 0 42.1326 11.1078 468 68.4081 1027.17 576.03
226 0 45.0869 11.4224 515 69 1027.67 574.099
227 0 46.1335 11.9653 552 68.2174 1027.48 573.62
228 0 46.0518 11.5088 530 70.4623 1027.46 573.723
229 0 48.0333 11.7835 566 70.106 1027.06 572.472
230 0 50.0491 12.0082 601 69.8952 1027.29 572.015
231 0 50.0334 11.992 600 70.7833 1027.04 570.365
232 0 53.0766 12.2653 651 70.0522 1027.06 569.604
233 0 54.0684 11.9108 644 70.9146 1027.11 570.115
234 0 54.0722 12.2614 663 70.6576 1025.99 569.427
235 0 56.1201 12.2594 688 70.4462 1026.41 569.243
236 0 57.1447 12.1971 697 70.8336 1026.62 567.189
237 0 60.1101 12.3607 743 70.4361 1025.96 567.568
238 0 61.0566 12.3492 754 71.0199 1026.02 567.187
239 0 61.1526 12.8858 788 70.2614 1026.21 566.011
240 0 65.1052 12.5489 817 69.6622 1026.56 565.58
241 0 67.1332 12.289 825 70.0958 1026.58 564.339
242 0 71.1283 12.6251 898 68.8452 1026.07 564.071
243 1 36.1374 9.3532 338 69.5148 1026.48 579.112
244 0 37.065 9.30797 345 68.9304 1026.13 580.13
245 0 37.0988 9.83859 365 68.3178 1026.24 580.619
246 0 37.0696 10.6017 393 68.6412 1025.96 579.028
247 0 42.0414 11.1319 468 66.7457 1026.25 578.675
248 0 42.0122 11.092 466 67.4979 1025.46 577.981
249 0 43.0422 11.5236 496 66.871 1024.69 577.944
250 0 45.0547 12.052 543 66.2063 1024.94 576.796
251 0 46.0706 11.2436 518 67.0849 1024.87 575.467
252 0 47.0218 12.0582 567 65.2434 1025.36 575.243
253 0 47.0597 11.7085 551 66.7877 1025.47 574.737
254 0 50.0917 12.0779 605 65.8562 1025.08 574.132
255 0 50.0737 12.182 610 66.8066 1025.17 573.233
256 0 52.0805 11.6166 605 67.1603 1025.34 573.891
257 0 53.0415 11.3496 602 68.0482 1025.37 572.799
258 0 56.0312 12.386 694 65.9481 1025.72 572.193
259 0 56.1001 11.6577 654 67.5902 1025.45 572.011
260 0 58.0864 12.292 714 66.8782 1024.62 571.031
261 0 61.0641 12.2331 747 67.0174 1024.96 569.964
262 0 61.1335 11.9084 728 67.9409 1025.13 568.445
263 0 64.0926 12.7004 814 66.5811 1025.07 568.55
264 0 66.1191 12.0842 799 67.4706 1025.07 566.821
265 0 69.0676 13.4795 931 65.8131 1024.75 564.723
266 0 72.1741 12.262 885 67.7051 1024.62 563.01
267 0 74.1783 12.7261 944 67.1324 1024.73 562.4
268 1 39.0827 10.03 392 65.7424 1025.23 580.781
269 0 40.0476 10.6373 426 65.9437 1024.94 579.373
270 0 42.0371 9.82465 413 66.8184 1025.06 577.768
271 0 43.0451 10.4774 451 66.0532 1025.16 578.647
272 0 44.1468 11.5524 510 64.8647 1025.38 577.033
273 0 46.0783 11.4805 529 64.3686 1025.35 576.529
274 0 47.0997 11.6349 548 65.3412 1025.02 575.766
275 0 48.0712 12.3567 594 64.4815 1024.91 575.993
276 0 50.1204 11.8714 595 65.8588 1024.69 573.921
277 0 53.0504 12.196 647 64.7002 1024.59 573.425
278 0 56.1598 11.7166 658 64.6261 1024.63 572.404
279 0 52.1287 11.9704 624 67.0801 1024.81 571.527
280 0 57.1447 11.7946 674 66.23 1025.36 570.251
281 0 58.1828 12.4435 724 65.6685 1025.45 569.96
282 0 61.2017 12.7611 781 64.612 1025.71 569.675
283 0 62.1654 12.7241 791 64.804 1025.8 569.594
284 0 64.2479 12.4673 801 65.4906 1025.46 566.061
285 0 66.2024 12.4165 822 65.8175 1025.76 565.91
286 0 71.1912 13.1336 935 66.2631 1026.74 564.837
287 0 73.2959 13.3159 976 65.5553 1026.53 564.143
288 0 73.286 13.1676 965 66.5451 1027.04 564.107
289 0 77.3114 13.672 1057 65.3349 1027.13 561.573
290 0 78.3099 12.757 999 66.6917 1027.42 559.467
291 1 44.1358 10.2864 454 65.3656 1028.61 578.092
292 0 43.2033 10.3464 447 65.5861 1029.24 578.329
293 0 45.1887 10.6 479 64.904 1029.01 577.831
294 0 46.1079 11.2128 517 64.7563 1029.04 575.948
295 0 47.0428 11.4364 538 64.8643 1028.96 575.348
296 0 49.3889 11.7638 581 63.4527 1028.48 574.124
297 0 48.2335 12.0663 582 64.4192 1028.29 572.82
298 0 51.243 11.8065 605 64.1488 1028.72 572.233
299 0 53.2487 11.6998 623 64.3242 1028.71 570.958
300 0 52.1772 11.6909 610 65.4082 1028.84 570.434
301 0 54.2177 12.1916 661 64.8532 1029.2 569.917
302 0 57.1213 11.8345 676 65.5325 1029.54 568.768
303 0 56.2075 11.9023 669 66.7564 1029.05 568.194
304 0 59.1681 12.2363 724 65.6948 1029.03 567.577
305 0 61.1665 11.9346 730 66.3932 1029.16 565.986
306 0 64.1214 12.1176 777 66.574 1028.82 563.979
307 0 65.1617 12.3539 805 66.5441 1028.75 563.462
308 0 67.096 12.8473 862 65.8086 1028.69 562.498
309 0 68.1502 12.6485 862 67.0951 1028.78 560.188
310 0 72.2569 13.0922 946 65.9683 1028.63 559.319
311 0 74.1594 13.3496 990 64.7212 1029.23 556.78
312 0 76.1328 12.8722 980 65.8918 1029.01 555.408
313 0 78.0945 12.6001 984 66.2337 1029 555.305
314 1 45.031 9.9487 448 65.0045 1029.4 572.388
315 0 45.0686 10.5617 476 64.8025 1028.96 572.357
316 0 45.0101 10.2199 460 65.5152 1027.5 570.667
317 0 45.1195 10.4833 473 65.8816 1027.86 570.983
318 0 45.0192 10.6843 481 66.6528 1027.48 569.815
319 0 48.0229 11.5986 557 65.8474 1027.41 568.864
320 0 51.02 11.8973 607 64.9292 1027.28 568.323
321 0 52.0229 12.2062 635 64.6992 1027.17 568.099
322 0 54.0337 12.0666 652 65.2761 1027.29 567.462
323 0 53.0269 12.3145 653 66.124 1027.11 566.547
324 0 56.0789 11.894 667 65.5757 1027.26 565.591
325 0 58.0588 12.3323 716 65.162 1026.73 563.419
326 0 59.0548 13.0895 773 64.1695 1026.93 563.354
327 0 59.0261 11.7914 696 66.3046 1027.01 562.395
328 0 62.0396 12.3308 765 64.8928 1026.42 562.43
329 0 65.0998 12.55 817 63.9657 1025.97 562.24
330 0 67.0102 12.5205 839 63.5721 1026.28 562.453
331 0 68.0709 12.6045 858 64.465 1026.09 558.824
332 0 69.0665 12.6834 876 63.8973 1026.41 559.687
333 0 71.1016 12.8267 912 64.4693 1026.35 557.567
334 0 74.0554 12.4907 925 63.9135 1025.89 557.622
335 0 78.0811 12.9737 1013 63.1273 1026.46 555.114
336 0 79.0932 12.3019 973 64.0185 1026.11 555.189
337 0 80.2064 12.0938 970 64.4268 1026.18 553.553
338 1 42.0396 10.3712 436 63.5986 1026.1 572.202
339 0 44.1672 10.9131 482 63.2365 1025.78 572.351
340 0 46.1024 10.8237 499 63.1884 1026.11 571.936
341 0 47.0312 11.9708 563 62.254 1025.96 571.073
342 0 48.044 12.0515 579 62.6114 1025.88 569.428
343 0 50.0714 11.9429 598 62.4866 1026.28 570.052
344 0 53.0827 13.0174 691 61.2084 1026.09 568.889
345 0 54.0238 12.4019 670 62.1746 1025.8 567.813
346 0 55.0309 12.6111 694 62.4741 1026 567.223
347 0 57.0407 12.2193 697 63.2582 1025.8 565.793
348 0 61.0471 12.6624 773 61.4476 1025.86 566.625
349 0 62.0328 12.6546 785 62.1478 1026.04 565.452
350 0 64.1728 12.6222 810 62.2543 1025.66 563.97
351 0 64.0934 12.2633 786 63.5344 1025.42 563.408
352 0 68.0603 13.0473 888 62.3356 1025.78 563.284
353 0 71.0604 13.6926 973 61.7718 1025.69 560.923
354 0 75.1674 12.4389 935 63.507 1025.85 561.415
355 0 73.0944 13.12 959 63.6017 1025.65 559.31
356 0 77.1975 12.5393 968 64.2583 1025.44 557.596
357 0 80.0934 13.3469 1069 63.1656 1025.54 555.815
358 0 81.0674 13.2482 1074 63.8892 1025.54 555.014
359 0 84.124 12.9808 1092 64.5934 1025.18 553.378
360 1 42.0534 9.93974 418 64.39 1025.14 574.433
361 0 45.0488 11.432 515 63.4039 1024.56 573.116
362 0 47.0469 11.074 521 63.6852 1025.18 571.251
363 0 47.0523 11.6466 548 63.7756 1025.09 570.633
364 0 50.0723 11.9427 598 63.689 1025.51 570.619
365 0 51.099 13.1509 672 61.942 1025.67 569.205
366 0 53.0121 12.035 638 63.4561 1025.71 570.331
367 0 54.0503 12.5624 679 62.6981 1026.22 568.277
368 0 54.0503 12.5809 680 169.541 1026.22 568.275
369 0 57.125 13.1116 749 62.2483 1026.95 566.718
370 0 59.0591 12.3944 732 62.6885 1026.89 566.85
371 0 60.036 13.0921 786 62.1298 1026.95 564.247
372 0 60.0215 13.1286 788 62.4505 1027.09 564.121
373 0 63.2108 13.3838 846 61.1548 1026.92 563.786
374 0 67.1619 13.2218 888 61.3468 1027.31 561.749
375 0 68.1066 13.5523 923 60.7194 1027.55 560.546
376 0 70.1193 14.1045 989 58.8433 1028.09 559.543
377 0 72.1348 13.4748 972 59.4547 1028.35 557.81
378 0 75.2203 13.8128 1039 59.1627 1028.23 556.828
379 0 75.1808 13.0752 983 60.6287 1028.56 554.286
380 0 79.1657 13.9707 1106 59.2568 1028.77 553.804
381 0 82.1463 13.9751 1148 59.0087 1028.91 552.854
382 0 85.1651 13.8202 1177 59.1138 1028.92 551.251
383 0 86.0892 13.1956 1136 60.4859 1029.26 550.116
384 0 90.1188 13.2492 1194 60.0226 1029.37 549.17
385 0 90.0716 13.0896 1179 61.2612 1029.62 546.36
386 0 93.2157 13.4098 1250 60.5832 1029.9 545.239
387 0 97.0688 13.3514 1296 60.1497 1029.71 545.46
388 0 99.1403 13.728 1361 60.335 1029.81 541.96
389 0 102.069 13.9906 1428 59.9055 1030.2 540.508
390 0 106.136 13.7371 1458 60.4643 1029.57 538.143
391 0 110.107 12.8693 1417 61.4136 1029.87 537.198
392 0 115.083 13.9117 1601 60.06 1030.02 535.58
393 1 62.0549 9.13707 567 60.1746 1029.18 563.619
394 0 62.05 10.0242 622 59.9518 1029.18 561.928
395 0 66.0991 11.044 730 58.237 1029.44 559.089
396 0 67.1044 11.5939 778 58.0039 1029.42 560.519
397 0 70.0554 11.4624 803 57.8543 1030.68 559.319
398 0 71.1778 11.3238 806 58.4814 1030.6 557.046
399 0 75.3043 12.0046 904 57.396 1030.96 555.658
400 0 75.3043 12.0312 906 153.945 1030.98 555.7
401 0 80.1739 12.398 994 56.8722 1031 552.697
402 0 82.2545 11.9021 979 57.1553 1031.01 552.312
403 0 86.2246 12.1311 1046 56.5411 1030.85 551.339
404 0 88.2082 12.2211 1078 56.9768 1030.83 548.634
405 0 91.1991 12.2808 1120 57.3116 1030.98 546.231
406 0 95.2293 12.8847 1227 56.1125 1031.06 545.925
407 0 96.2114 12.67 1219 56.6136 1030.76 545.034
408 0 100.283 12.7239 1276 56.627 1030.89 542.191
409 1 57.0641 9.93619 567 55.6032 1030.59 565.742
410 0 61.1407 10.6966 654 54.8731 1030.68 564.326
411 0 61.0843 11.476 701 54.7432 1030.62 562.281
412 0 62.2298 11.329 705 54.9759 1029.5 561.967
413 0 65.1592 11.0805 722 55.4432 1029.6 561.616
414 0 65.0688 11.0959 722 55.9778 1029.13 558.722
415 0 68.1137 11.8772 809 55.4314 1029.56 557.728
416 0 72.0918 11.8876 857 55.727 1029.57 557.322
417 0 71.1068 10.9554 779 57.3787 1029.1 557.514
418 0 76.0948 11.7091 891 56.6206 1029.19 555.823
419 0 78.1478 11.5678 904 57.1482 1028.64 552.655
420 0 82.1997 12.2872 1010 55.7505 1028.53 553.629
421 0 84.1792 11.8438 997 56.8616 1028.36 551.734
422 0 87.1042 12.5367 1092 56.1273 1027.89 549.666
423 0 91.1716 12.822 1169 56.0376 1028.11 549.228
424 0 93.1545 12.227 1139 56.3977 1027.76 546.084
425 1 52.12 10.7061 558 55.3064 1027.95 568.151
426 0 51.0348 10.3263 527 57.0759 1027.87 567.71
427 0 53.0759 11.2292 596 57.0151 1027.13 567.124
428 0 55.215 11.5005 635 56.6142 1026.93 565.488
429 0 56.2596 11.7669 662 56.2749 1026.47 564.634
430 0 57.0554 11.41 651 56.5361 1026.08 564.35
431 0 60.0472 11.6408 699 55.8798 1026.27 562.974
432 0 61.0424 11.9589 730 56.0808 1026.13 562.179
433 0 63.0335 12.2157 770 55.2351 1026.05 563.844
434 0 63.2052 12.1984 771 55.3761 1025.95 562.833
435 0 66.1477 11.9127 788 55.7589 1026.41 561.154
436 0 68.2553 11.8086 806 55.6328 1026.46 559.434
437 0 71.0732 12.5926 895 55.1352 1026.66 558.584
438 0 70.2888 12.1214 852 56.3521 1026.88 557.452
439 0 74.3078 12.6232 938 55.7612 1027.02 556.997
440 0 75.1377 12.151 913 56.5093 1026.66 556.552
441 0 76.2079 12.5315 955 56.5707 1026.11 555.153
442 0 78.2928 12.8364 1005 56.1672 1026.56 555.418
443 0 80.2272 12.6516 1015 57.0404 1025.75 553.142
444 0 83.3143 12.8189 1068 56.5777 1026.71 554.989
445 0 87.2775 12.7983 1117 56.7458 1026.81 552.047
446 0 90.2964 13.3892 1209 56.2969 1026.97 549.863
447 1 48.1988 10.7887 520 57.3135 1026.08 572.04
448 0 47.0571 10.2429 482 58.0892 1026.18 572.11
449 0 48.1595 10.2576 494 57.9453 1026.39 571.905
450 0 51.1456 11.9658 612 57.0131 1025.98 569.928
451 0 52.1307 11.2026 584 57.7226 1026 569.668
452 0 55.1 12.3412 680 55.9662 1026.18 569.582
453 0 56.068 12.1281 680 56.5794 1025.67 568.087
454 0 57.0455 12.4462 710 56.5592 1026.11 567.537
455 0 59.0988 12.0307 711 56.9198 1025.97 566.603
456 0 61.0557 12.9554 791 56.5638 1025.89 565.676
457 0 63.0675 12.5738 793 56.5006 1025.82 565.352
458 0 63.0652 12.717 802 56.9875 1025.8 564.272
459 0 65.0693 13.5087 879 56.4198 1026.1 561.215
460 0 68.1234 12.3306 840 57.7929 1026.56 562.255
461 0 71.1377 13.0592 929 57.1873 1026.11 560.974
462 0 72.2052 14.1679 1023 56.2053 1026.06 558.996
463 0 75.0728 12.6943 953 57.8678 1025.82 558.5
464 0 75.2241 13.2537 997 57.8064 1026.16 557.087
465 0 78.1814 13.5326 1058 57.8355 1026.09 557.073
466 0 81.1302 13.2626 1076 58.2054 1025.95 555.849
467 0 85.1229 13.6626 1163 57.73 1025.9 554.163
468 0 86.0921 13.4856 1161 58.3738 1025.83 553.815
469 0 90.1779 13.9946 1262 57.3574 1025.87 551.966
470 0 92.2646 13.7214 1266 57.9273 1026.2 551.646
471 0 93.1158 13.2845 1237 58.8197 1026.1 549.842
472 1 47.0539 9.92478 467 60.0128 1025.32 573.315
473 0 51.0578 10.9484 559 58.2147 1025.92 572.818
474 0 52.1202 12.452 649 57.2943 1025.85 572.525
475 0 53.105 11.9198 633 58.6493 1026.07 569.689
476 0 52.1572 12.0597 629 59.4801 1026.64 568.652
477 0 55.0843 12.1087 667 59.1514 1026.29 568.366
478 0 58.0724 12.4844 725 58.5421 1026.4 567.418
479 0 60.113 13.3582 803 57.4408 1026.55 566.741
480 0 61.0853 12.6381 772 58.7358 1026.72 565.61
481 0 65.1232 13.0215 848 58.2689 1026.69 565.61
482 0 66.0927 12.9515 856 58.8657 1026.91 564.768
483 0 69.2847 13.2497 918 58.6874 1026.79 562.585
484 0 73.148 13.0694 956 59.0209 1026.8 562.682
485 0 74.2909 13.5817 1009 59.2289 1027.05 561.476
486 0 75.2357 12.8396 966 60.4255 1027.51 559.541
487 0 77.1942 13.2912 1026 60.2671 1027.3 557.444
488 0 77.1942 13.2782 1025 151.331 1027.29 557.454
489 0 83.2682 13.3424 1111 60.0189 1027.4 556.103
490 0 84.2063 13.0632 1100 60.9927 1027.4 554.07
491 0 87.1652 13.7325 1197 60.1454 1027.28 553.485
492 0 92.2963 13.4892 1245 60.4811 1027.69 551.92
493 0 94.1109 13.4947 1270 60.6126 1027.43 551.581
494 0 97.1649 14.357 1395 59.4753 1027.59 548.027
495 0 100.16 13.4485 1347 60.2606 1027.84 547.696
496 1 54.1227 11.1044 601 60.213 1027.56 568.438
497 0 56.1343 11.5259 647 60.0726 1027.73 567.23
498 0 59.1419 12.5968 745 58.7047 1027.95 567.013
499 0 60.133 11.9069 716 59.9511 1028.04 566.388
500 0 63.1991 13.3388 843 58.3416 1028.04 563.95
501 0 63.1245 12.8952 814 59.5663 1027.85 563.58
502 0 67.1416 12.6151 847 59.1358 1027.39 562.081
503 0 69.0818 12.2753 848 60.2028 1027.33 561.057
504 0 72.1003 12.7184 917 59.9433 1027.35 559.532
505 0 74.1003 13.3603 990 59.3545 1027.3 560.311
506 0 78.1697 13.1253 1026 60.0049 1027.68 557.77
507 0 81.1104 13.2905 1078 59.9889 1027.59 557.367
508 0 81.1097 12.8468 1042 61.0557 1027.64 557.084
509 0 82.1509 13.037 1071 61.9496 1027.87 554.572
510 0 86.1489 13.5927 1171 61.3527 1027.61 553.452
511 0 88.0794 13.2721 1169 62.3105 1028.05 551.582
512 0 94.11 13.5161 1272 62.0024 1027.53 550.924
513 0 95.1264 13.624 1296 63.1451 1028.15 547.992
514 0 98.1786 13.3328 1309 63.6814 1028.32 544.861
515 0 102.108 13.0548 1333 63.7149 1027.76 545.506
516 0 105.135 13.9915 1471 61.8518 1028.34 542.622
517 0 108.343 13.6326 1477 62.652 1028.48 541.127
518 1 62.0772 10.4708 650 62.1369 1029.02 565.112
519 0 63.0903 10.8892 687 62.3028 1029.03 563.766
520 0 65.0994 11.8281 770 61.6338 1029.51 564.197
521 0 66.0565 11.8232 781 62.6645 1029.16 562.54
522 0 68.0864 12.4401 847 62.6659 1029.03 560.494
523 0 73.1097 12.6112 922 61.7527 1028.9 559.174
524 0 76.1751 13.062 995 61.2794 1029.28 557.708
525 0 77.2455 12.0525 931 63.2438 1028.96 557.408
526 0 79.1829 12.6669 1003 63.1396 1028.71 555.981
527 0 83.1982 12.5844 1047 64.0583 1028.89 553.212
528 0 86.2283 13.0931 1129 63.0115 1028.72 552.205
529 0 88.1854 13.1654 1161 62.5969 1028.72 552.148
530 0 92.1214 13.5039 1244 62.6423 1028.84 549.538
531 0 93.2541 12.9968 1212 63.6584 1028.67 547.559
532 0 99.2559 13.7926 1369 62.3119 1029.1 544.57
533 1 51.0301 10.2684 524 62.5821 1029.18 569.118
534 0 55.0464 11.5539 636 61.3396 1029.86 568.566
535 0 56.0751 11.1101 623 62.382 1029.76 568.446
536 0 56.0581 12.5227 702 61.1667 1029.67 567.229
537 0 57.151 12.0383 688 61.8837 1028.98 564.23
538 0 58.1297 11.4743 667 62.7136 1029.34 562.831
539 0 60.1922 12.0281 724 61.6796 1028.68 562.508
540 0 63.1854 12.2022 771 61.1829 1028.74 561.977
541 0 64.1343 12.2711 787 61.0203 1028.81 562.398
542 0 66.1083 12.3131 814 61.2924 1028.78 561.086
543 0 70.1334 12.4905 876 60.5491 1028.03 560.985
544 0 69.1901 12.1983 844 62.6102 1027.44 558.117
545 0 73.2795 12.4046 909 62.187 1027.64 558.572
546 0 73.0676 13.1522 961 62.0905 1027.85 556.358
547 0 78.2489 13.2398 1036 61.1274 1027.46 555.137
548 0 78.2615 12.3177 964 62.7458 1027.21 555.282
549 0 82.1594 12.8166 1053 62.1595 1027.35 552.597
550 0 85.3557 12.4889 1066 62.9456 1027.18 550.542
551 1 46.2154 9.34754 432 64.6505 1027.07 571.421
552 0 48.1037 9.99924 481 64.3202 1027.26 569.969
553 0 49.071 10.4542 513 63.9669 1027.09 569.739
554 0 52.1648 11.6362 607 62.6639 1027.24 568.582
555 0 52.1249 11.8753 619 62.5687 1026.97 567.533
556 0 56.1114 11.5306 647 62.6754 1027.31 566.827
557 0 59.1402 12.4957 739 60.6198 1027.7 566.325
558 0 59.2534 11.7293 695 62.2388 1027.54 564.748
559 0 60.0445 12.4741 749 60.5047 1026.71 566.142
560 0 61.0877 12.2119 746 62.1086 1026.85 563.816
561 0 63.066 12.4156 783 61.6322 1027.01 563.229
562 0 66.1014 12.4354 822 61.9039 1026.88 563.058
563 0 69.0489 12.9473 894 60.6387 1026.73 562.23
564 0 69.0394 12.6015 870 62 1026.88 561.939
565 0 72.0809 13.7207 989 60.6785 1026.45 560.374
566 0 75.1134 12.8339 964 61.8631 1025.88 559.404
567 0 73.1356 13.1673 963 62.8702 1026.2 557.716
568 0 78.1532 12.5651 982 63.2261 1025.71 556.376
569 0 79.077 12.2665 970 63.8144 1026.1 554.323
570 0 84.2371 13.4501 1133 62.286 1025.98 553.468
571 0 86.2263 12.7339 1098 63.3907 1025.79 551.984
572 1 45.076 10.5378 475 63.2084 1025.96 571.821
573 0 48.0496 9.59425 461 63.5922 1025.81 572.57
574 0 48.0728 9.96405 479 64.1795 1025.24 571.253
575 0 52.1446 11.4873 599 62.0918 1025.37 570.634
576 0 53.1101 12.6906 674 62.9258 1025.01 569.043
577 0 52.1721 12.8229 669 63.9297 1024.93 568.59
578 0 55.1085 12.8292 707 63.4173 1025.37 568.48
579 0 59.0732 12.9162 763 63.2595 1025 567.329
580 0 60.0818 12.5163 752 63.7128 1025.46 567.18
581 0 62.1012 13.6068 845 62.0071 1025.31 565.157
582 0 63.144 12.7328 804 63.1443 1024.86 564.792
583 0 67.1183 13.1708 884 62.9989 1024.61 563.98
584 0 68.1362 13.2088 900 62.8289 1025.16 562.896
585 0 68.0888 13.3062 906 63.4305 1024.64 561.915
586 0 72.0926 13.3023 959 63.0448 1024.67 560.248
587 0 73.09 12.8745 941 63.7556 1024.72 560.457
588 0 75.0984 13.3025 999 63.6406 1024.76 559.647
589 0 78.1234 13.5427 1058 63.0076 1024.46 558.698
590 0 80.1155 13.7427 1101 63.3651 1024.72 557.26
591 0 82.1122 13.8104 1134 63.5185 1024.6 555.904
592 0 85.1146 13.5817 1156 63.9991 1024.15 555.11
593 0 88.1059 13.8924 1224 64.2132 1024.41 553.305
594 0 90.1708 13.6962 1235 64.3571 1024.62 553.504
595 0 95.2478 13.8481 1319 63.2032 1024.15 550.872
596 0 97.1598 13.8226 1343 63.0767 1024.03 549.881
597 1 53.0425 10.2936 546 64.782 1024.09 571.94
598 0 56.0469 11.0622 620 63.9597 1024.05 571.131
599 0 58.121 11.6137 675 63.9615 1024.24 568.693
600 0 60.1158 12.4759 750 62.7387 1024.3 568.107
601 0 61.1358 13.0202 796 62.5515 1024.28 566.118
602 0 64.0492 13.5209 866 61.6986 1024.26 565.08
603 0 67.1322 12.8254 861 62.0372 1024.1 565.153
604 0 70.0557 13.2752 930 61.6624 1024.15 563.661
605 0 72.1085 13.2717 957 61.4232 1024.47 562.488
606 0 75.1152 14.2049 1067 59.4011 1024.01 562.221
607 0 78.0913 13.369 1044 61.0738 1023.92 561.672
608 0 80.1206 12.9555 1038 62.5289 1024.16 559.605
609 0 82.0975 13.5571 1113 61.8122 1024.21 558.314
610 0 84.0853 13.4031 1127 62.5342 1024.05 556.177
611 0 84.065 13.7037 1152 63.4123 1024.4 554.146
612 0 90.3272 13.429 1213 62.8417 1024.72 552.256
613 0 91.2396 14.1167 1288 62.8206 1024.5 552.881
614 0 96.2687 13.9194 1340 62.7104 1024.06 551.119
615 0 97.1525 12.4546 1210 65.0231 1025.1 550.048
616 0 102.396 13.1939 1351 63.7987 1024.92 548.44
617 1 55.1063 10.7247 591 64.2538 1024.98 570.936
618 0 57.147 11.1292 636 63.5566 1024.97 570.302
619 0 59.1033 11.7083 692 62.4653 1024.74 569.181
620 0 61.0491 11.7774 719 62.63 1024.72 567.983
621 0 62.1669 12.6273 785 62.4127 1024.54 565.991
622 0 64.152 12.3457 792 62.7361 1025.03 564.92
623 0 66.1834 12.4503 824 62.1869 1025.24 564.192
624 0 69.1268 12.7302 880 62.1818 1025.24 562.745
625 0 71.0725 12.5365 891 62.3008 1025.24 561.919
626 0 72.2039 12.5339 905 62.0287 1025.4 560.343
627 0 77.0914 13.4386 1036 60.4498 1025.65 559.335
628 0 81.0565 13.2747 1076 60.6598 1025.05 558.418
629 0 82.233 13.559 1115 60.7686 1025.2 556.905
630 0 83.1182 13.7515 1143 60.895 1025.21 554.841
631 0 86.2299 12.3855 1068 62.7603 1025.44 553.866
632 0 89.1975 12.9264 1153 62.1162 1025.63 552.334
633 0 94.267 12.7934 1206 61.3947 1025.84 551.502
634 0 96.1264 12.4836 1200 61.9642 1025.87 548.1
635 0 101.104 13.0262 1317 60.899 1026.29 549.98
636 0 103.246 13.4242 1386 60.2792 1026.44 545.017
637 1 57.0451 10.1849 581 60.9828 1026.91 568.119
638 0 60.0843 11.2342 675 59.7126 1027.04 567.373
639 0 61.1282 10.617 649 60.8613 1027.54 566.131
640 0 65.051 11.7139 762 59.584 1028.02 566.269
641 0 65.2228 11.453 747 60.7965 1028.22 564.45
642 0 67.1736 13.145 883 59.051 1028.07 562.113
643 0 70.151 12.302 863 60.1286 1028.16 561.475
644 0 70.1922 12.8362 901 59.9312 1028.82 559.387
645 0 74.1843 12.6846 941 60.3688 1028.52 558.071
646 0 75.105 12.5824 945 60.8656 1028.35 557.659
647 0 78.1888 13.4163 1049 59.9657 1028.65 555.661
648 0 83.1115 13.9933 1163 58.9106 1029.16 555.353
649 0 84.142 13.085 1101 60.6957 1028.99 554.043
650 0 89.104 13.7255 1223 59.5086 1029.37 551.306
651 0 93.1974 13.4982 1258 59.1924 1030.64 552.199
652 0 95.265 13.9191 1326 58.8703 1029.77 548.522
653 1 53.1541 11.3068 601 58.6456 1029.99 570.316
654 0 53.2287 10.7837 574 59.1655 1030.23 569.204
655 0 53.165 11.0599 588 58.8146 1030.39 566.514
656 0 55.0347 11.0839 610 57.1213 1029.35 565.934
657 0 57.1143 12.0635 689 55.9956 1029.12 564.853
658 0 57.08 11.5277 658 57.307 1028.82 564.508
659 0 58.1118 12.3383 717 56.9428 1028.95 564.301
660 0 59.1062 11.6739 690 57.7551 1028.94 564.256
661 0 61.1432 12.5934 770 56.9701 1029.11 560.994
662 0 63.1653 11.9844 757 57.1797 1029.01 559.421
663 0 64.1897 12.7746 820 56.8024 1028.91 558.583
664 0 68.1827 12.8478 876 55.7363 1029.15 558.675
665 0 69.1142 13.6441 943 55.4496 1029.31 558.08
666 0 72.1118 12.7718 921 56.0119 1028.49 558.447
667 0 73.1517 12.6313 924 56.8582 1028.02 556.788
668 0 75.1024 12.7559 958 57.1785 1028.35 556.261
669 0 78.3005 13.3077 1042 56.2965 1029.32 555.138
670 0 81.2435 12.5302 1018 57.2289 1028.62 552.326
671 0 83.2229 12.5326 1043 57.767 1029.15 549.134
672 0 88.3737 13.1713 1164 56.506 1028.94 547.713
673 1 47.1501 10.2439 483 56.9482 1028.92 568.402
674 0 50.2251 10.7118 538 55.6078 1029.35 567.71
675 0 51.3417 11.141 572 57.8007 1029.74 568.504
676 0 53.1762 11.0576 588 58.4184 1029.43 567.218
677 0 54.1663 12.277 665 56.9714 1029.63 565.711
678 0 56.4665 12.2905 694 56.9625 1030.06 567.676
679 0 57.4907 12.0367 692 57.2269 1030.23 566.308
680 0 59.3679 12.7847 759 56.2003 1030.09 564.752
681 0 60.4541 11.8437 716 57.5056 1030.26 564.716
682 0 62.5012 12.7998 800 57.2 1030.28 563.444
683 0 63.2928 12.9873 822 57.0061 1030.12 562.659
684 0 66.3343 11.8039 783 58.3882 1030.34 561.257
685 0 68.4021 12.8943 882 57.1689 1029.86 560.828
686 0 71.3081 13.2523 945 56.6 1029.81 558.376
687 0 72.4996 12.5656 911 57.9133 1029.8 557.665
688 0 75.3784 12.7623 962 57.8586 1029.55 557.421
689 0 77.3943 13.3602 1034 57.5174 1029.75 556.924
690 0 79.4476 12.8135 1018 58.7122 1029.42 553.74
691 0 81.3266 13.6979 1114 57.9695 1029.43 554.306
692 0 84.5067 13.6321 1152 57.8177 1029.92 553.494
693 0 86.5166 13.5465 1172 58.4343 1029.41 552.719
694 0 90.4793 13.3953 1212 58.5965 1029.83 549.659
695 0 95.581 13.4336 1284 58.3964 1029.52 548.153
696 1 49.4708 10.7538 532 59.9154 1030.31 570.551
697 0 50.5186 11.6789 590 59.1017 1030.54 570.759
698 0 54.3625 10.522 572 60.4021 1030.34 568.556
699 0 53.1062 11.7689 625 58.3104 1029.41 566.198
700 0 56.0591 12.8971 723 57.2877 1029.39 564.799
701 0 57.0882 13.0149 743 58.0444 1028.55 564.965
702 0 59.1031 12.4359 735 58.9211 1028.28 563.434
703 0 59.1097 12.2822 726 60.011 1027.92 563.408
704 0 60.1003 12.0132 722 62.2438 1028.02 562.889
705 0 63.1878 12.7398 805 64.236 1027.84 563.32
706 0 64.118 11.7908 756 68.578 1027.56 562.96
707 0 68.1345 13.3119 907 67.8456 1027.82 559.214
708 0 70.1967 13.7898 968 71.4225 1027.85 559.669
709 0 72.203 13.2681 958 80.2463 1027.72 558.558
710 0 74.1171 13.2763 984 67.0295 1027.74 558.363
711 0 77.2015 13.9764 1079 67.7488 1028.28 557.302
712 0 80.1737 13.0592 1047 69.8539 1027.72 554.892
713 0 81.1783 13.6982 1112 70.4667 1027.49 552.993
714 0 85.1828 13.4065 1142 71.6664 1027.98 552.956
715 0 87.3374 13.6711 1194 72.6064 1027.43 552.641
716 0 89.1854 13.4663 1201 73.846 1027.19 550.702
717 1 46.1142 12.0787 557 73.386 1027.3 572.221
718 0 48.1839 12.1617 586 75.4334 1027.26 572.51
719 0 50.1766 12.3564 620 75.3855 1027.35 570.761
720 0 50.1766 12.3564 620 171.963 1028.36 570.85
721 0 55.2734 14.2383 787 74.0267 1027.9 570.947
722 0 54.2204 12.8918 699 77.701 1027.69 569.847
723 0 55.107 13.5373 746 77.9048 1027.52 570.588
724 0 57.2738 13.3918 767 77.7601 1027.57 568.776
725 0 58.2315 13.4635 784 78.9898 1027.03 567.061
726 0 61.0988 13.6336 833 77.9076 1027.79 565.357
727 0 61.179 12.8148 784 79.588 1027.3 566.33
728 0 65.1563 13.3525 870 79.0322 1027.57 564.983
729 0 66.1074 13.8562 916 78.5142 1027.54 565.153
730 0 69.062 12.9159 892 79.7253 1027.23 564.775
731 0 70.1572 13.1562 923 81.1213 1026.85 563.467
732 0 73.2293 13.8606 1015 80.6847 1027.07 561.522
733 0 73.2752 13.7973 1011 81.5282 1026.75 560.668
734 0 76.0471 13.2813 1010 82.3188 1026.6 561.49
735 0 76.414 14.4738 1106 82.0687 1026.05 559.412
736 0 82.3718 14.2767 1176 82.5731 1026.48 557.332
737 0 84.1259 13.8721 1167 84.2219 1026.38 556.401
738 0 86.1319 14.4894 1248 84.9864 1026.12 555.461
739 0 86.2774 13.9202 1201 86.3239 1026.19 555.335
740 0 89.164 13.3238 1188 87.9798 1026.11 553.252
741 0 91.1426 14.033 1279 88.4793 1026.12 552.438
742 0 91.1426 14.011 1277 148.706 1026.1 552.507
743 0 98.2786 15.6494 1538 87.7399 1025.62 549.423
744 0 103.226 15.4806 1598 88.2678 1026.04 548.63
745 0 104.258 14.3777 1499 90.8332 1025.82 547.863
746 0 109.193 13.6456 1490 92.7409 1025.67 546.576
747 0 108.277 13.2253 1432 94.7521 1025.71 545.032
748 0 114.253 14.6167 1670 93.8533 1025.17 543.329
749 0 118.233 15.072 1782 94.2884 1025.31 540.374
750 1 64.3812 13.6531 879 90.9568 1025.73 568.108
751 0 61.0636 11.0049 672 95.8304 1025.53 567.844
752 0 67.08 13.7895 925 82.013 1024.85 565.677
753 0 74.1268 11.8176 876 83.8916 1024.83 565.419
754 0 74.1064 10.9842 814 156.369 1023.83 566.651
755 0 73.2009 13.8386 1013 82.8391 1024.65 562.367
756 0 78.113 12.8788 1006 84.0547 1024.81 560.034
757 0 79.2688 13.5993 1078 83.5603 1024.73 559.024
758 0 79.1462 13.4561 1065 84.615 1025 559.455
759 0 79.2929 12.8385 1018 84.7692 1024.58 560.236
760 0 86.2456 13.8094 1191 84.529 1024.72 556.588
761 0 87.2934 13.7582 1201 84.9317 1024.32 555.513
762 0 88.3396 12.9613 1145 84.5223 1024.18 560.789
763 0 98.3925 14.5336 1430 83.6958 1024.19 550.357
764 0 98.3674 13.9274 1370 85.3628 1024.16 550.76
765 0 102.204 13.2774 1357 85.6153 1024.27 553.219
766 0 107.376 13.6437 1465 86.8635 1024.59 549.569
767 1 120.282 11.0324 1327 87.6564 1023.62 550.063
768 0 120.381 11.7045 1409 87.2292 1023.9 549.228
769 0 120.383 12.5931 1516 169.881 1024.78 546.881
770 0 120.24 14.1467 1701 86.943 1023.58 541.674
771 0 124.498 13.5183 1683 87.9103 1023.73 543.368
772 1 71.159 13.4347 956 85.342 1023.6 566.086
773 0 74.253 13.1577 977 86.0768 1023.29 562.452
774 0 79.2442 14.7645 1170 84.1239 1023.38 564.478
775 0 79.2319 13.7949 1093 86.4026 1023.52 562.027
776 0 82.3383 13.5174 1113 88.1887 1023.89 562.106
777 0 86.2116 14.0468 1211 89.0784 1023.04 560.369
778 0 88.2744 13.8545 1223 90.0082 1023.46 558.984
779 0 92.1312 13.2528 1221 84.7486 1023.32 556.39
780 0 94.362 14.137 1334 83.4093 1023.35 555.082
781 0 96.3169 14.3692 1384 84.9285 1023.47 552.331
782 1 49.2166 11.9269 587 83.7308 1024.52 576.581
783 0 50.025 12.8536 643 84.2068 1024.38 575.921
784 0 52.1681 11.693 610 85.8688 1024.1 576.162
785 0 54.2598 13.2879 721 85.1595 1025.15 573.942
786 0 55.1493 12.856 709 88.1721 1025.33 572.774
787 0 59.1643 13.6907 810 86.7864 1025.51 574.107
788 0 59.1408 13.0536 772 90.1878 1025.49 571.311
789 0 61.2256 13.0174 797 90.2861 1025.63 570.798
790 0 62.1265 13.3276 828 88.5894 1025.88 570.279
791 0 63.1707 13.5031 853 89.0516 1026.07 568.665
792 0 63.3463 14.2076 900 89.6378 1025.96 567.922
793 0 65.2294 12.6937 828 92.0302 1026.25 567.39
794 0 68.2451 13.9644 953 92.4554 1026.02 565.885
795 0 70.1192 14.0333 984 92.6138 1025.18 564.421
796 0 72.1256 13.421 968 94.2583 1025.43 566.055
797 0 74.4758 13.6152 1014 95.3284 1025.6 562.587
798 0 77.2677 14.0292 1084 87.9963 1025.45 561.47
799 0 77.2753 13.4325 1038 90.5906 1026.1 560.192
800 0 78.2298 13.422 1050 91.741 1026.56 560.356
801 0 83.1613 13.6722 1137 91.8997 1026.86 556.822
802 0 86.2266 13.3718 1153 92.8777 1026.84 556.304
803 0 90.2872 12.9697 1171 94.1699 1026.76 554.363
804 0 93.184 13.9831 1303 94.1811 1026.74 554.43
805 0 94.2835 15.1352 1427 94.3224 1026.88 551.069
806 0 96.3833 14.1933 1368 95.8706 1027.17 554.596
807 0 94.2756 11.5937 1093 98.5005 1027.01 555.489
808 1 57.3287 11.3032 648 95.5355 1027.62 572.242
809 0 57.1588 11.8792 679 95.7099 1027.69 571.48
810 0 57.1716 13.3283 762 95.5892 1027.81 570.864
811 0 60.1451 13.3178 801 96.1174 1027.83 569.93
812 0 64.2134 12.7232 817 96.9253 1027.67 569.111
813 0 65.2998 14.0276 916 96.548 1028.34 569.379
814 0 66.0686 13.4557 889 98.0124 1027.99 568.128
815 0 66.1862 14.5196 961 97.9844 1027.57 567.383
816 0 68.1817 13.7573 938 100.244 1027.44 564.741
817 0 72.2925 12.0621 872 102.392 1027.01 563.493
818 0 74.2614 14.6779 1090 100.078 1027.51 561.555
819 0 74.339 13.7344 1021 101.797 1027.7 561.012
820 0 82.2359 13.5464 1114 102.431 1027.76 560.44
821 0 81.4437 14.4149 1174 103.911 1028.02 557.782
822 0 85.2664 14.8241 1264 103.891 1027.63 558.469
823 0 89.2639 12.2446 1093 108.491 1027.29 557.742
824 0 89.4214 14.113 1262 108.855 1027.46 554.109
825 0 96.3864 10.5305 1015 112.855 1027.6 553.651
826 0 100.544 12.1937 1226 105.205 1027.22 553.374
827 0 98.2734 15.1516 1489 103.729 1027.44 548.39
828 0 100.556 14.6884 1477 105.862 1027.09 546.927
829 1 55.2015 10.7606 594 107.603 1026.86 570.33
830 0 56.3214 12.7305 717 105.029 1027 567.244
831 0 58.1071 14.284 830 103.961 1027.33 569.712
832 0 62.0606 11.7788 731 109.97 1026.92 570.079
833 0 62.2284 13.2576 825 107.532 1026.61 568.33
834 0 61.2558 12.7008 778 110.049 1026.18 567.58
835 0 61.099 12.4879 763 114.528 1025.76 565.166
836 0 64.0794 13.9827 896 79.2344 1026.25 566.017
837 0 66.242 14.1904 940 76.7819 1025.95 563.999
838 0 68.2015 13.1229 895 76.6067 1025.75 564.485
839 0 70.1152 14.0626 986 75.5446 1025.7 561.598
840 0 70.2455 13.9511 980 74.7571 1025.63 561.928
841 0 73.1253 13.7162 1003 74.9053 1025.34 562.614
842 0 76.1708 13.9686 1064 74.6823 1025.84 558.839
843 0 77.0704 13.4423 1036 75.4923 1026.22 559.148
844 0 81.1579 13.9974 1136 75.456 1025.88 557.916
845 0 85.2931 14.5498 1241 74.6769 1025.58 556.781
846 0 85.2239 13.4235 1144 77.4703 1025.88 555.621
847 0 91.4924 14.176 1297 75.8766 1025.84 555.815
848 0 92.644 13.7516 1274 77.2998 1025.52 550.535
849 1 50.0415 12.7494 638 77.1787 1025.21 573.912
850 0 52.1246 13.0265 679 77.5287 1025.75 571.636
851 0 53.0674 13.04 692 78.4075 1026.41 569.499
852 0 56.2315 13.8179 777 76.7207 1025.69 570.641
853 0 59.035 14.178 837 76.2688 1025.5 568.798
854 0 58.0312 13.4583 781 77.7132 1025.68 567.841
855 0 61.0805 13.6705 835 77.3808 1025.12 566.861
856 0 66.0325 13.8114 912 76.5077 1025.41 566.146
857 0 69.0593 13.9011 960 74.6719 1025.55 567.208
858 0 70.1249 13.7041 961 76.2643 1025.4 562.032
859 0 74.0826 14.6593 1086 74.1786 1025.71 561.434
860 0 75.0477 14.1244 1060 74.8858 1024.81 559.746
861 0 78.2122 12.8624 1006 75.4632 1025.35 558.187
862 0 82.1533 14.0591 1155 74.7255 1024.16 556.905
863 0 83.1895 13.7638 1145 75.5293 1024.7 554.694
864 0 87.1219 14.7609 1286 72.895 1025.27 553.957
865 1 46.0723 11.3734 524 71.542 1024.54 573.307
866 0 48.0586 11.0906 533 65.2083 1024.56 572.261
867 0 50.2265 12.3441 620 64.7677 1024.28 570.282
868 0 51.3138 11.8876 610 65.977 1024.1 573.036
869 0 53.2324 12.9808 691 64.8119 1024.52 572.755
870 0 54.316 13.2005 717 64.5328 1024.2 571.932
871 0 56.2149 13.6619 768 64.2526 1024.52 570.763
872 0 58.3051 13.0863 763 65.249 1024.48 570.544
873 0 60.3543 12.9568 782 65.4348 1024.6 569.309
874 0 61.3995 13.5832 834 64.3957 1024.07 568.572
875 0 63.3804 13.6004 862 64.5905 1024.49 567.76
876 0 65.3188 14.2072 928 63.9957 1024.46 566.49
877 0 68.3347 14.2095 971 63.7951 1024.32 566.874
878 0 69.4107 13.9027 965 64.4394 1024.44 562.851
879 0 69.4695 13.6031 945 65.673 1023.97 560.466
880 0 72.6266 13.5488 984 65.8374 1023.95 559.817
881 0 75.5104 14.3556 1084 65.1319 1024.53 559.488
882 0 77.5629 13.9371 1081 65.8918 1024.39 557.543
883 0 83.5729 14.61 1221 64.312 1024.22 557.124
884 0 85.6446 14.9338 1279 64.2486 1024.32 556.321
885 0 88.6002 13.8713 1229 66.249 1024.3 554.436
886 1 48.4706 12.4405 603 65.3466 1024.89 574.353
887 0 50.7758 12.2696 623 66.8427 1024.69 572.91
888 0 51.4714 12.3758 637 67.1272 1025.24 570.887
889 0 52.4802 12.6143 662 67.1526 1025.31 571.027
890 0 54.346 12.77 694 67.2709 1025.28 570.444
891 0 56.2956 13.2692 747 69.1178 1025.33 569.107
892 0 57.2435 13.2417 758 68.785 1025.52 568.962
893 0 60.3444 13.6549 824 67.2803 1026.09 568.803
894 0 62.5985 13.1473 823 67.8092 1026.28 566.65
895 0 62.3758 13.4828 841 67.8454 1027.1 562.283
896 0 64.9132 13.0174 845 68.2059 1027.29 561.514
897 0 67.5878 13.4344 908 67.337 1027.33 559.577
898 0 71.5134 13.7317 982 66.4216 1027.28 560.073
899 0 72.4347 13.0462 945 67.3016 1027.4 559.587
900 0 76.5458 13.5474 1037 66.5294 1027.97 559.252
901 0 76.5458 13.5474 1037 169.242 1029.99 559.11
902 0 80.5411 13.7073 1104 66.0417 1027.71 556.274
903 0 83.616 13.6338 1140 66.1018 1027.88 553.515
904 0 86.5205 13.6615 1182 66.0592 1027.79 551.12
905 0 89.7035 13.1656 1181 66.4632 1027.76 549.616
906 0 94.7659 13.9291 1320 64.622 1028.09 548.748
907 0 96.6793 13.8189 1336 64.1939 1028.58 546.933
908 1 51.4498 12.2838 632 63.568 1028.21 568.071
909 0 53.4621 11.8215 632 63.7864 1028.36 567.459
910 0 53.7276 11.7444 631 64.355 1028.5 566.019
911 0 56.6559 12.1964 691 63.0029 1028.79 566.067
912 0 59.4204 12.6892 754 63.2812 1028.63 564.711
913 0 60.5214 13.1359 795 63 1029.12 564.152
914 0 63.9554 13.744 879 61.7509 1029.24 562.678
915 0 62.533 12.8572 804 63.4627 1029.08 561.604
916 0 64.6528 12.6522 818 63.9535 1029.24 560.702
917 0 69.7249 13.3095 928 62.0765 1029.12 558.712
918 0 70.4803 13.0958 923 62.909 1029.46 558.736
919 0 71.635 12.5497 899 63.3115 1029.45 557.56
920 0 76.6479 13.3859 1026 61.2086 1029.49 558.152
921 0 75.6549 12.9139 977 63.2907 1029.76 554.693
922 0 81.8961 12.638 1035 62.3072 1029.9 554.171
923 0 83.5952 12.417 1038 62.6137 1029.73 551.353
924 0 86.5457 12.7216 1101 62.4841 1029.71 551.168
925 0 89.5948 13.7285 1230 60.4398 1029.52 548.689
926 0 94.6833 13.0752 1238 60.9435 1029.77 550.948
927 0 95.5907 12.9301 1236 61.4862 1029.79 547.093
928 1 53.4173 9.52874 509 62.1022 1030.24 567.568
929 0 54.3788 9.98551 543 62.2026 1030.37 567.751
930 0 57.3775 11.6073 666 59.4009 1030.23 567.617
931 0 59.251 11.7129 694 61.5187 1029.77 566.19
932 0 59.2112 11.7545 696 61.4698 1029.99 565.48
933 0 62.3221 11.8738 740 60.1919 1029.89 565.673
934 0 66.1815 12.2391 810 59.8704 1029.7 563.59
935 0 66.421 11.7433 780 60.4769 1029.95 562.48
936 0 68.5586 11.9752 821 60.5238 1030.03 560.882
937 0 69.4038 12.031 835 60.909 1029.97 559.753
938 0 72.1974 11.8287 854 60.4625 1029.24 559.272
939 0 75.292 11.6081 874 60.8066 1029.74 556.842
940 0 78.2547 12.5104 979 59.0174 1029.88 557.721
941 0 79.3194 11.8634 941 61.0553 1029.55 553.17
942 0 84.4289 12.3891 1046 59.1616 1029.53 554.433
943 0 85.4053 11.8025 1008 60.5754 1029.1 553.053
944 0 87.2663 11.7113 1022 60.684 1028.86 552.524
945 1 51.3401 10.0506 516 57.3818 1029.33 571.984
946 0 50.1448 10.6292 533 57.681 1029.28 570.426
947 0 54.1525 11.4307 619 56.2811 1028.5 569.194
948 0 55.1422 11.7696 649 55.866 1029.08 568.969
949 0 57.3656 11.3657 652 57.8436 1028.29 567.483
950 0 61.2375 12.0514 738 56.3835 1028.01 566.182
951 0 60.3129 12.1035 730 56.8521 1028.02 566.066
952 0 62.3149 11.7949 735 57.7837 1027.68 564.743
953 0 64.2295 12.0817 776 57.2539 1028.06 564.845
954 0 66.2313 11.8222 783 57.0128 1027.59 563.997
955 0 68.2768 12.1271 828 56.6486 1027.57 561.859
956 0 70.2267 12.7302 894 56.5626 1027.48 561.101
957 0 73.2583 11.8894 871 56.7118 1027.54 561.456
958 0 73.1914 11.668 854 57.0281 1026.95 559.247
959 0 76.2808 12.1918 930 56.9946 1027.05 559.201
960 0 78.2344 12.9738 1015 55.8246 1026.83 557.582
961 0 80.227 12.3151 988 56.7702 1026.34 557.062
962 0 83.1715 13.1175 1091 55.8094 1027.17 557.095
963 0 84.3386 12.8174 1081 56.8927 1027.18 553.732
964 0 89.3194 13.2558 1184 56.2314 1027.02 552.308
965 0 91.2653 13.0827 1194 56.2119 1027.23 552.976
966 0 95.4759 12.9352 1235 56.1951 1027.13 551.13
967 0 97.7694 13.1636 1287 56.404 1026.88 548.455
968 0 102.464 13.2925 1362 56.6322 1027.02 547.236
969 0 103.494 13.4501 1392 56.3276 1026.99 547.16
970 1 59.203 10.7089 634 56.7256 1026.68 568.451
971 0 62.2798 10.9827 684 56.6564 1026.49 567.988
972 0 63.452 11.5993 736 56.1182 1027.07 567.355
973 0 64.334 11.5491 743 57.2678 1026.66 564.556
974 0 64.334 11.5491 743 151.174 1026.66 564.556
975 0 69.2674 12.0259 833 56.7443 1026.23 564.227
976 0 70.2842 13.0328 916 56.143 1026.03 563.292
977 0 72.4887 12.4847 905 57.0486 1026.1 562.145
978 0 73.4328 12.7872 939 57.0937 1025.52 562.233
979 0 76.4862 12.4336 951 57.4132 1025.3 560.72
980 0 77.4487 12.3695 958 57.7411 1025.04 559.454
981 0 80.6824 12.3447 996 57.9006 1025.3 559.054
982 0 82.52 12.9666 1070 57.1 1025.41 557.908
983 0 84.4407 13.4059 1132 57.2332 1025.22 554.954
984 0 85.284 13.2967 1134 57.567 1025.34 555.803
985 0 88.372 13.5337 1196 57.6045 1025.25 555.706
986 0 90.3422 12.8844 1164 58.189 1025.14 555.552
987 0 94.3197 13.6557 1288 57.5489 1025.43 553.526
988 0 97.4673 14.1894 1383 57.0347 1025.19 550.946
989 0 100.373 14.227 1428 57.0721 1024.97 549.944
990 0 104.352 14.2786 1490 57.0906 1025 548.491
991 0 105.558 13.6229 1438 57.9861 1024.41 546.42
992 0 109.221 13.9625 1525 57.5088 1024.59 545.978
993 0 111.264 12.9602 1442 59.1928 1024.74 543.389
994 0 115.514 13.3663 1544 58.7714 1024.66 542.58
995 0 119.332 13.366 1595 59.0846 1024.56 540.83
996 0 124.292 13.9672 1736 57.5806 1024.88 540.748
997 0 127.55 13.7828 1758 58.2236 1024.61 538.904
998 0 132.613 13.9956 1856 57.6988 1024.45 536.633
999 1 74.2497 10.8822 808 58.6324 1024.77 564.983
1000 0 74.2306 10.6425 790 58.8114 1025.3 565.952
1001 0 79.1703 12.391 981 57.8063 1025.25 562.749
1002 0 79.2266 12.521 992 57.6562 1025.07 560.693
1003 0 84.4133 13.2207 1116 56.5439 1023.93 561.707
1004 0 84.4133 13.197 1114 162.29 1022.92 561.659
1005 0 87.3349 12.9616 1132 58.0769 1024.37 558.166
1006 0 88.3033 12.0834 1067 59.12 1024.48 556.22
1007 0 93.3304 13.0504 1218 57.8399 1024.8 555.222
1008 0 97.43 13.23 1289 57.8037 1024.74 554.97
1009 0 99.2981 12.7596 1267 59.0332 1025.24 551.814
1010 0 102.461 13.898 1424 57.4389 1025.22 551.76
1011 0 105.301 13.2382 1394 60.0574 1025.73 548.892
1012 0 108.347 12.6631 1372 60.9774 1025.75 548.317
1013 0 113.381 12.9387 1467 60.8855 1025.79 546.913
1014 0 114.393 13.4274 1536 61.2148 1025.74 543.972
1015 0 121.67 14.0051 1704 60.5974 1025.68 542.077
1016 0 123.442 13.5367 1671 61.4381 1025.48 538.34
1017 0 128.578 14.0226 1803 60.7804 1025.64 537.696
1018 1 72.4114 10.537 763 60 1025.49 565.232
1019 0 74.273 11.7809 875 58.968 1025.59 563.704
1020 0 77.2259 11.9002 919 59.0838 1025.59 563.669
1021 0 79.3418 12.0995 960 59.0208 1025.34 560.766
1022 0 81.4478 12.3637 1007 59.286 1025.81 560.673
1023 0 81.4478 12.1673 991 167.987 1025.77 560.314
1024 0 86.2074 12.8759 1110 59.3685 1026.15 556.481
1025 0 91.4011 12.4397 1137 59.2269 1026.4 555.601
1026 0 93.3021 12.5292 1169 59.444 1026.22 553.809
1027 0 96.2063 13.0865 1259 59.0651 1026.56 552.398
1028 0 98.1418 12.4819 1225 59.978 1026.63 550.302
1029 0 102.327 13.3493 1366 58.3594 1026.84 550.359
1030 0 105.328 12.95 1364 58.9025 1026.8 546.483
1031 0 109.22 12.5527 1371 59.2502 1027.08 546.956
1032 0 109.353 12.4277 1359 59.2723 1026.72 544.21
1033 0 112.254 12.3916 1391 59.683 1027.29 541.629
1034 0 117.374 12.703 1491 58.5426 1026.86 541.423
1035 1 65.2625 9.36219 611 57.5712 1027.16 568.429
1036 0 68.2417 9.87665 674 58.0772 1027.51 567.369
1037 0 70.2284 10.893 765 57.4758 1027.98 565.723
1038 0 71.2122 11.6834 832 56.8137 1027.66 562.682
1039 0 74.2215 11.304 839 57.3969 1028.21 562.563
1040 0 76.1942 12.0219 916 56.9312 1028.49 560.788
1041 0 77.184 13.1115 1012 55.8706 1028.81 559.694
1042 0 78.286 12.7864 1001 56.1259 1028.54 557.974
1043 0 82.314 12.5009 1029 55.8018 1029.05 558.456
1044 0 83.2553 12.9241 1076 56.5139 1028.86 554.376
1045 0 87.3773 12.8981 1127 56.9308 1029.12 554.468
1046 0 90.2069 12.815 1156 55.9983 1029.03 554.465
1047 0 93.3059 12.4215 1159 56.4236 1029.62 552.371
1048 0 95.1901 12.5958 1199 56.754 1029.47 552.263
1049 0 98.3477 12.7812 1257 56.6858 1029.5 550.814
1050 1 56.077 9.98628 560 57.4393 1030.5 569.357
1051 0 59.0202 10.8607 641 56.2278 1030.19 566.927
1052 0 61.1622 10.791 660 56.0273 1030.26 565.974
1053 0 62.2366 10.9421 681 56.6006 1029.74 561.871
1054 0 64.4563 12.2409 789 55.6654 1029.7 561.738
1055 0 67.4421 12.4848 842 54.8504 1029.92 558.396
1056 0 66.377 12.8207 851 55.9201 1029.67 552.168
1057 0 69.3942 12.6235 876 55.9361 1029.57 552.651
1058 0 69.5715 11.8008 821 57.419 1029.57 551.074
1059 0 73.2866 12.7581 935 55.8 1028.98 551.55
1060 0 72.1933 12.3834 894 56.6488 1029.48 554.921
1061 0 75.5678 12.5715 950 56.5326 1029.84 554.964
1062 0 73.2041 12.2397 896 57.1964 1029.61 556.706
1063 0 75.2469 12.5321 943 57.0912 1029.05 555.163
1064 0 79.2698 12.6782 1005 57.1592 1029.16 554.043
1065 0 84.4186 12.5209 1057 57.3094 1029.28 553.075
1066 0 83.3984 13.1657 1098 57.0492 1029.2 550.847
1067 0 87.457 12.7949 1119 57.5219 1028.89 550.741
1068 0 91.3586 12.5768 1149 57.7537 1028.81 549.865
1069 1 49.4441 8.75737 433 58.1386 1028.63 569.993
1070 0 53.3323 10.4815 559 56.7191 1028.24 567.986
1071 0 53.3356 10.9683 585 57.1709 1028.31 566.374
1072 0 56.1314 11.0455 620 57.6806 1028.89 567.989
1073 0 54.1104 11.7537 636 57.5598 1029.58 566.049
1074 0 58.1081 11.4786 667 57.4318 1028.78 564.721
1075 0 60.1832 11.6312 700 57.7343 1028.64 565.869
1076 0 59.1684 12.3715 732 57.3074 1028.31 563.769
1077 0 63.2654 12.2342 774 57.0969 1028.07 563.824
1078 0 63.2728 11.806 747 58.7872 1028.08 563.47
1079 0 66.187 13.0086 861 57.2253 1028.16 562.938
1080 0 69.152 12.7111 879 58.24 1028.12 563.502
1081 0 69.0693 12.9146 892 58.7287 1027.77 560.349
1082 0 72.1585 12.8744 929 58.4198 1027.84 560.062
1083 0 73.1676 12.9155 945 59.0741 1027.85 557.649
1084 0 74.1672 12.9033 957 59.8307 1027.8 558.2
1085 0 75.1744 12.7836 961 60.36 1027.45 557.034
1086 0 78.1208 13.2231 1033 59.6883 1027.58 555.603
1087 0 80.2603 13.0949 1051 60.1684 1027.78 553.98
1088 0 83.2387 12.8666 1071 60.5434 1027.53 553.793
1089 0 83.2387 12.8666 1071 159.044 1027.54 553.822
1090 0 90.2083 13.5797 1225 59.2849 1027.66 551.34
1091 1 48.182 10.2113 492 59.3455 1028.15 571.028
1092 0 51.0586 10.1648 519 59.3565 1027.91 572.087
1093 0 52.0427 11.087 577 59.1577 1027.85 570.645
1094 0 52.0978 11.1329 580 60.4414 1027.59 569.669
1095 0 56.0187 11.9424 669 60.2631 1028.09 569.087
1096 0 57.1709 11.8942 680 60.2897 1026.9 567.302
1097 0 59.1849 12.047 713 60.1234 1027.05 567.262
1098 0 60.1981 12.1432 731 60.3912 1026.64 566.832
1099 0 60.145 12.4366 748 60.7888 1026.93 565.782
1100 0 63.1976 12.1207 766 61.5979 1026.96 563.483
1101 0 65.2094 12.9736 846 59.8558 1027.09 564.362
1102 0 68.0767 12.5006 851 60.7944 1027.18 563.256
1103 0 70.1848 13.2792 932 60.3101 1026.93 561.146
1104 0 70.1848 13.2792 932 158.166 1025.93 561.146
1105 0 73.0882 12.6559 925 61.3308 1026.53 559.562
1106 0 76.1042 13.4027 1020 60.5059 1026.03 559.545
1107 0 80.1552 13.5113 1083 61.0268 1026.48 558.183
1108 0 80.2024 12.7677 1024 61.8291 1026.8 555.845
1109 0 83.1799 12.8757 1071 62.4202 1026.22 554.786
1110 0 87.2142 13.0713 1140 61.7272 1026.17 554.134
1111 0 87.1986 13.2227 1153 61.8508 1025.87 553.162
1112 0 90.262 13.0287 1176 62.693 1026.1 552.005
1113 0 96.0816 13.9361 1339 60.5459 1025.88 551.016
1114 0 97.1815 13.1815 1281 61.7291 1025.63 547.995
1115 1 53.0658 10.2514 544 62.454 1025.65 568.974
1116 0 56.1082 10.9432 614 60.3616 1025.25 570.233
1117 0 56.1386 11.0975 623 61.1059 1024.92 569.645
1118 0 59.2093 11.8225 700 60.34 1024.89 567.056
1119 0 60.202 11.993 722 60.7355 1025.14 566.458
1120 0 61.1611 12.4589 762 60.6102 1024.7 565.944
1121 0 61.1068 12.6664 774 60.9406 1024.88 566.553
1122 0 64.0759 11.7049 750 61.7973 1024.64 565.273
1123 0 65.068 12.1258 789 61.5564 1024.08 563.833
1124 0 67.1453 12.5698 844 60.8957 1024.69 563.12
1125 0 70.0808 12.2715 860 60.9012 1024.68 562.872
1126 0 72.1219 13.1305 947 60.944 1025.4 562.076
1127 0 72.1219 13.1305 947 151.618 1025.37 561.995
1128 0 75.1419 12.8158 963 61.758 1024.72 560.19
1129 0 76.1266 13.3987 1020 61.5226 1024.46 559.418
1130 0 78.0861 13.5363 1057 61.5866 1024.7 558.043
1131 0 79.0963 13.3255 1054 62.4345 1025.47 558.078
1132 0 84.1517 13.6301 1147 61.9547 1025.19 556.381
1133 0 86.106 13.2163 1138 62.8568 1025.51 554.59
1134 0 86.106 13.2395 1140 151.887 1026.51 554.543
1135 0 90.1485 13.1782 1188 63.266 1025.64 552.308
1136 0 94.2493 14.1327 1332 62.5668 1025.7 549.49
1137 0 97.1628 13.0914 1272 63.8616 1025.19 547.913
1138 0 101.192 13.2619 1342 63.0864 1024.99 545.741
1139 1 55.0719 10.0777 555 62.0991 1025.18 570.957
1140 0 56.2352 11.2207 631 61.9128 1025.46 567.777
1141 0 58.0923 12.1186 704 63.1492 1025.43 566.062
1142 0 62.1446 12.5514 780 62.1026 1025.44 566.21
1143 0 63.1371 11.8314 747 62.9786 1026.19 564.613
1144 0 65.038 12.6234 821 62.1924 1026.26 564.162
1145 0 67.0857 11.6716 783 64.0881 1026.49 561.475
1146 0 69.1379 12.6269 873 62.0733 1026.07 559.748
1147 0 73.0445 12.8141 936 62.0331 1026.22 558.988
1148 0 75.131 12.8176 963 62.0436 1026.96 557.468
1149 0 78.1198 12.9033 1008 61.8442 1026.78 557.4
1150 0 78.0807 13.1146 1024 62.3926 1027.1 556.697
1151 0 82.1063 13.0197 1069 62.4266 1027.28 554.267
1152 0 86.1838 13.2856 1145 62.0961 1027.46 553.081
1153 0 86.149 13.2097 1138 62.8453 1027.68 551.975
1154 0 90.2197 13.1013 1182 62.8384 1028.07 550.505
1155 0 93.1438 13.9032 1295 62.0842 1028.34 549.514
1156 0 93.1072 12.7595 1188 65.0682 1028.86 546.181
1157 0 96.1145 13.255 1274 64.4772 1028.77 546.011
1158 0 101.179 13.5502 1371 64.1109 1029.24 542.856
1159 0 104.204 14.3085 1491 63.3856 1029.31 541.453
1160 0 107.299 13.728 1473 64.8221 1029.46 539.577
1161 0 108.32 13.2016 1430 66.3014 1030.13 538.217
1162 0 113.22 14.1141 1598 64.7829 1030.24 535.776
1163 0 117.205 14.112 1654 64.9976 1030.24 534.952
1164 1 67.1036 10.7297 720 65.8056 1029.89 560.676
1165 0 71.1866 11.1257 792 65.5631 1030.28 559.501
1166 0 72.2078 11.7577 849 65.5406 1030.05 558.842
1167 0 77.2354 12.9604 1001 64.2518 1030.54 555.61
1168 0 80.1848 12.546 1006 64.7366 1030.95 554.827
1169 0 81.1458 12.7425 1034 64.8772 1030.83 553.659
1170 0 82.195 12.4338 1022 66.4511 1030.85 552.266
1171 0 85.1867 12.9128 1100 65.3191 1030.94 551.554
1172 0 87.2027 12.1556 1060 67.0755 1030.65 550.289
1173 0 92.2555 13.029 1202 65.5749 1031.08 547.918
1174 0 94.1743 12.8697 1212 66.4167 1031.52 546.793
1175 0 98.1765 13.1294 1289 65.806 1030.92 545.867
1176 0 100.324 13.4564 1350 65.6482 1031.14 543.641
1177 0 103.257 13.2872 1372 65.4913 1030.98 542.287
1178 0 105.316 13.2268 1393 66.0144 1030.8 541.775
1179 1 57.1075 9.42082 538 66.6282 1029.99 565.48
1180 0 61.0245 10.2582 626 65.5511 1030.28 564.994
1181 0 64.0981 11.4356 733 64.4284 1029.83 563.636
1182 0 64.0279 11.9635 766 64.7337 1030.22 562.116
1183 0 67.0168 11.9672 802 64.49 1030.2 559.481
1184 0 68.1685 12.5718 857 64.2882 1030.11 560.134
1185 0 72.1316 12.907 931 63.2019 1030.02 558.753
1186 0 73.1498 12.5086 915 64.3169 1030.29 557.099
1187 0 75.1751 12.6106 948 64.7194 1030.31 555.261
1188 0 77.2461 12.7644 986 64.073 1030.12 555.344
1189 0 79.1809 12.7051 1006 64.673 1029.76 553.978
1190 0 81.2121 12.9168 1049 64.5195 1030.07 553.867
1191 0 83.2177 12.7497 1061 64.9161 1029.64 552.15
1192 0 85.2366 13.6678 1165 63.7159 1029.65 550.247
1193 0 87.2426 12.769 1114 65.3151 1029.51 548.259
1194 0 91.4053 13.6644 1249 64.0737 1028.92 546.311
1195 0 94.4857 12.4252 1174 66.1371 1029.06 544.419
1196 1 52.1182 9.74707 508 64.0532 1029.26 568.587
1197 0 54.1377 9.7529 528 63.9432 1029.34 568.019
1198 0 57.2253 10.4499 598 63.8512 1029.23 566.502
1199 0 58.2041 11.0302 642 63.5312 1028.71 565.182
1200 0 62.0768 11.2441 698 63.0716 1029.4 565.279
1201 0 60.065 12.2201 734 64.9455 1029.58 563.366
1202 0 64.1298 12.3656 793 64.1955 1028.34 562.497
1203 0 65.071 12.9705 844 63.8329 1028.39 562.563
1204 0 66.1245 12.4311 822 64.9769 1027.96 561.344
1205 0 68.272 12.5674 858 64.9802 1028.1 559.041
1206 0 71.1494 12.6916 903 64.5437 1028.35 558.288
1207 0 74.1601 12.2977 912 64.9857 1028.03 558.412
1208 0 75.0879 12.5187 940 64.6085 1027.77 557.185
1209 0 75.0713 12.7878 960 63.974 1027.73 555.412
1210 0 78.1281 12.9787 1014 63.64 1027.43 554.259
1211 0 82.1106 13.019 1069 63.0327 1027.28 553.365
1212 0 84.1794 13.1267 1105 62.876 1027.22 551.633
1213 0 87.1226 13.0047 1133 62.94 1027.45 550.049
1214 1 44.1951 8.84713 391 63.7698 1027.21 572.941
1215 0 47.2536 9.92517 469 62.3795 1027.23 571.122
1216 0 47.2064 10.4223 492 61.9654 1026.52 571.504
1217 0 50.1747 10.8421 544 60.7831 1026.61 571.669
1218 0 52.28 10.5968 554 60.8736 1026.75 569.828
1219 0 52.2051 11.474 599 60.813 1026.48 569.878
1220 0 53.044 11.4622 608 61.1941 1026.69 568.339
1221 0 57.0891 11.6835 667 60.2039 1026.72 566.526
1222 0 58.1435 12.0048 698 59.9384 1026.46 566.416
1223 0 60.0476 11.7074 703 60.2959 1026 566.275
1224 0 62.0167 12.3031 763 59.4653 1025.94 563.792
1225 0 64.0779 12.594 807 59.0917 1026.48 562.974
1226 0 65.0868 11.3387 738 60.4241 1026.58 562.741
1227 0 69.0856 12.4773 862 58.2738 1026.45 561.827
1228 0 70.0574 13.2177 926 57.5086 1026.24 560.109
1229 0 71.1143 12.276 873 58.7572 1025.91 558.969
1230 0 75.2444 12.8647 968 57.7087 1026 559.169
1231 0 76.1352 12.4515 948 58.3112 1026.1 557.712
1232 0 78.2493 12.2301 957 58.745 1025.17 557.472
1233 0 80.2735 12.5072 1004 58.49 1025.67 556.274
1234 0 82.2254 12.6238 1038 58.2235 1025.62 555.474
1235 0 85.2869 13.1791 1124 57.6557 1025.97 554.88
1236 0 87.1815 11.8144 1030 59.2252 1026.34 554.282
1237 0 90.2181 12.9907 1172 57.5196 1026.05 551.764
1238 0 94.2109 12.9178 1217 57.3279 1025.78 550.345
1239 1 56.1587 10.043 564 57.1631 1025.67 570.762
1240 0 54.1771 10.0042 542 58.0203 1025.81 570.459
1241 0 55.1011 10.018 552 57.7754 1025.58 570.172
1242 0 56.0702 10.5404 591 57.066 1025.8 568.783
1243 0 56.1187 10.4956 589 57.0594 1025.62 568.62
1244 0 61.2054 12.0741 739 55.0568 1025.77 567.084
1245 0 61.2665 11.8662 727 55.0702 1026.11 566.103
1246 0 63.1589 11.8748 750 55.2547 1026.12 564.475
1247 0 63.1589 11.8906 751 142.927 1026.13 564.502
1248 0 65.0772 12.2624 798 56.1792 1025.64 563.216
1249 0 68.1097 11.7164 798 56.5038 1025.93 562.044
1250 0 69.1799 12.0989 837 56.239 1025.74 560.817
1251 0 71.2537 12.0134 856 56.7699 1025.76 558.229
1252 0 73.2345 11.7021 857 57.2485 1025.97 557.842
1253 0 77.5092 11.547 895 57.2603 1025.93 555.915
1254 0 79.6121 12.3725 985 56.7898 1026.18 554.319
1255 0 82.5548 11.992 990 57.3141 1025.59 552.461
1256 0 83.4445 11.8762 991 58.1796 1025.28 549.951
1257 0 88.4907 12.7471 1128 56.7367 1025.27 547.945
1258 0 90.4505 12.2387 1107 57.6088 1025.65 546.17
1259 0 93.389 12.2713 1146 57.4302 1026.22 545.991
1260 0 97.488 12.6887 1237 56.5554 1025.85 544.888
1261 0 101.351 12.9846 1316 56.7036 1025.98 543.807
1262 1 55.2119 9.67183 534 58.9363 1026.21 563.551
1263 0 60.271 10.6519 642 58.2695 1026.64 562.662
1264 0 61.2957 10.6696 654 57.7187 1026.84 563.937
1265 0 65.2579 12.8567 839 57.056 1027.28 560.265
1266 0 66.1245 12.7487 843 56.6501 1027.24 556.955
1267 0 70.128 13.0333 914 56.105 1026.25 552.3
1268 0 71.2657 13.0357 929 56.4844 1026.52 551.208
1269 0 75.3868 12.8272 967 56.3392 1026.85 553.693
1270 0 77.1105 14.0318 1082 55.3808 1027.6 552.489
1271 0 79.0585 13.7746 1089 55.7787 1027.84 556.108
1272 0 80.1018 12.7088 1018 57.1434 1029.15 556.34
1273 0 83.1639 13.263 1103 56.7616 1029.28 555.063
1274 0 87.2776 13.9096 1214 56.1005 1029.52 551.697
1275 0 89.163 13.6716 1219 56.7358 1029.66 552.155
1276 0 90.2335 13.9416 1258 56.787 1029.73 549.822
1277 0 95.3552 14.619 1394 55.1306 1029.91 548.288
1278 0 97.2211 13.8242 1344 56.6912 1030.45 549.535
1279 0 102.252 13.8678 1418 57.0099 1031.11 546.329
1280 1 55.1119 10.6873 589 57.9304 1031.03 569.647
1281 0 58.2455 10.8506 632 57.5665 1031.08 568.619
1282 0 58.1338 11.8004 686 56.8018 1031.12 566.226
1283 0 59.2031 11.7561 696 56.6121 1031.25 566.95
1284 0 60.1176 12.2427 736 56.8573 1031.42 565.281
1285 0 64.2262 12.5805 808 57.3379 1030.96 563.764
1286 0 65.1318 11.9297 777 58.5148 1031.25 562.983
1287 0 67.1068 13.7244 921 55.709 1031.65 562.697
1288 0 69.2002 12.9479 896 57.0034 1031.66 561.6
1289 0 69.2002 12.919 894 154.15 1031.66 561.643
1290 0 73.1582 12.1928 892 58.065 1031.86 558.997
1291 0 74.1741 12.1067 898 59.2316 1031.89 557.619
1292 0 77.0928 12.8028 987 58.8075 1031.79 556.027
1293 0 80.0583 12.7407 1020 58.6667 1031.55 554.818
1294 0 82.0895 12.7909 1050 58.2848 1032.05 555.269
1295 0 83.1839 14.0051 1165 57.7648 1031.38 552.824
1296 0 87.1437 13.2081 1151 58.2311 1031.49 551.047
1297 0 89.1067 12.962 1155 58.774 1031.4 548.328
1298 0 92.193 12.9511 1194 58.4732 1031.23 548.655
1299 0 95.3383 13.4678 1284 58.1807 1031.55 547.32
1300 0 97.21 12.7353 1238 59.6179 1031.37 544.276
1301 0 97.21 12.6736 1232 149.205 1032.37 544.347
1302 0 101.328 12.8296 1300 60.5369 1031.01 542.608
1303 0 105.205 12.718 1338 60.1405 1030.86 540.954
1304 1 59.1314 10.8741 643 59.7294 1030.81 564.414
1305 0 62.1392 10.911 678 59.7212 1031.05 564.062
1306 0 62.1135 11.3985 708 59.7924 1030.66 560.98
1307 0 68.2968 12.68 866 57.6547 1030.29 560.663
1308 0 68.0815 11.6772 795 59.2226 1030.12 559.523
1309 0 70.0966 11.8551 831 59.0481 1029.95 559.615
1310 0 72.2033 12.077 872 59.5677 1029.88 557.366
1311 0 77.1205 12.8111 988 58.3796 1029.7 555.958
1312 0 77.1264 12.8361 990 58.5141 1029.98 555.085
1313 0 79.1189 12.4496 985 59.4782 1029.26 554.513
1314 0 82.2485 12.8635 1058 59.1418 1028.99 551.944
1315 0 86.1267 12.5281 1079 59.2836 1028.99 552.077
1316 0 87.1064 12.6971 1106 59.783 1028.43 551.734
1317 0 91.2445 12.3295 1125 59.968 1028.24 550.813
1318 0 94.3761 12.3548 1166 59.7281 1028 549.003
1319 1 50.18 10.5022 527 58.3738 1027.73 571.636
1320 0 49.1731 10.3919 511 60.6262 1027.73 569.399
1321 0 53.1881 10.8483 577 59.4142 1027.81 571.175
1322 0 54.0596 11.3578 614 60.2264 1027.77 568.419
1323 0 57.1251 11.3785 650 60.7123 1027.72 567.671
1324 0 57.1366 11.1312 636 59.9167 1027.44 567.522
1325 0 60.2235 11.9721 721 59.1276 1026.99 565.68
1326 0 62.1426 12.9541 805 57.8919 1026.25 567.711
1327 0 63.2087 12.2768 776 60.2539 1026.43 566.227
1328 0 64.2574 12.4966 803 60.2914 1026.44 565.164
1329 0 68.178 13.2154 901 59.4584 1026.53 562.854
1330 0 70.1736 13.2956 933 61.0514 1027.56 564.144
1331 0 71.1767 12.757 908 62.7588 1026.99 563.673
1332 0 74.1132 13.0881 970 61.799 1026.62 563.438
1333 0 73.2318 13.3549 978 62.3068 1026.97 564.349
1334 0 77.1772 13.0479 1007 65.2959 1026.9 562.798
1335 0 79.2864 13.5206 1072 64.4412 1027.22 560.028
1336 0 81.2487 14.0556 1142 63.542 1026.47 558.868
1337 0 82.2731 13.2729 1092 65.5348 1026.24 557.999
1338 0 84.3016 13.7127 1156 64.814 1026.47 557.767
1339 0 88.2116 14.0458 1239 63.9225 1026.33 555.615
1340 0 89.3146 12.9766 1159 65.3607 1025.96 556.135
1341 0 94.3579 14.2966 1349 63.4611 1026.12 554.011
1342 0 96.2758 14.2819 1375 63.6007 1026.49 550.209
1343 0 98.4385 14.0088 1379 63.9964 1026.17 549.726
1344 0 102.362 13.7454 1407 63.6318 1025.93 549.65
1345 0 105.2 13.8783 1460 63.5856 1025.32 547.479
1346 1 59.225 11.9038 705 63.5007 1025.74 570.567
1347 0 61.2079 11.3874 697 63.901 1025.48 570.694
1348 0 63.2053 12.2458 774 62.77 1025.33 568.475
1349 0 63.1008 13.0109 821 62.6943 1025.89 568.541
1350 0 65.1385 13.0184 848 63.0118 1025.59 567.244
1351 0 68.0703 13.06 889 62.6738 1025.45 565.191
1352 0 68.1617 13.5707 925 62.9719 1025.51 563.635
1353 0 70.1194 13.3059 933 63.4362 1025.13 563.791
1354 0 71.1524 12.5646 894 64.8546 1025 564.347
1355 0 74.1334 12.8417 952 64.2637 1025 563.045
1356 0 76.1372 13.1999 1005 64.2687 1024.74 562.556
1357 0 78.2448 13.0616 1022 65.1145 1024.39 560.956
1358 0 81.1574 12.9625 1052 65.8451 1024.29 558.101
1359 0 83.1817 13.765 1145 64.8166 1024.17 557.434
1360 0 86.3215 13.415 1158 65.8264 1024 556.37
1361 1 47.1346 9.90779 467 67.6381 1024.53 576.981
1362 0 48.1957 10.4781 505 67.9663 1024.42 575.457
1363 0 50.2052 10.7957 542 67.2952 1024.22 577.098
1364 0 51.3528 10.6907 549 68.2095 1024.3 575.452
1365 0 53.2828 11.5234 614 67.4837 1024.23 574.594
1366 0 55.2288 12.0589 666 66.8934 1024.27 573.159
1367 0 55.2288 12.0408 665 159.388 1023.29 573.165
1368 0 58.2594 12.101 705 67.8199 1024.1 571.57
1369 0 59.128 12.2108 722 68.6163 1023.94 572.399
1370 0 60.1424 12.8528 773 68.0116 1023.85 570.539
1371 0 64.2559 13.3217 856 66.9042 1024.25 569.654
1372 0 67.1858 13.4255 902 66.7705 1023.48 567.421
1373 0 67.2377 13.9654 939 67.1715 1023.39 565.774
1374 0 71.2064 14.6897 1046 64.8088 1023.95 564.215
1375 0 70.1227 14.1181 990 67.6141 1023.94 564.784
1376 0 72.141 13.3766 965 69.1803 1024.17 565.068
1377 0 71.1608 13.0549 929 71.0355 1024.1 565.624
1378 0 73.1676 13.5579 992 70.0474 1023.58 562.518
1379 0 74.1366 13.5156 1002 70.0319 1024.25 561.246
1380 0 78.0927 13.1894 1030 69.5427 1024.19 562.129
1381 0 78.1211 13.2487 1035 70.1353 1024.05 560.327
1382 0 79.0615 13.344 1055 67.5118 1024.23 560.652
1383 0 83.1136 13.8846 1154 66.7201 1024.29 558.88
1384 0 85.1625 14.032 1195 67.9883 1023.69 556.875
1385 0 88.2064 14.0353 1238 68.9653 1023.96 556.566
1386 0 90.069 14.4556 1302 68.0346 1024.04 554.468
1387 0 94.1152 14.1529 1332 68.3656 1023.91 552.871
1388 0 96.1621 13.8412 1331 69.2111 1024.54 550.174
1389 0 101.091 14.4128 1457 67.4859 1024.53 549.59
1390 0 101.227 13.6228 1379 69.8412 1024.83 548.191
1391 0 104.242 14.4568 1507 68.1739 1024.48 547.242
1392 0 107.173 14.1173 1513 68.7158 1024.99 544.383
1393 1 62.072 11.6155 721 69.957 1025.25 568.405
1394 0 62.0657 11.649 723 70.4827 1025.94 568.032
1395 0 67.1301 13.1685 884 67.8733 1026.33 566.772
1396 0 69.063 13.1474 908 67.4548 1026.45 566.471
1397 0 69.0576 13.0326 900 67.8744 1025.86 563.951
1398 0 73.1574 13.1907 965 66.8508 1026.26 562.959
1399 0 77.2515 13.6567 1055 65.5166 1026.43 560.996
1400 0 78.1258 13.1455 1027 66.5219 1026.83 559.848
1401 0 81.1377 13.6065 1104 64.9348 1026.91 559.151
1402 0 85.1453 13.2362 1127 64.5084 1027.26 557.827
1403 0 88.1314 13.2416 1167 64.2939 1027.15 555.687
1404 0 91.2618 13.0942 1195 63.7021 1027.73 554.731
1405 0 94.2565 13.6754 1289 62.6548 1027.76 551.03
1406 0 98.3429 13.3207 1310 62.4038 1028.15 550.212
1407 0 101.497 13.3107 1351 62.4204 1028.54 547.261
1408 0 104.348 14.1833 1480 60.4885 1028.82 546.055
1409 0 106.331 13.1759 1401 62.0271 1028.63 543.634
1410 0 109.538 13.5843 1488 61.1667 1028.98 543.075
1411 0 113.403 13.9149 1578 60.064 1029.17 540.007
1412 0 117.411 13.6018 1597 60.2793 1029.26 539.309
1413 0 120.52 13.1181 1581 60.4681 1029.26 538.091
1414 0 123.547 13.2823 1641 59.872 1029.22 536.792
1415 1 70.3026 10.9669 771 59.489 1029.44 562.309
1416 0 71.2346 12.0728 860 58.1384 1029.59 560.357
1417 0 74.1813 11.9572 887 57.7238 1030.23 559.621
1418 0 75.3562 12.2352 922 57.4696 1030.05 557.157
1419 0 77.1244 13.1995 1018 56.6523 1030.06 558.864
1420 0 79.1587 13.3782 1059 56.5382 1030.07 556.215
1421 0 83.2193 13.0258 1084 56.107 1030.08 555.118
1422 0 85.3356 14.2262 1214 55.2199 1030.04 554.663
1423 0 88.2821 13.2303 1168 56.5197 1029.91 551.886
1424 0 92.3199 13.2799 1226 56.2732 1029.75 550.839
1425 0 93.3923 12.667 1183 56.8977 1029.67 548.974
1426 0 93.3923 12.667 1183 159.474 1029.67 548.974
1427 0 100.448 13.7384 1380 55.7971 1029.52 546.15
1428 0 101.351 13.1622 1334 56.1184 1029.75 546.696
1429 0 108.342 14.4174 1562 54.3368 1029.5 542.446
1430 0 107.425 14.1308 1518 55.3241 1029.84 541.033
1431 0 112.438 13.6342 1533 54.9928 1029.96 539.564
1432 0 116.414 13.6753 1592 54.9334 1030.27 537.903
1433 0 120.446 13.9316 1678 54.4827 1029.96 537.512
1434 0 123.469 14.3518 1772 55.3696 1030.14 532.763
1435 0 123.469 14.368 1774 163.736 1030.15 532.826
1436 1 73.2777 11.5451 846 55.8073 1029.92 561.166
1437 0 74.3712 12.2225 909 54.8724 1030.07 560.199
1438 0 76.2215 12.385 944 55.2606 1029.56 558.781
1439 0 79.2955 12.4345 986 53.8489 1029.69 557.71
1440 0 81.3238 12.69 1032 53.219 1029.6 556.474
1441 0 83.2952 12.5217 1043 53.929 1029.57 555.673
1442 0 86.3437 12.1607 1050 54.2457 1029.67 553.145
1443 0 89.3876 12.4961 1117 53.6938 1028.92 552.868
1444 0 93.3681 13.495 1260 52.7952 1029.26 551.54
1445 0 96.254 12.706 1223 53.6664 1029.42 549.651
1446 0 98.4 12.6423 1244 53.8682 1029.81 547.622
1447 0 101.474 13.0476 1324 53.4766 1029.19 547.197
1448 0 105.522 13.8265 1459 52.7491 1029.51 544.279
1449 0 108.372 13.8135 1497 52.6025 1029.38 544.348
1450 0 110.339 13.2138 1458 53.4129 1028.79 542.988
1451 0 114.498 13.5984 1557 53.1175 1028.98 541.319
1452 0 118.305 14.2175 1682 52.5755 1028.35 539.492
1453 0 120.341 13.7692 1657 53.3923 1028.25 537.211
1454 0 120.341 13.7692 1657 168.281 1027.26 537.09
1455 1 68.1128 10.0275 683 54.5256 1028.81 566.234
1456 0 68.1128 10.0715 686 170.192 1030.8 566.246
1457 0 73.1579 11.5504 845 54.0911 1027.9 562.302
1458 0 75.1519 12.1221 911 52.5609 1027.02 560.098
1459 0 76.1893 11.7602 896 53.9475 1027.41 559.114
1460 0 80.22 13.2635 1064 52.8496 1026.99 555.987
1461 0 84.1924 13.0772 1101 52.7112 1026.4 555.846
1462 0 86.1516 13.4762 1161 52.3747 1026.6 555.089
1463 0 88.1778 12.7583 1125 53.7876 1026.53 553.497
1464 0 90.0775 12.3116 1109 54.5347 1026.51 551.106
1465 0 93.201 12.7037 1184 54.2905 1026.34 551.083
1466 0 98.2517 12.8955 1267 54.7056 1026.54 547.349
1467 0 101.2 12.4308 1258 55.1574 1026.36 548.855
1468 0 105.212 13.8672 1459 53.8101 1026.29 544.988
1469 0 108.266 13.5407 1466 54.5723 1026.06 546.496
1470 0 110.131 13.2115 1455 55.1182 1025.87 542.93
1471 0 114.262 12.7076 1452 55.6818 1025.73 541.196
1472 0 117.325 12.8617 1509 55.4785 1025.04 538.006
1473 1 64.0895 9.8456 631 55.7908 1024.84 565.721
1474 0 71.1027 11.7295 834 55.1403 1025.32 564.727
1475 0 73.1127 12.4465 910 55.2714 1024.7 561.54
1476 0 75.2284 12.1231 912 54.5362 1025.07 562.88
1477 0 77.2923 12.6921 981 53.4047 1025.46 562.891
1478 0 77.2923 12.6533 978 154.366 1024.48 562.848
1479 0 81.1681 12.7513 1035 53.8696 1024.83 557.913
1480 0 83.2155 12.3535 1028 54.4874 1024.74 559.225
1481 0 85.2024 12.5818 1072 54.9748 1024.3 557.044
1482 0 90.2054 12.8485 1159 54.7921 1024.59 555.861
1483 0 92.1437 13.0231 1200 55.2475 1024.98 553.184
1484 0 95.4201 13.3515 1274 54.9254 1024.61 551.069
1485 0 96.3745 13.0844 1261 56.1221 1024.12 548.938
1486 0 98.387 13.6197 1340 55.4679 1024.13 548.715
1487 0 101.373 13.1692 1335 56.8779 1024.06 545.419
1488 0 105.514 12.3396 1302 58.2826 1023.98 543.926
1489 1 57.1867 10.2821 588 58.1344 1023.54 569.638
1490 0 61.2254 10.7472 658 57.5456 1023.71 568.606
1491 0 62.2333 11.2159 698 57.3682 1023.84 567.006
1492 0 67.2903 12.3941 834 56.0755 1023.49 565.64
1493 0 67.0631 11.9142 799 57.3329 1024.92 565.95
1494 0 69.0968 12.4608 861 57.0465 1024.09 566.898
1495 0 72.1244 12.1041 873 57.8614 1024.52 565.029
1496 0 74.1127 13.3715 991 56.7265 1024.72 564.223
1497 0 74.135 13.0303 966 57.6418 1024.82 562.889
1498 0 76.1574 12.7499 971 59.8074 1025.13 562.333
1499 0 81.1357 12.9783 1053 58.8689 1024.96 561.076
1500 0 80.0653 12.9644 1038 60.2929 1025.85 560.28
1501 0 85.2841 13.8361 1180 59.3576 1025.7 558.382
1502 0 86.3886 13.7287 1186 60.0396 1026.28 559.39
1503 0 88.3299 13.4269 1186 61.5337 1026.62 556.043
1504 0 90.3936 13.4191 1213 62.1542 1026.1 555.029
1505 0 93.1886 13.7249 1279 61.9914 1026.39 555.337
1506 0 94.2086 13.3321 1256 63.711 1026.09 553.002
1507 0 98.1304 14.1852 1392 62.5532 1025.93 549.798
1508 0 103.445 13.9881 1447 62.3677 1026.21 549.334
1509 0 104.208 14.4902 1510 61.9788 1026.42 546.766
1510 0 107.264 14.3758 1542 62.9261 1026.61 546.92
1511 1 60.1368 11.7565 707 64.0269 1027.92 571.096
1512 0 61.1736 12.4073 759 64.1686 1028.01 571.213
1513 0 63.2352 12.414 785 64.5185 1028.11 569.85
1514 0 65.3322 13.7298 897 63.4091 1028.2 568.218
1515 0 68.1293 13.5184 921 63.8545 1028.22 565.562
1516 0 69.0908 12.6211 872 65.0378 1028.4 564.208
1517 0 70.0675 13.2301 927 64.8716 1028.52 562.847
1518 0 72.2103 13.8623 1001 63.985 1028.79 561.703
1519 0 74.0865 14.0511 1041 63.7445 1029.06 560.722
1520 0 78.2253 13.6912 1071 64.1783 1029.23 559.205
1521 0 80.1156 14.4042 1154 63.3397 1029.6 558.612
1522 0 83.1304 14.2306 1183 63.579 1029.83 557.048
1523 0 84.1359 14.2151 1196 64.1012 1029.91 554.365
1524 0 86.1093 13.4132 1155 65.2294 1030.14 555.057
1525 0 90.061 14.0016 1261 64.4068 1030.22 553.159
1526 0 90.0507 13.7034 1234 65.0105 1029.97 551.654
1527 0 94.2108 14.043 1323 63.9463 1030.57 549.578
1528 0 99.2116 14.5648 1445 62.6657 1030.74 549.92
1529 0 100.278 14.5894 1463 63.2522 1030.74 548.959
1530 0 103.116 14.1782 1462 63.4159 1030.95 546.822
1531 0 107.539 14.2646 1534 63.2966 1030.51 544.154
1532 0 111.171 13.7446 1528 64.5596 1030.51 541.841
1533 1 63.1001 11.3154 714 63.5154 1030.15 566.731
1534 0 63.087 11.2702 711 63.4754 1029.7 565.242
1535 0 63.091 12.4107 783 63.2324 1030.17 564.927
1536 0 66.1021 12.4202 821 62.6663 1030.09 562.132
1537 0 69.039 12.2829 848 62.9375 1029.2 563.511
1538 0 71.1098 12.2768 873 63.1776 1029.07 562.227
1539 0 74.1293 12.775 947 62.0095 1029.41 560.066
1540 0 76.0902 12.6297 961 61.9886 1029.26 558.658
1541 0 78.0647 12.7074 992 61.7812 1029.06 556.654
1542 0 79.0771 13.0379 1031 61.2609 1029.41 555.827
1543 0 83.1969 13.4861 1122 60.0045 1029.56 556.029
1544 0 86.1372 13.0722 1126 60.6066 1029.68 554.487
1545 0 88.266 13.1987 1165 60.2755 1030.14 554.003
1546 0 91.1536 13.4718 1228 59.9821 1030.16 551.207
1547 0 93.1338 13.5826 1265 60.3771 1029.95 549.135
1548 0 96.3294 13.4123 1292 60.363 1029.82 550.159
1549 0 101.171 13.8083 1397 59.5734 1029.72 547.593
1550 0 105.17 14.158 1489 58.9087 1029.27 546.175
1551 0 107.169 13.642 1462 60.0239 1029.66 543.218
1552 0 110.278 14.2277 1569 59.2052 1028.99 544.224
1553 1 60.0509 10.7575 646 60.9443 1028.58 567.04
1554 0 65.0538 11.7441 764 59.7264 1028.31 566.215
1555 0 64.1666 11.8753 762 60.3898 1028.58 566.173
1556 0 69.208 13.0043 900 59.0944 1029.01 566.173
1557 0 70.2312 12.8575 903 59.7929 1028.5 564.016
1558 0 73.2702 14.0575 1030 57.8184 1029.38 564.335
1559 0 73.1933 12.6788 928 60.8136 1028.91 563.175
1560 0 79.1694 13.1995 1045 59.6182 1028.69 560.427
1561 0 81.1089 13.488 1094 59.2669 1028.6 560.538
1562 0 82.2763 13.7342 1130 59.4133 1029.08 558.782
1563 0 84.1156 13.4933 1135 60.1445 1029.11 556.226
1564 0 87.3344 13.2594 1158 60.8066 1028.78 556.352
1565 0 90.251 13.1965 1191 61.0705 1028.26 554.116
1566 0 90.251 13.1965 1191 171.282 1028.26 554.116
1567 0 95.2799 12.8569 1225 62.489 1028.38 551.848
1568 0 100.269 13.6233 1366 61.1669 1028.24 549.322
1569 0 103.309 13.571 1402 61.6013 1028.1 547.586
1570 0 105.225 13.5994 1431 61.3312 1028.09 547.405
1571 0 108.45 13.7299 1489 61.3895 1027.63 545.691
1572 0 111.4 14.0484 1565 61.0051 1027.82 543.773
1573 0 117.24 14.3295 1680 60.8816 1027.44 541.451
1574 0 119.24 13.8041 1646 61.565 1027.47 540.02
1575 0 124.248 13.0948 1627 62.3122 1027.27 535.786
1576 0 127.243 13.3681 1701 61.6167 1027.29 534.517
1577 1 71.2007 10.7724 767 60.9804 1027.39 563.289
1578 0 72.1082 11.1499 804 60.8769 1026.95 562.777
1579 0 76.2671 12.7578 973 59.6619 1026.79 561.67
1580 0 79.2512 12.3657 980 60.401 1026.64 562.524
1581 0 79.2661 12.6157 1000 60.529 1026.22 560.984
1582 0 82.2035 12.615 1037 60.6721 1026.67 560.373
1583 0 87.1182 13.1201 1143 59.5389 1025.59 557.885
1584 0 88.1731 13.2013 1164 60.1624 1025.65 556.784
1585 0 91.14 12.4753 1137 60.9982 1025.73 554.292
1586 0 95.2194 12.97 1235 60.6089 1025.74 552.846
1587 0 97.165 12.4942 1214 61.3386 1025.54 551.326
1588 0 100.235 12.9296 1296 61.3526 1025.2 547.971
1589 0 104.268 12.2568 1278 61.9155 1024.88 547.466
1590 0 105.434 13.0887 1380 61.4014 1025.19 545.356
1591 0 109.288 13.2037 1443 61.3091 1025.63 543.118
1592 0 111.352 12.7793 1423 62.1497 1025.29 541.939
1593 0 116.293 13.1134 1525 61.64 1025.31 540.58
1594 1 63.1792 9.97164 630 61.4571 1025.17 566.246
1595 0 69.1339 11.7742 814 58.6167 1024.38 566.295
1596 0 70.119 12.6927 890 59.3674 1026.03 564.462
1597 0 74.2148 13.0567 969 58.9195 1025.45 564.387
1598 0 75.1573 13.0127 978 59.317 1025.29 564.636
1599 0 74.154 12.3257 914 61.8392 1025.28 562.226
1600 0 78.1647 13.318 1041 59.757 1025.74 561.854
1601 0 83.0969 13.394 1113 59.5391 1025.6 560.526
1602 0 84.1156 13.1723 1108 60.1534 1026.59 556.81
1603 0 88.1875 13.46 1187 59.4752 1027.2 556.265
1604 0 89.1021 13.4228 1196 59.9724 1026.84 554.999
1605 0 92.2007 13.3622 1232 60.2719 1027.25 551.257
1606 0 94.1556 13.4564 1267 60.1105 1026.99 550.84
1607 0 97.1747 13.4603 1308 60.4098 1027.24 548.539
1608 0 100.189 12.9455 1297 61.2151 1027.28 548.887
1609 0 103.264 12.7247 1314 61.5213 1028.03 547.457
1610 0 106.342 13.5883 1445 60.6893 1028.51 544.212
1611 0 111.322 13.3756 1489 60.8885 1028.57 542.295
1612 1 61.2713 10.2821 630 61.9254 1029.04 567.129
1613 0 64.2303 10.7737 692 61.1546 1029.03 567.186
1614 0 67.2078 11.4719 771 60.3852 1028.8 564.291
1615 0 69.0785 12.9708 896 58.6027 1029.56 564.277
1616 0 70.1768 12.4115 871 59.4409 1028.85 563.758
1617 0 70.1389 12.8317 900 60.1189 1029.53 562.336
1618 0 73.1267 12.5809 920 60.3359 1029.97 560.921
1619 0 75.1466 12.0431 905 60.7127 1030.31 560.611
1620 0 78.2472 12.9589 1014 59.4576 1030.46 558.792
1621 0 79.1774 12.8572 1018 60.5216 1030.77 557.094
1622 0 81.1827 12.5766 1021 60.5749 1030.89 555.945
1623 0 85.1163 12.8883 1097 59.9207 1030.82 553.085
1624 0 87.116 13.2237 1152 59.3568 1030.63 552.393
1625 0 89.1538 11.8335 1055 61.2104 1030.58 550.518
1626 0 93.0839 12.4511 1159 59.1846 1030.47 548.983
1627 0 96.1558 12.1885 1172 59.9829 1030.72 545.449
1628 0 99.2196 13.1526 1305 58.7502 1031.37 545.37
1629 0 102.209 12.8462 1313 59.5446 1031.95 544.137
1630 0 108.136 13.8159 1494 58.4183 1031.61 540.52
1631 0 110.106 13.1601 1449 60.265 1031.54 540.851
1632 0 113.185 13.3852 1515 59.9518 1031.37 537.459
1633 0 116.255 13.5736 1578 59.6065 1031.11 534.641
1634 0 122.306 13.8423 1693 58.6763 1031.57 532.262
1635 1 71.0844 11.3949 810 58.221 1032.05 560.179
1636 0 73.1381 10.8425 793 58.6759 1031.72 560.748
1637 0 74.0495 11.2492 833 59.0312 1032.26 558.927
1638 0 76.1126 12.5998 959 57.9687 1029.61 554.885
1639 0 78.0905 12.3318 963 57.7965 1030.25 553.819
1640 0 81.2021 12.6844 1030 57.5903 1031.32 553.803
1641 0 83.1874 12.4177 1033 56.5344 1031.19 554.511
1642 0 86.094 12.9742 1117 56.3984 1030.96 551.924
1643 0 89.1462 12.9899 1158 56.3662 1030.92 551.966
1644 0 90.1269 12.3493 1113 57.1186 1031.02 549.059
1645 0 92.1948 13.1135 1209 57.3929 1030.89 548.538
1646 0 96.2725 12.3192 1186 57.8592 1030.4 545.315
1647 0 101.189 12.6595 1281 57.7767 1030.68 544.557
1648 0 104.305 13.2592 1383 57.0043 1030.63 543.276
1649 0 107.212 13.2168 1417 57.8405 1030.22 540.718
1650 0 110.185 13.4864 1486 57.6851 1030.02 538.382
1651 0 113.353 13.3124 1509 57.937 1030.02 539.525
1652 0 117.196 13.2513 1553 58.3426 1029.81 535.163
1653 0 120.296 13.0178 1566 58.6054 1029.82 534.603
1654 0 125.312 14.2364 1784 56.8038 1030.09 532.254
1655 0 126.332 13.5041 1706 58.4877 1029.84 529.845
1656 0 132.244 13.4448 1778 57.8735 1029.52 528.044
1657 0 136.279 13.465 1835 57.9444 1029.64 525.753
1658 1 75.1534 10.2191 768 56.5221 1029.27 559.221
1659 0 79.1259 11.2732 892 56.2366 1028.95 556.457
1660 0 80.17 11.0515 886 56.0282 1029.19 556.393
1661 0 83.2918 12.4862 1040 55.2913 1029.04 552.297
1662 0 86.249 11.49 991 57.887 1029.22 553.187
1663 0 88.4376 12.5286 1108 56.8285 1029.23 550.768
1664 0 92.2558 12.0751 1114 57.5772 1029.23 551.589
1665 0 94.445 12.8435 1213 57.0651 1028.9 548.86
1666 0 97.3004 11.8807 1156 57.6765 1028.83 548.561
1667 0 102.205 12.6902 1297 55.7001 1028.64 545.756
1668 0 104.299 12.4834 1302 56.5154 1028.56 544.583
1669 0 108.348 13.0137 1410 54.9752 1028.18 543.527
1670 0 111.641 13.4538 1502 54.1931 1028.12 542.114
1671 0 112.407 12.1167 1362 56.3282 1028.04 540.23
1672 0 116.361 12.3667 1439 56.089 1027.71 536.637
1673 0 121.321 12.6853 1539 55.4847 1027.38 534.717
1674 1 68.2299 11.0802 756 54.6336 1027.96 563.148
1675 0 69.2422 10.4849 726 55.8416 1027.49 562.351
1676 0 73.1901 11.9552 875 54.2526 1027.67 562.039
1677 0 76.1681 12.4462 948 55.597 1027.8 560.608
1678 0 77.2339 12.0284 929 55.6566 1027.27 560.778
1679 0 79.3003 12.6607 1004 55.2241 1027.01 557.971
1680 0 80.1502 12.3268 988 56.9241 1027.12 557.55
1681 0 84.3471 12.2352 1032 57.3062 1027.08 557.544
1682 0 87.2403 13.1017 1143 56.3342 1027.28 555.867
1683 0 88.3316 13.0191 1150 56.1513 1026.79 553.777
1684 0 90.2482 12.1 1092 55.6914 1026.7 550.96
1685 0 90.2482 12.1 1092 157.073 1025.7 550.96
1686 0 96.2699 12.7558 1228 54.8909 1026.07 549.953
1687 0 100.384 12.8307 1288 55.1405 1025.77 548.613
1688 0 100.356 13.0734 1312 55.4695 1025.91 544.16
1689 0 103.282 12.9064 1333 56.2806 1026.03 545.884
1690 0 106.317 12.7073 1351 56.5581 1025.76 542.317
1691 0 111.593 13.1012 1462 56.1135 1025.81 541.51
1692 0 113.296 13.2662 1503 56.5396 1025.03 539.767
1693 0 117.463 13.4425 1579 56.449 1024.55 539.846
1694 0 121.327 14.498 1759 55.0864 1025.09 534.822
1695 0 123.479 12.1154 1496 58.0341 1024.93 536.635
1696 1 73.2324 10.3506 758 56.8681 1024.33 562.732
1697 0 72.2902 10.2227 739 57.4614 1024.15 561.346
1698 0 74.2776 11.6455 865 55.2486 1024.33 560.834
1699 0 74.1673 11.9864 889 54.5602 1024.44 563.028
1700 0 78.0941 11.8575 926 55.757 1025.12 561.093
1701 0 81.2689 12.7847 1039 54.9596 1023.03 557.108
1702 0 83.3061 12.8082 1067 55.283 1023.48 556.12
1703 0 86.1854 13.1345 1132 55.1387 1023.38 555.811
1704 0 88.1339 13.0483 1150 55.4756 1023.37 555.694
1705 0 92.1846 13.4947 1244 55.2982 1023.53 552.805
1706 0 93.2264 12.3463 1151 56.7324 1023.29 550.831
1707 0 96.1502 12.7197 1223 56.0989 1023.87 550.706
1708 0 100.156 12.9098 1293 55.9783 1023.9 546.913
1709 0 100.156 12.9098 1293 152.422 1023.9 546.913
1710 0 107.093 14.0065 1500 54.4587 1023.8 546.123
1711 0 107.141 12.2923 1317 56.7449 1024.29 543.076
1712 0 113.163 14.0859 1594 54.5383 1024.07 542.452
1713 1 63.0706 11.0987 700 55.8486 1023.84 567.734
1714 0 65.021 9.91987 645 57.631 1023.96 567.552
1715 0 66.2073 11.0864 734 56.3338 1023.81 566.396
1716 0 70.1368 12.6467 887 53.7125 1024.83 565.442
1717 0 72.0969 12.6219 910 53.8857 1025.04 561.438
1718 0 73.1509 12.0573 882 53.3299 1024.86 558.66
1719 0 78.3565 13.1706 1032 51.8169 1024.9 558.361
1720 0 78.1559 12.5134 978 53.0296 1025.38 556.964
1721 0 81.1617 12.3211 1000 53.285 1024.99 555.141
1722 0 83.1882 12.6941 1056 53.1354 1025.14 553.552
1723 0 86.2178 12.6192 1088 53.5092 1025.15 552.243
1724 0 87.3592 12.2139 1067 54.2287 1025.18 549.985
1725 0 90.1901 12.8395 1158 53.7021 1025.29 549.771
1726 0 94.2484 13.0082 1226 53.3344 1024.88 548.152
1727 0 96.1568 12.1884 1172 54.1869 1025.08 546.474
1728 0 100.26 13.1658 1320 52.7773 1025.2 546.445
1729 0 103.148 13.1946 1361 52.2373 1025.26 543.456
1730 0 105.132 13.0217 1369 52.4923 1026.5 542.478
1731 0 108.274 13.1519 1424 52.0147 1026.79 541.593
1732 0 111.282 13.1558 1464 52.2193 1027.12 540.457
1733 1 61.2386 9.99369 612 51.4869 1027.87 567.933
1734 0 65.1234 10.8102 704 52.0199 1028.18 565.53
1735 0 65.2325 11.1754 729 52.144 1028.17 563.709
1736 0 68.1575 11.4734 782 51.7558 1028.87 545.214
1737 0 72.132 12.5187 903 50.5227 1029.24 545.165
1738 0 72.0639 12.933 932 50.6953 1029.59 545.511
1739 0 75.089 13.0512 980 50.6908 1029.84 546.617
1740 0 77.1239 12.2271 943 51.6246 1030.09 547.578
1741 0 78.0962 11.5242 900 52.3378 1030.54 548.919
1742 0 81.1211 12.5368 1017 51.0256 1030.61 546.221
1743 0 83.0645 12.6769 1053 50.5432 1030.91 551.638
1744 0 86.1614 12.5114 1078 51.1911 1031.26 552.06
1745 0 88.2592 13.551 1196 50.7274 1030.54 552.798
1746 0 89.2415 12.8752 1149 51.5065 1031.31 550.676
1747 0 93.1675 14.2217 1325 49.9125 1031.81 550.559
1748 0 96.2196 12.9288 1244 51.381 1031.45 547.986
1749 0 99.2185 13.5055 1340 50.8649 1031.37 546.66
1750 0 102.243 14.3383 1466 50.1678 1031.24 543.554
1751 0 105.238 13.7593 1448 50.3446 1031.18 541.268
1752 0 105.228 13.4185 1412 50.5758 1030.99 540.225
1753 0 109.394 13.9678 1528 50.0687 1031.34 537.946
1754 0 113.327 14.0832 1596 50.1548 1030.79 536.144
1755 0 117.232 12.7695 1497 51.3788 1031.08 535.474
1756 0 117.232 12.7866 1499 154.195 1031.09 535.443
1757 1 66.1136 11.5559 764 50.8259 1031.85 555.666
1758 0 69.2452 12.7085 880 49.4807 1031.89 557.266
1759 0 70.0718 12.3017 862 49.7599 1032.16 561.343
1760 0 73.1658 12.3145 901 49.616 1032 558.041
1761 0 74.0292 12.7787 946 49.3594 1031.56 557.43
1762 0 76.0811 12.8679 979 49.5036 1031.66 555.826
1763 0 79.0861 12.7709 1010 49.7762 1031.37 555.444
1764 0 79.0925 12.6687 1002 50.3733 1031.2 552.951
1765 0 84.1953 13.3499 1124 50.3932 1031.12 551.899
1766 0 84.1953 13.3737 1126 141.812 1031.1 551.925
1767 0 89.0812 13.7066 1221 50.9885 1031.3 551.415
1768 0 92.283 13.5886 1254 51.1683 1030.96 548.189
1769 0 96.2556 14.0252 1350 51.177 1029.77 546.854
1770 0 100.193 13.9431 1397 51.2534 1029.58 547.588
1771 0 102.231 13.3716 1367 52.3153 1029.4 544.05
1772 0 105.399 13.4536 1418 53.201 1029.41 542.941
1773 0 108.164 14.099 1525 52.8105 1029.39 541.462
1774 0 110.225 13.173 1452 54.4167 1028.87 540.683
1775 0 115.329 14.4544 1667 53.4097 1028.91 539.564
1776 0 119.28 14.3444 1711 53.5517 1028.98 537.034
1777 0 122.506 15.2808 1872 52.4824 1029.16 536.402
1778 0 123.074 14.4547 1779 53.6318 1028.96 536.328
1779 0 127.306 15.3488 1954 53.0517 1028.83 531.034
1780 0 130.34 14.6847 1914 54.2717 1029.09 530.364
1781 0 135.166 13.9902 1891 55.3025 1029.1 528.954
1782 0 140.336 14.6221 2052 54.4396 1028.61 527.826
1783 0 144.311 15.0577 2173 54.3231 1028.41 522.665
1784 0 149.452 15.0349 2247 53.8487 1027.87 525.644
1785 1 84.122 11.2575 947 55.5174 1027.91 556.699
1786 0 87.1405 11.9692 1043 54.3873 1028.16 555.949
1787 0 89.248 12.0339 1074 55.121 1027.69 554.285
1788 0 94.115 13.3029 1252 53.8115 1027.04 551.507
1789 0 97.2384 12.9373 1258 54.434 1027.47 550.195
1790 0 97.2384 12.9681 1261 165.303 1027.49 550.136
1791 0 101.225 13.0205 1318 55.3042 1027.47 545.579
1792 0 106.233 13.555 1440 54.5007 1027.07 544.646
1793 0 110.327 13.0431 1439 55.3634 1027.25 542.112
1794 0 112.181 13.2287 1484 55.2736 1026.99 542.209
1795 0 118.223 13.6437 1613 54.3137 1027.41 540.212
1796 0 122.279 14.0253 1715 53.8752 1026.95 539.728
1797 0 125.289 13.9997 1754 54.1049 1027.05 538.409
1798 0 127.254 13.8149 1758 54.6081 1026.41 536.545
1799 0 132.258 14.0407 1857 54.5417 1026.62 533.149
1800 0 137.342 13.5793 1865 54.8702 1027.06 528.391
1801 0 142.28 13.9724 1988 54.4059 1026.99 527.142
1802 0 149.563 13.506 2020 55.0599 1026.78 524.951
1803 0 152.687 13.8322 2112 55.3063 1026.41 522.896
1804 1 85.2706 11.4694 978 54.4315 1025.95 557.606
1805 0 88.1752 12.5886 1110 53.3658 1026.1 558.041
1806 0 89.248 13.0647 1166 53.4528 1026.19 555.33
1807 0 92.2238 12.4914 1152 54.6033 1026.27 552.201
1808 0 97.1864 13.294 1292 53.4745 1026.58 552.629
1809 0 101.282 13.7438 1392 53.0388 1026.42 548.728
1810 0 103.334 13.0742 1351 53.7165 1026.3 548.844
1811 0 105.175 13.3397 1403 54.0563 1025.74 545.616
1812 0 109.239 13.1546 1437 53.6604 1026.3 545.283
1813 0 114.463 13.6987 1568 52.8999 1025.98 543.35
1814 0 115.291 12.9585 1494 54.5382 1025.94 540.347
1815 0 119.358 14.201 1695 53.0478 1026.42 539.036
1816 0 123.708 13.6936 1694 53.9368 1026.34 532.275
1817 0 127.373 13.276 1691 54.2206 1026.6 531.873
1818 0 130.439 13.4776 1758 54.0267 1026.28 531.617
1819 0 132.392 13.1427 1740 54.542 1026.41 526.447
1820 1 77.2889 11.5929 896 52.1741 1026.08 561.007
1821 0 78.2883 11.6748 914 53.6915 1026.29 555.729
1822 0 82.3208 12.7914 1053 52.2441 1026.3 556.325
1823 0 83.3231 12.9256 1077 52.7521 1026.52 553.242
1824 0 83.2875 12.8231 1068 54.1255 1026.66 553.127
1825 0 89.3696 14.5128 1297 51.8836 1026.72 552.426
1826 0 89.5005 13.2848 1189 53.8158 1026.96 550.039
1827 0 95.4585 13.7861 1316 52.6216 1027 549.179
1828 0 94.2076 13.5552 1277 53.8951 1027.69 546.356
1829 0 99.4497 14.168 1409 52.6324 1027.41 544.074
1830 0 102.51 14.2035 1456 52.8152 1027.49 543.879
1831 0 104.546 14.1182 1476 53.2744 1027.49 542.18
1832 0 109.541 13.5749 1487 53.5629 1027.44 540.57
1833 0 109.279 13.6531 1492 54.5228 1027.75 537.86
1834 0 114.355 13.7379 1571 53.9484 1027.83 538.617
1835 0 118.254 14.1982 1679 53.8219 1028.02 536.647
1836 0 120.445 13.9068 1675 54.3606 1028.23 535.177
1837 0 122.421 14.8586 1819 54.149 1028.58 532.245
1838 0 126.265 13.8043 1743 55.0218 1028.71 530.28
1839 0 131.391 14.3921 1891 54.4188 1028.87 528.441
1840 1 72.2893 11.3433 820 55.8902 1028.95 558.678
1841 0 74.0646 11.868 879 55.4903 1028.98 556.862
1842 0 77.2239 12.4702 963 54.7996 1029.48 556.703
1843 0 78.2196 13.0913 1024 54.3398 1029.11 556.478
1844 0 80.2973 13.4251 1078 54.4443 1029.95 551.66
1845 0 83.151 14.179 1179 53.5937 1030.16 552.455
1846 0 86.3848 13.5093 1167 54.5236 1030.01 551.29
1847 0 87.1026 13.3635 1164 55.3565 1029.83 548.05
1848 0 91.4126 12.8647 1176 55.5646 1029.72 547.884
1849 0 94.545 13.1472 1243 55.3846 1030.37 544.475
1850 0 98.2812 14.6315 1438 53.9186 1030.3 542.719
1851 0 101.396 13.8072 1400 54.9579 1030.3 541.499
1852 0 105.354 14.5604 1534 54.1232 1030.29 540.686
1853 0 107.517 13.7746 1481 54.1762 1030.11 538.361
1854 0 109.375 13.2937 1454 54.6974 1030.01 536.402
1855 0 115.305 14.2491 1643 53.7255 1030.33 533.682
1856 0 120.498 14.6227 1762 52.811 1030.31 534.439
1857 1 67.3794 11.6059 782 54.8376 1029.6 559.881
1858 0 67.4789 11.5888 782 54.9655 1029.61 557.184
1859 0 73.5729 12.8036 942 53.0945 1029.69 557.022
1860 0 74.2736 12.3193 915 53.8885 1029.96 556.256
1861 0 76.2143 13.7245 1046 53.1491 1030.21 554.353
1862 0 79.4438 13.0658 1038 53.7023 1030.08 554.341
1863 0 80.24 13.4222 1077 53.753 1030.21 552.391
1864 0 82.4821 13.8939 1146 53.6012 1029.45 550.487
1865 0 85.4298 14.2573 1218 53.3768 1029.76 549.941
1866 0 89.4076 14.1487 1265 53.581 1029.67 547.005
1867 0 92.5739 13.3515 1236 54.5227 1029.81 547.226
1868 0 95.589 13.6208 1302 54.4539 1029.85 543.1
1869 0 97.7572 13.4824 1318 54.9355 1029.95 541.725
1870 0 101.287 14.0493 1423 53.5172 1029.89 540.634
1871 0 106.654 14.3173 1527 53.0799 1029.9 540.489
1872 0 107.585 13.5521 1458 54.428 1028.98 536.134
1873 0 110.74 14.1863 1571 53.5054 1028.61 537.323
1874 0 110.74 14.1412 1566 167.373 1027.62 537.358
1875 0 118.956 14.4003 1713 52.7817 1028.67 534
1876 1 64.2703 12.5408 806 53.6017 1028.54 561.438
1877 0 67.7484 12.1184 821 53.2412 1028.68 561.309
1878 0 69.281 12.0379 834 54.0875 1028.07 560.39
1879 0 72.6972 13.2605 964 52.6598 1028.11 558.961
1880 0 73.5748 12.7489 938 54.0416 1027.7 557.989
1881 0 74.3474 13.0334 969 54.4314 1027.95 556.989
1882 0 78.4398 14.3677 1127 52.8767 1027.68 554.796
1883 0 82.4259 13.8063 1138 53.1248 1027.79 555.642
1884 0 84.3462 13.6699 1153 54.1743 1027.78 553.923
1885 0 86.5924 13.6617 1183 54.5444 1027.6 553.471
1886 0 90.3138 13.3424 1205 55.0531 1027.48 551.395
1887 0 93.4058 13.3825 1250 55.1 1027.35 549.533
1888 0 94.5425 13.835 1308 55.789 1027.29 548.817
1889 0 98.5297 13.7725 1357 55.9934 1026.9 547.766
1890 0 102.507 13.6869 1403 56.0763 1027.45 548.36
1891 0 106.364 14.2154 1512 55.8208 1027.41 543.663
1892 0 106.545 13.9753 1489 56.4097 1027.23 543.135
1893 0 112.553 13.5758 1528 56.8429 1026.92 541.814
1894 1 61.2536 11.9503 732 56.2828 1027.17 567.402
1895 0 63.2787 12.279 777 55.6152 1027.19 566.597
1896 0 66.4124 12.6482 840 55.6345 1027.27 564.923
1897 0 70.1918 13.05 916 55.0852 1027.31 563.809
1898 0 70.3391 13.3781 941 55.4973 1027.3 562.763
1899 0 73.1836 14.2928 1046 54.0583 1027.22 562.695
1900 0 74.2922 13.2854 987 55.6717 1026.47 561.755
1901 0 76.248 13.5741 1035 55.5845 1026.26 560.682
1902 0 79.1548 13.1514 1041 56.1393 1026.15 559.531
1903 0 80.3119 13.3604 1073 56.398 1025.88 559.457
1904 0 82.1786 13.5558 1114 56.3609 1025.6 559.855
1905 0 86.2399 13.5784 1171 56.5508 1025.6 556.535
1906 0 87.2229 13.4483 1173 57.0546 1025.46 555.571
1907 0 89.2028 12.7687 1139 57.9561 1025.65 554.539
1908 0 92.2031 13.4377 1239 57.858 1025.67 553.427
1909 0 96.2746 14.147 1362 57.1263 1025.21 553.127
1910 0 97.1592 13.4933 1311 58.5995 1025.01 551.182
1911 0 100.116 13.6342 1365 58.5949 1025 550.19
1912 0 103.256 13.239 1367 59.6657 1024.83 548.629
1913 0 108.284 14.6097 1582 57.7484 1025.17 549.735
1914 0 108.194 13.7346 1486 59.6602 1024.63 547.347
1915 0 110.101 13.4785 1484 60.8659 1024.48 544.257
1916 1 68.0741 11.37 774 59.2804 1024.57 568.319
1917 0 69.1164 10.6632 737 59.6323 1024.42 568.141
1918 0 69.1568 12.0885 836 60.6447 1024.1 564.671
1919 0 72.0959 11.9008 858 60.4674 1024.54 563.373
1920 0 73.0559 12.7437 931 59.6982 1024.87 562.795
1921 0 76.1619 12.5391 955 60.4576 1023.84 562.186
1922 0 78.1144 12.7889 999 60.7868 1023.26 559.652
1923 0 78.0995 12.881 1006 61.5696 1023.16 559.207
1924 0 81.1499 12.5324 1017 62.0905 1023.52 556.557
1925 0 85.194 14.0033 1193 60.2087 1023.35 558.064
1926 0 87.3047 13.0119 1136 61.779 1022.93 557.284
1927 0 89.2213 12.4858 1114 63.1373 1023.04 554.609
1928 0 93.1445 13.055 1216 63.1809 1023.36 553.8
1929 0 94.232 12.4905 1177 63.9592 1023.41 551.387
1930 0 95.1666 12.8406 1222 64.1596 1023.81 551.567
1931 0 100.342 13.2447 1329 63.8412 1023.99 548.197
1932 0 103.213 12.9054 1332 64.1359 1023.58 548.715
1933 1 61.3182 10.6167 651 62.7281 1023.59 569.591
1934 0 63.0451 10.3894 655 62.3771 1023.94 571.107
1935 0 64.0604 11.4111 731 62.907 1024.2 570.077
1936 0 66.1656 12.3327 816 63.2561 1025.12 566.913
1937 0 70.205 12.435 873 62.4353 1025.29 567.607
1938 0 69.0688 12.0604 833 63.467 1024.52 567.065
1939 0 71.158 12.2404 871 63.5408 1024.89 565.954
1940 0 73.0466 12.362 903 63.9336 1024.1 562.493
1941 0 75.152 12.2951 924 63.9383 1024.24 562.566
1942 0 77.1454 13.1959 1018 62.9332 1024 560.084
1943 0 79.2181 12.5981 998 63.7525 1023.97 559.768
1944 0 83.2239 13.1813 1097 60.949 1024.63 557.828
1945 0 84.1898 12.6975 1069 61.9897 1024.68 556.718
1946 0 88.1779 13.4614 1187 61.2174 1024.8 554.632
1947 0 91.258 13.7741 1257 60.4216 1024.81 553.554
1948 0 92.1877 13.581 1252 60.643 1024.47 551.997
1949 0 96.1414 13.8234 1329 60.0715 1024.7 550.556
1950 0 98.2447 13.2832 1305 61.118 1024.53 549.037
1951 0 101.193 14.2697 1444 60.3109 1025.24 547.171
1952 0 106.335 13.6549 1452 60.7652 1025.17 546.932
1953 0 108.279 14.0194 1518 60.8801 1025.19 543.818
1954 0 111.274 13.5431 1507 61.0883 1025.32 544.131
1955 0 115.084 13.8073 1589 60.5009 1025.35 540.753
1956 1 67.0937 10.299 691 61.5745 1025.45 564.025
1957 0 70.0633 10.1337 710 60.7211 1025.37 565.577
1958 0 71.1119 11.7983 839 59.3492 1025.72 564.984
1959 0 75.1888 13.1802 991 57.6014 1026.58 562.4
1960 0 75.1416 12.2436 920 59.112 1026.48 561.622
1961 0 79.1605 12.8473 1017 58.7001 1026.66 559.817
1962 0 82.1965 13.2122 1086 57.4761 1027.07 560.336
1963 0 83.1064 12.9112 1073 58.3849 1027.5 558.176
1964 0 86.4348 13.4668 1164 58.0455 1027.25 555.971
1965 0 88.2231 13.3639 1179 57.8372 1027.17 555.727
1966 0 90.32 13.0093 1175 58.3838 1027.72 553.916
1967 0 94.3538 13.2374 1249 58.3747 1028.39 551.673
1968 0 97.2646 13.4993 1313 57.8241 1028.8 549.563
1969 0 101.253 13.9452 1412 57.3003 1029.19 547.751
1970 0 103.32 13.676 1413 58.2328 1029.25 546.754
1971 0 106.491 13.4659 1434 58.9826 1029.52 546.01
1972 0 108.389 13.673 1482 59.3144 1029.63 543.41
1973 0 111.521 14.0422 1566 58.5313 1029.76 541.792
1974 0 113.371 14.0777 1596 59.2719 1030.39 540.366
1975 0 118.411 14.475 1714 58.2836 1030.58 536.612
1976 0 122.465 14.3715 1760 58.3909 1030.95 537.82
1977 0 126.208 14.278 1802 58.2963 1031.22 536.648
1978 0 127.252 14.3573 1827 58.8867 1031.18 531.992
1979 0 131.274 13.9251 1828 58.9688 1030.96 531.48
1980 0 136.305 14.5776 1987 58.4197 1030.76 527.895
1981 0 138.423 14.0873 1950 59.2938 1030.98 527.053
1982 0 144.218 14.6237 2109 58.5372 1031.26 523.811
1983 1 88.174 11.7041 1032 58.9244 1031.66 553.952
1984 0 90.0921 12.0987 1090 58.3908 1031.62 552.294
1985 0 93.112 13.5428 1261 57.4853 1031.68 549.942
1986 0 97.2261 13.4738 1310 57.2649 1031.77 546.309
1987 0 97.053 13.1372 1275 58.6674 1030.89 545.234
1988 0 100.2 12.4751 1250 59.2712 1031.16 545.396
1989 0 104.201 13.0229 1357 58.3935 1030.99 543.575
1990 0 108.124 13.6972 1481 57.5901 1031.08 540.211
1991 0 111.198 13.6603 1519 57.5892 1030.94 540.434
1992 0 116.226 13.5426 1574 57.2065 1030.79 538.191
1993 0 118.077 13.7283 1621 57.6983 1030.31 535.789
1994 0 122.227 13.4831 1648 57.986 1030.28 533.725
1995 0 124.238 13.1361 1632 58.2819 1029.91 532.604
1996 0 130.437 14.3977 1878 56.9095 1029.78 530.407
1997 0 132.862 13.2694 1763 58.0533 1029.4 528.613
1998 1 79.2403 11.5472 915 57.4361 1029.22 554.991
1999 0 80.1999 11.6459 934 57.1777 1029.54 556.338
2000 0 82.2698 12.2888 1011 56.9852 1029.06 553.68
2001 0 87.308 13.1489 1148 54.9948 1028.9 553.834
2002 0 87.3359 12.9729 1133 56.1192 1028.49 548.426
2003 0 90.3183 12.8435 1160 55.775 1028.31 549.054
2004 0 95.4237 13.3195 1271 55.7954 1028.44 548.943
2005 0 95.216 12.8235 1221 57.3989 1028.07 545.866
2006 0 100.187 13.2253 1325 56.6279 1027.76 544.631
2007 0 103.387 13.3382 1379 56.5105 1027.94 541.867
2008 0 106.107 12.7795 1356 57.0715 1027.33 541.687
2009 0 110.222 13.3549 1472 56.1447 1027.51 541.404
2010 0 111.245 13.3039 1480 56.8034 1027.43 538.112
2011 0 116.225 13.2243 1537 56.3748 1027.23 536.225
2012 0 118.199 12.8682 1521 56.9816 1026.98 533.609
2013 0 124.19 13.0687 1623 56.1719 1027.26 533.007
2014 0 125.181 13.3966 1677 56.4013 1027.19 531.128
2015 0 131.303 13.229 1737 56.2418 1026.89 529.249
2016 1 80.108 10.7979 865 54.4254 1026.62 559.504
2017 0 80.108 10.8354 868 154.243 1025.62 559.377
2018 0 80.1555 11.7147 939 54.6539 1026.37 554.962
2019 0 83.2371 12.2181 1017 54.0492 1026.75 554.071
2020 0 85.2989 12.0517 1028 54.0029 1027.01 552.836
2021 0 86.364 12.3431 1066 53.7045 1027.03 553.006
2022 0 90.4498 12.3715 1119 54.0626 1026.64 550.952
2023 0 94.3105 13.0738 1233 53.3293 1026.72 549.681
2024 0 94.4065 12.1602 1148 54.7892 1026.46 547.562
2025 0 99.3033 13.5444 1345 52.8394 1026.51 546.11
2026 0 102.336 13.309 1362 53.7959 1025.88 545.364
2027 0 102.336 13.3384 1365 154.07 1024.9 545.342
2028 0 107.386 12.4784 1340 54.7493 1025.62 544.357
2029 0 110.579 13.7458 1520 53.2303 1025.72 541.905
2030 0 112.38 13.5433 1522 54.113 1025.28 540.172
2031 0 116.752 13.5758 1585 54.7092 1025.06 538.078
2032 0 120.557 13.28 1601 54.8157 1025.19 535.502
2033 0 125.462 14.3151 1796 53.8591 1025.06 534.226
2034 0 126.462 13.0316 1648 55.7694 1024.5 532.098
2035 0 130.471 13.4972 1761 55.1953 1024.12 530.499
2036 0 133.749 13.5104 1807 55.6259 1024.45 529.76
2037 0 137.727 13.476 1856 55.2656 1024.41 527.621
2038 1 81.4871 10.9465 892 54.2321 1024.65 558.405
2039 0 81.5575 11.3907 929 54.1841 1024.54 558.715
2040 0 85.7218 12.9372 1109 52.4914 1024.63 556.601
2041 0 87.3834 12.6683 1107 53.0912 1024.56 555.39
2042 0 89.5662 12.3037 1102 53.8385 1024.68 553.878
2043 0 93.5778 13.048 1221 52.9672 1025.42 551.165
2044 0 94.5464 12.7662 1207 53.4275 1025.31 551.012
2045 0 99.4542 12.2066 1214 53.6557 1025.37 549.228
2046 0 102.506 12.2334 1254 53.3166 1024.89 548.569
2047 0 105.631 12.4585 1316 53.0395 1024.9 547.741
2048 0 107.495 13.0052 1398 52.9127 1024.73 544.636
2049 0 111.485 12.3066 1372 53.5685 1024.54 543.23
2050 0 113.47 12.479 1416 53.9195 1024.82 541.693
2051 0 117.564 12.878 1514 53.6149 1024.56 539.867
2052 0 120.47 13.2398 1595 53.3492 1024.37 538.38
2053 0 123.624 12.0932 1495 56.5726 1024.2 535.877
2054 0 127.656 12.6041 1609 55.9273 1023.77 536.171
2055 0 127.656 12.5963 1608 162.282 1023.78 536.136
2056 0 136.544 13.893 1897 54.4734 1023.92 531.38
2057 0 141.754 13.0296 1847 55.0422 1023.49 532.596
2058 0 141.754 12.9943 1842 162.856 1022.49 532.658
2059 1 83.6094 12.0561 1008 54.7659 1023.68 557.665
2060 0 86.6667 11.4923 996 55.5351 1023.11 557.001
2061 0 89.6682 12.9366 1160 54.3009 1023.55 553.49
2062 0 92.5378 12.8812 1192 54.6686 1023.65 552.912
2063 0 94.4907 12.2128 1154 55.6152 1023.21 551.789
2064 0 99.8054 13.2157 1319 54.5557 1023.25 549.008
2065 0 101.567 13.2228 1343 54.8012 1023.73 549.448
2066 0 105.562 13.1961 1393 54.9196 1023.8 546.992
2067 0 107.571 13.4795 1450 55.1014 1024.07 544.6
2068 0 112.497 13.4137 1509 55.1624 1023.83 543.1
2069 0 115.435 13.2282 1527 55.6313 1023.76 541.669
2070 0 120.547 13.8535 1670 54.6503 1023.83 537.952
2071 0 122.401 13.3087 1629 56.4131 1024.2 534.848
2072 0 131.683 15.8259 2084 52.3177 1024.67 528.995
2073 0 134.436 15.3307 2061 53.2116 1024.79 524.89
2074 0 134.353 14.0227 1884 55.9119 1024.76 529.487
2075 0 138.459 14.3436 1986 55.4124 1024.72 528.428
2076 0 140.599 13.4567 1892 56.6385 1024.59 525.267
2077 1 78.2393 10.3017 806 56.7742 1025 559.418
2078 0 83.3393 10.5832 882 57.5011 1025 554.348
2079 0 85.3173 10.5606 901 57.6304 1025.18 554.142
2080 0 87.3467 11.1166 971 57.4181 1025.64 551.994
2081 0 90.2478 11.3022 1020 57.3363 1025.59 551.18
2082 0 94.3128 12.7342 1201 56.2481 1025.82 546.849
2083 0 95.321 12.3058 1173 57.4152 1026.1 547.854
2084 0 99.4528 12.9106 1284 56.8084 1027.09 545.632
2085 0 105.385 13.0949 1380 56.5094 1027.13 542.852
2086 0 106.453 12.8038 1363 57.1247 1027.05 543.157
2087 0 109.31 13.1827 1441 56.9063 1027.08 539.829
2088 0 113.201 13.6659 1547 56.2889 1027.53 539.003
2089 0 117.314 12.9908 1524 57.2362 1027.41 537.419
2090 0 121.534 13.486 1639 57.0323 1027.47 536.541
2091 0 124.322 13.4731 1675 57.2824 1027.52 533.598
2092 0 127.247 14.0592 1789 57.2549 1027.39 530.819
2093 0 131.415 13.9939 1839 57.5269 1027.66 530.624
2094 0 135.342 13.2331 1791 58.9955 1027.55 530.777
2095 0 137.338 13.0189 1788 59.4659 1027.88 528.592
2096 0 140.401 13.8959 1951 58.7652 1028.09 524.023
2097 0 145.421 13.5331 1968 59.4588 1028.1 523.593
2098 0 150.306 14.4239 2168 58.6702 1027.87 519.044
2099 0 154.357 13.8834 2143 59.4358 1028.11 519.584
2100 0 158.37 13.9925 2216 59.4959 1028.3 515.08
2101 0 163.611 13.6727 2237 60.0742 1028.35 515.196
2102 0 168.404 14.2514 2400 59.5792 1028.82 512.271
2103 0 173.618 13.6852 2376 60.8498 1028.82 509.46
2104 0 179.566 13.4546 2416 60.9487 1029.54 507.51
2105 0 186.495 14.6599 2734 59.8694 1029.93 503.288
2106 0 190.549 14.5842 2779 60.6124 1030.01 498.188
2107 0 196.334 13.9966 2748 61.4924 1029.63 496.923
2108 0 201.407 14.3788 2896 61.5321 1029.91 494.609
2109 0 206.432 14.6053 3015 61.6219 1029.86 491.523
2110 0 212.412 14.8014 3144 61.5926 1030.1 487.714
2111 0 221.722 16.0065 3549 59.7106 1030.09 481.173
2112 0 222.47 16.2988 3626 59.8809 1030.17 479.868
2113 0 229.316 16.3443 3748 59.7591 1030.15 475.974
2114 0 237.533 15.9136 3780 60.5569 1030.38 471.639
2115 0 245.532 15.5825 3826 60.3027 1029.95 466.43
2116 0 251.555 14.8357 3732 61.2771 1029.88 466.616
2117 1 66.2921 8.37204 555 57.6955 1030.77 561.335
2118 0 66.1241 10.4954 694 56.4481 1029.99 558.545
2119 0 68.2107 9.92513 677 56.3545 1029.65 559.947
2120 0 71.1201 10.8549 772 56.4819 1029.03 558.294
2121 0 74.2708 11.7543 873 56.5223 1029.58 557.873
2122 0 75.4018 11.7636 887 56.7756 1029.05 558.799
2123 0 78.3744 12.6062 988 55.5597 1028.85 557.477
2124 0 78.4336 11.6022 910 56.3418 1028.69 553.613
2125 0 81.3068 11.8932 967 56.7322 1028.59 552.813
2126 1 36.1793 7.07587 256 49.6562 1026.41 580.184
2127 0 32.2394 6.51376 210 52.4952 1026.67 577.033
2128 0 35.1403 8.36646 294 50.3571 1026.43 578.211
2129 0 38.1762 9.56094 365 49.1315 1026.73 576.964
2130 0 37.0528 8.04257 298 50.1779 1026.03 578.356
2131 0 40.1905 8.609 346 49.2023 1025.5 578.003
2132 0 42.2401 8.75944 370 48.9243 1025.49 577.657
2133 0 40.051 8.41428 337 50.3798 1024.83 576.169
2134 0 43.1664 8.47881 366 49.5055 1024.94 576.519
2135 0 43.1148 8.69771 375 49.6827 1025.1 576.573
2136 0 42.0722 7.34452 309 50.5566 1025.05 578.66
2137 0 43.1152 9.23108 398 49.7312 1025.26 576.344
2138 0 45.0284 9.01654 406 50.1502 1025.58 577.687
2139 0 45.0848 8.9609 404 50.0347 1024.83 577.597
2140 0 45.0319 9.14906 412 50.8811 1024.92 575.93
2141 0 45.0422 9.01377 406 50.9803 1024.3 577.158
2142 0 44.0275 8.94896 394 51.5964 1024.26 577.132
2143 0 45.0171 9.55193 430 51.0093 1024.42 576.158
2144 0 46.059 9.40098 433 51.5266 1024.46 575.644
2145 0 49.0624 9.31467 457 51.0985 1024.06 577.127
2146 0 47.0146 8.57181 403 51.6005 1024.51 579.454
2147 0 49.0527 8.86801 435 51.9034 1024.65 577.058
2148 0 50.0317 9.67386 484 51.4917 1025 576.93
2149 0 49.0794 9.37258 460 51.7543 1024.97 575.528
2150 0 50.1011 9.40099 471 51.8875 1024.87 577.601
2151 0 51.0633 8.9301 456 52.5724 1025.14 577.86
2152 0 51.1615 9.47978 485 52.8701 1025.76 576.379
2153 0 53.1481 9.05018 481 53.4449 1026.14 577.468
2154 0 54.15 9.38136 508 53.498 1025.86 575.587
2155 0 56.215 9.35694 526 52.9468 1025.95 575.224
2156 0 54.1139 10.2007 552 52.7391 1025.51 576.388
2157 0 54.2889 8.71265 473 53.814 1026.19 575.734
2158 0 53.2288 9.33705 497 53.3139 1025.91 575.817
2159 0 56.2262 8.82152 496 54.4456 1026.14 576.183
2160 0 56.3157 9.65982 544 53.4853 1025.53 575.204
2161 0 54.265 8.25579 448 54.9554 1025.95 576.268
2162 0 55.329 9.32604 516 54.8023 1025.9 574.725
2163 0 56.1393 8.53234 479 55.8434 1026.01 575.944
2164 0 55.2013 9.07588 501 55.4651 1025.82 575.884
2165 0 57.3143 9.57877 549 55.3934 1025.46 573.126
2166 0 59.3088 8.32929 494 55.7429 1025.8 576.042
2167 0 58.2102 8.69263 506 56.2075 1025.89 573.192
2168 0 60.1642 9.09179 547 55.2176 1025.76 571.34
2169 0 62.21 8.74457 544 55.1507 1025.8 571.544
2170 0 61.3448 8.18325 502 56.1753 1025.56 573.578
2171 0 65.5184 8.6388 566 56.3816 1026.02 570.638
2172 0 66.4269 8.65613 575 56.4104 1025.84 571.402
2173 0 67.471 8.87788 599 56.2504 1025.46 572.763
2174 0 67.5936 8.87659 600 56.8183 1025.75 570.767
2175 0 66.6034 8.51308 567 56.9048 1025.56 571.125
2176 0 66.3389 10.5217 698 55.7106 1025.59 568.163
2177 0 70.3737 9.49219 668 56.5135 1026.24 570.551
2178 0 69.4588 9.50204 660 57.0727 1026.22 570.359
2179 0 70.4471 9.07064 639 57.3912 1025.47 568.969
2180 0 71.53 8.37412 599 58.616 1026 570.098
2181 0 70.4219 8.94608 630 57.8333 1025.92 570.783
2182 0 70.5587 9.29722 656 57.9588 1025.7 570.166
2183 1 33.1583 12.0332 399 57.4361 1025.71 586.659
2184 0 34.1444 9.95771 340 59.9382 1025.58 587.359
2185 0 33.128 11.2895 374 59.4064 1025.6 586.826
2186 0 32.0367 10.9562 351 60.7977 1026.09 586.39
2187 0 34.127 11.7209 400 60.125 1026.62 586.882
2188 0 34.0131 11.0546 376 61.8324 1026.86 586.511
2189 0 34.0602 11.2154 382 61.7461 1026.59 585.974
2190 0 34.054 11.2762 384 62.401 1027.18 585.346
2191 0 35.0541 10.8404 380 61.8053 1027.16 586.34
2192 0 34.0863 11.9403 407 62.231 1027.57 585.609
2193 0 34.0504 11.9529 407 62.1966 1027.79 584.393
2194 0 35.0513 11.4404 401 62.409 1027.43 584.409
2195 0 36.0169 12.3275 444 60.9842 1027.68 584.376
2196 0 35.0966 11.8245 415 63.0651 1027.64 585.328
2197 0 37.0642 12.0871 448 61.8147 1027.87 583.991
2198 0 37.0365 11.7992 437 61.9794 1028.2 584.197
2199 0 35.0472 12.4118 435 62.7241 1028.33 583.064
2200 0 35.0133 11.767 412 63.7816 1028.68 583.376
2201 0 36.0536 11.788 425 63.4682 1028.75 581.473
2202 0 36.0634 11.5907 418 64.4761 1029.11 582.849
2203 0 35.1199 12.1299 426 64.5563 1028.91 582.249
2204 0 38.0328 12.5944 479 61.7495 1029.57 582.743
2205 0 37.0607 12.0883 448 63.5714 1029.38 582.391
2206 0 38.1008 12.6769 483 62.5176 1029.69 581.619
2207 0 39.0538 12.8029 500 61.836 1030.33 581.582
2208 0 38.0599 12.3227 469 63.0917 1030.11 583.098
2209 0 37.0713 12.8671 477 63.5556 1030.34 581.43
2210 0 37.007 12.1058 448 65.3259 1030.65 580.576
2211 0 38.0395 13.0128 495 61.9495 1030.35 580.703
2212 0 37.0606 12.3581 458 64.2533 1030.55 581.253
2213 0 36.0093 11.6359 419 65.8377 1031.05 581.289
2214 0 38.014 12.4165 472 63.7225 1031.14 581.015
2215 0 37.2402 12.2985 458 62.441 1029.75 580.317
2216 0 35.2075 13.2358 466 62.6116 1030.11 581.556
2217 0 36.4752 13.2693 484 61.6467 1030.63 580.808
2218 0 32.0765 10.662 342 65.348 1028.8 583.172
2219 0 33.1317 11.4694 380 70.5816 1029.63 583.018
2220 0 32.0563 11.3862 365 71.1014 1029.65 583.764
2221 0 33.0603 11.7664 389 70.856 1029.74 582.815
2222 0 32.0257 11.5844 371 70.4043 1029.88 584.105
2223 0 32.0437 11.3283 363 70.7879 1029.64 583.714
2224 0 33.0289 11.8381 391 70.0026 1029.66 582.931
2225 0 33.0143 11.6919 386 69.9223 1029.41 583.821
2226 0 33.0389 10.866 359 71.3092 1029.61 584.855
2227 0 32.0116 11.8082 378 69.7751 1029.25 583.339
2228 0 34.0301 11.6955 398 70.304 1029.07 582.736
2229 0 32.0093 12.059 386 70.5155 1029.02 583.469
2230 0 34.0176 11.4941 391 70.3504 1029.17 582.65
2231 0 34.0286 11.4022 388 70.9897 1029.35 582.111
2232 0 34.0644 10.9499 373 71.2413 1028.88 582.563
2233 0 33.0295 11.9287 394 69.9721 1029.09 582.553
2234 0 34.0192 11.9932 408 70.1078 1028.51 581.233
2235 0 34.0222 11.3162 385 69.7299 1028.32 581.805
2236 0 33.0239 10.7498 355 71.1521 1028.49 582.53
2237 0 33.0347 11.3517 375 70.5307 1028.19 582.195
2238 0 33.0327 11.5946 383 70.4465 1027.93 581.867
2239 0 32.0317 11.4574 367 71.9155 1027.67 583.185
2240 0 33.0627 11.6143 384 71.5729 1027.69 581.859
2241 0 35.0279 10.5344 369 70.6721 1027.92 581.715
2242 0 34.0335 11.2536 383 70.0392 1027.46 581.611
2243 0 35.0419 10.5017 368 70.3315 1028.6 581.712
2244 0 34.0824 11.5896 395 69.7063 1028.12 581.514
2245 0 32.0939 11.1236 357 70.916 1027.54 582.336
2246 0 33.0216 10.8717 359 71.0306 1027.54 582.398
2247 0 32.0319 11.0827 355 70.9972 1027.95 582.639
2248 0 35.008 11.5116 403 69.0968 1027.93 582.859
2249 0 33.0357 10.3827 343 71.3528 1027.67 582.985
2250 0 33.0337 11.2612 372 70.4436 1027.39 582.796
2251 0 33.0509 11.4067 377 69.5491 1027.03 583.236
2252 0 35.0241 11.3921 399 68.7243 1026.92 582.652
2253 0 34.0754 11.1224 379 69.4565 1026.84 582.356
2254 0 34.0655 11.2724 384 70.0599 1027.15 581.737
2255 0 33.0938 10.9084 361 71.0332 1026.95 583.039
2256 0 35.0894 11.143 391 68.4808 1027.06 583.189
2257 0 34.0774 11.0924 378 69.0979 1026.97 583.553
2258 0 35.2067 11.4751 404 67.4356 1026.67 582.339
2259 0 33.0422 10.7741 356 70.1714 1026.48 581.986
2260 0 33.0515 11.1946 370 69.9892 1026.39 581.795
2261 0 35.183 11.4828 404 68.797 1026.67 582.854
2262 0 36.0711 11.7268 423 67.9267 1026.32 581.752
2263 0 35.2118 10.6782 376 70.1755 1026.3 582.822
2264 0 36.0894 11.5269 416 68.1562 1026.82 582.101
2265 0 35.1165 11.6185 408 68.8971 1026.89 581.348
