time division length width area intensity CMx CMy
0 0 43.0744 10.5863 456 69.2588 1172.98 588.592
1 0 47.1357 11.032 520 68.4558 1172.56 587.087
2 0 47.3108 11.3505 537 67.8138 1172.23 586.899
3 0 48.3154 12.6875 613 66.4927 1172.19 586.45
4 0 50.264 11.9768 602 68.1346 1171.82 583.791
5 0 51.4428 12.2077 628 66.9586 1171.78 583.725
6 0 54.3091 13.4047 728 64.9203 1171.79 581.973
7 0 53.2469 12.2824 654 67.7813 1172.13 581.575
8 0 56.2751 12.7765 719 67.1683 1172.76 582.093
9 0 56.3681 12.7909 721 68.7351 1172.68 580.695
10 0 59.4589 13.0847 778 68.1697 1172.12 580.03
11 0 61.3099 12.2329 750 70.1093 1171.79 578.475
12 0 61.2328 12.5586 769 69.8687 1172.74 578.09
13 0 63.1329 12.5133 790 70.1544 1172.95 577.528
14 0 65.1291 12.3754 806 70.3524 1172.02 575.055
15 0 68.3221 12.2654 838 69.1098 1172.01 573.912
16 0 71.4524 12.8897 921 68.1976 1172 571.847
17 0 73.4468 13.2613 974 67.8008 1171.81 570.395
18 0 77.5774 13.4446 1043 66.8073 1171.72 570.332
19 0 80.4277 13.1547 1058 67.1805 1171.84 567.922
20 1 43.28 10.6054 459 67.1525 1172.43 587.743
21 0 45.3676 11.1974 508 67.0059 1172.07 585.522
22 0 48.2445 11.2759 544 66.9044 1171.7 585.276
23 0 50.224 11.9664 601 65.9418 1172.23 584.772
24 0 51.2801 12.227 627 66.6715 1172.55 583.244
25 0 51.2801 12.188 625 165.173 1172.55 583.251
26 0 54.2892 12.0282 653 66.6708 1172.83 581.861
27 0 58.1678 11.5528 672 91.0119 1172.9 580.201
28 0 60.2512 12.5143 754 65.061 1172.62 579.119
29 0 62.1008 12.2543 761 65.6413 1173.28 577.485
30 0 63.2717 12.2488 775 65.951 1173.46 577.53
31 0 62.2258 12.3582 769 66.4902 1173.3 577.316
32 0 65.2338 12.2789 801 66.422 1173.35 575.728
33 0 66.4174 12.4064 824 66.4539 1173.29 576.393
34 0 69.4397 12.7161 883 66.0057 1173.8 573.822
35 0 71.3216 12.703 906 66.0033 1173.54 572.379
36 0 74.3447 12.6438 940 65.6 1173.58 572.588
37 0 76.2746 12.6385 964 66.1048 1173.65 572.927
38 0 80.2555 13.2078 1060 64.9151 1173.53 570.008
39 1 43.1622 10.4953 453 65.1015 1174.22 588.501
40 0 44.1787 9.89164 437 65.8924 1174.29 587.551
41 0 47.1544 10.6247 501 64.7026 1174.07 587.309
42 0 49.1919 10.6928 526 64.6996 1173.64 586.224
43 0 49.1291 11.2357 552 64.0725 1174.34 585.094
44 0 51.1584 12.4124 635 63.3858 1174.79 583.972
45 0 50.3016 11.5106 579 65.3074 1174.18 583.87
46 0 53.2294 11.6289 619 64.6591 1174.25 582.607
47 0 54.2631 12.9923 705 62.9504 1174.15 580.085
48 0 55.3901 12.1502 673 64.2392 1174.18 580.456
49 0 57.2391 12.7011 727 63.696 1174.24 578.754
50 0 59.2 12.0439 713 64.3913 1174.38 578.626
51 0 60.2368 12.318 742 64.5431 1174.68 577.19
52 0 62.2277 12.3257 767 64.5228 1174.2 576.836
53 0 62.1896 13.1372 817 64.3207 1173.82 575.865
54 0 63.1662 13.2508 837 58.7515 1173.97 575.491
55 0 68.1413 12.1952 831 59.5259 1174.11 574.286
56 0 67.2208 12.5259 842 59.81 1174.63 572.992
57 0 70.2114 12.7615 896 60.6819 1174.65 572.525
58 0 73.0744 12.4257 908 60.6344 1174.35 572.233
59 0 74.145 13.568 1006 59.3728 1174.7 570.35
60 0 79.2411 13.2128 1047 59.6982 1174.79 570.374
61 0 79.2371 12.9737 1028 61.4339 1174.95 568.95
62 0 84.1948 13.6825 1152 60.4219 1174.69 567.096
63 1 44.1314 10.5141 464 61.2759 1175.07 587.506
64 0 43.1457 10.3139 445 63.1169 1175.3 585.411
65 0 46.22 11.5967 536 61.0634 1175 585.591
66 0 47.1734 12.5494 592 61.9392 1174.72 582.394
67 0 51.2115 12.3214 631 62.0634 1174.72 581.261
68 0 51.2256 12.1229 621 62.8438 1175.03 581.253
69 0 53.2749 12.2572 653 63.1363 1174.92 580.397
70 0 53.3213 11.9277 636 63.8711 1175.13 579.849
71 0 56.2077 12.5072 703 62.7155 1175.42 577.22
72 0 55.2416 12.219 675 64.2089 1175.8 575.526
73 0 55.2416 12.2553 677 174.001 1176.77 575.507
74 0 60.0599 13.2201 794 62.728 1176.9 574.334
75 0 62.1453 12.5995 783 63.5402 1177.27 573.105
76 0 64.0887 13.7934 884 61.767 1176.95 572.329
77 0 66.2309 13.302 881 62.6572 1176.64 570.076
78 0 66.2309 13.3623 885 169.162 1175.66 570.085
79 0 71.3659 13.5499 967 62.1065 1177.05 567.774
80 0 74.2837 13.8119 1026 61.6394 1176.76 566.795
81 0 75.162 13.0651 982 63.3269 1177.33 564.43
82 0 78.3096 13.1146 1027 63.1675 1177.88 564.493
83 0 81.4636 12.9874 1058 63.7278 1177.92 560.951
84 0 84.3899 13.3665 1128 63.3059 1178.44 560.894
85 0 84.3899 13.3073 1123 162.47 1180.45 560.882
86 0 90.2897 13.501 1219 62.7637 1178.47 557.631
87 1 43.2064 10.6234 459 62.5664 1179.4 580.887
88 0 45.1964 10.8637 491 61.8819 1179.26 579.627
89 0 46.3097 11.2935 523 61.8241 1179.26 577.686
90 0 47.3075 12.4293 588 61.1684 1179.79 577.233
91 0 49.3452 12.1592 600 62.4983 1179.96 575.915
92 0 50.1947 12.6906 637 63.3611 1180.23 574.206
93 0 51.1416 12.612 645 64.0233 1180.34 571.958
94 0 53.2709 11.8076 629 64.4054 1180.41 572.703
95 0 55.1775 12.9582 715 61.828 1180.44 570.785
96 0 56.168 12.8721 723 60.5228 1180.34 570.079
97 0 59.2245 12.5117 741 60.1619 1180.47 569.336
98 0 59.2245 12.5455 743 158.891 1180.44 569.283
99 0 62.2218 12.809 797 59.2949 1180.24 567.178
100 0 62.2218 12.2304 761 156.661 1181.14 566.551
101 0 67.1827 13.1135 881 59.0272 1180.49 565.597
102 0 67.1816 11.7889 792 62.7311 1180.03 564.359
103 0 72.1463 12.1559 877 62.1437 1180.05 562.681
104 0 74.1384 12.8274 951 61.8696 1180.29 560.38
105 1 40.1544 10.3849 417 60.8561 1180.86 577.326
106 0 41.0672 9.00962 370 62.4703 1181.47 577.286
107 0 39.1222 9.07414 355 63.3437 1181.23 578.4
108 0 44.079 10.277 453 61.8057 1181.36 576.51
109 0 46.09 11.9115 549 60.0364 1180.71 574.685
110 0 46.2466 12.3469 571 59.7478 1180.12 573.823
111 0 47.184 11.6989 552 61.4221 1179.89 572.96
112 0 48.2001 11.7427 566 60.7968 1180.15 571.995
113 0 48.1506 11.4848 553 61.2984 1179.73 571.524
114 0 52.1971 12.3187 643 59.0358 1179.69 570.499
115 0 53.1714 12.3187 655 58.9252 1180.12 570.463
116 0 55.0613 11.9503 658 59.2295 1179.54 570.24
117 0 56.1701 12.1951 685 59.8088 1179.39 567.495
118 0 56.2044 11.7251 659 61.2276 1179.48 568.229
119 0 59.1454 12.9173 764 60.0353 1179.2 567.496
120 0 60.2463 12.8141 772 60.7733 1179.86 566.995
121 0 63.1662 12.2692 775 61.4606 1179.95 566.101
122 0 65.188 13.1773 859 60.1828 1180.03 564.71
123 0 68.1655 12.543 855 60.8281 1180.03 563.172
124 0 68.1868 12.8764 878 61.3565 1179.58 563.052
125 0 71.1818 13.0932 932 60.9582 1179.45 560.845
126 0 74.2112 12.3297 915 61.7628 1178.79 561.799
127 0 75.1109 12.6613 951 62.3449 1178.53 559.802
128 0 78.1416 12.6181 986 62.3793 1178.66 559.423
129 0 80.3719 12.7781 1027 62.9192 1178.39 556.929
130 0 80.1707 12.4734 1000 64.108 1178.44 556.265
131 0 85.1799 13.3365 1136 63.1215 1178.3 555.087
132 0 86.2078 13.4095 1156 63.801 1178.37 554.918
133 0 89.1964 12.7023 1133 64.9532 1177.9 553.523
134 0 92.229 13.5424 1249 64.1233 1177.83 553.191
135 0 91.2419 12.9984 1186 161.099 1176.88 552.481
136 0 98.2324 13.9974 1375 63.9178 1178.02 546.771
137 0 101.195 13.2319 1339 65.4279 1178.2 547.427
138 0 103.218 12.8272 1324 66.1027 1178.03 545.952
139 0 109.266 13.4626 1471 65.1958 1177.66 544.283
140 1 55.1752 11.2007 618 66.0631 1178.19 572.259
141 0 60.1626 11.9842 721 64.5118 1177.97 569.975
142 0 60.1251 12.8233 771 64.0856 1177.61 568.053
143 0 61.2783 12.8431 787 64.615 1177.43 567.51
144 0 63.1938 13.2133 835 64.2743 1177.43 565.964
145 0 65.1691 12.5213 816 65.163 1177.13 566.509
146 0 67.1554 12.8061 860 64.586 1177.72 563.638
147 0 71.1986 12.8514 915 64.1421 1177.68 563.459
148 0 72.2524 14.0618 1016 63.0876 1177.09 561.751
149 0 74.156 12.676 940 65.3713 1176.92 561.491
150 0 76.1974 12.5332 955 66.2147 1176.81 560.684
151 0 81.5322 12.9274 1054 65.3928 1177.06 560.606
152 0 84.378 13.4988 1139 65.2467 1177.24 556.769
153 0 87.6486 13.5884 1191 65.2418 1176.77 555.376
154 1 42.4776 9.67568 411 67.4842 1177.04 577.496
155 0 45.2433 12.267 555 65.2 1176.85 575.438
156 0 48.2727 12.3465 596 64.6963 1176.92 576.091
157 0 49.2314 12.2686 604 65.4553 1176.74 574.088
158 0 52.2217 11.9108 622 65.2267 1176.59 573.953
159 0 51.1996 11.4063 584 66.5822 1177 573.705
160 0 54.2646 12.3838 672 64.9926 1176.5 571.906
161 0 55.2161 12.4239 686 65.1268 1176.69 570.743
162 0 56.2764 11.6567 656 66.1052 1176.91 571.556
163 0 57.1717 12.0864 691 65.4964 1176.52 569.447
164 0 61.1908 13.1229 803 63.2329 1177.06 567.757
165 0 62.244 12.3867 771 64.5214 1176.92 567.346
166 0 64.175 12.4036 796 64.9585 1177.21 565.745
167 0 65.3661 12.9731 848 64.2783 1177.34 564.399
168 0 66.2225 12.6694 839 65.3993 1177.82 565.316
169 0 68.1721 12.8205 874 65.5584 1178.12 562.911
170 0 71.2922 12.6942 905 66.1337 1177.94 561.549
171 0 72.2251 12.9179 933 65.9218 1178.17 561.354
172 0 75.2243 12.8549 967 65.9018 1178.39 560.945
173 0 78.4261 13.4649 1056 65.1629 1178.84 558.988
174 0 81.2275 13.7023 1113 65.0907 1178.51 556.638
175 0 84.162 13.6998 1153 65.3764 1179.05 554.899
176 0 86.1575 14.4851 1248 64.1755 1179.09 553.946
177 0 90.2475 13.6181 1229 64.9797 1179.37 553.543
178 0 92.2699 13.5906 1254 65.2488 1179.19 551.667
179 0 95.1006 13.859 1318 65.2436 1179.39 549.49
180 0 97.1784 14.4477 1404 64.6631 1180.06 546.917
181 1 54.1375 10.2886 557 66.9856 1180.5 569.993
182 0 55.0935 10.2734 566 66.6749 1180.77 570.161
183 0 58.0504 11.8173 686 65.0131 1181.05 567.84
184 0 58.1443 12.1766 708 65.452 1181.2 567.919
185 0 60.1473 12.1036 728 65.8832 1181 566.83
186 0 61.1213 12.3525 755 65.4927 1181.67 566.846
187 0 61.2158 12.2027 747 66.2129 1181.55 564.304
188 0 65.1085 12.4101 808 65.453 1181.51 563.428
189 0 67.1053 13.0392 875 64.2697 1181.66 561.489
190 0 70.0796 13.6702 958 63.4207 1181.64 559.003
191 0 71.0841 13.266 943 64.4189 1182.15 559.655
192 0 73.1923 12.7609 934 64.5257 1182.13 558.323
193 0 75.1016 12.3166 925 64.6995 1182.65 557.415
194 0 78.1033 12.7908 999 61.7297 1182.32 556.779
195 0 79.0943 13.4144 1061 60.3591 1182.51 554.494
196 0 84.1095 13.3754 1125 59.0587 1182 553.721
197 0 84.1305 13.0987 1102 60.2704 1181.82 553.207
198 0 87.0492 13.2569 1154 61.6447 1181.92 552.05
199 1 48.0361 10.3672 498 63.0803 1182.16 572.618
200 0 49.1369 9.87039 485 64.2948 1182.97 571.186
201 0 49.0826 10.085 495 64.796 1183.07 569.529
202 0 52.0641 11.5435 601 63.396 1182.96 568.286
203 0 52.0836 11.2895 588 62.2704 1182.71 569.01
204 0 53.0253 10.9948 583 63.3671 1182.12 569.557
205 0 54.107 11.8654 642 63.0779 1182.34 567.531
206 0 56.1405 10.7053 601 64.8236 1182.49 567.491
207 0 58.0954 12.0664 701 62.9601 1182.52 567.352
208 0 59.1544 11.8334 700 63.9629 1183.24 565.139
209 0 63.1634 12.4281 785 62.4471 1182.54 563.431
210 0 63.1019 11.9172 752 64.3285 1182.63 562.528
211 0 67.1166 13.0817 878 62.1071 1182.36 562.101
212 0 67.1993 12.4257 835 63.9665 1181.99 560.619
213 0 72.1777 12.9818 937 62.8986 1181.65 559.398
214 0 74.1527 13.3913 993 62.9225 1182.15 559.791
215 0 75.1056 13.3013 999 64.1722 1182.01 559.437
216 0 77.2295 13.2203 1021 64.2977 1182.14 557.585
217 0 80.3733 12.9645 1042 64.6919 1181.43 555.411
218 0 83.1877 13.3674 1112 64.929 1181.7 553.45
219 0 84.1376 12.5509 1056 66.3769 1181.44 552.446
220 0 89.2288 13.5831 1212 64.7731 1181.4 550.915
221 0 91.1921 13.7293 1252 65.2284 1181.14 549.133
222 1 45.1385 10.9884 496 66.5544 1180.91 572.617
223 0 50.2292 11.0095 553 65.8174 1181.12 572.64
224 0 51.1697 10.9635 561 65.6791 1180.84 572.701
225 0 54.1966 12.0303 652 65.0414 1180.47 570.91
226 0 55.1079 12.5027 689 64.7852 1180.77 569.495
227 0 57.0785 13.28 758 64.1807 1180.7 568.923
228 0 58.1074 12.8899 749 65.2417 1180.62 569.838
229 0 60.2531 13.1778 794 64.9358 1180.22 567.495
230 0 60.2132 13.7345 827 64.4486 1180.34 566.653
231 0 64.2613 13.803 887 64.115 1180.19 565.796
232 0 67.1384 13.6137 914 64.7484 1180.07 564.97
233 0 68.2636 13.3014 908 65.1861 1179.95 564.997
234 0 71.3521 12.7677 911 65.876 1178.78 562.819
235 0 73.222 13.7664 1008 65.0258 1179.07 559.727
236 0 76.2864 13.6722 1043 64.9492 1179.27 560.653
237 0 77.3213 13.3469 1032 65.686 1178.6 560.886
238 0 80.4462 13.9845 1125 65.0356 1178.55 559.324
239 0 83.2197 13.7467 1144 65.361 1178.81 556.461
240 0 83.1872 13.6559 1136 66.7245 1178.94 556.969
241 0 87.2836 13.6223 1189 66.5728 1178.98 555.54
242 0 90.3492 14.5768 1317 65.1936 1178.44 555.201
243 0 94.3002 14.7614 1392 65.028 1178.52 552.344
244 0 96.2683 14.9686 1441 64.8945 1178.2 551.539
245 0 100.42 14.509 1457 65.7062 1178.28 551.385
246 0 102.166 14.3297 1464 66.6223 1178.09 548.814
247 0 104.352 14.2306 1485 67.2505 1178.44 548.794
248 0 107.38 14.0902 1513 67.5334 1178.72 547.053
249 0 110.309 14.3416 1582 67.2472 1177.92 546.47
250 0 115.224 14.2678 1644 66.896 1178.1 543.839
251 0 118.233 14.6576 1733 66.9706 1178.08 540.421
252 0 124.38 14.4959 1803 66.1636 1178.51 538.044
253 0 127.218 14.4869 1843 66.4552 1178.54 538.168
254 1 66.1059 11.7539 777 68.3655 1178.16 568.665
255 0 69.1243 12.2967 850 67.4447 1178.16 566.982
256 0 73.3013 13.2194 969 65.9804 1178.31 565.793
257 0 74.2515 14.0065 1040 65.2846 1178.17 564.312
258 0 77.1715 12.6472 976 66.8299 1178.48 564.075
259 0 80.1945 13.38 1073 65.5918 1178.12 562.344
260 0 82.0729 13.8414 1136 64.8715 1177.31 560.846
261 0 85.2955 13.9163 1187 64.8627 1177.55 560.126
262 0 87.1581 13.6304 1188 65.266 1177.69 558.023
263 0 91.1399 13.9017 1267 64.9219 1177.58 555.54
264 0 94.1797 13.3362 1256 65.258 1177.33 555.285
265 0 96.2159 13.4905 1298 65.3829 1177.02 554.841
266 0 98.2681 13.3309 1310 66.3321 1176.76 552.227
267 0 101.217 13.8218 1399 65.7455 1176.96 550.458
268 0 105.214 14.1711 1491 65.1952 1177.06 547.871
269 0 108.276 14.1213 1529 65.2636 1176.79 547.833
270 0 112.136 13.8671 1555 65.9408 1176.66 544.091
271 0 117.222 13.5299 1586 65.9666 1176.86 543.084
272 0 118.137 13.4082 1584 66.3068 1177.4 542.408
273 0 123.241 13.5426 1669 65.8868 1177.56 539.968
274 0 128.337 13.2308 1698 66.0141 1177.62 539.364
275 0 134.281 14.3058 1921 64.6856 1177.51 535.112
276 1 75.2025 11.223 844 66.0533 1177.58 566.136
277 0 77.2864 11.5803 895 66.124 1177.46 564.012
278 0 81.1136 12.5996 1022 64.8591 1177.67 560.373
279 0 84.2108 13.0387 1098 64.5091 1177.87 559.833
280 0 85.192 13.1585 1121 64.4005 1178.51 557.37
281 0 90.1321 13.6244 1228 63.5375 1178.41 553.831
282 0 95.3279 12.8294 1223 63.6402 1178.75 553.854
283 0 97.295 13.0634 1271 63.4359 1178.82 553.458
284 0 101.269 13.0741 1324 63.6193 1178.59 550.541
285 0 102.299 13.0207 1332 64.2718 1178.7 548.101
286 0 107.302 12.9541 1390 63.3439 1179.12 546.202
287 0 112.152 13.0804 1467 63.0048 1178.81 544.507
288 0 113.273 13.4454 1523 63.0276 1179.24 541.639
289 0 119.427 13.816 1650 61.9352 1179.35 539.699
290 0 120.185 12.5639 1510 63.0517 1179.38 539.213
291 0 125.211 12.9141 1617 62.6271 1179.77 534.421
292 0 128.273 12.9022 1655 62.4411 1180.54 535.117
293 0 134.348 12.9588 1741 62.6956 1180.26 530.541
294 0 136.148 13.3311 1815 62.124 1180.21 526.645
295 0 142.412 13.6014 1937 61.6427 1180.36 527.967
296 0 146.398 13.354 1955 61.9693 1180.36 523.217
297 1 70.0695 8.8769 622 61.5466 1181.39 565.926
298 0 71.1501 10.5833 753 60.4183 1181.58 563.223
299 0 75.1936 10.9185 821 60.3264 1181.3 559.246
300 0 78.258 12.7144 995 58.8111 1181.19 558.586
301 0 77.154 11.8594 915 60.1978 1181.39 556.191
302 0 80.1798 11.6364 933 61.0268 1181.91 554.855
303 0 85.1229 13.2984 1132 58.9196 1181.45 553.443
304 0 88.212 12.8554 1134 59.5441 1180.81 550.094
305 0 90.2909 12.3268 1113 60.5786 1180.74 548.102
306 0 94.3465 13.1748 1243 59.1488 1180.39 547.023
307 1 52.122 9.28591 484 59.686 1181.17 570.554
308 0 53.1991 10.9212 581 58.2083 1180.7 569.446
309 0 56.1754 11.3751 639 57.2379 1180.65 567.831
310 0 58.3545 11.3445 662 57.3505 1180.73 565.902
311 0 58.3467 10.5919 618 58.3689 1181.54 564.828
312 0 61.254 10.334 633 58.8231 1181.44 564.302
313 0 63.2174 10.9147 690 57.5014 1181.28 564.535
314 0 66.2254 10.8569 719 57.1071 1181.35 563.36
315 0 68.4199 11.9556 818 56.7506 1180.76 561.643
316 0 68.5639 12.4847 856 56.2967 1181.51 560.438
317 0 70.2537 12.8961 906 56.6369 1181.82 557.598
318 0 73.2777 13.4966 989 55.8928 1181.19 556.1
319 0 73.5523 13.0383 959 57.2659 1181.06 556.748
320 0 75.5291 12.2734 927 57.822 1180.8 555.507
321 0 81.3487 13.8908 1130 55.3788 1180.72 554.581
322 0 82.3527 13.3693 1101 56.8074 1180.79 554.354
323 0 86.4829 13.1471 1137 57.2023 1180.48 553.376
324 0 86.4497 12.516 1082 58.5259 1180.38 549.746
325 0 90.6226 12.8776 1167 57.9666 1179.92 550.158
326 0 90.4745 12.1692 1101 60.1935 1179.92 547.232
327 0 95.3455 13.9702 1332 57.8311 1180.09 544.451
328 1 54.2109 10.7358 582 59.9759 1179.36 567.383
329 0 56.2257 11.4538 644 59.1724 1178.79 566.671
330 0 56.2364 10.3136 580 60.7621 1179.13 567.897
331 0 61.3048 11.451 702 59.6296 1178.88 565.342
332 0 62.3354 11.6306 725 59.8138 1179.3 565.179
333 0 61.2809 11.4065 699 61.628 1179.34 563.029
334 0 66.399 12.5905 836 59.701 1178.82 561.768
335 0 66.1656 12.4989 827 60.2285 1179.84 562.544
336 0 68.2215 13.1484 897 59.3612 1179.38 561.401
337 0 69.34 12.4892 866 60.8868 1179.47 560.924
338 0 71.453 12.9456 925 60.8357 1179.22 559.85
339 0 75.3773 12.9747 978 60.9571 1178.93 559.466
340 0 77.4542 14.047 1088 59.6875 1179.1 559.298
341 0 79.4507 13.0144 1034 61.4043 1178.81 557.482
342 0 81.3712 13.506 1099 61.8935 1178.68 554.837
343 0 82.446 13.3057 1097 62.9234 1179.03 554.58
344 0 87.4703 14.0276 1227 61.8183 1178.99 553.341
345 0 89.3 14.0426 1254 62.1475 1178.72 552.459
346 0 92.3868 13.6167 1258 63.2448 1178.83 549.431
347 1 47.2139 10.9078 515 63.1398 1178.88 574.107
348 0 47.2901 10.6999 506 65.1779 1178.78 572.982
349 0 51.2089 11.1699 572 64.1136 1179 572.696
350 0 52.3585 11.3067 592 64.5591 1178.6 571.887
351 0 52.252 11.4445 598 64.5987 1178.32 570.341
352 0 55.2054 12.2633 677 63.3471 1178.83 570.261
353 0 53.2897 12.3101 656 64.8034 1178.84 569.578
354 0 57.3746 12.6188 724 63.8094 1179.05 569.595
355 0 57.3746 12.6537 726 163.942 1180.05 569.693
356 0 61.1793 12.1446 743 65.0377 1178.81 568.651
357 0 62.1285 12.6029 783 64.6552 1178.95 566.865
358 0 63.1588 12.904 815 64.8626 1179.01 567.301
359 0 64.114 12.3842 794 65.8728 1178.73 564.98
360 0 68.2584 12.7164 868 64.7823 1179.29 564.895
361 0 70.1494 12.9866 911 64.9319 1178.73 562.984
362 0 71.1855 13.3876 953 64.6243 1178.74 560.59
363 0 73.2362 13.5589 993 64.6506 1178.85 560.028
364 0 74.2171 11.6685 866 67.3903 1178.96 560.27
365 0 78.2504 13.3162 1042 64.7898 1179.03 558.169
366 0 81.1713 12.6769 1029 65.8183 1179.14 557.479
367 0 84.1772 12.9013 1086 65.0239 1179.62 554.285
368 0 84.1772 12.8776 1084 163.928 1180.62 554.3
369 1 48.0775 11.1903 538 64.2937 1181.02 572.721
370 0 50.0943 10.8396 543 63.6777 1181.13 573.735
371 0 51.1407 10.9111 558 64.3566 1181.09 572.353
372 0 52.1981 11.418 596 63.6527 1181.08 571.32
373 0 54.0877 11.7772 637 63.2559 1181.06 569.645
374 0 55.2554 11.5464 638 63.8887 1180.6 569.067
375 0 56.2033 11.5118 647 64.2566 1180.95 568.1
376 0 57.1518 11.7757 673 62.7563 1181.27 567.694
377 0 61.3005 11.5333 707 62.2051 1181.43 567.334
378 0 61.183 12.0458 737 62.3772 1181.24 567.064
379 0 64.3028 12.1612 782 62.5831 1181.31 563.648
380 0 66.1445 12.261 811 62.1554 1181.65 562.531
381 0 67.1999 11.9792 805 62.8708 1181.81 561.67
382 0 71.2399 12.9282 921 61.2226 1181.77 561.362
383 0 73.1988 11.1477 816 64.1225 1182.09 559.419
384 0 74.2671 12.1184 900 62.9767 1182.26 558.433
385 0 78.1858 11.8692 928 63.0647 1182.41 556.956
386 1 42.0957 10.3811 437 62.8513 1183.47 573.954
387 0 42.1598 10.4128 439 63.1435 1183.06 574.733
388 0 46.2963 10.2384 474 63.692 1183.03 572.527
389 0 46.28 11.2143 519 62.3006 1183.31 572.838
390 0 48.1847 9.98242 481 64.6091 1183.03 571.258
391 0 50.1875 10.9788 551 63.9819 1183.5 570.283
392 0 53.1135 12.0873 642 61.8972 1183.66 569.773
393 0 52.2791 12.3567 646 62.9598 1183.08 568.718
394 0 54.2267 11.747 637 64.4144 1183.28 568.041
395 0 56.2407 12.0731 679 63.9691 1183.41 565.923
396 0 57.2364 12.7367 729 63.0123 1183.51 567.781
397 0 59.2777 12.7535 756 63.1786 1183.99 566.661
398 0 59.1867 10.8639 643 66.3935 1183.84 565.14
399 0 63.0825 11.6673 736 64.4742 1184.02 564.288
400 0 63.0825 11.6831 737 160.408 1184.02 564.351
401 0 67.2214 12.7043 854 63.8232 1183.66 561.144
402 0 68.1974 12.9331 882 63.7506 1183.71 560.905
403 0 71.1743 12.6591 901 63.6681 1183.59 560.456
404 0 72.2229 12.7799 923 64.5807 1183.47 557.978
405 0 75.2627 12.5294 943 64.8971 1183.64 557.322
406 0 77.1781 12.9052 996 64.3946 1183.76 556.883
407 0 79.1533 13.6318 1079 63.6441 1183.6 555.613
408 0 82.2342 12.4158 1021 65.4564 1183.6 553.058
409 1 44.0315 10.4016 458 64.4978 1184.45 575.251
410 0 45.043 10.5899 477 64.434 1184.39 574.405
411 0 46.0757 11.5462 532 64.8045 1184.22 570.613
412 0 48.0881 11.7701 566 63.9647 1184.17 570.505
413 0 49.134 11.9469 587 63.3731 1184.19 570.087
414 0 50.2698 12.3334 620 62.0452 1182.7 570.16
415 0 50.2922 11.5724 582 64.5979 1183.08 570.316
416 0 50.1886 12.0346 604 64.9917 1182.95 569.111
417 0 53.2962 12.1397 647 64.4544 1182.38 568.252
418 0 55.2537 12.0173 664 65.122 1182.65 567.736
419 0 56.2583 12.6559 712 63.8315 1182.06 567.059
420 0 59.2845 13.14 779 62.5866 1181.92 566.394
421 0 59.2686 13.1436 779 63.6085 1181.76 565.949
422 0 60.1743 12.3142 741 64.9393 1181.17 564.982
423 0 63.1613 12.4127 784 64.463 1181.46 564.68
424 0 64.2482 13.0587 839 63.2074 1180.92 562.646
425 0 66.2999 13.4389 891 63.3906 1180.75 562.042
426 0 69.2164 13.1327 909 63.2266 1180.64 562.919
427 0 71.2755 13.8336 986 62.6866 1180.34 561.053
428 0 72.1333 12.671 914 65.2615 1180.21 557.53
429 0 74.1921 12.9529 961 65.3985 1179.83 557.214
430 1 38.0831 9.13792 348 67.2529 1180.75 576.905
431 0 41.2192 10.4563 431 66.0209 1180.42 575.088
432 0 42.1912 11.3057 477 65.6562 1180.14 574.384
433 0 44.096 11.8151 521 65.3493 1180.45 573.361
434 0 46.1433 12.5262 578 64.481 1180.33 572.801
435 0 47.2153 12.4324 587 65.2453 1179.35 572.044
436 0 46.3234 12.5423 581 66.537 1179.21 571.971
437 0 48.1787 12.9933 626 65.869 1179.42 571.324
438 0 49.2597 12.6473 623 66.9518 1179.26 571.376
439 0 51.2849 13.1618 675 65.9156 1179.27 570.757
440 0 52.1985 12.7015 663 67.0845 1178.86 569.854
441 0 54.353 12.4004 674 67.3947 1178.49 569.682
442 0 55.2106 13.0591 721 66.7545 1179.11 569.936
443 0 56.3411 12.9923 732 66.8156 1178.33 568.818
444 0 58.2485 13.1505 766 66.6044 1179.36 568.792
445 0 61.2663 13.0904 802 66.3641 1179.46 567.772
446 0 61.2852 13.2985 815 66.1914 1179.45 567.417
447 0 62.2675 13.442 837 66.73 1179.16 565.343
448 0 66.2528 13.8862 920 64.775 1179.12 565.787
449 0 69.3051 12.7263 882 66.5125 1179.52 564.107
450 0 69.3479 13.3674 927 66.0626 1179.27 562.867
451 0 72.1649 13.8572 1000 64.963 1179.83 561.696
452 0 74.1536 14.0654 1043 64.9933 1179.68 559.85
453 0 77.2319 13.0645 1009 65.9336 1179.21 560.186
454 0 80.2601 13.7802 1106 64.7052 1179.54 558.873
455 0 82.2713 12.5317 1031 66.4287 1179.26 556.809
456 1 44.2508 11.2314 497 65.6499 1179.51 577.62
457 0 45.2009 10.4201 471 67.034 1179.25 575.788
458 0 47.2547 11.0677 523 66.6157 1179.25 575.449
459 0 48.1437 12.2965 592 65.6047 1179.43 573.897
460 0 50.1447 12.1648 610 65.5492 1179.84 574.177
461 0 53.2568 12.7871 681 65.5668 1179.27 572.398
462 0 53.1578 11.8327 629 67.5978 1179.36 571.183
463 0 54.1622 12.6472 685 66.5066 1179.22 571.638
464 0 56.3517 11.9428 673 67.6018 1179.55 569.733
465 0 57.3547 12.3094 706 67.4363 1179.34 570.537
466 0 60.1401 12.9365 778 66.9049 1179.08 568.536
467 0 62.087 12.869 799 66.5957 1179.04 568.825
468 0 64.159 12.7807 820 66.739 1179.15 568.691
469 0 66.2456 12.4687 826 67.2651 1178.95 566.695
470 0 68.2059 12.8141 874 66.9325 1179.21 564.6
471 0 71.1966 12.9501 922 65.6182 1179.36 565.86
472 0 74.1865 13.4391 997 65.2578 1178.85 564.586
473 0 76.1295 13.0304 992 66.9093 1179.24 560.099
474 0 78.1043 12.5473 980 67.0592 1179.13 561.014
475 0 81.1761 13.0087 1056 66.6411 1179.13 558.632
476 0 85.1061 13.2658 1129 65.636 1179.51 558.617
477 0 88.2455 13.1905 1164 65.6856 1179.21 555.034
478 0 92.1653 12.8465 1184 65.815 1179.28 554.181
479 1 47.1111 9.31839 439 66.6059 1180.31 577.107
480 0 50.1156 11.2141 562 64.5552 1180.41 573.135
481 0 52.0618 10.8141 563 63.968 1180.54 574.989
482 0 53.0798 12.095 642 62.7555 1180.58 573.322
483 0 56.1807 12.353 694 63.4841 1180.2 571.542
484 0 56.1807 12.3352 693 162.916 1180.19 571.55
485 0 58.1655 12.6192 734 63.7439 1180.44 570.016
486 0 60.3034 11.8899 717 64.159 1180.81 568.587
487 0 63.1678 12.443 786 62.7672 1180.82 569.603
488 0 62.1722 11.3877 708 161.569 1180.71 568.047
489 0 67.2591 12.7418 857 62.3559 1180.69 565.266
490 0 69.2009 12.8322 888 62.3705 1180.64 565.043
491 0 71.2833 12.9764 925 62.5989 1180.55 563.264
492 0 71.2317 11.5398 822 65.163 1180.84 563.331
493 0 76.2837 13.2401 1010 62.4624 1180.61 561.047
494 0 78.1709 12.8181 1002 63.3952 1180.74 559.742
495 0 80.1786 12.4597 999 62.8599 1180.77 559.026
496 0 82.1885 12.6538 1040 63.1356 1180.46 555.361
497 1 40.0835 9.60495 385 62.7299 1181.71 577.881
498 0 41.087 11.2444 462 61.5823 1181.76 575.801
499 0 42.0827 10.3843 437 62.6613 1181.88 575.586
500 0 44.0416 11.2167 494 61.334 1181.62 575.617
501 0 46.3896 12.6968 589 60.0815 1180.81 574.222
502 0 48.2618 11.8313 571 61.5972 1180.63 573.718
503 0 49.2404 12.1039 596 61.8054 1180.52 572.451
504 0 49.2473 12.4271 612 61.866 1180.64 572.126
505 0 51.3612 11.8961 611 63.2324 1180.59 571.908
506 0 53.3482 12.4653 665 61.6602 1180.62 570.395
507 0 53.3482 12.4653 665 153.385 1180.62 570.395
508 0 56.3374 12.7979 721 60.7295 1180.75 569.344
509 0 57.187 13.3947 766 60.8995 1180.97 567.312
510 0 59.1786 12.7749 756 61.5106 1180.58 567.356
511 0 61.2072 12.1718 745 62.2389 1180.97 565.828
512 0 63.2312 12.9208 817 61.5471 1180.54 565.977
513 0 64.1556 12.7035 815 62.4798 1181 564.499
514 0 70.2559 13.1234 922 60.8905 1181.02 562.279
515 0 70.1551 14.0403 985 60.3472 1180.45 560.356
516 1 37.1361 11.1213 413 60.6295 1182 578.107
517 0 39.1453 10.857 425 60.0659 1182.09 578.374
518 0 39.1726 10.3644 406 60.697 1181.98 578.404
519 0 42.1269 11.6315 490 59.0673 1181.82 576.798
520 0 44.2114 12.3498 546 58.8736 1182.21 575.52
521 0 45.1535 12.6458 571 58.7426 1181.57 573.266
522 0 47.2855 12.5197 592 58.5203 1181.15 574.564
523 0 47.2278 11.3704 537 60.2756 1180.79 572.579
524 0 50.2601 12.6144 634 58.7303 1181.38 571.886
525 0 52.1762 12.7644 666 58.7282 1181.65 571.514
526 0 51.3982 12.1794 626 60.6917 1181.46 570.789
527 0 55.3082 13.018 720 59.2014 1181.8 569.985
528 0 55.2244 12.6393 698 60.2808 1181.6 568.348
529 0 56.2358 12.8032 720 60.5444 1181.72 569.288
530 0 58.3218 12.9111 753 60.3373 1181.75 567.376
531 0 61.193 12.959 793 59.6797 1181.79 567.415
532 0 64.4457 14.0894 908 57.891 1182.02 564.996
533 0 64.2042 13.0365 837 59.9988 1181.87 564.489
534 0 66.208 13.5633 898 59.1136 1182.07 564.248
535 0 68.2101 14.6313 998 58.0471 1181.96 561.546
536 0 69.3172 13.2867 921 59.5136 1181.86 562.306
537 0 72.1636 13.3585 964 59.1546 1182.18 560.321
538 0 74.1735 13.2123 980 59.4204 1182.45 558.316
539 0 76.1148 12.2709 934 60.5139 1181.73 557.135
540 0 79.1002 13.5271 1070 59.1 1181.71 556.137
541 0 81.1487 13.3582 1084 59.5387 1181.65 554.557
542 0 86.1252 14.119 1216 57.9482 1181.42 553.623
543 0 87.3781 13.8593 1211 58.7787 1181.34 552.256
544 1 46.3078 11.0996 514 59.4903 1181.3 573.702
545 0 45.2618 10.141 459 60.6732 1181.36 574.723
546 0 47.3212 10.6083 502 60.5418 1181.15 572.052
547 0 49.2841 13.3106 656 57.093 1180.73 571.976
548 0 49.2676 12.4017 611 58.8658 1180.45 570.293
549 0 51.2709 12.5997 646 58.4288 1180.41 569.932
550 0 54.1549 12.7782 692 57.7355 1180.38 570.033
551 0 55.2671 13.1 724 57.3287 1180.41 570.772
552 0 56.2972 12.132 683 59.366 1180.19 568.643
553 0 55.2485 12.2899 679 59.7761 1180.08 568.324
554 0 61.2203 13.3126 815 57.454 1180.27 567.125
555 0 61.1846 13.5655 830 58.0036 1179.65 565.786
556 0 62.2643 12.8163 798 59.2782 1179.9 565.873
557 0 64.1809 13.5554 870 58.3805 1179.92 564.111
558 0 69.2443 13.4307 930 58.0989 1179.79 562.653
559 0 70.2817 13.6451 959 58.0907 1179.64 562.079
560 0 73.3671 13.671 1003 58.1446 1180 560.526
561 1 36.4088 11.7554 428 59.1402 1180.33 576.97
562 0 38.3053 9.94641 381 61.1864 1180.14 577.381
563 0 41.2358 10.7673 444 60.5991 1179.73 576.367
564 0 44.2764 11.6541 516 59.2597 1179.94 575.167
565 0 45.2915 12.0552 546 59.0769 1179.54 575.07
566 0 47.1594 11.3657 536 59.9608 1178.87 573.726
567 0 47.1174 12.3309 581 59.537 1178.9 572.365
568 0 51.3194 13.3283 684 58.1915 1178.73 571.822
569 0 51.2732 12.2286 627 59.9841 1178.95 571.234
570 0 53.1086 12.8416 682 59.327 1179.81 570.556
571 0 52.1194 13.6801 713 59.4236 1179.35 568.882
572 0 55.1311 13.4588 742 59.2089 1179.76 568.813
573 0 57.1779 13.2919 760 59.3882 1179.63 567.851
574 0 59.1746 13.6207 806 59.0521 1179.08 568.387
575 0 60.2243 13.6822 824 59.0971 1178.84 567.63
576 0 61.2367 13.0641 800 61.0425 1178.38 565.513
577 0 63.2509 13.5492 857 60.0677 1178.24 566.471
578 0 65.3338 13.0713 854 60.7564 1178.12 564.568
579 0 67.3407 13.5876 915 60.2033 1177.74 564.08
580 0 70.2004 12.8062 899 61.2514 1178.04 562.647
581 0 72.2196 13.1405 949 60.8051 1177.94 562.332
582 0 73.6366 14.0555 1035 59.8783 1177.37 560.877
583 0 75.2633 13.0741 984 61.3232 1177.28 561.584
584 0 79.5458 13.7908 1097 60.3437 1177.87 560.53
585 0 80.3368 13.4807 1083 61.6427 1177.57 557.594
586 0 85.3299 13.5943 1160 60.4983 1177.53 557.103
587 1 44.1778 10.6388 470 61.5426 1178.09 576.623
588 0 44.2692 11.2268 497 61.7726 1178.05 575.962
589 0 46.2963 12.096 560 61.5857 1177.58 574.196
590 0 48.2754 11.9108 575 61.7878 1178.17 573.725
591 0 50.2496 12.4578 626 61.4665 1177.58 573.228
592 0 52.2632 12.8197 670 61.0821 1177.26 572.594
593 0 53.3308 12.4693 665 62.0271 1177.46 571.931
594 0 53.2187 12.0634 642 62.5031 1177.66 571.687
595 0 57.384 13.4881 774 59.4677 1177.16 570.729
596 0 59.4714 12.3757 736 60.3696 1177.12 571.582
597 0 62.2575 12.7374 793 60.1425 1177.54 568.615
598 0 63.2174 12.5598 794 60.262 1177.63 567.475
599 0 65.2351 11.9108 777 60.7658 1177.88 567.55
600 0 66.2013 12.1146 802 60.4713 1177.81 565.867
601 0 70.3004 12.1336 853 60.0176 1177.44 564.116
602 0 73.1679 12.7652 934 58.879 1177.39 563.666
603 0 74.1516 12.4205 921 59.519 1177.3 563.45
604 0 78.1893 12.0733 944 59.7097 1177.38 563.594
605 0 79.2913 12.2208 969 59.839 1177.81 560.883
606 0 82.3495 12.8355 1057 58.6197 1177.27 559.818
607 0 85.3917 12.9872 1109 59.9405 1177.01 556.372
608 1 47.2595 10.2836 486 60.0926 1177.45 577.924
609 0 47.2898 11.2075 530 60.0774 1177.27 576.049
610 0 49.3382 11.9785 591 59.6937 1177.18 575.528
611 0 49.3382 11.9583 590 164.524 1177.17 575.525
612 0 52.4008 11.9273 625 60.3568 1177.74 573.034
613 0 53.3514 12.8019 683 60.6999 1177.63 572.613
614 0 55.2851 13.1138 725 60.5517 1177.07 571.857
615 0 56.3202 11.8963 670 61.9313 1177.98 571.137
616 0 56.1691 12.8184 720 61.8194 1177.58 569.751
617 0 57.144 12.0748 690 62.6884 1177.54 569.578
618 0 61.3075 12.2497 751 61.8895 1177.51 568.557
619 0 62.2475 12.6913 790 61.6519 1177.29 566.267
620 0 63.5843 11.7324 746 63.0067 1177.39 565.832
621 0 67.3758 13.536 912 60.5592 1177.34 565.206
622 0 68.2661 13.9601 953 60.5582 1177.95 563.957
623 0 72.1843 13.6179 983 60.2055 1177.89 563.392
624 0 73.3208 13.2568 972 61.6142 1177.87 561.791
625 0 75.3553 12.6468 953 62.1826 1177.93 561.326
626 0 79.3614 13.1928 1047 60.9245 1178.04 558.679
627 0 80.3025 12.6646 1017 61.885 1178.15 558.641
628 0 83.252 13.4171 1117 61.4127 1178.25 556.518
629 0 86.3224 13.7739 1189 61.0656 1178.18 556.039
630 0 88.2473 12.1703 1074 63.3706 1178.18 554.006
631 1 51.1822 10.2184 523 62.2008 1178.56 573.493
632 0 50.2973 10.6964 538 62.0651 1178.71 573.796
633 0 54.2377 12.2424 664 59.6401 1178.75 572.551
634 0 55.3708 11.6849 647 60.9722 1178.62 571.598
635 0 56.3068 12.7161 716 59.6466 1179.05 572.265
636 0 57.3324 12.5583 720 60.2194 1179.62 568.99
637 0 61.2368 12.7374 780 59.3833 1179.74 568.301
638 0 63.3249 13.5808 860 58.043 1179.68 565.484
639 0 65.2939 12.8802 841 58.8407 1179.76 567.451
640 0 67.3489 12.8436 865 59.2462 1179.89 565.457
641 0 69.3251 12.6938 880 59.7159 1179.93 563.251
642 0 72.4692 13.6196 987 58.5552 1180.16 561.34
643 0 75.454 14.0615 1061 57.8087 1180.46 560.392
644 0 76.5138 13.2264 1012 59.083 1181.12 559.222
645 0 79.56 12.9713 1032 59.7219 1180.77 556.443
646 0 80.5306 13.2124 1064 59.8346 1180.53 556.615
647 0 83.3986 13.4415 1121 59.8492 1180.79 554.161
648 0 87.4051 13.6605 1194 59.3719 1181.17 554.232
649 0 88.3051 13.6006 1201 59.8609 1181.02 554.268
650 0 91.4261 13.366 1222 60.3478 1181.29 551.916
651 0 92.3081 12.8158 1183 61.4167 1182.46 550.74
652 0 95.5672 12.7031 1214 62.0247 1181.62 546.026
653 0 101.307 13.77 1395 60.314 1181.26 546.441
654 1 56.339 11.2178 632 62.6946 1181.01 567.571
655 0 58.2166 11.5088 670 61.0851 1181.77 569.145
656 0 60.3161 11.705 706 61.7252 1182.12 566.446
657 0 63.2356 12.5404 793 59.7945 1181.87 566.303
658 0 64.3606 12.1348 781 61.0781 1181.67 564.079
659 0 67.364 12.3657 833 60.5822 1181.71 565.114
660 0 68.3867 12.5463 858 60.3368 1181.72 562.066
661 0 70.4035 12.7124 895 60.4894 1181.97 559.469
662 0 74.487 12.4988 931 60.0226 1181.79 556.988
663 0 78.7354 14.0598 1107 57.4435 1182.04 555.284
664 0 80.4533 12.5912 1013 59.2537 1182.38 555.774
665 0 82.2994 12.4181 1022 59.8816 1182.1 553.852
666 0 86.3283 13.3907 1156 58.7734 1181.91 552.201
667 0 86.2796 13.1665 1136 59.9577 1181.57 551.86
668 0 91.611 14.2232 1303 58.0821 1181.93 551.092
669 1 43.4001 10.3456 449 61.2984 1182.1 574
670 0 44.3405 10.6674 473 60.3214 1181.68 572.901
671 0 45.1229 12.0338 543 60.3738 1181.8 569.63
672 0 48.3853 13.2065 639 58.7793 1181.76 570.194
673 0 49.2287 11.7614 579 60.7409 1181.9 569.888
674 0 51.2925 12.9844 666 60.1667 1182.15 567.841
675 0 52.4263 12.9706 680 60.9559 1182.5 566.903
676 0 53.2164 12.3834 659 61.9545 1182.48 567.414
677 0 54.1237 12.8964 698 61.5086 1182.71 566.408
678 0 56.1905 13.4542 756 60.9709 1182.77 564.624
679 0 57.3221 13.7992 791 60.5474 1182.93 564.359
680 0 60.3057 13.3652 806 61.1787 1182.67 562.326
681 0 61.2465 13.0456 799 61.9249 1182.77 563.115
682 0 64.343 14.4849 932 60.1073 1182.84 561.559
683 0 65.1749 13.5175 881 61.9296 1182.82 560.901
684 0 66.3943 13.7964 916 62.1823 1182.8 560.124
685 0 69.4762 14.0192 974 61.96 1182.34 559.814
686 0 71.42 12.8535 918 63.6351 1182.16 556.407
687 0 74.3373 13.8423 1029 62.897 1182.35 556.434
688 0 76.4901 14.5509 1113 62.2058 1182.12 556.521
689 0 78.2513 14.7218 1152 62.5278 1182.26 554.591
690 0 81.3283 14.5829 1186 62.6813 1181.99 551.787
691 0 84.3628 15.137 1277 61.7894 1181.93 552.045
692 1 44.1774 12.1782 538 64.1877 1182.34 572.331
693 0 44.5162 12.1304 540 64.8481 1182.07 572.528
694 0 45.2844 12.3442 559 64.8157 1182.44 571.589
695 0 46.7065 12.4822 583 64.6123 1182.18 571.115
696 0 48.6291 12.9758 631 63.6862 1182.65 571.146
697 0 50.2727 13.2875 668 63.268 1183.02 570.479
698 0 52.4841 14.4234 757 61.3937 1182.84 568.679
699 0 52.2769 13.7537 719 63.0167 1182.48 567.765
700 0 52.517 12.853 675 64.0237 1182.41 567.936
701 0 56.4022 13.8115 779 62.122 1182.16 566.579
702 0 59.3938 14.3113 850 61.2918 1181.86 564.801
703 0 59.3854 13.8418 822 62.5718 1181.59 564.309
704 0 62.3714 14.5099 905 62.8398 1181.72 564.571
705 0 65.482 13.8359 906 65.681 1181.54 563.321
706 0 67.3214 14.869 1001 67.016 1181.17 563.808
707 0 68.21 14.9098 1017 68.6903 1181.32 559.983
708 0 71.2648 15.0144 1070 71.6458 1181.42 561.646
709 0 73.4329 14.9388 1097 80.7612 1181.16 559.875
710 0 74.6146 14.8228 1106 68.7929 1181.24 559.005
711 0 76.2367 14.127 1077 70.9071 1181.63 556.658
712 0 80.3266 15.1506 1217 70.2087 1181.31 556.485
713 0 83.5367 15.2029 1270 70.7976 1180.88 554.431
714 0 84.5801 15.0626 1274 72.3093 1181.32 553.641
715 0 86.201 14.5938 1258 74.3521 1181.21 553.624
716 0 89.4594 14.5541 1302 75.3579 1180.98 551.412
717 0 92.5725 14.7776 1368 75.682 1180.87 550.132
718 1 48.6622 12.2066 594 79.298 1180.88 571.256
719 0 51.1882 12.4443 637 78.8085 1180.99 569.604
720 0 51.1882 12.4052 635 170.003 1180.97 569.683
721 0 51.1882 12.5029 640 168.928 1180.98 569.803
722 0 55.2423 14.3006 790 79.8013 1180.66 568.441
723 0 57.4015 14.5641 836 80.5167 1180.46 566.489
724 0 60.3684 13.4342 811 82.0358 1180.39 565.279
725 0 61.2998 14.2415 873 82.2085 1180.18 563.78
726 0 65.4113 14.126 924 81.2273 1180.59 562.858
727 0 66.3808 13.9498 926 82.8186 1180.14 563.353
728 0 66.162 13.1193 868 85.1532 1180.28 563.886
729 0 70.2872 14.4123 1013 83.0217 1180.31 563.581
730 0 71.39 13.3212 951 85.531 1179.99 562.034
731 0 75.2376 15.2052 1144 83.5743 1179.64 560.932
732 0 75.2038 14.8929 1120 84.5607 1179.68 560.669
733 0 79.4089 14.3435 1139 85.4881 1179.46 557.956
734 0 82.2675 14.3921 1184 86.6706 1179.16 555.662
735 0 86.4932 14.926 1291 85.2169 1178.75 553.668
736 0 88.1913 14.7974 1305 86.633 1179.07 554.382
737 0 90.2114 14.4549 1304 87.6641 1178.74 553.11
738 0 94.3404 13.5573 1279 88.8866 1178.41 553.795
739 0 93.4474 13.4514 1257 90.0907 1178.48 551.759
740 1 53.1012 12.9376 687 89.0058 1178.71 570.017
741 0 56.2403 13.5312 761 88.4862 1178.81 569.172
742 0 56.2403 13.6023 765 148.707 1178.81 569.119
743 0 59.1475 13.3395 789 89.4449 1178.35 568.987
744 0 60.1565 13.9968 842 89.6378 1178.79 567.825
745 0 60.1107 12.7764 768 92.2279 1178.84 566.59
746 0 66.1072 13.2815 878 91.7699 1178.73 565.886
747 0 67.1449 13.9996 940 91.4074 1178.88 566.153
748 0 69.1486 14.2013 982 92.1059 1178.34 565.669
749 0 67.1583 12.5227 841 95.61 1178.45 564.427
750 0 75.1545 14.4502 1086 94.3398 1178.47 561.089
751 0 75.1491 14.8505 1116 95.8297 1178.28 560.756
752 0 77.2063 14.3382 1107 84.7995 1178.15 560.045
753 0 81.0869 13.6027 1103 86.4723 1177.89 558.504
754 0 81.1724 14.463 1174 85.2402 1177.66 557.677
755 0 84.1075 14.3269 1205 86.1187 1177.67 556.054
756 0 88.1662 14.6768 1294 85.4513 1177.75 555.349
757 0 92.1812 14.4715 1334 85.4468 1177.83 554.384
758 0 92.114 13.4616 1240 88.4879 1177.94 552.872
759 0 96.1669 15.3275 1474 85.0943 1177.56 553.339
760 0 97.1782 14.6946 1428 86.9552 1177.7 549.127
761 0 97.094 12.5651 1220 88.9926 1177.48 551.625
762 0 99.1241 11.7328 1163 89.2726 1177.12 553.844
763 1 56.1125 11.2809 633 84.0758 1178.16 573.044
764 0 59.1258 12.0759 714 84.7493 1178.16 570.235
765 0 64.23 11.4433 735 84.4721 1177.64 569.35
766 0 65.1318 12.5131 815 83.3718 1176.87 568.897
767 0 67.1567 12.6123 847 82.9658 1176.2 566.963
768 0 67.3686 12.5875 848 83.4552 1176.46 565.522
769 0 71.4867 12.4219 888 82.7444 1176.29 566.856
770 0 74.2263 13.5666 1007 82.2691 1175.9 563.824
771 0 77.4747 13.2301 1025 83.082 1176.13 563.682
772 0 78.5159 12.2905 965 84.8974 1175.53 560.256
773 0 84.4533 10.9528 925 85.2443 1175.44 562.278
774 0 85.4774 13.2433 1132 84.4806 1175.53 559.198
775 0 87.5938 12.8776 1128 85.3174 1175.48 558.719
776 0 90.6449 13.2936 1205 86.3577 1175.71 556.13
777 0 92.3131 13.3026 1228 87.1368 1175.2 556.522
778 1 49.479 9.11497 451 86.1685 1175.54 577.945
779 0 51.3533 10.3596 532 80.3346 1175.34 576.352
780 0 52.3452 12.3603 647 80.0479 1175.45 573.977
781 0 53.405 11.0477 590 81.4169 1175.55 573.142
782 0 56.2772 12.2785 691 81.0478 1175.7 570.931
783 0 57.2711 11.9257 683 81.3045 1175.99 573.287
784 0 60.3948 12.2196 738 81.9715 1176.09 570.738
785 0 62.2177 12.1509 756 83.2037 1176.98 567.815
786 0 61.2882 11.8783 728 84.7514 1176.66 567.515
787 0 64.2471 11.7515 755 85.3404 1177.19 568.695
788 0 68.3172 12.5737 859 84.908 1177.27 567.348
789 0 70.237 11.8598 833 86.491 1177.47 565.071
790 0 73.2294 12.099 886 84.3521 1177.69 564.634
791 0 73.1905 14.9063 1091 82.1687 1177.93 561.33
792 0 76.1707 12.682 966 85.1884 1178.1 562.503
793 0 78.2779 11.7019 916 86.2216 1178.34 561.349
794 0 79.3178 12.8723 1021 86.5808 1178.18 558.843
795 0 83.1991 12.2357 1018 87.5383 1178.42 557.988
796 0 86.2342 13.5213 1166 86.3122 1178.63 557.768
797 0 90.4086 12.344 1116 88.8271 1178.87 553.352
798 0 97.2424 10.3967 1011 83.0554 1178.69 553.828
799 0 96.1977 12.4951 1202 82.6622 1179.28 550.74
800 0 98.3494 12.2217 1202 83.8552 1179.61 550.553
801 0 99.2372 13.4123 1331 83.9639 1179.81 545.627
802 1 56.2822 9.9854 562 83.0658 1180.76 571.23
803 0 57.0808 11.4399 653 83.2726 1180.65 570.152
804 0 57.0778 11.3704 649 85.7442 1180.4 567.553
805 0 59.1119 12.857 760 85.6132 1180.26 569.775
806 0 60.2433 12.1673 733 87.1801 1180.49 568.441
807 0 63.2986 11.7222 742 88.0391 1180.31 566.616
808 0 67.2449 11.644 783 88.4981 1180.53 564.321
809 0 68.3766 12.0948 827 88.2273 1180.73 563.333
810 0 77.1371 11.6805 901 87.8557 1180.77 563.689
811 0 75.2464 12.0271 905 89.5768 1180.83 561.159
812 0 74.2403 11.9881 890 90.8213 1180.42 561.148
813 0 76.2396 11.3327 864 91.2523 1180.93 564.02
814 0 74.1988 12.1296 900 92.7433 1180.34 555.958
815 0 81.2231 13.8754 1127 90.4339 1180.8 555.012
816 0 80.2888 11.4711 921 93.3398 1180.93 557.005
817 0 86.1042 12.0435 1037 93.0444 1180.41 554.727
818 0 87.1561 13.1488 1146 93.0297 1180.9 553.497
819 0 94.1625 14.1245 1330 92.1955 1180.98 552.274
820 0 93.342 11.7311 1095 96.9379 1180.75 549.75
821 0 97.4333 12.1006 1179 97.447 1180.86 548.345
822 0 102.445 12.0943 1239 99.3479 1180.25 547.01
823 0 101.356 12.0763 1224 101.472 1180.17 546.017
824 1 58.189 12.5625 731 99.301 1180.3 568.466
825 0 58.2266 12.5029 728 99.4423 1180.45 565.407
826 0 60.3327 12.9946 784 95.0115 1179.98 564.593
827 0 61.1427 12.5771 769 96.4317 1180.15 564.685
828 0 65.2946 13.0026 849 97.159 1179.91 563.329
829 0 66.2705 13.0224 863 97.9664 1179.84 563.194
830 0 64.3025 12.9233 831 96.7665 1179.99 563.918
831 0 67.2764 11.5048 774 98.8088 1180.73 566.039
832 0 67.3526 12.3084 829 100.726 1180.07 565.408
833 0 63.2365 10.4845 663 103.632 1179.63 562.887
834 0 75.1946 12.727 957 102.621 1179.2 558.534
835 0 75.2537 11.6406 876 106.543 1178.51 558.54
836 1 85.1992 11.9837 1021 76.0901 1178.99 555.335
837 0 86.2683 14.1303 1219 71.1698 1178.28 554.64
838 0 88.1802 12.4518 1098 72.4153 1178.32 553.444
839 0 91.117 12.3797 1128 72.3839 1178.12 551.864
840 0 91.117 12.3687 1127 161.582 1179.13 551.937
841 1 51.1289 12.2045 624 68.9038 1178.08 572.482
842 0 51.202 12.4605 638 70.7006 1178.42 569.639
843 0 52.2171 11.9501 624 71.6202 1178.79 570.659
844 0 55.2793 13.1514 727 70.4429 1178.53 568.916
845 0 56.1907 12.8135 720 71.4292 1178.37 570.288
846 0 56.257 12.9228 727 72.5062 1178.34 568.835
847 0 60.2641 12.495 753 72.8964 1178.27 568.547
848 0 64.153 12.5949 808 72.9542 1178.24 567.054
849 0 63.2768 13.2908 841 73.5482 1178.16 565.716
850 0 66.2353 13.0142 862 73.6392 1178.11 564.566
851 0 65.2938 13.6154 889 73.8684 1178.3 563.235
852 0 70.3115 13.682 962 72.8919 1178.17 562.545
853 0 72.2922 13.1688 952 73.9989 1178.05 562.951
854 0 74.2808 13.4086 996 73.7189 1178.63 560.505
855 0 73.2128 13.6315 998 74.3046 1177.87 558.66
856 0 78.2442 14.1864 1110 73.5955 1178.16 558.038
857 0 81.4392 14.3297 1167 72.9383 1178.18 558.756
858 0 81.4466 12.7077 1035 75.7208 1177.99 556.466
859 0 84.4404 13.1572 1111 75.4878 1178.24 555.647
860 0 87.3174 13.491 1178 74.0323 1177.47 552.947
861 0 89.4662 13.8376 1238 73.0008 1177.87 554.163
862 1 50.3236 11.3068 569 72.7487 1177.54 569.967
863 0 51.2957 11.0926 569 73.2039 1177.71 570.64
864 0 53.287 12.5547 669 70.7384 1178.54 569.329
865 0 54.2818 11.993 651 67.3763 1177.68 570.542
866 0 55.1323 12.4791 688 59.9927 1177.95 569.257
867 0 58.1978 13.0589 760 59.1447 1178.31 567.521
868 0 58.1503 12.9492 753 59.2417 1177.73 566.918
869 0 62.1138 13.2982 826 59.0944 1178.05 565.798
870 0 61.1543 12.8037 783 60.0064 1177.8 565.769
871 0 65.2648 13.5908 887 58.5975 1177.02 563.953
872 0 67.2187 13.4784 906 58.5155 1176.98 564.118
873 0 69.1705 14.0812 974 57.8172 1177.33 562.529
874 0 70.4057 13.479 949 58.7966 1176.78 562.013
875 0 73.2197 13.8897 1017 59.1288 1177.46 558.554
876 0 75.4936 13.3521 1008 59.0278 1177.45 558.594
877 0 79.1553 14.0357 1111 58.4392 1177.3 557.244
878 0 83.2611 13.7759 1147 58.7053 1177.38 557.959
879 0 83.5177 13.2547 1107 59.7651 1177.04 554.752
880 0 87.2431 13.514 1179 59.3444 1176.94 553.945
881 1 48.0506 11.8209 568 59.4384 1178.16 573.046
882 0 48.0857 10.5645 508 60.6299 1178.19 573.063
883 0 51.0755 10.9837 561 59.7576 1178.07 572.537
884 0 50.0871 11.7595 589 59.8676 1178.17 573.177
885 0 55.041 12.5906 693 58.1053 1178.24 572.326
886 0 56.1688 11.9817 673 59.5914 1177.63 571.782
887 0 56.1634 12.4102 697 59.5552 1177.54 570.499
888 0 60.1967 12.3595 744 59.3266 1177.7 568.152
889 0 60.1846 11.3318 682 60.4531 1177.78 567.831
890 0 63.195 13.0074 822 58.0389 1177.64 565.894
891 0 67.1545 12.6425 849 57.5795 1177.56 566.724
892 0 67.1551 12.8657 864 57.6933 1177.87 563.968
893 0 68.2059 12.5796 858 57.7855 1178.4 563.936
894 0 70.186 12.2247 858 59.0268 1178.53 562.066
895 0 71.2357 12.2972 876 58.8151 1179.09 561.196
896 0 74.2061 13.3277 989 57.8079 1179.08 556.389
897 0 76.224 13.1586 1003 58.2393 1179.19 555.463
898 0 80.2571 13.2325 1062 56.7542 1179.16 556.339
899 0 82.362 13.1007 1079 56.595 1179.17 554.036
900 0 84.2927 13.4175 1131 56.9859 1179.51 550.943
901 0 86.4243 14.0354 1213 56.3504 1179.39 549.354
902 0 88.3571 13.4907 1192 56.9295 1179.2 549.674
903 0 90.3793 13.1335 1187 57.7759 1179.4 547.56
904 0 94.3629 12.9712 1224 57.6985 1179.42 545.909
905 0 97.3587 13.7225 1336 57.125 1179.35 543.256
906 0 101.45 13.6619 1386 57.2814 1179.69 539.901
907 1 54.2029 10.7743 584 58.2243 1179.96 563.998
908 0 59.1995 12.2974 728 55.8709 1179.79 563.604
909 0 60.0635 12.0539 724 56.2776 1180.14 561.186
910 0 60.1258 10.9604 659 57.5432 1180.08 557.387
911 0 63.1505 12.8107 809 55.8084 1180.27 556.103
912 0 65.18 13.0255 849 55.689 1179.85 559.763
913 0 69.2379 13.042 903 55.7176 1181.92 559.617
914 0 68.0604 11.2106 763 58.6684 1182.03 560.024
915 0 70.0512 12.8192 898 57.5535 1181.82 556.795
916 0 71.0866 12.534 891 58.6352 1182.07 556.178
917 0 76.111 13.1256 999 58.047 1181.88 555.541
918 0 78.0341 12.8918 1006 59.2505 1182.23 553.939
919 0 82.1657 13.059 1073 58.617 1181.46 552.885
920 0 85.1077 12.5253 1066 59.6951 1181.67 552.145
921 0 90.1805 13.4065 1209 58.1034 1181.89 551.409
922 0 90.1221 13.626 1228 58.2606 1181.69 549.945
923 1 48.0446 10.8025 519 59.711 1181.35 570.518
924 0 51.1079 11.1333 569 59.71 1181.35 568.209
925 0 51.0867 11.2945 577 59.279 1181.28 567.404
926 0 54.1228 11.7511 636 58.739 1182.42 568.057
927 0 54.1684 12.2396 663 57.8567 1182.48 567.222
928 0 57.1478 13.0889 748 57.1765 1182.55 565.07
929 0 58.1833 12.2372 712 58.2921 1182.7 565.781
930 0 60.1205 13.1569 791 57.6802 1182.45 562.938
931 0 62.2578 12.7374 793 58.314 1182.58 562.972
932 0 64.2218 12.9863 834 57.9592 1182.42 562.158
933 0 66.3216 12.0473 799 59.4706 1182.41 561.354
934 0 70.209 12.8189 900 57.7722 1182.13 560.621
935 0 69.1797 12.1423 840 59.5083 1182.18 559.087
936 0 72.3095 12.9582 937 58.746 1182.29 556.933
937 0 72.27 12.9791 938 59.2122 1182.15 556.438
938 0 78.4682 12.9352 1015 59.0059 1181.36 554.426
939 0 79.2477 13.502 1070 58.8065 1181.95 552.893
940 0 80.3532 12.582 1011 60.1246 1181.91 552.95
941 0 84.2229 13.0606 1100 59.9473 1181.61 551.39
942 0 87.3486 13.3946 1170 59.4051 1181.4 550.678
943 0 89.2671 13.0171 1162 60.7771 1181.16 550.438
944 0 94.3208 13.6873 1291 59.5988 1180.76 549.227
945 0 94.1986 13.514 1273 60.7329 1180.37 546.495
946 1 55.0865 10.5652 582 62.6632 1180.43 565.873
947 0 54.0668 11.1159 601 62.604 1180.04 566.674
948 0 57.1155 10.9077 623 62.7287 1180.9 566.343
949 0 60.1075 11.729 705 62.7007 1180.48 566.152
950 0 60.088 13.3305 801 61.03 1180.12 564.4
951 0 62.1944 12.2037 759 62.3729 1180.17 564.051
952 0 65.0759 12.5853 819 61.9731 1180.18 564.05
953 0 67.14 13.1516 883 61.7973 1180.45 562.535
954 0 69.1147 12.8627 889 61.9573 1179.99 561.326
955 0 72.1509 12.9312 933 61.3708 1180.2 560.975
956 0 72.1724 12.9135 932 62.8734 1180.37 559.843
957 0 75.0735 12.5477 942 62.1868 1180.31 559.71
958 0 78.3107 13.5358 1060 60.5547 1179.8 556.065
959 0 80.1255 13.2168 1059 61.4438 1179.92 557.614
960 0 83.1748 13.1651 1095 61.4046 1179.74 554.565
961 0 85.1608 13.3277 1135 61.3313 1179.33 553.85
962 0 89.0975 13.0419 1162 60.7943 1180.06 551.992
963 0 92.1789 13.4087 1236 60.3252 1180.05 550.143
964 0 96.1132 14.0251 1348 59.566 1179.77 546.323
965 1 51.1027 11.9172 609 61.2627 1180.38 570.98
966 0 53.1002 10.7721 572 62.3409 1180.27 569.993
967 0 55.239 11.9843 662 61.1858 1179.87 569.31
968 0 56.0972 12.1218 680 61.2103 1179.84 568.64
969 0 59.0621 13.1895 779 59.9551 1179.81 566.293
970 0 61.1063 12.9774 793 60.3632 1179.85 567.45
971 0 63.1658 12.8076 809 60.5105 1179.65 566.794
972 0 66.2001 13.6556 904 59.5796 1180.02 563.604
973 0 67.1672 13.1463 883 60.2412 1179.61 563.827
974 0 67.1672 13.191 886 161.491 1178.62 563.78
975 0 71.1566 12.8449 914 61.0492 1179.04 560.515
976 0 75.1341 14.0549 1056 58.9508 1178.91 559.395
977 0 78.2664 14.1312 1106 58.7161 1178.9 557.63
978 0 80.2773 13.5156 1085 59.8157 1178.35 556.156
979 0 83.2443 13.995 1165 59.0678 1178.18 554.633
980 0 84.2224 14.153 1192 59.1049 1178 555.32
981 0 87.3037 13.6077 1188 59.9697 1178.24 552.252
982 0 90.2666 13.9697 1261 59.0738 1178.21 551.776
983 0 92.2411 13.5731 1252 59.8442 1178.06 550.719
984 0 95.3433 13.8237 1318 59.6085 1178.02 548.695
985 0 98.2167 14.356 1410 59.0433 1177.88 547.821
986 0 100.18 13.8152 1384 59.8121 1177.74 547.639
987 0 104.303 14.3045 1492 59.1535 1177.97 545.381
988 1 55.1694 11.5644 638 61.1614 1177.63 569.995
989 0 59.0873 12.1515 718 59.9067 1177.6 568.932
990 0 59.0398 12.229 722 60.2825 1177.44 569.086
991 0 63.1017 13.2802 838 58.6945 1177.56 565.899
992 0 64.3276 12.7472 820 57.9463 1177.24 564.24
993 0 66.2255 14.0429 930 57.0667 1177.39 563.128
994 0 69.347 13.93 966 55.8975 1177.08 564.107
995 0 68.242 13.3495 911 58.157 1177 560.616
996 0 71.3761 13.674 976 57.1834 1177.39 560.184
997 0 73.3117 13.5722 995 57.1206 1177.12 560.818
998 0 76.2457 13.6008 1037 56.9643 1176.96 556.922
999 0 79.2647 13.5748 1076 56.9489 1177.12 557.922
1000 0 83.3389 14.0391 1170 56.1342 1177.62 556.102
1001 0 83.4366 12.8001 1068 58.103 1177.36 554.696
1002 0 87.3331 13.9924 1222 56.1473 1177.27 551.724
1003 0 91.4832 13.8058 1263 55.8994 1176.69 550.266
1004 1 47.1578 11.9598 564 57.0053 1176.91 572.52
1005 0 49.2009 12.3372 607 56.6096 1177.18 573.071
1006 0 49.0597 12.4135 609 57.4499 1177.56 570.466
1007 0 52.2133 12.8894 673 56.0312 1177.73 571.706
1008 0 54.1374 12.4868 676 56.8476 1177.42 571.07
1009 0 55.489 13.2639 736 56.5503 1177.84 570.068
1010 0 57.1924 14.1103 807 55.2342 1177.67 568.359
1011 0 59.5758 13.8815 827 56.2817 1178.05 567.566
1012 0 61.2956 14.2425 873 55.9782 1177.89 564.97
1013 0 63.3004 13.6334 863 56.511 1177.73 565.531
1014 0 64.3408 14.2678 918 56.4368 1177.76 563.48
1015 0 68.1867 13.8297 943 56.3319 1177.58 562.006
1016 0 71.1901 14.9319 1063 54.9868 1177.42 559.138
1017 0 71.5691 14.3637 1028 56.1809 1177.54 559.966
1018 0 74.3159 13.5368 1006 56.8887 1177.3 559.346
1019 0 77.3997 13.8631 1073 56.5107 1177.46 558.815
1020 0 80.285 14.6104 1173 56.139 1177.5 555.218
1021 0 83.3877 14.2707 1190 56.0731 1177.28 554.632
1022 0 85.2619 14.6959 1253 56.2402 1177.9 550.838
1023 0 85.2619 14.6724 1251 166.387 1178.91 550.803
1024 0 92.3658 13.9554 1289 57.1575 1177.56 550.804
1025 0 95.6837 14.3076 1369 56.6245 1177.77 546.67
1026 1 48.3634 12.1579 588 58.4796 1177.81 569.236
1027 0 50.4194 11.5432 582 59.2904 1178.39 568.608
1028 0 52.2987 12.811 670 58.6164 1178.15 566.009
1029 0 55.5777 13.3327 741 57.5007 1178.11 566.692
1030 0 57.5577 13.9338 802 57.0087 1178.46 564.665
1031 0 61.9088 13.4714 834 56.7938 1178.54 564.114
1032 0 62.3894 13.8004 861 56.7886 1178.45 561.66
1033 0 65.6586 12.961 851 57.51 1179.11 562.663
1034 0 65.4484 13.7666 901 57.8036 1178.92 560.733
1035 0 68.3723 13.8945 950 57.7568 1179.07 559.482
1036 0 72.5632 14.0567 1020 57.3225 1179.16 558.248
1037 0 74.4711 14.4217 1074 57.0177 1179.67 558.374
1038 0 75.4323 13.8402 1044 58.3966 1179.58 555.917
1039 0 77.2187 13.9992 1081 58.7021 1179.95 554.232
1040 0 81.6137 13.7845 1125 58.5191 1180.3 554.545
1041 0 84.5149 13.8674 1172 59.0674 1180.63 550.079
1042 0 85.5465 13.6183 1165 59.9391 1180.66 549.068
1043 0 89.4099 13.1305 1174 60.2342 1181.06 548.451
1044 0 93.5505 12.9556 1212 60.7302 1180.93 546.691
1045 0 95.2943 13.7259 1308 60.3823 1180.97 543.333
1046 0 100.346 14.4001 1445 58.2574 1180.94 543.314
1047 0 102.416 13.2596 1358 60.3174 1181.44 540.303
1048 1 51.2078 10.4476 535 61.9421 1181.36 566.052
1049 0 56.4625 12.3268 696 59.0647 1181.07 566.078
1050 0 59.5204 12.6007 750 58.9667 1181.17 563.744
1051 0 58.5015 11.6236 680 61.4544 1181.6 563.385
1052 0 62.339 13.4587 839 58.9821 1181.72 561.106
1053 0 62.4681 13.4148 838 60.2315 1181.74 559.307
1054 0 66.3746 12.4295 825 60.6436 1181.88 560.625
1055 0 69.4031 12.5066 868 61.318 1181.98 558.803
1056 0 71.3379 12.8263 915 61.2962 1181.77 557.613
1057 0 72.2175 12.6285 912 62.6206 1181.56 555.61
1058 0 76.3608 13.1874 1007 61.8689 1181.5 555.466
1059 0 78.2011 13.1967 1032 62.3517 1181.35 553.001
1060 0 81.3067 13.5905 1105 61.8244 1181.65 553.948
1061 0 81.3172 12.9247 1051 63.6889 1182.08 551.71
1062 0 86.4005 12.0948 1045 64.2871 1181.66 552.265
1063 0 90.3798 13.8084 1248 62.3333 1181.15 548.506
1064 0 92.248 12.8458 1185 64.5165 1181.28 547.246
1065 0 95.2691 13.0577 1244 65.0129 1181.45 545.181
1066 1 50.1869 10.4808 526 66.0627 1181.13 567.47
1067 0 53.0911 11.6592 619 64.475 1181.25 567.25
1068 0 55.0644 11.3685 626 64.8514 1181.08 565.799
1069 0 56.1093 12.5648 705 64.1702 1181.77 564.465
1070 0 58.0758 11.9499 694 64.7637 1181.46 563.379
1071 0 61.1985 12.7291 779 63.4608 1181.15 563.53
1072 0 65.1721 12.1217 790 63.9772 1181.35 563.781
1073 0 67.2211 12.5407 843 63.9134 1181.61 562.327
1074 0 67.2783 12.8422 864 64.228 1181.45 560.578
1075 0 69.1305 13.4528 930 63.5957 1181.13 559.878
1076 0 71.3578 12.15 867 64.9758 1180.95 561.19
1077 0 74.2776 12.0629 896 65.5167 1180.72 558.287
1078 0 75.194 13.1127 986 65.1298 1180.57 558.3
1079 0 78.1695 12.7927 1000 65.143 1180.6 557.282
1080 0 82.251 13.1792 1084 64.5683 1180.7 555.504
1081 0 84.1644 13.2004 1111 64.5203 1180.24 554.18
1082 0 87.2087 13.1753 1149 64.7076 1180.18 553.042
1083 0 89.1564 12.6519 1128 65.7828 1180.36 550.044
1084 0 93.2614 13.6391 1272 64.2091 1180.24 549.926
1085 1 55.3098 10.3418 572 64.8094 1179.85 571.358
1086 0 55.1953 10.7255 592 64.2922 1180.03 571.184
1087 0 55.2243 11.571 639 63.7997 1180.2 570.604
1088 0 58.3632 11.3256 661 64.0439 1179.98 568.678
1089 0 58.3632 11.2914 659 158.358 1179.96 568.645
1090 0 59.1578 12.2723 726 63.9463 1180.11 567.464
1091 0 60.1324 11.8405 712 65.2612 1180.46 566.455
1092 0 65.1333 12.0829 787 64.2948 1180.37 566.117
1093 0 67.1601 12.4776 838 63.2411 1180.42 564.734
1094 0 68.1613 12.5585 856 63.8762 1180.29 562.474
1095 0 71.1041 12.2637 872 63.969 1181.03 561.854
1096 0 73.221 13.07 957 62.8757 1180.35 560.739
1097 0 75.2641 12.9411 974 63.0175 1180.24 559.837
1098 0 77.3662 12.5378 970 63.9031 1179.57 557.29
1099 0 80.3773 13.1007 1053 63.1216 1179.65 557.716
1100 0 82.284 13.2225 1088 62.8143 1179.66 555.689
1101 0 85.5792 13.1223 1123 63.1505 1179.8 553.76
1102 0 86.4432 12.702 1098 63.7423 1179.9 554.191
1103 1 47.2204 10.1651 480 63.4271 1179.91 575.479
1104 0 47.2204 10.1439 479 170.154 1179.91 575.405
1105 0 53.18 10.9252 581 62.4699 1179.21 572.043
1106 0 53.1732 10.588 563 63.4778 1178.66 572.641
1107 0 55.0452 11.863 653 62.6845 1179.52 571.74
1108 0 56.1032 11.5145 646 63.2183 1179.34 570.618
1109 0 59.2645 12.5201 742 61.655 1178.47 568.425
1110 0 61.079 12.2956 751 61.3302 1178.4 568.503
1111 0 60.2148 12.8374 773 61.1785 1178.07 568.181
1112 0 65.1111 12.7474 830 60.4145 1178.37 567.788
1113 0 66.1846 12.1176 802 61.0349 1178.75 567.112
1114 0 65.311 12.4175 811 61.6264 1178.5 566.356
1115 0 67.1443 12.1231 814 61.8194 1178.61 564.907
1116 0 69.1618 12.131 839 61.671 1178.17 564.995
1117 0 73.1548 13.3689 978 59.6933 1177.73 563.576
1118 0 72.1551 10.713 773 63.4166 1178.07 563.233
1119 0 76.1949 11.5887 883 61.7135 1178.11 562.873
1120 0 79.0997 12.1872 964 61.111 1177.87 559.906
1121 0 81.1623 12.7892 1038 60.947 1177.95 558.945
1122 0 83.1622 12.674 1054 60.8216 1177.93 558.112
1123 0 84.1831 12.7341 1072 60.7854 1177.3 555.965
1124 0 88.3095 12.8639 1136 59.7553 1177.75 554.535
1125 0 90.1896 12.3961 1118 60.2174 1177.49 554.327
1126 0 95.2396 13.5763 1293 58.6852 1177.7 552.707
1127 0 95.2396 13.5973 1295 155.754 1177.71 552.71
1128 1 55.1087 11.432 630 59.8857 1177.76 572.267
1129 0 54.1323 11.047 598 60.3495 1177.4 572.468
1130 0 57.2015 11.1536 638 60.2022 1178.01 570.387
1131 0 60.1035 12.4286 747 58.3748 1178.83 571.873
1132 0 60.1566 12.002 722 59.7091 1178.29 569.528
1133 0 61.0919 12.4239 759 60.1805 1179.38 568.042
1134 0 65.0641 12.3878 806 59.9764 1179.56 567.014
1135 0 66.1248 12.5974 833 59.7119 1179.62 566.146
1136 0 69.1387 12.5689 869 59.6824 1179.69 566.32
1137 0 70.1187 13.3203 934 59.0632 1179.05 564.232
1138 0 72.0371 12.4519 897 59.7949 1178.86 563.606
1139 0 75.1703 12.465 937 59.4141 1179.35 560.689
1140 0 77.1495 12.6637 977 59.2149 1179.44 559.016
1141 0 79.0865 12.4927 988 60.8563 1179.54 556.983
1142 0 81.1244 13.2266 1073 60.2721 1179.63 556.342
1143 0 85.0913 12.6335 1075 60.266 1179.93 555.864
1144 0 88.2136 12.7645 1126 60.4645 1179.53 553.86
1145 0 92.1904 13.3637 1232 59.0933 1179.73 552.743
1146 1 48.0847 10.4399 502 60.8625 1179.66 572.588
1147 0 51.1261 10.4252 533 60.8649 1179.76 573.291
1148 0 54.0691 11.1709 604 60.351 1180.43 571.267
1149 0 55.0521 10.9169 601 60.4476 1180.48 569.562
1150 0 58.0413 11.8364 687 59.1557 1180.94 568.86
1151 0 58.0602 11.4881 667 59.4903 1181.15 566.477
1152 0 62.0902 12.8039 795 58.795 1180.72 565.283
1153 0 62.1784 12.2229 760 58.6013 1180.55 565.266
1154 0 63.2263 12.2576 775 58.9858 1180.94 562.612
1155 0 67.2612 11.9237 802 58.707 1181.1 563.077
1156 0 68.308 12.5461 857 58.5951 1181.73 561.042
1157 0 69.1137 12.1105 837 59.1338 1181.64 559.875
1158 0 72.1293 12.2974 887 58.2672 1182.09 560.206
1159 0 75.1758 13.4352 1010 57.2861 1182.36 557.617
1160 0 75.1023 12.1834 915 59.1803 1182.55 557.058
1161 0 79.1759 12.3522 978 58.7321 1183.27 557.48
1162 0 81.1506 12.6925 1030 59 1183.36 554.88
1163 0 84.2076 12.9442 1090 58.6358 1183.24 553.361
1164 0 87.1714 12.8024 1116 58.6254 1183.11 551.408
1165 0 93.1505 13.1293 1223 57.6509 1183.49 551.61
1166 0 93.1832 12.8349 1196 58.7483 1183.24 548.761
1167 0 97.105 12.9756 1260 58.4405 1183.68 549.406
1168 0 100.204 12.3847 1241 59.3892 1183.93 548.374
1169 0 102.203 13.2775 1357 59.2085 1183.78 544.601
1170 0 103.301 12.207 1261 60.7018 1183.51 540.762
1171 1 59.186 10.222 605 60.2165 1183.48 564.46
1172 0 59.1458 11.1927 662 59.7915 1183.21 563.195
1173 0 60.0481 10.325 620 60.7274 1184.34 565.689
1174 0 63.1101 11.6305 734 60.6894 1184.48 560.038
1175 0 65.1461 12.0191 783 60.189 1184.49 562.243
1176 0 68.0811 13.6455 929 58.6491 1184.7 561.058
1177 0 70.2651 12.5667 883 60.0079 1184.32 562.864
1178 0 71.226 12.1164 863 61.562 1184.16 561.362
1179 0 75.159 13.2918 999 59.8178 1183.87 558.006
1180 0 77.1581 12.8308 990 60.9071 1184.15 556.114
1181 0 78.1751 13.2267 1034 60.3395 1183.59 557.234
1182 0 79.4743 12.7714 1015 61.7054 1183.79 554.928
1183 0 83.2206 12.8814 1072 61.6959 1183.06 552.196
1184 0 83.2206 12.8814 1072 173.784 1183.06 552.196
1185 0 88.2673 13.4138 1184 61.5752 1182.66 551.174
1186 0 90.2053 13.0591 1178 62.5195 1182.86 549.413
1187 0 96.2365 13.2486 1275 62.2455 1182.67 547.067
1188 0 98.2773 13.0142 1279 62.3706 1182.88 548.096
1189 0 100.391 13.1386 1319 62.7354 1182.22 545.895
1190 0 105.301 14.3874 1515 61.1987 1182.59 543.62
1191 0 109.353 13.7536 1504 62.6436 1182.3 541.553
1192 0 112.414 13.8595 1558 62.3787 1182.21 538.678
1193 1 62.1984 11.6402 724 62.5235 1182.39 565.601
1194 0 64.2485 11.7046 752 63.3085 1181.93 564.338
1195 0 69.3065 10.5474 731 64.1245 1181.76 563.622
1196 0 69.2912 13.2484 918 61.2941 1181.28 559.947
1197 0 70.2861 11.5528 812 63.7303 1181.25 560.204
1198 0 73.2863 13.113 961 61.8658 1181.69 559.527
1199 0 76.4209 12.3134 941 63.051 1181.2 556.948
1200 0 77.1984 12.8889 995 62.5889 1182.45 555.572
1201 0 81.1633 13.0354 1058 61.7174 1182.3 555.432
1202 0 85.2755 13.2394 1129 61.5775 1181.85 553.069
1203 0 87.3249 13.1234 1146 61.4904 1181.62 553.949
1204 0 91.296 13.8998 1269 60.528 1181.12 551.798
1205 0 92.239 13.1723 1215 61.9597 1181.19 549.812
1206 0 95.3016 13.0218 1241 62.0089 1181.25 546.889
1207 0 100.278 14.4099 1445 59.8969 1181.17 545.725
1208 0 104.127 13.5795 1414 60.6641 1180.86 546.172
1209 0 105.253 13.8713 1460 59.7541 1180.48 543.196
1210 0 108.167 13.3589 1445 60.2927 1180.49 541.523
1211 0 110.227 13.327 1469 60.3315 1180.38 541.82
1212 0 115.294 13.8775 1600 59.7519 1180.09 539.473
1213 0 117.405 13.2959 1561 60.5413 1180.16 535.023
1214 0 122.26 13.774 1684 59.6467 1180.03 534.331
1215 0 125.347 13.7698 1726 59.5643 1180.08 534.815
1216 0 129.438 14.5552 1884 58.4793 1179.45 530.141
1217 1 70.3816 10.0452 707 61.4682 1179.8 561.711
1218 0 73.2338 10.8283 793 60.5965 1179.58 560.929
1219 0 77.2538 12.0771 933 58.9979 1179.27 559.786
1220 0 79.2204 12.7492 1010 58.1069 1178.97 558.049
1221 0 80.2451 12.7484 1023 58.5376 1179.12 556.924
1222 0 83.2397 12.2297 1018 58.9028 1178.65 556.102
1223 0 86.2508 12.4405 1073 58.863 1177.88 553.909
1224 0 90.3058 13.4986 1219 57.4299 1177.68 552.359
1225 0 91.3511 11.8991 1087 59.3551 1177.99 552.33
1226 0 94.2487 12.4458 1173 58.8124 1177.96 549.45
1227 0 98.3786 12.5231 1232 58.8669 1177.84 546.244
1228 0 102.259 13.0551 1335 57.9288 1177.71 544.042
1229 0 105.468 12.5536 1324 58.4335 1177.98 544.824
1230 0 109.634 12.6694 1389 58.5551 1178.18 541.338
1231 0 113.205 13.1266 1486 57.9071 1178.51 540.931
1232 1 65.3287 10.0721 658 57.2508 1177.85 568.476
1233 0 65.2999 10.6126 693 57.9625 1178.34 565.332
1234 0 66.2929 10.9212 724 58.6229 1178.16 563.099
1235 0 69.4476 10.7995 750 58.18 1178.85 563.176
1236 0 72.2405 12.7768 923 56.2297 1179.21 558.868
1237 0 75.2924 12.0198 905 56.9072 1178.64 563.248
1238 0 74.5835 12.8983 962 56.4595 1178.6 559.905
1239 0 77.5045 12.2961 953 57.5761 1177.99 556.975
1240 0 80.4287 12.7815 1028 57.0399 1178.29 555.458
1241 0 83.4832 13.1643 1099 56.3822 1178.15 555.474
1242 0 86.4128 13.0536 1128 56.0612 1178.3 555.004
1243 0 85.4954 12.3399 1055 57.6256 1178.18 554.311
1244 0 89.3924 12.9094 1154 56.9393 1178.21 553.395
1245 0 94.336 13.0279 1229 56.3767 1178.47 552.872
1246 0 96.2891 12.8779 1240 56.9863 1178.41 550.051
1247 0 96.2891 12.8779 1240 157.348 1178.41 550.051
1248 0 101.319 12.7518 1292 59.1533 1178.39 546.515
1249 0 103.304 13.2327 1367 58.9905 1178.69 546.519
1250 1 58.1975 10.052 585 59.2957 1179.5 570.415
1251 0 62.2217 10.8965 678 58.5221 1179.22 568.667
1252 0 60.1287 9.71251 584 59.9281 1179.54 567.969
1253 0 62.1343 10.6865 664 59.2967 1179.49 566.068
1254 0 64.1699 12.1241 778 57.6105 1179.79 563.057
1255 0 68.1549 11.7673 802 58.0062 1177.92 557.99
1256 0 70.0948 12.5544 880 58.583 1179.28 558.295
1257 0 69.053 12.5845 869 59.1761 1179.24 559.57
1258 0 72.1238 13.2134 953 58.5058 1179.04 559.574
1259 0 74.1928 12.8854 956 59.0628 1179.46 559.416
1260 0 76.1948 13.0455 994 58.5121 1179.02 558.077
1261 0 80.1659 14.0085 1123 56.4737 1179 554.011
1262 0 81.2339 12.1132 984 59.4085 1179.21 554.566
1263 0 83.1507 13.4214 1116 58.5923 1179.64 554.804
1264 0 83.2167 12.2091 1016 60.7028 1180.03 554.04
1265 0 88.0973 13.0878 1153 59.4467 1180.41 552.013
1266 0 90.2491 12.5652 1134 60.7769 1180.33 551.188
1267 0 95.2846 13.8847 1323 58.6576 1180.14 548.342
1268 0 96.1612 13.1654 1266 60.0987 1180.3 546.218
1269 0 100.166 13.1681 1319 59.4776 1180.56 547.564
1270 0 103.224 13.0589 1348 60.7455 1181.08 544.826
1271 0 106.249 13.6566 1451 60.2026 1181.27 541.54
1272 0 109.131 13.58 1482 60.0884 1181.74 539.24
1273 0 113.206 13.5593 1535 60.2137 1182 538.62
1274 1 62.1702 10.0531 625 60.4352 1182.46 562.931
1275 0 63.0537 10.9272 689 59.9681 1182.75 561.89
1276 0 66.0832 10.8651 718 59.61 1182.87 561.669
1277 0 67.0829 12.7603 856 58.6145 1183.44 560.407
1278 0 71.119 11.9518 850 59.1565 1183.9 562.371
1279 0 73.0697 12.9876 949 57.7028 1184.27 561.281
1280 0 75.0784 13.3194 1000 57.727 1184.33 558.806
1281 0 77.1908 12.074 932 59.3519 1184.12 557.435
1282 0 78.2281 12.9877 1016 58.2323 1184.29 555.332
1283 0 80.1006 12.4968 1001 58.969 1184.44 555.011
1284 0 83.2323 13.1559 1095 57.9224 1184.65 553.675
1285 0 87.2101 13.198 1151 57.1851 1183.84 553.215
1286 0 90.2269 13.5215 1220 56.9992 1183.71 551.393
1287 0 93.3582 13.6357 1273 56.4242 1184.04 547.214
1288 0 95.4662 13.3346 1273 57.227 1184.08 547.485
1289 0 95.4662 13.2822 1268 158.997 1185.08 547.551
1290 0 101.399 14.0435 1424 56.2992 1184.24 545.152
1291 0 104.303 13.1923 1376 57.6417 1183.8 543.182
1292 0 106.406 12.4805 1328 58.2575 1183.64 541.794
1293 0 109.379 12.4064 1357 58.4945 1183.42 538.624
1294 1 58.3769 10.3466 604 57.5795 1184.22 563.674
1295 0 62.1613 10.521 654 57.2676 1183.51 565.755
1296 0 66.3069 12.9097 856 54.6145 1183.48 563.145
1297 0 67.1797 12.1168 814 55.6437 1183.25 561.654
1298 0 69.2701 11.6356 806 56.1402 1183.1 562.212
1299 0 72.1422 12.8219 925 54.6432 1183.54 560.716
1300 0 72.2384 13.0125 940 55.7021 1183.28 558.614
1301 0 72.2384 13.0817 945 147.164 1184.28 558.509
1302 0 76.0994 12.2734 934 57.1435 1183.81 556.239
1303 0 79.1745 12.2135 967 57.0217 1183.52 554.681
1304 0 83.2218 13.2658 1104 55.5308 1183.29 554.402
1305 0 83.2218 13.2658 1104 151.441 1184.29 554.402
1306 0 86.2388 12.2335 1055 57.891 1183.01 551.788
1307 0 90.2124 13.0581 1178 56.7436 1182.93 550.497
1308 0 94.358 13.0885 1235 57.5036 1182.81 547.333
1309 0 97.3589 13.2602 1291 56.505 1182.8 547.954
1310 0 99.2903 12.0858 1200 58.2658 1182.78 547.241
1311 0 103.314 13.9768 1444 56.0277 1182.74 544.702
1312 0 106.276 13.2391 1407 56.752 1183.04 541.461
1313 1 58.1694 10.2975 599 58.3038 1182.29 566.98
1314 0 59.2162 11.0612 655 57.4168 1181.96 565.907
1315 0 60.1668 12.0332 724 56.7196 1181.9 563.698
1316 0 63.2237 11.4356 723 57.6169 1181.32 566.046
1317 0 64.2535 11.657 749 57.3471 1181.41 564.599
1318 0 65.2394 11.7567 767 57.5385 1181.23 563.945
1319 0 68.1912 11.7464 801 57.8752 1180.78 562.647
1320 0 70.1199 12.5499 880 57.2307 1180.58 562.036
1321 0 74.3146 12.0703 897 57.466 1180.61 561.773
1322 0 75.1658 12.7185 956 56.8703 1180.03 559.325
1323 0 76.1783 13.1271 1000 56.579 1179.99 558.764
1324 0 78.1788 12.3819 968 56.4618 1179.9 558.478
1325 0 79.3195 13.0107 1032 56.2248 1180.06 557.829
1326 0 82.2207 12.5394 1031 56.7633 1179.41 555.949
1327 0 83.1953 12.657 1053 56.9896 1179.41 554.858
1328 0 87.3326 12.3665 1080 56.3926 1179.4 556.086
1329 0 91.1678 12.7457 1162 55.9329 1179.43 553.42
1330 1 52.1765 9.44871 493 58.1846 1179.51 572.706
1331 0 53.1634 10.6088 564 57.9486 1178.78 570.931
1332 0 56.158 10.2034 573 57.6492 1179.11 569.384
1333 0 58.2263 11.3179 659 56.1366 1179.52 570.877
1334 0 58.2488 11.056 644 58.7966 1179.33 571.034
1335 0 60.206 11.7596 708 56.4153 1179.61 567.161
1336 0 61.2462 12.8008 784 54.8699 1179.19 568.239
1337 0 64.2839 11.4025 733 56.693 1178.96 566.461
1338 0 66.2244 12.9409 857 54.4947 1179.31 566.903
1339 0 67.1372 12.0202 807 56.1524 1179 563.426
1340 0 69.1587 12.1171 838 55.4487 1178.85 565.037
1341 0 72.2176 12.947 935 54.4631 1178.85 562.473
1342 0 73.1327 12.5525 918 55.5022 1179.35 562.17
1343 0 75.2177 12.8959 970 55.2052 1179.01 561.037
1344 0 77.1132 12.2417 944 56.3485 1178.64 559.001
1345 0 78.1862 12.2272 956 56.6402 1178.03 558.755
1346 0 81.1315 13.1392 1066 55.5272 1178.53 556.4
1347 0 81.1396 12.5586 1019 57.0118 1178.34 555.985
1348 0 85.117 12.4769 1062 56.8192 1178.25 555.4
1349 0 87.2143 12.1196 1057 57.7266 1177.64 553.743
1350 0 89.197 12.6686 1130 57.3292 1177.61 554.142
1351 0 92.2456 13.2364 1221 56.7879 1177.29 550.911
1352 0 95.1793 12.9755 1235 57.3676 1177.5 549.63
1353 0 98.219 13.2459 1301 57.4427 1177.13 546.406
1354 0 102.148 13.0203 1330 57.712 1177.22 546.761
1355 0 103.207 12.0341 1242 59.091 1177.16 548.171
1356 1 58.088 10.1226 588 57.9099 1177.94 571.711
1357 0 59.0922 9.96748 589 58.9389 1176.8 569.866
1358 0 61.1724 11.2959 691 57.7771 1176.36 568.638
1359 0 64.1926 10.7956 693 58.8283 1176.32 567.289
1360 0 66.1876 12.0415 797 57.9774 1176.23 566.305
1361 0 68.1453 12.3413 841 58.088 1176.51 566.409
1362 0 70.1763 11.9414 838 59.4284 1176.71 564.857
1363 0 71.194 12.2623 873 59.6163 1176.41 564.472
1364 0 72.1779 12.7324 919 58.7671 1176.62 563.477
1365 0 75.1724 11.906 895 60.895 1176.59 561.799
1366 0 77.147 12.1586 938 60.1802 1176.76 561.13
1367 0 78.1599 12.9094 1009 60.1278 1176.78 560.286
1368 0 80.1219 11.832 948 61.403 1176.52 559.265
1369 0 82.1696 12.2917 1010 61.4267 1176.22 559.817
1370 0 85.2035 13.0981 1116 60.3665 1176.05 556.476
1371 0 88.183 13.2112 1165 60.4764 1176.64 556.748
1372 0 90.1718 12.8311 1157 61.6906 1175.89 554.31
1373 0 92.2025 12.299 1134 62.4568 1175.94 554.913
1374 0 94.1043 12.3374 1161 62.8682 1176.2 553.346
1375 0 97.1349 12.426 1207 63.0066 1176.22 551.481
1376 1 55.076 10.4946 578 62.0554 1177.14 572.382
1377 0 56.0654 10.131 568 62.2817 1177.09 575.081
1378 0 56.1898 11.2832 634 62.6435 1175.91 571.005
1379 0 59.1782 11.0852 656 63.1311 1176.29 569.893
1380 0 62.0915 11.8374 735 61.4503 1176.2 569.365
1381 0 64.1805 11.6079 745 59.7839 1176.76 564.889
1382 0 64.1532 12.1272 778 57.536 1177.16 565.789
1383 0 66.2273 12.5477 831 57.1191 1177.3 566.83
1384 0 68.1142 12.5231 853 58.7233 1176.82 562.792
1385 0 71.1787 12.6723 902 59.4634 1177.17 563.472
1386 0 71.1032 13.0655 929 59.6545 1177.21 560.473
1387 0 73.1487 12.7412 932 60.4571 1177.04 561.071
1388 0 76.1845 13.1523 1002 59.3014 1177.63 561.083
1389 0 77.125 12.94 998 60.1834 1177.96 557.016
1390 0 79.1425 12.8881 1020 60.9363 1178.15 556.522
1391 0 82.1561 14.1438 1162 58.9578 1177.87 556.948
1392 0 84.1272 13.5271 1138 60.2293 1177.54 554.957
1393 0 87.1662 13.9848 1219 59.6013 1177.42 554.75
1394 0 88.1855 13.3355 1176 61.0085 1177.91 552.212
1395 0 92.3892 13.8111 1276 60.6771 1178.17 550.871
1396 0 95.364 13.8627 1322 60.6755 1178.36 549.558
1397 0 98.4567 13.8944 1368 60.7259 1178.11 547.607
1398 0 100.413 13.8528 1391 61.0784 1178.49 547.664
1399 0 102.45 13.919 1426 61.5617 1178.99 543.67
1400 0 106.289 14.3571 1526 60.7516 1179.24 542.761
1401 0 106.314 14.2785 1518 61.5553 1179.29 541.272
1402 0 112.15 14.2488 1598 60.9787 1179.82 539.79
1403 1 64.2095 10.8862 699 62.4034 1179.96 563.863
1404 0 66.2514 10.5507 699 62.1731 1180.52 564.794
1405 0 68.1017 10.7046 729 61.3155 1180.61 563.826
1406 0 69.1849 11.5488 799 61.6783 1180.91 560.795
1407 0 72.1994 11.3159 817 60.7528 1181.56 561.941
1408 0 74.2879 12.0073 892 60.1648 1181.67 559.485
1409 0 74.0861 11.8106 875 60.8 1181.73 556.624
1410 0 77.091 12.4269 958 60.7088 1181.65 556.865
1411 0 81.0907 12.5045 1014 60.1292 1181.67 556.223
1412 0 84.1035 13.3407 1122 59.426 1181.53 554.807
1413 0 85.1774 13.7595 1172 58.709 1181.51 554.559
1414 0 90.1584 13.7314 1238 58.3296 1181.42 554.155
1415 0 91.2594 13.1603 1201 59.3239 1181.39 550.497
1416 0 95.1744 13.0392 1241 59.0596 1181.33 548.355
1417 0 98.198 14.0838 1383 57.6197 1182.1 545.463
1418 0 102.165 13.997 1430 57.4441 1182.28 546.715
1419 0 104.13 14.3283 1492 57.3592 1182.49 544.619
1420 0 107.214 13.8042 1480 58.0493 1182.44 541.421
1421 0 110.114 13.1046 1443 58.9106 1182.61 540.863
1422 0 114.159 13.4812 1539 58.2768 1182.82 540.311
1423 0 117.168 13.8178 1619 58.1285 1182.8 535.921
1424 0 121.441 13.6939 1663 58.3019 1182.58 534.206
1425 0 127.258 14.7417 1876 56.242 1182.45 531.346
1426 0 127.258 14.7417 1876 162.02 1181.45 531.346
1427 1 77.2078 10.7502 830 57.0964 1182.06 560.387
1428 0 78.1494 11.7211 916 56.5546 1181.97 557.044
1429 0 81.1413 11.6217 943 56.3966 1181.51 555.952
1430 0 83.1222 12.3433 1026 55.7875 1181.68 555.089
1431 0 85.2309 11.7446 1001 56.04 1181.84 554.853
1432 0 90.3741 12.8577 1162 54.6102 1182.14 551.287
1433 0 92.33 13.1918 1218 54.2291 1181.84 550.99
1434 0 94.2859 13.0242 1228 55.4373 1181.97 547.722
1435 0 94.2859 13.0242 1228 158.57 1181.97 547.722
1436 0 102.281 13.0913 1339 55.118 1181.96 545.04
1437 0 104.408 12.4895 1304 56.01 1182.03 543.456
1438 0 109.417 13.1972 1444 54.5789 1182.22 541.123
1439 0 110.419 12.525 1383 55.5271 1182.04 540.109
1440 0 114.421 12.6376 1446 54.9737 1181.84 534.295
1441 0 119.393 12.9824 1550 54.0871 1181.92 537.28
1442 0 120.416 11.6845 1407 55.5501 1181.89 534.791
1443 1 68.3643 10.1661 695 54.7022 1181.46 560.367
1444 0 69.2763 10.8118 749 54.02 1181.35 560.941
1445 0 74.1222 13.1944 978 51.1718 1181.72 559.869
1446 0 74.1789 12.0115 891 52.349 1182.67 561.591
1447 0 76.2327 13.3539 1018 52.0039 1181.86 556.198
1448 0 79.2246 12.9631 1027 52.4031 1182.3 556.392
1449 0 79.2246 12.9758 1028 149.866 1183.29 556.375
1450 0 83.1805 12.8997 1073 53.0746 1181.42 552.185
1451 0 87.19 12.7767 1114 52.5099 1181.51 553.772
1452 0 89.2174 13.3382 1190 52.4681 1180.62 550.586
1453 0 91.3325 13.4892 1232 52.3141 1180.58 548.683
1454 0 96.2713 14.241 1371 51.4289 1181 548.22
1455 0 97.2049 12.8697 1251 53.0024 1180.04 547.786
1456 0 101.385 14.3315 1453 52.2195 1180.35 547.325
1457 0 105.431 12.558 1324 54.1511 1179.35 543.474
1458 0 107.32 13.1849 1415 53.8587 1179.57 543.034
1459 0 109.157 13.1371 1434 54.6485 1179.82 542.637
1460 0 113.151 13.6985 1550 54.0645 1179.18 539.923
1461 0 116.342 13.5463 1576 54.2037 1178.66 536.959
1462 0 121.255 13.319 1615 53.8279 1179 538.072
1463 1 68.1418 9.5536 651 55.0108 1179.32 566.293
1464 0 70.2341 10.764 756 54.4392 1179.01 563.087
1465 0 70.2343 11.661 819 54.254 1179.1 562.979
1466 0 74.1995 12.1025 898 52.8886 1179.97 562.434
1467 0 75.074 12.3745 929 54.0441 1179.78 560.829
1468 0 79.1209 12.9043 1021 52.9863 1179.16 558.004
1469 0 80.1008 11.473 919 54.1839 1178.88 558.65
1470 0 83.1926 12.5011 1040 53.9308 1178.97 559.018
1471 0 86.3141 13.057 1127 53.3354 1178.46 555.145
1472 0 89.1842 13.4777 1202 53.411 1177.77 553.506
1473 0 93.1877 12.9094 1203 53.8928 1178.07 553.19
1474 0 98.2391 12.948 1272 53.8349 1178.34 551.322
1475 0 101.185 13.3221 1348 53.8954 1177.91 549.901
1476 0 102.22 12.6198 1290 54.9806 1177.78 549.396
1477 0 107.417 13.4802 1448 54.3156 1177.97 548.56
1478 1 59.1862 11.1512 660 55.7712 1177.75 570.747
1479 0 61.2814 11.4717 703 56.2703 1177.36 569.148
1480 0 61.2814 11.4717 703 176.949 1176.36 569.148
1481 0 66.2056 12.1289 803 55.5567 1176.8 567.015
1482 0 67.1336 13.1082 880 54.8 1177.03 567.528
1483 0 70.2092 13.0325 915 55.0929 1177.37 565.259
1484 0 71.2193 13.1285 935 55.1733 1177.81 564.942
1485 0 73.1634 13.545 991 55.4319 1177.47 561.969
1486 0 76.1579 12.8811 981 55.8451 1177.52 562.065
1487 0 78.2699 13.1085 1026 56.3869 1177.47 561.793
1488 0 81.1834 13.2786 1078 56.2338 1177.3 559.032
1489 0 82.1247 13.1507 1080 56.6102 1177.04 560.443
1490 0 87.1323 13.2787 1157 56.1685 1176.99 557.748
1491 0 88.1074 13.336 1175 56.4715 1176.92 554.954
1492 0 90.2899 13.512 1220 57.073 1176.65 553.771
1493 0 94.2335 13.5833 1280 56.3844 1176.79 552.322
1494 0 98.2559 14.0958 1385 55.6108 1176.8 550.943
1495 0 99.2492 13.1487 1305 57.0935 1177.11 549.874
1496 0 103.262 13.1703 1360 57.5846 1177.4 547.62
1497 0 104.416 13.2547 1384 57.3092 1177.55 546.267
1498 0 109.336 13.5088 1477 58.153 1177.75 543.283
1499 0 114.376 14.0938 1612 56.9262 1177.81 541.088
1500 1 62.2258 10.3815 646 58.2353 1178.55 569.412
1501 0 63.1536 11.0049 695 58.9353 1178.23 567.629
1502 0 67.3886 10.8475 731 59.1628 1178.86 568.387
1503 0 70.085 11.9426 837 58.693 1179.21 563.91
1504 0 72.122 12.0906 872 58.578 1178.84 565.148
1505 0 74.1178 13.2357 981 56.7829 1179.02 562.044
1506 0 76.1278 13.1227 999 57.3303 1178.74 563.716
1507 0 79.12 12.7781 1011 57.6518 1179.14 562.437
1508 0 81.2097 13.262 1077 57.5376 1179.46 560.245
1509 0 84.1433 14.3327 1206 55.4022 1179.25 557.435
1510 0 86.374 12.8742 1112 57.6097 1179.39 558.343
1511 0 87.2644 13.0064 1135 57.9824 1180.19 554.921
1512 0 91.187 14.1797 1293 56.9366 1180.31 555.415
1513 0 94.1801 14.1856 1336 57.119 1180.24 551.544
1514 0 96.3009 14.0912 1357 57.6175 1180.3 550.367
1515 0 98.2587 13.2406 1301 58.9101 1180.19 549.714
1516 0 103.135 14.098 1454 57.5757 1180.31 547.475
1517 0 105.163 14.2446 1498 57.8959 1180.67 545.457
1518 0 109.188 13.1791 1439 58.8687 1180.82 545.491
1519 1 60.094 12.4305 747 58.739 1181.31 568.977
1520 0 61.0781 11.6245 710 59.6408 1181.35 569.117
1521 0 64.0786 12.5159 802 58.8042 1181.58 568.027
1522 0 67.1121 12.3078 826 58.8027 1181.7 567.349
1523 0 70.0525 13.9181 975 56.9456 1181.62 563.266
1524 0 70.1067 12.6094 884 59.3348 1182.06 564.681
1525 0 72.069 13.3206 960 59.0094 1182.2 562.716
1526 0 74.2279 13.5124 1003 58.6331 1181.94 561.507
1527 0 79.1867 14.0428 1112 57.295 1182.36 559.418
1528 0 81.133 13.7059 1112 57.5621 1182.92 559.67
1529 0 82.2042 13.2353 1088 58.784 1182.92 557.28
1530 0 88.305 14.0649 1242 56.7544 1183.04 555.853
1531 1 47.0609 12.1545 572 59.6311 1183.04 575.874
1532 0 50.0194 12.2952 615 60.413 1182.96 573.844
1533 0 52.0252 12.1864 634 61.1356 1182.64 572.596
1534 0 53.0173 12.9014 684 61.0453 1182.34 571.873
1535 0 55.117 13.6074 750 60.72 1182.55 570.301
1536 0 59.0694 14.0005 827 59.8017 1182.35 569.304
1537 0 60.1713 14.8576 894 59 1182.14 568.402
1538 0 63.1544 14.6625 926 58.9525 1181.93 567.624
1539 0 61.028 14.2721 871 60.5626 1182.14 566.855
1540 0 65.1723 14.2699 930 60.0957 1181.92 564.017
1541 0 67.1249 15.3743 1032 59.0533 1181.64 563.629
1542 0 68.0753 14.102 960 60.5479 1181.85 563.283
1543 0 70.2137 14.7977 1039 59.4745 1181.89 561.123
1544 0 74.1606 15.2102 1128 58.5789 1181.69 560.533
1545 0 76.1607 14.4825 1103 59.7924 1182.02 559.981
1546 0 78.1503 14.9328 1167 58.8295 1182.09 559.982
1547 0 78.2783 14.3846 1126 60.5062 1181.69 557.383
1548 0 85.1961 15.1063 1287 58.4724 1181.67 558.212
1549 0 86.2854 14.2782 1232 60.0657 1181.58 557.283
1550 0 89.229 14.3899 1284 59.9587 1181.26 555.304
1551 1 46.1547 12.6314 583 62.4048 1181.84 575.081
1552 0 48.1526 13.3326 642 62.2103 1181.35 574.157
1553 0 50.3012 13.0613 657 61.7519 1181.07 574.685
1554 0 52.07 14.154 737 61.0299 1180.72 573.487
1555 0 52.2315 13.8231 722 61.7673 1180.9 573.904
1556 0 54.1204 14.1352 765 61.668 1180.43 572.26
1557 0 57.0915 14.2753 815 61.6319 1180.71 570.81
1558 0 60.1634 14.8097 891 60.0864 1181.67 570.562
1559 0 59.1077 13.9745 826 62.5363 1181.14 569.452
1560 0 64.2012 14.2521 915 61.1508 1180.81 567.36
1561 0 66.0957 15.0388 994 60.3481 1180.7 566.533
1562 0 68.2263 15.0235 1025 60.0878 1181.25 565.555
1563 0 70.2354 15.3199 1076 60.0604 1181.26 562.244
1564 0 74.1551 15.0765 1118 59.6404 1180.87 563.471
1565 0 76.2113 15.3914 1173 59.5038 1180.35 562.744
1566 0 76.2113 15.3914 1173 171.537 1179.35 562.744
1567 0 82.1806 15.4416 1269 59.7045 1180.29 559.559
1568 0 83.106 14.7522 1226 61.1525 1180.03 559.197
1569 0 86.1095 14.9693 1289 60.8891 1179.86 557.337
1570 0 89.142 14.9312 1331 60.4403 1179.93 555.237
1571 0 92.1217 14.7631 1360 60.7934 1179.55 553.658
1572 0 96.1475 15.3722 1478 60.3207 1179.63 551.869
1573 0 99.2088 15.3515 1523 60.2186 1179.37 553.29
1574 0 102.072 15.4205 1574 60.5292 1179.38 550.992
1575 0 106.087 15.2233 1615 61.0557 1179.34 548.554
1576 0 109.173 15.2144 1661 61.4419 1179.53 547.13
1577 1 55.0589 12.5683 692 64.8064 1179.94 573.126
1578 0 57.1304 13.3029 760 63.8303 1179.37 573.218
1579 0 60.0505 14.3213 860 63.1942 1179.48 572.534
1580 0 61.0906 14.8632 908 63.1211 1179.22 571.923
1581 0 64.0307 15.4613 990 62.5586 1178.67 570.268
1582 0 67.194 14.54 977 63.6008 1178.91 569.495
1583 0 71.0903 14.981 1065 62.9324 1177.79 568.085
1584 0 73.1091 15.5931 1140 62.05 1177.83 565.896
1585 0 75.3483 15.0899 1137 62.8848 1177.89 565.136
1586 0 80.1179 16.1762 1296 61.2137 1177.68 563.434
1587 0 81.1347 14.2479 1156 64.4187 1177.55 562.138
1588 0 83.1679 15.4627 1286 63.1649 1177.14 560.497
1589 0 87.1781 14.9694 1305 63.4314 1176.84 559.436
1590 0 89.1082 15.6327 1393 62.5513 1177.4 558.782
1591 0 92.1059 14.8199 1365 63.9275 1177.74 557.382
1592 0 94.1057 14.8344 1396 63.9685 1177.46 555.202
1593 0 97.1193 14.6006 1418 64.3336 1177.32 556.233
1594 0 100.111 15.5926 1561 62.8264 1177.16 552.425
1595 0 104.172 14.8024 1542 63.773 1177.05 551.262
1596 0 109.405 15.2919 1673 62.4387 1177.54 549.508
1597 1 57.074 14.122 806 65.0955 1177.88 572.674
1598 0 59.038 15.1597 895 63.4223 1177.69 571.964
1599 0 62.1804 14.7957 920 64.6826 1177.67 571.192
1600 0 63.3294 14.7325 933 65.3505 1177.96 569.229
1601 0 67.0428 15.1396 1015 64.067 1177.86 569.366
1602 0 68.0498 16.003 1089 63.9082 1177.98 566.32
1603 0 70.0971 15.1504 1062 65.42 1178.63 566.635
1604 0 72.1748 15.8366 1143 64.7454 1178.52 565.168
1605 0 75.2084 16.0089 1204 64.4635 1179.04 561.669
1606 0 78.2786 14.9338 1169 65.7006 1179.08 561.467
1607 0 81.2997 16.0271 1303 64.0944 1179.47 561.113
1608 0 82.3439 15.1074 1244 65.7886 1179.68 560.827
1609 0 86.1796 15.3517 1323 65.6765 1180.22 557.382
1610 0 89.1532 15.3668 1370 65.7044 1180.56 556.682
1611 0 92.323 15.2725 1410 66.0496 1180.57 555.064
1612 0 95.2322 15.751 1500 65.138 1180.64 554.059
1613 1 47.1399 14.0433 662 69.2523 1180.73 576.144
1614 0 49.1687 14.0536 691 68.8799 1180.93 575.499
1615 0 51.1767 14.7137 753 68.4847 1180.9 574.788
1616 0 54.0678 15.9799 864 66.0197 1180.86 571.765
1617 0 56.1001 16.0606 901 66.8468 1181.69 571.574
1618 0 58.1013 16.9359 984 64.811 1182.2 570.985
1619 0 61.151 15.2573 933 66.9689 1182.36 568.973
1620 0 64.1526 17.0375 1093 64.3769 1182.53 567.543
1621 0 64.0627 16.0312 1027 67.1704 1182.7 565.678
1622 0 67.0943 16.9463 1137 65.3896 1183.05 565.959
1623 0 70.1035 16.6753 1169 65.4243 1183.1 564.618
1624 0 73.1342 16.0664 1175 66.1277 1182.89 562.21
1625 0 74.0688 15.8366 1173 66.7869 1182.91 560.672
1626 0 76.1274 16.4593 1253 66.0072 1183.08 559.311
1627 0 80.0846 16.8447 1349 65.1297 1183.39 556.638
1628 0 82.1144 16.1726 1328 66.4074 1183.53 558.018
1629 0 82.1144 16.1117 1323 171.246 1183.52 557.972
1630 0 89.1456 16.1982 1444 66.2168 1183.4 555.484
1631 0 89.1096 16.115 1436 67.2981 1183.51 554
1632 0 93.2341 17.7832 1658 64.6363 1183.34 552.226
1633 0 95.1229 16.7678 1595 66.4176 1183.26 551.685
1634 0 97.2029 16.6662 1620 67.4074 1183.63 549.441
1635 0 102.238 16.315 1668 67.0306 1183.59 548.496
1636 0 105.184 17.3221 1822 65.5576 1183.45 545.483
1637 0 108.363 16.5647 1795 66.6646 1183.76 542.905
1638 0 112.164 16.6987 1873 66.6919 1183.12 542.965
1639 0 117.352 16.0287 1881 66.9894 1183.47 539.381
1640 0 120.199 16.3812 1969 66.903 1183.66 539.689
1641 0 124.342 16.3339 2031 66.1108 1183.57 537.939
1642 0 131.253 17.3939 2283 64.3325 1183.51 533.948
1643 0 135.223 16.6762 2255 65.282 1183.54 531.525
1644 0 140.256 16.9476 2377 64.6689 1183.41 528.406
1645 0 144.353 16.6259 2400 65.3762 1183.18 528.041
1646 0 151.348 17.0798 2585 64.6321 1183.01 526.912
1647 0 156.288 16.252 2540 66.2752 1183.1 521.405
1648 0 163.42 16.9012 2762 64.7111 1183.05 518.209
1649 0 170.492 17.0976 2915 64.553 1182.51 516.217
1650 1 74.4014 14.9325 1111 68.9172 1182.83 562.707
1651 0 76.1918 14.9229 1137 68.7476 1182.77 563.363
1652 0 80.147 15.7461 1262 68.2655 1182.47 559.548
1653 0 85.2912 16.7426 1428 66.4643 1182.43 556.701
1654 0 88.2755 16.6184 1467 66.3033 1182.68 556.247
1655 0 90.1556 15.5176 1399 68.6347 1182.39 553.378
1656 0 95.1942 16.8393 1603 65.6856 1182.22 554.154
1657 0 99.22 16.5289 1640 65.8067 1182.13 549.585
1658 0 103.252 16.358 1689 65.6696 1181.79 547.68
1659 0 108.277 16.3007 1765 65.7076 1181.14 546.594
1660 1 46.3375 15.6029 723 66.8174 1181.82 575.848
1661 0 45.1809 14.6522 662 68.8671 1181.4 574.394
1662 0 49.1095 16.229 797 66.537 1181.38 573.526
1663 0 49.1199 15.7981 776 67.9948 1181.48 573.576
1664 0 51.3641 16.5485 850 66.7671 1181.57 574.054
1665 0 53.2 16.3722 871 67.1527 1181.19 572.69
1666 0 56.2404 15.6649 881 67.7242 1181.12 571.514
1667 0 56.1958 16.1578 908 65.9989 1181.11 571.773
1668 0 59.3654 17.0807 1014 64.5197 1180.88 570.23
1669 0 64.3615 16.5472 1065 63.3803 1180.6 570.613
1670 0 65.4768 16.9373 1109 63.4527 1180.66 569.273
1671 0 66.3929 16.1313 1071 64.8095 1180.47 568.014
1672 0 67.4389 16.1183 1087 64.8565 1180.09 569.186
1673 0 71.1754 16.4102 1168 64.1969 1179.83 566.121
1674 1 35.1868 13.5562 477 68.2872 1180.24 581.61
1675 0 35.3018 15.3816 543 66.0074 1179.85 581.884
1676 0 36.2558 15.9147 577 65.8198 1180.12 581.206
1677 0 37.4019 16.042 600 65.5 1180.08 581.485
1678 0 38.2563 16.2849 623 65.9326 1179.36 581.027
1679 0 38.2625 15.2369 583 67.1286 1179.25 581.643
1680 0 40.2239 15.4883 623 67.3098 1179.4 580.034
1681 0 42.3547 15.7007 665 67.1624 1179.37 581.337
1682 0 41.1156 17.8278 733 66.6317 1179.39 578.476
1683 0 44.2676 16.4906 730 67.5671 1179.3 579.618
1684 0 44.289 16.5955 735 67.4707 1179.46 577.54
1685 0 44.289 16.573 734 176.008 1180.45 577.531
1686 0 47.2812 16.497 780 68.2128 1178.95 578.19
1687 0 48.5574 17.3403 842 67.5333 1178.8 577.821
1688 0 49.5073 16.9066 837 68.5424 1178.94 577.791
1689 0 51.5347 16.1445 832 69.8161 1178.95 577.651
1690 0 51.4149 16.9212 870 70.3678 1178.61 576.187
1691 0 53.1746 16.2295 863 71.6941 1178.69 575.992
1692 0 54.6065 17.2507 942 70.6104 1177.9 575.34
1693 0 55.3413 17.4915 968 71.7221 1177.44 575.094
1694 0 57.1236 16.5956 948 73.0338 1177.96 574.52
1695 0 58.3399 17.8094 1039 71.8065 1177.8 573.274
1696 0 59.5768 17.1711 1023 73.4399 1177.44 572.267
1697 0 60.3322 17.0059 1026 74.5906 1177.44 571.269
1698 0 64.5813 16.9244 1093 73.2168 1177.28 571.205
1699 0 63.4207 17.0764 1083 74.5549 1177.13 571.76
1700 0 67.3042 18.0524 1215 72.5671 1177.14 571.895
1701 0 67.3431 17.7152 1193 74.6387 1176.71 568.741
1702 0 69.4158 18.0506 1253 74.1796 1177.26 567.625
1703 0 71.4299 16.6737 1191 76.5256 1176.98 566.796
1704 0 73.4783 17.4473 1282 75.1615 1176.83 567.124
1705 0 76.4999 17.5817 1345 75.0007 1176.91 565.618
1706 0 80.4559 16.9534 1364 75.0762 1176.41 563.937
1707 0 82.4972 17.8309 1471 74.4201 1177.1 562.487
1708 0 84.4839 17.7785 1502 74.8142 1177.04 560.52
1709 0 84.4839 17.8022 1504 170.866 1177.04 560.471
1710 0 90.7769 16.3478 1484 75.8639 1176.85 559.71
1711 1 38.5009 14.9087 574 75.7561 1177.56 582.545
1712 0 39.4649 13.6577 539 78.0167 1177.52 581.926
1713 0 42.4005 13.7734 584 76.1318 1177.89 580.937
1714 0 41.1974 15.2679 629 75.0684 1178.03 580.199
1715 0 42.2967 14.02 593 75.1282 1178.15 581.352
1716 0 43.4506 14.4302 627 75.6316 1178.01 580.601
1717 0 42.3263 13.7267 581 76.222 1178.44 579.012
1718 0 44.2376 13.9474 617 75.2026 1178.33 577.1
1719 0 43.5355 14.2642 621 74.8857 1178.41 577.093
1720 0 45.3051 13.5526 614 74.9446 1178.93 577.49
1721 0 45.276 14.7319 667 75.5592 1178.65 575.798
1722 0 45.2019 14.0038 633 76.3539 1178.87 575.253
1723 0 47.3304 13.1628 623 76.7881 1178.94 574.899
1724 0 48.2924 13.4597 650 77.2769 1179.36 573.706
1725 0 48.1709 13.7012 660 76.8258 1179.4 574.214
1726 0 50.1936 13.3085 668 76.7305 1179.05 572.395
1727 0 50.2155 13.9797 702 75.8917 1179.25 571.812
1728 0 54.3024 13.4985 733 74.3329 1179.19 571.141
1729 0 53.1243 13.2143 702 73.8561 1179.22 570.244
1730 0 56.2411 13.7444 773 72.3506 1179.6 569.682
1731 0 56.2354 13.0878 736 73.0448 1179.71 569.31
1732 0 58.276 12.2864 716 73.588 1180.1 569.168
1733 0 61.1314 14.0517 859 71.7276 1180.16 567.647
1734 0 63.2061 14.1442 894 72.2427 1180.54 566.912
1735 0 60.1466 12.3532 743 76.1144 1180.92 565.659
1736 0 65.1788 13.578 885 74.3062 1180.94 564.208
1737 0 66.0983 13.2379 875 74.0286 1181.44 563.685
1738 0 69.1589 13.4473 930 73.2548 1181.57 562.331
1739 0 71.1601 14.376 1023 71.955 1181.88 560.633
1740 0 74.0962 14.0763 1043 72.1956 1182.16 558.988
1741 0 75.2366 13.7433 1034 72.1315 1182.55 558.944
1742 0 74.2022 14.7839 1097 70.7876 1182.76 556.699
1743 0 77.0685 14.1433 1090 71.4688 1183.07 555.039
1744 0 81.1597 14.2682 1158 70.6105 1183.39 555.263
1745 0 84.1424 13.6673 1150 71.1365 1182.96 553.698
1746 0 85.3005 14.232 1214 69.6845 1183.86 552.68
1747 0 87.3098 14.8666 1298 69.3328 1184.26 550.683
1748 0 88.239 12.7948 1129 71.3224 1184.41 551.981
1749 0 91.231 14.2167 1297 70.5266 1184.38 546.52
1750 0 91.298 13.319 1216 72.6308 1184.16 544.972
1751 0 95.6396 13.6345 1304 71.7201 1184.61 546.657
1752 0 100.348 12.935 1298 72.4969 1184.29 544.654
1753 0 101.562 13.8634 1408 71.8885 1184.04 544.893
1754 0 103.365 13.312 1376 72.4499 1183.54 543.467
1755 0 107.206 14.1689 1519 71.3094 1183.79 541.857
1756 0 107.206 14.2062 1523 167.161 1184.8 541.874
1757 0 113.37 14.1043 1599 71.4853 1183.8 535.533
1758 0 114.571 13.555 1553 72.3052 1183.62 534.999
1759 0 117.294 13.8456 1624 72.5634 1183.86 534.791
1760 0 122.381 13.8502 1695 73.0608 1183.51 529.644
1761 0 126.436 14.2839 1806 71.9269 1183.36 529.306
1762 0 131.357 14.4568 1899 71.683 1183.44 529.065
1763 0 134.686 14.2703 1922 72.2216 1183.24 526.41
1764 0 139.412 14.8768 2074 71.8129 1182.95 523.259
1765 0 143.394 14.5195 2082 72.451 1182.97 521.077
1766 0 143.394 14.5404 2085 164.735 1183.97 521.085
1767 0 151.645 13.9998 2123 73.3792 1183.16 516.776
1768 0 155.314 13.4824 2094 73.2536 1182.97 515.489
1769 0 163.715 14.9589 2449 71.3034 1182.45 512.78
1770 0 166.527 13.7455 2289 72.8925 1182.47 510.344
1771 0 171.573 14.6527 2514 71.9232 1182.22 506.07
1772 0 178.487 13.6705 2440 73.4635 1182.33 507.404
1773 0 181.519 13.2493 2405 74.0898 1182.13 504.04
1774 0 188.528 13.669 2577 73.435 1181.69 501.265
1775 0 195.613 13.859 2711 74.2505 1181.62 494.681
1776 0 201.442 13.185 2656 74.6427 1181.75 493.07
1777 0 208.438 13.5532 2825 73.1044 1181.67 489.293
1778 0 213.528 13.188 2816 73.3622 1181.48 488.132
1779 0 212.57 11.3139 2405 74.521 1181.47 493.334
1780 0 212.538 9.73945 2070 74.5324 1181.79 503.957
1781 0 212.352 10.4685 2223 75.0576 1181.85 498.519
1782 0 214.49 9.7114 2083 74.0398 1181.44 504.006
1783 0 214.642 9.73715 2090 74.1943 1181.29 499.172
1784 1 63.0445 9.78673 617 64.8347 1181.43 565.916
1785 0 63.0489 11.0232 695 64.0518 1181.66 562.66
1786 0 67.0755 10.9131 732 63.8552 1181.57 561.219
1787 0 67.1843 10.3596 696 63.8348 1180.95 562.891
1788 0 69.1541 10.7007 740 63.8365 1180.23 559.866
1789 0 74.103 12.3342 914 60.837 1180.46 558.846
1790 0 73.1086 12.3105 900 140.452 1181.44 558.471
1791 0 80.2409 11.291 906 61.4117 1180.37 557.592
1792 0 82.1352 10.9454 899 61.594 1179.76 555.454
1793 0 83.3451 11.0264 919 61.6355 1179.64 554.868
1794 1 49.1518 8.99255 442 60.2353 1179.53 573.661
1795 0 51.1174 10.5444 539 59.1002 1179.78 570.709
1796 0 51.2065 9.56909 490 60.2796 1179.29 572.4
1797 0 55.118 10.2507 565 59.1735 1179.28 570.586
1798 0 56.1155 10.9239 613 58.8287 1178.59 569.847
1799 0 55.2234 10.1225 559 59.9857 1178.82 568.247
1800 0 59.2028 10.0164 593 59.2614 1179.25 567.963
1801 0 61.0714 11.1345 680 57.8485 1179.16 566.916
1802 0 63.1253 11.3425 716 56.9874 1180.04 565.108
1803 0 64.0976 11.2173 719 58.1377 1180.18 565.083
1804 0 67.0326 14.6794 984 51.624 1178.31 497.662
1805 0 68.094 13.5401 922 52.7028 1178.39 463.131
1806 0 70.1384 13.787 967 52.2937 1178.39 444.723
1807 0 72.0661 14.8614 1071 51.0037 1178.03 419.186
1808 0 73.3264 13.2285 970 53.4649 1178.27 411.786
1809 0 76.1063 14.3484 1092 51.6548 1178.09 407.88
1810 0 79.1012 14.7406 1166 50.8165 1178.12 402.98
1811 0 80.0793 14.0361 1124 52.1032 1177.34 396.77
1812 0 82.1702 15.6018 1282 50.1927 1178 395.577
1813 0 84.1529 14.6163 1230 51.6374 1177.65 394.255
1814 0 86.1552 14.323 1234 52.2058 1177.66 395.527
1815 0 90.2746 15.3089 1382 50.5101 1178.16 395.897
1816 0 90.1791 14.7817 1333 52.4276 1177.93 393.63
1817 0 92.2272 14.9088 1375 52.4255 1178.13 392.168
1818 0 94.4219 13.8104 1304 54.0437 1177.57 390.61
1819 1 53.0921 10.8114 574 55.7857 1177.89 414.681
1820 0 53.0602 10.4033 552 56.2391 1177.55 417.909
1821 0 55.0594 11.8599 653 55.0551 1177.72 416.691
1822 0 58.0695 11.8307 687 55.738 1177.8 418.656
1823 0 57.0714 12.1953 696 56.6322 1178.29 418.657
1824 1 70.159 20.3538 1428 42.9139 1178.51 394.932
1825 0 59.0841 14.0308 829 54.1918 1177.98 402.831
1826 0 62.0374 15.136 939 52.5335 1178.04 401.288
1827 0 63.123 14.0836 889 54.0472 1178.16 402.376
1828 0 64.0327 13.8367 886 54.6806 1178.76 401.019
1829 0 67.052 14.4366 968 53.5878 1178.64 399.916
1830 0 68.056 15.0758 1026 53.2086 1178.63 399.327
1831 0 69.068 14.6233 1010 54.2614 1178.72 398.693
1832 0 72.0586 14.1829 1022 54.363 1178.66 398.558
1833 0 75.1082 15.4976 1164 52.5799 1178.99 395.881
1834 0 75.137 14.8529 1116 54.0314 1179.1 395.951
1835 0 77.1062 14.5643 1123 54.6554 1179.31 395.284
1836 0 80.1277 15.3255 1228 53.4194 1179.56 393.096
1837 0 82.1562 14.3507 1179 54.4656 1179.95 396.258
1838 0 84.2623 16.2587 1370 52.1737 1180.31 394.231
1839 0 85.5371 14.5434 1244 54.6302 1180.44 392.547
1840 0 89.2478 16.4038 1464 52.4358 1180.86 390.775
1841 0 91.3342 14.2772 1304 54.9732 1181.2 388.36
1842 1 46.0585 11.8979 548 57.9471 1181.81 411.531
1843 0 46.0268 11.2326 517 59.0696 1181.61 411.979
1844 0 49.0599 11.7815 578 57.3166 1181.25 413.355
1845 0 53.2202 12.0443 641 57.3713 1181.66 411.303
1846 0 52.1962 12.0507 629 58.1812 1181.39 411.784
1847 0 53.2054 13.8896 739 55.6536 1181.45 409.108
1848 0 54.0266 14.5669 787 55.5133 1181.51 409.093
1849 0 56.1093 15.0064 842 54.9038 1181.97 409.165
1850 0 58.3173 15.57 908 54.2037 1181.93 406.983
1851 0 56.0178 14.299 801 56.8939 1182.06 405.503
1852 0 61.1761 15.6597 958 53.8998 1182.01 406.799
1853 0 61.1697 15.645 957 53.5204 1181.98 404.886
1854 0 64.235 15.9259 1023 52.9736 1181.7 405.352
1855 0 64.1448 15.1688 973 54.5961 1181.96 404.217
1856 0 68.1799 15.3271 1045 53.6297 1181.86 404.599
1857 0 68.2277 14.5102 990 54.8313 1181.49 402.692
1858 0 73.1244 15.6036 1141 53.0254 1181.57 402.759
1859 0 76.0809 15.4704 1177 52.9516 1181.35 403.147
1860 0 77.0864 17.6166 1358 50.5898 1181.78 404.273
1861 0 81.0784 15.1458 1228 53.1832 1181.39 400.628
1862 0 82.242 14.8708 1223 54.0809 1181.24 400.358
1863 0 85.154 16.4995 1405 51.795 1181.36 401.539
1864 1 49.136 12.6994 624 55.5353 1180.79 419.784
1865 0 50.0569 12.9253 647 55.6553 1181.12 418.694
1866 0 51.0315 13.0508 666 56.2402 1180.77 417.823
1867 0 52.0176 13.8799 722 54.8684 1180.98 420.004
1868 0 54.1222 14.3934 779 55.0552 1180.89 417.994
1869 0 56.1971 15.588 876 53.8311 1181.09 416.68
1870 0 58.0954 14.8032 860 53.3453 1181.02 417.288
1871 0 59.0583 15.5101 916 53.1419 1181.17 416.587
1872 0 62.0926 15.2353 946 53.4461 1180.36 417.48
1873 0 62.0436 14.8444 921 54.2443 1180.01 418.598
1874 0 62.0436 14.9089 925 171.924 1180.98 418.555
1875 0 66.0401 15.5057 1024 53.6221 1180.13 416.751
1876 0 67.075 14.6254 981 55.0347 1179.84 417.985
1877 0 71.0474 16.1019 1144 53.1914 1180.11 417.006
1878 0 74.0982 15.385 1140 53.864 1179.41 418.968
1879 0 75.098 15.9392 1197 54.2431 1179.45 416.271
1880 0 77.1878 15.7797 1218 54.7668 1179.16 419.016
1881 0 79.2179 15.1355 1199 55.5746 1179.43 419.363
1882 0 81.1047 14.7464 1196 56.6263 1179.17 419.125
1883 0 83.1799 13.9577 1161 57.4694 1179.26 419.416
1884 0 88.0499 15.3436 1351 56.3731 1179.22 419.574
1885 0 91.0551 14.958 1362 57.6586 1179.09 419.336
1886 1 50.0704 14.2599 714 57.5588 1179.22 440.744
1887 0 50.111 14.3282 718 58.6936 1179.18 439.359
1888 0 54.1347 14.7964 801 57.6717 1179.06 439.911
1889 0 56.0585 14.3065 802 58.0823 1178.77 441.632
1890 0 57.0853 14.4521 825 58.3952 1179.13 441.531
1891 0 59.1343 15.2703 903 57.5349 1179.17 441.062
1892 0 64.052 15.1283 969 56.9556 1179.06 442.66
1893 0 66.0561 15.2749 1009 56.449 1178.92 443.057
1894 0 67.175 15.2289 1023 56.7722 1178.61 443.901
1895 0 70.213 15.0542 1057 56.7938 1178.73 445.137
1896 0 72.1661 15.3812 1110 56.6838 1178.77 444.999
1897 0 75.1669 15.5787 1171 56.2827 1178.66 446.112
1898 0 79.1447 16.3372 1293 55.1253 1178.78 447.2
1899 0 82.1301 15.3293 1259 56.0294 1178.67 447.995
1900 0 82.0672 15.3898 1263 56.2732 1177.87 448.685
1901 0 88.1088 15.4809 1364 55.4633 1177.57 449.139
1902 0 91.2575 15.648 1428 55.1786 1177.5 450.127
1903 1 50.1118 13.9288 698 55.563 1177.53 473.401
1904 0 51.0665 13.7664 703 55.7966 1177.2 476.166
1905 0 52.0773 14.6705 764 55.5366 1177.3 477.16
1906 0 55.1898 15.1659 837 54.6487 1176.99 477.689
1907 0 54.0372 14.1014 762 56.6168 1177.32 479.732
1908 0 56.1727 14.5978 820 55.9939 1177.21 481.816
1909 0 60.1924 14.1546 852 56.2371 1176.83 482.789
1910 0 62.0926 14.9776 930 55.5538 1176.81 485.133
1911 0 64.1247 14.6277 938 55.8209 1176.77 485.898
1912 0 65.1412 14.8907 970 56.1443 1176.7 488.745
1913 0 68.078 15.4822 1054 55.5863 1177.09 489.833
1914 0 71.1485 15.4185 1097 55.7639 1176.53 491.796
1915 0 74.1443 14.5122 1076 56.829 1176.57 493.297
1916 0 75.2805 14.1869 1068 57.7856 1176.34 495.965
1917 0 78.2855 15.7117 1230 56.3358 1176.37 496.18
1918 0 81.2453 14.6101 1187 59.1415 1176.16 498.665
1919 0 82.1579 14.9225 1226 59.3809 1176.81 499.781
1920 0 88.3247 14.9901 1324 59.0098 1177.43 501.161
1921 1 49.1744 11.4897 565 60.8743 1176.79 525.253
1922 0 48.0929 13.3076 640 61.1203 1176.3 526.93
1923 0 52.1132 14.7179 767 59.3755 1176.22 530.514
1924 0 54.1136 13.4347 727 60.5626 1176.6 532.161
1925 0 55.1022 14.3914 793 60.0757 1176.29 536.286
1926 0 55.3426 13.9314 771 61.0078 1176.02 539.049
1927 0 60.1489 15.1624 912 59.0998 1176.18 540.419
1928 0 62.1139 14.5217 902 59.4568 1176.24 545.744
1929 0 65.0852 14.2121 925 59.4346 1176.22 548.459
1930 0 67.1829 13.9023 934 60.1285 1176.6 551.829
1931 0 70.2682 14.4731 1017 59.6185 1176.88 554.567
1932 0 73.2949 14.1893 1040 58.9615 1176.45 560.986
1933 0 75.3345 15.2653 1150 58.6148 1176.77 562.19
1934 0 76.3154 13.798 1053 60.8234 1176.89 563.217
1935 0 82.4629 14.2246 1173 59.798 1176.73 562.514
1936 0 85.2135 13.9649 1190 60.158 1176.87 560.661
1937 1 45.2121 10.8599 491 60.1833 1177.45 581.923
1938 0 47.0453 12.9875 611 58.8838 1176.81 579.029
1939 0 48.2451 12.4987 603 59.4942 1177.38 579.113
1940 0 50.0721 14.0597 704 58.2656 1177.14 575.2
1941 0 52.129 12.9103 673 59.2556 1177.3 575.764
1942 0 56.0915 13.7276 770 56.9104 1177.2 575.578
1943 0 56.1562 13.8364 777 58.036 1177.25 572.704
1944 0 58.2907 12.5921 734 57.8161 1177.77 572.015
1945 0 59.208 13.9677 827 56.4885 1178 571.51
1946 0 63.2233 13.7291 868 55.9965 1178.13 571.184
1947 0 64.2214 13.0953 841 57.1617 1178.07 568.4
1948 0 67.1919 13.5433 910 55.9209 1177.77 567.838
1949 0 68.1827 13.6545 931 56.5564 1178.2 565.731
1950 0 71.1523 13.5765 966 56.3882 1177.93 564.502
1951 0 75.243 13.5959 1023 55.8974 1178.73 563.92
1952 0 77.2531 13.3587 1032 56.9428 1178.76 561.614
1953 0 81.1893 13.1545 1068 57.161 1178.62 559.301
1954 1 40.0835 10.6528 427 56.9251 1179.38 580.684
1955 0 41.075 11.6373 478 55.6778 1179.47 579.856
1956 0 42.0677 11.5766 487 55.3737 1180.02 579.678
1957 0 45.0803 14.2856 644 52.4969 1179.65 576.95
1958 0 44.293 12.8237 568 54.8996 1179.35 576.819
1959 0 46.2686 12.1465 562 55.2865 1179.62 576.438
1960 0 48.1808 12.8474 619 54.4087 1179.61 575.943
1961 0 50.2503 12.8158 644 54.6925 1179.72 576.141
1962 0 51.1799 12.2509 627 55.6077 1179.99 575.305
1963 0 52.1923 12.5114 653 55.6355 1180.24 574.055
1964 0 53.2288 13.395 713 54.7952 1180.1 573.098
1965 0 54.1572 12.8515 696 55.6307 1180.12 571.726
1966 0 56.2697 12.5645 707 55.7397 1180.82 571.069
1967 0 58.2227 12.4522 725 56.011 1181.13 569.981
1968 0 61.158 12.8356 785 55.042 1181.69 569.386
1969 0 63.1363 12.7977 808 55.7673 1181.95 567.244
1970 0 65.1473 13.8609 903 55.3942 1182.04 564.535
1971 0 65.1012 13.0412 849 56.7208 1182.28 565.992
1972 0 70.1246 13.6044 954 55.848 1182.39 563.437
1973 0 71.1188 13.1611 936 56.6175 1182.63 562.717
1974 0 74.1704 13.7791 1022 55.8229 1183.06 561.256
1975 0 75.1628 13.0384 980 57.202 1183.11 558.712
1976 0 78.1296 12.7865 999 57.6046 1183.57 560.379
1977 0 79.0914 12.985 1027 57.9922 1183.81 557.542
1978 0 83.1097 13.0671 1086 57.5976 1183.64 556.778
1979 1 43.0943 10.7671 464 58.7694 1184.23 576.121
1980 0 43.1171 11.5963 500 59.26 1184.19 574.77
1981 0 47.0549 11.0297 519 59.2659 1184.44 574.372
1982 0 47.1421 11.6669 550 59.2945 1184.58 574.215
1983 0 49.068 12.6559 621 58.9114 1184.38 573.43
1984 0 50.0229 11.3748 569 60.0299 1184.54 572.257
1985 0 51.0884 12.723 650 58.86 1184.18 571.397
1986 0 52.0848 12.3261 642 59.1916 1184.08 571.238
1987 0 54.2008 13.2101 716 58.3687 1183.48 569.507
1988 0 57.2221 13.4389 769 57.5189 1183.69 567.93
1989 0 58.0855 14.0138 814 56.785 1183.58 566.835
1990 0 58.1665 14.0803 819 57.0147 1183.42 566.337
1991 0 59.2242 12.9846 769 58.4941 1183.37 565.75
1992 0 62.3592 13.5345 844 57.5107 1183.37 562.692
1993 0 66.1503 12.8344 849 57.8057 1182.69 563.064
1994 0 68.1572 14.3639 979 56.002 1182.89 562.211
1995 0 70.2941 14.2259 1000 55.973 1182.42 560.506
1996 0 72.21 13.2115 954 57.153 1182.49 561.36
1997 0 75.2619 14.7618 1111 55.144 1182.29 556.655
1998 0 76.2361 13.8386 1055 56.3735 1181.99 555.72
1999 0 78.3773 13.8433 1085 56.4959 1182.36 554.971
2000 1 42.2654 11.759 497 57.5433 1182.07 572.676
2001 0 44.1876 12.0396 532 57.5602 1181.87 570.496
2002 0 46.4454 12.9399 601 55.8453 1181.88 570.106
2003 0 49.5123 13.2088 654 55.0352 1181.81 568.625
2004 0 50.1177 13.7476 689 55.5631 1182 569.682
2005 0 53.2822 13.1001 698 56.1819 1181.6 569.023
2006 0 53.1619 13.6 723 56.3154 1181.32 568.116
2007 0 54.2209 12.8548 697 57.3888 1181.61 566.885
2008 0 57.2556 13.5882 778 55.8625 1181 566.999
2009 0 56.36 13.8396 780 56.2038 1181.03 565.35
2010 0 60.293 12.9534 781 56.8156 1181.17 563.246
2011 0 61.4453 14.0938 866 55.1189 1180.89 564.109
2012 0 65.6003 13.6737 897 54.7637 1180.41 560.951
2013 0 65.2187 13.3551 871 55.8163 1180.36 560.583
2014 0 70.5403 14.3606 1013 53.8865 1180.41 560.147
2015 0 70.2901 13.1313 923 55.5742 1180.26 560.599
2016 0 73.2798 13.5235 991 55.0616 1180.28 560.378
2017 0 73.2798 13.5508 993 169.618 1180.28 560.36
2018 0 78.4099 14.7175 1154 53.6941 1179.76 556.199
2019 0 79.5295 13.014 1035 56.1527 1179.97 554.196
2020 0 83.29 13.7231 1143 54.7122 1180.09 553.442
2021 1 44.2698 11.6106 514 54.9397 1180.59 573.669
2022 0 44.4307 12.1538 540 55.2907 1179.95 573.211
2023 0 46.1897 12.4487 575 54.7948 1180.29 574.482
2024 0 48.1484 13.0015 626 54.3578 1180.04 571.355
2025 0 48.0594 12.7967 615 54.5642 1179.86 573.25
2026 0 51.1824 13.5593 694 54.2104 1179.31 571.826
2027 0 51.1578 13.3509 683 54.0498 1179.57 572.657
2028 0 53.1106 13.5754 721 54.4369 1179.28 571.957
2029 0 54.1147 12.6953 687 55.2737 1179.15 571.275
2030 0 57.0887 14.206 811 53.4599 1178.81 571.042
2031 0 57.2657 13.6032 779 55.3774 1178.44 570.742
2032 0 60.3644 14.4125 870 53.6943 1178.57 568.563
2033 0 62.3076 13.658 851 54.9859 1178.39 566.908
2034 0 65.1362 14.1856 924 54.1039 1177.91 567.21
2035 0 67.4926 13.8089 932 54.5815 1177.47 565.029
2036 0 69.2623 14.0625 974 54.8768 1177.74 565.431
2037 0 71.2166 13.8451 986 54.931 1177.57 564.388
2038 0 72.1131 13.7146 989 55.4388 1177.63 562.92
2039 0 76.2529 13.9536 1064 55.1711 1177.62 562.237
2040 0 81.312 14.4751 1177 53.5624 1177.77 562.566
2041 0 82.1931 13.6751 1124 55.0142 1177.62 560.376
2042 0 85.2276 13.9157 1186 54.7664 1177.79 557.592
2043 0 89.0932 14.7823 1317 53.754 1178.41 554.78
2044 0 94.1213 13.812 1300 54.2615 1178.32 555.249
2045 0 95.0944 14.4383 1373 53.7691 1178.33 552.436
2046 0 98.2336 13.3865 1315 54.8266 1177.76 551.435
2047 0 103.151 13.5918 1402 54.3359 1177.81 550.483
2048 0 107.257 13.752 1475 53.96 1177.64 546.995
2049 1 59.1324 11.4996 680 54.0132 1177.78 570.787
2050 0 61.04 11.2713 688 54.3619 1178.08 570.571
2051 0 62.0706 11.5997 720 54.5903 1177.82 569.203
2052 0 65.1227 11.4246 744 54.5309 1177.52 568.539
2053 0 67.1459 12.5994 846 54.8688 1177.51 567.255
2054 0 69.1079 12.589 870 55.6276 1177.28 566.094
2055 0 69.1079 12.618 872 166.257 1177.28 566.149
2056 0 72.0736 13.07 942 55.8535 1176.6 566.609
2057 0 74.1241 13.3965 993 55.6908 1176.13 564.813
2058 0 77.1504 12.7673 985 56.5574 1176.43 563.386
2059 0 78.0723 12.5397 979 57.1542 1176.51 562.351
2060 0 81.092 12.307 998 57.0481 1175.95 560.658
2061 0 84.0612 12.7407 1071 56.3978 1176.21 558.351
2062 0 87.3061 11.8548 1035 57.5507 1176.29 557.559
2063 0 90.1128 12.8728 1160 56.225 1175.86 555.012
2064 0 93.1067 12.3729 1152 56.691 1175.98 555.599
2065 0 97.2414 12.8032 1245 56.3888 1176.6 553.032
2066 0 99.1256 12.7717 1266 56.7401 1176.75 550.893
2067 0 103.141 12.9919 1340 56.5052 1177.1 551.448
2068 1 56.0489 10.1519 569 56.7698 1177.88 574.571
2069 0 57.0728 10.7757 615 57.361 1178.04 572.787
2070 0 56.034 9.52993 534 58.4419 1176.99 572.667
2071 0 60.0244 10.9955 660 57.1136 1177.5 570.979
2072 0 62.051 11.974 743 56.9152 1178.18 569.036
2073 0 64.0881 11.4062 731 57.7934 1178.25 567.417
2074 0 66.0236 11.7231 774 57.7649 1178.53 566.661
2075 0 68.1524 12.2079 832 57.4038 1178.07 565.1
2076 0 71.0305 12.1638 864 57.0787 1178.09 565.557
2077 0 74.0896 11.945 885 57.209 1178.4 562.948
2078 0 75.06 12.4834 937 56.9562 1178.51 560.769
2079 0 78.1276 12.2108 954 57.3019 1178.46 559.498
2080 0 79.1286 12.1953 965 57.5067 1178.81 559.194
2081 0 85.1198 12.2063 1039 57.0385 1179.05 557.597
2082 0 86.1214 12.3547 1064 57.1156 1178.87 556.211
2083 0 89.0679 12.7992 1140 56.4956 1179.16 556.41
2084 1 47.1147 10.7185 505 56.7941 1179.73 576.283
2085 0 49.0794 10.1876 500 57.278 1179.71 574.936
2086 0 49.0939 10.2661 504 56.8631 1179.53 575.119
2087 0 51.1182 11.2289 574 55.5645 1179.89 575.293
2088 0 55.0891 11.5631 637 55.8713 1180.37 572.039
2089 0 55.1134 11.431 630 56.5921 1180.04 572.516
2090 0 54.1411 10.7866 584 58.1096 1180.23 571.709
2091 0 57.0841 11.5093 657 57.2922 1180.21 568.88
2092 0 58.135 12.9182 751 55.9254 1180.32 565.87
2093 0 60.0587 12.6876 762 56.1168 1180.47 565.371
2094 0 61.078 11.7555 718 57.6741 1180.51 565.28
2095 0 61.0376 11.7632 718 58.2855 1180.72 562.935
2096 0 67.0484 13.2591 889 55.2497 1181.14 558.909
2097 0 66.0376 11.6449 769 57.7789 1180.67 563.821
2098 0 69.0382 12.3845 855 57.1146 1180.76 559.644
2099 0 69.074 13.0006 898 56.9343 1180.81 559.37
2100 0 74.1469 13.2844 985 55.8934 1181.24 557.664
2101 0 74.2131 12.518 929 57.6082 1181.22 559.177
2102 0 77.2326 11.9897 926 58.2981 1181.48 557.266
2103 0 78.2926 12.8109 1003 57.6002 1181.49 554.473
2104 0 84.3415 13.4809 1137 56.0237 1182.17 556.936
2105 0 85.3089 13.1288 1120 57.1982 1182.52 555.538
2106 0 86.3042 12.8731 1111 57.8362 1182.68 553.634
2107 0 89.3866 12.9214 1155 58.0009 1182.24 552.094
2108 1 48.1589 10.7768 519 59.4393 1182.69 573.11
2109 0 47.1987 10.5723 499 59.994 1182.6 572.046
2110 0 50.1522 12.0832 606 57.7871 1182.77 571.792
2111 0 51.2071 11.6781 598 58.6589 1183.29 571.719
2112 0 53.1423 12.363 657 58.8143 1183.1 569.903
2113 0 55.1688 13.1052 723 57.9834 1183.25 569.372
2114 0 56.0792 12.9995 729 58.7325 1183.72 568.413
2115 0 56.0698 11.8602 665 60.215 1183.27 568.487
2116 0 56.0452 12.8289 719 59.2559 1183.26 568.405
2117 0 60.0688 13.9174 836 56.8373 1182.85 567.935
2118 0 59.0612 13.6807 808 58.3614 1182.71 565.236
2119 0 63.1747 13.898 878 57.2016 1182.32 563.735
2120 0 64.0813 13.3736 857 58.1809 1182 566.025
2121 0 66.086 12.3778 818 59.2775 1182.41 563.994
2122 0 70.1842 13.2794 932 58.4388 1182.08 562.703
2123 0 71.0418 13.7102 974 57.7567 1181.9 562.991
2124 0 72.0557 13.7394 990 57.8677 1181.6 560.246
2125 0 73.0521 12.5664 918 60.3878 1181.62 560.763
2126 0 77.0679 14.0266 1081 58.2599 1181.33 559.605
2127 0 78.1114 12.9174 1009 59.6026 1180.98 558.698
2128 1 42.0413 10.1805 428 60.2383 1181.02 579.14
2129 0 43.0551 10.7769 464 59.7586 1180.71 577.024
2130 0 46.121 10.841 500 60.744 1180.2 576.274
2131 0 48.0893 10.938 526 60.5989 1179.75 575.762
2132 0 50.0615 11.7256 587 60.4089 1179.52 574.516
2133 0 51.0393 12.8136 654 59.4511 1178.92 573.532
2134 0 52.1741 12.8991 673 59.6211 1179.54 573.212
2135 0 54.1882 12.4012 672 60.5045 1179.47 571.842
2136 0 55.128 12.8428 708 60.2712 1179.37 570.518
2137 0 57.0793 11.9833 684 61.6301 1179.65 571.173
2138 0 61.0834 12.9986 794 59.6045 1179.96 571.422
2139 0 60.1235 13.6552 821 59.5968 1179.19 569.294
2140 0 61.113 13.336 815 60.892 1179.56 568.891
2141 0 64.1894 13.2109 848 60.9917 1178.83 567.7
2142 0 65.1812 13.194 860 61.05 1179.01 568.221
2143 0 68.1197 13.8286 942 60.4841 1179.13 565.234
2144 0 69.151 12.6101 872 62.2718 1179.25 566.886
2145 0 72.1873 13.8806 1002 60.5988 1178.89 564.773
2146 0 73.2364 13.8046 1011 61.0168 1179.22 563.651
2147 0 75.3054 13.6511 1028 61.2218 1179.37 562.635
2148 0 80.2754 13.8523 1112 60.3876 1179.4 560.981
2149 0 80.187 13.481 1081 62.185 1179.49 559.415
2150 0 84.2371 14.4711 1219 60.3183 1179.04 558.997
2151 0 86.511 13.3856 1158 61.7021 1178.41 557.17
2152 0 90.3999 14.0487 1270 60.1953 1178.6 555.642
2153 0 93.3825 13.8784 1296 60.6543 1178.59 554.186
2154 0 95.261 14.0876 1342 60.5648 1178.43 551.024
2155 0 98.3098 14.2814 1404 60.1275 1178.27 548.58
2156 1 51.1507 11.0262 564 63.2039 1176.94 573.174
2157 0 52.0566 10.7767 561 62.6381 1177.28 574.103
2158 0 55.1746 12.4333 686 61.035 1177.06 572.287
2159 0 57.1495 11.6886 668 61.6991 1177.26 572.142
2160 0 58.2518 13.2528 772 59.5091 1177.44 569.96
2161 0 60.0305 13.3099 799 59.7134 1177.56 567.671
2162 0 62.0467 12.6195 783 60.341 1177.42 566.285
2163 0 66.0451 13.188 871 59.1584 1177.33 565.21
2164 0 68.0943 13.0114 886 59.2641 1177.14 565.152
2165 0 71.0315 13.9656 992 57.6946 1176.99 562.913
2166 0 73.0523 13.6478 997 58.1354 1177.08 562.564
2167 0 74.0233 13.4822 998 58.7535 1177.25 561.542
2168 0 78.0806 13.4604 1051 58.1618 1177.42 561.031
2169 0 80.1042 13.6697 1095 58.3763 1177.44 559.062
2170 0 81.0702 14.2469 1155 57.6675 1177.13 558.749
2171 0 86.0973 13.4847 1161 57.9285 1177.49 557.286
2172 0 88.0921 13.327 1174 58.2129 1177.32 556.818
2173 0 88.0921 13.3383 1175 173.252 1177.32 556.811
2174 0 95.1747 14.0373 1336 57.1901 1177.14 551.561
2175 0 98.2209 13.714 1347 57.5353 1177.03 550.667
2176 1 49.113 10.6693 524 60.1889 1177.07 574.748
2177 0 53.0736 10.8529 576 58.566 1177.88 576.366
2178 0 53.0736 10.8529 576 179.17 1178.88 576.366
2179 0 56.1161 11.797 662 58.7538 1177 570.964
2180 0 58.1646 12.8601 748 58.2152 1177.33 568.944
2181 0 62.2139 13.0518 812 58.2094 1176.87 567.469
2182 0 62.258 13.4922 840 58.8798 1176.74 566.455
2183 0 64.3765 14.1667 912 57.4836 1176.77 566.706
2184 0 67.4248 13.897 937 57.2753 1176.54 567.29
2185 0 70.1783 13.3945 940 57.9638 1176.76 565.847
2186 0 71.2528 13.2626 945 58.1365 1176.85 564.457
2187 0 73.3438 13.9344 1022 57.6634 1177.15 562.872
2188 0 76.2622 14.201 1083 57.0342 1177.53 562.271
2189 0 78.4169 14.2571 1118 57.229 1177.24 561.194
2190 0 81.2775 13.5093 1098 57.8862 1177.79 559.851
2191 0 81.6315 13.7692 1124 57.7562 1177.83 557.426
2192 0 85.501 14.3039 1223 57.35 1178.22 555.2
2193 0 86.5537 14.0606 1217 57.7436 1178.5 552.44
2194 0 91.3949 14.027 1282 56.975 1177.97 552.243
2195 0 93.475 13.5009 1262 57.3352 1178.34 550.499
2196 0 95.6183 13.7317 1313 57.5712 1178.35 549.742
2197 0 99.3956 13.9443 1386 57.1025 1178.65 546.722
2198 0 102.35 14.2647 1460 56.124 1179.12 545.714
2199 1 54.1877 11.331 614 57.6156 1179.24 568.287
2200 0 54.3444 11.0407 600 57.4817 1179.58 569.333
2201 0 56.3444 11.6959 659 57.6904 1179.54 567.203
2202 0 57.4001 11.7596 675 57.6356 1180.4 567
2203 0 61.2187 12.2675 751 56.7417 1180.3 565.3
2204 0 64.0769 13.5306 867 54.7151 1180.6 564.083
2205 0 65.0231 13.7643 895 54.6648 1180.65 563.095
2206 0 65.0258 12.472 811 56.6584 1180.71 562.271
2207 0 68.0482 12.9467 881 56.0624 1181.37 560.136
2208 0 69.1004 13.0101 899 56.426 1181.49 559.029
2209 0 74.2116 13.6502 1013 55.4808 1181.92 561.367
2210 0 77.3163 14.3178 1107 54.7696 1182.41 558.145
2211 0 79.3371 14.3691 1140 54.7263 1182.11 555.481
2212 0 80.4543 13.0882 1053 56.339 1182.18 555.548
2213 0 84.5369 13.7573 1163 55.123 1182.63 553.027
2214 0 85.6128 13.3158 1140 55.7474 1182.61 552.87
2215 0 90.4346 14.1318 1278 54.4695 1182.6 550.737
2216 0 93.2698 13.3269 1243 55.2751 1182.57 549.355
2217 1 45.3405 11.16 506 56.8775 1183.08 571.279
2218 0 47.3683 10.83 513 57.0643 1183.33 571.86
2219 0 51.2704 11.8977 610 55.5984 1183.43 569.807
2220 0 53.4412 12.7804 683 55.2914 1183.36 568.435
2221 0 53.4412 12.743 681 141.112 1184.36 568.446
2222 0 54.3099 13.2573 720 55.7028 1183.76 568.467
2223 0 57.4204 12.6958 729 55.5706 1183.54 566.199
2224 0 60.6609 13.4189 814 54.6302 1183.52 565.359
2225 0 63.357 14.3473 909 53.7063 1183.27 564.416
2226 0 64.372 13.3288 858 54.7797 1183.6 565.879
2227 0 66.4754 12.9672 862 55.7819 1183.21 562.568
2228 0 68.7871 13.2292 910 56.7066 1183.34 562.295
2229 0 72.3923 14.1451 1024 55.6787 1183 559.538
2230 0 74.5967 15.0007 1119 54.7015 1183.29 559.155
2231 0 78.4757 14.3102 1123 55.252 1183.26 558.149
2232 0 81.4416 14.7468 1201 54.9459 1183.14 557.303
2233 0 83.628 14.1938 1187 56.123 1182.97 554.122
2234 0 85.5722 14.0466 1202 56.3902 1182.45 553.753
2235 0 88.548 15.1217 1339 55.065 1182.3 552.044
2236 0 90.458 14.1834 1283 56.5238 1182.59 550.425
2237 0 94.5238 15.5305 1468 55.1676 1182.21 549.572
2238 0 99.4309 13.8388 1376 56.5996 1181.98 547.953
2239 0 99.5513 13.8019 1374 57.3639 1181.84 548.766
2240 0 102.339 14.11 1444 57.4792 1181.93 546.573
2241 0 107.466 14.4882 1557 56.0604 1182.16 542.816
2242 1 51.5149 13.7824 710 55.9282 1182 571.17
2243 0 53.2964 13.4343 716 57.183 1182.86 568.603
2244 0 54.2068 13.5223 733 56.7831 1182.59 567.626
2245 0 55.4021 13.5013 748 56.4144 1182.06 569.563
2246 0 57.0697 14.1581 808 56.0384 1182.05 568.434
2247 0 61.2922 13.9659 856 55.4206 1182.24 566.472
2248 0 62.2156 14.2408 886 55.7483 1182.2 565.693
2249 0 63.3137 14.5782 923 55.2784 1181.97 564.114
2250 0 65.1326 13.8026 899 56.5406 1181.43 563.628
2251 0 65.1326 13.8487 902 165.819 1180.43 563.636
2252 0 71.2509 14.2875 1018 55.3477 1181.01 561.959
2253 0 74.3735 13.8356 1029 55.8484 1181.04 558.5
2254 0 78.3385 14.3607 1125 54.8516 1181.29 558.777
2255 0 80.2933 14.4968 1164 55.3136 1181.09 556.826
2256 0 83.3072 14.2125 1184 54.8277 1181.21 557.305
2257 0 85.4457 14.161 1210 55.057 1181.1 555.193
2258 1 41.177 11.9484 492 57.3699 1181.11 574.768
2259 0 44.1395 12.6191 557 56.4434 1180.76 573.176
2260 0 47.4878 13.4982 641 55.1295 1180.76 572.268
2261 0 48.3117 13.268 641 55.7145 1180.97 572.983
2262 0 50.216 14.7363 740 53.927 1180.71 571.228
2263 0 50.2568 13.6698 687 55.31 1180.88 570.422
2264 0 52.3077 12.2353 640 57.1234 1181.1 568.981
2265 0 54.292 12.9669 704 56.2798 1181.12 567.422
2266 0 55.2958 13.3826 740 56.0243 1181.1 567.386
2267 0 58.58 14.254 835 54.9054 1181.41 567.508
2268 0 60.1297 14.6018 878 54.3041 1181.95 567.779
2269 0 59.311 14.1458 839 55.6853 1181.67 565.948
2270 0 63.5239 13.5067 858 56.1783 1181.84 566.834
2271 0 64.1685 14.2593 915 55.7749 1181.81 565.97
2272 0 67.3523 14.5504 980 55.598 1181.51 563.655
2273 0 67.5951 13.6252 921 56.709 1181.45 563.281
2274 0 70.3523 14.2284 1001 56.1518 1181.51 562.913
2275 0 72.3703 13.0302 943 57.824 1181.49 561.358
2276 0 75.3155 13.7555 1036 56.3417 1181.39 560.161
2277 0 78.6161 14.4373 1135 55.5419 1180.81 557.868
2278 0 81.4181 13.7684 1121 55.9509 1180.68 554.661
2279 0 85.3662 14.5022 1238 54.601 1180.97 556.528
2280 0 87.2828 14.4931 1265 54.6964 1180.59 552.458
2281 1 47.3024 12.4729 590 55.4305 1180.58 574.292
2282 0 48.1898 12.0357 580 56.0966 1180.95 574.16
2283 0 48.1898 12.0357 580 156.171 1181.95 574.16
2284 0 52.1401 13.2719 692 54.8844 1180.6 572.71
2285 0 52.3046 13.0773 684 55.6696 1180.57 570.12
2286 0 55.378 13.9044 770 54.4325 1180.04 570.645
2287 0 60.3457 13.0581 788 54.9213 1180.5 569.231
2288 0 59.4905 13.2122 786 55.0496 1180.12 569.211
2289 0 60.4594 14.0094 847 54.5112 1179.74 569.007
2290 0 60.4594 14.0425 849 168.436 1179.74 569.207
2291 0 65.7024 14.5048 953 53.9171 1179.56 566.027
2292 0 69.4706 13.387 930 54.6785 1179.8 566.357
2293 0 71.6366 13.4987 967 55.0434 1179.71 564.328
2294 0 75.9078 14.6889 1115 53.5803 1180.16 562.696
2295 0 75.9078 14.7284 1118 158.455 1180.16 562.665
2296 0 78.4902 13.8743 1089 54.8981 1179.88 561.151
2297 0 81.5515 14.825 1209 54.8983 1180.44 558.215
2298 0 84.4824 14.3699 1214 55.425 1180.03 556.632
2299 0 85.5662 14.7722 1264 55.6345 1179.39 555.655
2300 0 91.6647 13.8767 1272 55.9898 1179.52 556.108
2301 0 94.612 14.3322 1356 55.3643 1179.44 554.187
2302 1 49.2453 10.7015 527 58.6338 1179.31 576.279
2303 0 51.3185 10.9122 560 58.2268 1179.49 574.957
2304 0 53.2958 12.5338 668 57.3488 1179.38 572.578
2305 0 54.5328 13.4231 732 56.8716 1179.69 571.631
2306 0 57.3645 13.5275 776 56.5168 1179.53 570.664
2307 0 59.4528 14.6671 872 55.8337 1179.35 569.7
2308 0 61.4473 14.1259 868 56.3802 1179.93 568.68
2309 0 64.7202 13.3807 866 56.9503 1179.48 566.947
2310 0 68.6772 13.76 945 55.8423 1179.78 566.379
2311 0 69.6238 13.3288 928 56.8556 1180.21 564.583
2312 0 72.8646 13.5457 987 56.4975 1179.53 562.499
2313 0 75.5587 14.7832 1117 55.2193 1179.63 561.118
2314 0 76.7325 13.7621 1056 56.2585 1179.85 561.442
2315 0 80.9072 14.5105 1174 55.5613 1179.59 558.639
2316 0 84.7635 14.6525 1242 55.2536 1179.43 558.16
2317 0 86.7138 14.0231 1216 56.3413 1179.62 554.875
2318 0 88.6785 14.3891 1276 56.5298 1179.69 554.085
2319 0 91.6456 15.2435 1397 55.6578 1180.33 553.231
2320 1 45.4623 11.1741 508 60.7618 1180.38 574.317
2321 0 47.5699 11.0995 528 60.3409 1180.49 572.669
2322 0 47.5576 11.7752 560 60.4143 1180.67 572.812
2323 0 49.5512 12.7545 632 59.269 1180.5 571.407
2324 0 52.3189 13.1692 689 58.7707 1180.69 569.343
2325 0 53.1507 13.9979 744 57.6935 1181.45 570.843
2326 0 55.2616 13.3004 735 58.5116 1181.08 567.82
2327 0 56.3536 13.1846 743 59.7066 1181.61 564.884
2328 0 58.3968 13.6994 800 58.9763 1181.67 565.566
2329 0 59.4008 14.0907 837 58.6834 1181.82 564.204
2330 0 60.3669 13.4511 812 59.9643 1181.5 563.35
2331 0 63.4672 13.503 857 59.6453 1181.89 561.903
2332 0 63.4672 13.503 857 174.875 1182.89 561.903
2333 0 68.5785 14.0569 964 59.1836 1182.04 558.699
2334 0 70.4111 13.9893 985 59.3777 1182.46 557.637
2335 0 73.443 13.8202 1015 59.7823 1182.72 556.427
2336 0 76.4258 14.2099 1086 58.9521 1182.82 555.948
2337 0 79.3705 13.8842 1102 59.5018 1183.21 554.554
2338 0 83.5384 14.4844 1210 58.7719 1183.11 554.096
2339 0 86.5605 13.7938 1194 59.8476 1182.97 551.317
2340 1 47.3083 10.9072 516 59.343 1183.71 573.729
2341 0 46.1538 11.635 537 61.4525 1183.05 569.166
2342 0 49.3494 11.0032 543 61.1915 1183.15 569.532
2343 0 51.2336 12.8236 657 60.2009 1182.87 568.19
2344 0 51.1807 12.4656 638 61.3621 1183.05 566.246
2345 0 55.1272 13.6956 755 59.1126 1183.5 566.801
2346 0 55.1455 13.147 725 60.5117 1183.35 565.76
2347 0 58.1954 13.8327 805 59.5342 1183.4 565.164
2348 0 59.2702 14.0037 830 59.159 1183.33 564.159
2349 0 62.2583 13.7652 857 59.0782 1183.45 564.292
2350 0 63.169 14.0575 888 59.5856 1183.47 563.078
2351 0 65.2513 14.176 925 59.44 1183.57 560.297
2352 0 65.2763 13.328 870 60.5529 1183.56 560.568
2353 0 67.1804 13.5456 910 61.0077 1183.27 557.221
2354 0 70.4762 12.6568 892 62.1715 1183.55 558.933
2355 0 71.328 13.8795 990 60.9374 1183.48 555.237
2356 0 75.55 14.3878 1087 59.4213 1183.73 556.091
2357 0 75.4803 14.1229 1066 60.7298 1183.61 553.948
2358 0 78.4212 13.9758 1096 61.2409 1183.37 551.579
2359 0 81.3645 14.011 1140 60.6588 1183.14 551.964
2360 0 83.3997 14.2566 1189 60.9403 1183.28 549.283
2361 0 88.3136 13.9843 1235 60.6 1183.08 549.43
2362 0 88.2558 13.8461 1222 61.0908 1182.76 548.5
2363 0 92.2108 14.9006 1374 58.9782 1182.59 546.04
2364 1 49.2244 11.5796 570 60.9474 1182.91 568.912
2365 0 53.1387 11.5735 615 60.8325 1182.99 568.537
2366 0 53.1786 11.8657 631 60.336 1182.86 567.585
2367 0 52.0981 12.4765 650 60.3877 1182.41 567.509
2368 0 55.1152 12.4104 684 60.5073 1182.39 566.202
2369 0 58.4492 12.7461 745 60.0295 1182.57 565.106
2370 0 59.2061 13.8161 818 58.8606 1182.77 563.963
2371 0 60.3145 12.7664 770 59.9649 1182.53 563.432
2372 0 63.2358 13.1887 834 58.9832 1182.42 562.927
2373 0 68.1736 13.4216 915 58.5333 1182.17 561.768
2374 0 70.2094 13.3315 936 58.7799 1182.02 559.353
2375 0 69.1287 14.3934 995 58.598 1182.11 557.844
2376 0 73.1442 13.7126 1003 58.9372 1181.85 559.21
2377 0 76.2336 13.8259 1054 58.945 1182.01 556.565
2378 0 79.1966 13.5359 1072 59 1182.34 553.768
2379 0 80.1789 12.9336 1037 60.0019 1182.15 554.538
2380 0 85.1143 14.2632 1214 58.1087 1182.14 553.322
2381 0 86.2087 13.3977 1155 56.8684 1182.02 550.689
2382 0 91.1785 13.7532 1254 55.6037 1181.72 550.998
2383 0 93.1192 13.4129 1249 56.1569 1182.3 548.297
2384 1 49.0519 10.0914 495 54.8343 1182.37 573.485
2385 0 48.057 9.30146 447 57.1723 1182.3 570.253
2386 0 51.0501 11.7728 601 54.223 1182.25 569.554
2387 0 52.114 11.59 604 54.9272 1181.73 568.808
2388 0 56.119 12.1527 682 53.3592 1181.3 568.34
2389 0 56.0677 12.0747 677 53.5731 1181.09 566.756
2390 0 59.1131 13.1274 776 52.2075 1181.27 567.777
2391 0 62.116 11.8327 735 53.581 1181.17 565.652
2392 0 63.1631 11.6049 733 53.5648 1181.03 564.169
2393 0 66.0763 12.3191 814 52.5946 1181.15 562.641
2394 0 68.0432 12.6096 858 52.1387 1181.16 561.956
2395 0 70.1629 13.1123 920 51.9272 1180.97 559.222
2396 0 71.0898 11.6191 826 53.7421 1181.24 560.277
2397 0 76.1469 12.5941 959 52.5464 1181.16 558.897
2398 0 76.0773 11.5803 881 53.8218 1181.37 557.589
2399 0 80.2342 11.9276 957 53.5319 1181.37 556.088
2400 0 82.1774 12.1323 997 53.5376 1180.61 554.128
2401 0 85.2078 12.9448 1103 52.9374 1180.75 552.652
2402 0 87.2328 11.7502 1025 54.4585 1180.86 552.005
2403 1 49.0751 9.29188 456 52.6754 1181.33 572.042
2404 0 50.038 9.03313 452 52.7345 1181.12 572.874
2405 0 51.2243 8.43349 432 53.5278 1180.89 571.701
2406 0 53.1057 10.0178 532 52.468 1181.02 570.474
2407 0 55.3343 10.9335 605 51.3273 1180.73 570.139
2408 0 56.1201 10.1212 568 52.3151 1180.95 570.465
2409 0 59.3761 11.2503 668 50.5389 1180.57 568.545
2410 0 59.1785 9.66567 572 52.6958 1180.1 567.983
2411 0 59.3657 10.2248 607 52.6606 1180.12 567.185
2412 0 62.3085 10.9776 684 52.0044 1179.88 565.632
2413 0 63.277 11.2995 715 51.8056 1179.77 565.415
2414 0 69.1906 11.8802 822 50.7749 1179.48 564.225
2415 0 69.2658 10.9 755 51.5377 1179.32 566.109
2416 0 69.188 10.1174 700 53.0114 1179.39 563.929
2417 0 72.4375 11.0716 802 52.1671 1179.08 563.511
2418 0 75.1977 10.9711 825 51.543 1179.16 561.674
2419 0 78.3473 11.1682 875 51.4103 1179.44 560.965
2420 0 80.2357 11.865 952 51.3309 1179 557.695
2421 0 83.3153 12.2427 1020 51.1176 1178.96 556.052
2422 1 48.0619 9.30051 447 49.6644 1179.58 578.508
2423 0 49.0529 10.295 505 49.3881 1179.76 575.517
2424 0 49.1059 10.4875 515 49.4272 1179.4 575.934
2425 0 50.1143 11.0547 554 49.5126 1179.27 574.767
2426 0 51.071 10.7497 549 50.0091 1179 574.089
2427 0 52.0722 10.2358 533 51.4409 1179.32 573.861
2428 0 54.0933 10.7407 581 50.8227 1178.99 574.084
2429 0 57.1415 11.0603 632 50.7753 1179.03 572.573
2430 0 58.1639 10.9174 635 51.2961 1178.68 571.444
2431 0 60.1173 11.3445 682 51.0015 1178.61 570.727
2432 0 60.2033 11.4612 690 51.387 1179.09 570.157
2433 0 62.04 11.2508 698 52.6705 1179.07 570.348
2434 0 64.1596 12.1104 777 51.843 1179.33 566.816
2435 0 64.0881 10.7664 690 53.0957 1179.27 567.658
2436 0 66.1624 11.6078 768 53.2005 1179.01 565.036
2437 0 69.1531 12.3494 854 52.1054 1179.02 566.412
2438 0 73.0865 12.6015 921 52.0163 1178.86 564.17
2439 0 74.2751 12.5479 932 52.1706 1178.24 563.208
2440 1 38.1537 8.85891 338 53.9704 1178.18 580.485
2441 0 42.0942 10.1439 427 53.1335 1177.12 577.281
2442 0 43.0959 9.97774 430 54.214 1177.45 578.186
2443 0 44.1499 10.2152 451 53.3725 1177.68 580.06
2444 0 45.1256 10.5262 475 53.9642 1177.43 577.227
2445 0 47.2186 10.9279 516 53.8159 1177.46 576.052
2446 0 46.1117 11.7974 544 53.4835 1178.1 575.21
2447 0 50.2479 11.8413 595 53.1697 1178.28 572.787
2448 0 49.1651 11.7563 578 54.1869 1178.37 573.905
2449 0 49.1468 11.781 579 54.6753 1178.52 571.798
2450 0 52.1542 12.1754 635 53.8126 1178.66 571.507
2451 0 54.2094 11.7323 636 54.2689 1178.87 570.665
2452 0 54.1268 12.1936 660 54.9545 1179.13 568.783
2453 0 58.1191 13.6616 794 52.3589 1179.68 565.049
2454 0 59.1594 12.7959 757 52.2919 1179.29 564.185
2455 0 58.129 13.6421 793 51.5902 1179.09 565.68
2456 0 63.106 13.5645 856 51.7442 1179.95 567.297
2457 0 63.1353 13.5582 856 52.3458 1180.22 564.444
2458 0 65.1985 13.4359 876 52.379 1180.43 563.696
2459 0 66.3113 12.7731 847 53.4073 1180.66 563.041
2460 0 66.312 13.2404 878 53.3349 1180.7 562.44
2461 0 69.1241 13.1792 911 53.2448 1180.9 561.597
2462 0 70.1656 12.2567 860 54.3314 1181.06 562.188
2463 0 72.2336 13.2902 960 53.3052 1181.29 560.526
2464 0 75.2077 12.8178 964 53.417 1181.26 559.833
2465 0 76.1291 13.175 1003 53.9392 1181.12 557.69
2466 0 80.3335 14.8008 1189 51.2161 1181.98 556.35
2467 0 82.21 14.1589 1164 52.2801 1182.19 554.711
2468 0 82.1312 13.1253 1078 53.6753 1182.61 555.054
2469 0 85.2358 13.3395 1137 53.5004 1182 551.192
2470 0 87.157 12.7356 1110 54.3108 1182.45 550.95
2471 0 91.2696 14.1887 1295 52.2965 1182.67 547.853
2472 0 95.1909 14.7388 1403 51.5296 1183.04 547.632
2473 0 97.2132 13.743 1336 52.7882 1183.04 546.067
2474 0 100.176 14.5544 1458 51.9527 1183.43 544.537
2475 1 53.0692 9.42167 500 54.044 1183.66 570.392
2476 0 53.0494 11.4987 610 53.0131 1183.75 569.043
2477 0 55.0959 10.7993 595 53.6252 1183.8 566.282
2478 0 58.0455 12.8175 744 51.1519 1183.6 568.192
2479 0 60.0603 12.7872 768 51.651 1183.73 566.658
2480 0 60.1069 12.7273 765 52.3464 1182.91 564.675
2481 0 64.0674 13.1736 844 51.6552 1183.34 563.186
2482 0 66.1278 12.491 826 51.4976 1183.39 565.272
2483 0 66.134 13.5634 897 51.5139 1183.12 560.428
2484 0 71.105 13.6277 969 51.1569 1183.24 560.243
2485 0 75.1057 12.995 976 51.2777 1183.29 559.01
2486 0 73.1067 13.4324 982 52.0957 1183.35 556.342
2487 0 78.1409 14.7298 1151 50.0078 1183.51 557.562
2488 0 80.126 13.8532 1110 51.6405 1183.01 556.142
2489 0 82.0902 13.9481 1145 51.5144 1183.15 554.144
2490 0 84.1031 13.5429 1139 51.5487 1182.99 554.583
2491 0 87.094 13.8127 1203 51.2111 1183.15 552.85
2492 0 91.1699 13.1184 1196 52.1446 1183.11 550.807
2493 0 94.0446 14.1954 1335 51.3918 1182.98 550.243
2494 0 96.354 13.1494 1267 52.4917 1183.15 549.674
2495 1 50.0673 10.7256 537 52.892 1183.63 572.387
2496 0 53.0397 12.1041 642 52.6667 1183.31 568.687
2497 0 56.0309 12.0826 677 52.418 1183.16 568.941
2498 0 58.0221 13.4087 778 51.0167 1183.03 568.564
2499 0 60.0678 12.4693 749 51.9773 1182.51 566.318
2500 0 59.0242 13.1133 774 52.0556 1182.5 564.628
2501 0 63.089 13.3462 842 51.1912 1182.44 564.251
2502 0 65.0322 13.4549 875 51.7051 1182.2 565.129
2503 0 67.0941 13.7866 925 51.307 1181.88 562.404
2504 0 69.103 12.6767 876 53.0126 1181.79 560.691
2505 0 72.0433 12.6313 910 52.3407 1182.11 561.349
2506 0 75.1063 14.0601 1056 51.0616 1182.02 558.099
2507 0 78.0772 14.8443 1159 49.6022 1181.55 558.139
2508 0 78.0772 14.8059 1156 150.849 1181.53 558.132
2509 0 81.191 12.4891 1014 53.0049 1181.61 554.704
2510 0 86.2022 12.5519 1082 52.707 1181.71 553.58
2511 0 89.1953 13.4088 1196 51.8319 1181.54 549.849
2512 1 48.0704 10.6926 514 52.5798 1180.87 571.568
2513 0 51.05 10.95 559 52.0089 1180.89 572.208
2514 0 50.1155 11.8925 596 51.9463 1181.42 570.139
2515 0 53.0355 11.9165 632 52.6218 1182.15 569.411
2516 0 53.096 12.7693 678 51.7463 1181.41 570.248
2517 0 55.0526 12.2428 674 51.9021 1180.88 570.726
2518 0 60.1795 13.3268 802 50.091 1181.34 567.96
2519 0 60.0579 12.3214 740 51.6135 1181.31 567.276
2520 0 62.135 12.2153 759 50.9209 1181.48 567.32
2521 0 64.0992 12.2154 783 50.9987 1181.29 565.616
2522 0 68.1509 12.8978 879 49.8237 1181.3 564.902
2523 0 69.0521 13.0771 903 50.3411 1181.69 563.07
2524 0 70.0651 12.1887 854 51.3244 1181.45 562.309
2525 0 73.1291 11.8147 864 51.7269 1180.9 559.157
2526 0 76.1213 12.0203 915 51.1923 1180.91 560.062
2527 0 77.1084 12.6316 974 51.27 1180.14 557.419
2528 0 82.1796 12.4605 1024 50.7188 1180.6 557.007
2529 1 42.0601 9.74797 410 51.739 1181.53 575.171
2530 0 47.042 10.2887 484 49.8802 1180.89 576.44
2531 0 46.0357 10.0574 463 50.3326 1180.89 575.922
2532 0 49.0338 11.0128 540 49.9315 1180.55 574.048
2533 0 51.0517 11.7724 601 49.4709 1180.58 572.507
2534 0 50.0961 11.6376 583 51.0703 1180.95 571.417
2535 0 52.2417 11.8105 617 50.7585 1180.79 571.538
2536 0 54.1154 11.4016 617 51.3468 1180.2 570.639
2537 0 57.3025 13.1582 754 49.9867 1180.71 569.351
2538 0 56.2259 12.0051 675 52.5985 1180.62 568.142
2539 0 59.2385 12.1036 717 52.4156 1180.33 567.523
2540 0 61.1539 11.7736 720 52.5486 1180.24 567.003
2541 0 64.1797 13.5557 870 50.4437 1179.79 566.744
2542 0 66.1849 12.2989 814 51.8268 1180.09 566.301
2543 0 66.2781 12.4325 824 52.3313 1179.78 565.234
2544 0 69.4547 12.4254 863 52.6385 1179.81 562.621
2545 0 71.253 12.0697 860 53.0709 1179.38 560.559
2546 0 73.5331 12.6746 932 52.5697 1179.9 560.559
2547 1 38.1772 10.5822 404 51.8639 1179.74 579.691
2548 0 38.3062 8.79754 337 52.8724 1178.77 580.021
2549 0 39.2813 10.1066 397 52.9295 1178.98 576.997
2550 0 41.1069 11.4823 472 50.9852 1179.49 576.521
2551 0 42.0691 11.0057 463 52.8315 1180.13 578.883
2552 0 45.1223 12.588 568 50.8204 1179.58 578.305
2553 0 45.104 11.5733 522 52.5153 1179.45 577.249
2554 0 46.1668 11.1552 515 52.5282 1179.59 576.274
2555 0 46.2042 12.3582 571 52.1016 1179.42 574.82
2556 0 46.0859 10.5238 485 53.8907 1179.27 577.367
2557 0 48.1049 12.3896 596 52.7215 1179.03 574.505
2558 0 49.1624 13.0791 643 51.7745 1179.29 575.162
2559 0 51.1811 11.7622 602 52.9618 1179.23 573.829
2560 0 53.197 11.7676 626 52.8147 1179.23 573.487
2561 0 55.1161 12.5916 694 52.0159 1179.39 571.01
2562 0 55.0869 12.1445 669 52.2033 1179.26 572.994
2563 0 58.1961 11.7877 686 52.0816 1179.17 571.512
2564 0 57.0644 11.636 664 52.6792 1179.32 570.925
2565 0 59.1935 13.667 809 50.4969 1179.45 567.967
2566 0 63.1493 12.5259 791 52.3603 1179.26 567.348
2567 0 64.0973 11.857 760 53.1882 1178.79 565.412
2568 0 64.1661 12.2806 788 52.6434 1178.96 566.181
2569 0 68.1659 11.0319 752 53.5199 1179.46 566.025
2570 0 71.2203 11.7382 836 52.6675 1178.69 565.114
2571 1 37.0273 10.2897 381 53.0105 1179.11 580.325
2572 0 40.0535 10.0116 401 52.5586 1179.01 579.88
2573 0 41.1473 11.5196 474 51.7089 1178.55 578.131
2574 0 42.0871 11.5712 487 51.7187 1179.12 578.768
2575 0 44.0704 11.8674 523 51.1109 1179.08 578.776
2576 0 44.0889 12.747 562 50.3452 1178.62 578.416
2577 0 44.1957 12.1731 538 51.5446 1177.64 577.366
2578 0 46.1867 13.3155 615 50.6358 1177.82 576.328
2579 0 47.1874 12.4186 586 51.1382 1178.02 575.63
2580 0 50.2137 12.626 634 50.7997 1177.83 574.435
2581 0 52.1232 13.1228 684 50.826 1177.95 574.858
2582 0 52.0563 13.1204 683 50.9605 1178.06 573.038
2583 0 54.1523 12.945 701 51.0713 1178.11 571.932
2584 0 54.1032 12.4207 672 51.8214 1178.15 572.168
2585 0 57.3385 12.8884 739 51.4614 1177.73 571
2586 0 60.0821 12.4496 748 50.9693 1178.05 570.426
2587 0 61.1667 13.6512 835 50.1713 1178.24 569.661
2588 0 62.1201 13.3451 829 51.0217 1178.24 566.568
2589 0 63.0702 13.0965 826 51.0811 1178.28 567.369
2590 0 64.3445 13.7541 885 50.9503 1178.54 565.253
2591 0 68.0839 13.5274 921 51.0565 1178.34 563.135
2592 0 69.1556 13.7227 949 51.02 1178.57 561.739
2593 0 70.221 13.6711 960 51.4823 1178.63 562.057
2594 0 76.2721 13.5043 1030 50.7573 1179.05 560.939
2595 0 76.3822 13.1837 1007 52.2085 1178.83 558.942
2596 1 40.1839 10.875 437 53.0458 1178.88 577.437
2597 0 42.3045 10.1171 428 54.5701 1178.76 575.29
2598 0 42.2003 12.0378 508 52.6752 1178.69 575.276
2599 0 45.3223 12.1574 551 51.7877 1179.38 573.75
2600 0 44.0952 12.0648 532 53.8459 1180.46 575.876
2601 0 48.1661 12.8306 618 52.1537 1179.81 575.222
2602 0 49.195 12.7655 628 52.9602 1180.77 573.979
2603 0 48.1336 11.7589 566 54.6625 1180.59 573.214
2604 0 52.1085 13.9133 725 51.8014 1180.71 572.229
2605 0 53.1317 13.5324 719 52.2921 1180.72 570.312
2606 0 55.0947 13.2318 729 52.0027 1181.12 571.672
2607 0 55.1002 14.0471 774 52.6382 1181.43 571.156
2608 0 58.1197 13.5582 788 52.9137 1181.79 569.668
2609 0 58.1245 13.4195 780 54.3769 1181.97 567.477
2610 0 59.1079 13.5515 801 54.5243 1181.72 566.924
2611 0 61.1346 13.6093 832 54.506 1182.03 565.238
2612 0 66.0745 14.4383 954 52.739 1182.1 564.746
2613 0 64.2755 13.8 887 54.7046 1182.36 563.89
2614 0 68.122 13.9456 950 54.7863 1182.35 561.766
2615 0 69.1612 13.0131 900 55.9344 1182.57 561.686
2616 0 71.3173 13.7835 983 55.5402 1182.27 559.223
2617 0 76.3449 14.238 1087 54.8758 1182.61 557.179
2618 0 75.4149 14.0423 1059 55.7715 1182.48 556.504
2619 0 81.4947 14.4672 1179 54.5488 1182.37 555.042
2620 0 82.4241 13.1636 1085 56.7327 1182.93 553.49
2621 1 44.1884 11.4283 505 57.1564 1182.67 571.402
2622 0 47.1411 11.6247 548 56.0912 1182.84 571.026
2623 0 48.1312 11.4894 553 56.7468 1183.18 570.819
2624 0 50.0317 11.1729 559 56.9857 1183.99 570.072
2625 0 52.1149 12.127 632 56.3924 1183.85 568.291
2626 0 51.08 13.0971 669 56.565 1183.3 569.942
2627 0 53.1561 13.6203 724 55.3481 1183.54 569.033
2628 0 56.1796 12.1752 684 56.9006 1183.36 568.56
2629 0 58.0565 12.6601 735 56.2912 1183.29 567.156
2630 0 59.083 12.5586 742 56.2938 1183.4 566.601
2631 0 61.0717 12.3461 754 56.0438 1183.13 566.777
2632 0 63.0915 13.1396 829 55.4922 1183.07 564.917
2633 0 65.0692 12.3715 805 56.6161 1182.96 563.212
2634 0 67.2828 13.5845 914 55.2024 1182.91 562.397
2635 0 69.1165 12.7321 880 56.2864 1183.17 560.288
2636 0 71.0956 13.4326 955 55.9016 1183.37 560.084
2637 0 75.1738 14.1273 1062 54.6742 1182.98 559.884
2638 0 77.0684 13.4167 1034 55.7573 1182.66 555.049
2639 0 80.0896 12.948 1037 56.0473 1182.6 552.685
2640 0 85.1161 14.2746 1215 54.1358 1182.68 552.485
2641 0 86.1144 12.9827 1118 55.7719 1182.82 552.835
2642 0 89.1608 13.1448 1172 56.2858 1182.77 550.218
2643 1 48.0593 10.6743 513 56.8967 1182.88 571.764
2644 0 51.0248 10.8379 553 57.2441 1183.02 570.716
2645 0 52.0235 11.1873 582 56.3368 1182.47 569.954
2646 0 53.0345 12.8596 682 55.7331 1182.18 567.151
2647 0 56.0387 12.759 715 54.9664 1181.47 568.078
2648 0 57.0587 13.4949 770 53.8623 1182.61 567.771
2649 0 59.0355 13.4157 792 53.173 1182.61 565.443
2650 0 61.0459 13.0721 798 52.713 1182.85 566.47
2651 0 62.0476 13.4091 832 53.1791 1182.7 563.369
2652 0 65.1425 12.8334 836 53.4689 1182.47 562.867
2653 0 66.0539 11.6874 772 55.2267 1181.97 562.583
2654 0 71.0927 13.3347 948 52.7141 1181.72 561.052
2655 0 72.135 14.0986 1017 52.6028 1181.62 557.814
2656 0 75.1088 12.9945 976 53.5082 1181.94 558.905
2657 0 78.0864 12.9472 1011 53.8081 1181.62 555.905
2658 0 80.1694 12.5983 1010 54.2653 1181.37 556.382
2659 1 42.0662 8.48662 357 54.3978 1182.02 577.986
2660 0 45.0505 10.6325 479 53.1357 1182.07 575.449
2661 0 47.124 10.292 485 53.8907 1182.07 574.695
2662 0 46.0518 10.7488 495 54.0424 1181.62 572.96
2663 0 48.0131 12.4341 597 52.7052 1181.45 571.245
2664 0 50.0303 12.4724 624 52.2644 1181.84 571.308
2665 0 51.2216 12.0652 618 53.5841 1181.19 570.896
2666 0 52.3051 11.93 624 53.7356 1181.17 569.215
2667 0 54.1168 12.3067 666 53.7372 1181.28 569.67
2668 0 57.1033 12.0658 689 53.5239 1181.64 567.329
2669 0 57.1408 11.7079 669 54.5516 1181.4 566.439
2670 0 59.2073 13.1234 777 52.8185 1181.46 566.017
2671 0 62.1762 12.5932 783 53.1047 1181.91 566.444
2672 0 63.201 12.3574 781 53.831 1181.43 563.625
2673 0 65.0848 12.5529 817 53.9033 1181.57 564.142
2674 0 68.1048 12.3192 839 53.9547 1181.76 563.893
2675 0 69.1614 12.7528 882 54.1939 1181.34 561.418
2676 0 72.1568 12.5144 903 54.1694 1181.23 560.465
2677 0 72.1001 13.6616 985 53.6345 1181.6 560.305
2678 0 75.0815 12.8261 963 54.3614 1181.58 559.725
2679 0 78.1651 12.883 1007 53.7279 1181.33 558.898
2680 0 80.122 13.442 1077 54.039 1181.12 556.912
2681 0 84.1765 13.5311 1139 53.5891 1180.93 555.146
2682 0 87.1373 13.7255 1196 53.393 1181.32 554.763
2683 0 88.1523 13.42 1183 54.5706 1181.42 551.407
2684 1 41.0306 8.74956 359 56.4847 1181.54 578.189
2685 0 45.0378 10.5023 473 54.7336 1181.52 576.894
2686 0 47.0462 10.7129 504 55.252 1181.14 575.554
2687 0 47.1187 10.8025 509 55.2986 1181.02 573.57
2688 0 50.0814 11.1618 559 54.9016 1180.49 572.551
2689 0 51.1349 12.6333 646 54.8715 1179.8 572.348
2690 0 52.2566 12.6108 659 54.9727 1179.73 571.445
2691 0 54.0215 13.1059 708 54.0946 1179.95 573.469
2692 0 54.2284 12.6318 685 55.3737 1179.73 571.448
2693 0 57.1656 13.4871 771 54.6135 1179.43 571.121
2694 0 58.1438 13.5182 786 54.8448 1179.53 568.807
2695 0 59.2541 13.1468 779 54.9743 1180.07 568.507
2696 0 61.224 13.4914 826 54.8341 1179.7 570.252
2697 0 63.2221 12.3849 783 56.2976 1179.54 568.211
2698 0 65.2259 13.5222 882 55.4252 1179.35 566.105
2699 0 67.3384 13.0238 877 55.8426 1179.09 567.873
2700 0 70.1765 13.0955 919 55.4984 1179.57 566.737
2701 0 70.2782 13.6173 957 55.651 1179.39 564.989
2702 0 71.3054 13.9681 996 55.7349 1179.35 564.343
2703 0 73.1628 13.2034 966 56.6542 1179.55 562.711
2704 0 75.2589 13.5134 1017 56.3835 1179.71 563.798
2705 0 76.3562 13.2013 1008 58.0605 1179.72 561.07
2706 0 80.224 13.7615 1104 57.2056 1179.27 560.313
2707 1 44.1039 10.7927 476 57.3445 1179.75 580.235
2708 0 43.2543 10.1724 440 60.125 1180.05 578.684
2709 0 46.1105 11.2122 517 58.6809 1179.35 577.439
2710 0 46.113 11.7754 543 58.4494 1179.46 577.339
2711 0 48.2216 13.1062 632 57.3766 1178.96 575.092
2712 0 48.0767 12.9169 621 58.0644 1178.85 573.531
2713 0 50.2798 12.9475 651 58.2243 1178.8 573.421
2714 0 53.1981 13.8727 738 56.5434 1178.71 573.355
2715 0 54.2742 13.5239 734 56.7371 1178.8 573.331
2716 0 54.0711 13.7412 743 56.21 1178.71 571.335
2717 0 58.2319 13.618 793 55.8386 1178.99 570.288
2718 0 58.2975 14.4775 844 55.0581 1178.67 569.996
2719 0 61.2374 14.0437 860 55.4512 1178.82 570.947
2720 0 61.1973 13.481 825 56.6206 1178.79 569.042
2721 0 62.2971 12.8738 802 57.7082 1178.88 567.961
2722 0 64.3803 13.0164 838 57.7852 1179.27 567.104
2723 0 66.3901 12.9236 858 57.8333 1178.84 564.514
2724 0 68.2424 13.8037 942 56.8524 1179.15 563.008
2725 0 72.375 14.6045 1057 55.1183 1178.98 561.692
2726 0 72.3772 13.402 970 56.7691 1179.35 561.611
2727 0 74.2081 13.1926 979 56.903 1179.37 560.952
2728 0 77.3934 13.5154 1046 56.4742 1179.42 559.848
2729 0 81.3414 13.6462 1110 55.8811 1179.75 558.519
2730 0 82.2462 13.5569 1115 56.2377 1179.62 553.898
2731 1 43.2868 11.4815 497 56.5433 1179.67 575.809
