time division length width area intensity CMx CMy
0 0 48.4205 11.0284 534 76.5618 1112.38 561.925
1 0 48.3602 11.2282 543 76.7698 1112.49 560.433
2 0 50.3139 12.7798 643 74.0638 1112.5 559.086
3 0 53.4023 12.5463 670 73.8328 1112.39 557.463
4 0 53.2522 12.3187 656 73.9345 1112.59 556.948
5 0 57.537 13.0699 752 70.5891 1112.43 556.076
6 0 58.2354 12.9131 752 71.1303 1112.2 553.975
7 0 59.3577 13.0901 777 70.8726 1112.47 554.188
8 0 63.6428 13.2929 846 71.3251 1112.93 550.949
9 0 65.2274 12.832 837 72.3536 1112.77 551.357
10 0 65.5278 13.0784 857 72.6324 1112.38 549.652
11 0 71.4303 13.2577 947 70.1742 1112.69 549.959
12 0 70.4091 13.1375 925 72.2043 1112.91 548.429
13 0 76.342 13.374 1021 70.0568 1112.94 547.385
14 0 78.4748 13.5075 1060 69.4792 1112.72 544.656
15 0 78.4501 13.1676 1033 69.637 1112.62 543.579
16 1 43.1812 11.6717 504 69.4286 1113.11 559.855
17 0 44.2628 10.7088 474 70.2363 1112.87 560.131
18 0 47.2721 12.1636 575 68.6261 1112.86 559.377
19 0 45.2675 11.7965 534 70.3371 1112.91 557.779
20 0 49.2439 12.7528 628 67.4697 1113.3 557.127
21 0 52.2713 12.3777 647 67.7666 1113.31 556.713
22 0 52.3391 12.6101 660 68.9848 1112.94 555.835
23 0 53.2885 12.3666 659 70.1275 1113.33 555.288
24 0 57.1419 13.4927 771 67.8768 1113.1 553.96
25 0 57.201 12.6746 725 69.9297 1113.17 553.221
26 0 59.2682 12.7893 758 70.1214 1113.25 551.719
27 0 62.2201 12.9701 807 94.3953 1113.43 551.689
28 0 63.1843 13.1045 828 70.0399 1113.17 549.996
29 0 66.3574 12.9601 860 69.4151 1113.68 550.571
30 0 67.2496 12.5057 841 71.1272 1113.72 549.395
31 0 69.3175 13.33 924 69.5942 1113.34 547.946
32 0 71.278 13.1738 939 69.8104 1113.68 546.216
33 0 73.2056 13.5645 993 69.717 1113.67 544.95
34 0 75.3908 13.0122 981 70.4995 1114.01 544.503
35 0 79.2432 13.3639 1059 69.8366 1114.01 541.688
36 0 80.3757 12.678 1019 70.7448 1114.42 540.943
37 0 83.1162 13.2706 1103 69.8531 1114.11 540.546
38 0 86.2947 13.0599 1127 69.5661 1114.06 540.756
39 1 47.2555 10.0306 474 69.5928 1114.77 561.063
40 0 49.2665 10.4128 513 68.5166 1114.85 559.671
41 0 51.3255 11.1446 572 67.9808 1114.55 557.701
42 0 51.3389 10.2846 528 68.4583 1113.93 558.051
43 0 54.182 11.5352 625 68.1408 1114.1 554.347
44 0 57.2552 12.0688 691 67.1187 1114.36 554.877
45 0 57.2976 11.8853 681 68.2775 1114.24 553.73
46 0 58.2841 12.0788 704 68.6449 1114.3 551.449
47 0 62.4116 12.754 796 67.2739 1114.43 549.848
48 0 63.3862 11.3747 721 69.4452 1114.71 549.903
49 0 65.3859 12.0668 789 68.7896 1114.22 547.973
50 0 68.3172 12.9543 885 66.8068 1114.54 548.225
51 0 68.2974 11.8745 811 68.6178 1114.96 547.89
52 0 73.1868 13.1308 961 66.5557 1115.09 546.215
53 0 73.3187 12.5207 918 68.2037 1114.08 545.045
54 0 77.2804 12.5387 969 61.8318 1114.21 544.353
55 0 78.3365 12.8803 1009 62.5193 1114.26 541.532
56 0 82.4677 13.4356 1108 60.8809 1114.5 541.071
57 0 83.3385 12.5272 1044 64.2778 1114.59 538.494
58 0 87.3405 12.8921 1126 63.5808 1114.46 537.528
59 0 88.361 12.5847 1112 64.2257 1114.47 534.99
60 0 93.2538 12.1818 1136 64.375 1114.97 533.868
61 1 45.2462 9.48147 429 62.5035 1114.94 559.142
62 0 47.2373 10.2461 484 62.4483 1115.05 558.24
63 0 47.1847 9.8549 465 62.9032 1114.62 557.551
64 0 51.3372 10.4408 536 61.5784 1114.81 556.575
65 0 52.3246 10.97 574 60.9843 1115.03 555.249
66 0 54.2251 10.3273 560 62.8554 1114.76 552.212
67 0 55.3903 10.1823 564 62.4397 1115.64 553.121
68 0 57.171 11.3519 649 61.0308 1115.7 551.698
69 0 59.5274 10.9529 652 61.4509 1115.53 551.314
70 0 60.3309 11.2712 680 61.4632 1115.44 549.815
71 0 60.3172 10.4448 630 63.0063 1115.82 549.271
72 0 63.2551 12.2836 777 61.0669 1115.93 546.521
73 0 65.2613 11.0939 724 61.9972 1116.38 546.254
74 0 68.4196 11.6341 796 61.6947 1116.64 545.031
75 0 71.2816 11.7983 841 61.7872 1116.9 543.662
76 0 71.2493 11.6352 829 62.5513 1116.72 542.23
77 0 75.2434 12.2668 923 61.1647 1117.02 540.782
78 0 75.3561 12.2087 920 61.788 1117.22 538.414
79 0 80.4889 12.685 1021 60.8972 1116.96 538.168
80 0 81.4362 12.3901 1009 61.996 1117.1 534.88
81 1 44.2948 9.05298 401 61.6559 1118.1 555.357
82 0 48.2523 11.1705 539 58.4119 1118.25 554.51
83 0 48.3304 11.0282 533 60.1013 1118.26 553.33
84 0 49.3313 11.1694 551 61.3866 1118.92 552.031
85 0 50.2625 11.1017 558 61.8961 1119.37 551.228
86 0 50.3852 11.6899 589 61.601 1119.27 549.672
87 0 52.282 10.3286 540 62.7667 1119.56 549.981
88 0 53.3436 10.8542 579 62.0069 1119.79 547.732
89 0 56.2873 10.9616 617 62.1799 1120.17 547.734
90 0 57.2352 11.2344 643 62.7869 1120.31 545.249
91 0 60.2368 11.654 702 62.1054 1120.61 544.333
92 0 59.162 11.5277 682 64 1121.18 543.072
93 0 61.2967 11.322 694 65.1585 1121.06 542.063
94 0 63.1825 10.9682 693 64.5685 1120.89 540.986
95 0 63.1573 11.7959 745 62.7973 1120.52 539.863
96 0 65.2836 11.9632 781 61.3009 1120.81 537.935
97 0 66.1441 11.8227 782 61.1113 1120.83 538.316
98 0 71.1333 11.8369 842 59.4762 1120.45 536.167
99 0 71.2059 11.3333 807 60.3123 1120.48 534.058
100 0 75.1609 12.134 912 59.057 1120.32 534.341
101 1 41.0359 9.77193 401 59.4414 1121.11 549.706
102 0 41.0143 8.60675 353 61.5892 1121.28 551.431
103 0 43.0238 9.29718 400 61.7325 1120.92 548.5
104 0 46.0247 10.2988 474 60.9304 1121.12 547.181
105 0 44.0133 9.97425 439 61.5308 1120.68 547.426
106 0 49.2354 11.8817 585 59.6068 1121.25 546.87
107 0 50.2706 11.5575 581 60.6351 1121.11 546.8
108 0 51.274 12.0724 619 60.609 1121.2 547.486
109 0 53.257 12.3176 656 59.9405 1120.74 544.742
110 0 52.3158 10.7042 560 63.0589 1120.78 543.588
111 0 56.2173 12.2026 686 60.1691 1120.48 542.331
112 0 56.2086 11.4395 643 60.8771 1120.8 542.579
113 0 58.261 11.6888 681 60.2056 1120.76 542.752
114 0 60.2623 12.2133 736 59.6984 1120.75 540.361
115 0 61.3234 12.5401 769 60.5865 1120.54 539.85
116 0 64.3476 13.6136 876 58.5057 1120.41 539.226
117 0 67.5385 13.1184 886 58.2912 1120.84 538.304
118 0 67.3512 13.4222 904 59.0476 1120.2 537.237
119 0 69.4946 13.3248 926 59.743 1120.41 537.771
120 0 71.4606 13.35 954 60.6132 1120.62 535.789
121 0 70.356 12.7637 898 62.1136 1121 535.004
122 0 73.4307 13.128 964 61.2075 1120.89 533.591
123 0 75.2362 13.3978 1008 60.9772 1120.96 531.246
124 0 79.3634 14.1123 1120 59.6982 1120.05 531.629
125 0 81.3097 13.6392 1109 60.0171 1120.06 531.291
126 0 83.3977 13.7534 1147 60.1726 1120 528.251
127 0 84.2277 13.606 1146 60.534 1119.45 527.125
128 1 42.1563 9.01408 380 61.7763 1119.53 549.961
129 0 43.1892 8.82164 381 61.5879 1119.4 549.591
130 0 43.1712 9.70554 419 61.2888 1118.96 547.666
131 0 45.3226 9.22278 418 60.799 1119.33 549.12
132 0 49.1716 11.8564 583 58.4048 1119.42 545.894
133 0 48.2814 11.5158 556 59.5342 1119.24 546.362
134 0 52.2585 11.6536 609 58.5057 1120.01 546.429
135 0 51.3068 11.441 587 60.2862 1120.18 545.564
136 0 54.3394 11.6858 635 58.5575 1119.77 544.438
137 0 56.3309 11.9473 673 58.0461 1119.95 543.037
138 0 56.3417 12.1935 687 57.7875 1119.95 543.246
139 0 59.1866 11.5229 682 57.1833 1119.79 541.462
140 0 59.2335 11.7163 694 57.2435 1119.63 541.503
141 0 60.1875 13.0758 787 55.8005 1119.74 539.947
142 0 62.2643 12.6718 789 56.1229 1119.51 539.807
143 0 64.3748 12.2253 787 56.2236 1119.08 539.268
144 0 67.2642 13.8261 930 54.9935 1119.09 536.601
145 0 68.4288 12.6409 865 56.5699 1119.29 537.082
146 0 72.5277 13.3604 969 55.1053 1118.94 535.768
147 0 73.4433 12.9896 954 56.3208 1118.67 535.091
148 0 75.5667 12.1217 916 57.1452 1118.78 534.939
149 0 76.4958 13.1641 1007 56.136 1118.73 533.194
150 0 78.4824 12.283 964 57.5882 1118.85 532.579
151 0 82.5937 12.6886 1048 56.7567 1118.53 530.377
152 0 86.4358 13.3972 1158 55.4853 1118.77 529.997
153 1 44.2636 9.03678 400 57.78 1119.25 549.995
154 0 46.2434 9.73112 450 57.1022 1119.27 547.729
155 0 48.2094 10.5788 510 56.302 1119.43 548.039
156 0 49.1517 11.2102 551 56.4247 1119.02 545.76
157 0 50.2615 11.8978 598 55.3562 1119.34 545.97
158 0 51.2756 11.2334 576 56.0399 1119.06 545.401
159 0 53.27 12.2958 655 54.6504 1119.03 544.711
160 0 57.306 12.3722 709 54.055 1118.75 544.509
161 0 59.2637 12.7397 755 53.0305 1118.72 544.391
162 0 58.2906 12.6779 739 53.9296 1118.67 542.595
163 0 62.343 12.9285 806 53.1402 1119.08 542.831
164 0 63.3011 12.559 795 54.4415 1119.01 539.445
165 0 66.4976 13.008 865 54.0659 1118.69 538.205
166 0 65.3048 13.46 879 54.5586 1118.77 537.399
167 0 69.4583 13.0294 905 55.1414 1119.14 536.935
168 0 71.5532 12.0889 865 56.0405 1119.58 537.739
169 0 76.5154 14.8467 1136 53.1761 1119.73 534.563
170 0 78.5218 13.1683 1034 55.8607 1119.95 533.155
171 0 80.3629 13.3644 1074 55.5605 1120.22 531.425
172 0 83.4585 13.3 1110 55.955 1120.5 530.187
173 0 85.2431 12.5406 1069 57.0599 1120.41 529.587
174 1 45.3453 9.30637 422 56.9123 1121.61 549.211
175 0 47.3443 9.86391 467 55.7452 1121.9 549.426
176 0 50.2979 11.4915 578 54.4931 1121.62 546.346
177 0 51.2624 10.6316 545 56.3083 1121.66 545.895
178 0 52.2037 12.2405 639 55.4695 1121.84 543.886
179 0 54.4286 12.5485 683 55.6223 1121.14 544.589
180 0 56.277 12.4207 699 55.8412 1121.34 543.795
181 0 57.3722 11.9396 685 56.5401 1121.03 540.958
182 0 58.3543 11.7215 684 56.9985 1121.34 541.322
183 0 62.285 12.9084 804 55.4142 1121.34 539.25
184 0 62.359 12.2837 766 57.0313 1121.43 538.842
185 0 66.3421 11.6065 770 56.9065 1121.44 538.973
186 0 66.3839 12.0662 801 57.4619 1121.64 537.586
187 0 69.3351 11.9997 832 57.238 1122.4 536.784
188 0 70.3531 13.4891 949 55.7998 1122.51 534.178
189 0 74.2993 13.3649 993 56.0886 1123.07 533.789
190 0 75.4404 12.7385 961 56.9001 1122.9 532.241
191 0 78.4792 12.7422 1000 57.16 1122.92 531.905
192 0 82.5269 12.5777 1038 57.4008 1122.93 529.232
193 0 83.4062 12.4451 1038 57.4075 1123.29 528.244
194 0 87.3382 12.4917 1091 55.9734 1123.02 527.074
195 1 47.2587 11.1302 526 53.2947 1123.81 547.508
196 0 47.3034 10.6546 504 54.0417 1123.95 546.806
197 0 49.2071 10.2831 506 55.1285 1123.6 547.154
198 0 52.3548 10.9446 573 56.2461 1123.54 545.326
199 0 53.3212 11.909 635 56.9134 1123.39 543.764
200 0 53.2458 11.0243 587 59.6678 1123.83 543.056
201 0 57.3871 12.529 719 57.63 1123.81 541.327
202 0 59.3277 12.6585 751 57.9787 1123.8 539.724
203 0 59.2493 12.0001 711 58.5063 1123.86 540.326
204 0 62.217 12.7136 791 57.7889 1124.08 540.606
205 0 64.2657 13.382 860 57.307 1123.92 538.523
206 0 66.1886 13.4917 893 58.3259 1123.2 535.646
207 0 67.2009 12.976 872 59.0516 1124.08 536.237
208 0 67.1312 12.4979 839 59.994 1124.21 534.956
209 0 69.1328 12.353 854 59.6897 1124.5 536.053
210 0 72.1101 13.105 945 59.2487 1124.64 533.615
211 0 75.1579 13.4384 1010 58.6079 1124.58 532.654
212 0 76.1384 12.6743 965 60.2311 1124.67 529.732
213 0 78.1261 13.0174 1017 59.7896 1124.31 530.462
214 0 80.1072 13.4695 1079 59.5487 1124.64 529.754
215 0 84.1915 13.1011 1103 60.2602 1123.97 526.964
216 0 86.1506 13.221 1139 60.122 1123.94 526.26
217 1 47.0792 10.2381 482 60.6784 1124.18 545.394
218 0 48.1868 10.6876 515 61.0427 1123.84 545.548
219 0 50.1192 11.2532 564 60.7713 1123.32 543.264
220 0 50.0949 11.0989 556 61.0737 1123.2 544.601
221 0 53.2251 11.8741 632 59.9778 1122.25 543.809
222 0 54.1274 12.2304 662 60.3218 1122.36 543.492
223 0 55.2163 11.627 642 61.2866 1122.19 541.156
224 0 57.2577 12.2604 702 60.8689 1122.38 540.88
225 0 58.2032 11.7691 685 61.6686 1122.08 541.73
226 0 61.1988 12.4349 761 60.912 1121.95 540.166
227 0 62.147 11.7624 731 62.1245 1121.63 538.926
228 0 63.1786 12.8208 810 61.6741 1121.74 538.452
229 0 65.1756 12.3206 803 62.3923 1121.05 537.131
230 0 66.0633 12.7151 840 62.531 1121.21 535.393
231 0 69.1463 12.6254 873 62.1649 1121.38 536.422
232 0 73.0494 12.9638 947 61.717 1121.26 534.013
233 0 74.1305 12.5994 934 62.6049 1121.1 532.607
234 0 76.1021 13.4819 1026 61.7573 1121.16 531.819
235 0 78.0681 13.5779 1060 62.4981 1120.85 529.822
236 0 81.1123 13.1546 1067 62.7648 1120.54 529.167
237 1 39.0568 10.4975 410 62.5366 1120.65 548.817
238 0 41.0641 9.83828 404 61.8639 1120.7 549.683
239 0 43.1561 10.126 437 62.1831 1120.59 547.902
240 0 47.0612 10.5607 497 61.4225 1120.27 547.811
241 0 48.0676 11.9415 574 60.3554 1120.31 547.28
242 0 47.1971 11.9923 566 60.9558 1120.07 546.961
243 0 50.0455 12.5086 626 60.2428 1119.97 544.72
244 0 52.0524 11.9111 620 60.8403 1120.31 546.658
245 0 50.0516 12.1275 607 61.6837 1120.38 546.984
246 0 53.0778 13.1317 697 60.2052 1120.48 544.716
247 0 54.0219 13.476 728 59.8118 1120.75 544.354
248 0 56.028 12.4045 695 61.0676 1120.5 544.085
249 0 58.007 13.5846 788 59.3591 1120.54 543.154
250 0 60.0335 13.3425 801 59.7203 1120.54 542.673
251 0 61.0591 12.7254 777 60.834 1120.57 541.882
252 0 61.0591 12.709 776 153.39 1119.58 541.892
253 0 67.1144 13.3056 893 59.4367 1119.95 540.95
254 0 67.1166 13.2307 888 60.5169 1119.58 539.712
255 0 70.1356 13.5309 949 60.1191 1119.55 538.414
256 0 72.1792 13.3695 965 60.7109 1119.11 537.05
257 0 75.1237 13.4445 1010 60.8881 1120 537.483
258 0 76.1384 13.7775 1049 61.0276 1119.25 536.013
259 0 81.1484 14.0853 1143 60.0017 1119.51 535.965
260 0 82.1409 14.1951 1166 60.8182 1119.46 532.488
261 0 84.1627 13.569 1142 62.2627 1119.29 531.136
262 0 85.1171 13.7223 1168 62.6173 1118.98 530.994
263 0 88.2235 13.6245 1202 62.6165 1118.84 530.797
264 0 91.3153 13.7545 1256 62.8352 1118.82 528.964
265 1 47.0565 10.8805 512 64.1172 1118.78 548.926
266 0 50.0499 11.1089 556 63.0396 1118.47 549.613
267 0 51.1143 11.6406 595 63.5109 1118.73 549.77
268 0 53.263 12.4101 661 63.3192 1118.55 547.933
269 0 54.2141 12.8564 697 63.6456 1118.53 547.265
270 0 55.1608 11.7656 649 64.9676 1118.54 547.131
271 0 58.1619 11.9666 696 63.5532 1118.69 546.818
272 0 60.2402 11.3877 686 64.7099 1118.52 545.678
273 0 63.1753 12.6473 799 63.3529 1118.13 542.043
274 0 65.2012 12.4691 813 63.524 1118.19 541.674
275 0 68.1261 12.7264 867 62.9331 1118.74 541.181
276 0 70.1815 11.9262 837 63.6559 1118.97 540.933
277 0 72.1645 12.1389 876 64 1119.2 538.501
278 0 76.1259 12.4662 949 62.9273 1119.32 537.754
279 0 77.1617 11.8582 915 64.377 1119.13 535.122
280 0 78.1732 12.1141 947 63.9409 1119.79 534.13
281 0 84.216 13.5366 1140 61.5088 1120.15 532.257
282 1 43.1397 10.0603 434 62.0806 1120.76 551.776
283 0 47.3564 10.706 507 61.0671 1120.29 551.467
284 0 47.1825 11.7628 555 60.0523 1120.35 550.342
285 0 48.3179 11.9831 579 59.8048 1120.91 548.926
286 0 48.2976 10.6423 514 61 1120.54 547.681
287 0 51.4324 11.2381 578 59.5208 1120.36 546.834
288 0 52.2758 11.4393 598 59.4632 1120.06 546.209
289 0 55.3393 11.1133 615 59.5382 1119.88 545.22
290 0 57.2795 11.9589 685 57.8642 1120.2 544.064
291 0 59.2592 11.2894 669 58.8191 1120.76 543.097
292 0 59.2548 10.9358 648 59.9321 1120.42 541.573
293 0 60.2197 11.8566 714 58.7143 1120.36 540.391
294 0 63.2928 10.8069 684 60.2909 1120.75 539.773
295 0 66.2239 11.597 768 59.2305 1121.38 539.454
296 0 66.2239 11.6423 771 141.061 1121.36 539.383
297 0 70.4734 12.4444 877 58.7993 1121.32 535.238
298 0 69.3861 12.4521 864 59.5243 1122.43 533.684
299 0 75.2398 12.7326 958 58.6378 1122.28 530.554
300 1 36.1436 6.77852 245 61.3714 1123.32 549.776
301 0 42.1746 9.41324 397 58.7859 1122.7 548.035
302 0 41.3555 9.81732 406 58.7414 1123.09 547.68
303 0 44.1561 10.5535 466 58.0043 1123.15 547.961
304 0 44.3021 9.75124 432 59.4167 1122.76 548.266
305 0 47.214 10.8231 511 58.0724 1122.85 546.188
306 0 45.2617 11.4445 518 58.5869 1122.76 544.193
307 0 48.22 11.1779 539 58.5176 1122.92 543.286
308 0 48.2601 11.0236 532 58.9944 1122.74 542.466
309 0 49.2637 10.4945 517 59.381 1122.73 543.621
310 0 52.2636 12.8005 669 56.852 1122.62 542.619
311 0 54.2923 11.788 640 57.8203 1122.81 542.112
312 0 55.3073 11.861 656 58.3323 1122.64 541.456
313 0 56.2394 11.5755 651 58.659 1122.32 540.118
314 0 58.5163 11.7916 690 58.3246 1122.77 540.013
315 0 58.3494 12.4937 729 58.7613 1122.4 540.613
316 0 61.3142 12.3789 759 58.3149 1123.1 538.511
317 0 62.2981 11.8302 737 59.4328 1122.41 538.126
318 0 64.2202 11.9277 766 59.3982 1122.64 537.204
319 0 65.2561 12.8417 838 58.8186 1122.79 535.364
320 0 70.2391 12.3008 864 58.7731 1122.45 534.281
321 0 71.3427 12.4329 887 59.5028 1122.35 533.549
322 0 73.4149 13.09 961 58.4162 1122.12 532.069
323 0 75.2525 12.3584 930 59.5935 1122.34 531.315
324 0 78.2704 13.9261 1090 57.6303 1122.11 528.835
325 0 80.2686 12.4582 1000 59.521 1121.81 528.342
326 0 81.3185 12.1989 992 60.1613 1121.96 527.78
327 0 86.2929 13.0254 1124 58.839 1121.87 524.931
328 0 89.2879 12.8573 1148 59.1132 1121.47 524.527
329 1 44.3003 10.4965 465 58.8022 1122.49 545.249
330 0 45.1967 10.8415 490 58.1082 1121.67 546.796
331 0 44.5563 11.0422 492 59.8252 1121.25 544.384
332 0 48.3673 11.8262 572 58.3969 1121.27 544.677
333 0 50.3361 11.9199 600 58.015 1120.94 543.147
334 0 52.3705 12.2588 642 57.324 1120.86 541.486
335 0 54.3646 12.4714 678 56.8171 1120.93 541.437
336 0 53.3742 11.9159 636 57.4921 1121.06 540.899
337 0 57.3711 12.3059 706 56.7635 1121.31 540.204
338 0 59.2583 12.2514 726 56.792 1121.24 539.415
339 0 59.3357 12.404 736 56.7296 1120.97 539.014
340 0 61.2947 12.0891 741 57.0027 1120.73 538.591
341 0 64.4076 12.8556 828 56.4312 1120.42 538.303
342 0 66.2714 13.5805 900 55.5944 1120.71 536.627
343 0 64.3106 12.3619 795 58.3862 1120.3 534.238
344 0 70.2241 12.7307 894 57.7617 1120.35 533.438
345 0 71.1333 13.7067 975 56.9836 1120.29 531.665
346 0 73.2059 13.1547 963 57.8785 1120.29 531.943
347 0 75.4082 11.9881 904 59.7478 1119.77 530.282
348 0 80.1742 13.4208 1076 58.1134 1119.91 528.897
349 1 40.0343 9.16714 367 59.5913 1120.95 548.161
350 0 41.0312 9.33437 383 59.5535 1120.93 548.084
351 0 44.0508 10.1474 447 59.7897 1120.85 546.662
352 0 47.03 12.0349 566 57.0124 1120.38 546.113
353 0 47.03 12.0349 566 152.571 1120.38 546.113
354 0 47.1276 11.7129 552 58.9928 1120.32 545.763
355 0 48.0488 11.2802 542 59.7712 1120.54 546.109
356 0 50.0475 11.9686 599 59.6945 1120.44 543.694
357 0 53.1334 11.6311 618 59.4239 1120.69 544.134
358 0 53.1933 12.3324 656 59.7348 1120.8 541.748
359 0 55.1025 12.1229 668 60.2156 1120.71 540.506
360 0 58.0586 12.2635 712 59.7402 1120.42 541.406
361 0 58.197 13.1794 767 60.9074 1119.75 540.551
362 0 60.2364 12.8992 777 61.4286 1119.82 540.049
363 0 62.1754 12.4969 777 62.1712 1120.3 537.941
364 0 63.2631 12.8985 816 61.625 1120.11 537.355
365 0 65.1271 12.9132 841 61.5612 1120.41 537.088
366 0 66.1377 12.5647 831 61.8303 1119.92 538.264
367 0 68.1888 12.2014 832 62.3858 1119.87 535.643
368 0 73.2131 13.208 967 59.7725 1120.81 534.512
369 0 74.1428 12.4759 925 60.9524 1120.79 531.51
370 0 78.2243 12.9627 1014 59.7101 1121.04 531.755
371 1 35.1568 8.84609 311 59.9871 1121.84 552.521
372 0 38.0847 10.3979 396 58.8283 1121.8 549.192
373 0 40.0748 10.9795 440 57.6068 1121.27 548.468
374 0 40.1385 10.8126 434 58.9078 1121.27 547.274
375 0 44.0777 12.1604 536 57.5858 1121.85 546.942
376 0 43.1615 10.2174 441 58.737 1121.45 547.172
377 0 45.1294 11.3673 513 57.4035 1121.91 545.08
378 0 46.1392 11.4436 528 58.0341 1121.72 544.534
379 0 48.1801 11.6646 562 57.8434 1121.71 544.313
380 0 48.1558 11.5874 558 58.9247 1121.73 542.943
381 0 51.1291 13.0258 666 57.4715 1121.83 542.146
382 0 50.1732 11.7194 588 59.7925 1121.8 542.015
383 0 54.1873 12.4384 674 58.3056 1122.45 540.588
384 0 54.2338 12.7965 694 58.2046 1122.44 539.207
385 0 56.2295 13.0003 731 57.8495 1122.7 539.695
386 0 59.2129 11.9569 708 58.8178 1123.12 538.904
387 0 59.1447 12.5286 741 58.8151 1123.16 537.522
388 0 62.1748 12.3201 766 59.3512 1123.41 536.662
389 0 65.3326 12.4287 812 59.8424 1123.79 535.606
390 0 66.2606 11.7566 779 60.7035 1123.53 534.883
391 0 71.3805 12.6365 902 58.6851 1124.02 534.935
392 0 72.3842 12.6133 913 59.8346 1123.65 531.514
393 0 77.3045 12.6254 976 59.0553 1124.01 530.772
394 0 77.2259 12.703 981 59.4883 1123.51 529.625
395 0 80.3097 12.6635 1017 59.2645 1123.81 527.915
396 0 85.3119 13.562 1157 57.7312 1123.81 526.825
397 0 86.3028 12.63 1090 59.3523 1123.87 526.172
398 0 89.3796 13.3588 1194 58.4347 1123.89 524.069
399 0 92.3118 13.7902 1273 57.8963 1124.55 521.705
400 0 95.3521 12.7108 1212 58.5883 1124.37 521.186
401 0 98.6163 12.4219 1225 59.3265 1124.52 518.017
402 0 102.331 12.8504 1315 58.1346 1124.67 518.032
403 0 104.312 12.5585 1310 58.6534 1124.39 516.224
404 1 55.3009 11.7177 648 57.5386 1124.74 538.11
405 0 59.4168 11.4277 679 56.6613 1124.66 538.412
406 0 59.2252 11.5491 684 57.152 1124.13 537.769
407 0 60.2739 11.7132 706 57.2847 1123.94 533.844
408 0 60.2739 11.763 709 136.241 1122.93 533.867
409 0 65.3354 11.1425 728 56.864 1123.84 534.926
410 0 66.2467 10.0382 665 58.0526 1124.11 534.011
411 0 70.2358 13.056 917 54.5333 1124.28 531.296
412 0 72.2666 12.5784 909 55.2013 1124.03 528.987
413 0 74.1473 12.0975 897 55.7837 1123.88 527.756
414 0 76.2049 12.322 939 55.0596 1123.67 527.88
415 0 80.3171 12.4257 998 55.4379 1123.38 526.709
416 0 83.3658 12.6671 1056 55.1487 1123.34 525.184
417 0 86.2617 12.578 1085 55.3622 1123.21 522.719
418 0 89.269 13.3977 1196 54.4247 1123.1 522.231
419 1 47.1132 9.89106 466 54.985 1123.55 544.474
420 0 50.241 11.6837 587 53.4003 1123.28 542.375
421 0 50.2251 11.2294 564 53.6809 1123.13 542.151
422 0 54.4388 12.3258 671 52.2027 1122.94 542.401
423 0 55.3946 12.2936 681 52.7019 1122.71 541.004
424 0 57.4496 11.645 669 53.8475 1122.74 540.625
425 0 56.323 12.6059 710 53.8028 1121.98 538.876
426 0 60.3636 12.6732 765 53.6209 1121.66 537.644
427 0 61.3884 11.8589 728 54.4918 1121.67 536.989
428 0 63.4273 12.8651 816 53.6765 1121.81 535.154
429 0 63.4024 11.4191 724 55.4903 1121.23 535.53
430 0 65.387 12.2196 799 54.597 1120.87 533.655
431 0 69.3432 12.6617 878 53.5945 1121.4 533.901
432 0 70.3791 12.0064 845 54.4473 1121.02 532.54
433 0 72.3896 12.2531 887 54.5344 1121.08 532.02
434 0 75.302 12.8947 971 53.7477 1121.34 532.12
435 0 79.3149 13.2384 1050 53.4619 1121.14 528.945
436 0 80.4967 12.8204 1032 54.093 1121.11 527.462
437 0 80.4035 11.2184 902 56.6774 1120.49 528.233
438 0 85.3852 13.199 1127 54.8225 1120.84 526.226
439 0 89.4443 13.3379 1193 54.6194 1120.41 524.634
440 1 47.3671 9.90139 469 55.7484 1121.25 546.113
441 0 48.4051 9.91631 480 55.4875 1120.88 546.34
442 0 52.3017 10.5924 554 54.639 1120.86 545.379
443 0 50.2391 10.4898 527 55.4839 1120.97 544.689
444 0 53.4045 11.9091 636 53.0031 1121.4 544.327
445 0 57.4617 12.182 700 52.2414 1121.26 542.293
446 0 57.338 12.2781 704 52.5327 1121.06 541.109
447 0 61.2727 12.2404 750 52.6067 1121.12 540.935
448 0 62.2646 12.4469 775 51.9394 1121.27 539.486
449 0 61.2679 12.0781 740 52.873 1121.13 538.723
450 0 63.2471 12.965 820 51.2707 1120.44 538.213
451 0 67.2983 12.452 838 51.1826 1120.56 535.523
452 0 71.1938 12.0095 855 51.3064 1120.78 535.391
453 0 71.285 11.7977 841 51.4602 1120.6 534.704
454 0 74.2402 12.729 945 50.6952 1120.35 533.304
455 0 76.1777 12.3789 943 50.8049 1119.99 532.527
456 0 79.2464 13.0479 1034 49.9284 1120 530.332
457 0 81.0764 11.705 949 51.275 1120.07 530.151
458 0 83.1484 12.4597 1036 50.6979 1119.28 528.007
459 0 87.1836 12.4106 1082 50.5665 1119.65 526.751
460 0 91.0667 12.4304 1132 50.4761 1119.02 523.367
461 0 94.1065 12.1989 1148 51.5314 1119.84 521.77
462 1 52.1005 9.67361 504 50.877 1119.51 542.94
463 0 54.0682 10.2093 552 50.7228 1120.26 543.236
464 0 53.0282 10.5227 558 50.2079 1120.22 544.6
465 0 55.0535 12.0247 662 49.9305 1120.9 541.352
466 0 55.0482 11.2992 622 50.7765 1120.56 539.9
467 0 59.1976 11.8079 699 50.4363 1119.74 541.67
468 0 59.1678 11.6787 691 51.0087 1119.97 541.166
469 0 62.3031 11.6206 724 50.6878 1120.17 539.972
470 0 64.1761 11.7957 757 50.5958 1120.57 540.736
471 0 66.1741 11.8173 782 50.8338 1120.29 539.086
472 0 70.2816 12.4784 877 50.6488 1119.98 536.195
473 0 70.2284 11.9752 841 51.6457 1119.95 535.61
474 0 72.1812 11.9837 865 52.052 1119.83 535.054
475 0 75.2226 11.9778 901 52.0799 1120.03 534.062
476 0 79.3885 12.9868 1031 50.8642 1119.99 533.928
477 0 80.2427 12.1008 971 52.2317 1120.45 532.403
478 0 83.2208 13.0136 1083 51.6593 1120.45 530.655
479 0 86.2278 11.9567 1031 52.4724 1120.45 530.477
480 0 90.2595 13.1399 1186 51.4772 1120.22 525.3
481 1 47.1398 10.4795 494 51.1721 1121.32 549.178
482 0 48.2704 10.234 494 51.5142 1121.38 548.751
483 0 49.1759 11.5911 570 50.1 1122 547.095
484 0 51.2288 10.8923 558 50.8835 1121.54 545.26
485 0 52.342 12.2655 642 50.2944 1121.03 545.33
486 0 53.2527 10.8539 578 51.9239 1121.21 544.784
487 0 57.1516 11.7057 669 50.2825 1121.14 543.673
488 0 58.2612 11.4999 670 50.7388 1121.51 542.394
489 0 58.2134 11.4063 664 50.8298 1121.49 541.968
490 0 62.2442 11.7119 729 50.1605 1121.26 541.346
491 0 64.3018 12.7524 820 49.2256 1121.65 539.721
492 0 63.4046 12.5228 794 50.1385 1121.52 538.034
493 0 70.1929 12.893 905 48.8331 1121.68 538.385
494 0 70.16 11.9299 837 50.405 1121.58 536.079
495 0 72.2261 13.0147 940 49.484 1121.57 534.463
496 0 74.2666 13.869 1030 48.733 1121.49 533.205
497 0 75.2835 13.4957 1016 49.4882 1121.32 531.465
498 0 78.3697 11.9434 936 50.8216 1121.42 532.842
499 0 81.3479 12.551 1021 50.8022 1121.45 529.293
500 0 84.2976 12.4559 1050 50.62 1121.73 529.037
501 1 43.2403 9.22751 399 52.3258 1122.63 549.003
502 0 44.1269 10.5604 466 51.1137 1122.38 549.118
503 0 47.1441 11.5179 543 50.9355 1122.88 545.742
504 0 48.094 11.1656 537 51.4041 1122.78 545.419
505 0 50.1085 11.5749 580 51.2569 1122.31 545.422
506 0 52.0813 11.098 578 51.4758 1122.72 544.493
507 0 51.0706 12.0421 615 51.3545 1122.73 544.358
508 0 51.1102 12.0524 616 51.7094 1122.77 542.964
509 0 56.0712 12.502 701 50.826 1122.97 542.981
510 0 55.0599 12.3139 678 51.5442 1122.24 541.527
511 0 56.0664 13.1273 736 50.8465 1121.76 539.927
512 0 58.0438 12.7835 742 51.1415 1121.61 539.354
513 0 61.0807 13.4412 821 50.4519 1121.65 539.206
514 0 63.2154 12.9715 820 50.4244 1121.85 537.639
515 0 63.0978 12.5995 795 51.3849 1121.34 536.564
516 0 66.141 12.9269 855 49.986 1121.59 536.761
517 0 69.1294 12.9467 895 49.8358 1121.29 535.179
518 0 71.0828 13.2803 944 49.4979 1121.74 535.372
519 0 72.1074 12.5507 905 50.8088 1121.82 532.862
520 0 76.1904 13.0725 996 50.2912 1122.29 532.136
521 0 74.1907 12.5083 928 51.875 1121.68 531.536
522 0 81.0895 13.3679 1084 50.4105 1121.87 529.585
523 0 80.1561 12.9373 1037 51.4166 1121.83 526.358
524 0 85.2165 13.2134 1126 50.8437 1121.89 525.817
525 0 87.1333 12.9342 1127 51.2573 1122.02 526.151
526 1 44.1812 11.2718 498 51.2169 1121.57 546.918
527 0 44.1812 11.1812 494 150.123 1121.58 547.008
528 0 47.0422 12.2869 578 50.9567 1122.14 544.706
529 0 49.141 11.8231 581 51.6661 1122.02 544.523
530 0 50.0588 11.0071 551 52.8185 1122.29 543.425
531 0 51.108 12.6986 649 51.5917 1122.52 543.225
532 0 52.194 11.8213 617 52.4976 1122.53 541.18
533 0 56.1822 13.296 747 50.8353 1122.26 542.076
534 0 55.2388 11.9662 661 53.118 1122.74 539.69
535 0 60.1284 12.756 767 51.4342 1122.8 540.176
536 0 59.174 12.8435 760 52.7987 1122.56 537.934
537 0 62.2298 13.2091 822 52.292 1122.61 535.555
538 0 63.1057 12.4553 786 53.6819 1122.5 535.201
539 0 65.1958 12.3321 804 53.4142 1121.97 535.796
540 0 67.1026 12.533 841 53.9727 1122.1 533.79
541 0 69.0764 12.1894 842 54.8076 1122.23 533.173
542 0 71.1936 12.9927 925 54.2822 1122.38 531.817
543 0 77.2296 13.3368 1030 53.4709 1122.37 530.687
544 0 78.1369 13.0156 1017 54.762 1122.3 529.874
545 0 84.2704 13.5279 1140 54.0851 1122.04 527.78
546 1 44.2388 11.7996 522 53.5077 1122.1 547.107
547 0 46.2391 10.5322 487 54.5647 1122.13 547.464
548 0 46.1495 11.8744 548 53.8467 1122.21 545.611
549 0 50.1548 11.5243 578 53.7509 1121.83 544.561
550 0 52.0885 13.3235 694 51.9769 1122.74 543.169
551 0 52.1347 11.8347 617 54.1686 1122.94 543.702
552 0 54.0844 12.7024 687 53.2766 1122.5 544.049
553 0 54.0545 12.3209 666 54.3799 1122.75 542.514
554 0 58.0432 12.5941 731 53.7305 1122.35 543.353
555 0 57.0594 12.6359 721 55.1123 1122.1 540.569
556 0 57.122 12.3595 706 55.7975 1121.81 541.167
557 0 61.1249 12.6135 771 55.1388 1122.13 539.805
558 0 63.1159 12.5483 792 55.6869 1122.54 538.605
559 0 65.1648 13.581 885 54.8305 1122.7 537.104
560 0 68.3122 13.087 894 55.8937 1122.4 536.236
561 0 69.1944 13.6427 944 55.75 1122.07 535.581
562 0 72.146 13.6667 986 56.0162 1122.04 533.392
563 0 72.1529 12.8754 929 57.3111 1121.72 533.886
564 0 75.2555 13.0356 981 56.9174 1121.75 534.038
565 0 79.2239 13.3041 1054 56.5076 1121.64 530.893
566 0 81.1828 13.6852 1111 56.432 1121.2 528.739
567 1 45.0835 10.536 475 56.1937 1122.33 548.2
568 0 48.0599 10.1748 489 56.6442 1121.53 547.591
569 0 46.0181 10.1917 469 56.7186 1121.53 547.35
570 0 49.0379 11.8276 580 55.8121 1120.76 546.174
571 0 51.0743 13.0398 666 54.6802 1120.88 544.778
572 0 54.1834 12.4762 676 55.7485 1121.49 545.16
573 0 55.2133 12.4789 689 55.9608 1121.41 544.515
574 0 53.2197 11.8941 633 57.6935 1120.94 544.543
575 0 56.1629 12.5706 706 57.1629 1120.83 543.014
576 0 58.2535 12.2568 714 57.5952 1120.89 542.721
577 0 58.2034 12.4219 723 57.6404 1120.5 541.708
578 0 62.1815 12.4796 776 56.8698 1120.27 541.375
579 0 62.3373 12.7532 795 56.9572 1119.98 540.143
580 0 66.2289 12.7588 845 56.368 1120.07 537.484
581 0 70.13 12.4483 873 56.4433 1119.66 537.255
582 0 70.1752 12.5685 882 56.2744 1119.45 536.973
583 0 72.1326 12.3938 894 56.6555 1119.32 535.243
584 0 75.2517 12.5977 948 56.3407 1119.35 535.864
585 0 78.3222 12.6401 990 56.4596 1119.09 533.561
586 0 79.0738 12.1532 961 56.8283 1119.67 532.624
587 0 81.1906 12.2551 995 57.205 1119.42 530.26
588 1 43.1734 10.1915 440 57.1409 1120.1 550.157
589 0 47.1436 10.0968 476 55.9286 1119.83 550.483
590 0 47.1224 10.0165 472 56.5636 1119.97 550.123
591 0 47.1766 10.0686 475 56.9011 1119.82 548.836
592 0 51.0638 11.985 612 54.6683 1118.87 546.538
593 0 53.0982 11.1868 594 55.1633 1118.94 545.884
594 0 53.2044 11.4652 610 54.4623 1118.95 544.954
595 0 54.2147 11.2516 610 56.059 1117.97 544.97
596 0 58.1937 12.8708 749 53.0668 1118.44 544.897
597 0 58.1208 11.8546 689 54.0348 1117.89 544.581
598 0 58.2154 11.9384 695 54.4058 1118.79 543.337
599 0 60.3174 12.0861 729 54.3717 1118.47 542.269
600 0 62.1957 12.2517 762 53.6588 1118.77 541.024
601 0 63.1827 11.443 723 53.8022 1118.71 541.559
602 0 68.2404 12.6025 860 52.6035 1118.52 538.892
603 0 69.2068 12.5999 872 52.4782 1118.26 539.019
604 0 71.3699 11.8257 844 53.3152 1118.46 538.955
605 0 73.309 12.3859 908 52.8524 1119.1 536.868
606 0 75.4062 12.0149 906 52.4912 1118.98 534.717
607 0 77.3342 12.2197 945 53.2074 1119 534.143
608 1 39.1309 9.88989 387 54.2894 1119.18 552.473
609 0 44.1999 10.8371 479 52.7662 1119.2 551.219
610 0 46.1895 10.6301 491 53.0733 1118.54 550.454
611 0 45.2639 10.7591 487 53.2341 1119.06 549.138
612 0 48.2026 12.2607 591 50.7817 1119.14 546.932
613 0 47.088 10.2786 484 53.0227 1118.84 547.845
614 0 51.1882 11.7019 599 51.2371 1118.46 546.015
615 0 52.1508 11.7736 614 51.5293 1118.81 546.533
616 0 52.0527 11.6228 605 52.6331 1118.78 545.154
617 0 55.2334 12.2209 675 51.5896 1118.8 544.068
618 0 56.0872 12.1596 682 52.0513 1118.76 542.758
619 0 56.1582 11.9484 671 52.6334 1118.76 543.243
620 0 57.1588 13.2263 756 52.1574 1119.18 541.921
621 0 59.1141 12.9242 764 52.8586 1118.86 541.249
622 0 64.1791 12.7923 821 52.7272 1119.21 539.492
623 0 64.1091 12.6035 808 53.8564 1119.08 539.208
624 0 65.1377 12.4198 809 54.6255 1118.62 538.078
625 0 67.1391 12.4816 838 54.4236 1118.32 536.835
626 0 69.088 14.1414 977 53.0983 1118.82 535.435
627 0 73.078 14.163 1035 52.7536 1119.25 536.693
628 0 75.35 14.0279 1057 53.4494 1119.26 534.222
629 0 77.1658 13.1794 1017 55.1406 1119.28 534.195
630 0 76.1967 12.9664 988 56.3006 1119.32 532.565
631 0 80.3181 13.2349 1063 55.7846 1119.44 530.13
632 0 85.2498 13.5836 1158 55.4361 1119.46 528.795
633 1 45.132 10.3917 469 57.2175 1118.97 548.16
634 0 47.1144 10.57 498 56.3835 1119.17 547.924
635 0 49.263 11.6314 573 56.712 1119.66 546.304
636 0 50.2223 12.0265 604 55.2053 1119.65 546.858
637 0 51.0862 12.9976 664 54.756 1119.75 545.047
638 0 52.0799 12.9225 673 54.6939 1120.1 545.079
639 0 53.0214 12.6364 670 55.2642 1119.95 543.804
640 0 55.0592 12.8952 710 54.9972 1119.9 543.413
641 0 58.185 13.4055 780 54.0718 1120.53 542.083
642 0 57.1542 13.2449 757 55.7252 1120.56 541.067
643 0 60.086 13.1312 789 55.4943 1120.87 540.762
644 0 63.0645 12.4317 784 55.7347 1121.43 538.438
645 0 64.0948 12.8404 823 56.1337 1121.05 537.902
646 0 67.0501 13.4825 904 55.3695 1121.41 536.155
647 0 68.089 12.4396 847 56.7001 1121.68 535.765
648 0 68.089 12.4837 850 169.564 1122.68 535.652
649 0 74.1552 13.9977 1038 55.1898 1121.88 531.937
650 0 77.1975 13.9771 1079 55.1826 1121.62 530.943
651 0 77.1026 13.5404 1044 56.2989 1122.52 529.516
652 0 81.1799 13.8951 1128 55.8103 1122.79 527.682
653 0 81.1048 13.575 1101 57.0009 1122.1 526.678
654 0 86.2378 14.8311 1279 54.9304 1122.01 525.315
655 0 89.1657 14.3104 1276 55.8777 1122.42 523.118
656 0 89.1851 12.8497 1146 58.0934 1123.1 521.428
657 0 95.2707 13.8657 1321 56.408 1121.95 520.952
658 0 97.3082 13.3493 1299 57.5058 1122.15 519.677
659 0 100.251 13.925 1396 56.6003 1122.19 518.367
660 1 51.116 11.0533 565 57.577 1122.38 542.71
661 0 55.0689 12.5297 690 56.1928 1122.53 540.614
662 0 56.1333 12.5594 705 56.5574 1123.18 539.356
663 0 62.1848 13.2026 821 55.1133 1123.19 538.28
664 0 62.2064 12.9247 804 55.7948 1122.99 536.682
665 0 64.2446 12.7793 821 55.4093 1122.56 537.709
666 0 66.1062 13.1606 870 55.6529 1123.32 534.069
667 0 66.2535 13.0408 864 55.7685 1123.29 533.726
668 0 70.101 13.0526 915 55.8656 1123.43 532.902
669 0 73.1413 13.2757 971 55.2709 1123.1 532.881
670 0 73.1385 13.5633 992 55.7389 1123.09 529.021
671 0 76.2673 13.4789 1028 55.5827 1123.54 528.658
672 0 81.1143 14.757 1197 53.883 1123.64 526.606
673 0 82.3589 13.429 1106 55.9177 1123.75 527.277
674 0 84.2495 14.0416 1183 55.6771 1124.17 524.735
675 0 87.2399 13.3884 1168 56.5231 1123.94 522.303
676 0 91.2282 13.8554 1264 55.8117 1124.48 522.724
677 0 94.3187 15.0235 1417 54.6126 1124.6 519.51
678 0 97.2824 14.463 1407 55.4101 1124.72 518.211
679 0 101.342 14.3672 1456 55.0694 1124.67 518.676
680 0 101.41 14.0026 1420 56.4817 1124.48 516.908
681 0 105.317 13.9484 1469 56.5507 1124.28 515.382
682 0 110.424 15.196 1678 54.6865 1124.61 515.08
683 0 112.408 14.3673 1615 55.9585 1124.44 511.698
684 0 117.403 15.2636 1792 54.7483 1124.47 511.482
685 0 120.257 14.1447 1701 56.1317 1124.28 509.631
686 0 123.486 14.0502 1735 56.3262 1124.52 504.625
687 0 127.309 13.6911 1743 56.6954 1124.86 505.069
688 0 132.32 14.7143 1947 55.5783 1124.66 500.938
689 0 137.297 13.052 1792 57.4576 1124.43 500.949
690 0 143.413 14.5873 2092 55.7997 1124.57 496.939
691 0 143.357 13.5885 1948 57.366 1124.05 496.898
692 1 79.2611 12.0109 952 55.9517 1124.06 531.265
693 0 80.2399 12.5748 1009 55.6036 1123.94 528.569
694 0 82.2274 11.9303 981 56.3058 1123.61 526.254
695 0 87.2181 13.5064 1178 54.5908 1123.88 525.442
696 0 91.2203 13.7031 1250 54.1792 1124.05 523.11
697 0 95.2625 14.1714 1350 53.8252 1123.76 521.513
698 0 94.222 12.789 1205 56.0763 1123.79 519.526
699 0 99.17 14.0567 1394 54.6564 1123.77 519.306
700 0 101.192 12.9259 1308 56.1835 1123.52 518.067
701 0 104.387 12.8847 1345 56.6327 1123.52 516.491
702 0 109.283 13.3781 1462 55.7209 1123.82 513.815
703 1 58.1717 11.0019 640 62.0375 1124.14 541.706
704 0 60.1564 12.401 746 67.8633 1124.43 539.428
705 0 61.171 12.0318 736 71.9226 1123.56 539.037
706 0 61.1078 12.3389 754 72.9576 1123.2 536.387
707 0 64.1403 13.8758 890 70.6034 1122.74 536.752
708 0 64.0777 13.1091 840 70.819 1122.51 536.382
709 0 66.1592 11.7897 780 75.15 1121.98 536.437
710 0 71.2526 13.3048 948 53.9599 1121.9 533.799
711 0 71.236 13.5886 968 54.25 1121.74 532.996
712 0 75.0856 13.7443 1032 53.9089 1120.94 533.15
713 0 76.1303 13.2799 1011 55.2898 1121.02 530.94
714 0 79.1399 13.7352 1087 54.9264 1121.19 529.835
715 0 81.2115 13.0647 1061 56.8219 1120.85 527.959
716 0 84.1402 12.9664 1091 56.8121 1121.63 527.49
717 0 88.175 14.6073 1288 54.7888 1121.48 526.658
718 1 43.0768 10.3768 447 56.736 1121.31 549.347
719 0 44.0682 11.0284 486 56.2284 1121.69 547.372
720 0 47.0326 11.6302 547 55.9598 1121.74 547.589
721 0 49.0194 11.9137 584 56.5 1121.81 546.837
722 0 50.0644 12.5838 630 55.646 1120.83 545.779
723 0 52.1641 13.7451 717 55.3431 1121.13 546.741
724 0 52.0884 13.0547 680 55.8382 1120.81 546.203
725 0 54.1939 13.8023 748 56.5361 1120.65 544.21
726 0 55.0928 14.0309 773 55.2872 1120.8 544.639
727 0 55.2209 13.7629 760 56.2434 1120.67 542.633
728 0 60.0988 13.8772 834 55.8153 1120.46 543.683
729 0 61.1313 13.6755 836 55.7823 1120.27 542.354
730 0 62.1117 14.2807 887 55.5648 1120.81 543.211
731 0 65.1214 13.7129 893 56.7828 1120.32 541.607
732 0 66.1152 14.868 983 55.7365 1120.81 539.87
733 0 69.0665 13.9576 964 56.418 1120.77 539.675
734 0 71.1203 13.681 973 56.6824 1121 538.967
735 0 74.0586 14.4345 1069 55.4228 1119.86 535.529
736 0 74.0586 14.4345 1069 146.958 1117.86 535.529
737 1 42.0267 12.1113 509 56.1277 1120.58 554.397
738 0 43.0666 11.8653 511 57.0157 1120.25 553.634
739 0 40.0337 11.1406 446 58.2691 1119.7 553.096
740 0 42.0697 12.5744 529 57.5293 1119.33 551.979
741 0 42.0237 12.017 505 58.7089 1119.08 552.558
742 0 47.0693 13.6395 642 56.933 1118.92 550.869
743 0 47.0663 13.2154 622 57.9855 1119.03 549.899
744 0 49.1027 13.2376 650 57.8631 1118.18 550.437
745 0 50.1963 13.766 691 58.0999 1118.21 548.92
746 0 51.1569 14.2503 729 58.0645 1118.05 546.716
747 0 54.0948 14.0309 759 58.0553 1118.15 547.184
748 0 56.2354 14.4037 810 57.3988 1118.22 545.956
749 0 59.0517 14.5974 862 56.8956 1118.06 545.049
750 0 60.125 14.1705 852 57.4026 1118.28 544.229
751 0 62.2047 14.6291 910 56.4022 1117.99 544.098
752 0 64.1233 14.7528 946 56.6987 1118.19 543.006
753 0 66.0592 14.5627 962 57.1996 1117.73 541.439
754 0 68.148 13.9843 953 57.8405 1117.82 541.276
755 0 72.3148 14.5752 1054 56.6727 1118.12 539.051
756 0 72.1806 14.63 1056 57.5256 1117.7 536.602
757 0 76.2038 14.33 1092 57.1877 1117.46 537.549
758 0 78.2372 14.6733 1148 56.8389 1118.09 535.859
759 0 81.1295 14.7049 1193 57.2355 1117.64 533.552
760 0 83.1742 14.0909 1172 57.8874 1117.99 531.411
761 1 43.1404 11.7987 509 58.778 1117.76 553.399
762 0 46.0544 13.5058 622 56.3778 1118.04 552.958
763 0 47.0717 13.6175 641 57.5179 1118.01 550.975
764 0 46.0448 12.9656 597 59.8124 1117.75 550.508
765 0 49.1391 14.6116 718 57.876 1117.92 550.586
766 0 50.0801 14.1573 709 58.6023 1117.35 549.776
767 0 52.0355 13.7598 716 58.5419 1117.22 547.993
768 0 53.0974 13.8425 735 58.7442 1117.56 547.688
769 0 54.0913 14.3091 774 58.4315 1117.28 547.442
770 0 56.1273 14.0217 787 59.0635 1117.11 546.299
771 0 59.1041 14.1445 836 58.4665 1117.53 545.699
772 0 61.0876 14.7493 901 57.8335 1117.26 543.09
773 0 61.2063 14.1325 865 59.2405 1117.32 543.407
774 0 65.1574 14.0736 917 58.9858 1117.3 543.039
775 0 67.1694 14.4411 970 58.7103 1117.66 541.907
776 0 68.1024 14.1845 966 59.7785 1117.7 540.356
777 0 71.113 14.3996 1024 59.2598 1117.31 539.734
778 0 71.113 14.3996 1024 162.502 1117.31 539.734
779 0 78.1262 14.3358 1120 59.2571 1117.73 536.806
780 0 79.0856 14.9585 1183 59.0744 1117.4 534.917
781 1 42.0576 12.5304 527 61.1404 1117.69 552.808
782 0 44.0882 12.6111 556 61.1763 1117.44 552.027
783 0 46.0736 11.9157 549 62.0437 1117.46 551.129
784 0 45.0574 12.9612 584 62.5497 1117.38 550.916
785 0 49.0476 14.1087 692 60.5549 1117.69 549.551
786 0 49.0308 13.7057 672 62.4598 1117.71 548.445
787 0 51.0642 14.0607 718 61.8663 1117.94 548.957
788 0 51.0515 13.0652 667 64.1334 1118.21 548.259
789 0 54.0564 14.6329 791 61.5386 1118.3 545.243
790 0 55.044 14.116 777 62.9743 1118.84 544.537
791 0 59.0999 14.6531 866 61.4596 1119.04 544.341
792 0 60.1025 14.1259 849 62.3993 1119.22 541.967
793 0 61.1462 14.1464 865 62.7133 1119.29 541.504
794 0 66.1256 14.2305 941 61.6451 1119.24 540.555
795 0 69.0808 14.4903 1001 61.004 1119.34 539.277
796 0 70.0986 14.2941 1002 61.7615 1119.28 538.357
797 0 73.1148 14.0191 1025 61.8898 1119.52 535.827
798 0 75.1161 14.5508 1093 61.5874 1119.56 534.957
799 0 78.0897 13.9967 1093 62.1436 1119.48 532.76
800 1 38.0601 12.9269 492 62.1585 1119.42 551.301
801 0 38.2218 12.8984 493 61.8093 1120.32 550.327
802 0 41.1333 13.2253 544 61.2243 1120.29 549.244
803 0 45.0736 12.8457 579 61.1054 1120.26 547.71
804 0 45.0939 11.9972 541 62.0887 1120.24 548.612
805 0 48.1019 13.3675 643 60.0747 1120.07 548.23
806 0 48.1529 13.1456 633 60.1359 1120.41 547.891
807 0 50.0862 14.3952 721 58.0763 1120.86 546.139
808 0 51.198 14.7076 753 58.6109 1120.79 543.992
809 0 55.1769 13.6652 754 58.687 1121.15 545.459
810 0 54.164 12.7576 691 60.4515 1120.76 543.973
811 0 55.1412 13.8372 763 59.7772 1120.94 541.055
812 0 58.0917 13.5475 787 59.3799 1121.37 541.371
813 0 62.1207 13.9084 864 58.6898 1121.05 539.411
814 0 63.1022 13.4385 848 59.3691 1121.36 538.494
815 0 65.1874 13.4075 874 59.1442 1121.4 536.5
816 1 35.0517 12.6955 445 58.8337 1120.66 551.043
817 0 32.0211 12.4293 398 58.9322 1120.4 552.09
818 0 37.0748 11.5982 430 59.2581 1120.39 551.572
819 0 38.028 12.5434 477 58.2977 1120.8 550.396
820 0 38.1339 12.0365 459 59.6035 1121.06 549.538
821 0 41.2234 13.9969 577 57.0728 1121.13 547.686
822 0 42.0894 14.0416 591 56.6548 1120.87 548.086
823 0 43.0925 13.7843 594 57.1684 1120.66 546.099
824 0 45.137 14.2677 644 56.9084 1121.06 545.921
825 0 46.0545 13.7446 633 57.357 1121.3 545.275
826 0 49.0898 13.6077 668 57.2141 1120.79 544.427
827 0 50.1134 13.7688 690 57.5797 1120.9 542.826
828 0 50.139 13.6022 682 58.066 1120.89 541.358
829 0 54.0564 14.2259 769 56.883 1121.04 541.251
830 0 55.1383 13.2394 730 57.6178 1120.85 541.563
831 0 55.1383 13.2394 730 148.664 1120.85 541.563
832 0 58.13 13.5558 788 57.736 1120.87 537.297
833 0 61.171 13.8791 849 57.0389 1120.57 537.133
834 0 63.0923 14.0746 888 57.0101 1120.77 534.666
835 0 64.1915 13.7401 882 57.5363 1120.52 533.762
836 0 68.1683 13.3493 910 54.9209 1120.52 533.802
837 1 34.0674 11.5653 394 56.901 1120.37 547.617
838 0 37.1476 11.1447 414 56.2464 1119.83 548.949
839 0 38.0393 10.9361 416 57.875 1120.08 546.389
840 0 41.0978 13.0421 536 55.0224 1120.18 546.703
841 0 40.179 11.399 458 57.6485 1119.63 545.063
842 0 44.1093 13.2172 583 55.2985 1119.63 544.753
843 0 45.2558 12.1752 551 56.6407 1120.14 544.735
844 0 47.1756 12.8456 606 56.7624 1120.3 542.066
845 0 47.1202 13.6247 642 56.5779 1119.83 542.81
846 0 50.1831 14.4073 723 55.6625 1120.11 541.632
847 0 52.3044 13.4406 703 56.761 1119.91 541.286
848 0 54.1622 13.7365 744 56.7769 1119.91 538.942
849 0 57.2233 14.5395 832 55.8197 1119.82 538.788
850 0 58.2511 14.5748 849 56.2521 1119.61 537.625
851 0 61.1728 14.1566 866 56.5485 1119.59 537.931
852 0 63.1275 14.0985 890 57.0854 1119.62 537.093
853 0 64.2142 15.3237 984 56.122 1119.52 536.231
854 0 66.3618 13.5921 902 58.6641 1119.38 535.824
855 0 68.3526 13.7083 937 59.0993 1119.19 534.649
856 0 70.1509 14.6399 1027 58.2298 1119.17 533.539
857 0 72.268 14.972 1082 58.2874 1119.75 532.451
858 0 73.1658 14.474 1059 59.8971 1119.65 529.585
859 0 74.236 14.2249 1056 60.1922 1119.47 529.427
860 0 79.0976 14.3999 1139 59.6242 1119.23 528.605
861 0 81.1207 14.916 1210 59.3298 1118.9 527.864
862 0 83.0896 14.5385 1208 60.1159 1119.04 524.812
863 0 87.2464 14.1095 1231 60.6369 1118.84 525.155
864 0 87.1065 14.0632 1225 61.5951 1119.07 524.443
865 0 90.3439 14.0353 1268 61.5615 1118.64 522.464
866 1 49.1648 11.4106 561 63.0178 1118.15 544.517
867 0 49.1811 11.9762 589 64.4397 1118.37 542.397
868 0 51.0963 12.134 620 64.4871 1118.03 540.687
869 0 52.1355 12.9854 677 63.6987 1118.32 541.462
870 0 53.1022 12.523 665 65.5323 1118.06 539.391
871 0 59.1756 13.029 771 63.7458 1117.76 539.578
872 0 61.3349 13.467 826 63.27 1117.47 539.993
873 0 60.244 12.9639 781 64.4673 1117.54 537.667
874 0 64.2497 13.6499 877 62.9806 1117.16 537.97
875 0 66.3709 13.6204 904 63.4259 1117.56 536.678
876 0 68.4488 13.3677 915 63.4995 1117.33 536.236
877 0 71.6022 14.1197 1011 61.8823 1117.73 537.412
878 0 72.4474 13.6927 992 63.4294 1117.79 537.145
879 0 74.3187 14.3436 1066 62.682 1117.48 534.527
880 0 77.701 14.1826 1102 62.696 1117.43 533.277
881 0 79.6778 13.655 1088 63.8134 1117.92 533.244
882 0 82.6665 13.8629 1146 62.5611 1117.66 531.328
883 0 85.5841 13.6357 1167 62.8415 1117.94 530.704
884 0 88.3779 13.9062 1229 62.6827 1117.54 529.045
885 0 91.599 13.5373 1240 63.1073 1117.78 526.889
886 0 93.4476 14.1042 1318 62.9219 1117.96 526.344
887 0 96.5797 14.0195 1354 62.5229 1117.81 524.332
888 0 100.389 13.2982 1335 62.9521 1117.85 521.944
889 1 53.5038 10.5226 563 61.8046 1117.72 546.933
890 0 55.7425 10.7458 599 62.0885 1118.24 545.474
891 0 57.6999 12.1664 702 60.812 1118.57 543.241
892 0 60.8173 11.7236 713 59.2749 1118.52 542.809
893 0 61.5777 12.0661 743 59.0135 1118.96 540.127
894 0 64.7456 12.6341 818 58.1076 1119.23 540.644
895 0 65.3584 12.9287 845 57.7467 1119.75 539.027
896 0 68.5396 13.2186 906 57.4912 1120.02 537.577
897 0 67.6157 13.1182 887 58.0564 1119.86 535.612
898 0 71.7104 12.5923 903 58.3643 1120.27 535.371
899 0 73.6754 12.2429 902 58.0122 1120.4 533.975
900 0 74.476 13.2929 990 57.2131 1120.59 532.149
901 0 78.6752 13.4604 1059 56.1634 1120.59 531.103
902 0 81.4911 13.0566 1064 56.7491 1120.81 528.048
903 0 85.857 12.9751 1114 56.0377 1121.27 528.136
904 0 87.3712 13.002 1136 55.9586 1121.19 524.9
905 1 49.3942 12.0864 597 53.1826 1121.52 547.092
906 0 49.3984 10.891 538 54.7175 1121.3 545.717
907 0 51.443 11.6245 598 54.2475 1121.53 543.719
908 0 54.3536 12.9706 705 52.5518 1121.86 542.928
909 0 55.4071 12.5977 698 53.3424 1121.81 541.305
910 0 54.3363 12.8827 700 53.6314 1121.56 539.066
911 0 59.4551 12.48 742 53.0377 1121.74 540.389
912 0 60.4242 12.6274 763 53.6933 1121.6 539.138
913 0 61.6255 13.6307 840 53.2381 1121.37 537.965
914 0 62.375 14.5251 906 52.4514 1122.05 537.985
915 0 62.3704 11.8005 736 55.9823 1122.25 536.577
916 0 67.6718 12.9153 874 54.2506 1122.74 536.589
917 0 69.5137 14.1267 982 53.168 1122.45 535.428
918 0 70.575 14.5661 1028 53.537 1122.58 533.949
919 0 71.5519 13.305 952 55.8687 1123.09 533.354
920 0 75.442 13.5999 1026 54.7982 1122.59 532.629
921 0 77.3087 12.8317 992 56.2419 1123 532.234
922 0 77.4923 13.1755 1021 56.9579 1122.93 529.613
923 0 81.6168 13.8942 1134 55.761 1122.96 528.629
924 0 83.4523 13.2411 1105 57.1973 1122.9 527.465
925 0 86.5709 13.7806 1193 56.1961 1122.83 526.329
926 0 89.3374 13.2084 1180 57.1975 1123.21 525.837
927 1 47.291 11.9473 565 57.3239 1123.19 546.883
928 0 48.1609 11.773 567 58.2734 1123.05 544.915
929 0 51.3044 11.9288 612 58.5065 1123.42 543.949
930 0 53.2816 12.631 673 58.9926 1123.12 541.874
931 0 55.3532 13.8023 764 57.7618 1123.45 541.302
932 0 55.3532 13.8203 765 148.552 1123.44 541.314
933 0 59.4384 14.4519 859 57.7229 1124.04 540.305
934 0 62.4639 13.1116 819 59.3846 1123.59 539.065
935 0 60.2817 13.271 800 60.2475 1123.21 539.329
936 0 63.4581 13.3159 845 59.9479 1123.39 537.54
937 0 64.344 13.1014 843 60.5872 1123.3 536.854
938 0 68.4278 14.3655 983 58.4191 1122.89 535.957
939 0 71.3874 13.3217 951 59.9516 1122.61 535.638
940 0 72.5854 13.1982 958 60.023 1122.89 534.867
941 0 75.4047 13.3679 1008 60.4633 1122.48 532.474
942 0 76.3688 12.5706 960 61.2594 1122.18 532.629
943 0 80.4284 13.4032 1078 60.0788 1122.3 531.649
944 0 83.3876 14.4986 1209 58.6907 1121.92 529.85
945 1 44.2105 10.8119 478 61.046 1122.05 549.086
946 0 45.1392 11.8079 533 60.531 1121.59 548.396
947 0 46.3037 12.31 570 59.8965 1121.55 547.675
948 0 48.3127 12.7503 616 59.4529 1121.04 546.321
949 0 49.4718 12.4515 616 60.0211 1121.54 546.318
950 0 51.3454 13.1073 673 59.3863 1121.38 544.82
951 0 52.4536 13.2117 693 59.1097 1120.87 544.612
952 0 54.2383 13.2932 721 59.491 1121.26 544.222
953 0 54.4833 12.8663 701 60.4793 1120.99 542.054
954 0 57.5598 13.4643 775 59.5535 1121.27 541.59
955 0 56.1464 12.9483 727 60.3975 1121.08 541.287
956 0 60.2273 13.0174 784 59.9847 1121.25 540.852
957 0 60.2613 13.0266 785 60.2548 1121.34 540.001
958 0 63.2623 14.2897 904 57.6858 1120.9 537.896
959 0 67.3041 13.9219 937 58.1793 1120.69 537.298
960 0 68.3202 14.0661 961 57.8699 1120.43 536.604
961 0 71.2988 14.8249 1057 56.5336 1120.48 535.531
962 0 75.4311 13.509 1019 57.3356 1120.88 534.498
963 0 76.3652 13.9069 1062 57.0424 1120.53 534.32
964 1 42.3106 10.5884 448 59.1429 1120.92 552.259
965 0 44.1673 12.5659 555 58.0919 1120.61 549.22
966 0 46.1579 12.8689 594 56.702 1121.12 550.428
967 0 46.1837 12.7751 590 57.439 1120.67 548.875
968 0 48.0859 12.8104 616 57.4172 1121.11 547.088
969 0 49.09 13.7502 675 56.1822 1121.09 546.807
970 0 51.2654 14.0446 720 56.8764 1121.46 546.171
971 0 49.2409 13.6269 671 58.6587 1120.94 545.213
972 0 52.2618 14.3126 748 57.7366 1120.91 544.337
973 0 52.3569 14.4203 755 58.5285 1121.01 544.118
974 0 54.1844 14.1738 768 58.3255 1120.81 543.576
975 0 56.3501 14.4454 814 58.3305 1120.47 542.995
976 0 59.3568 14.4044 855 57.8737 1120.64 542.508
977 0 60.4853 14.4829 876 58.1861 1120.34 541.674
978 0 62.3514 14.8032 923 57.688 1120.08 541.458
979 0 63.3923 14.3551 910 58.5659 1120.03 540.226
980 0 67.5989 13.6541 923 58.8559 1119.88 540.874
981 0 67.2938 14.8602 1000 58.359 1119.82 538.846
982 0 71.2874 14.3644 1024 58.5684 1119.78 537.014
983 0 74.2038 13.975 1037 59.0125 1119.79 537.233
984 0 75.4122 13.7113 1034 59.7805 1119.48 536.567
985 0 78.3529 13.8476 1085 59.7825 1119.25 536.52
986 0 81.4175 15.3652 1251 58.0384 1119.27 532.261
987 1 43.1243 12.893 556 60.8939 1119.38 552.996
988 0 44.1507 12.2082 539 60.9685 1119.43 552.814
989 0 45.0996 12.5722 567 61.806 1119.07 551.802
990 0 47.1769 13.2268 624 60.0417 1119.22 551.917
991 0 49.4265 13.778 681 60.5022 1118.95 550.021
992 0 49.1958 14.3508 706 60.3399 1119.12 548.994
993 0 52.0962 14.3389 747 60.5127 1119.06 548.163
994 0 53.1595 15.0114 798 59.906 1118.9 548.351
995 0 54.0901 14.5498 787 61.2008 1118.83 546.933
996 0 58.2544 15.5525 906 58.9912 1118.71 545.585
997 0 60.2465 15.2374 918 59.4085 1118.35 545.559
998 0 61.3479 15.4692 949 60.0105 1119.17 543.143
999 0 62.0869 14.6247 908 61.6211 1119.21 543.155
1000 0 65.0898 15.4248 1004 60.7221 1119.15 542.27
1001 0 65.1595 15.0707 982 62.4328 1119.04 540.166
1002 0 70.2981 15.2209 1070 60.4645 1118.88 539.969
1003 0 71.1612 14.8255 1055 61.5469 1118.76 538.336
1004 0 75.1254 14.7221 1106 61.6157 1119 537.417
1005 0 78.1322 14.5779 1139 62.1651 1119.14 535.505
1006 0 80.09 15.158 1214 61.6145 1118.97 532.703
1007 1 38.0516 13.324 507 64.7396 1119.41 554.075
1008 0 40.135 12.6822 509 65.5933 1119.33 554.151
1009 0 43.0281 13.8747 597 63.3216 1119.5 553.256
1010 0 42.1005 14.7029 619 63.4265 1119.53 552.709
1011 0 45.1748 14.9198 674 64.2166 1119.85 550.828
1012 0 47.0894 14.3769 677 64.7474 1119.29 550.823
1013 0 48.0729 14.2492 685 65.7971 1119.64 549.093
1014 0 51.0737 14.6651 749 64.7904 1119.27 548.474
1015 0 52.1984 14.5598 760 64.7132 1119.43 546.703
1016 0 53.3469 14.8275 791 64.4867 1119.06 545.746
1017 0 56.1628 14.7963 831 64.1191 1119.2 544.738
1018 0 57.1544 15.012 858 64.2308 1119.62 544.852
1019 0 60.2801 13.9018 838 65.7196 1119.93 543.484
1020 0 62.2864 14.4815 902 64.7472 1119.74 542.596
1021 0 63.1732 14.3732 908 65.4934 1119.97 540.512
1022 0 64.1692 13.8072 886 66.9774 1119.69 540.637
1023 0 68.3991 14.7078 1006 65.004 1120.21 538.644
1024 0 71.2083 14.9983 1068 64.7097 1120.38 536.398
1025 0 73.2009 14.9862 1097 64.3756 1120.4 536.09
1026 0 75.2523 14.9231 1123 64.4639 1120.28 533.396
1027 0 78.185 13.2123 1033 67.1171 1120.54 533.478
1028 0 82.1673 13.9106 1143 65.9309 1120.7 530.658
1029 1 42.0711 12.0748 508 66.5118 1120.33 548.994
1030 0 46.0291 11.9055 548 65.3631 1120.05 548.635
1031 0 44.0373 13.1707 580 65.2293 1119.89 547.688
1032 0 47.0395 13.1166 617 63.7261 1119.92 547.483
1033 0 50.1007 12.9938 651 63.7158 1120.85 546.172
1034 0 53.1055 13.6332 724 62.116 1121 545.521
1035 0 53.1558 13.2441 704 63.2713 1121.1 544.692
1036 0 52.0399 13.5473 705 64.0085 1121.62 542.94
1037 0 55.0542 13.6411 751 63.53 1121.66 542.244
1038 0 58.0694 13.8799 806 63.0844 1121.66 541.431
1039 0 60.2426 13.6448 822 62.9951 1121.81 540.236
1040 0 62.1003 13.8969 863 62.7022 1122.44 538.594
1041 0 64.1168 14.0213 899 62.6719 1122.83 537.274
1042 0 65.1729 12.8274 836 63.9677 1122.64 536.623
1043 0 68.0754 13.2353 901 63.7891 1122.8 535.412
1044 0 70.136 13.7732 966 63.3302 1122.63 531.604
1045 0 74.061 13.6779 1013 62.23 1122.85 533.03
1046 0 76.1001 14.0079 1066 60.9925 1123.08 530.447
1047 1 39.0845 9.79928 383 63.1671 1122.69 548.277
1048 0 40.0833 10.7027 429 62.7273 1122.6 546.569
1049 0 41.1114 11.8945 489 61.1922 1123.14 546.425
1050 0 44.0635 11.438 504 61.4087 1123 546.246
1051 0 45.059 12.6723 571 60.0105 1123.09 546.103
1052 0 43.0972 11.5785 499 63.2064 1122.75 545.425
1053 0 49.153 13.814 679 58.5729 1123.02 543.772
1054 0 50.1013 12.7941 641 59.6115 1122.88 544.232
1055 0 53.1527 12.9815 690 60.1029 1123.36 542.032
1056 0 57.4991 13.1654 757 60.6935 1123.66 541.781
1057 0 60.4453 13.0697 790 60.2354 1124.14 541.233
1058 0 60.6954 13.4936 819 60.1856 1124.16 540.208
1059 0 62.4665 13.2391 827 59.9262 1124.22 540.276
1060 0 65.3727 13.0941 856 60.2056 1124 538.341
1061 0 69.6445 13.454 937 58.9562 1124.15 537.407
1062 0 68.4149 13.4912 923 59.9361 1123.59 536.951
1063 0 71.5071 13.7189 981 59.7533 1123.43 535.242
1064 0 74.6043 13.337 995 60.4291 1123.3 533.757
1065 0 76.5276 13.6029 1041 60.1306 1123.3 533.744
1066 0 78.4229 13.848 1086 60.0396 1123.24 532.483
1067 0 82.4096 12.9961 1071 61.1345 1123.08 529.469
1068 0 85.4425 13.3189 1138 60.2135 1122.84 528.99
1069 1 46.2105 9.91116 458 60.4891 1123.32 548.943
1070 0 50.5161 10.8876 550 59.0418 1122.8 547.633
1071 0 50.284 11.097 558 59.6398 1122.72 546.995
1072 0 50.203 12.071 606 58.8234 1122.9 545.177
1073 0 50.2458 11.7025 588 59.7636 1123.29 545.08
1074 0 53.2622 11.6781 622 59.201 1123.09 545.093
1075 0 54.3571 12.4179 675 59.1822 1122.35 543.222
1076 0 56.2387 11.8068 664 59.0828 1122.44 543.042
1077 0 59.3156 12.0542 715 58.6503 1121.83 542.229
1078 0 60.2304 13.3155 802 57.2569 1121.53 541.67
1079 0 62.178 13.1558 818 57.3875 1121.43 540.443
1080 0 63.1351 12.5762 794 58.1159 1121.45 541.336
1081 0 65.1664 12.7673 832 58.4567 1121.98 538.405
1082 0 67.4535 13.2981 897 57.8562 1121.29 538.679
1083 0 69.3452 13.0218 903 58.6179 1121.55 536.691
1084 0 70.4881 12.9951 916 59.071 1121.69 534.206
1085 0 73.449 13.574 997 58.333 1121.67 535.182
1086 0 76.4383 12.86 983 59.3245 1121.36 533.512
1087 0 79.4927 13.3597 1062 58.6977 1121.22 532.787
1088 0 82.3976 14.0902 1161 57.7855 1121.12 533.345
1089 0 85.644 14.4202 1235 57.6032 1121.11 530.003
1090 1 44.364 10.752 477 59.1677 1120.86 551.126
1091 0 46.3624 10.116 469 59.0768 1121.34 551.128
1092 0 48.3709 11.6599 564 59.0479 1121.27 548.441
1093 0 50.3763 11.8508 597 58.0804 1120.99 549.045
1094 0 50.1665 12.8173 643 58.4028 1120.98 546.249
1095 0 54.2572 12.7541 692 56.6705 1121.22 546.218
1096 0 54.3681 13.0959 712 58.309 1120.85 545.129
1097 0 56.3702 13.2517 747 57.4859 1120.84 545.531
1098 0 57.4059 13.2565 761 58.0749 1120.66 543.239
1099 0 60.4864 12.1019 732 58.5847 1120.59 546.164
1100 0 61.5296 12.8881 793 58.3367 1120.49 542.443
1101 0 64.5424 13.3556 862 57.2738 1120.18 542.502
1102 0 64.2819 13.3786 860 57.8198 1120.08 541.027
1103 0 68.2999 13.6896 935 57.0824 1119.87 540.283
1104 0 69.2831 13.683 948 57.6825 1119.91 538.923
1105 0 68.3614 12.3169 842 59.7743 1120.28 538.816
1106 0 72.4562 14.1603 1026 57.0331 1120.01 537.232
1107 0 72.3304 12.9821 939 59.2694 1119.97 537.325
1108 0 77.3296 13.5394 1047 57.9226 1119.93 534.691
1109 0 79.4506 14.0716 1118 57.4785 1120.03 535.454
1110 0 81.4233 13.3009 1083 58.964 1119.45 530.959
1111 1 40.2441 9.71571 391 60.5985 1119.82 553.312
1112 0 42.2662 12.0664 510 58.3941 1119.7 552.351
1113 0 41.34 11.1514 461 59.1367 1119.43 553.627
1114 0 44.3866 11.2872 501 58.8144 1119.21 551.305
1115 0 46.1835 11.2594 520 58.5712 1119.15 551.05
1116 0 48.3012 12.0287 581 56.9139 1119.22 549.954
1117 0 49.3577 12.9463 639 56.662 1119.18 550.44
1118 0 51.4249 12.3287 634 57.4101 1119.25 549.74
1119 0 53.2765 13.4956 719 56.4437 1118.8 548.548
1120 0 53.316 12.6041 672 57.9732 1118.83 547.243
1121 0 55.1312 13.223 729 57.0617 1118.49 547.59
1122 0 58.2255 13.1901 768 56.6654 1118.63 546.953
1123 0 59.3319 12.8093 760 57.0342 1118.3 545.041
1124 0 61.1821 12.9286 791 56.2314 1118.6 544.652
1125 0 62.431 12.7981 799 55.8849 1118.51 544.965
1126 0 66.1398 12.0654 798 57.0865 1118.07 542.585
1127 0 66.0871 12.2263 808 56.9715 1119.58 541.985
1128 0 68.1962 13.0506 890 55.9213 1119.33 539.861
1129 0 72.0993 13.4121 967 55.3485 1119.44 539.111
1130 0 73.2198 13.0839 958 55.6743 1119.21 539.756
1131 0 74.3159 12.4603 926 57.2894 1119.24 539.261
1132 0 77.3053 12.9616 1002 56.6597 1119.1 537.124
1133 0 80.2551 12.2734 985 57.668 1118.95 536.394
1134 1 42.495 11.366 483 58.0849 1118.6 552.969
1135 0 43.149 11.1938 483 58.7246 1119.33 553.772
1136 0 47.2152 13.0043 614 56.798 1118.66 551.547
1137 0 48.2891 12.653 611 57.2684 1118.69 550.861
1138 0 47.3139 12.0261 569 58.6257 1118.3 551.308
1139 0 48.1588 12.1681 586 58.3601 1118.47 548
1140 0 50.1555 12.3018 617 57.9708 1118.78 548.049
1141 0 53.1438 12.5132 665 58.6752 1119.24 546.994
1142 0 54.2458 13.0517 708 58.3616 1119.49 546.869
1143 0 58.1279 13.1606 765 57.7595 1119.77 546.179
1144 0 58.206 13.0055 757 58.7662 1119.99 544.41
1145 0 60.1723 13.3782 805 58.2447 1120.1 542.005
1146 0 61.1038 13.2889 812 58.67 1119.62 542.1
1147 0 64.2237 13.6554 877 58.504 1120.03 541.67
1148 0 65.2091 12.6363 824 60.0328 1120.25 539.881
1149 0 68.1383 12.9589 883 59.1835 1120.47 539.454
1150 0 70.2229 13.1154 921 59.5136 1120.24 537.542
1151 0 73.2848 12.813 939 59.64 1120.72 536.789
1152 0 75.3101 12.6411 952 59.6261 1120.7 536.053
1153 0 76.2178 12.5692 958 59.9969 1121.15 534.209
1154 0 81.1596 14.0957 1144 57.5367 1121.58 532.028
1155 1 40.0615 9.83487 394 61.4264 1123.07 552.632
1156 0 42.0354 11.8472 498 59.1566 1123.49 551.715
1157 0 45.0193 11.3063 509 59.3635 1123.82 551.475
1158 0 47.1541 12.0244 567 58.9647 1123.8 549.6
1159 0 48.1371 13.0461 628 58.1815 1123.18 547.922
1160 0 48.2102 12.6529 610 59.3262 1123.63 547.92
1161 0 51.1007 12.0155 614 59.0912 1124.11 546.834
1162 0 50.0301 12.0527 603 60.325 1123.86 545.516
1163 0 52.0971 12.2464 638 60.4749 1123.81 544.237
1164 0 55.1366 12.5144 690 59.3087 1123.57 543.309
1165 0 57.1176 12.413 709 59.9379 1123.51 542.485
1166 0 58.1876 12.5112 728 60.0962 1123.09 542.772
1167 0 61.0941 13.0454 797 59.7064 1123.41 540.274
1168 0 63.1377 13.3043 840 59.45 1123.77 540.921
1169 0 64.1373 13.0969 840 60.0845 1123.62 539.165
1170 0 67.1703 14.0836 946 58.722 1123.62 536.885
1171 0 67.1495 12.8221 861 60.3647 1123.54 537.182
1172 0 71.1596 13.6173 969 59.354 1123.23 535.948
1173 0 72.0717 13.5004 973 60.2621 1123.46 535.553
1174 0 74.1354 12.9763 962 61.0249 1123.02 534.836
1175 0 76.0819 13.8404 1053 60.1064 1122.58 533.252
1176 0 78.1288 12.0314 940 63.0511 1122.94 530.489
1177 0 79.2156 13.6463 1081 61.2646 1123.11 529.435
1178 0 79.2156 13.6715 1083 156.138 1124.1 529.4
1179 0 86.3412 13.2034 1140 61.6974 1123.23 528.945
1180 0 88.1569 13.1243 1157 61.8168 1123.23 526.763
1181 0 92.197 12.9722 1196 61.9473 1123.09 524.441
1182 0 94.259 12.837 1210 62.5645 1123.19 524.231
1183 0 98.3555 13.5224 1330 61.5263 1123.92 521.077
1184 0 102.101 13.947 1424 60.8083 1123.47 520.703
1185 0 103.208 12.3537 1275 63.16 1122.91 521.368
1186 0 107.273 13.461 1444 62.2403 1122.81 517.128
1187 0 111.251 14.22 1582 61.3736 1122.4 514.719
1188 0 112.261 12.7916 1436 63.3781 1122.96 513.095
1189 0 117.353 13.7107 1609 61.9211 1122.8 510.377
1190 0 118.421 12.4556 1475 63.9397 1122.95 510.86
1191 0 124.199 13.728 1705 62.5314 1122.56 510.488
1192 0 129.504 14.0304 1817 61.8217 1122.34 508.641
1193 0 132.368 13.6287 1804 63.0194 1121.8 505.623
1194 0 136.359 14.1904 1935 62.0734 1121.88 505.933
1195 0 140.451 14.3538 2016 62.4747 1121.63 500.279
1196 0 147.561 14.3262 2114 62.2365 1121.9 500.412
1197 0 149.344 14.1151 2108 63.4644 1121.42 495.436
1198 0 153.19 13.9827 2142 63.8842 1121.51 495.29
1199 0 160.429 14.1932 2277 63.242 1121.55 492.915
1200 0 165.369 14.3377 2371 63.1645 1121.06 490.042
1201 0 172.291 14.6902 2531 63.1249 1121.08 486.112
1202 0 177.661 14.9104 2649 62.957 1120.62 485.763
1203 0 181.627 14.5849 2649 63.718 1120.94 481.586
1204 0 189.749 15.0831 2862 63.1733 1120.84 479.381
1205 0 196.481 13.8589 2723 65.0834 1120.62 478.182
1206 1 143.363 12.1649 1744 66.6519 1120.5 506.091
1207 0 148.323 13.3425 1979 66.1971 1121.03 500.625
1208 0 152.363 13.8879 2116 65.4112 1120.83 497.568
1209 0 160.515 14.3725 2307 63.2878 1120.64 495.17
1210 0 163.517 13.65 2232 64.6573 1120.58 489.703
1211 0 171.471 14.5739 2499 62.619 1120.2 489.426
1212 0 175.769 15.1619 2665 61.782 1119.92 487.152
1213 0 182.61 15.1306 2763 61.4354 1119.67 484.767
1214 0 187.557 14.5662 2732 62.3269 1119.53 480.284
1215 0 194.711 14.8219 2886 61.5218 1119.6 476.41
1216 0 200.92 14.5978 2933 61.565 1119.5 474.836
1217 1 164.968 13.7239 2264 62.7049 1119.74 493.849
1218 0 169.794 14.1525 2403 62.0553 1119.43 489.471
1219 0 174.759 13.5444 2367 62.8268 1118.86 486.907
1220 0 183.25 14.1719 2597 61.3862 1119.29 483.056
1221 0 183.25 14.1719 2597 168.437 1121.29 483.056
1222 0 196.14 15.3105 3003 59.2464 1119.28 476.59
1223 0 204.025 14.7678 3013 59.8075 1118.91 471.626
1224 0 208.609 15.3541 3203 59.0574 1118.98 472.359
1225 0 216.78 15.2459 3305 59.4805 1118.67 465.51
1226 0 221.768 14.8489 3293 60.0796 1118.65 463.968
1227 0 228.684 14.9027 3408 60.0437 1118.92 460.399
1228 0 235.801 15.072 3554 59.5236 1118.6 455.733
1229 1 59.6465 12.9429 772 59.4171 1119.25 542.582
1230 0 62.6201 13.0629 818 59.8166 1119.13 540.543
1231 0 64.6744 13.0036 841 59.2794 1119.27 540.532
1232 0 66.795 13.5339 904 58.8352 1119.18 538.211
1233 0 67.6691 14.1571 958 58.2004 1118.84 537.108
1234 0 71.8891 13.1731 947 58.8986 1118.86 535.014
1235 0 75.6479 13.4571 1018 58.5481 1118.7 534.762
1236 0 77.0528 13.4323 1035 58.6493 1119.33 532.241
1237 0 78.7453 13.6516 1075 58.5228 1118.59 529.231
1238 0 82.8599 13.8668 1149 57.5596 1118.77 529.696
1239 0 84.9207 13.1535 1117 58.325 1118.66 528.543
1240 0 89.6216 13.7355 1231 57.5727 1118.79 525.98
1241 0 92.7667 13.4315 1246 57.5666 1118.4 525.661
1242 0 95.6885 12.2481 1172 58.302 1118.47 524.89
1243 1 50.6041 10.8687 550 59.2345 1119 545.742
1244 0 52.391 12.1777 638 57.9655 1119.16 544.923
1245 0 54.3986 12.0959 658 57.9331 1119.5 544.327
1246 0 58.4433 14.1505 827 54.8138 1119.33 541.022
1247 0 60.7299 14.1611 860 55.0872 1119.17 540.37
1248 0 58.3549 13.4693 786 58.3397 1119.55 540.328
1249 0 63.5595 13.0272 828 57.9384 1119.48 540.428
1250 0 63.5474 13.2657 843 58.7426 1119.78 538.797
1251 0 65.533 13.7793 903 58.1451 1119.45 537.68
1252 0 66.625 13.3283 888 59.0372 1119.28 536.523
1253 0 68.4778 13.4788 923 59.2167 1119.7 537.104
1254 0 71.3672 14.2643 1018 58.4303 1119.52 535.313
1255 0 74.4236 13.8128 1028 58.3385 1119.47 535.112
1256 0 76.3737 14.7957 1130 57.9319 1119.28 532.613
1257 0 77.3728 13.6224 1054 59.3634 1119.45 532.958
1258 0 80.6546 13.8988 1121 59.5861 1119.53 530.257
1259 0 85.2439 14.6052 1245 57.9052 1119.84 529.606
1260 0 86.2719 14.0022 1208 59.2897 1120.09 527.966
1261 0 89.4266 14.6042 1306 58.8874 1119.94 526.554
1262 0 91.4516 14.2917 1307 59.5195 1119.85 524.451
1263 0 97.4476 13.5868 1324 60.0944 1120.55 525.052
1264 0 98.5634 13.7779 1358 60.2445 1120.42 522.406
1265 1 50.265 10.3253 519 62.8401 1121.18 544.466
1266 0 53.4092 11.0281 589 62.0085 1121.26 544.261
1267 0 55.2996 11.7722 651 61.3088 1121.36 544.275
1268 0 57.4758 12.5096 719 60.6885 1121.61 542.559
1269 0 58.1605 13.1189 763 59.9489 1121.81 541.123
1270 0 60.0747 12.9505 778 60.5604 1122 539.373
1271 0 61.1367 13.5925 831 60.0217 1122.16 537.614
1272 0 63.1214 13.3552 843 60.2823 1122.51 538.076
1273 0 65.198 12.5924 821 60.6516 1122.51 537.395
1274 0 66.0947 13.0873 865 60.696 1122.77 534.813
1275 0 69.1283 13.5256 935 59.4652 1123.24 533.716
1276 0 70.0706 12.73 892 60.639 1123.39 533.333
1277 0 73.1642 13.3262 975 59.5364 1123.98 532.331
1278 0 76.2577 12.8774 982 59.7454 1124.62 531.243
1279 0 77.1987 11.6971 903 61.0598 1124.48 530.193
1280 1 42.2016 9.43093 398 58.8995 1125.72 548.922
1281 0 43.1226 10.1571 438 58.6826 1125.26 545.943
1282 0 45.1288 11.0351 498 56.3454 1124.73 544.857
1283 0 46.206 10.4316 482 56.056 1124.1 541.693
1284 0 46.2663 10.0937 467 56.3769 1123.58 541.974
1285 0 48.3408 10.3846 502 55.6175 1123.09 542.309
1286 0 50.0503 10.7092 536 57.6045 1123.74 540.916
1287 0 53.0326 10.5784 561 56.7148 1124.26 541.647
1288 0 53.2487 11.8313 630 55.8524 1124.05 541.23
1289 0 53.1744 11.3777 605 56.8413 1124.6 541.218
1290 0 57.1817 11.5771 662 55.8958 1124.4 540.122
1291 0 60.1626 11.7183 705 55.5957 1124.28 539.04
1292 0 60.2851 11.6778 704 55.669 1124.62 539.098
1293 0 64.2754 11.6219 747 55.4618 1124.42 536.783
1294 0 63.2172 11.5317 729 55.6612 1124.75 537.1
1295 0 67.2598 12.2064 821 54.9756 1124.28 535.264
1296 0 67.2844 11.4737 772 56.2358 1124.2 534.573
1297 0 69.1905 12.2994 851 55.8002 1124.15 531.984
1298 0 72.2307 11.7263 847 55.7946 1124.13 533.358
1299 0 73.1256 11.0358 807 57.171 1124.11 530.669
1300 0 77.1719 12.5305 967 55.3102 1123.99 528.471
1301 1 41.0702 8.35156 343 56.481 1124.77 548.746
1302 0 43.0327 9.17906 395 55.8354 1125.1 547.899
1303 0 44.0843 10.3892 458 55.1507 1125.03 546.419
1304 0 48.1569 10.1128 487 53.0657 1124.81 546.304
1305 0 47.1118 10.1673 479 52.5136 1124.81 546.77
1306 0 50.2775 11.0188 554 52.3231 1123.04 546.495
1307 0 49.2923 11.1174 548 53.1332 1123.05 544.332
1308 0 51.3633 10.8443 557 53.1652 1122.79 544.418
1309 0 53.3017 11.4818 612 52.5441 1122.08 541.039
1310 0 52.3289 11.2557 589 53.4958 1121.9 542.891
1311 0 56.229 10.4039 585 54.1624 1121.69 541.198
1312 0 55.266 10.6937 591 53.5127 1121.41 539.78
1313 0 59.2875 11.8575 703 52.0882 1121.74 540.613
1314 0 60.288 11.6607 703 52.5135 1121.95 537.909
1315 0 64.2676 12.6036 810 51.0667 1121.49 537.932
1316 0 63.2394 10.9742 694 53.4568 1121.17 539.411
1317 0 64.3256 10.8355 697 54.3343 1121.07 537.32
1318 0 68.2652 11.9827 818 53.0623 1121.22 536.592
1319 0 69.2752 10.5232 729 54.5309 1119.91 537.045
1320 0 72.4327 11.4589 830 53.7614 1120.08 532.961
1321 0 74.3566 11.6466 866 53.8256 1119.55 533.508
1322 0 75.2964 12.4574 938 52.9158 1119.75 532.544
1323 0 78.3256 11.7714 922 54 1120.11 531.46
1324 1 42.3088 9.64339 408 53.8382 1120.44 550.169
1325 0 42.2744 9.76952 413 53.3487 1120.42 549.864
1326 0 44.1252 10.9461 483 53.0849 1120.64 549.048
1327 0 45.1508 11.0297 498 53.1466 1120.29 550.635
1328 0 46.1249 11.6206 536 52.1007 1121.08 546.892
1329 0 46.1584 10.8323 500 53.626 1121.25 547.41
1330 0 49.1231 11.7867 579 52.8636 1120.69 546.278
1331 0 50.1149 11.1544 559 54.0018 1120.76 545.159
1332 0 51.1789 11.45 586 54.1877 1120.51 545.696
1333 0 52.1458 12.8486 670 51.4761 1120.42 546.358
1334 0 54.283 13.2638 720 53.6764 1120.39 544.985
1335 0 53.2309 12.2673 653 54.9709 1120.85 544.746
1336 0 54.1136 12.0118 650 56.0969 1120.26 542.557
1337 0 57.1601 12.1413 694 56.0865 1119.97 542.316
1338 0 58.1641 12.1725 708 56.1723 1120.06 542.28
1339 0 61.3234 12.801 785 54.7121 1120.12 541.53
1340 0 63.2192 13.0656 826 54.7252 1120.14 540.312
1341 0 63.1509 12.478 788 55.5165 1120.1 539.259
1342 0 65.2767 12.3321 805 55.8149 1119.66 537.554
1343 0 69.1788 12.2147 845 55.8426 1119.82 537.031
1344 0 71.0898 13.1383 934 54.6006 1120.1 536.535
1345 0 73.166 13.0935 958 55.1211 1119.91 535.024
1346 0 74.4984 12.8996 961 55.7232 1119.36 533.992
1347 0 77.4679 13.7347 1064 54.5 1118.94 534.029
1348 1 42.2926 10.8293 458 56.8166 1119.16 551.122
1349 0 43.2914 9.28592 402 58.607 1119.26 551.264
1350 0 43.3996 10.6914 464 57.7457 1118.99 549.75
1351 0 47.2432 10.8799 514 57.2043 1118.92 549.286
1352 0 47.4199 11.3876 540 57.3574 1118.67 549.017
1353 0 48.4224 12.329 597 57.1039 1118.13 548.054
1354 0 50.3517 11.8367 596 58.557 1118.22 547.164
1355 0 52.3147 12.0807 632 58.3877 1118.23 546.364
1356 0 53.37 12.5351 669 58.0538 1117.79 546.245
1357 0 54.3271 12.3695 672 58.7932 1117.43 546.326
1358 0 54.1567 12.8147 694 58.9827 1116.87 545.595
1359 0 56.2669 12.6007 709 59.5811 1116.88 544.371
1360 0 57.2688 12.7993 733 60.0778 1116.98 543.615
1361 0 58.2484 12.378 721 60.914 1116.61 543.168
1362 0 61.2121 13.053 799 59.831 1117.21 542.93
1363 0 62.3659 12.8756 803 60.4882 1117.33 542.41
1364 0 66.2687 13.1435 871 59.6096 1118.35 541.936
1365 0 65.1486 13.2927 866 60.5439 1118.08 539.775
1366 0 69.2269 13.5785 940 59.8053 1117.7 538.288
1367 0 69.2424 12.7523 883 62.0623 1117.34 538.441
1368 0 72.2447 12.8868 931 61.0483 1117.6 538.682
1369 0 74.2605 13.3045 988 61.3947 1117.93 536.633
1370 0 75.1883 13.393 1007 61.6663 1117.78 535.883
1371 0 78.3738 13.5504 1062 61.2269 1117.84 534.346
1372 0 82.2435 13.5208 1112 61.1439 1117.72 534.973
1373 1 42.2556 10.7441 454 62.8282 1117.99 553.456
1374 0 44.4162 10.6493 473 63.5095 1117.89 552.964
1375 0 45.3679 11.8586 538 62.2714 1117.71 551.595
1376 0 47.583 11.7059 557 62.7738 1117.94 549.284
1377 0 49.448 12.5789 622 62.127 1118.59 548.986
1378 0 50.2461 13.4936 678 60.9012 1119.09 547.212
1379 0 51.2142 12.9261 662 62.5393 1119.29 548.023
1380 0 55.255 13.0124 719 60.9054 1119.03 547.986
1381 0 54.2426 13.2921 721 61.154 1118.89 546.065
1382 0 55.3361 13.7704 762 58.2848 1118.82 547.417
1383 0 57.2227 13.3863 766 59.0196 1118.84 547.595
1384 0 59.2618 14.2081 842 59.1675 1118.55 543.119
1385 0 60.3541 13.6362 823 61.0656 1118.6 542.614
1386 0 61.4297 13.8532 851 60.5629 1118.83 543.22
1387 0 63.3819 13.5212 857 60.1949 1118.26 543.027
1388 0 65.363 13.8763 907 59.9239 1118.51 541.729
1389 0 66.4018 13.4183 891 60.6633 1118.89 541.046
1390 0 68.3807 14.4047 985 59.5269 1119.15 539.804
1391 0 70.3997 14.858 1046 58.8728 1119.12 539.213
1392 0 73.3236 14.3201 1050 59.0448 1119.91 537.535
1393 0 74.1872 13.6951 1016 59.8415 1119.75 536.594
1394 0 75.2822 14.0538 1058 59.4206 1119.59 535.47
1395 0 79.2428 14.3105 1134 58.7593 1119.54 534.857
1396 0 80.2997 13.9478 1120 59.3518 1119.99 533.429
1397 0 84.3463 13.7765 1162 58.9303 1119.75 531.445
1398 0 86.4212 13.9202 1203 58.655 1120.06 528.208
1399 1 47.2487 11.1326 526 59.384 1120.68 549.833
1400 0 47.1291 11.0335 520 59.7173 1120.91 549.092
1401 0 48.2759 10.7714 520 59.4942 1121.43 548.873
1402 0 49.4012 12.692 627 57.9984 1121.53 546.051
1403 0 54.227 13.296 721 56.0374 1121.44 545.232
1404 0 54.218 13.2982 721 56.4424 1121.98 543.922
1405 0 55.2266 12.6388 698 57.2249 1122.48 543.321
1406 0 59.1581 13.709 811 54.4279 1122.5 543.276
1407 0 58.216 13.4156 781 55.6197 1122.54 542.526
1408 0 60.2616 12.5619 757 56.2431 1122.62 539.98
1409 0 63.2219 12.986 821 55.1181 1123.31 537.966
1410 0 66.3005 13.2126 876 54.1404 1123.97 537.148
1411 0 65.2603 13.0861 854 54.534 1124.31 535.944
1412 0 71.2013 13.8902 989 52.8645 1124.39 536.903
1413 0 72.2186 12.9468 935 54.0952 1124.6 536.002
1414 0 73.2575 14.0054 1026 52.4435 1124.48 535.399
1415 0 76.36 14.0781 1075 52.8521 1124.64 533.586
1416 0 78.2414 13.4711 1054 53.6385 1124.52 530.296
1417 0 81.2277 13.3329 1083 53.0785 1124.66 529.701
1418 0 85.2134 14.3405 1222 51.7177 1124.87 527.462
1419 0 89.2136 12.7895 1141 53.1814 1124.34 527.151
1420 0 91.1813 13.6541 1245 52.1108 1124.2 525.739
1421 0 94.2492 14.207 1339 51.5504 1124.39 524.745
1422 1 48.1114 9.93528 478 54.4226 1124.99 545.916
1423 0 54.1257 10.9929 595 52.4286 1125.33 544.681
1424 0 52.0714 12.214 636 52.8318 1125.23 541.08
1425 0 56.1165 11.4761 644 52.8323 1125.34 541.472
1426 0 57.0261 11.0826 632 52.731 1125.07 540.873
1427 0 61.064 13.2811 811 50.947 1124.68 538.605
1428 0 60.1414 13.2521 797 50.6976 1124.95 538.151
1429 0 63.1805 12.2348 773 51.5602 1124.32 537.683
1430 0 65.1852 12.9631 845 51.0201 1124.62 537.142
1431 0 70.1669 13.0546 916 49.738 1124.46 535.901
1432 0 72.3006 15.1866 1098 48.2168 1124.46 532.933
1433 0 73.3253 13.9515 1023 49.9365 1124 532.171
1434 0 75.1784 13.6342 1025 51.0283 1123.6 532.073
1435 0 79.4102 13.7766 1094 50.7642 1123.82 530.37
1436 0 82.1605 13.2667 1090 52.1936 1123.15 529.835
1437 0 82.1812 13.0443 1072 53.3619 1123.83 527.026
1438 0 86.263 13.2154 1140 53.443 1123.85 524.463
1439 0 93.3224 13.8981 1297 51.8558 1123.06 525.278
1440 0 92.2369 13.9207 1284 52.4369 1122.67 523.381
1441 0 96.125 13.2224 1271 53.4469 1122.36 521.282
1442 0 99.2527 13.783 1368 52.4671 1122.38 520.029
1443 0 101.399 13.1067 1329 53.3123 1122.04 516.557
1444 0 105.38 13.7123 1445 52.6104 1121.96 516.015
1445 0 110.286 13.9365 1537 52.1776 1121.96 516.789
1446 0 112.268 13.0047 1460 53.3486 1121.95 512.133
1447 1 62.1676 10.5843 658 52.1398 1121.23 540.337
1448 0 62.0608 11.3115 702 50.7578 1121.36 540.291
1449 0 68.1078 11.2469 766 51.4569 1122.04 538.935
1450 0 68.1329 12.7545 869 51.1577 1122.1 536.182
1451 0 71.09 12.0692 858 51.9161 1121.83 536.443
1452 0 73.1988 12.5002 915 51.7246 1121.5 534.999
1453 0 75.0875 12.8117 962 51.8628 1121.46 532.514
1454 0 78.304 12.7707 1000 52.437 1121.53 532.032
1455 0 80.1359 14.3007 1146 51.0864 1121.73 530.676
1456 0 83.3241 13.4775 1123 52.5663 1121.39 529.513
1457 0 86.251 13.4723 1162 52.2926 1120.92 528.082
1458 0 90.0755 13.7995 1243 52.3797 1120.72 526.424
1459 0 92.1777 13.9079 1282 52.8003 1120.91 526.496
1460 0 93.2692 13.713 1279 53.5739 1121.21 525.905
1461 0 98.1905 14.0645 1381 53.0384 1121.28 525.024
1462 0 101.271 14.2193 1440 52.7375 1121.35 521.288
1463 0 104.295 14.296 1491 52.8773 1121.35 520.516
1464 0 107.302 13.3176 1429 54.4234 1121.14 518.041
1465 0 110.355 13.7284 1515 53.8317 1120.89 516.16
1466 0 115.348 13.689 1579 53.7923 1120.01 513.9
1467 1 61.1331 12.1865 745 54.6966 1119.8 541.123
1468 0 63.0859 11.3972 719 54.726 1119.38 541.841
1469 0 67.0747 12.0463 808 52.9889 1118.46 540.666
1470 0 68.2873 12.711 868 52.9666 1118.08 539.03
1471 0 71.0629 13.0026 924 53.434 1119.04 538.457
1472 0 71.071 13.4513 956 52.9571 1119.58 536.424
1473 0 74.0678 13.4336 995 53.0442 1119.76 537.154
1474 0 75.1587 12.9193 971 53.8568 1119.41 537
1475 0 79.1054 13.4504 1064 53.2622 1119.18 534.068
1476 0 82.1403 13.623 1119 52.916 1118.71 533.718
1477 0 85.1978 14.0614 1198 52.2838 1118.67 533.747
1478 0 89.1964 13.6553 1218 52.0952 1118.82 531.731
1479 0 91.2011 14.0678 1283 51.9525 1118.42 528.193
1480 0 94.1305 14.5861 1373 52.1763 1118.45 526.553
1481 0 99.4604 14.3977 1432 52.2975 1118.19 525.101
1482 1 53.091 10.5291 559 53.975 1118.33 547.919
1483 0 55.1551 11.2592 621 54.2528 1118.16 547.544
1484 0 55.1479 11.5689 638 54.9734 1117.97 546.005
1485 0 57.1464 11.3393 648 54.6435 1118.46 546.316
1486 0 59.135 12.0741 714 54.1989 1118.24 545.004
1487 0 60.1391 12.7704 768 53.6068 1118.42 542.352
1488 0 63.0586 12.7183 802 53.4077 1118.45 542.406
1489 0 65.2671 12.5484 819 53.5385 1117.96 541.41
1490 0 67.2473 12.8332 863 53.051 1118.29 541.817
1491 0 68.1715 13.5541 924 52.7273 1118.36 538.821
1492 0 72.1264 13.4486 970 52.7309 1118.88 538.451
1493 0 72.1735 13.7724 994 52.7384 1118.47 536.796
1494 0 77.0883 13.3094 1026 53.2612 1118.49 535.426
1495 0 78.1024 12.9061 1008 54.4077 1119.02 534.692
1496 0 80.2283 12.9879 1042 54.9741 1118.75 532.807
1497 0 82.1083 13.7014 1125 54.4809 1119.02 531.648
1498 0 87.2278 13.2183 1153 55.7268 1119.39 530.879
1499 0 89.1669 13.3906 1194 54.9975 1119.89 530.117
1500 0 90.4322 13.723 1241 55.6559 1119.84 528.023
1501 0 94.2583 13.6434 1286 55.409 1120.46 527.525
1502 1 46.1932 9.97982 461 56.5857 1120.27 551.842
1503 0 50.2259 10.9904 552 56.2862 1121.08 549.543
1504 0 52.2644 12.6855 663 55.8914 1120.77 548.29
1505 0 53.2515 11.9809 638 55.9514 1120.74 547.889
1506 0 55.3719 13.4906 747 54.573 1120.87 547.4
1507 0 55.0949 11.8704 654 57.0245 1120.7 547.148
1508 0 58.2513 12.9611 755 55.457 1120.93 544.946
1509 0 60.2359 12.7665 769 55.0143 1120.77 543.776
1510 0 61.162 13.2108 808 55.0507 1120.65 543.493
1511 0 62.1507 13.596 845 54.987 1121.14 541.303
1512 0 66.1919 13.476 892 54.6928 1121.06 542.151
1513 0 68.1097 14.0655 958 53.7015 1121.54 541.795
1514 0 68.1384 14.2064 968 54.78 1122.04 539.66
1515 0 70.0784 13.9272 976 55.4221 1122.53 537.603
1516 0 72.1111 14.5747 1051 54.8991 1122.78 537.003
1517 0 75.156 13.2258 994 56.4648 1123.02 536.663
1518 0 75.183 13.9792 1051 56.1912 1122.87 534.684
1519 0 78.2842 13.3743 1047 56.3171 1123.09 534.938
1520 0 80.1978 13.2797 1065 56.4094 1123.11 533.661
1521 0 84.1789 13.3525 1124 56.2509 1123.44 531.49
1522 0 84.3393 13.6235 1149 56.4143 1123.91 529.668
1523 0 88.2493 13.7905 1217 56.2219 1123.99 528.347
1524 0 91.3141 13.1414 1200 56.8225 1123.74 528.078
1525 1 46.1679 11.6531 538 56.3086 1124.07 549.442
1526 0 47.2149 10.3357 488 58.1455 1124.16 548.557
1527 0 50.161 12.1409 609 55.514 1124.32 547.947
1528 0 50.0789 12.4803 625 56.0816 1124.26 546.982
1529 0 50.0452 12.2689 614 56.0407 1124.76 545.738
1530 0 55.1078 12.2487 675 55.0652 1125.01 545.966
1531 0 58.1307 12.9536 753 54.3121 1124.67 543.24
1532 0 59.0618 12.9695 766 55.4843 1124.56 542.035
1533 0 63.0813 14.0612 887 53.9481 1124.23 541.959
1534 0 63.1175 14.1799 895 54.1453 1124.52 540.83
1535 0 66.0376 13.0683 863 55.1958 1124.56 538.644
1536 0 67.1062 14.0523 943 54.2015 1124.45 537.967
1537 0 71.0767 13.6191 968 54.5434 1124.51 538.693
1538 0 73.1059 13.6514 998 54.4569 1124.27 536.947
1539 0 75.0955 13.4629 1011 55.2601 1124.5 535.414
1540 0 76.0748 12.7769 972 55.965 1124.28 534.108
1541 0 80.1322 13.7148 1099 54.8035 1123.99 530.629
1542 0 81.1858 13.8571 1125 54.856 1124.18 530.675
1543 0 84.1238 14.3836 1210 54.1686 1123.81 528.509
1544 0 87.2426 13.686 1194 54.9213 1124.08 529.708
1545 0 89.0855 13.9978 1247 54.4026 1123.97 526.356
1546 0 92.1798 13.8425 1276 54.2092 1124.13 525.958
1547 0 96.2618 13.9723 1345 54.0015 1124.24 523.961
1548 0 98.1586 12.9281 1269 55.2325 1123.94 524.491
1549 1 55.1698 11.6912 645 54.907 1124.27 546.994
1550 0 58.1298 11.9388 694 55.0908 1123.51 544.207
1551 0 60.3116 12.966 782 53.5806 1124 543.052
1552 0 62.2746 13.9704 870 53.146 1122.76 542.18
1553 0 64.1715 14.0405 901 53.2198 1122.4 540.806
1554 0 65.1613 13.1366 856 54.2185 1122.42 542.206
1555 0 67.23 13.7141 922 54.2874 1122.53 539.781
1556 0 70.143 14.2566 1000 53.514 1122.16 538.422
1557 0 72.1324 14.002 1010 54.5752 1122.46 537.265
1558 0 73.1482 14.0126 1025 55.0937 1122.76 535.522
1559 0 76.0795 13.9328 1060 55.1613 1123 535.964
1560 0 80.0937 14.2583 1142 54.1497 1123.19 534.128
1561 0 79.1887 13.4363 1064 55.9182 1122.94 531.728
1562 0 84.2157 14.4629 1218 54.7028 1122.97 529.007
1563 0 85.0677 13.26 1128 56.1516 1123.73 529.285
1564 0 89.0657 13.7539 1225 55.5927 1122.81 528.789
1565 0 91.0846 13.1197 1195 56.6184 1122.01 527.44
1566 1 48.0183 10.371 498 56.6345 1122.53 551.046
1567 0 51.0972 11.5075 588 56.301 1122.66 548.575
1568 0 53.1434 12.5698 668 54.8802 1122.3 546.915
1569 0 54.0718 12.1135 655 55.2198 1122.16 545.965
1570 0 56.1019 12.9051 724 53.8301 1122.26 545.956
1571 0 57.3196 12.0378 690 54.0667 1121.22 546.007
1572 0 59.1699 13.0303 771 53.7185 1120.92 542.946
1573 0 60.1132 12.6927 763 53.6763 1120.87 542.836
1574 0 63.1946 13.4189 848 52.7889 1120.92 542.925
1575 0 64.1027 13.3068 853 52.9086 1120.62 540.733
1576 0 67.0923 13.8168 927 52.2168 1120.78 540.628
1577 0 69.1965 13.2232 915 52.706 1121.12 539.235
1578 0 73.065 13.399 979 52.5567 1120.65 538.204
1579 0 73.1185 13.8953 1016 52.8406 1120.57 537.57
1580 0 77.3113 14.1376 1093 52.4556 1120.26 536.88
1581 0 78.1316 13.8868 1085 53.412 1119.72 535.362
1582 0 82.0672 14.1591 1162 52.7487 1119.9 534.749
1583 0 83.1755 13.0688 1087 54.379 1119.07 533.536
1584 0 87.0922 13.6866 1192 53.5973 1118.88 532.214
1585 0 90.2774 13.8573 1251 53.8265 1118.75 529.883
1586 0 92.1305 13.9259 1283 54.4092 1119.2 529.419
1587 0 96.1843 14.4306 1388 53.8537 1118.93 527.651
1588 1 52.0941 11.8056 615 56.2813 1118.85 549.889
1589 0 52.0903 12.4015 646 56.3684 1118.8 548.895
1590 0 54.1497 12.6501 685 56.5314 1118.8 547.701
1591 0 56.1545 13.4985 758 55.6623 1118.61 546.361
1592 0 57.4035 13.6054 781 56.6569 1118.71 543.429
1593 0 61.1967 13.955 854 55.4368 1118.73 544.004
1594 0 62.2106 14.3384 892 54.9619 1118.51 541.833
1595 0 66.0809 14.5882 964 54.5301 1119.04 540.414
1596 0 69.3148 14.8309 1028 54.1839 1119.07 539.416
1597 0 70.1484 14.3838 1009 55.4817 1119.29 538.81
1598 0 72.2129 15.1081 1091 55.0018 1119.49 536.033
1599 0 75.3587 15.3134 1154 55.0035 1119.87 536.287
1600 0 76.2726 14.6579 1118 56.4186 1119.97 534.496
1601 0 80.2333 14.7944 1187 55.941 1119.98 534.361
1602 0 84.2817 14.8312 1250 56.1968 1119.82 531.704
1603 0 87.1735 14.7293 1284 56.6737 1120.33 529.605
1604 0 90.4211 14.9191 1349 56.3929 1120.24 527.787
1605 0 94.5317 14.4608 1367 57.0622 1120.45 526.08
1606 1 49.1773 12.7091 625 59.2096 1120.21 547.288
1607 0 51.2446 12.1574 623 58.9759 1120.47 546.86
1608 0 52.2655 13.1253 686 58.9956 1120.57 545.399
1609 0 53.2465 13.3154 709 58.7814 1120.28 545.535
1610 0 56.2952 13.5891 765 58.4497 1120.8 543.141
1611 0 58.4552 13.8568 810 57.8716 1121 541.317
1612 0 60.2409 13.8112 832 58.4952 1121.34 539.237
1613 0 62.193 14.4389 898 57.9677 1121.41 539.077
1614 0 66.3865 14.3704 954 57.4811 1121.32 538.017
1615 0 68.4291 14.7744 1011 56.909 1121.75 536.87
1616 0 69.2688 13.5848 941 58.9713 1121.94 535.07
1617 0 72.1907 15.3205 1106 57.0362 1121.94 534.392
1618 0 74.3933 14.4099 1072 58.6418 1122.37 532.91
1619 0 79.3029 14.3879 1141 58.1727 1123.22 531.681
1620 0 77.2612 13.9915 1081 170.463 1124.26 530.928
1621 0 84.4027 14.265 1204 58.8364 1123.4 528.321
1622 0 87.4494 14.6828 1284 58.2648 1123.55 524.948
1623 1 44.3762 11.8532 526 61.4202 1123.63 545.698
1624 0 45.3545 11.796 535 61.8037 1123.28 543.836
1625 0 46.1451 12.8941 595 60.7714 1123.38 543.294
1626 0 48.0988 13.1188 631 59.7306 1123.27 541.846
1627 0 49.281 12.7432 628 60.9156 1123.86 540.131
1628 0 50.0966 13.6736 685 60.2204 1123.99 540.364
1629 0 54.2632 13.8584 752 58.7739 1123.89 539.951
1630 0 54.3387 14.4648 786 59.257 1124.3 537.889
1631 0 55.2182 12.7132 702 61.4929 1124.14 537.513
1632 0 57.2809 14.071 806 59.9851 1124.22 536.49
1633 0 62.3007 13.804 860 59.4942 1124.32 534.016
1634 0 63.3833 13.5051 856 60.1565 1123.96 534.21
1635 0 65.4615 14.2679 934 59.2998 1124.35 533.564
1636 0 67.1051 14.3357 962 59.4553 1124.24 532.193
1637 0 70.2188 14.113 991 59.4652 1124.32 531.931
1638 0 74.1835 13.9789 1037 59.4513 1124.5 530.888
1639 0 76.3496 13.8573 1058 60.1078 1124.44 527.991
1640 0 79.2312 14.3378 1136 59.5097 1124.6 528.628
1641 0 81.1571 14.6999 1193 58.7988 1124.42 526.185
1642 0 84.2336 15.3027 1289 58.6718 1124.64 525.064
1643 0 85.2667 14.4722 1234 60.1532 1124.65 523.414
1644 0 89.0862 13.7956 1229 60.9658 1124.81 522.947
1645 0 93.2453 14.1777 1322 60.4546 1124.75 522.104
1646 1 48.1392 11.4044 549 63.1694 1124.12 542.67
1647 0 49.1087 11.7902 579 62.6632 1124.22 543.285
1648 0 51.1147 12.5404 641 62.1295 1124.36 541.744
1649 0 53.1963 13.2904 707 61.5644 1124 541.194
1650 0 54.1518 13.3883 725 62.0662 1123.86 540.263
1651 0 56.2682 13.5956 765 61.9359 1123.39 539.712
1652 0 58.0626 13.6749 794 61.4207 1123.5 539.155
1653 0 60.0439 13.3902 804 61.7027 1123.07 537.705
1654 0 62.2725 13.3446 831 61.5391 1123.16 537.136
1655 0 65.1276 14.0493 915 60.7257 1123.05 534.542
1656 0 68.0815 13.4838 918 60.3508 1123.07 536.307
1657 0 71.0745 13.4085 953 60.5551 1123.06 533.96
1658 0 74.2322 14.1313 1049 59.4204 1123.01 532.665
1659 0 76.373 13.8793 1060 60.1575 1122.33 530.581
1660 0 79.1775 14.5875 1155 59.2312 1122.52 530.201
1661 0 80.2062 13.8643 1112 60.7977 1122.41 527.393
1662 0 83.2415 13.587 1131 60.8506 1122.16 528.062
1663 0 85.3216 14.2988 1220 60.1352 1121.72 526.776
1664 0 88.2783 13.8879 1226 60.4021 1121.64 525.722
1665 0 95.3204 14.5299 1385 59.1942 1121.71 524.625
1666 0 94.3488 13.9482 1316 60.693 1121.37 521.885
1667 0 99.2978 14.5421 1444 58.2348 1121.65 521.974
1668 0 102.314 13.4195 1373 59.6926 1121.39 519.267
1669 0 104.474 13.9364 1456 59.3908 1121.29 517.694
1670 0 107.444 13.0766 1405 60.1893 1121.35 517.06
1671 1 61.1197 9.76772 597 58.8392 1121.3 541.531
1672 0 63.1193 10.4405 659 58.3399 1121.55 540.961
1673 0 66.179 10.9098 722 57.1496 1121.09 540.856
1674 0 69.1896 11.7937 816 56.9228 1121.04 536.934
1675 0 72.1551 11.503 830 57.1036 1120.96 536.365
1676 0 72.1038 11.2615 812 56.6108 1121.09 535.967
1677 0 76.1758 11.8673 904 56.2478 1121.02 534.004
1678 0 79.2188 12.0805 957 56.0094 1121.05 532.346
1679 0 82.19 11.5708 951 55.8402 1120.92 531.639
1680 0 85.1423 10.9934 936 56.7863 1120.9 531.052
1681 1 47.1743 7.65247 361 55.5152 1121.99 551.593
1682 0 48.1138 10.2673 494 54.7814 1121.19 547.419
1683 0 52.1082 9.94085 518 54.8475 1121.11 547.332
1684 0 51.1027 9.94076 508 54.1378 1121 545.852
1685 0 53.1838 10.9808 584 54.0086 1120.03 544.932
1686 0 56.2398 10.8464 610 53.6918 1120.04 545.293
1687 0 55.1019 11.8326 652 53.2377 1119.56 544.199
1688 0 59.25 11.4262 677 53.5052 1120.07 544.216
1689 0 59.1587 11.3086 669 53.9746 1119.52 542.581
1690 0 61.148 11.6112 710 53.8423 1119.17 540.658
1691 0 64.1853 11.6382 747 53.9585 1118.96 539.49
1692 0 65.3121 11.4221 746 53.6595 1118.66 540.908
1693 0 67.3707 11.5332 777 54.2625 1118.47 540.377
1694 0 68.282 10.7788 736 54.9864 1117.84 536.913
1695 0 71.2013 11.1936 797 54.6675 1117.7 536.011
1696 0 73.3755 9.97608 732 55.4454 1118.17 536.422
1697 0 75.2654 11.1074 836 54.5191 1117.9 532.623
1698 0 77.4936 10.0653 780 54.0526 1117.51 538.035
1699 0 80.4089 10.8819 875 54.0629 1117.35 533.073
1700 0 83.4291 10.5958 884 54.0023 1117.65 533.072
1701 1 47.3323 9.06358 429 52.6527 1117.05 550.282
1702 0 49.2915 10.1843 502 51.759 1117.45 548.681
1703 0 50.3905 9.38668 473 52.0233 1117.1 549.07
1704 0 53.5801 10.3957 557 51.6768 1117.6 546.738
1705 0 55.2323 10.6821 590 51.4559 1117.12 546.785
1706 0 55.2323 10.6278 587 127.022 1116.11 546.802
1707 0 58.4849 11.2166 656 51.7165 1117.06 544.061
1708 0 59.4795 10.7432 639 52.6854 1117.91 542.745
1709 0 59.5338 10.6158 632 53.144 1118.56 540.733
1710 0 63.5443 10.9845 698 52.3854 1118.5 541.391
1711 0 63.5916 11.511 732 51.8019 1118.89 537.637
1712 0 68.5388 11.5263 790 51.438 1118.8 537.711
1713 0 70.8471 12.3929 878 50.3144 1118.83 534.686
1714 0 70.6792 11.7432 830 51.6181 1118.96 531.163
1715 0 75.0817 12.9059 969 50.0495 1118.96 532.873
1716 0 76.9138 11.6884 899 52.04 1118.6 531.38
1717 0 78.9885 13.2298 1045 50.3837 1119.1 530.789
1718 0 80.7693 12.2324 988 51.9929 1118.93 529.719
1719 0 81.6105 13.5032 1102 50.8131 1118.72 528.981
1720 0 84.7205 13.0193 1103 51.8051 1119.39 527.35
1721 0 86.8233 12.727 1105 52.4833 1119.41 524.215
1722 0 89.6435 12.3601 1108 52.833 1119.32 523.35
1723 0 92.7895 12.3613 1147 53.1299 1119.85 523.193
1724 0 95.5589 13.7507 1314 51.8927 1120.24 521.36
1725 0 98.7207 14.0599 1388 52.0367 1120.07 521.655
1726 0 101.786 13.6364 1388 52.1506 1120.01 519.374
1727 0 104.874 14.0931 1478 51.6664 1120.15 517.862
1728 1 57.8715 10.5924 613 53.4225 1120.33 541.028
1729 0 58.6926 10.8872 639 53.2723 1120.18 539.182
1730 0 62.6441 11.5254 722 52.0526 1120.63 539.45
1731 0 63.7551 11.4344 729 52.5706 1120.52 538.583
1732 0 65.7575 12.318 810 52.2556 1120.95 537.475
1733 0 69.7184 12.5361 874 52.4382 1121.47 536.688
1734 0 70.8637 12.9545 918 52.878 1122.03 534.33
1735 0 71.6446 13.5251 969 53.1042 1122.09 533.312
1736 0 73.8169 12.829 947 54.0929 1122.5 532.465
1737 0 73.7004 13.3378 983 54.6887 1122.79 531.818
1738 0 76.5349 13.5494 1037 54.3308 1122.8 529.508
1739 0 80.5551 13.4442 1083 54.289 1123.32 528.806
1740 0 82.6625 13.3797 1106 54.6013 1123.82 527.536
1741 0 84.5693 13.9649 1181 54.2752 1123.9 527.654
1742 0 84.5789 13.2894 1124 55.5658 1124.41 523.617
1743 0 85.5921 12.5479 1074 56.8613 1124.71 521.564
1744 0 94.4431 14.3579 1356 53.7426 1124.74 522.091
1745 1 48.3683 11.4951 556 56.2086 1124.92 543.736
1746 0 51.342 10.6735 548 56.3358 1125.18 542.168
1747 0 52.4003 9.82819 515 57.2641 1125.65 542.555
1748 0 54.2602 11.7582 638 56.4232 1125.46 539.119
1749 0 56.3089 11.7388 661 55.8759 1125.7 538.995
1750 0 56.1538 12.2521 688 55.1977 1124.94 540.904
1751 0 59.1664 13.3015 787 54.0216 1125.32 539.402
1752 0 61.3447 12.3075 755 55.4887 1125.5 539.481
1753 0 61.1514 12.9351 791 55.4791 1125.28 538.215
1754 0 62.3218 13.3661 833 55.3133 1125.48 539.557
1755 0 64.1777 12.964 832 55.4952 1125.56 538.697
1756 0 65.2501 13.4712 879 55.3345 1124.83 536.77
1757 0 68.1315 13.4886 919 55.321 1124.58 534.094
1758 0 70.1983 13.5901 954 55.0262 1124.59 534.398
1759 0 73.1959 13.5253 990 55.0859 1124.8 532.428
1760 0 73.22 13.0019 952 56.2426 1124.72 532.299
1761 0 76.1972 13.6225 1038 55.578 1124.81 530.933
1762 0 76.1972 13.5701 1034 167.937 1124.82 530.802
1763 0 82.2216 13.719 1128 56.2651 1124.08 528.023
1764 0 83.1758 13.5977 1131 56.4085 1124.3 527.132
1765 0 87.1361 13.5191 1178 56.3319 1124.44 524.709
1766 0 90.2484 13.9615 1260 55.8937 1124.74 523.578
1767 1 51.127 10.425 533 55.409 1125.38 545.743
1768 0 52.0632 10.7177 558 56.1237 1125.59 542.715
1769 0 52.1222 10.7632 561 55.9911 1125.56 544.098
1770 0 53.1393 11.5922 616 56.0666 1125.02 542.528
1771 0 55.0758 12.3466 680 55.5941 1124.8 539.669
1772 0 56.1526 12.1811 684 56.6389 1125.02 540.639
1773 0 59.3656 12.6841 753 56.3187 1123.77 541.181
1774 0 59.2478 13.3845 793 56.4224 1123.62 540.557
1775 0 62.3347 12.6414 788 57.7805 1123.61 539.292
1776 0 64.3879 12.6266 813 58.7774 1123.64 536.69
1777 0 65.2194 12.8489 838 58.3819 1123.36 537.334
1778 0 67.4231 14.0011 944 56.4364 1123.57 536.37
1779 0 69.2467 14.239 986 56.2931 1123.38 535.49
1780 0 69.2472 14.1233 978 57.8067 1123.18 534.218
1781 0 72.2236 13.6797 988 57.6923 1123.28 534.135
1782 0 74.4538 13.2163 984 58.5061 1123.38 534.164
1783 0 76.5512 13.1938 1010 59.0921 1122.74 531.864
1784 0 77.4595 13.2327 1025 58.881 1122.41 530.103
1785 0 81.6617 14.4254 1178 56.8311 1122.55 529.547
1786 0 82.6274 13.5911 1123 58.0116 1122.64 528.385
1787 0 84.5064 14.2356 1203 57.2668 1122.43 527.684
1788 0 87.5444 14.13 1237 57.3775 1121.92 527.547
1789 0 89.3753 14.2097 1270 57.2874 1121.64 525.443
1790 0 92.5856 14.2031 1315 57.3825 1121.53 523.566
1791 0 93.4403 13.1742 1231 58.6515 1122 523.464
1792 0 96.2997 13.9876 1347 57.5612 1121.31 522.758
1793 0 102.472 14.4235 1478 56.8917 1121.44 520.778
1794 0 105.639 14.6063 1543 56.4251 1120.89 517.289
1795 0 108.291 14.1378 1531 56.4931 1121.09 519.123
1796 1 59.5263 11.8939 708 57.0141 1120.91 543.141
1797 0 61.4424 11.7997 725 57.0345 1120.78 541.777
1798 0 62.4186 12.0317 751 56.5792 1120.67 540.655
1799 0 66.4609 13.0152 865 55.8254 1121 538.595
1800 0 67.3312 12.9806 874 56.1419 1120.74 537.549
1801 0 70.4153 12.6393 890 56.6258 1121.05 535.687
1802 0 73.4831 12.9145 949 56.1517 1120.94 535.712
1803 0 76.2547 13.691 1044 55.7337 1121.09 534.704
1804 0 79.4032 12.5562 997 57.1153 1120.72 533.352
1805 0 80.2159 14.0745 1129 56.0124 1120.68 530.825
1806 0 83.3987 13.4534 1122 56.754 1120.86 531.134
1807 0 85.2954 14.057 1199 56.1368 1120.39 528.583
1808 0 87.2605 13.6717 1193 56.8969 1120.41 527.687
1809 0 90.4639 13.685 1238 56.9733 1120.12 527.599
1810 0 93.2286 13.8155 1288 56.8649 1120.24 527.108
1811 0 97.2407 14.5104 1411 56.3593 1119.86 524.296
1812 0 100.263 14.2226 1426 56.364 1120.12 523.527
1813 0 102.248 14.5138 1484 56.2743 1120.23 522.936
1814 0 104.328 13.5439 1413 58.0856 1119.96 519.568
1815 0 109.247 14.7831 1615 56.3579 1120.01 517.49
1816 1 57.144 10.8148 618 58.3091 1120.29 543.574
1817 0 59.1664 11.7634 696 57.6997 1120.45 543.672
1818 0 61.2336 13.0321 798 56.8847 1120.33 541.165
1819 0 64.2958 12.6758 815 57.3153 1120.13 540.109
1820 0 65.2818 13.0205 850 57.4835 1119.76 539.713
1821 0 67.4061 13.5893 916 56.6037 1120.03 537.562
1822 0 70.3273 13.7927 970 56.5206 1119.58 535.43
1823 0 73.3856 13.4768 989 56.5278 1120.42 535.53
1824 0 74.4747 13.2797 989 57.5238 1120.04 534.344
1825 0 75.4631 13.0527 985 57.6934 1120.47 533.486
1826 0 75.4631 13.0527 985 160.199 1121.47 533.486
1827 0 81.3591 13.7661 1120 56.7768 1120.71 531.393
1828 0 85.3422 13.815 1179 56.2655 1120.99 529.067
1829 0 88.2704 13.9798 1234 55.6726 1121.2 527.771
1830 0 92.3846 14.6994 1358 54.2423 1121.18 528.088
1831 0 92.4811 13.9488 1290 55.8194 1121 522.619
1832 0 96.5877 13.9148 1344 55.6176 1121.03 521.366
1833 0 98.3867 13.0709 1286 56.6244 1120.78 523.386
1834 0 100.372 12.4537 1250 57.6144 1121.38 520.17
1835 0 104.392 13.9474 1456 56.1346 1121.69 519.435
1836 0 108.21 13.5015 1461 56.0883 1121.6 516.762
1837 1 62.3676 10.2617 640 56.75 1122.78 541.808
1838 0 65.4149 11.2818 738 55.355 1122.72 540.791
1839 0 68.2699 12.0112 820 54.8415 1123.09 537.952
1840 0 70.2614 12.8235 901 54.404 1123.27 536.587
1841 0 74.2387 12.9582 962 53.9439 1124.09 534.299
1842 0 73.2074 12.9358 947 55.2228 1123.61 532.301
1843 0 74.3056 12.2467 910 56.2879 1123.71 532.331
1844 0 78.2439 12.8445 1005 55.8507 1123.43 531.295
1845 0 79.438 12.7143 1010 56.3743 1123.87 528.526
1846 0 82.4748 13.107 1081 55.8964 1124.51 529.518
1847 0 86.4174 13.6199 1177 55.3798 1124.5 526.938
1848 0 88.5049 13.5812 1202 55.9451 1124.46 526.477
1849 0 91.5005 13.5846 1243 55.9912 1124.81 525.567
1850 0 94.4272 13.566 1281 56.2787 1124.74 521.279
1851 0 96.559 13.0076 1256 56.9769 1124.68 521.946
1852 0 102.471 13.6721 1401 55.2841 1124.76 518.847
1853 0 104.365 13.9223 1453 54.2485 1124.25 513.783
1854 0 106.46 13.8737 1477 54.9133 1124.49 512.77
1855 0 111.338 12.9785 1445 55.8215 1124.43 515.371
1856 0 114.303 13.4642 1539 55.3008 1124.03 512.838
1857 1 61.2388 9.92835 608 56.1891 1124.29 540.025
1858 0 64.2539 11.0343 709 55.6953 1124.41 538
1859 0 67.1082 11.8912 798 55.3634 1123.96 534.459
1860 0 67.1753 11.2095 753 56.9748 1123.94 533.367
1861 0 72.1984 13.5044 975 53.2646 1123.96 532.892
1862 0 73.2324 12.5081 916 54.6769 1123.97 533.364
1863 0 76.1216 13.5573 1032 53.0213 1123.69 531.734
1864 0 79.1412 12.3324 976 54.4734 1123.59 529.672
1865 0 82.2506 12.8023 1053 53.6638 1123.63 530.423
1866 0 83.1536 12.6152 1049 54.6244 1123.42 527.626
1867 0 86.1599 12.175 1049 55.2641 1122.8 527.781
1868 0 88.1091 13.1542 1159 54.4349 1123.01 524.867
1869 0 91.1774 13.0625 1191 54.6625 1122.75 522.641
1870 0 96.1187 13.5041 1298 52.9006 1122.12 520.81
1871 0 97.2716 12.4291 1209 54.2539 1122.51 519.495
1872 0 101.272 13.2317 1340 53.8015 1121.88 517.22
1873 0 103.168 13.7155 1415 54.0261 1121.9 517.3
1874 0 106.233 13.7058 1456 54.6868 1121.58 514.823
1875 0 109.394 14.2787 1562 53.9424 1121.47 513.823
1876 0 112.356 13.742 1544 54.8284 1121.15 512.071
1877 0 115.326 13.891 1602 54.3733 1121.41 510.765
1878 1 65.1796 10.2026 665 55.5774 1121.31 538.671
1879 0 66.1677 10.4734 693 55.9596 1121.12 538.147
1880 0 67.1901 11.5196 774 55.7041 1121.05 533.615
1881 0 70.193 10.9555 769 55.0507 1121.06 533.923
1882 0 73.2011 12.2403 896 54.1283 1120.71 532.334
1883 0 76.3182 12.8934 984 53.1331 1120.69 530.847
1884 0 77.3446 13.2912 1028 53.679 1120.77 531.685
1885 0 81.245 13.0223 1058 54.0066 1120.7 530.228
1886 0 81.2308 12.8276 1042 55.0595 1120.64 527.378
1887 0 83.3584 12.8961 1075 54.5953 1120.51 526.524
1888 0 90.3384 13.6598 1234 53.359 1120.14 525.947
1889 0 90.4012 13.429 1214 53.6936 1120.03 525.805
1890 0 91.3412 13.4222 1226 54.7357 1120.19 522.469
1891 0 97.4052 13.3566 1301 54.113 1120.12 519.879
1892 0 99.4675 13.3813 1331 54.1818 1120.06 518.267
1893 0 101.483 13.1647 1336 54.5786 1119.55 517.296
1894 0 106.388 13.432 1429 54.1819 1119.17 517.68
1895 1 59.4257 12.0991 719 54.5716 1118.77 539.74
1896 0 63.3706 11.6458 738 54.7818 1119.21 539.102
1897 0 63.1609 11.5578 730 54.9274 1119.92 538.585
1898 0 65.2041 12.2998 802 54.3703 1119.77 538.419
1899 0 69.0888 13.707 947 52.4329 1119.99 537.015
1900 0 71.1727 12.4626 887 53.5468 1119.57 537.648
1901 0 72.1942 13.5191 976 52.7971 1118.8 533.683
1902 0 75.1774 12.6235 949 53.8356 1119.25 533.009
1903 0 78.2774 12.9795 1016 52.9774 1119.14 533.452
1904 0 81.3967 11.9661 974 53.8717 1118.63 532.117
1905 0 84.2588 13.7552 1159 52.1475 1118.81 529.381
1906 0 86.369 12.6666 1094 52.9963 1118.14 529.215
1907 0 90.2642 13.0395 1177 52.0612 1118.92 528.537
1908 0 91.3163 13.4368 1227 52.0073 1118.28 526.055
1909 0 94.3384 12.2962 1160 53.1586 1118.17 523.841
1910 0 101.382 13.1878 1337 51.6799 1118.12 523.74
1911 1 58.425 11.1767 653 51.8606 1118.62 543.761
1912 0 59.2796 10.1553 602 52.0266 1118.2 545.924
1913 0 61.2205 11.7444 719 51.4534 1118.02 543.289
1914 0 63.1948 11.7573 743 51.4266 1118.16 543.061
1915 0 62.1907 12.0114 747 51.6319 1117.7 541.161
1916 0 67.2624 12.4438 837 50.3967 1117.79 541.921
1917 0 67.2783 12.4111 835 50.7629 1117.28 539.568
1918 0 72.4612 14.7803 1071 48.0822 1118.25 534.858
1919 0 79.2819 14.1647 1123 47.699 1119.34 531.928
1920 0 81.2252 16.1526 1312 45.5488 1119.51 529.488
1921 0 82.1659 15.4444 1269 47.2136 1119.24 529.302
1922 0 82.3429 15.3019 1260 48.4016 1118.71 529.866
1923 0 81.2756 13.7926 1121 51.2061 1118.82 530.81
1924 0 84.4502 14.8608 1255 50.0956 1117.96 528.324
1925 0 87.3325 13.2711 1159 52.4685 1117.66 528.647
1926 0 89.2712 13.5654 1211 52.5599 1117.28 528.121
1927 0 96.5666 16.0097 1546 48.749 1116.95 523.983
1928 0 97.4645 14.6925 1432 51.0838 1116.85 524.239
1929 0 97.4309 13.0041 1267 53.6393 1117.01 525.469
1930 0 101.462 13.2857 1348 53.6291 1117.06 521.823
1931 0 104.396 13.7649 1437 53.1705 1116.84 520.793
1932 1 59.3503 10.7497 638 54.1364 1116.24 544.633
1933 0 59.5203 11.055 658 54.0562 1116.83 543.622
1934 0 60.3749 11.9089 719 54.0654 1116.98 540.527
1935 0 63.4557 12.2448 777 53.4582 1117.07 541.905
1936 0 66.5134 12.5088 832 53.1923 1117.25 540.309
1937 0 66.33 12.6489 839 53.8868 1117.97 540.091
1938 0 68.1939 12.6404 862 54.551 1117.36 539.65
1939 0 69.4985 12.3024 855 55.4409 1117.73 539.276
1940 0 72.3998 13.5498 981 53.8542 1117.78 538.683
1941 0 72.3081 13.235 957 55.2508 1117.73 536.243
1942 0 76.2022 13.7004 1044 53.9626 1117.98 537.138
1943 0 78.374 13.7546 1078 54.616 1117.46 533.558
1944 0 78.2814 13.5153 1058 53.9064 1118.27 533.842
1945 0 82.4728 13.4226 1107 53.9097 1118.3 530.392
1946 0 83.3946 13.7179 1144 53.9143 1118.79 529.106
1947 0 85.214 13.3077 1134 54.5503 1118.18 527.56
1948 0 87.3 13.3906 1169 54.8443 1118.07 525.107
1949 0 90.3552 14.0556 1270 54.4488 1118.45 523.079
1950 0 93.3825 13.6642 1276 54.8934 1118.38 522.51
1951 0 98.2961 14.1613 1392 54.3815 1118.78 521.378
1952 0 99.6065 13.7842 1373 55.4093 1118.82 520.468
1953 1 56.3352 11.2186 632 56.1092 1118.56 542.399
1954 0 54.1433 11.0632 599 56.0501 1118.63 543.683
1955 0 57.3402 11.9288 684 55.3421 1118.86 541.985
1956 0 60.1011 11.9299 717 55.5635 1118.76 540.211
1957 0 62.2767 11.5934 722 55.9391 1119.52 539.999
1958 0 65.1069 13.1015 853 54.4162 1119.5 537.444
1959 0 68.3482 13.68 935 53.4342 1119.53 535.66
1960 0 71.3743 14.1507 1010 52.5891 1119.46 534.974
1961 0 72.2331 13.4564 972 53.8004 1119.52 535.201
1962 0 73.4583 13.4362 987 54.003 1119.82 533.991
1963 0 75.2489 13.8341 1041 53.5399 1120.01 532.707
1964 0 77.3708 13.9329 1078 53.8998 1119.75 529.795
1965 0 80.381 13.0752 1051 54.1903 1119.97 529.68
1966 0 82.2427 14.0924 1159 53.6773 1120.42 527.538
1967 0 84.3134 13.3905 1129 53.8884 1120.93 526.151
1968 0 86.3086 13.6835 1181 53.3421 1121.13 525.41
1969 0 90.2968 13.5442 1223 53.2502 1121.34 522.226
1970 0 93.264 13.3063 1241 53.7558 1121.34 520.249
1971 0 96.1148 13.5255 1300 53.3654 1121.98 517.978
1972 1 53.1737 9.40315 500 54.414 1122.25 541.466
1973 0 56.098 10.7669 604 53.601 1122.27 538.046
1974 0 58.0877 11.3793 661 52.8139 1122.55 536.743
1975 0 59.1462 12.4268 735 51.3837 1122.31 537.494
1976 0 63.0837 11.5244 727 52.3851 1122.63 535.594
1977 0 67.2921 12.3937 834 50.3441 1123.03 535.365
1978 0 66.135 13.0642 864 50.8472 1122.5 535.433
1979 0 69.062 12.887 890 50.8955 1122.69 533.39
1980 0 71.1376 12.7078 904 51.229 1123.44 530.876
1981 0 76.1397 13.3045 1013 50.4956 1122.8 531.798
1982 0 77.1127 13.6294 1051 50.295 1123.39 528.299
1983 0 80.0521 13.0415 1044 51.3295 1123.23 527.031
1984 0 82.0889 13.1321 1078 50.7301 1123.35 526.391
1985 0 85.1557 12.6122 1074 51.4395 1123.26 525.796
1986 0 88.2012 14.0588 1240 50.2371 1123.51 521.881
1987 0 90.0938 13.0753 1178 51.4677 1123.28 521.463
1988 0 94.3012 13.8174 1303 50.505 1123.43 519.718
1989 0 97.1568 13.8333 1344 51.1421 1123.85 516.735
1990 0 101.274 14.8014 1499 49.9026 1123.23 514.08
1991 0 103.22 13.5923 1403 51.082 1123.22 516.689
1992 0 106.279 13.7092 1457 51.2649 1123.64 512.412
1993 0 110.431 13.0489 1441 51.8432 1123.51 510.56
1994 0 114.165 13.3754 1527 51.7001 1123.29 509.646
1995 0 114.165 13.3754 1527 154.691 1123.29 509.646
1996 1 65.3205 10.3949 679 52.8189 1122.97 532.96
1997 0 68.1371 10.7577 733 52.4802 1122.59 532.153
1998 0 72.0812 12.2778 885 50.7582 1122.69 531.689
1999 0 76.1445 13.0541 994 50.3068 1122.63 530.096
2000 0 77.1209 13.0963 1010 50.4931 1122.58 529.67
2001 0 80.2497 13.9315 1118 49.7039 1122.66 528.727
2002 0 86.114 13.5518 1167 49.1637 1121.72 527.147
2003 0 86.114 13.575 1169 170.198 1120.71 527.174
2004 0 89.1511 13.909 1240 49.9774 1122.1 526.692
2005 0 92.2065 12.8516 1185 51.1021 1122.26 525.208
2006 0 96.1528 13.3953 1288 51.1064 1121.43 520.283
2007 0 97.6895 13.3996 1309 51.2498 1121.69 518.454
2008 0 101.217 13.9502 1412 50.8725 1121.3 516.651
2009 0 104.336 14.3957 1502 50.7104 1121.26 514.099
2010 0 108.269 13.7897 1493 51.6544 1121.11 515.116
2011 0 111.255 14.0308 1561 51.2364 1121.46 512.434
2012 0 115.199 14.8178 1707 50.2021 1120.94 510.206
2013 0 118.47 13.8516 1641 51.4656 1120.95 507.872
2014 0 120.374 13.5411 1630 52.2276 1120.8 505.36
2015 0 127.24 13.9972 1781 51.5368 1120.81 506.888
2016 1 67.1237 11.9332 801 52.1136 1120.61 534.979
2017 0 68.2165 12.6216 861 51.8246 1120.4 534.039
2018 0 72.1515 12.5292 904 51.6471 1120.25 532.16
2019 0 76.1875 13.0468 994 50.6439 1119.93 531.86
2020 0 77.1018 12.931 997 51.4313 1120.73 529.956
2021 0 80.1403 12.6653 1015 51.3655 1120.6 529.612
2022 0 82.2269 12.8304 1055 52.0152 1120.9 528.121
2023 0 84.1089 13.1615 1107 51.7922 1120.45 526.449
2024 0 87.125 12.8551 1120 52.3482 1120.71 525.188
2025 0 88.3325 12.8492 1135 52.7436 1120.4 523.63
2026 0 92.3774 13.2392 1223 51.9182 1120.02 524.25
2027 0 95.4192 12.6494 1207 52.4167 1120.01 522.691
2028 0 98.2448 12.9269 1270 52.4709 1119.59 520.77
2029 0 102.273 13.151 1345 51.9249 1119.53 518.637
2030 0 105.228 13.1524 1384 52.0007 1119.55 517.989
2031 0 109.23 13.0459 1425 52.5291 1119.43 516.978
2032 0 110.411 12.1999 1347 53.3623 1119.1 516.508
2033 1 61.0994 10.6384 650 51.3969 1119.42 540.891
2034 0 64.1601 10.692 686 52.2405 1119.21 540.985
2035 0 66.1863 11.4223 756 51.1548 1118.69 538.921
2036 0 68.2331 11.5926 791 51.804 1119.28 537.257
2037 0 69.1405 11.8888 822 51.073 1118.92 537.046
2038 0 73.0731 12.6312 923 50.2113 1118.79 534.306
2039 0 76.4251 12.2865 939 50.8009 1118.64 532.857
2040 0 76.2255 12.6073 961 50.7721 1118.68 533.527
2041 0 80.2535 12.2736 985 50.6985 1118.35 532.457
2042 0 82.3506 12.1189 998 51.1603 1118.06 530.716
2043 0 86.3159 12.825 1107 50.4011 1118.17 527.218
2044 0 89.3197 12.2593 1095 51.2648 1118.26 526.699
2045 0 92.4386 12.7652 1180 50.5169 1118.19 524.497
2046 0 96.3791 12.2952 1185 50.9738 1118.32 525.054
2047 0 96.2927 12.1089 1166 51.8997 1117.93 522.014
2048 0 101.451 13.228 1342 50.5686 1118.2 521.025
2049 0 105.439 12.5665 1325 51.2438 1118.33 520.101
2050 0 105.407 12.428 1310 51.8153 1118.45 517.034
2051 0 110.249 12.8618 1418 51.4965 1118.33 516.598
2052 0 112.317 12.6161 1417 52.1736 1117.96 512.793
2053 0 116.35 12.8578 1496 53.262 1118.58 514.729
2054 0 118.327 12.4317 1471 54.2237 1118.43 510.209
2055 0 121.524 13.0262 1583 53.7454 1118.36 509.143
2056 0 127.363 14.1328 1800 52.5867 1117.89 508.593
2057 0 130.488 13.0434 1702 53.5881 1117.66 509.941
2058 1 73.2332 9.76333 715 53.649 1118.01 541.171
2059 0 77.2773 11.1805 864 53.3322 1118.07 537.199
2060 0 79.2417 11.8624 940 53.2489 1117.43 534.889
2061 0 81.1931 12.4764 1013 53.0632 1117.99 532.99
2062 0 83.2466 12.6852 1056 53.589 1117.34 531.623
2063 0 85.1886 12.396 1056 53.9081 1117.38 530.521
2064 0 89.3916 12.82 1146 53.5602 1117.4 528.992
2065 0 91.3927 12.2876 1123 54.5405 1117.6 527.551
2066 0 92.2429 12.7381 1175 54.4383 1118 526.172
2067 0 97.2306 12.7326 1238 54.4208 1118.09 525.319
2068 0 100.291 13.1617 1320 54.3 1118.1 521.18
2069 0 102.291 12.8066 1310 54.9305 1118.44 521.561
2070 0 104.131 12.7628 1329 55.5756 1118.32 518.363
2071 0 108.323 13.1366 1423 55.7955 1118.64 519.754
2072 0 111.186 13.2571 1474 55.9512 1118.74 515.032
2073 0 115.235 13.633 1571 55.9217 1118.78 513.015
2074 0 118.196 13.2068 1561 56.4337 1118.58 510.21
2075 1 69.07 9.42522 651 57.8065 1119.07 536.318
2076 0 70.061 11.2331 787 56.3393 1118.82 535.304
2077 0 72.1196 11.2452 811 55.8089 1119.01 535.843
2078 0 76.2493 13.3378 1017 53.9125 1118.75 533.367
2079 0 77.144 12.8072 988 55.1265 1118.94 532.513
2080 0 79.1007 12.8697 1018 55.1051 1119 530.318
2081 0 80.2458 12.6486 1015 55.6552 1119.14 530.513
2082 0 85.311 13.4332 1146 54.4485 1119.13 528.201
2083 0 88.2175 13.6141 1201 54.582 1119.37 528.052
2084 0 89.4221 13.7103 1226 54.686 1119.69 528.074
2085 0 91.191 13.1702 1201 56.06 1120.02 524.004
2086 0 92.135 12.8507 1184 56.636 1120.03 524.051
2087 0 97.1814 13.3668 1299 55.5612 1120.21 521.891
2088 0 99.1271 13.4777 1336 55.5921 1120.4 521.193
2089 0 102.257 12.7424 1303 56.2909 1120.4 520.88
2090 0 103.326 14.0236 1449 55.8841 1120.73 518.121
2091 0 107.355 14.0841 1512 55.7705 1120.93 516.836
2092 0 110.241 14.4411 1592 55.4058 1120.8 514.376
2093 0 111.471 13.3219 1485 57.0822 1120.48 513.418
2094 1 61.152 10.5966 648 56.5648 1120.81 540.498
2095 0 62.2409 11.5198 717 56.6541 1121.54 537.473
2096 0 66.1102 12.8119 847 54.7946 1122.84 537.06
2097 0 66.1073 12.7974 846 55.3156 1123.06 537.355
2098 0 69.1794 13.1831 912 55.0044 1122.35 537.736
2099 0 70.2083 12.762 896 55.4911 1122.56 537.52
2100 0 72.1893 13.3261 962 55.3929 1122.52 534.954
2101 0 74.0832 12.7829 947 55.8131 1122.55 534.876
2102 0 76.2653 13.0859 998 56.3216 1122.87 532.096
2103 0 80.1249 13.2169 1059 55.9566 1123.02 531.775
2104 0 82.1587 13.1696 1082 56.3494 1123.2 528.542
2105 0 84.1024 13.5073 1136 56.2007 1123.64 529.139
2106 0 85.1529 12.8005 1090 57.6312 1123.49 527.293
2107 0 88.3461 13.3226 1177 57.0773 1123.53 525.871
2108 0 90.1385 13.4016 1208 57.293 1123.67 525.333
2109 0 94.1802 14.1006 1328 56.5233 1124.09 524.476
2110 0 96.3508 13.3471 1286 57.5863 1124.28 522.233
2111 0 99.1618 13.9973 1388 56.889 1124.12 520.715
2112 0 102.301 13.8513 1417 57.3359 1124.23 517.229
2113 0 104.325 13.1704 1374 58.3362 1123.92 516.352
2114 0 108.223 14.045 1520 57.0796 1123.74 515.865
2115 0 110.299 13.7898 1521 57.1887 1123.87 512.958
2116 0 114.267 13.1447 1502 57.1731 1123.73 512.707
2117 0 120.348 13.7434 1654 56.3476 1123.59 510.219
2118 1 68.2174 10.1734 694 56.5014 1123.91 536.249
2119 0 71.2765 11.1117 792 55.952 1123.28 534.032
2120 0 73.2136 11.405 835 55.9641 1123.55 533.988
2121 0 75.1568 13.4785 1013 53.6752 1122.96 532.429
2122 0 76.0966 12.9441 985 55.1025 1123.66 532.346
2123 0 78.2444 12.7038 994 55.66 1123.19 529.02
2124 0 81.1127 12.2176 991 55.7296 1123.37 528.08
2125 0 85.1483 12.8951 1098 55.1903 1122.41 527.15
2126 0 87.1887 12.8228 1118 55.1565 1122.21 525.782
2127 0 91.1795 13.435 1225 54.4678 1121.6 523.553
2128 0 94.258 13.166 1241 54.7728 1121.88 524.044
2129 0 97.2127 13.3625 1299 54.746 1121.34 520.501
2130 0 99.0756 13.6764 1355 54.2915 1121.27 520.171
2131 0 102.256 13.2119 1351 54.7417 1121.32 520.654
2132 0 104.297 12.426 1296 56.0316 1121.07 520.048
2133 0 107.319 13.8186 1483 55.12 1120.4 517.922
2134 0 110.23 12.9547 1428 55.993 1120.1 514.327
2135 0 112.281 13.3504 1499 56.3462 1120.62 512.656
2136 0 118.367 13.6777 1619 55.3187 1120.64 512.522
2137 0 120.263 13.8031 1660 55.8572 1120.5 510.296
2138 0 124.34 13.8089 1717 56.2743 1120.22 509.346
2139 1 72.1987 10.4018 751 56.4621 1120.55 538.37
2140 0 75.166 11.8272 889 55.8369 1120.97 535.656
2141 0 76.2012 11.9814 913 56.0679 1120.75 535.847
2142 0 78.1991 12.5065 978 56.2526 1120.45 533.192
2143 0 80.1841 12.596 1010 56.103 1120.48 533.087
2144 0 83.2441 12.8417 1069 56.131 1120.59 532.078
2145 0 85.2027 12.6991 1082 56.5786 1120.06 531.014
2146 0 87.1677 12.6767 1105 57.1285 1120.34 529.43
2147 0 92.2748 13.3189 1229 56.4784 1120.08 528.631
2148 0 94.2549 12.9967 1225 57.0286 1120.32 528.09
2149 0 94.3353 12.4026 1170 58.2308 1120.25 526.292
2150 0 100.399 13.3168 1337 57.1952 1120.06 525.2
2151 0 103.403 13.3748 1383 57.2661 1119.85 522.816
2152 0 106.221 14.2721 1516 56.2533 1120.21 519.86
2153 0 109.302 13.0739 1429 57.3989 1119.74 518.72
2154 0 110.416 13.6575 1508 57.3249 1119.61 516.331
2155 0 113.344 13.1281 1488 57.83 1119.41 514.697
2156 1 62.1094 10.4976 652 55.6304 1118.94 544.314
2157 0 63.1104 9.80821 619 56.3086 1119.12 543.85
2158 0 65.0901 11.1999 729 56.1454 1118.77 540.554
2159 0 69.1682 12.26 848 54.5884 1118.81 540.397
2160 0 71.0791 12.6619 900 53.4456 1119.72 538.139
2161 0 74.1368 12.5849 933 54.0997 1119.55 537.718
2162 0 75.1333 12.5776 945 54.4307 1120.02 535.301
2163 0 77.1195 12.0203 927 55.4574 1119.26 536.413
2164 0 79.1271 12.461 986 55.6623 1118.89 534.813
2165 0 80.1916 13.131 1053 55.5043 1118.36 534.735
2166 0 84.2165 12.7172 1071 55.9776 1118.53 532.07
2167 0 85.1213 12.9697 1104 56.817 1118.41 530.693
2168 0 89.2524 13.2657 1184 56.2247 1118.51 530.136
2169 0 92.197 13.3518 1231 56.1552 1118.95 529.026
2170 0 92.197 13.3518 1231 155.621 1118.95 529.026
2171 0 95.0704 13.1271 1248 57.008 1118.76 526.839
2172 0 97.2616 12.8519 1250 58.0216 1118.99 525.014
2173 0 101.179 13.649 1381 57.0999 1118.64 524.611
2174 0 103.261 14.1099 1457 57.6335 1118.76 520.481
2175 0 107.181 13.911 1491 57.7022 1118.12 519.685
2176 0 109.197 14.57 1591 57.2414 1118.28 516.719
2177 0 112.378 13.6681 1536 59.0026 1118.25 516.413
2178 0 118.26 14.2568 1686 57.9039 1118.46 514.718
2179 0 122.2 14.6563 1791 57.34 1118.28 513.926
2180 0 126.162 14.1088 1780 58.5848 1118.76 510.808
2181 1 59.0877 11.3052 668 57.1063 1119 545.171
2182 0 58.101 10.8776 632 58.0934 1118.61 543.873
2183 0 63.2406 12.3655 782 56.6547 1118.39 541.693
2184 0 63.297 12.6862 803 56.2827 1118.38 540.341
2185 0 66.3543 13.1566 873 56.0355 1118.55 538.553
2186 0 69.3208 12.4349 862 56.6845 1118.88 537.771
2187 0 72.3808 13.8434 1002 55.1178 1118.84 536.42
2188 0 74.284 12.5195 930 56.2989 1119.62 537.534
2189 0 76.3731 12.5699 960 56.65 1119.58 535.104
2190 0 77.2882 12.8868 996 56.9829 1119.17 533.988
2191 0 81.6724 12.9909 1061 56.2281 1119.31 531.516
2192 0 84.5927 13.0862 1107 57.093 1119.7 528.801
2193 0 87.6018 13.4815 1181 56.5978 1119.92 527.445
2194 0 87.4466 13.6197 1191 57.0126 1119.87 526.727
2195 0 89.4427 13.1481 1176 57.5026 1120.07 524.955
2196 0 92.5671 13.3201 1233 58.2109 1120.41 524.281
2197 0 96.7192 12.9343 1251 57.8729 1120.4 523.816
2198 0 100.706 13.8523 1395 56.7341 1120.56 520.26
2199 0 101.661 13.1024 1332 57.4377 1120.88 520.81
2200 0 105.674 13.3524 1411 57.596 1121.15 517.851
2201 0 107.385 14.49 1556 56.678 1121.5 516.206
2202 0 110.453 13.6348 1506 58.5179 1121.33 516.101
2203 0 113.645 13.9997 1591 58.692 1121.65 512.137
2204 0 118.894 13.9115 1654 58.6155 1121.84 510.814
2205 0 123.667 14.1994 1756 58.8212 1122.16 508.297
2206 0 127.518 13.9118 1774 59.3867 1122.3 507.086
2207 1 58.2903 11.254 656 59.2409 1122.58 539.55
2208 0 60.6331 11.8087 716 58.5237 1122.77 539.859
2209 0 62.8398 11.8874 747 59.4726 1122.97 536.249
2210 0 65.7259 13.6932 900 57.1989 1122.78 535.036
2211 0 67.7568 12.0283 815 58.8724 1122.55 534.092
2212 0 69.7486 12.5307 874 58.3455 1122.68 534.201
2213 0 71.6805 12.2209 876 60.0057 1123.17 530.745
2214 0 71.5327 12.4698 892 60.1917 1123.31 532.406
2215 0 76.797 12.6958 975 59.7467 1123.37 530.262
2216 0 76.6403 13.7917 1057 59.1353 1123.62 529.133
2217 0 80.5741 13.7141 1105 59.1176 1123.96 528.795
2218 0 82.5147 12.8947 1064 60.5479 1124.35 527.945
2219 0 85.6355 13.5925 1164 59.4304 1124.57 526.582
2220 0 86.4321 13.1201 1134 61.3095 1124.51 523.577
2221 0 87.5014 13.3941 1172 61.7329 1124.48 522.404
2222 0 93.57 14.4277 1350 59.5763 1124.63 520.007
2223 0 96.5297 14.1096 1362 60.0551 1125.02 520.378
2224 0 97.5999 14.1394 1380 60.8616 1124.54 517.891
2225 0 100.666 14.2153 1431 61.0335 1124.47 518.491
2226 0 104.609 14.7406 1542 60.4533 1124.12 517.909
2227 0 106.376 14.3735 1529 61.6763 1124.32 516.069
2228 0 108.54 14.4095 1564 63.6317 1124.07 514.166
2229 0 111.399 14.4974 1615 63.8638 1123.9 511.819
2230 0 114.319 14.1358 1616 64.5229 1124.06 511.439
2231 0 118.499 14.1352 1675 64.434 1123.96 509.971
2232 0 121.527 14.145 1719 64.3101 1124.41 507.807
2233 0 125.463 14.2273 1785 64.5468 1124.07 506.369
2234 0 128.525 14.3396 1843 64.3266 1123.92 503.195
2235 0 134.45 15.0019 2017 62.8171 1123.4 499.905
2236 0 139.47 15.0499 2099 62.1748 1123.46 499.524
2237 1 72.3691 10.7228 776 65.692 1123.46 533.37
2238 0 76.4258 11.4883 878 64.4715 1123.24 532.494
2239 0 80.5442 12.5025 1007 63.3386 1123.17 531.311
2240 0 81.3484 13.1533 1070 63.4178 1122.73 527.95
2241 0 83.5326 12.7974 1069 63.2376 1122.44 526.296
2242 0 87.3771 14.0197 1225 61.1804 1122.19 525.767
2243 0 90.529 14.2054 1286 60.86 1123.54 523.084
2244 0 92.5782 13.6857 1267 61.5051 1123.18 520.825
2245 0 94.4648 13.9523 1318 61.2557 1122.7 521.712
2246 0 99.2674 14.2746 1417 60.0635 1122.89 520.393
2247 0 101.51 14.245 1446 60.417 1122.69 518.582
2248 0 103.399 14.1684 1465 61.1754 1122.5 516.42
2249 0 106.508 14.4872 1543 59.9598 1122.58 515.965
2250 0 110.499 14.3349 1584 60.2437 1122.21 513.775
2251 0 111.629 14.0555 1569 60.6482 1122.4 511.433
2252 0 115.748 14.3069 1656 59.9469 1122.36 510.311
2253 0 118.418 14.8711 1761 59.3856 1122.13 509.091
2254 0 121.753 14.9812 1824 59.4819 1122.82 507.929
2255 0 126.605 13.9094 1761 60.4855 1122.44 507.217
2256 0 128.488 13.4876 1733 61.0156 1122.59 506.173
2257 0 132.763 14.0099 1860 60.2672 1122.07 502.746
2258 0 135.476 14.187 1922 59.9605 1122.37 500.252
2259 0 142.614 15.1318 2158 58.354 1122.26 498.996
2260 0 145.718 14.7614 2151 59.1265 1121.95 496.886
2261 0 149.553 14.5367 2174 59.8638 1122.11 493.779
2262 0 154.382 14.0301 2166 60.2756 1121.92 492.875
2263 0 159.869 14.1679 2265 60.0609 1122.19 489.281
2264 0 165.707 14.3868 2384 59.9799 1122.28 486.475
2265 0 170.714 14.4745 2471 60.0324 1122.44 484.179
2266 0 176.813 14.9367 2641 59.3499 1121.92 481.719
2267 0 181.87 15.3186 2786 58.9171 1121.98 477.037
2268 0 185.769 15.4547 2871 59.0003 1122.07 473.774
2269 0 192.716 15.8471 3054 58.2688 1122.38 470.186
2270 0 192.515 14.43 2778 61.0835 1122.32 471.853
2271 0 199.841 15.8376 3165 58.7457 1122.47 467.524
2272 0 206.831 16.5545 3424 57.821 1122.38 463.381
2273 0 212.788 15.9596 3396 58.4014 1122.44 460.325
2274 0 219.657 15.638 3435 58.9604 1122.72 453.896
2275 0 227.629 15.4418 3515 59.1477 1122.17 452.974
2276 0 236.975 16.1874 3836 57.988 1121.84 448.456
2277 0 245.604 16.8483 4138 57.0855 1121.81 442.097
2278 0 252.739 15.3834 3888 58.9293 1121.67 440.756
2279 0 263.77 16.3134 4303 57.6688 1121.33 433.445
2280 1 64.2015 11.2614 723 56.6293 1122.01 536.549
2281 0 65.1148 11.7178 763 56.6461 1121.56 533.94
2282 0 68.1887 11.6882 797 57.0602 1121.4 537.103
2283 0 71.4125 12.9529 925 55.4627 1121.92 534.724
2284 0 72.5508 11.7297 851 56.8707 1121.99 532.577
2285 0 75.4208 12.5562 947 56.4435 1121.92 532.25
2286 0 79.4918 13.3599 1062 55.3202 1122.02 529.462
2287 0 80.6223 12.2671 989 56.8908 1121.98 529.24
2288 0 83.6536 12.6952 1062 56.2354 1121.31 527.72
2289 0 86.57 12.4061 1074 56.2551 1121.37 527.708
2290 0 88.8908 12.5435 1115 56.6852 1121.01 525.972
2291 0 90.694 12.8454 1165 56.4567 1120.87 523.664
2292 0 95.4798 15.8044 1509 51.5739 1121.12 521.164
2293 0 94.4644 15.085 1425 167.858 1120.15 520.568
2294 1 57.5505 11.5377 664 56.0407 1120.95 543.764
2295 0 58.4419 12.6279 738 55.3753 1120.82 541.15
2296 0 61.7572 12.452 769 54.5462 1120.51 540.843
2297 0 61.6671 12.1459 749 56.0067 1120.75 540.167
2298 0 64.3434 12.8374 826 54.5823 1120.39 539.196
2299 0 66.574 13.5789 904 53.7478 1120.51 538.924
2300 0 68.7198 13.9698 960 53.5281 1120.48 537.305
2301 0 70.4912 13.1648 928 54.444 1120.22 538.148
2302 0 72.568 13.1463 954 54.9591 1119.92 536.907
2303 0 73.5339 13.8032 1015 54.6177 1119.93 534.056
2304 0 77.3383 13.2147 1022 55.0998 1119.82 533.136
2305 0 78.592 13.9963 1100 54.8182 1119.84 532.665
2306 0 79.6172 13.6277 1085 55.623 1120.16 531.182
2307 0 83.3832 14.2715 1190 54.8588 1119.34 528.421
2308 0 85.4833 14.3771 1229 55.2221 1119.59 528.839
2309 0 85.4236 13.872 1185 56.6886 1119.72 528.676
2310 0 88.6074 14.4119 1277 56.2341 1120.12 527.291
2311 0 93.5596 14.6644 1372 55.3987 1120.23 525.997
2312 0 96.4597 14.8663 1434 55.4435 1120.04 524.47
2313 1 47.2735 11.4652 542 59.417 1120.37 547.797
2314 0 51.266 11.9962 615 59.1285 1121.03 545.254
2315 0 52.4629 12.7709 670 58.9478 1120.27 544.345
2316 0 54.3096 13.5703 737 58.8874 1120.82 543.514
2317 0 55.2981 14.0692 778 58.6388 1120.68 541.805
2318 0 57.2648 14.1972 813 59.4391 1120.77 540.07
2319 0 58.4381 13.6041 795 60.3774 1121.09 540.087
2320 0 60.4357 13.9984 846 60.4669 1120.98 538.235
2321 0 62.371 14.3657 896 59.9196 1121.19 537.121
2322 0 63.4513 14.4047 914 60.3239 1121.2 537.49
2323 0 65.326 14.8486 970 60.0835 1121.31 535.068
2324 0 67.4016 14.8661 1002 60.1238 1121.82 534.427
2325 0 68.2976 14.1879 969 61.2487 1122.01 534.288
2326 0 71.2914 14.588 1040 60.6538 1121.98 532.809
2327 0 73.256 14.7155 1078 60.9323 1122.21 531.729
2328 0 75.2559 14.9357 1124 61.0222 1122.69 530.9
2329 0 77.283 14.971 1157 61.331 1122.6 527.896
2330 0 80.3676 15.1056 1214 61.0527 1123.03 527.522
2331 0 83.1755 15.6056 1298 60.4022 1123.18 525.038
2332 0 84.2689 14.7623 1244 62.2082 1123.63 524.388
2333 0 89.228 15.2194 1358 61.0582 1123.59 524.567
2334 0 91.1821 14.7507 1345 62.2186 1123.65 523.75
2335 0 95.1516 14.6608 1395 62.0416 1123.48 521.705
2336 1 46.0277 12.8401 591 62.9882 1123.28 544.095
2337 0 48.0572 13.4839 648 63.3426 1123.55 542.315
2338 0 50.0528 13.9453 698 62.6819 1124.16 541.66
2339 0 51.1032 13.2673 678 63.2876 1123.64 541.165
2340 0 53.1418 13.1347 698 63.2951 1124.16 540.375
2341 0 56.0581 13.7893 773 61.9431 1123.99 537.692
2342 0 57.1153 14.1643 809 61.4784 1124.28 536.857
2343 0 60.0834 13.6477 820 61.6561 1123.73 536.083
2344 0 62.0303 13.832 858 60.9266 1124.33 535.318
2345 0 65.0945 12.9965 846 61.2683 1124.12 533.037
2346 0 68.1486 14.8352 1011 58.7557 1124.55 532.268
2347 0 70.1809 14.6621 1029 58.688 1124.88 530.399
2348 0 73.1079 13.4732 985 59.6853 1124.9 529.453
2349 0 77.2218 14.0763 1087 58.0202 1124.87 528.391
2350 0 77.0424 14.1091 1087 58.781 1124.95 526.821
2351 0 79.1413 13.7476 1088 58.7307 1125.03 525.919
2352 0 81.1848 14.2391 1156 58.1471 1125.02 524.013
2353 0 86.0689 14.2444 1226 57.6411 1125.05 523.349
2354 0 89.2505 13.7926 1231 58.5012 1125.34 521.6
2355 1 46.0837 11.1536 514 58.7218 1125.17 541.245
2356 0 47.0119 11.8268 556 57.5504 1125.39 540.007
2357 0 49.1519 11.0474 543 58.3223 1125.06 541.009
2358 0 51.0722 11.5327 589 58.1749 1124.52 540.087
2359 0 51.0954 12.1537 621 57.7681 1124.16 538.733
2360 0 53.0881 12.6394 671 57.3055 1124.45 538.747
2361 0 58.0705 13.6903 795 55.6403 1124.31 537.991
2362 0 59.0737 11.9004 703 57.8151 1124.35 537.587
2363 0 58.0654 12.3481 717 57.47 1123.8 535.936
2364 0 62.0956 13.286 825 56.4545 1123.63 535.987
2365 0 64.1675 12.5609 806 56.8573 1123.94 535.604
2366 0 65.0502 12.5749 818 57.6088 1123.92 533.705
2367 0 67.0885 13.4449 902 57.0687 1124.01 531.741
2368 0 68.0648 11.6947 796 59.098 1123.85 532.558
2369 0 73.0885 12.478 912 57.977 1124.15 532.737
2370 0 76.0947 14.2585 1085 56.3991 1124.32 527.887
2371 0 77.0659 13.0278 1004 57.9153 1123.4 528.197
2372 0 82.1985 12.5671 1033 58.2381 1123.19 528.106
2373 0 84.1603 12.7019 1069 58.3396 1123.1 525.713
2374 0 88.1267 13.526 1192 56.9203 1123.43 524.897
2375 0 93.0921 13.5135 1258 57.0954 1123.4 521.483
2376 1 44.1144 10.9035 481 57.0686 1123.93 544.206
2377 0 46.018 10.2134 470 56.3702 1123.94 546.862
2378 0 48.0672 11.5255 554 55.287 1123.85 544.401
2379 0 50.1095 12.2731 615 54.8244 1122.45 543.293
2380 0 51.1354 11.3424 580 56.2034 1122.48 543.734
2381 0 51.0734 12.6093 644 53.4006 1122.27 540.516
2382 0 54.1917 12.5849 682 53.2654 1122.52 542.628
2383 0 56.1347 12.9688 728 53.0014 1122.45 541.857
2384 0 59.102 12.7238 752 53.1463 1122.64 541.903
2385 0 59.1911 12.2147 723 54.2656 1122.61 538.862
2386 0 63.2419 13.0926 828 52.7923 1122.73 539.336
2387 0 64.1344 13.4249 861 53.6365 1122.22 539.105
2388 0 66.2162 13.32 882 53.5317 1122.65 539.101
2389 0 67.175 12.2814 825 55.537 1122.7 538.467
2390 0 71.223 12.6644 902 54.806 1122.99 537.32
2391 0 72.1496 12.9315 933 55.0289 1122.74 536.213
2392 0 74.4292 12.6698 943 55.2757 1122.52 535.863
2393 0 76.2727 13.2288 1009 55.5679 1122.49 533.453
2394 0 79.2469 13.2497 1050 55.6686 1122.65 532.63
2395 1 44.1338 9.4712 418 57.2177 1122.39 549.548
2396 0 44.248 10.5089 465 56.2344 1122.49 552.047
2397 0 48.2159 12.2989 593 54.715 1121.94 549.373
2398 0 49.1796 12.2002 600 55.6317 1121.98 547.862
2399 0 49.1988 11.7279 577 56.1785 1122.21 548.199
2400 0 51.0638 12.1417 620 56.0032 1121.77 546.094
2401 0 51.1652 12.2349 626 56.6118 1122.21 545.195
2402 0 55.1263 12.3897 683 56.3221 1122.06 544.483
2403 0 55.2101 12.6064 696 56.5589 1121.91 545.016
2404 0 58.1326 12.9531 753 56.2802 1122.23 543.797
2405 0 58.1508 13.0179 757 56.6909 1121.58 543.299
2406 0 59.1389 13.2231 782 57.1982 1121.4 541.069
2407 0 63.2088 13.3209 842 57.2328 1121.06 540.893
2408 0 65.1078 14.0383 914 56.4737 1121.32 540.499
2409 0 66.2027 13.1415 870 58.177 1121.61 540.06
2410 0 68.3416 14.1056 964 57.1058 1121.04 538.814
2411 0 70.1542 13.0855 918 59.0566 1120.68 538.186
2412 0 73.2356 13.0811 958 58.9718 1120.66 537.151
2413 0 76.2614 14.3716 1096 57.7473 1120.76 536.073
2414 0 78.3447 14.232 1115 58.4915 1120.74 532.81
2415 0 80.2226 13.9986 1123 59.0329 1120.37 532.903
2416 0 83.309 14.2602 1188 58.5892 1120.34 531.473
2417 0 85.4099 13.5464 1157 59.764 1120.01 530.371
2418 0 87.4595 14.1437 1237 58.4899 1120.44 528.745
2419 0 91.4859 13.8273 1265 59.151 1120.48 526.692
2420 1 50.1485 11.8049 592 59.4037 1120.61 548.834
2421 0 50.1664 10.4054 522 61.1897 1120.96 548.527
2422 0 52.4562 11.0378 579 61.0259 1120.58 547.14
2423 0 54.2678 11.8855 645 59.8884 1120.58 546.084
2424 0 56.372 12.1692 686 59.484 1120.71 544.22
2425 0 59.3311 12.86 763 58.6448 1120.2 543.889
2426 0 60.3163 13.2468 799 59.0313 1120.61 542.398
2427 0 61.3968 13.4535 826 58.8027 1120.39 543.139
2428 0 64.2042 13.4103 861 58.6144 1120.42 542.008
2429 0 65.3665 13.6308 891 58.6004 1120.81 540.338
2430 0 68.2269 13.4404 917 58.3501 1120.39 540.171
2431 0 72.289 13.6397 986 57.6694 1120.61 540.352
2432 0 72.4501 13.844 1003 57.9641 1120.4 538.515
2433 0 77.3556 13.5478 1048 57.5458 1120.77 537.038
2434 0 77.5004 13.3677 1036 58.4469 1120.64 535.252
2435 0 79.3454 14.0147 1112 58.3408 1120.99 532.642
2436 0 82.1849 13.7008 1126 58.7487 1120.78 533.458
2437 0 83.1945 14.2317 1184 58.5355 1121.12 532.336
2438 0 88.2108 14.2726 1259 58.3725 1120.88 529.843
2439 0 90.216 15.1747 1369 57.3667 1120.56 527.631
2440 0 94.1718 14.1656 1334 58.7264 1120.4 527.757
2441 0 96.2807 14.5616 1402 58.3816 1120.26 524.621
2442 1 51.2288 11.6536 597 60.4405 1121.52 548.506
2443 0 55.1509 11.8402 653 60.34 1121 548.144
2444 0 54.3172 12.4822 678 61.4617 1120.81 545.094
2445 0 55.1002 13.0126 717 60.3975 1121.18 545.469
2446 0 58.0455 12.9898 754 60.3674 1120.85 543.603
2447 0 59.0819 12.525 740 60.777 1120.62 543.623
2448 0 61.0992 12.5697 768 61.2044 1120.75 540.973
2449 0 64.1588 13.3263 855 60.3158 1120.84 540.543
2450 0 64.1234 13.2089 847 60.6151 1121.01 540.196
2451 0 68.1439 13.7503 937 59.9402 1121.18 537.51
2452 0 68.0769 12.9706 883 61.0147 1121.84 537.966
2453 0 72.2192 14.0544 1015 59.5399 1121.65 536.159
2454 0 74.1011 14.0619 1042 58.144 1121.04 533.996
2455 0 76.1091 14.0719 1071 58.0654 1121.02 532.565
2456 0 79.2901 14.0497 1114 58.1849 1121.17 532.359
2457 0 84.1159 13.8499 1165 58.103 1121.48 529.996
2458 0 84.1167 13.3624 1124 59.2642 1121.86 528.061
2459 1 46.0565 11.3122 521 58.3148 1122.96 548.365
2460 0 47.0845 10.8528 511 57.2622 1123.03 549.961
2461 0 50.1682 11.2422 564 57.1826 1123.1 548.716
2462 0 51.0721 11.9047 608 57.3734 1123.05 546.224
2463 0 50.139 11.2487 564 58.4504 1123.32 546.906
2464 0 54.0435 12.897 697 56.8379 1123.24 544.958
2465 0 56.224 13.1972 742 56.341 1122.88 543.497
2466 0 59.0717 13.9153 822 55.1253 1123.56 542.918
2467 0 61.1431 13.2149 808 55.7636 1123.77 542.238
2468 0 62.0872 12.9495 804 56.5858 1123.85 540.445
2469 0 64.0716 13.3601 856 55.9229 1123.8 539.254
2470 0 66.2163 13.1841 873 56.9255 1124.11 536.402
2471 0 67.0611 13.2715 890 56.991 1124.16 536.551
2472 0 69.1799 12.6048 872 57.8555 1124.43 537.196
2473 0 74.1891 14.2878 1060 56.1934 1124.83 534.525
2474 0 73.1881 13.1442 962 58.6164 1124.96 534.31
2475 0 75.291 12.8833 970 59.2835 1124.9 532.713
2476 0 79.181 14.2837 1131 57.5093 1125.14 530.982
2477 0 80.1809 13.7564 1103 59.0707 1125.33 528.943
2478 0 83.3293 13.8127 1151 58.775 1125.27 528.558
2479 0 85.3051 13.1997 1126 60.0897 1125.08 526.234
2480 0 90.2663 14.5459 1313 58.182 1124.76 524.313
2481 1 49.2687 9.86428 486 60.4609 1124.98 546.858
2482 0 50.1804 11.638 584 58.8818 1124.72 545.498
2483 0 51.3824 11.5215 592 60.2551 1124.69 543.488
2484 0 51.2456 11.2595 577 61.4471 1124.75 542.177
2485 0 54.4015 12.518 681 59.9648 1124.64 541.148
2486 0 56.189 12.1554 683 59.918 1124.66 540.836
2487 0 58.4413 11.5158 673 60.4354 1124.85 540.29
2488 0 59.3531 13.1585 781 59.0999 1124.77 539.266
2489 0 62.4687 11.7979 737 60.7653 1124.45 538.917
2490 0 62.4674 12.3905 774 59.4819 1124.24 538.145
2491 0 65.452 13.3227 872 58.5413 1124.25 535.89
2492 0 66.3498 13.6398 905 58.5923 1124.36 534.807
2493 0 70.4638 12.8435 905 59.2685 1124.41 536.418
2494 0 71.2126 14.3093 1019 57.3935 1124.33 533.6
2495 0 73.4049 13.7457 1009 58.1843 1124.09 530.772
2496 0 74.2677 13.3167 989 59.5561 1123.75 529.196
2497 0 75.3631 13.017 981 59.685 1123.53 528.958
2498 0 78.4458 12.9644 1017 59.704 1123.96 527.918
2499 0 80.5651 14.1873 1143 58.2852 1123.63 525.453
2500 0 86.4065 13.3786 1156 58.7742 1123.32 524.854
2501 0 86.5428 13.2073 1143 59.7393 1123.44 522.99
2502 0 91.3638 13.8457 1265 59.351 1123.25 521.263
2503 0 93.4576 13.2574 1239 60.226 1123.33 520.723
2504 1 50.1667 10.4651 525 61.7048 1123.06 542.863
2505 0 51.1985 11.3675 582 60.3093 1122.81 542.73
2506 0 51.2317 10.7941 553 61.3689 1123.1 542.711
2507 0 54.1121 11.0696 599 60.8748 1122.55 542.227
2508 0 55.2453 11.5485 638 61.1003 1122.61 540.766
2509 0 59.0728 13.221 781 59.4827 1123.15 539.419
2510 0 59.0742 12.6451 747 61.5448 1123.1 539.321
2511 0 61.1244 12.9735 793 61.2396 1122.73 540.179
2512 0 64.1529 14.3096 918 59.8671 1122.32 538.461
2513 0 65.1527 13.6909 892 60.9249 1122.65 537.324
2514 0 68.1213 13.8576 944 60.0244 1122.83 537.148
2515 0 68.1204 13.7404 936 60.9947 1122.63 535.622
2516 0 71.1709 13.5449 964 61.0145 1122.27 535.123
2517 0 71.1709 13.6432 971 162.71 1122.25 535.124
2518 0 77.1422 13.8964 1072 60.3741 1122.17 531.036
2519 0 77.1024 13.709 1057 61.1618 1122.13 529.878
2520 0 80.1253 13.1544 1054 61.2182 1122.01 529.931
2521 0 86.4217 14.302 1236 59.0995 1122.25 527.384
2522 0 88.3597 13.8977 1228 59.7533 1122.45 527.747
2523 1 45.0932 12.5518 566 60.9876 1122.76 545.867
2524 0 48.1245 12.0729 581 61.79 1122.98 545.213
2525 0 50.0559 11.9666 599 61.3456 1123.01 544.174
2526 0 52.06 13.0811 681 60.3157 1122.93 543.471
2527 0 52.0534 13.1211 683 61.5695 1121.79 543.545
2528 0 52.0772 14.2289 741 60.2915 1122.08 543.659
2529 0 56.0737 14.1064 791 60.1252 1122.25 542.666
2530 0 56.1633 14.0127 787 60.2961 1121.94 541.52
2531 0 61.1785 13.2563 811 60.4118 1121.76 540.586
2532 0 63.0991 13.772 869 59.5224 1121.66 539.397
2533 0 63.2123 13.6049 860 60.1395 1121.75 539.741
2534 0 66.2941 14.9184 989 58.2649 1121.77 537.765
2535 0 68.1858 13.8885 947 59.5681 1121.86 536.437
2536 0 69.1836 13.5148 935 60.6225 1121.79 535.062
2537 0 72.2028 13.9884 1010 60.1297 1122 533.575
2538 0 74.0697 14.2703 1057 60.9499 1121.85 532.286
2539 0 75.1531 13.5723 1020 62.699 1121.6 532.701
2540 0 78.0936 13.6119 1063 62.1881 1121.55 531.758
2541 0 82.0816 14.8267 1217 60.433 1121.45 530.097
2542 0 83.2093 13.5201 1125 62.4453 1121.65 529.885
2543 0 87.2773 14.2878 1247 61.2494 1121.19 528.486
2544 0 88.1463 13.9881 1233 62.734 1120.95 526.305
2545 0 92.2715 14.3381 1323 61.8715 1120.89 526.135
2546 0 94.1261 13.4819 1269 63.4957 1120.97 524.657
2547 1 47.0825 11.4055 537 173.819 1119.71 547.615
2548 0 48.1783 10.897 525 63.9162 1120.43 547.49
2549 0 52.1408 12.5238 653 62.1348 1120.41 545.329
2550 0 53.1122 12.6713 673 61.7043 1120.64 543.972
2551 0 54.1135 13.0282 705 61.8738 1120.5 545.226
2552 0 56.0766 12.9823 728 61.4766 1120.33 545.023
2553 0 57.1526 13.2102 755 61.4437 1120.61 543.379
2554 0 58.1084 14.0771 818 60.2689 1120.09 543.704
2555 0 59.1688 12.9798 768 62.349 1120.38 543.177
2556 0 61.4033 13.2566 814 61.5553 1120.29 543.306
2557 0 64.2068 13.7524 883 61.3046 1120.72 540.506
2558 0 65.247 14.0696 918 61.3606 1120.74 540.036
2559 0 67.1784 14.3796 966 61.324 1120.42 538.576
2560 0 71.2409 14.1772 1010 60.696 1120.45 536.969
2561 0 71.1129 13.4294 955 62.8555 1120.69 537.111
2562 0 73.1694 14.1999 1039 61.8961 1120.88 535.883
2563 0 76.3394 13.9378 1064 62.4737 1120.56 533.61
2564 0 77.3781 13.8153 1069 63.0514 1120.8 532.368
2565 0 80.0961 14.2329 1140 62.5553 1120.5 532.166
2566 0 81.2633 14.2254 1156 64.7327 1120.37 531.742
2567 0 83.3277 13.8249 1152 65.5347 1120.36 530.143
2568 0 86.2295 14.1599 1221 65.2678 1119.91 528.661
2569 0 89.1959 14.1038 1258 64.9968 1120.36 528.099
2570 0 92.2657 14.3824 1327 64.9164 1120.12 526.727
2571 1 51.1123 12.3062 629 65.1224 1119.98 546.94
2572 0 53.0821 11.9814 636 65.1871 1120.12 547.277
2573 0 55.1879 13.155 726 63.7066 1119.64 546.27
2574 0 57.1068 13.1858 753 63.7078 1119.73 544.599
2575 0 57.2128 12.9167 739 64.5304 1119.6 545.686
2576 0 59.2484 12.9455 767 63.7757 1119.77 545.115
2577 0 60.1042 13.1438 790 64.1405 1119.3 543.69
2578 0 62.1704 13.4147 834 63.8717 1119.76 542.832
2579 0 63.1995 13.3862 846 63.7281 1119.5 541.533
2580 0 66.1437 13.38 885 63.2881 1119.51 542.209
2581 0 68.1712 13.2754 905 63.7425 1119.61 541.439
2582 0 69.4052 13.3275 925 63.9784 1119.65 538.094
2583 0 72.2092 13.8071 997 63.01 1119.66 537.427
2584 0 73.3146 13.5989 997 63.6048 1119.79 537.053
2585 0 75.3719 13.3472 1006 64.3549 1119.65 536.573
2586 0 76.3351 14.0957 1076 64.053 1120.05 534.352
2587 0 79.2106 14.5814 1155 62.8753 1120.33 534.633
2588 0 79.2197 13.0902 1037 65.8959 1120.22 533.233
2589 0 81.2393 13.2694 1078 65.5028 1120.28 531.96
2590 0 83.2393 13.4191 1117 65.9114 1120.48 530.611
2591 0 85.2609 14.0979 1202 64.807 1120.77 529.458
2592 0 89.3618 13.6524 1220 65.3459 1120.73 527.139
2593 0 88.1692 14.2453 1256 65.8861 1121.12 526.19
2594 0 92.223 14.0637 1297 65.5914 1121.07 525.9
2595 0 93.2912 13.5061 1260 67.1825 1121.12 524.085
2596 0 95.359 13.0454 1244 67.9695 1121.02 523.475
2597 0 97.2106 13.7228 1334 67.5232 1121.37 521.322
2598 0 100.397 13.7455 1380 67.4609 1121.48 521.359
2599 0 103.278 14.0301 1449 66.7667 1122.06 520.001
2600 0 104.318 14.0435 1465 67.673 1122.12 517.228
2601 0 108.247 13.6909 1482 68.1687 1121.97 516.548
2602 0 109.261 14.2686 1559 67.4067 1122.32 516.178
2603 0 113.475 14.1177 1602 67.6161 1122.55 515.73
2604 0 114.387 13.7604 1574 68.8355 1122.62 513.266
2605 0 116.387 13.6441 1588 69.2935 1123.03 511.177
2606 0 117.349 13.3022 1561 70.2787 1123.08 512.605
2607 0 118.453 13.6172 1613 70.7805 1123.46 509.071
2608 0 121.337 14.81 1797 69.3523 1123.75 508.307
2609 0 123.287 14.0404 1731 71.476 1123.79 508.104
2610 0 125.287 14.375 1801 71.0777 1124.08 505.932
2611 0 127.237 13.801 1756 72.7756 1124.42 503.197
2612 0 130.377 14.5578 1898 71.8973 1124.12 502.474
2613 0 131.321 13.7374 1804 73.9302 1124.58 503.054
2614 0 133.4 14.2354 1899 73.6166 1124.56 502.166
2615 0 135.415 14.3263 1940 74.2706 1124.66 504.27
2616 0 137.291 14.6622 2013 73.9717 1124.36 499.938
2617 0 140.451 15.1512 2128 73.3985 1124.35 499.177
2618 0 141.33 15.1206 2137 74.0669 1124.82 499.229
2619 0 144.271 15.3808 2219 73.452 1125.17 499.595
2620 0 143.354 14.6212 2096 75.7075 1125.13 497.887
2621 0 145.199 15.6888 2278 75.1813 1125.31 495.877
2622 0 145.297 14.9762 2176 76.8244 1125.15 493.051
2623 0 147.437 14.535 2143 77.6388 1125.27 494.439
2624 0 150.327 15.4862 2328 76.3604 1125.28 492.922
2625 0 150.417 15.5301 2336 76.7436 1125.12 490.613
2626 0 153.157 15.9249 2439 75.0238 1125.18 492.438
2627 0 152.112 15.1665 2307 76.8843 1125 492.697
2628 0 155.249 16.3029 2531 75.1501 1125.26 489.974
2629 0 157.241 15.9437 2507 75.9346 1124.84 488.544
2630 0 158.171 16.0838 2544 75.7983 1125.02 487.878
2631 0 158.184 15.9371 2521 76.3622 1124.92 488.631
2632 0 160.127 16.2246 2598 76.072 1124.75 489.553
2633 0 161.357 16.2869 2628 75.9932 1124.46 486.332
2634 0 162.232 15.7182 2550 77.1616 1124.47 486.312
2635 0 163.266 16.3108 2663 76.0113 1124.56 486.658
2636 0 164.198 16.9978 2791 75.1247 1124.69 486.486
2637 0 166.192 16.836 2798 75.2502 1124.63 486.07
2638 0 168.227 16.7452 2817 74.9414 1124.73 484.742
2639 0 167.31 16.329 2732 75.8378 1124.41 483.271
2640 0 169.126 16.7626 2835 74.9041 1124.3 482.385
2641 0 169.341 16.8772 2858 74.8786 1124.51 483.918
2642 0 171.212 17.0432 2918 75.1415 1124.31 481.124
2643 0 170.177 17.1762 2923 75.3842 1124.21 477.937
2644 0 172.423 17.1729 2961 74.8332 1124.12 481.205
2645 0 173.256 16.4496 2850 75.5298 1123.99 478.04
2646 0 176.126 17.6351 3106 73.5303 1123.41 480.312
2647 0 177.226 17.0855 3028 74.0357 1124 479.052
2648 0 178.392 17.4111 3106 73.4282 1123.82 477.083
2649 0 178.31 17.3855 3100 70.4845 1123.59 476.786
2650 0 180.281 17.7057 3192 69.1432 1124.04 477.028
2651 0 182.317 16.954 3091 70.0864 1123.58 476.009
2652 0 181.202 17.0197 3084 70.0603 1123.26 473.067
2653 0 179.441 17.1143 3071 68.1817 1123.56 475.406
2654 0 173.214 17.1234 2966 73.0425 1123.11 473.334
2655 0 173.262 17.3206 3001 73.4055 1123.28 476.103
2656 0 175.205 17.8134 3121 72.2451 1123.1 473.91
2657 0 177.308 17.3202 3071 72.7336 1123.26 475.052
2658 0 178.389 16.0548 2864 73.9274 1122.85 475.192
2659 0 180.255 17.5585 3165 71.0961 1122.85 477.081
2660 0 179.445 16.8687 3027 71.7542 1123.01 476.805
2661 0 182.268 17.2493 3144 70.8337 1122.85 476.351
2662 0 182.262 17.0524 3108 71.0933 1122.76 474.331
2663 0 183.313 16.7855 3077 70.9448 1122.95 476.269
2664 0 185.388 16.7001 3096 70.3572 1123.17 477.7
2665 0 186.298 17.735 3304 69.0666 1123.24 473.916
2666 0 187.27 17.659 3307 68.6792 1123.08 475.407
2667 0 188.399 18.1265 3415 68.1654 1123.08 471.59
2668 0 189.425 17.1888 3256 69.0003 1123.07 473.888
2669 0 189.556 17.1717 3255 68.8485 1122.77 473.296
2670 0 192.309 17.5187 3369 68.1627 1122.7 473.787
2671 0 192.227 18.1088 3481 67.231 1122.59 472.384
2672 0 191.365 17.626 3373 67.7121 1122.2 470.76
2673 0 192.472 17.5922 3386 67.5617 1122.11 472.324
2674 0 194.314 17.4563 3392 67.212 1122.66 470.43
2675 0 195.499 16.4707 3220 68.082 1122.16 470.112
2676 0 197.305 17.217 3397 66.8175 1122.02 469.659
2677 0 199.537 17.8814 3568 65.424 1122.1 470.776
2678 0 197.541 16.7307 3305 66.7343 1121.96 472.974
2679 0 199.399 17.6129 3512 65.072 1121.73 472.017
2680 0 200.252 16.9187 3388 65.7704 1121.78 471.488
2681 0 199.417 17.9423 3578 64.7077 1121.91 469.417
2682 0 203.352 18.2836 3718 63.5971 1121.6 471.211
2683 0 202.276 17.6392 3568 64.5555 1122.06 467.386
2684 0 202.381 17.4819 3538 64.7256 1121.99 468.38
2685 0 204.286 17.6125 3598 64.7432 1121.54 466.796
2686 0 203.666 17.7055 3606 64.6969 1121.87 469.11
2687 0 207.752 18.5942 3863 63.2011 1121.12 467.845
2688 0 207.38 18.0973 3753 63.9656 1121.14 466.448
2689 0 206.242 17.8237 3676 64.2965 1121.07 466.742
2690 0 207.483 16.676 3460 65.1827 1120.94 469.169
2691 0 209.48 18.0065 3772 63.5501 1121.35 464.563
2692 0 208.254 18.3478 3821 63.1921 1121.04 466.094
2693 0 208.493 17.9383 3740 63.704 1120.62 467.178
2694 0 209.53 17.5154 3670 64.2098 1120.54 466.502
2695 0 210.643 18.002 3792 63.0746 1120.5 467.292
2696 0 212.385 17.9721 3817 63.0126 1121.03 467.383
2697 0 211.315 17.9921 3802 63.1739 1120.84 463.967
2698 0 212.552 17.831 3790 63.0499 1120.76 464.393
2699 0 214.344 18.1904 3899 62.5873 1120.39 465.41
2700 0 212.306 17.8704 3794 63.218 1120.62 464.754
2701 0 216.473 17.8821 3871 62.884 1120.48 465.097
2702 0 215.424 17.1986 3705 63.2327 1120.43 465.804
2703 0 215.466 18.1931 3920 62.4783 1120.67 461.951
2704 0 220.452 18.639 4109 61.8262 1120.6 461.406
2705 0 215.397 19.1368 4122 61.1504 1120.59 459.818
2706 0 221.349 18.5861 4114 62.0272 1120.39 463.067
2707 0 221.294 18.5591 4107 61.8091 1120.33 458.427
2708 0 221.67 18.8388 4176 61.0086 1120.53 459.38
2709 0 219.479 18.8355 4134 62.2477 1120.03 457.682
2710 0 223.749 19.2001 4296 61.3664 1120.14 456.63
2711 0 224.482 18.545 4163 62.0156 1120.16 455.387
2712 0 224.387 18.2854 4103 62.234 1119.8 455.108
2713 0 226.445 17.7571 4021 62.5337 1120.42 457.757
2714 0 225.574 20.9022 4715 59.2409 1120.15 452.536
2715 0 221.553 20.6993 4586 58.7577 1120.38 449.721
2716 0 225.642 20.3818 4599 58.9867 1120.64 448.902
2717 0 225.467 18.4994 4171 61.1251 1120.3 449.428
2718 0 227.551 21.8281 4967 56.1999 1120.55 441.401
2719 0 222.416 19.0859 4245 60.5578 1120.24 449.331
2720 0 227.667 19.5066 4441 59.8088 1120.29 447.58
2721 0 221.409 19.2585 4264 59.4629 1120.47 445.438
2722 0 221.978 20.0155 4443 59.1544 1120.06 444.904
2723 0 222.509 18.9745 4222 61.3539 1120.39 439.234
2724 0 221.444 18.5419 4106 60.7404 1119.92 439.91
2725 0 221.546 19.7385 4373 59.638 1120.06 436.92
2726 0 222.448 19.9373 4435 59.5098 1120.45 436.676
2727 0 222.454 19.5096 4340 60.0765 1120.22 434.71
2728 0 225.893 19.5402 4414 59.5494 1120.76 439.79
2729 0 224.495 19.1586 4301 59.7849 1120.69 436.366
2730 0 227.365 19.5721 4450 59.1344 1121.02 432.216
2731 0 227.721 19.2428 4382 59.4199 1121.29 435.122
