time division length width area intensity CMx CMy
0 0 46.2929 13.1986 611 106.339 1345.25 481.213
1 0 44.306 12.4814 553 110.43 1343.87 480.329
2 0 46.1883 11.0634 511 114.063 1344.57 481.254
3 0 49.2303 12.6142 621 108.235 1344.71 480.699
4 1 25.0124 9.91508 248 109.54 1343.52 491.536
5 0 27.0578 11.1983 303 107.97 1343.87 489.918
6 0 27.0352 10.5788 286 109.395 1343.43 489.021
7 0 28.0815 12.0008 337 105.671 1343.29 489.068
8 0 29.0166 10.9248 317 106.23 1344.01 489.599
9 0 29.021 10.6475 309 108.848 1343.85 487.893
10 0 27.065 10.2346 277 109.968 1344.42 488.357
11 0 28.0261 10.2048 286 109.818 1344.15 489.524
12 0 28.2651 13.3026 376 104.758 1346.41 488.729
13 0 31.2182 12.5888 393 103.494 1345.5 488.356
14 0 30.2864 12.5469 380 104.218 1345.43 487.374
15 0 33.143 12.9439 429 102.284 1345.24 487.256
16 0 34.3982 14.6229 503 98.328 1345.51 486.64
17 0 32.2135 12.9759 418 103.342 1345.45 486.852
18 0 33.2464 12.1818 405 104.173 1345.2 487.652
19 0 33.1984 12.6813 421 104.086 1345.89 488.078
20 0 34.2154 14.2041 486 101.004 1344.75 485.84
21 0 36.1568 14.2712 516 98.6143 1345.25 486.917
22 0 36.1184 14.8955 538 98.7305 1345.21 485.392
23 0 37.2134 13.3554 497 101.348 1346.1 485.147
24 0 39.1662 13.4044 525 100.059 1346.38 485.164
25 0 38.1657 12.865 491 103.468 1346.76 484.306
26 0 39.1068 14.4732 566 100.652 1347.65 484.8
27 0 42.069 15.1418 637 97.9042 1347.93 484.68
28 0 40.0303 13.1401 526 103.817 1347.63 484.295
29 0 41.2198 14.1194 582 102.089 1347.25 482.502
30 0 42.0968 14.1816 597 101.821 1347.01 480.147
31 0 44.059 14.299 630 101.889 1347.25 480.689
32 0 44.1214 12.3749 546 106.081 1347.5 479.628
33 0 44.1098 12.5596 554 105.7 1348.14 480.587
34 0 47.0642 15.2132 716 100.081 1349.26 479.05
35 0 48.1388 13.7935 664 103.056 1348.72 477.864
36 0 50.0595 13.424 672 103.501 1348.45 477.86
37 0 53.0642 14.7934 785 101.099 1349.33 476.589
38 0 53.0797 14.2992 759 102.315 1349.42 477.686
39 0 56.0558 13.8433 776 102.548 1348.87 476.304
40 0 56.2046 14.5362 817 103.339 1350.03 475.575
41 0 57.1081 14.2011 811 103.8 1350.42 475.581
42 0 60.1317 13.9693 840 104.381 1350.17 474.72
43 0 62.3187 14.4579 901 103.74 1350.06 472.881
44 0 64.0716 14.6087 936 103.815 1350.06 472.917
45 0 66.0518 14.0344 927 105.468 1350.59 472.552
46 0 69.1487 14.9099 1031 104.331 1350.91 471.648
47 0 70.1008 15.2067 1066 104.242 1350.99 472.124
48 0 72.1265 15.1817 1095 105.222 1350.56 470.51
49 0 75.0956 14.1287 1061 106.307 1350.06 468.941
50 0 76.1362 14.4084 1097 107.361 1350.77 465.735
51 0 81.0969 14.3285 1162 104.567 1350.57 466.878
52 1 41.0181 12.4091 509 103.059 1350.72 486.44
53 0 42.0165 12.9235 543 102.7 1350.33 485.954
54 0 42.0218 12.0652 507 104.154 1349.84 485.022
55 0 44.0197 13.0396 574 102.591 1350.3 483.793
56 0 46.0788 13.3033 613 102.599 1349.78 483.568
57 0 49.097 13.0762 642 101.567 1349.84 482.097
58 0 47.2041 13.537 639 104.122 1349.7 481.225
59 0 51.0645 13.2969 679 103.091 1349.97 480.588
60 0 53.1744 12.6941 675 102.508 1349.93 480.203
61 0 54.1302 14.4651 783 101.263 1349.88 477.538
62 0 57.0357 14.2893 815 99.7374 1349.94 477.014
63 0 58.0785 14.9109 866 99.7587 1350.48 476.518
64 0 60.1286 15.7163 945 98.6614 1351 476.614
65 0 61.1916 13.8418 847 101.635 1350.68 477.577
66 0 63.1694 14.9439 944 101.459 1351.08 472.571
67 0 65.1018 15.6831 1021 101.288 1351.42 471.67
68 0 69.084 16.1253 1114 99.2666 1351.4 472.929
69 0 72.0956 16.492 1189 98.6358 1351.93 472.01
70 0 72.1182 15.4469 1114 104.094 1350.37 468.75
71 0 75.1269 16.2259 1219 102.452 1351.56 469.452
72 0 78.0864 16.264 1270 104.743 1351.5 467.079
73 0 79.075 15.9342 1260 106.359 1349.58 466.103
74 0 83.186 16.3369 1359 106.283 1350.51 463.979
75 0 84.0647 15.7498 1324 108.331 1350.86 465.218
76 0 87.1595 16.074 1401 108.037 1350.41 463.11
77 0 90.0651 14.1897 1278 111.948 1350.57 461.938
78 1 48.0188 13.2656 637 105.584 1351.2 482.684
79 0 51.0335 13.3638 682 106.802 1351.19 481.428
80 0 54.1243 13.3951 725 105.712 1351.12 481.029
81 0 54.0819 15.0143 812 103.501 1351.81 479.97
82 0 56.1066 15.3636 862 102.376 1351.81 480.229
83 0 57.1055 13.2211 755 106.938 1351.5 479.115
84 0 58.1196 13.5927 790 106.492 1351.88 478.797
85 0 61.0883 15.1093 923 103.021 1351.87 477.569
86 0 61.0831 13.8172 844 106.691 1351.93 475.649
87 0 64.1369 13.1905 846 108.171 1351.82 475.891
88 0 68.106 14.8592 1012 105.777 1352.08 470.947
89 0 70.1239 15.7008 1101 104.123 1351.37 470.646
90 0 74.1206 15.7851 1170 102.383 1351.61 471.179
91 0 76.1023 13.9418 1061 107.535 1351.4 467.766
92 0 77.1246 15.0925 1164 105.311 1351.74 466.461
93 0 81.0707 16.4794 1336 102.283 1351.9 465.334
94 0 83.1335 15.024 1249 106.532 1352.15 463.609
95 1 41.0417 11.2812 463 106.417 1352.57 485.222
96 0 42.0497 10.9632 461 107.783 1352.97 484.278
97 0 44.0531 11.0321 486 104.903 1353.3 485.486
98 0 46.0883 13.6043 627 102.467 1354.22 481.981
99 0 48.1093 13.4277 646 102.125 1353.14 481.472
100 0 48.1138 13.5928 654 103.937 1352.46 480.154
101 0 50.1175 14.4062 722 101.982 1352.78 479.201
102 0 52.1081 13.0882 682 103.595 1352.95 480.424
103 0 56.2614 12.4064 698 105.059 1352.54 478.941
104 0 56.0958 12.8174 719 105.057 1352.55 478.669
105 0 58.1278 13.3843 778 103.973 1353.15 477.246
106 0 59.2184 13.4249 795 105.356 1352.95 475.33
107 0 61.2082 12.7924 783 106.217 1352.96 475.519
108 0 66.0924 13.466 890 103.306 1353.49 474.821
109 0 66.1384 12.9274 855 104.218 1353.42 474.88
110 0 68.0875 13.1155 893 105.875 1353.51 472.813
111 1 36.0414 10.9596 395 104.157 1354.05 488.749
112 0 39.0552 11.9574 467 99.6574 1353.89 489.088
113 0 42.0997 12.7554 537 100.479 1353.33 486.965
114 0 43.024 13.2949 572 98.5612 1352.76 487.612
115 0 45.119 14.4507 652 94.1871 1353.06 488.11
116 0 44.0954 13.7883 608 98.4013 1352.74 486.734
117 0 46.1337 11.6184 536 102.043 1352.97 487.213
118 0 45.2985 12.2521 555 103.726 1353.13 484.757
119 0 48.1815 12.0171 579 102.637 1351.58 484.169
120 0 49.2072 12.9046 635 101.54 1351.74 483.813
121 0 50.2174 12.6849 637 101.56 1351.36 483.509
122 0 51.1374 13.3562 683 99.6632 1351.04 482.669
123 0 53.2837 12.9495 690 100.794 1350.58 481.545
124 0 56.1976 13.8974 781 99.5173 1350.87 480.634
125 0 55.1579 12.7271 702 101.272 1350.98 481.071
126 0 56.4035 13.0311 735 101.788 1350.88 479.122
127 0 58.0976 12.3241 716 103.142 1350.88 478.94
128 0 60.1638 13.0145 783 102.957 1350.33 475.456
129 0 63.2949 13.7136 868 99.7696 1351.13 477.907
130 0 67.2137 14.2382 957 99.2299 1351.68 474.427
131 0 67.1208 14.824 995 100.743 1352.25 471.555
132 0 70.237 14.7358 1035 101.218 1352.6 472.098
133 1 36.2066 10.4125 377 102.265 1352.02 489.607
134 0 38.0266 11.7023 445 100.681 1352.62 487.694
135 0 40.0874 12.5476 503 98.4692 1353.63 486.781
136 0 40.0883 11.9985 481 100.863 1353.17 486.936
137 0 43.1398 13.746 593 97.3541 1353.15 486.32
138 0 40.0852 13.2717 532 100.425 1352.97 487.107
139 0 43.3162 12.1433 526 101.298 1353.38 486.171
140 0 44.1776 12.6987 561 100.934 1353.48 485.626
141 0 46.1655 12.1519 561 100.768 1353.2 485.649
142 0 47.1904 12.9052 609 100.806 1353.03 484.869
143 0 49.115 12.1348 596 101.941 1353.3 484.594
144 0 50.1839 13.0122 653 101.3 1352.76 484.371
145 0 52.1383 13.0998 683 102.256 1352.13 483.786
146 0 54.1361 14.7776 800 98.2938 1351.96 483.471
147 0 53.239 13.3361 710 101.866 1352.12 483.097
148 0 56.3385 14.2354 802 101.125 1350.81 481.718
149 0 58.162 13.7203 798 102.573 1350.21 480.893
150 0 58.0515 12.799 743 104.865 1350.38 481.58
151 0 61.2024 13.6759 837 103.465 1350.31 478.848
152 0 62.1737 13.4301 835 104.738 1350.37 477.526
153 0 66.2524 13.7957 914 104.282 1350.01 477.992
154 0 68.1463 14.1754 966 103.358 1350.33 476.509
155 0 70.2154 13.8716 974 105.5 1350.36 474.919
156 0 72.1687 13.8841 1002 106.831 1350.61 472.593
157 1 36.0292 10.7135 386 108.495 1351.04 489.549
158 0 39.0124 10.9709 428 105.551 1350.96 489.808
159 0 39.0747 11.0813 433 106.958 1351.23 488.178
160 0 41.0613 12.7857 525 103.459 1351.22 486.45
161 0 42.0446 11.9159 501 105.06 1351 487.473
162 0 44.0438 13.3958 590 103.624 1350.93 486.503
163 0 45.075 12.8009 577 106.459 1351.09 484.712
164 0 44.1129 12.9214 570 107.658 1351.78 484.847
165 0 45.0836 13.3308 601 108.057 1351.87 483.032
166 0 48.0721 13.2509 637 107.89 1351.65 482.283
167 0 50.101 13.6923 686 106.669 1352.45 483.029
168 0 49.1269 13.1089 644 110.634 1352.11 482.576
169 0 50.2168 13.2028 663 109.219 1351.96 483.787
170 0 52.1879 12.6658 661 110.726 1352.48 483.121
171 0 54.2035 12.7667 692 110.679 1352.71 481.322
172 0 55.2346 12.4922 690 111.268 1352.24 482.378
173 0 56.1984 13.5057 759 111.594 1351.5 479.113
174 0 60.1071 12.6774 762 111.247 1351.36 479.517
175 0 63.159 13.7272 867 108.972 1351.65 477.065
176 0 64.2089 12.8643 826 110.347 1351.28 477.1
177 0 69.0741 15.3024 1057 103.94 1351.08 476.524
178 1 36.0261 12.3244 444 105.579 1351.46 492.356
179 0 36.0577 11.0656 399 108.414 1351.22 491.789
180 0 37.0523 11.3893 422 108.927 1350.48 490.592
181 0 38.0439 10.2513 390 111.451 1350.12 491.32
182 0 41.0465 12.4737 512 104.217 1350.22 490.135
183 0 42.045 11.9396 502 104.98 1350.28 490.137
184 0 43.0292 13.5489 583 103.074 1350.04 486.774
185 0 43.0093 13.7645 592 102.022 1350.14 487.515
186 0 46.1057 12.6882 585 103.356 1349.85 487.595
187 0 49.0865 14.5865 716 98.6061 1350.05 486.106
188 0 48.1195 12.9261 622 104.143 1349.54 485.077
189 0 49.1082 12.8084 629 105.105 1349.57 483.739
190 0 50.0527 13.306 666 102.586 1349.16 484.399
191 0 52.0404 13.624 709 103.082 1349.1 481.898
192 0 54.0612 13.5402 732 101.878 1349.42 480.768
193 0 54.2085 12.9869 704 103.857 1349.17 479.598
194 0 55.058 13.3495 735 104.01 1349.3 478.54
195 0 58.087 13.8241 803 101.804 1349.56 477.892
196 0 59.1066 13.704 810 102.095 1350.16 477.363
197 0 61.0202 13.4382 820 101.5 1349.95 478.045
198 0 64.0681 14.7655 946 98.4725 1350.57 476.401
199 0 64.0758 14.358 920 99.6804 1351.27 474.632
200 0 68.0554 14.2678 971 98.2245 1350.66 474.354
201 0 70.1321 13.6172 955 99.7435 1350.87 472.86
202 0 74.1735 14.9649 1110 97.0865 1350.47 470.056
203 0 75.1201 13.3386 1002 99.2675 1350.67 470.213
204 0 77.0992 13.3205 1027 100.637 1350.12 469.812
205 1 38.0686 10.1133 385 100.283 1350.7 489.366
206 0 41.1351 12.6656 521 95.8752 1350.42 489.013
207 0 41.0955 13.5295 556 95.9676 1351.07 487.099
208 0 42.2145 12.0338 508 97.1772 1350.55 488.48
209 0 43.0957 12.1126 522 96.5134 1350 488.257
210 0 46.0773 12.8697 593 95.0236 1350.44 488.121
211 0 46.0702 13.1104 604 95.4619 1350.71 486.722
212 0 47.0743 14.0204 660 95.1136 1350.13 484.935
213 0 50.0341 14.0304 702 93.0427 1350.23 486.128
214 0 50.1196 12.9291 648 95.9599 1350.32 482.579
215 0 51.105 12.3471 631 96.4548 1350.24 483.214
216 0 53.2394 13.8056 735 94.6408 1349.53 481.265
217 0 57.1199 14.2332 813 93.0246 1349.15 479.787
218 0 58.2063 13.7442 800 94.1612 1349.17 481.23
219 0 58.2063 13.7099 798 131.025 1350.17 481.241
220 0 62.1639 14.1079 877 93.821 1349.26 479.738
221 0 66.277 14.8166 982 93.0458 1349.36 477.007
222 0 66.1973 14.2906 946 95.7907 1349.36 476.207
223 0 68.1568 15.2736 1041 93.8184 1349.47 476.228
224 0 70.4981 14.5678 1027 96.298 1348.89 473.827
225 0 72.1451 15.3857 1110 96.4333 1348.71 471.826
226 0 74.1316 13.3951 993 100.147 1349.4 471.98
227 0 77.1755 15.1991 1173 97.9054 1349.98 470.339
228 0 80.1618 14.321 1148 99.4434 1350.04 470.067
229 0 83.1934 15.2055 1265 100.121 1350.2 465.564
230 0 85.2246 14.0804 1200 100.77 1350.37 466.91
231 0 88.063 15.9091 1401 98.5953 1350.5 464.104
232 1 45.1397 11.83 534 100.923 1350.99 485.684
233 0 46.1742 12.1713 562 100.819 1351.48 484.343
234 0 47.2337 11.7924 557 101.675 1351.12 485.077
235 0 49.052 14.3521 704 99.4077 1351.52 483.406
236 0 51.0624 13.7479 702 100.467 1351.31 483.318
237 0 55.1653 15.3539 847 96.7875 1351.36 483.243
238 0 56.0629 14.9475 838 97.8401 1352 482.336
239 0 58.2486 15.0905 879 98.4448 1351.93 479.92
240 0 59.1528 13.4398 795 100.893 1352.16 481.467
241 0 62.1315 12.9725 806 101.403 1351.34 480.775
242 0 67.191 13.9304 936 98.8045 1350.79 479.187
243 0 67.1982 14.2563 958 100.197 1350.46 477.466
244 0 69.1946 14.3653 994 99.6811 1350.66 476.113
245 0 73.2848 14.314 1049 98.2164 1350.48 474.915
246 0 76.2268 14.5487 1109 98.4464 1350.34 473.518
247 0 79.1753 12.3776 980 101.897 1350.15 473.134
248 1 38.1335 11.4073 435 99.1471 1350.36 491.786
249 0 42.1634 11.7401 495 97.6788 1349.43 491.238
250 0 42.1161 11.9907 505 97.0713 1349.23 491.309
251 0 45.1398 12.6496 571 95.5114 1348.66 489.872
252 0 44.0828 12.4312 548 97.0182 1349.43 488.965
253 0 47.127 13.5167 637 97.1837 1349.05 486.947
254 0 47.0681 12.0676 568 100.118 1349.4 486.701
255 0 49.119 13.6607 671 97.1908 1349.11 486.674
256 0 49.0805 13.3454 655 98.8015 1349.82 484.713
257 0 52.1873 13.2216 690 99.4855 1349.33 483.423
258 0 52.0909 14.5131 756 98.291 1349.02 484.725
259 0 54.1334 15.351 831 97.1805 1349.78 482.006
260 0 57.099 15.009 857 96.9615 1350.45 481.714
261 0 58.1857 14.6428 852 99.8169 1350.04 478.797
262 0 62.3804 14.2192 887 99.5919 1350.2 479.574
263 0 62.0963 14.3809 893 100.979 1351.47 476.956
264 0 65.123 13.6357 888 103.003 1351.36 477.381
265 0 68.1987 14.3844 981 100.691 1352.18 475.804
266 0 68.172 14.4927 988 103.465 1352.04 473.691
267 0 72.1627 13.816 997 104.98 1352.12 472.5
268 0 75.279 15.4094 1160 101.73 1352.59 472.95
269 0 77.2616 13.6161 1052 106.267 1352.92 473.02
270 0 80.1054 13.9816 1120 106.276 1352.68 472.021
271 1 41.1267 11.3065 465 106.473 1352.34 489.94
272 0 43.1939 11.8072 510 105.541 1352.52 491.137
273 0 44.0837 12.6124 556 105.89 1352.15 488.272
274 0 47.0947 12.8677 606 104.19 1352.26 489.516
275 0 46.1098 12.21 563 107.201 1352.34 488.789
276 0 49.0646 13.4313 659 105.498 1351.78 487.533
277 0 52.0921 12.8426 669 106.885 1351.71 486.846
278 0 52.1391 13.0037 678 105.777 1351.22 486.196
279 0 54.2469 13.2542 719 105.249 1350.32 485.51
280 0 58.0672 13.7427 798 102.975 1349.81 485.553
281 0 58.1072 14.1807 824 104.208 1349.9 483.13
282 0 62.2206 14.754 918 102.221 1349.61 481.947
283 0 62.17 14.3317 891 104.487 1349.5 479.813
284 0 65.2877 15.1483 989 103.002 1349.14 481.336
285 0 67.2122 15.2205 1023 103.23 1348.82 477.632
286 0 67.1449 14.1485 950 106.665 1347.93 475.16
287 0 69.1791 13.5879 940 107.028 1348.69 476.384
288 0 73.1646 14.9936 1097 105.051 1348.85 472.638
289 0 75.3073 14.7927 1114 105.628 1349.14 471.258
290 0 78.1145 14.978 1170 106.183 1349.59 469.797
291 0 80.1228 15.1143 1211 105.947 1349.5 469.948
292 0 82.232 14.1308 1162 109.892 1349.68 466.716
293 0 85.1724 15.3688 1309 107.151 1349.88 465.745
294 1 45.0725 12.9569 584 108.726 1350.65 484.474
295 0 47.0835 11.6601 549 110.648 1351.22 485.521
296 0 48.0517 12.4449 598 110.53 1351.88 483.669
297 0 50.0511 13.646 683 108.65 1352.58 482.978
298 0 53.0162 12.9017 684 109.923 1352.3 483.038
299 0 54.0247 13.5308 731 110.538 1352.89 481.506
300 0 56.135 15.6409 878 105.237 1353.98 483.064
301 0 57.0574 13.6003 776 110.354 1353.34 482.247
302 0 59.0302 14.4841 855 106.727 1353.32 482.761
303 0 63.0816 14.5684 919 107.097 1352.88 482.194
304 0 65.1991 13.8806 905 108.651 1352.44 481.227
305 0 67.0676 14.0306 941 107.917 1351.79 481.818
306 0 68.1141 14.3142 975 109.435 1351.57 480.159
307 0 72.0984 14.7437 1063 107.852 1351.51 477.533
308 0 74.1317 14.5687 1080 108.244 1351.57 477.09
309 1 40.06 9.96006 399 110.604 1351.6 493.429
310 0 41.086 12.9241 531 105.646 1350.84 492.821
311 0 43.044 13.1029 564 105.619 1350.74 491.475
312 0 42.0483 11.1063 467 110.944 1350.41 492.109
313 0 43.0442 11.2675 485 110.895 1350.03 489.738
314 0 45.0607 12.3389 556 108.811 1350.22 488.122
315 0 48.0831 13.5183 650 105.312 1349.26 487.732
316 0 49.1162 13.58 667 106.117 1348.68 486.228
317 0 50.0425 12.7492 638 107.14 1348.32 486.599
318 0 52.1272 13.045 680 106.109 1348.46 484.606
319 0 54.0416 12.8049 692 106.994 1348.14 483.368
320 0 56.1935 13.7382 772 104.325 1348.84 482.284
321 0 58.0997 14.871 864 102.093 1349.44 481.706
322 0 59.0974 14.2646 843 103.326 1349.73 480.098
323 0 62.2129 13.5342 842 102.368 1349.91 480.747
324 0 63.0563 13.6545 861 105.16 1350.25 476.513
325 0 66.1027 13.948 922 102.679 1351.19 476.362
326 0 67.0925 14.7557 990 102.022 1351.74 477.067
327 1 37.0417 11.5276 427 101.089 1352.5 491.81
328 0 38.0456 11.4599 436 102.092 1352.15 490.319
329 0 39.0327 10.4784 409 103.171 1350.84 490.98
330 0 40.0934 13.3189 534 99.6161 1351.46 490.23
331 0 41.1366 11.474 472 104.614 1351.86 490.778
332 0 43.0457 13.0559 562 102.123 1352.24 489.87
333 0 43.0569 13.935 600 101.905 1352.1 491.39
334 0 46.0928 12.5182 577 105.832 1352.76 489.764
335 0 48.1387 12.7548 614 103.342 1351.88 490.932
336 0 46.1447 12.0924 558 108.07 1352.42 490.122
337 0 52.1127 13.5859 708 103.806 1352.65 490.006
338 0 52.2208 13.5004 705 106.36 1352.68 488.384
339 0 54.1562 13.775 746 106.019 1352 487.48
340 0 54.163 12.0008 650 111.442 1352.08 486.658
341 0 56.1298 14.7337 827 106.611 1350.63 486.198
342 0 57.245 14.6039 836 107.922 1349.47 484.534
343 0 58.1103 13.3711 777 113.19 1348.43 482.046
344 0 60.1445 14.0495 845 111.12 1348.55 481.734
345 0 64.1437 14.2337 913 109.859 1348.48 480.413
346 0 66.1388 13.9706 924 112.241 1348.38 478.252
347 0 69.1318 14.0022 968 111.941 1347.85 477.465
348 0 69.0703 13.8554 957 114.845 1348.63 473.805
349 1 38.1018 11.1543 425 113.125 1347.92 491.814
350 0 38.1808 11.9955 458 114.812 1348.3 489.614
351 0 39.1117 12.4771 488 113.605 1348.02 489.594
352 0 39.1419 12.9784 508 115.311 1347.82 488.596
353 0 43.0965 12.9941 560 114.666 1348.18 486.288
354 0 44.048 14.7112 648 112.034 1348.27 485.258
355 0 44.1174 13.7587 607 114.901 1348.88 484.697
356 0 45.0603 13.6706 616 114.495 1349.59 485.703
357 0 48.0573 13.151 632 114.927 1350.35 485.272
358 0 50.2182 13.9193 699 111.801 1350.67 484.034
359 0 49.0353 15.5194 761 111.087 1351.59 483.595
360 0 52.0943 14.5121 756 112.234 1352.23 482.147
361 0 53.1102 13.1048 696 115.519 1353.26 483.598
362 0 54.1069 14.0463 760 115.341 1353.52 481.974
363 0 56.2091 13.9301 783 114.419 1353.34 483.132
364 0 59.0671 15.1184 893 109.368 1353.53 483.608
365 0 61.2323 14.6655 898 110.878 1352.91 483.101
366 0 61.1351 14.0181 857 114.233 1352.71 482.37
367 0 65.1427 15.5198 1011 109.799 1352.75 479.667
368 0 67.1271 14.1076 947 113.231 1352.26 480.447
369 0 70.1506 15.2101 1067 111.425 1351.81 479.262
370 0 71.0873 14.2641 1014 113.554 1351.42 477.998
371 0 74.067 15.0134 1112 112.203 1350.88 476.859
372 1 39.1154 11.9646 468 113.077 1350.33 493.528
373 0 37.064 11.7364 435 113.749 1350.85 493.924
374 0 40.0794 13.6479 547 109.154 1349.72 492.57
375 0 42.2302 13.5685 573 110.916 1348.98 491.349
376 0 43.1015 13.503 582 111.371 1348.04 489.452
377 0 44.0341 13.0354 574 111.106 1348.12 488.765
378 0 46.1261 13.6365 629 108.711 1347.28 489.013
379 0 47.0724 13.8085 650 108.108 1347.22 487.123
380 0 47.0937 13.2502 624 110.941 1347.4 485.556
381 0 50.0408 13.6489 683 108.758 1347.31 485.034
382 0 50.3074 14.5307 731 107.256 1347.97 482.592
383 0 52.1901 12.7994 668 108.106 1348.34 483.837
384 0 54.1069 13.3255 721 107.29 1348.82 481.556
385 0 56.0833 15.1739 851 102.941 1349.02 481.396
386 0 59.2314 14.2323 843 103.547 1348.85 481.224
387 0 59.0764 14.3374 847 103.749 1349.66 480.372
388 0 64.1512 14.9802 961 99.3798 1351.19 479.69
389 0 66.1401 16.2987 1078 97.4916 1351.71 477.09
390 0 66.3281 13.9911 928 102.653 1351.99 477.596
391 0 70.2228 15.1802 1066 100.184 1351.96 474.759
392 0 70.2858 15.4939 1089 100.148 1353.06 473.278
393 0 75.2044 14.4539 1087 100.925 1353.11 473.184
394 1 38.1978 12.6709 484 99.2707 1353.62 492.934
395 0 39.0812 12.4868 488 101.02 1353.54 492.678
396 0 42.1712 12.4492 525 97.6781 1353.72 494.779
397 0 42.1142 12.7985 539 100.701 1352.71 492.968
398 0 46.1789 13.4694 622 98.2412 1352.29 492.929
399 0 43.1514 12.1665 525 102.002 1352.69 494.404
400 0 46.1402 14.2825 659 98.695 1351.92 490.604
401 0 50.2407 13.3955 673 98.4829 1350.74 489.673
402 0 50.1346 12.7656 640 99.7172 1349.95 489.898
403 0 48.0513 12.008 577 102.068 1350.42 487.308
404 0 52.067 14.1548 737 96.9647 1349.43 487.001
405 0 54.0711 12.7795 691 98.9059 1348.94 486.514
406 0 57.1308 14.5981 834 95.7194 1348.83 483.29
407 0 59.2164 14.3879 852 95.392 1347.97 481.44
408 0 60.1136 13.1917 793 99.0769 1347.75 479.846
409 0 62.0699 14.1454 878 97.8474 1347.81 478.551
410 0 66.0875 13.7545 909 97.6744 1347.7 476.724
411 0 65.0731 13.6616 889 99.6265 1347.23 476.1
412 0 69.0463 13.2665 916 100.826 1347.33 472.598
413 0 73.0976 14.4738 1058 97.604 1347.78 472.482
414 1 36.1626 9.84444 356 100.716 1348.91 488.674
415 0 40.1057 10.4474 419 98.3246 1349.67 488.155
416 0 42.0613 11.1979 471 98.4204 1350.24 487.599
417 0 44.0556 11.3947 502 97.5717 1350.8 485.241
418 0 44.0578 12.6879 559 96.4973 1351.53 484.814
419 0 48.0936 14.7837 711 92.4079 1352.32 483.668
420 0 49.1321 13.6367 670 94.6552 1353.13 483.76
421 0 50.1572 13.0589 655 96.1023 1353.96 484.142
422 0 51.1204 12.6173 645 97.8388 1354.13 483.867
423 0 53.0764 13.8668 736 94.3057 1354.71 485.251
424 0 56.211 13.0579 734 96.4905 1354.27 484.501
425 0 58.1121 12.6135 733 97.9222 1354.67 484.04
426 0 58.0668 12.5028 726 98.8554 1354.37 482.251
427 0 63.1608 12.9036 815 96.8761 1354.08 482.876
428 0 65.1171 12.6541 824 98.71 1353.01 482.346
429 0 67.0568 13.7048 919 98.1828 1353.07 479.155
430 0 71.1004 14.6694 1043 96.2176 1352.87 478.188
431 0 74.1221 13.8555 1027 98.0867 1351.76 476.699
432 1 37.0422 11.2844 418 97.5311 1351.72 494.199
433 0 39.0696 9.80303 383 99.1201 1350.83 494.055
434 0 42.0171 10.8527 456 97.011 1350.08 493.292
435 0 43.1563 10.3345 446 98.3363 1348.89 492.285
436 0 45.1045 13.3025 600 94.93 1348.7 489.118
437 0 47.0337 12.4592 586 97.244 1348.37 487.568
438 0 48.067 12.5866 605 98.6645 1347.91 485.988
439 0 49.1823 13.0128 640 98.7359 1347.42 484.473
440 0 49.2069 12.0512 593 101.87 1347.45 483.255
441 0 53.0514 14.1749 752 97.383 1347.41 481.868
442 0 53.1723 11.9047 633 102.629 1347.63 481.483
443 0 56.1892 13.8105 776 99.4317 1347.34 479.594
444 0 58.08 12.6205 733 102.274 1348.25 478.442
445 0 59.1749 12.5053 740 102.219 1349.05 477.534
446 0 60.3451 12.1302 732 104.959 1348.93 476.623
447 0 64.1996 16.0437 1030 96.766 1350.83 476.516
448 0 67.326 13.8728 934 101.256 1351.45 476.095
449 0 69.1454 14.6792 1015 101.299 1352.28 473.042
450 0 71.3914 12.9147 922 104.26 1353.74 473.036
451 0 74.0604 13.2595 982 103.978 1353.98 473.099
452 0 76.1745 12.9046 983 105.597 1354.63 473.524
453 1 39.1961 12.1696 477 101.082 1354.55 491.579
454 0 42.2932 10.3326 437 103.785 1354.23 492.133
455 0 42.1961 12.0153 507 104.16 1353.88 489.392
456 0 46.1363 13.2 609 101.489 1353.59 490.627
457 0 46.1064 13.2086 609 103.304 1353.08 491.218
458 0 48.0919 13.1831 634 105.172 1353.46 489.579
459 0 50.2157 13.3823 672 104.016 1353.44 490.628
460 0 52.3031 13.785 721 104.761 1353.07 487.183
461 0 53.3107 13.5245 721 104.433 1351.96 488.251
462 0 55.2622 14.4945 801 103.464 1351.17 487.673
463 0 57.227 13.56 776 106.62 1350.15 484.17
464 0 59.2731 14.914 884 103.524 1349.97 483.639
465 0 59.3561 14.8258 880 105.419 1348.93 482.318
466 0 64.1906 14.566 935 103.109 1348.29 481.948
467 0 63.2204 14.2043 898 107.277 1348.36 478.738
468 0 68.1783 14.3007 975 104.843 1348.87 478.607
469 0 69.1554 13.9252 963 106.091 1348.72 475.199
470 0 70.0881 13.9967 981 108.967 1347.73 472.511
471 0 73.2755 14.0565 1030 108.283 1347.86 470.64
472 0 76.2315 14.7314 1123 107.467 1348.09 467.697
473 0 77.2391 14.5781 1126 108.442 1348.09 469.096
474 0 82.2051 15.3397 1261 105.98 1349.19 467.48
475 0 81.1732 14.1919 1152 110.154 1349.81 464.785
476 0 87.2653 15.9284 1390 105.701 1350.3 464.02
477 0 90.2082 15.2314 1374 107.472 1351.77 463.298
478 1 47.067 11.7705 554 106.67 1352.89 483.91
479 0 49.0668 12.5543 616 103.761 1354.55 485.063
480 0 49.0792 12.9586 636 107.989 1354.96 483.58
481 0 54.1591 15.4545 837 100.437 1355.59 484.644
482 0 55.1057 13.4469 741 107.146 1356.01 484.416
483 0 57.1298 14.1257 807 106.748 1356.26 483.354
484 0 60.2062 14.4171 868 105.141 1356.55 483.439
485 0 61.1391 14.0499 859 107.867 1355.77 482.368
486 0 64.1131 15.3323 983 105.622 1355.4 481.318
487 0 67.2772 14.3734 967 107.711 1354.74 481.033
488 0 69.3402 13.6429 946 110.16 1353.91 481.264
489 0 70.2774 14.5566 1023 109.002 1353.4 480.302
490 0 74.2011 13.2478 983 111.045 1352.78 480.273
491 0 77.1787 13.4364 1037 111.171 1351.59 478.038
492 0 79.2341 14.4635 1146 110.536 1350.77 474.69
493 0 83.2357 15.0536 1253 109.041 1349.8 473.382
494 0 83.1184 13.9319 1158 113.332 1348.95 469.714
495 0 88.1405 15.1122 1332 110.45 1348.75 469.242
496 0 91.0741 14.34 1306 112.416 1347.84 466.426
497 0 91.1526 12.8795 1174 116.669 1347.12 464.687
498 0 97.2686 14.753 1435 112.123 1346.79 461.374
499 0 100.163 13.9473 1397 113.923 1346.67 456.198
500 0 103.211 14.3686 1483 111.858 1347.28 455.792
501 0 105.238 14.2724 1502 111.799 1346.91 454.474
502 1 57.096 9.44024 539 113.468 1348.01 479.319
503 0 60.1655 11.2523 677 108.948 1348.78 478.307
504 0 63.1645 13.0453 824 105.755 1349.36 475.221
505 0 65.1975 13.7735 898 103.053 1350.29 474.089
506 0 68.0942 14.7149 1002 101.562 1351.61 472.771
507 0 70.1109 12.6514 887 104.428 1353.94 472.524
508 0 74.0866 13.1603 975 102.405 1354.98 472.537
509 0 77.2122 12.7182 982 102.993 1356.87 471.063
510 0 79.1346 14.1152 1117 100.089 1356.85 470.707
511 0 83.0571 14.2432 1183 99.9045 1357.5 468.21
512 0 87.27 15.0109 1310 98.0756 1357.98 468.121
513 0 89.1629 12.9538 1155 103.456 1357.58 467.585
514 1 46.0099 11.1933 515 99.1961 1357.64 491.336
515 0 47.1074 11.9939 565 97.7469 1356.24 490.97
516 0 47.1107 12.2265 576 99.0451 1355.85 491.024
517 0 49.0954 11.8341 581 100.757 1354.83 491.838
518 0 50.1298 11.9091 597 99.2513 1353.29 492.26
519 0 55.1118 12.5744 693 96.5527 1352.19 490.066
520 0 57.0932 14.2048 811 94.73 1349.91 487.256
521 0 58.0959 12.5138 727 98.7992 1349.05 486.409
522 0 63.1105 13.9438 880 95.5909 1347.51 482.967
523 0 64.2272 12.2222 785 99.2484 1346.53 483.241
524 0 65.2447 13.0432 851 98.5875 1345.84 481.884
525 0 67.3128 13.0882 881 100.041 1345.1 480.482
526 0 72.2714 13.1587 951 100.291 1343.92 477.109
527 0 76.1893 13.5977 1036 99.3243 1343.5 475.361
528 1 38.1219 8.44659 322 99.9379 1342.84 495.512
529 0 41.0329 11.2349 461 97.6638 1342.43 493.308
530 0 42.1874 10.6667 450 100.844 1342.02 491.396
531 0 44.1199 11.7861 520 98.4288 1342.58 489.86
532 0 44.1236 10.9919 485 100.652 1343.14 489.59
533 0 45.0512 11.0319 497 102.294 1344.02 488.302
534 0 45.0569 12.9392 583 101.093 1345.82 487.818
535 0 49.0634 12.6571 621 101.121 1347.51 488.15
536 0 51.0693 13.8439 707 98.1033 1349.13 487.583
537 0 51.1684 13.4067 686 99.3309 1350.84 488.197
538 0 53.1227 12.3111 654 102.037 1351.71 488.28
539 0 56.1 14.5633 817 98.0086 1353.58 487.701
540 0 58.0816 14.032 815 100.426 1354.13 488.745
541 0 59.1968 13.3791 792 102.889 1354.7 487.924
542 0 61.199 13.8728 849 102.329 1352.99 490.211
543 0 63.2096 12.7196 804 105.874 1351.23 488.856
544 0 68.2745 13.2114 902 104.399 1350.68 487.385
545 0 71.211 14.7309 1049 101.915 1348.82 485.521
546 1 36.2285 12.0347 436 101.266 1347.16 503.924
547 0 36.1122 11.2704 407 105.531 1345.6 500.762
548 0 39.127 11.9099 466 102.961 1344.71 501.869
549 0 38.1058 11.888 453 107.093 1343.76 499.09
550 0 42.1073 11.9932 505 106.055 1342.1 496.574
551 0 44.1865 13.3751 591 102.423 1342.11 496.134
552 0 46.1065 12.5362 578 104.625 1341.61 494.811
553 0 46.1171 13.4224 619 103.973 1341.56 492.462
554 0 48.0453 12.2176 587 106.276 1340.96 491.467
555 0 48.1472 12.4202 598 106.983 1340.93 487.93
556 0 52.0552 14.2733 743 102.067 1340.67 486.701
557 0 52.2579 13.1081 685 106.244 1340.3 483.885
558 0 53.2855 13.3245 710 106.723 1340.59 481.913
559 0 54.138 11.6739 632 109.972 1341.02 481.573
560 0 58.146 14.5496 846 103.759 1341.56 480.405
561 0 59.077 13.0169 769 106.627 1342.13 480.809
562 0 59.0883 12.9129 763 109.315 1343.74 476.569
563 0 61.1135 13.6795 836 107.783 1345.99 474.781
564 0 65.2084 15.7342 1026 101.848 1347.67 475.238
565 0 65.2154 14.3064 933 106.12 1349.59 475.173
566 0 69.2723 13.4542 932 105.727 1352.29 474.736
567 0 74.2797 14.0819 1046 101.868 1353.7 477.166
568 0 76.3122 14.349 1095 102.468 1355.17 475.59
569 1 42.1893 11.0217 465 103.553 1355.08 492.419
570 0 42.2068 11.5621 488 104.6 1354.71 494.154
571 0 43.1666 11.3514 490 106.859 1354.13 493.824
572 0 47.1386 13.4073 632 103.068 1352.66 493.771
573 0 47.2248 13.1075 619 105.423 1352.69 493.564
574 0 50.2171 14.736 740 102.472 1352.09 492.876
575 0 52.1064 12.3593 644 107.696 1350.88 493.297
576 0 52.1148 12.9905 677 108 1349.75 494.227
577 0 55.0402 13.4084 738 108.112 1347.9 491.061
578 0 56.1737 13.5295 760 108.483 1347.01 490.253
579 0 57.2015 13.7934 789 109.508 1345.68 487.673
580 0 60.1814 12.5953 758 111.573 1344.66 487.162
581 0 63.0846 15.0433 949 104.913 1344.21 486.368
582 0 64.1237 13.817 886 109.88 1342.85 481.948
583 0 66.1749 13.6457 903 108.075 1342.46 481.396
584 0 69.2911 14.7638 1023 104.621 1341.78 478.873
585 0 68.2308 13.513 922 107.825 1341.88 477.762
586 0 72.3561 13.3368 965 107.746 1341.74 476.326
587 0 74.3173 12.7157 945 108.919 1341.87 471.966
588 0 76.4398 12.8729 984 107.672 1342.91 470.577
589 0 79.3596 14.1382 1122 104.32 1343.47 468.967
590 1 43.4564 10.4703 455 102.785 1344.98 486.815
591 0 45.1944 11.2182 507 100.637 1345.86 486.249
592 0 47.2995 11.628 550 99.1655 1345.72 485.469
593 0 49.1036 12.6467 621 96.7472 1348.43 484.557
594 0 49.3136 12.5726 620 96.65 1351.54 486.544
595 0 53.1997 12.5377 667 95.7901 1353.14 486.277
596 0 53.1796 11.9407 635 96.8835 1354.56 487.145
597 0 56.1434 13.519 759 93.7154 1354.85 485.121
598 0 57.1329 13.1798 753 95.7623 1355.25 485.425
599 0 57.0985 13.573 775 95.3961 1355.06 485.29
600 0 62.1098 13.0897 813 94.508 1354.9 486.038
601 0 63.0812 13.3796 844 95.0071 1352.19 487.636
602 0 67.3156 14.3206 964 93.7023 1352.63 486.951
603 0 72.2195 13.6805 988 94.1164 1351.01 488.224
604 1 36.0236 11.6035 418 93.189 1349.8 505.258
605 0 39.0863 10.4896 410 93.7024 1348.17 506.11
606 0 42.1246 11.1336 469 92.4051 1346.69 506.2
607 0 42.1298 10.7287 452 95.7058 1345.18 506.648
608 0 44.0711 11.6403 513 95.5887 1343.1 504.873
609 0 48.1215 13.3828 644 92.6925 1341.71 504.5
610 0 47.1262 13.1137 618 95.5696 1340.78 501.801
611 0 49.1293 12.6198 620 97.5661 1340.37 501.316
612 0 52.131 11.9123 621 98.3961 1339.12 501.89
613 0 52.0667 13.0218 678 98.4056 1338.72 499.91
614 0 56.1289 13.5937 763 96.9895 1338.43 498.051
615 0 58.0863 13.7554 799 95.637 1338.75 497.986
616 0 59.0752 14.4223 852 96.7512 1338.55 493.687
617 0 60.0306 13.5764 815 98.8822 1338.79 493.386
618 0 62.1228 13.8114 858 98.986 1339 491.885
619 0 64.0248 12.4952 800 103.358 1338.14 487.27
620 0 66.0431 13.9757 923 101.015 1339.3 487.6
621 0 68.2111 13.5169 922 100.855 1340.22 489.634
622 0 70.0908 13.3256 934 101.985 1341.5 487.716
623 0 72.0823 13.2487 955 104.201 1343.09 486.291
624 0 72.2402 12.846 928 106 1344.81 485.71
625 0 75.1891 12.6614 952 105.249 1345.99 484.75
626 1 43.0979 11.3927 491 100.035 1346.22 504.395
627 0 43.0529 13.1002 564 101.582 1346.76 501.684
628 0 44.0806 12.1822 537 104.758 1346.69 502.041
629 0 46.0556 12.3112 567 103.173 1346.6 504.101
630 0 46.1154 12.9458 597 104.652 1344.9 505.174
631 0 51.0707 12.3358 630 102.992 1344.67 506.138
632 0 54.0486 13.9504 754 100.664 1344.11 505.232
633 0 57.0274 13.5549 773 100.344 1342.74 503.091
634 0 60.1032 13.0609 785 103.138 1342.02 502.22
635 0 62.1295 13.6489 848 102.347 1341.64 501.546
636 0 66.1618 13.6786 905 103.393 1340.76 498.387
637 0 68.1825 13.9039 948 104.319 1338.64 497.678
638 0 69.1481 13.8254 956 107.086 1337.55 495.038
639 0 73.1233 13.3883 979 109.373 1335.66 493.117
640 1 42.0545 11.604 488 105.746 1335.83 509.143
641 0 41.042 11.4761 471 109.527 1335.69 506.2
642 0 43.0779 13.0694 563 106.858 1334.81 504.551
643 0 45.029 12.3698 557 108.797 1334.54 502.788
644 0 44.1742 11.1377 492 114.587 1335.46 502.663
645 0 47.1747 12.7611 602 111.424 1336.04 499.387
646 0 49.2008 13.3331 656 110.823 1336.32 499.707
647 0 49.1477 13.4086 659 113.432 1337.34 499.015
648 0 50.1199 12.6497 634 114.61 1338.64 498.418
649 0 53.0789 12.1329 644 115.102 1339.97 497.239
650 0 55.124 12.1363 669 113.994 1340.92 497.28
651 0 56.0673 12.7704 716 114.737 1342.29 494.987
652 0 60.0821 13.7479 826 110.53 1343.49 495.778
653 0 61.0689 13.0508 797 112.799 1344.8 495.064
654 1 35.0395 12.0435 422 107.431 1347.14 508.751
655 0 36.0166 10.7728 388 105.539 1348.01 510.704
656 0 38.0168 12.6523 481 104.293 1348.94 509.285
657 0 37.1069 12.3966 460 105.763 1349.17 508.924
658 0 42.0301 12.1817 512 103.879 1348.57 509.484
659 0 43.0382 12.547 540 104.439 1348.42 507.937
660 0 44.0209 13.8343 609 102.074 1347.46 509.575
661 0 46.0345 13.9461 642 104.009 1346.43 506.908
662 0 49.0653 12.5955 618 104.578 1345.89 506.539
663 0 51.0802 13.8018 705 102.885 1344.33 505.292
664 0 52.0165 12.0539 627 106.724 1343.13 504.23
665 0 52.0756 13.25 690 104.043 1341.64 501.891
666 0 56.114 12.8488 721 103.244 1340.87 500.043
667 0 57.0834 13.892 793 100.731 1339.81 497.26
668 0 60.0657 13.968 839 100.101 1339.01 495.845
669 0 60.1517 12.136 730 103.979 1338.72 495.304
670 0 61.3368 13.0591 801 100.773 1338.21 491.461
671 0 64.2756 12.9754 834 100.54 1337.93 489.613
672 0 66.194 12.0404 797 102.217 1338.43 487.705
673 0 72.2155 14.4983 1047 97.4308 1339.57 483.91
674 0 72.2797 14.3055 1034 99.0783 1339.8 482.337
675 0 76.2384 14.7039 1121 97.4603 1340.29 481.602
676 0 76.2384 14.6908 1120 141.049 1340.3 481.629
677 1 40.1305 11.5872 465 99.2516 1343.49 496.634
678 0 41.058 10.5704 434 101.175 1343.74 494.901
679 0 45.1212 11.1921 505 97.0832 1344.74 495.883
680 0 46.1828 11.9309 551 96.4192 1347.19 494.093
681 0 48.1931 12.8027 617 94.4976 1349.19 494.256
682 0 50.183 12.574 631 94.7987 1350.19 494.662
683 0 51.1805 13.5012 691 93.1404 1351.67 494.586
684 0 53.142 14.6588 779 91.8434 1351.23 492.608
685 0 55.0961 13.5581 747 94.1633 1351.99 493.171
686 0 58.1472 15.1856 883 90.1835 1352.4 494.689
687 0 59.301 12.6642 751 94.9041 1352.63 494.651
688 0 62.1492 14.3043 889 92.7267 1352.01 494.16
689 0 66.2452 14.1746 939 93.0298 1350.49 491.595
690 0 68.2886 13.6187 930 95.1064 1349.88 490.602
691 0 68.2268 13.0154 888 97.7128 1348.45 487.077
692 0 72.3433 13.2009 955 97.9026 1347.53 486.761
693 0 78.2453 14.3779 1125 94.44 1346.12 483.108
694 0 80.1999 14.5511 1167 95.4824 1345.51 479.003
695 1 40.1723 12.297 494 98.587 1343.75 496.599
696 0 42.193 12.0162 507 97.9349 1342.72 496.288
697 0 43.1387 10.6633 460 101.257 1341.88 494.526
698 0 45.291 10.6423 482 101.892 1341.93 490.94
699 0 48.4379 12.5935 610 98.1623 1342.46 489.785
700 0 50.2442 12.5786 632 98.1835 1342.63 488.831
701 0 51.215 13.6483 699 97.5794 1342.37 485.185
702 0 53.2081 13.1935 702 96.9231 1343.37 485.685
703 0 54.262 13.0662 709 97.5867 1344.47 483.829
704 0 57.2191 15.0125 859 93.4133 1345.02 481.405
705 0 58.3834 13.5998 794 96.4798 1345.86 481.336
706 0 59.1348 13.4608 796 97.005 1346.43 477.759
707 0 64.4842 15.8178 1020 90.6343 1347.58 477.1
708 0 66.3657 13.4859 895 95.5173 1348.94 477.915
709 0 67.2394 14.0394 944 95.7903 1350.72 475.949
710 0 70.509 13.516 953 96.8174 1354.01 474.771
711 0 73.3435 14.0571 1031 96.9224 1354.55 474.367
712 0 78.2188 14.1654 1108 95.7554 1356.13 473.888
713 0 78.4835 13.7736 1081 98.8094 1357.9 473.934
714 0 84.5762 13.9637 1181 98.1185 1358.3 473.391
715 1 40.3479 10.1368 409 102.071 1357.36 494.425
716 0 43.1191 12.0364 519 101.087 1356.24 494.048
717 0 43.216 12.3102 532 101.301 1355.84 494.6
718 0 47.3258 12.9105 611 99.964 1353.91 495.689
719 0 50.2032 13.2263 664 100.705 1352.44 493.667
720 0 52.1986 13.8126 721 100.018 1351.25 492.942
721 0 55.5551 13.1041 728 101.255 1350.4 491.038
722 0 57.425 13.8267 794 99.9244 1348.81 489.923
723 0 57.2912 12.4277 712 103.989 1346.98 487.941
724 0 61.2985 15.2043 932 97.9732 1345.06 486.656
725 0 63.5435 13.5026 858 102.852 1344.34 482.832
726 0 67.3696 14.5466 980 99.8408 1343.81 482.173
727 0 67.5279 13.8165 933 103.527 1343.68 480.039
728 0 71.46 14.8195 1059 99.9556 1343.03 477.876
729 0 73.2194 16.8944 1237 96.7211 1342.81 475.297
730 0 75.2408 14.447 1087 101.796 1342.34 473.149
731 0 80.4458 14.9542 1203 100.397 1343.09 472.429
732 1 40.1098 9.89784 397 104.927 1343.91 490.028
733 0 43.2256 13.5105 584 99.9298 1344.53 488.795
734 0 44.2115 10.9021 482 100.639 1345.35 490.18
735 0 46.2338 12.0691 558 100.588 1346.94 487.921
736 0 49.1406 13.268 652 98.4939 1348.88 486.917
737 0 50.3259 12.578 633 99.8389 1350.28 485.668
738 0 55.1027 15.5528 857 92.2182 1351.53 487.589
739 0 55.2017 13.7496 759 96.6772 1353.03 487.993
740 0 57.3768 14.2741 819 95.6398 1354.05 488.907
741 0 56.2115 13.3958 753 98.9934 1354.47 488.478
742 0 61.1705 14.5331 889 96.2205 1354.88 488.856
743 0 65.2378 16.2023 1057 93.4267 1354.49 488.193
744 0 67.2352 14.0551 945 99.0455 1353.45 489.218
745 0 70.1606 14.9657 1050 97.2705 1351.93 488.945
746 0 75.2724 15.517 1168 97.2842 1349.71 486.95
747 0 78.3127 15.5147 1215 98.7786 1347.06 486.293
748 0 81.1649 14.2303 1155 101.697 1345.03 484.335
749 0 86.2205 14.95 1289 100.352 1343.81 482.964
750 0 89.1343 15.1906 1354 100.829 1342.73 480.922
751 1 45.1439 13.2022 596 104.067 1341.15 499.785
752 0 47.2232 12.6209 596 102.386 1340.68 499.555
753 0 46.0923 12.8221 591 105.239 1339.37 498.491
754 0 49.2498 12.3249 607 107.048 1338.62 495.84
755 0 51.031 14.4226 736 103.289 1338.76 493.068
756 0 52.0941 14.8193 772 102.486 1339.62 492.346
757 0 56.1818 14.8447 834 101.765 1338.84 489.957
758 0 57.1725 13.8353 791 102.91 1339.33 488.493
759 0 57.1725 13.8878 794 152.897 1339.33 488.508
760 0 61.1374 15.7678 964 100.824 1339.92 484.374
761 0 64.0838 15.8386 1015 101.008 1340.71 481.79
762 0 66.0659 15.3634 1015 101.907 1342.14 479.743
763 0 67.2064 15.311 1029 102.749 1344.16 480.279
764 0 70.1646 15.5492 1091 102.281 1345.84 477.195
765 0 75.1092 14.3391 1077 103.217 1347.91 477.43
766 0 76.1479 13.395 1020 106.467 1349.73 476.005
767 0 80.1035 15.48 1240 101.972 1351.69 475.865
768 0 83.1287 14.4475 1201 103.813 1352.79 475.622
769 1 45.0245 13.104 590 103.119 1353.16 494.651
770 0 47.0428 14.7738 695 101.491 1353.06 492.38
771 0 48.2528 13.8645 669 104.308 1351.95 494.23
772 0 54.0748 15.2012 822 98.5268 1351.74 494.333
773 0 55.0349 15.1722 835 100.799 1350.24 493.346
774 0 59.0736 14.3719 849 99.2792 1348.42 492.11
775 0 62.169 15.7796 981 96.2436 1347.58 490.259
776 0 64.2213 14.9639 961 90.873 1346.64 491.084
777 0 68.0791 15.8492 1079 89.3818 1345.44 486.802
778 0 69.028 15.2547 1053 90.3932 1344.44 486.963
779 0 74.2146 16.075 1193 88.969 1342.63 485.407
780 1 35.0336 13.1303 460 93.2435 1341.22 501.361
781 0 37.0595 12.1426 450 94.3133 1340.44 500.989
782 0 38.1064 13.3311 508 93.7598 1339.8 498.297
783 0 39.076 13.2562 518 94.9112 1339.96 496.861
784 0 43.0281 13.4098 577 93.4991 1340.21 494.513
785 0 45.1789 14.4537 653 92.539 1340.52 493.168
786 0 43.1519 16.3145 704 90.8807 1341.08 491.393
787 0 48.1841 16.4162 791 87.8761 1341.37 490.802
788 0 50.1394 14.3201 718 90.688 1341.48 490.351
789 0 52.062 15.616 813 87.829 1342.66 490.513
790 0 54.2475 15.9086 863 87.0081 1343.26 490.494
791 0 57.1824 16.3687 936 85.1496 1345.39 487.843
792 0 61.1576 17.4467 1067 82.6767 1346.92 487.802
793 0 62.2521 15.8388 986 85.1552 1349.13 488.306
794 0 66.2244 16.9424 1122 83.3895 1350.68 488.25
795 0 67.2499 15.4796 1041 87.0711 1351.19 488.089
796 0 71.1835 16.4505 1171 85.4646 1351.57 488.291
797 0 76.2059 16.5604 1262 85.8447 1351.55 488.391
798 0 80.2269 16.7276 1342 86.2355 1350.74 486.139
799 0 84.1939 17.9467 1511 86.178 1349.7 485.643
800 1 41.0973 12.4582 512 97.0332 1348.24 506.275
801 0 43.0537 13.7038 590 95.6254 1347.59 507.247
802 0 44.0227 15.3557 676 94.8358 1345.54 504.109
803 0 47.0982 15.4358 727 95.8693 1343.49 503.429
804 0 48.1778 16.024 772 97.1943 1341.9 501.131
805 0 50.0985 15.4496 774 98.9225 1340.41 498.793
806 0 54.13 15.9616 864 97.3333 1339.58 497.991
807 0 56.0921 17.2573 968 96.2097 1338.37 494.938
808 0 58.2057 16.3901 954 100.655 1337.41 493.238
809 0 60.2432 15.62 941 103.823 1336.89 489.837
810 0 63.3708 15.4961 982 103.676 1336.77 488.147
811 0 66.1515 16.5227 1093 101.078 1336.69 485.127
812 0 68.1528 16.7565 1142 100.918 1337.68 483.797
813 0 75.1885 18.0347 1356 97.0288 1337.99 482.541
814 0 73.0454 15.9079 1162 102.107 1338.74 480.225
815 0 77.1074 16.6132 1281 99.9219 1339.9 477.075
816 0 78.1538 15.6358 1222 101.905 1340.74 477.608
817 0 82.0802 16.7032 1371 99.55 1342.55 475.486
818 0 84.1242 16.9274 1424 99.25 1344.69 473.478
819 0 89.1122 16.5634 1476 99.1504 1346.15 470.785
820 0 93.3088 17.5546 1638 96.7192 1348.21 471.118
821 0 99.2125 16.6814 1655 97.8012 1349.47 469.773
822 0 102.349 16.3655 1675 98.4943 1350.38 468.903
823 1 51.1321 15.4111 788 98.3261 1351.76 494.859
824 0 53.093 16.9514 900 98.6356 1352.19 492.778
825 0 56.1007 16.3991 920 100.089 1352.27 492.237
826 0 59.0553 15.6125 922 103.957 1351.48 492.512
827 0 62.0802 15.5444 965 103.079 1350.73 493.202
828 0 65.1274 16.936 1103 103.339 1349.56 489.435
829 0 67.1311 16.1326 1083 105.229 1347.34 489.755
830 0 71.0998 17.7497 1262 102.745 1346.53 487.225
831 0 73.1205 15.3172 1120 108.084 1345.14 485.155
832 0 74.1367 15.4849 1148 109.914 1343.88 484.585
833 0 79.109 15.8642 1255 108.553 1342.74 481.604
834 0 82.1326 16.1568 1327 110.414 1341.67 477.031
835 0 85.2555 17.3009 1475 107.466 1341.51 475.705
836 0 88.2366 16.8297 1485 107.739 1340.99 473.539
837 0 92.1186 16.2725 1499 106.906 1341.24 470.81
838 0 96.0844 16.6624 1601 104.373 1340.92 469.128
839 1 50.1542 13.4784 676 101.056 1341.04 490.729
840 0 50.0344 14.9098 746 102.071 1341.97 487.853
841 0 55.0214 15.4485 850 99.1576 1342.74 488.139
842 0 53.0627 12.8527 682 103.899 1343.99 488.022
843 0 59.0363 14.0761 831 102.812 1344.86 486.93
844 0 60.0468 14.905 895 100.295 1345.42 487.417
845 0 65.0527 13.466 876 102.039 1346.89 485.575
846 0 68.0916 14.3336 976 100.827 1348.36 483.392
847 0 71.0751 14.548 1034 99.8366 1350.59 483.849
848 0 74.0937 15.7233 1165 97.8446 1351.81 483.633
849 1 41.142 13.0037 535 95.1439 1353.13 500.918
850 0 42.0196 13.1367 552 94.9746 1353.58 503.929
851 0 44.056 13.0062 573 96.7155 1353.91 503.66
852 0 45.245 12.2666 555 99.1874 1353.63 503.748
853 0 48.0692 12.9813 624 97.1683 1352.31 504.338
854 0 48.0512 11.675 561 99.9715 1349.66 505.888
855 0 53.1039 12.6168 670 97.2836 1347.45 502.934
856 0 55.1481 11.5144 635 99.8441 1345.85 502.06
857 0 55.201 12.8077 707 97.5757 1343.83 501.277
858 0 60.1163 13.0913 787 97.6391 1341.83 496.663
859 0 62.3808 13.2092 824 96.2803 1340.69 495.471
860 0 64.1491 13.2348 849 97.4276 1339.31 495.048
861 0 64.0608 12.051 772 100.595 1338.89 492.727
862 0 70.1548 12.8715 903 97.5792 1338.7 489.927
863 0 71.3968 13.2079 943 98.7116 1338.05 487.452
864 1 33.0623 11.312 374 99.8422 1337.32 504.604
865 0 35.0202 11.936 418 99.3732 1337.69 503.665
866 0 36.0694 12.67 457 99.8052 1338.37 501.381
867 0 37.0095 12.3752 458 100.59 1337.7 500.1
868 0 39.1183 13.6253 533 94.4484 1338.82 499.143
869 0 40.0509 14.2069 569 93.1705 1339.85 497.926
870 0 39.0665 12.3123 481 96.9397 1341.74 497.815
871 0 40.1628 12.8228 515 97.3728 1342.1 497.767
872 0 43.0672 11.9813 516 97.3954 1343.71 497.68
873 0 44.1797 13.8072 610 93.9148 1346.33 497.489
874 0 47.2526 12.6131 596 96.7735 1347.37 497.06
875 0 48.1417 12.8579 619 95.7383 1348.13 497.943
876 0 49.0733 13.3474 655 96.6672 1348.77 495.482
877 0 54.2457 13.3835 726 95.208 1349.45 497.182
878 1 27.0336 12.466 337 97.9318 1349.27 509.258
879 0 27.0595 11.8628 321 101.134 1349.18 510.486
880 0 28.0825 11.7867 331 103.755 1350.14 510.583
881 0 32.0078 14.8089 474 97.1371 1348.47 509.608
882 0 32.0135 14.5563 466 100.828 1346.29 508.755
883 0 33.0543 13.2207 437 105.497 1344.69 509.027
884 0 35.1179 13.2696 466 105.526 1343.76 508.813
885 0 36.1045 12.8239 463 108.192 1341.87 506.41
886 0 39.0161 14.6862 573 101.349 1340.66 503.829
887 0 40.0526 14.7306 590 102.764 1339.14 502.1
888 0 43.0895 14.2726 615 102.888 1338.94 500.499
889 0 43.1764 14.2439 615 104.746 1338.25 498.932
890 0 46.1337 15.1083 697 102.681 1338.18 498.271
891 0 45.1249 15.8671 716 104.718 1338.22 496.573
892 0 46.0361 15.0099 691 108.023 1338.51 493.884
893 0 47.1016 15.1375 713 107.154 1339.06 492.198
894 0 49.0499 16.3711 803 103.936 1339.87 491.466
895 0 50.1846 15.2636 766 107.11 1340.27 488.986
896 0 55.1163 16.1295 889 101.849 1341.95 489.346
897 0 55.0606 15.3467 845 105.601 1343.11 487.931
898 0 57.0714 15.1564 865 106.617 1344.66 487.176
899 0 58.0746 15.5318 902 106.804 1345.66 486.014
900 0 61.1306 15.655 957 106.063 1347.54 486.832
901 0 64.2071 15.5123 996 106.727 1349.26 484.951
902 1 33.0518 13.5242 447 111.629 1351.88 502.119
903 0 35.0277 14.9596 524 107.704 1353.3 502.155
904 0 37.0203 14.0193 519 109.067 1354.22 503.179
905 0 39.1317 14.4895 567 109.173 1354.62 504.471
906 0 40.0579 15.1531 607 111.17 1354.34 505.799
907 0 43.1423 15.8777 685 108.953 1353.19 507.228
908 0 43.0763 15.1359 652 115.052 1351.89 505.88
909 0 47.1478 17.0952 806 110.248 1350.15 505.88
910 0 46.062 16.2173 747 113.317 1347.71 506.114
911 0 51.0743 16.8774 862 108.965 1345.85 505.365
912 0 52.2779 15.6854 820 112.863 1343.95 503.307
913 0 54.1327 15.2218 824 116.964 1343.29 501.72
914 0 56.1314 16.7642 941 115.857 1341.71 498.557
915 0 60.1576 16.0412 965 115.93 1340.88 497.565
916 0 61.2614 15.4257 945 117.893 1339.16 495.552
917 0 65.1019 15.4988 1009 118.648 1338.86 492.832
918 0 67.0975 16.8561 1131 115.689 1338.74 491.14
919 1 32.1699 13.18 424 123.715 1339.44 506.087
920 0 35.0861 14.3076 502 121.998 1339.55 504.428
921 0 35.1374 13.9737 491 126.729 1340.06 502.155
922 0 37.0455 14.6847 544 123.803 1340.55 502.068
923 0 38.0521 15.4262 587 122.654 1340.96 501.463
924 0 38.2059 16.1755 618 121.518 1341.66 501.424
925 0 42.2303 16.4337 694 115.326 1343.01 501.584
926 0 41.1143 15.5907 641 119.821 1344.52 499.972
927 0 47.0798 16.78 790 111.329 1346.75 501.063
928 0 47.0808 16.2062 763 114.668 1347.54 500.115
929 0 49.1129 16.8184 826 113.184 1349.29 499.979
930 0 51.3231 17.5944 903 111.113 1351.08 500.452
931 0 53.3312 16.9132 902 114.969 1351.12 500.575
932 0 56.3201 15.6605 882 118.016 1351.47 500.447
933 0 58.2902 16.7438 976 116.559 1350.86 498.576
934 0 61.1454 16.747 1024 117.075 1349.6 497.725
935 0 65.2866 16.619 1085 116.47 1347.98 497.192
936 0 69.3891 16.53 1147 118.311 1346.23 495.877
937 0 73.2307 15.5263 1137 119.653 1344.45 494.026
938 1 35.0877 15.39 540 120.017 1343.38 510.202
939 0 36.1047 14.7903 534 124.59 1341.67 508.075
940 0 39.067 14.9487 584 123.467 1340.36 506.896
941 0 40.2743 15.1461 610 124.605 1339.49 504.502
942 0 41.177 15.6155 643 123.692 1338.77 502.463
943 0 44.4556 15.4536 687 124.031 1337.6 499.121
944 0 45.0925 16.1446 728 122.764 1337.5 497.361
945 0 47.1567 14.8229 699 125.166 1337.46 495.405
946 0 48.3135 15.4201 745 122.674 1337.16 494.126
947 0 51.3178 15.2579 783 122.411 1337.53 491.808
948 0 52.2089 15.0166 784 122.08 1338.37 490.42
949 0 54.0981 16.6919 903 118.838 1338.86 488.414
950 0 55.133 16.3604 902 119.88 1340.08 487.72
951 0 58.1002 14.9741 870 120.526 1342.23 487.262
952 0 60.2358 16.5682 998 117.943 1342.95 485.303
953 0 64.2551 15.9832 1027 116.813 1345.49 484.759
954 0 66.1194 16.6215 1099 114.943 1347.75 484.053
955 0 71.2547 15.9568 1137 114.772 1349.48 483.418
956 0 72.149 16.064 1159 115.452 1351.8 482.412
957 0 77.1495 16.3449 1261 112.811 1353.23 481.916
958 1 39.186 14.495 568 112.974 1354.33 502.014
959 0 41.0607 13.9306 572 114.302 1354.78 501.762
960 0 42.1061 15.3422 646 113.392 1354.3 501.837
961 0 45.0698 15.4427 696 111.856 1353.63 502.872
962 0 46.4042 14.7185 683 113.791 1353 503.43
963 0 50.1836 16.2603 816 110.299 1351.02 502.022
964 0 53.1177 15.4751 822 112.749 1349.4 501.753
965 0 56.1346 16.2467 912 111.866 1347.89 499.751
966 0 59.1326 16.8773 998 109.817 1346.35 498.698
967 0 60.1443 15.3963 926 113.765 1344.74 496.591
968 0 64.1592 15.2901 981 112.09 1343.02 496.476
969 0 64.1166 14.4112 924 118.334 1341.82 491.216
970 0 70.1514 15.4095 1081 114.169 1341.45 489.586
971 0 69.0737 14.8827 1028 118.048 1340.97 485.528
972 1 39.0556 11.7525 459 117.052 1341.17 502.455
973 0 40.1133 13.0381 523 116.143 1341.4 499.53
974 0 42.2453 12.9245 546 114.414 1341.68 498.266
975 0 43.028 14.5719 627 112.515 1341.68 495.675
976 0 43.0699 13.7683 593 115.398 1342.25 494.919
977 0 45.1193 13.7192 619 115.562 1342.27 493.113
978 0 47.145 15.272 720 110.157 1343.21 492.882
979 0 48.0415 13.5091 649 112.045 1344.33 494.006
980 0 51.1275 16.1166 824 106.154 1346.43 491.754
981 0 51.2452 14.0111 718 111.992 1347.99 490.733
982 0 56.0695 15.6591 878 105.878 1350.25 490.392
983 0 57.1143 14.3922 822 109.214 1352.15 489.987
984 0 61.1138 14.6775 897 106.589 1353.75 489.942
985 0 64.0271 14.3377 918 107.029 1354.44 490.455
986 0 66.0998 13.6158 900 109.629 1354.38 489.47
987 0 71.1163 13.6256 969 108.31 1354.52 487.476
988 1 38.0673 11.0856 422 106.365 1354.7 504.564
989 0 41.0832 13.2171 543 102.582 1353.39 504.23
990 0 41.1962 12.404 511 106.045 1351.62 504.495
991 0 44.0155 12.7455 561 104.46 1350.17 503.294
992 0 48.0933 13.5362 651 103.032 1348.57 502.367
993 0 48.0669 13.3564 642 104.963 1347.2 500.467
994 0 51.0849 12.4694 637 104.64 1345.4 498.808
995 0 53.0834 12.3391 655 105.015 1344.27 498.101
996 0 53.1271 12.6113 670 106.885 1343.07 495.907
997 0 58.1849 12.3572 719 105.926 1342.21 495.241
998 0 57.1388 12.8634 735 105.88 1342.22 491.868
999 0 62.1062 12.9778 806 105.447 1341.8 488.859
1000 0 63.3101 13.2364 838 105.782 1341.55 486.971
1001 0 67.2619 12.9643 872 105.547 1341.91 484.898
1002 0 69.1803 13.5588 938 106.125 1341.12 480.982
1003 1 34.0089 9.87977 336 106.607 1342.42 497.717
1004 0 38.1432 10.6179 405 103.514 1342.79 497.696
1005 0 37.0466 11.2831 418 105.849 1343.88 495.562
1006 0 38.0935 12.7581 486 104.056 1346.3 493.891
1007 0 40.066 12.105 485 106.004 1346.42 494.2
1008 0 42.1308 12.9359 545 102.936 1348.17 495.637
1009 0 45.0605 13.0491 588 102.575 1349.92 494.849
1010 0 45.1778 13.7236 620 103.705 1351.62 493.713
1011 0 44.1284 13.1435 580 106.405 1354.33 495.688
1012 0 48.028 13.7004 658 105.126 1354.62 495.6
1013 0 52.1682 13.3415 696 105.217 1354.7 494.95
1014 0 52.0998 13.263 691 106.831 1356.66 496.349
1015 0 56.1503 13.1611 739 108.046 1355.76 495.819
1016 0 56.1219 11.7245 658 112.047 1355.33 496.947
1017 0 62.0935 14.8164 920 106.098 1352.68 495.961
1018 0 63.18 13.5486 856 110.924 1352.18 495.465
1019 0 68.2216 14.1451 965 110.032 1349.35 493.334
1020 0 70.1271 13.8748 973 113.265 1348.16 491.343
1021 1 35.1132 10.7367 377 110.915 1346.41 510.435
1022 0 37.1441 10.8496 403 114.313 1344.41 507.71
1023 0 39.129 10.7848 422 116.55 1343.76 505.268
1024 0 39.1055 10.3566 405 121.827 1342.16 502.175
1025 0 42.1804 12.494 527 116.264 1341.65 500.634
1026 0 43.1131 13.9401 601 114.757 1341.08 498.248
1027 0 45.1454 12.5151 565 117.099 1341.58 497.811
1028 0 46.1373 13.1347 606 115.581 1342.28 496.381
1029 0 50.2536 13.9691 702 114.037 1342.17 493.164
1030 0 50.545 12.8203 648 117.796 1341.58 492.199
1031 0 52.1949 13.4688 703 116.422 1343.25 491.22
1032 0 52.1213 12.9697 676 118.685 1343.6 488.953
1033 0 57.3242 13.5719 778 113.512 1345.1 487.788
1034 0 59.2446 13.5371 802 113.128 1346.44 486.807
1035 0 60.2465 15.1046 910 110.143 1347.34 486.982
1036 0 64.1677 14.8205 951 109.6 1349.36 485.182
1037 1 34.1536 10.6577 364 108.967 1350.99 502.225
1038 0 35.2748 10.0355 354 112.556 1352.44 500.833
1039 0 37.2838 10.5408 393 108.099 1354.43 502.17
1040 0 38.2934 10.3673 397 108.151 1355.04 502.655
1041 0 41.1532 12.8301 528 104.896 1355.82 500.934
1042 0 44.1059 12.8101 565 103.913 1355.75 501.945
1043 0 44.1745 13.7183 606 104.162 1354.77 501.792
1044 0 44.114 12.513 552 107.911 1353.92 503.071
1045 0 47.1187 11.9273 562 108.187 1352.49 501.922
1046 0 50.1848 13.809 693 103.74 1350.36 499.794
1047 0 50.1544 12.4017 622 107.206 1348.14 500.177
1048 0 53.1359 13.6443 725 104.505 1346.89 498.697
1049 0 55.3307 12.3078 681 108.455 1344.54 496.953
1050 0 56.2239 13.713 771 105.722 1343.71 494.18
1051 0 60.3493 14.4989 875 103.865 1342.32 491.407
1052 0 63.1971 13.7665 870 105.44 1341.16 488.236
1053 0 64.3652 13.874 893 105.198 1341.76 486.766
1054 0 64.288 13.5173 869 107.684 1341.1 484.006
1055 0 68.1534 14.1005 961 104.957 1341.08 481.513
1056 0 71.2598 13.6262 971 105.994 1341.18 477.602
1057 0 74.4004 13.8037 1027 104.577 1342.03 476.812
1058 0 77.2906 14.2449 1101 104.002 1343.04 474.365
1059 0 80.306 14.1832 1139 102.773 1343.47 474.434
1060 1 42.3 9.90543 419 104.029 1345.03 493.778
1061 0 42.2227 10.9183 461 103.779 1345.32 491.677
1062 0 44.2683 12.9664 574 99.7474 1347.57 491.946
1063 0 46.2214 11.9209 551 102.784 1348.53 489.982
1064 0 48.1143 13.4471 647 98.8346 1349.77 489.876
1065 0 49.1598 13.3646 657 99.0228 1351.87 489.595
1066 0 52.1525 14.2083 741 97.5897 1355.04 488.864
1067 0 55.0605 14.0028 771 96.9689 1355.45 489.778
1068 0 55.1605 13.3247 735 99.7143 1355.99 489.118
1069 0 59.1067 15.0068 887 96.5998 1356.16 489.611
1070 0 62.0519 14.5685 904 98.0431 1354.84 488.011
1071 0 63.0589 13.9552 880 101.411 1355 489.282
1072 0 69.2561 15.0889 1045 98.9943 1353.66 487.391
1073 0 71.0605 14.6776 1043 102.125 1352.37 487.992
1074 0 74.1584 14.7252 1092 103.445 1350.12 486.312
1075 0 77.1256 14.4569 1115 105.623 1349.01 483.269
1076 0 81.134 14.4206 1170 105.949 1347.36 481.292
1077 1 42.2202 11.7716 497 104.555 1346.46 501.121
1078 0 42.0955 11.5214 485 106.338 1345.36 499.443
1079 0 48.1138 11.8261 569 104.234 1344.43 497.325
1080 0 47.0619 11.9417 562 105.456 1344.06 494.651
1081 0 48.0491 13.4238 645 103.343 1344.09 490.538
1082 0 52.0391 13.8742 722 101.155 1344.1 490.217
1083 0 50.0935 13.1155 657 105.974 1343.93 487.195
1084 0 54.0781 12.1306 656 107.445 1344.25 485.892
1085 0 56.1574 13.9964 786 103.113 1344.32 483.472
1086 0 58.0487 13.592 789 103.433 1344.51 483.427
1087 0 60.1411 13.2688 798 104.357 1345.48 480.694
1088 0 65.0653 14.1089 918 100.71 1347.44 481.282
1089 0 67.2467 13.681 920 101.572 1348.28 479.753
1090 1 34.1041 9.94017 339 100.743 1351.73 496.891
1091 0 36.045 10.7088 386 97.013 1353.89 497.342
1092 0 35.0373 9.10458 319 101.009 1356.18 498.188
1093 0 38.0364 10.4374 397 97.6549 1357.52 498.38
1094 0 40.0546 11.5093 461 96.4056 1357.99 498.139
1095 0 43.1425 13.0034 561 92.0267 1358.51 499.185
1096 0 42.1436 12.315 519 94.7977 1357.29 500.21
1097 0 45.276 12.5453 568 95.3961 1357.04 500.651
1098 0 48.1698 12.9542 624 96.3141 1355.95 499.337
1099 0 51.2409 13.661 700 94.8 1353.81 499.717
1100 0 52.1695 13.6862 714 96.5728 1352.1 500.317
1101 0 51.1587 11.9823 613 103.103 1350.19 499.533
1102 0 57.1768 14.289 817 95.3219 1348.9 498.081
1103 0 58.1903 13.2324 770 99.8117 1347.04 495.416
1104 0 57.1306 12.2526 700 103.401 1345.43 492.874
1105 0 61.1112 12.42 759 101.954 1344.86 490.794
1106 0 64.277 12.5706 808 101.678 1344.79 487.23
1107 0 66.1374 13.7895 912 99.6425 1344.44 484.579
1108 1 33.0677 8.58845 284 101.331 1344.26 503.166
1109 0 35.0303 8.39274 294 102.058 1344.61 500.673
1110 0 37.007 11.4303 423 95.4114 1344.09 498.749
1111 0 38.0315 10.6491 405 99.4148 1344.16 496.185
1112 0 39.0048 11.9985 468 97.1197 1344.43 495.028
1113 0 39.0505 11.4467 447 98.7338 1345.66 494.566
1114 0 39.2528 12.3049 483 98.0952 1346.66 494.625
1115 0 42.1851 11.8051 498 99.8253 1346.76 494.084
1116 0 42.1378 12.0082 506 101.915 1347.34 491.978
1117 0 44.1906 12.3782 547 98.8793 1349.15 492.676
1118 0 47.1491 12.1529 573 99.5462 1351.32 492.551
1119 0 49.2603 12.2817 605 99.7025 1354.39 493.698
1120 0 51.1834 11.8789 608 100.936 1354.9 492.041
1121 0 53.2093 13.024 693 97.8196 1356.29 494.528
1122 0 57.276 15.0674 863 93.6234 1357.12 494.118
1123 0 57.2321 12.8424 735 101.14 1355.57 492.457
1124 0 61.1339 14.4928 886 97.2415 1355.33 494.22
1125 0 64.1436 14.1713 909 100.024 1354.05 491.933
1126 1 35.1579 9.78444 344 102.933 1353.76 509.003
1127 0 36.1185 11.13 402 103.226 1352.14 508.43
1128 0 36.2021 11.1043 402 104.413 1349.97 507.878
1129 0 38.256 10.4297 399 107.353 1348.47 505.847
1130 0 40.1858 12.0938 486 104.068 1347.01 505.477
1131 0 40.0379 13.0876 524 102.559 1345.45 503.471
1132 0 43.0437 13.103 564 103.927 1344.27 502.401
1133 0 43.0806 12.5114 539 106.412 1343.83 500.158
1134 0 46.1373 13.5249 624 103.692 1343.48 497.558
1135 0 45.1594 12.2455 553 108.345 1343.21 495.553
1136 0 49.1889 14.1902 698 102.106 1344.25 493.347
1137 0 50.2284 13.2794 667 105.039 1343.73 492.708
1138 0 49.1534 13.0611 642 107.104 1343.46 490.12
1139 0 52.0881 12.882 671 106.122 1342.95 489.484
1140 0 54.1799 12.7169 689 104.546 1344.99 489.817
1141 0 54.1309 12.8392 695 107.495 1345.69 487.886
1142 0 56.2397 11.8955 669 108.139 1346.7 488.843
1143 0 58.1623 13.2388 770 106.11 1347.74 486.381
1144 0 60.1223 13.1399 790 105.31 1350.21 485.339
1145 0 64.0995 13.4635 863 103.474 1351.29 485.948
1146 0 65.0355 14.1 917 102.502 1353.35 487.507
1147 0 67.0856 12.5959 845 106.871 1355.73 486.288
1148 1 37.0168 11.5623 428 104.397 1356.86 502.341
1149 0 38.0301 11.9379 454 106.029 1357.08 502.493
1150 0 40.0217 11.6187 465 105.013 1356.46 503.228
1151 0 44.1367 12.6199 557 102.535 1354.99 503.023
1152 0 44.1013 12.7887 564 104.697 1354.07 502.078
1153 0 45.0698 12.8911 581 105.855 1353.29 502.711
1154 0 46.0174 12.1041 557 110.675 1351.67 501.824
1155 0 49.0443 14.1912 696 106.264 1350.62 500.636
1156 0 51.0225 13.0727 667 109.043 1349.05 499.855
1157 0 51.0213 13.4454 686 110.201 1347.67 500.042
1158 0 54.0455 14.3213 774 108.027 1346.53 497.95
1159 0 56.0509 14.7901 829 107.131 1345.17 496.749
1160 0 56.0679 13.1983 740 111.83 1343.64 492.741
1161 0 59.0763 13.6095 804 110.397 1342.88 490.769
1162 0 61.0976 13.8794 848 111.114 1341.98 486.616
1163 0 64.0304 14.0246 898 110.761 1341.62 485.271
1164 0 66.0791 14.9064 985 108.632 1341.7 482.525
1165 0 68.0834 14.8494 1011 108.528 1341.86 480.323
1166 0 70.1278 13.8034 968 110.408 1342.84 478.832
1167 0 73.1294 14.7683 1080 109.802 1343.14 476.633
1168 0 77.1781 14.5508 1123 108.361 1344.1 475.626
1169 1 40.093 11.5731 464 107.795 1345.2 494.709
1170 0 40.0829 10.1041 405 111.788 1345.37 493.235
1171 0 44.1709 10.799 477 108.656 1346.03 492.681
1172 0 45.1321 13.1835 595 104.903 1348.93 491.227
1173 0 47.142 11.6669 550 107.287 1350.11 491.987
1174 0 48.075 12.7509 613 106.241 1351.69 491.496
1175 0 48.1765 12.0598 581 105.616 1353.55 493.055
1176 0 51.0879 13.4866 689 102.633 1354.87 491.891
1177 0 53.1466 13.0018 691 103.718 1355.86 491.352
1178 0 55.2165 12.5144 691 103.708 1356.44 493.472
1179 0 56.1023 12.0316 675 104.963 1356.75 492.241
1180 0 60.0608 13.2865 798 103.45 1355.75 491.917
1181 0 62.104 14.2342 884 101.062 1355 491.192
1182 0 64.1111 12.4471 798 105.053 1353.13 491.302
1183 0 68.1691 14.0973 961 101.594 1351.19 488.14
1184 0 69.0968 13.662 944 103.166 1350.01 487.546
1185 0 71.1333 12.6664 901 105.592 1348.07 486.911
1186 1 39.1068 10.6887 418 103.378 1346.97 502.644
1187 0 40.0646 11.157 447 103.716 1345.82 499.946
1188 0 43.0419 12.5691 541 100.614 1344.86 498.015
1189 0 43.0228 11.8077 508 101.27 1343.58 497.437
1190 0 44.0275 12.901 568 100.072 1342.95 494.32
1191 0 48.0722 14.5198 698 94.947 1342.1 491.948
1192 0 50.143 11.6866 586 101.007 1342.14 490.295
1193 0 49.1314 12.0493 592 102.559 1342.84 486.649
1194 0 52.1633 12.4609 650 100.417 1343.48 487.434
1195 0 52.1458 11.4103 595 103.092 1343.92 486.156
1196 0 54.2146 12.7825 693 99.9105 1345.61 484.46
1197 0 57.192 13.4284 768 98.1888 1345.73 482.422
1198 0 60.1354 14.4175 867 95.3172 1346.96 481.228
1199 0 63.0897 14.1069 890 95.4775 1347.6 481.469
1200 0 64.1312 12.7083 815 97.2773 1349.82 482.265
1201 0 67.1162 13.2308 888 96.5496 1352.52 479.666
1202 0 68.1817 13.2147 901 98.1998 1354.33 479.867
1203 0 73.0911 12.7923 935 98.5604 1355.25 478.973
1204 1 39.0133 11.3038 441 97.1565 1357.57 496.832
1205 0 40.0313 12.2154 489 97.2393 1358.68 494.9
1206 0 41.0306 12.2591 503 143.69 1359.67 495.185
1207 0 44.0484 11.8506 522 97.7624 1358.9 498.421
1208 0 46.0603 13.3738 616 97.9675 1356.87 495.948
1209 0 47.1262 12.3286 581 100.666 1356.05 497.103
1210 0 49.098 13.0759 642 101.072 1354.43 496.417
1211 0 51.063 13.3169 680 99.9912 1353.21 497.11
1212 0 51.0541 12.9079 659 103.551 1351.23 495.973
1213 0 56.0926 14.6365 821 99.497 1349.71 493.46
1214 0 58.1767 14.1637 824 101.193 1348.63 491.234
1215 0 61.0936 13.0456 797 103.888 1347.23 490.936
1216 0 61.0857 13.7675 841 104.064 1345.99 488.476
1217 0 64.1225 14.675 941 102.214 1345.79 486.445
1218 0 66.1156 14.3385 948 103.942 1345.26 484.441
1219 0 68.0789 13.6019 926 105.482 1345.35 482.297
1220 0 68.0867 14.0116 954 105.846 1345.27 481.191
1221 0 71.131 15.2957 1088 101.978 1345.87 478.436
1222 0 72.2902 14.0683 1017 106.338 1345.65 477.443
1223 1 37.1067 10.4294 387 107.682 1347.3 495.176
1224 0 37.1415 10.5004 390 107.508 1347.82 494.628
1225 0 38.0662 10.6131 404 105.797 1347.84 495.812
1226 0 39.1278 11.7563 460 105.643 1350.45 493.783
1227 0 38.1516 10.9563 418 107.39 1351.39 494.112
1228 0 39.1558 12.8206 502 101.922 1353.69 493.962
1229 0 41.0416 12.7675 524 99.3817 1355.68 496.334
1230 0 41.1008 11.8732 488 102.361 1357.3 495.625
1231 0 41.0312 12.3808 508 100.758 1359.09 497.874
1232 0 41.0141 11.9227 489 103.409 1359.18 498.37
1233 0 41.0333 11.7466 482 102.849 1359.77 500.72
1234 0 41.0264 12.3579 507 101.893 1359.06 500.637
1235 0 42.0254 12.4211 522 102.452 1357.74 502.082
1236 0 41.0248 11.6515 478 104.172 1357.06 504.682
1237 0 42.0467 12.3434 519 101.572 1355.41 503.744
1238 0 41.0255 12.3094 505 103.416 1353.7 502.64
1239 0 41.0203 11.4821 471 105.202 1351.6 504.459
1240 0 44.0324 13.263 584 100.173 1350.11 503.205
1241 0 41.0308 11.4548 470 105.536 1349.07 501.823
1242 0 43.009 12.9043 555 101.636 1347.28 500.827
1243 0 42.2257 12.1016 511 104.094 1346.57 500.25
1244 0 43.0262 11.83 509 103.167 1345.54 498.169
1245 0 43.1432 11.5661 499 104.519 1345.23 495.453
1246 0 46.0575 12.4192 572 99.3024 1344.64 495.881
1247 0 42.0354 12.8701 541 100.915 1344.64 494.715
1248 0 44.0523 12.5987 555 99.6559 1344.75 494.31
1249 0 43.0499 12.7294 548 99.7756 1345.95 492.484
1250 0 44.0143 12.5414 552 99.4348 1346.35 492.531
1251 0 45.0154 14.2173 640 95.3812 1347.37 492.659
1252 0 47.029 13.2259 622 94.5418 1348.35 493.148
1253 0 45.0537 12.2742 553 97.0452 1348.51 493.488
1254 0 46.0395 13.3147 613 92.7618 1350.54 493.54
1255 0 46.0543 13.4189 618 91.4773 1352.27 494.701
1256 0 45.0972 12.4176 560 93.8125 1354.7 495.212
1257 0 47.1134 14.688 692 89.2962 1356.19 495.571
