time division length width area intensity CMx CMy
0 0 41.1307 13.0559 537 117.795 1270.27 484.142
1 0 42.115 14.8641 626 110.931 1269.06 485.824
2 0 42.2029 13.1981 557 118.386 1269.87 484.212
3 0 42.2477 12.5214 529 120.745 1269.92 483.486
4 0 44.1645 12.5893 556 117.603 1270.03 482.901
5 0 44.1459 13.7046 605 116.068 1270.33 483.81
6 0 45.1628 14.1267 638 115.459 1270 481.757
7 0 46.1013 14.2078 655 115.924 1269.63 480.559
8 0 44.111 13.1487 580 119.395 1269.91 481.355
9 0 47.0619 13.8328 651 117.737 1269.54 479.716
10 0 49.1262 15.1447 744 111.659 1269.67 479.578
11 0 51.225 14.8365 760 112.52 1269.71 479.292
12 0 50.075 14.5382 728 115.011 1270.49 479.834
13 0 52.1239 13.3912 698 117.427 1269.39 477.951
14 0 51.1433 13.7848 705 118.488 1269.44 476.53
15 0 52.0412 14.3156 745 117.458 1269.28 477.793
16 0 54.0982 13.531 732 118.474 1269.62 477.399
17 0 53.1117 13.3116 707 119.406 1269.55 477.605
18 0 56.0773 13.9807 784 117.312 1269.12 475.976
19 0 59.0531 15.1558 895 114.296 1269.72 475.785
20 0 58.0454 13.4033 778 119.639 1268.74 474.203
21 0 61.1032 15.6948 959 113.529 1269.09 473.957
22 0 65.0575 15.0329 978 113.191 1269.26 473.893
23 0 65.1755 15.2511 994 112.986 1270.16 472.601
24 1 34.0156 10.9362 372 119.653 1269.97 486.261
25 0 34.0114 11.5256 392 118.556 1270.51 487.633
26 0 37.0293 12.5846 466 114.564 1271.64 488.208
27 0 36.0784 12.362 446 118.652 1272.04 486.395
28 0 40.104 11.8691 476 116.838 1271.55 486.571
29 0 39.0313 12.2466 478 117.743 1271.72 485.799
30 0 39.0608 11.8533 463 118.305 1271.54 485.14
31 0 42.0753 11.9548 503 119.465 1271.68 483.179
32 0 43.0419 15.2177 655 112.009 1272.15 482.711
33 0 45.1168 13.1437 593 117.889 1272.54 482.003
34 0 45.0995 14.6343 660 115.032 1273.7 481.605
35 0 46.178 13.5995 628 118.411 1272.99 481.545
36 0 46.074 14.4116 664 119.203 1272.68 479.979
37 0 47.1568 13.9959 660 120.87 1273.53 480.244
38 0 50.1577 15.0326 754 117.749 1273.76 479.406
39 0 51.1165 14.868 760 119.257 1273.12 478.007
40 0 53.0764 14.3378 761 120.422 1274.24 479.012
41 0 55.0629 13.8751 764 121.41 1274.66 477.653
42 0 56.109 15.3095 859 119.057 1274.47 477.26
43 0 57.0298 14.7291 840 119.848 1274.2 475.767
44 0 59.1036 14.4661 855 120.195 1274.09 475.792
45 0 61.0676 14.6395 894 119.799 1274.89 474.749
46 0 62.0392 13.8622 860 121.953 1275.03 475.812
47 0 65.0841 15.0728 981 118.168 1275.08 475.115
48 0 69.1199 15.5816 1077 116.419 1274.79 474.065
49 0 70.0896 14.2817 1001 119.988 1274.24 472.548
50 0 72.1224 14.5863 1052 120.396 1274.87 470.74
51 0 77.1389 14.61 1127 116.642 1274.65 470.143
52 1 39.0715 12.234 478 115.657 1274.71 488.866
53 0 39.0275 12.299 480 115.796 1274.33 488.723
54 0 41.0359 12.1357 498 116.691 1274.05 485.94
55 0 42.2276 12.8589 543 115.267 1274.15 484.49
56 0 44.0969 13.493 595 114.331 1273.64 485.126
57 0 48.0651 13.8146 664 109.845 1273.84 484.218
58 0 46.1526 13.3904 618 114.249 1273.86 483.222
59 0 49.1246 14.1884 697 112.023 1273.99 482.043
60 0 49.0542 12.8837 632 112.1 1273.99 482.679
61 0 53.1893 14.1194 751 109.972 1273.98 479.511
62 0 55.2415 13.6673 755 107.785 1274.01 479.377
63 0 56.3271 13.972 787 108.126 1274.66 476.727
64 0 58.1854 14.2304 828 106 1275.24 478.506
65 0 61.325 14.2356 873 105.439 1274.93 477.745
66 0 64.1274 14.1749 909 105.131 1275.31 475.107
67 0 66.2285 14.6916 973 101.959 1275.78 477.208
68 0 68.1011 14.8162 1009 101.819 1275.9 475.345
69 0 69.251 13.1406 910 106.058 1276.09 471.01
70 0 74.2466 14.7751 1097 103.325 1274.61 470.047
71 0 77.1709 14.7206 1136 103.398 1275.83 469.423
72 1 40.0951 11.6473 467 105.283 1275.94 485.152
73 0 40.1535 11.5557 464 105.942 1273.97 484.746
74 0 44.0253 12.3111 542 101.651 1274.93 486.633
75 0 45.0963 13.8371 624 101.332 1275.38 485.519
76 0 44.1335 12.9833 573 106.154 1274.83 483.171
77 0 49.0651 15.0209 737 99.8494 1275.15 483.392
78 0 48.2032 13.0904 631 105.566 1275.49 481.428
79 0 51.0748 14.1753 724 102.157 1275.3 483.039
80 0 50.1228 12.9881 651 106.934 1275.39 481.768
81 0 53.0866 13.5816 721 105.072 1276.02 481.365
82 0 55.2329 14.0496 776 104.012 1275.96 479.697
83 0 58.1662 14.9571 870 102.777 1275.76 478.838
84 0 57.1 13.8529 791 106.169 1276 477.551
85 0 60.226 14.9935 903 103.047 1276.08 477.09
86 0 62.3796 14.6843 916 104.18 1275.94 474.876
87 0 67.389 16.0412 1081 100.867 1275.95 476.343
88 0 67.2239 14.7715 993 105.371 1276.14 473.232
89 0 69.1738 15.237 1054 104.186 1275.31 472.814
90 0 73.2091 14.684 1075 104.965 1275.58 470.076
91 1 37.2664 11.2166 418 106.289 1275.49 487.596
92 0 37.1123 12.9337 480 104.912 1275.95 485.033
93 0 38.0429 12.4859 475 103.964 1275.9 485.947
94 0 41.1265 12.1333 499 103.745 1276 485.319
95 0 40.1424 12.4307 499 106.244 1276.18 483.996
96 0 44.1042 13.2414 584 102.99 1276.48 483.842
97 0 43.0398 12.2677 528 105.019 1276.86 483.523
98 0 47.0589 13.685 644 101.581 1278.02 481.595
99 0 49.1415 15.5266 763 96.5845 1277.15 482.261
100 0 50.1439 13.0624 655 102.391 1276.37 481.102
101 0 50.1664 13.3755 671 103.174 1276.79 480.168
102 0 53.1039 14.2174 755 101.199 1276.93 477.702
103 0 54.0392 12.7315 688 102.855 1276.56 479.842
104 0 57.1816 15.7918 903 97.4983 1276.64 477.573
105 0 57.2552 13.7804 789 102.119 1277.17 476.959
106 0 60.1601 13.115 789 103.175 1277.16 476.395
107 0 62.167 14.1393 879 101.722 1277.12 475.609
108 0 65.2137 15.1349 987 99.0334 1277.75 475.748
109 0 64.2256 13.219 849 104.031 1277.57 474.022
110 0 69.292 13.9121 964 102.498 1277.67 473.89
111 0 69.1783 14.3253 991 103.11 1277.46 473.214
112 0 72.3116 14.3822 1040 103.346 1277.41 471.336
113 1 41.0588 11.5444 474 102.629 1276.86 488.447
114 0 40.0192 11.1696 447 106.143 1276.3 486.917
115 0 43.0799 12.7206 548 103.641 1276.85 485.77
116 0 45.1151 12.1024 546 104.875 1276.61 486.496
117 0 47.0779 12.6386 595 103.047 1276.68 486.41
118 0 48.1674 14.0759 678 101.763 1277.22 484.951
119 0 50.0437 13.6081 681 101.49 1275.7 485.285
120 0 52.2519 14.4301 754 100.55 1275.85 482.757
121 0 53.3525 14.6385 781 101.344 1275.39 481.154
122 0 54.1796 13.7875 747 101.744 1275.09 481.475
123 0 57.1324 13.3549 763 103.537 1274.71 479.267
124 0 60.1187 13.3902 805 102.002 1275.04 480.575
125 0 63.135 12.9722 819 101.333 1275.09 480.753
126 0 62.1386 13.148 817 104.793 1275.08 476.25
127 0 65.1893 14.2355 928 102.623 1274.95 475.334
128 0 68.0783 14.689 1000 101.032 1274.57 474.822
129 0 68.1353 14.5299 990 102.322 1275.25 474.182
130 0 69.1766 14.9039 1031 103.18 1275.92 472.259
131 0 72.0709 14.0972 1016 105.166 1276.63 470.136
132 0 75.1767 15.5633 1170 103.292 1276.87 469.006
133 0 76.1623 14.3115 1090 104.985 1275.99 470.501
134 0 80.1226 15.0519 1206 102.542 1276.62 469.074
135 0 84.4182 15.6601 1322 100.685 1277.46 466.347
136 0 85.1167 15.4611 1316 102.436 1276.93 464.261
137 1 45.057 12.4731 562 101.397 1277.09 485.968
138 0 47.0102 11.9761 563 103.462 1276.72 484.167
139 0 47.0877 11.1919 527 104.37 1277.1 485.199
140 0 50.1548 13.2789 666 102.721 1277.36 482.814
141 0 52.1353 15.3831 802 97.1135 1277.25 484.277
142 0 54.0652 14.8154 801 98.5968 1277.16 483.593
143 0 53.1184 13.3099 707 103.175 1277.45 481.777
144 0 56.0662 14.0727 789 101.023 1277.1 482.502
145 0 57.095 13.4688 769 104.547 1276.7 479.701
146 0 59.0805 13.4224 793 103.768 1276.54 478.91
147 0 61.1035 13.7963 843 103.122 1276.47 478.106
148 0 63.2885 14.1258 894 102.157 1275.38 478.398
149 0 64.1036 13.4782 864 103.339 1274.74 478.481
150 0 66.1901 14.7454 976 101.684 1274.97 477.139
151 0 70.1386 14.5141 1018 102.149 1274.86 474.514
152 0 71.1311 14.1288 1005 103.28 1274.89 473.62
153 0 74.1408 13.3395 989 105.223 1274.5 473.068
154 0 78.1568 15.3921 1203 101.288 1274.64 470.399
155 0 80.0861 14.5344 1164 103.733 1274.73 469.398
156 1 46.0739 12.6753 584 100.801 1275.23 486.786
157 0 44.0189 11.1997 493 104.095 1275.46 488.479
158 0 48.1301 12.8402 618 101.822 1275.17 485.846
159 0 47.0948 13.8232 651 102.412 1275.31 483.906
160 0 50.0576 12.8851 645 103.248 1275.19 482.664
161 0 51.2006 12.9881 665 102.002 1274.86 483.756
162 0 51.0594 12.8086 654 104.445 1275.48 483.061
163 0 54.1121 13.01 704 104.53 1275.52 481.253
164 0 57.1425 13.0726 747 103.689 1276.02 481.023
165 0 56.1398 13.3595 750 104.997 1276.28 479.873
166 0 60.0411 13.2909 798 105.997 1275.96 477.662
167 0 59.1164 12.3316 729 109.056 1276.92 477.975
168 0 65.0873 14.7187 958 103.894 1276.41 475.157
169 0 68.1279 15.9406 1086 100.319 1276.4 475.929
170 0 68.0775 11.957 814 107.113 1276.87 478.564
171 0 69.1413 13.3784 925 107.218 1277.19 475.558
172 0 73.1191 14.6747 1073 105.5 1276.53 473.844
173 0 74.0868 14.4965 1074 107.414 1275.8 473.151
174 1 39.0821 10.5675 413 106.789 1276.08 490.705
175 0 42.02 11.4231 480 105.748 1276.55 488.648
176 0 44.0589 12.8237 565 103.451 1276.13 489.411
177 0 45.013 12.4631 561 103.62 1276.03 489.289
178 0 46.0804 11.545 532 106.273 1275.87 488.165
179 0 47.0863 11.6382 548 106.046 1275.6 487.901
180 0 48.1124 12.4084 597 105.809 1274.63 486.467
181 0 49.1542 12.0641 593 106.479 1274.37 485.607
182 0 52.0884 13.8994 724 102.732 1274.59 484.124
183 0 53.0786 13.8097 733 103.052 1274.58 484.063
184 0 55.1796 12.7402 703 103.919 1274.36 483.743
185 0 57.1871 14.811 847 99.6281 1274.45 482.054
186 0 57.1488 12.2487 700 105.773 1274.24 481.227
187 0 58.1745 12.0328 700 107.334 1274.47 479.839
188 0 62.2424 14.4757 901 101.97 1273.91 478.607
189 0 64.1852 14.6451 940 100.946 1274.14 478.536
190 0 66.1809 13.0098 861 104.718 1273.73 475.861
191 0 67.231 12.3009 827 105.167 1273.72 477.328
192 0 71.211 13.116 934 104.125 1273.93 473.761
193 0 71.1851 12.6009 897 106.406 1273.74 472.511
194 1 40.1873 10.9736 441 102.238 1274.23 487.737
195 0 40.0776 10.2551 411 102.08 1274.48 489.684
196 0 42.0536 13.0548 549 98.8124 1275.09 486.88
197 0 43.0621 11.1699 481 101.871 1274.77 487.191
198 0 43.198 11.3663 491 103.33 1275.26 486.597
199 0 46.137 11.5959 535 103.323 1275.92 485.009
200 0 48.2725 13.1545 635 100.646 1275.3 483.578
201 0 47.1599 10.9415 516 105.587 1275.59 483.7
202 0 50.3569 12.6894 639 102.246 1274.98 483.031
203 0 52.1486 13.6725 713 99.4642 1275.16 483.025
204 0 54.1868 12.4754 676 102.709 1274.58 482.138
205 0 55.1005 13.6296 751 101.358 1275.06 480.16
206 0 57.201 12.797 732 103.296 1274.67 479.761
207 0 58.3458 12.9058 753 102.009 1275.58 481.749
208 0 60.2809 13.3873 807 101.509 1274.89 479.344
209 0 63.1997 12.8007 809 102.355 1274.31 478.061
210 0 64.2683 12.6657 814 102.29 1274.87 479.555
211 0 68.2371 15.0358 1026 97.8645 1274.89 475.636
212 0 69.3201 12.1754 844 104.332 1274.43 476.48
213 0 70.2896 12.7615 897 104.28 1274.47 473.892
214 1 42.0411 10.8703 457 100.549 1274.75 489.744
215 0 42.0822 9.98047 420 103.307 1274.85 489.224
216 0 44.0346 11.7408 517 102.513 1274.1 486.938
217 0 44.0715 12.0486 531 102.482 1273.65 486.164
218 0 46.1911 12.5565 580 102.088 1273.82 485.562
219 0 46.1911 12.5349 579 136.775 1274.81 485.532
220 0 47.1496 12.0892 570 105.226 1273.54 483.532
221 0 50.158 12.5603 630 103.929 1273.69 484.181
222 0 52.2189 12.8498 671 104.007 1273.58 482.82
223 0 53.1348 13.5693 721 103.544 1273.64 481.576
224 0 55.1195 12.6815 699 103.977 1273.21 483.059
225 0 56.1762 13.3687 751 104.671 1272.96 479.866
226 0 57.1456 13.5618 775 104.85 1273.74 477.685
227 0 61.0979 12.9792 793 104.569 1273.95 478.511
228 0 64.1178 14.333 919 102.346 1274.2 477.542
229 0 64.1074 13.1498 843 106.108 1274.47 476.361
230 0 66.1468 12.8804 852 105.094 1274.61 475.411
231 0 69.1442 13.6237 942 104.001 1274.69 472.897
232 0 71.1656 13.4756 959 104.568 1274.85 471.315
233 0 74.0707 13.0821 969 104.224 1275.43 470.056
234 0 76.1166 13.0195 991 106.245 1275.03 468.641
235 0 79.114 12.9054 1021 108.08 1275.35 465.432
236 0 82.2102 13.0276 1071 108.152 1275.17 465.815
237 0 86.2076 14.6043 1259 105.249 1275.11 465.67
238 1 45.1109 11.7045 528 103.898 1276.54 487.617
239 0 48.1041 12.8679 619 102.315 1276.58 487.079
240 0 47.0758 12.7667 601 103.446 1276.7 487.797
241 0 49.048 12.4572 611 105.111 1276.07 486.538
242 0 53.2436 13.5603 722 101.744 1275.36 485.834
243 0 55.1118 12.901 711 103.532 1275.15 485.606
244 0 54.0454 13.1556 711 105.111 1275.35 483.795
245 0 58.113 12.7338 740 103.784 1275.23 483.666
246 0 60.2013 13.3552 804 103.486 1275.12 481.215
247 0 60.2041 14.5837 878 102.599 1274.98 480.35
248 0 62.1688 13.769 856 102.461 1274.87 482.666
249 0 66.1043 14.1443 935 101.811 1273.74 480.295
250 0 66.231 12.6678 839 105.914 1273.45 478.192
251 0 66.1614 13.2857 879 105.733 1272.98 476.744
252 0 72.079 14.9974 1081 102.115 1273.6 474.317
253 0 72.1866 14.8504 1072 103.581 1273.23 472.866
254 0 74.0943 13.8067 1023 105.546 1273.61 471.774
255 0 77.2015 13.7692 1063 105.53 1273.35 471.947
256 0 82.2565 14.9168 1227 102.897 1274.13 469.513
257 0 82.1025 13.4588 1105 106.898 1273.46 467.912
258 1 45.079 11.0251 497 103.952 1273.68 487.964
259 0 46.0211 11.7555 541 102.163 1274.28 486.187
260 0 45.0722 11.1155 501 104.102 1274.98 486.18
261 0 47.0764 10.9609 516 104.335 1274.59 484.26
262 0 50.0622 12.3446 618 102.045 1274.62 483.513
263 0 49.1088 13.297 653 101.919 1275.98 481.19
264 0 51.0763 11.9233 609 104.34 1275.8 482.576
265 0 53.0551 11.7802 625 103.038 1276.62 481.302
266 0 56.133 13.4146 753 99.9681 1276.54 481.6
267 0 57.1248 13.0941 748 102.091 1276.63 479.357
268 0 60.1562 13.4317 808 100.418 1277.07 480.791
269 0 61.2854 14.049 861 100.393 1277.2 480.53
270 0 60.1634 12.5325 754 106.373 1277.09 478.647
271 0 63.2607 12.8042 810 104.875 1276.57 478.772
272 0 66.1935 14.1252 935 103.739 1276.74 477.741
273 0 69.0923 13.0695 903 106.019 1276.45 476.808
274 0 71.2227 13.4508 958 105.783 1276.57 476.587
275 0 74.3543 13.8257 1028 105.594 1276.64 475.328
276 0 77.3536 14.0265 1085 105.11 1276.07 475.23
277 0 78.163 15.0583 1177 104.761 1275.95 473.154
278 0 81.261 14.3365 1165 105.086 1275.4 472.625
279 1 45.0805 11.9786 540 104.88 1274.86 490.03
280 0 45.1724 11.3786 514 104.765 1274.39 491.068
281 0 47.201 13.7497 649 102.367 1274.45 487.071
282 0 47.0974 12.1663 573 106.382 1274.17 485.387
283 0 50.1974 12.2715 616 105.903 1274.19 485.917
284 0 52.1709 13.0149 679 104.875 1273.65 487.704
285 0 53.1605 13.2617 705 104.217 1273.21 485.522
286 0 55.0834 13.7246 756 103.386 1272.42 482.001
287 0 56.1123 13.7047 769 103.887 1273.39 481.351
288 0 57.0811 12.6487 722 106.262 1273.16 479.949
289 0 59.1149 13.0931 774 105.061 1273.48 479.585
290 0 62.1565 17.1181 1064 96.7096 1274.01 478.446
291 0 61.0707 13.3779 817 106.64 1273.88 475.737
292 0 67.1249 14.6443 983 100.729 1273.81 477.493
293 0 66.1281 13.9124 920 103.992 1274.19 475.523
294 0 71.1363 14.0294 998 101.653 1274.63 475.398
295 0 70.2233 12.5884 884 107.169 1275.12 474.11
296 0 74.048 13.6398 1010 103.554 1275.95 473.959
297 0 76.098 14.731 1121 104.352 1276.61 470.71
298 0 79.2837 14.8202 1175 104.544 1276.14 469.201
299 1 43.1222 11.3167 488 105.367 1276.75 488.102
300 0 44.0272 11.9926 528 105.167 1278 488.693
301 0 47.0095 11.7423 552 104.351 1277.56 489.085
302 0 48.0408 12.8224 616 104.205 1277.38 487.398
303 0 48.1246 11.8443 570 107.772 1277.21 487.621
304 0 50.0944 13.255 664 106 1276.78 487.789
305 0 52.0943 13.3412 695 105.761 1275.97 486.748
306 0 54.0345 13.3248 720 106.099 1275.81 487.711
307 0 55.0517 12.6427 696 107.44 1275.88 486.191
308 0 60.2536 13.9743 842 103.545 1275.98 486.215
309 0 60.1131 13.1585 791 107.781 1275.61 484.135
310 0 62.257 13.7013 853 106.933 1274.83 483.097
311 0 64.1202 14.2077 911 106.896 1274.73 481.205
312 0 66.05 13.5958 898 110.066 1274.17 480.245
313 0 66.1279 13.8217 914 111.237 1273.67 477.24
314 0 71.098 15.3591 1092 107.067 1273.94 476.827
315 0 72.1237 13.0332 940 112.678 1273.18 475.657
316 0 78.079 13.909 1086 110.61 1272.69 474.228
317 0 78.1106 14.5179 1134 113.375 1272.29 470.894
318 1 41.0164 11.5807 475 109.042 1272.31 491.046
319 0 43.1506 12.1667 525 108.503 1272.19 490.425
320 0 42.1211 11.3245 477 112.748 1273.04 488.468
321 0 46.1094 12.5137 577 108.123 1274.02 488.938
322 0 44.2513 12.2708 543 112.648 1274.33 486.888
323 0 47.1782 12.5482 592 110.959 1274.39 485.929
324 0 49.0866 11.9992 589 113.774 1274.87 485.891
325 0 50.0518 12.5071 626 111.476 1275.75 485.727
326 0 53.0583 14.4558 767 109.283 1276.3 483.563
327 0 54.0965 13.7902 746 110.666 1276.88 483.282
328 0 55.2525 12.3614 683 115.493 1276.72 481.865
329 0 58.1509 13.3102 774 112.217 1275.32 480.255
330 0 60.1297 12.7724 768 112.73 1276.23 481.883
331 0 62.1218 13.3769 831 113.118 1276.51 480.367
332 0 63.0979 13.8673 875 112.472 1276.71 480.537
333 0 65.1991 15.3223 999 110.575 1276.15 479.569
334 0 67.0565 12.9443 868 115.167 1276.92 479.687
335 0 69.1259 13.9745 966 113.265 1276.4 478.12
336 0 71.0614 13.1154 932 115.174 1276.84 477.753
337 0 75.1663 14.5012 1090 111.333 1277.06 478.25
338 0 77.0861 14.2568 1099 113.972 1277.25 474.914
339 0 80.153 14.8466 1190 111.699 1276.42 473.829
340 0 84.0906 14.4844 1218 111.742 1276.57 472.953
341 0 86.077 13.1859 1135 116.877 1275.03 468.384
342 1 47.0261 10.5899 498 112.295 1274.13 491.807
343 0 49.1114 11.6063 570 113.167 1273.17 488.439
344 0 51.2299 12.1609 623 111.178 1273.08 486.82
345 0 52.1819 12.4181 648 111.245 1273.11 485.244
346 0 54.084 13.3866 724 109.594 1272.99 483.823
347 0 55.1189 11.8834 655 113.173 1272.36 482.956
348 0 58.0673 11.7106 680 111.907 1273.33 483.399
349 0 59.0687 12.1892 720 112.285 1272.43 480.947
350 0 60.1895 12.7265 766 112.486 1272.86 479.057
351 0 63.0918 13.1871 832 110.114 1272.37 477.78
352 0 65.2666 12.5179 817 112.933 1272.13 474.916
353 0 66.2685 14.3658 952 108.445 1272.51 475.159
354 0 69.08 12.9994 898 111.8 1272.16 472.47
355 0 72.3493 13.7389 994 109.228 1272.74 473.057
356 0 73.2579 12.5447 919 113.15 1273.54 471.424
357 0 76.1693 13.982 1065 110.161 1274.34 467.925
358 1 41.1346 12.2038 502 107.886 1275.22 486.203
359 0 42.0898 9.90739 417 111.151 1276.06 487.549
360 0 45.1344 11.1002 501 107.99 1276.62 486.892
361 0 47.1119 10.9951 518 109.264 1277.81 486.125
362 0 48.0577 12.7971 615 106.577 1277.89 485.847
363 0 50.1148 11.5934 581 108.895 1277.69 485.664
364 0 53.1367 12.4208 660 106.855 1277.7 484.944
365 0 54.1381 13.1885 714 105.825 1277.37 484.763
366 0 55.203 13.4051 740 106.995 1277.25 483.912
367 0 57.1897 11.3482 649 109.507 1277.39 485.099
368 0 59.1587 12.6778 750 107.035 1276.8 485.013
369 0 62.1089 13.5407 841 105.908 1276.41 482.855
370 0 64.1665 12.7013 815 107.178 1275.9 481.564
371 0 67.1942 13.1112 881 104.487 1275.32 482.284
372 0 69.1603 12.8831 891 106.456 1274.82 479.223
373 0 69.1195 12.6014 871 107.566 1275.19 478.317
374 0 73.1632 13.1897 965 106.05 1274.11 475.252
375 0 75.3023 12.7619 961 107.409 1273.3 475.583
376 0 78.1106 13.7881 1077 105.89 1272.24 470.974
377 0 81.3049 13.5293 1100 104.05 1272.31 470.141
378 1 42.0826 10.5031 442 104.661 1271.77 488.785
379 0 46.0525 10.792 497 100.262 1271.57 489.586
380 0 46.0289 11.9925 552 100.293 1271.83 487.089
381 0 49.0844 12.3665 607 99.1796 1271.77 484.936
382 0 51.0592 11.5356 589 101.093 1272.57 482.723
383 0 52.0929 12.6697 660 98.1348 1272.71 482.965
384 0 52.1405 11.5457 602 100.211 1272.91 481.738
385 0 53.0963 11.5827 615 100.725 1273.15 481.836
386 0 55.155 13.181 727 98.2077 1273.14 480.546
387 0 58.0923 14.1155 820 95.9537 1274.06 479.599
388 0 58.2806 12.1138 706 98.8343 1275.68 479.132
389 0 62.1682 15.1524 942 92.6826 1276.25 478.311
390 0 64.1851 14.318 919 94.5691 1276.54 477.413
391 0 65.0872 13.8891 904 95.4591 1276.62 478.462
392 0 67.2018 14.0621 945 94.9481 1277.44 477.528
393 0 70.1034 13.9223 976 95.2418 1277.56 475.986
394 0 71.3427 12.8534 917 97.7993 1277.83 476.526
395 0 74.1621 15.0481 1116 94.5045 1277.66 474.032
396 0 78.1474 14.6646 1146 94.3342 1277.8 477.216
397 0 80.2426 15.3784 1234 94.1442 1276.8 474.865
398 0 83.1856 14.113 1174 96.3092 1276.57 475.806
399 0 85.1437 14.2113 1210 96.5983 1276.55 473.015
400 1 46.0674 11.4181 526 98.1122 1276.23 489.538
401 0 49.0935 11.6309 571 95.1313 1274.99 489.949
402 0 49.0608 11.1902 549 96.4772 1274.28 489.033
403 0 52.278 13.0457 682 93.2493 1274.9 487.129
404 0 55.1343 13.3492 736 92.1332 1274.09 486.754
405 0 53.0959 11.5828 615 96.6959 1273.28 486.132
406 0 56.1124 13.3482 749 93.8224 1273.37 484.526
407 0 56.4452 12.7735 721 95.4397 1272.51 482.011
408 0 59.2491 13.5192 801 94.0712 1272.27 481.898
409 0 60.189 13.0589 786 96.0954 1272.24 479.561
410 0 61.1711 12.9963 795 96.5057 1272.11 477.418
411 0 64.3695 13.5779 874 95.6419 1271.75 478.066
412 0 65.3302 13.0874 855 97.338 1271.83 474.006
413 0 70.1719 14.151 993 94.145 1272.16 473.522
414 0 72.2901 13.1 947 96.9852 1272.77 472.909
415 0 72.1337 12.2412 883 98.8041 1273.82 473.542
416 0 76.1167 12.9932 989 99.3468 1274.26 471.495
417 1 41.0192 11.1168 456 96.7259 1275.49 488.004
418 0 44.1018 11.8589 523 94.8241 1276.24 487.579
419 0 43.0643 13.6772 589 93.7165 1277.17 487.462
420 0 46.0537 11.986 552 96.5018 1277.96 487.321
421 0 45.071 12.1364 547 100.318 1278.73 485.441
422 0 49.0828 13.2633 651 97.5284 1279.07 485.536
423 0 50.1043 13.7314 688 97.9055 1279.33 484.337
424 0 51.1173 12.7745 653 99.1179 1279.09 487.089
425 0 52.1033 12.9742 676 99.5133 1279.38 486.738
426 0 55.0971 12.0696 665 100.983 1279.21 486.492
427 0 57.1941 14.0574 804 96.8993 1278.97 486.269
428 0 62.0836 14.3194 889 96.9269 1277.77 484.408
429 0 64.0401 13.757 881 98.3258 1277.88 483.169
430 0 64.02 12.8085 820 101.244 1277.64 483.237
431 0 68.0799 14.8502 1011 97.3442 1276.37 480.306
432 0 71.1611 13.2797 945 99.7344 1275.63 479.485
433 0 73.1622 13.3266 975 100.826 1274.93 477.685
434 1 37.0502 11.4979 426 99.0563 1274.71 495.157
435 0 40.0625 11.2824 452 99.6792 1273.67 493.179
436 0 42.261 11.8076 499 98.9599 1273.27 491.693
437 0 41.1114 12.1621 500 100.712 1273.03 488.406
438 0 43.0128 12.3684 532 100.564 1272.49 487.468
439 0 44.3788 12.0553 535 102.14 1271.73 486.385
440 0 47.1228 13.8574 653 98.2358 1271.78 485.562
441 0 48.3604 14.1231 683 97.1947 1271.79 484.04
442 0 50.1785 13.2925 667 98.4108 1272.02 484.586
443 0 50.0408 13.9686 699 99.4578 1271.63 481.701
444 0 54.2304 14.0696 763 98.0328 1272.49 480.236
445 0 54.2493 12.8665 698 99.851 1273.29 481.205
446 0 56.2313 13.0532 734 101.955 1273.28 477.599
447 0 57.1978 12.8152 733 102.487 1274.97 478.502
448 0 60.2577 13.7244 827 100.874 1275.67 477.549
449 0 62.0635 14.0823 874 100.034 1276.58 476.762
450 0 66.2231 13.9377 923 98.6847 1278.03 477.563
451 0 67.2616 12.8751 866 102.682 1278.25 475.589
452 1 35.1328 10.8446 381 101.084 1279.59 493.612
453 0 36.2073 10.6332 385 103.595 1279.65 492.055
454 0 38.2503 9.98684 382 102.848 1279.18 494.005
455 0 39.0968 12.0982 473 101.543 1278.81 491.452
456 0 41.0406 12.8653 528 100.678 1278.21 491.125
457 0 42.0902 12.8296 540 101.161 1277.78 492.541
458 0 45.1777 13.4137 606 99.2475 1277.74 492.769
459 0 46.1803 12.9492 598 102.436 1277.64 490.408
460 0 47.1488 12.7893 603 103.265 1277.26 490.302
461 0 48.1078 12.2641 590 104.373 1276.14 489.546
462 0 52.1779 12.9174 674 102.791 1275.14 489.177
463 0 52.2563 13.2424 692 104.078 1274.25 486.111
464 0 53.1592 13.3373 709 103.622 1273.93 486.305
465 0 57.2611 13.1678 754 103.237 1272.97 483.916
466 0 59.2059 14.2384 843 100.331 1272.1 481.045
467 0 61.315 14.1727 869 100.395 1272.4 480.858
468 0 62.0847 14.4641 898 100.777 1272.86 478.616
469 0 66.2146 14.5436 963 98.9564 1272.72 477.336
470 0 66.2096 13.714 908 102.717 1271.66 474.776
471 0 69.2732 13.4395 931 101.248 1271.81 473.859
472 0 72.3609 14.8423 1074 98.3985 1272.03 472.285
473 0 73.2568 15.1522 1110 99.4396 1272.04 469.033
474 0 77.1514 14.2966 1103 99.5122 1272.93 467.304
475 0 80.3938 13.1727 1059 99.8924 1273.52 469.346
476 1 42.1112 12.3958 522 98.4598 1273.93 485.088
477 0 41.0863 12.4129 510 99.998 1275.42 483.78
478 0 44.2784 12.1504 538 97.026 1276.76 482.747
479 0 47.2515 12.6768 599 95.0117 1278.23 484.279
480 0 47.0914 13.3995 631 96.1696 1278.86 483.818
481 0 49.224 12.9408 637 97.0597 1279.15 483.978
482 0 51.1163 12.7357 651 99.5607 1279.64 483.445
483 0 52.1948 12.9132 674 100.117 1279.95 483.496
484 0 54.1947 14.1158 765 97.9255 1280.38 483.467
485 0 56.1442 12.7173 714 102.043 1279.67 482.389
486 0 58.1585 13.8931 808 99.9913 1279.17 483.908
487 0 61.0297 14.8944 909 98.6568 1278.57 482.482
488 0 63.1767 13.6759 864 101.365 1277.84 482.196
489 0 66.3054 13.468 893 102.131 1277.26 480.821
490 0 67.1176 13.7073 920 102.57 1276.58 479.48
491 0 71.0972 13.7839 980 101.88 1275.59 478.547
492 0 74.1673 14.3729 1066 101.908 1274.61 476.261
493 0 76.0761 14.5512 1107 103.42 1273.84 474.424
494 0 78.2705 14.5904 1142 103.849 1273 471.914
495 0 81.0678 14.9011 1208 104.943 1272.78 469.31
496 0 83.2727 15.2151 1267 104.694 1271.84 467.133
497 0 85.3152 13.1864 1125 109.525 1271.32 467.078
498 0 89.1891 13.533 1207 109.608 1270.79 462.884
499 1 48.0529 10.3428 497 110.28 1270.98 483.519
500 0 49.0742 12.4098 609 107.486 1271.6 481.466
501 0 51.1213 12.2454 626 108.236 1271.3 479.743
502 0 54.0827 13.4794 729 105.807 1272.23 477.32
503 0 56.0403 14.1327 792 103.48 1273.27 478.726
504 0 56.0728 12.4124 696 107.576 1273.78 477.365
505 0 59.0801 13.8287 817 104.761 1274.63 475.781
506 0 62.1486 13.4838 838 104.965 1275.92 476.007
507 0 64.0574 13.4098 859 105.378 1278.41 475.796
508 0 64.0659 14.1573 907 106.132 1279.52 474.451
509 0 67.0831 13.5205 907 106.541 1281.36 476.653
510 0 72.1373 15.0408 1085 103.656 1281.22 474.647
511 0 73.2585 14.2236 1042 107.219 1281.8 472.691
512 0 77.2075 15.2058 1174 103.574 1282.5 476.671
513 1 40.1055 9.92383 398 107.234 1282.27 494.173
514 0 43.1108 11.6908 504 105.99 1282.08 493.863
515 0 43.0647 12.2142 526 106.829 1280.56 493.002
516 0 44.1214 11.9443 527 109.129 1280.32 493.471
517 0 46.1524 13.2604 612 108 1279.68 494.01
518 0 48.019 11.5996 557 108.698 1278.01 495.212
519 0 51.0298 11.7382 599 108.185 1277 492.746
520 0 52.149 12.0232 627 107.766 1274.66 493.695
521 0 52.1329 12.2763 640 109.562 1273.72 491.688
522 0 55.0718 12.8196 706 108.602 1272.23 489.741
523 0 58.1053 13.3723 777 107.018 1271.2 489.21
524 0 58.2052 12.7136 740 109.128 1270.57 487.712
525 0 60.0727 13.0675 785 111.498 1269.91 485.554
526 0 63.1133 13.2935 839 110.535 1268.7 484.399
527 0 67.1201 13.6919 919 109.268 1268.21 483.561
528 0 67.098 13.7411 922 113.08 1267.65 480.461
529 0 69.1765 12.8945 892 116.114 1267.08 478.934
530 0 72.1693 14.369 1037 114.88 1266.85 474.947
531 1 38.1242 10.9904 419 112.804 1267.6 493.668
532 0 40.0374 12.0387 482 110.89 1268.38 493.517
533 0 40.176 10.9767 441 113.161 1269.14 494.721
534 0 42.077 12.287 517 111.944 1270.32 493.398
535 0 41.0854 12.7539 524 113.191 1272.1 493.429
536 0 44.197 12.037 532 113.979 1273.62 493.445
537 0 47.0603 13.2596 624 109.792 1275.46 494.061
538 0 47.1768 13.6084 642 112.606 1276.43 492.81
539 0 48.1162 12.9686 624 115.264 1278.19 493.7
540 0 50.0923 12.6966 636 118.307 1278.63 495.019
541 0 50.0895 13.0965 656 119.492 1279.18 494.97
542 0 53.1877 13.2737 706 118.652 1277.44 495.894
543 0 54.156 13.6088 737 120.444 1275.67 495.912
544 0 57.0598 13.4771 769 121.352 1275.01 493.815
545 0 60.1025 14.5252 873 118.888 1273.17 493.693
546 0 60.0825 13.2485 796 124.906 1271.41 491.91
547 0 63.1823 12.4877 789 125.337 1269.93 492.299
548 0 67.1178 14.2287 955 122.214 1268.97 489.296
549 0 68.1256 12.6237 860 127.003 1268.35 487.095
550 0 72.0923 13.2053 952 125.735 1266.61 483.032
551 1 39.0251 12.7098 496 121.47 1266.6 498.325
552 0 40.0941 11.8721 476 121.525 1266 497.786
553 0 41.036 12.1601 499 122.629 1265.9 495.16
554 0 42.026 11.8498 498 124.177 1265.3 494.285
555 0 45.0771 12.8447 579 120.718 1265.34 492.079
556 0 47.0178 12.3145 579 120.789 1264.94 490.553
557 0 48.0172 12.8495 617 119.767 1264.69 488.186
558 0 49.0417 12.9074 633 121.136 1264.95 485.836
559 0 51.0564 13.2403 676 119.738 1265.38 484.296
560 0 51.0859 12.0777 617 123.11 1266.07 484.464
561 0 54.0788 13.055 706 119.956 1266.76 482.459
562 0 56.1397 14.1967 797 117.513 1268.48 480.782
563 0 57.1443 12.6872 725 120.054 1270.56 480.265
564 0 59.1392 12.1239 717 121.335 1272.16 479.579
565 0 63.2228 13.6976 866 116.401 1274.15 479.65
566 0 63.0931 12.1249 765 120.49 1276.63 478.545
567 0 69.189 13.6582 945 114.66 1278.05 478.84
568 1 37.1709 10.0616 374 115.706 1279.82 493.837
569 0 41.1938 12.0649 497 112.115 1279.71 493.272
570 0 42.1159 12.2757 517 112.894 1279.38 495.524
571 0 43.0884 12.6484 545 115.358 1278.97 494.556
572 0 46.099 12.7118 586 114.747 1277.34 495.241
573 0 48.1773 13.4503 648 114.315 1277.36 494.997
574 0 50.1242 13.5463 679 115.072 1276.76 494.862
575 0 51.1513 13.4503 688 116.613 1275.51 495.217
576 0 53.1535 13.5269 719 118.019 1274.26 494.058
577 0 55.3878 13.7214 760 117.259 1272.39 492.371
578 0 55.1496 13.3818 738 121.29 1271.4 489.451
579 0 59.0803 14.5564 860 117.208 1270.26 488.95
580 0 60.1259 14.0538 845 118.905 1269.31 488.202
581 0 63.1573 13.9335 880 118.591 1268.56 486.875
582 0 65.1254 13.5892 885 120.808 1267.16 483.586
583 0 66.1511 13.6657 904 120.138 1266.76 481.644
584 0 67.1641 14.0998 947 119.087 1265.94 480.102
585 0 71.1743 13.2773 945 118.865 1266.11 480.524
586 0 75.1207 13.8843 1043 117.072 1265.9 477.284
587 1 41.0302 11.6012 476 115.655 1266.33 492.34
588 0 43.0203 12.0641 519 114.965 1267.37 489.742
589 0 43.0483 11.8936 512 115.926 1267.8 488.217
590 0 44.2625 12.2451 542 114.57 1268.88 487.137
591 0 46.0731 12.6538 583 114.431 1269.94 486.434
592 0 48.111 12.8453 618 113.843 1269.69 486.267
593 0 50.1226 13.1477 659 112.598 1272.46 485.639
594 0 50.0233 13.6337 682 111.501 1275.43 487.652
595 0 53.1769 14.6492 779 109.928 1277.12 486.338
596 0 54.0275 12.6787 685 114.728 1278.61 486.98
597 0 56.1713 12.3907 696 115.547 1278.98 486.481
598 0 59.236 13.9274 825 112.492 1279.32 487.307
599 0 61.1006 15.6136 954 108.803 1279.16 488.081
600 0 63.1654 14.1216 892 112.761 1278.94 486.2
601 0 66.2053 14.0623 931 113.925 1276.4 489.012
602 0 72.1539 15.162 1094 109.672 1276.83 488.773
603 0 73.1653 13.0936 958 115.872 1275.16 488.956
604 0 77.0848 14.3219 1104 113.315 1273.34 487.139
605 1 45.0399 11.4121 514 110.749 1272.06 506.868
606 0 45.0361 11.8571 534 110.007 1270.51 506.723
607 0 48.079 12.8954 620 110.545 1269.16 505.331
608 0 48.3795 12.5466 607 114.124 1267.34 502.865
609 0 51.0385 13.2841 678 111.181 1265.98 505.403
610 0 52.0947 13.7634 717 112.492 1265.11 502.586
611 0 55.1342 13.8571 764 112.745 1264.69 500.728
612 0 56.0758 14.3021 802 113.031 1263.51 499.435
613 0 58.0948 14.614 849 113.476 1263.01 498.097
614 0 58.0553 13.6249 791 116.559 1262.61 495.18
615 0 63.0434 14.2917 901 114.214 1262.96 492.557
616 0 65.1279 13.2969 866 115.798 1262.76 490.446
617 0 68.0934 14.3186 975 112.44 1263.03 489.649
618 0 71.078 14.266 1014 113.155 1263.07 485.613
619 0 75.0713 14.7193 1105 112.357 1262.15 483.372
620 0 76.1833 14.4651 1102 113.149 1263.39 481.713
621 0 81.0656 14.8522 1204 111.266 1264.38 479.793
622 1 43.1504 10.1274 437 112.355 1265.49 501.542
623 0 43.1285 9.92384 428 114.923 1267.3 500.103
624 0 46.0469 11.8792 547 111.484 1269.06 498.176
625 0 48.0548 13.2973 639 108.491 1270.2 496.268
626 0 49.0671 13.777 676 108.058 1270.36 496.485
627 0 53.0834 13.4317 713 107.436 1270.84 496.452
628 0 55.0423 13.6441 751 108.798 1270.72 494.027
629 0 57.1403 13.7906 788 108.27 1270.71 496.046
630 0 59.1305 14.4596 855 107.481 1268.94 497.922
631 0 60.1022 13.7599 827 110.657 1268.74 497.67
632 0 64.0971 13.6356 874 110.039 1268.23 496.951
633 0 69.0834 14.0699 972 106.085 1266.82 498.866
634 0 71.1047 14.992 1066 105.53 1266.09 497.806
635 0 74.2317 14.091 1046 107.564 1265.64 495.338
636 1 40.0631 11.8313 474 106.795 1264.86 512.776
637 0 41.0434 12.6939 521 106.576 1262.93 512.215
638 0 43.0857 12.9742 559 106.928 1261.88 509.565
639 0 45.1519 14.8831 672 103.918 1259.88 506.94
640 0 44.0064 13.6571 601 108.286 1259.79 506.015
641 0 46.1905 13.033 602 109.492 1259.71 502.734
642 0 49.0692 14.0618 690 106.928 1258.86 501.6
643 0 49.1261 13.5977 668 108.63 1258.63 500.272
644 0 50.0664 13.9615 699 107.677 1259.57 499.296
645 0 54.0524 15.67 847 102.769 1260.39 498.165
646 0 54.0615 13.8361 748 107.611 1260.46 498.461
647 0 57.0921 14.7481 842 105.518 1261.6 497.293
648 0 58.0297 14.0445 815 107.912 1262.8 494.698
649 0 62.1876 15.5015 964 102.889 1264.21 494.037
650 0 64.0798 14.045 900 107.411 1265 492.676
651 0 65.1715 14.0859 918 109.285 1266.36 491.371
652 0 69.0471 14.787 1021 106.846 1267.56 491.157
653 0 73.0794 15.23 1113 105.673 1268.92 491.257
654 0 75.1504 14.5042 1090 107.876 1270.57 490.111
655 0 78.0426 15.4403 1205 106.919 1271.38 487.722
656 0 83.1412 16.2374 1350 104.387 1272.49 488.401
657 1 43.0196 12.5989 542 108.672 1272.74 507.585
658 0 46.0279 13.2963 612 106.75 1271.78 508.047
659 0 47.0648 13.8745 653 107.504 1272 506.361
660 0 46.082 13.2807 612 111.716 1270.98 507.278
661 0 50.1525 12.9206 648 110.559 1269.89 507.16
662 0 52.0717 14.0767 733 108.683 1269.28 505.495
663 0 53.0862 13.5817 721 113.53 1267.72 502.646
664 0 57.1202 15.6512 894 107.132 1266.56 502.371
665 0 60.2948 14.1638 854 109.062 1265.26 500.062
666 0 61.1428 13.6566 835 113.053 1264.51 496.752
667 0 62.1734 14.2022 883 111.853 1263.27 494.576
668 0 66.1387 14.0311 928 112.288 1262.6 494.008
669 0 67.1359 14.344 963 115.313 1262.5 488.874
670 0 68.0486 14.857 1011 113.904 1261.98 487.659
671 0 72.3632 15.0629 1090 113.392 1261.68 486.458
672 0 74.2449 15.4354 1146 115.271 1262.32 482.653
673 0 77.1069 15.7314 1213 116.378 1263.29 480.725
674 0 78.2501 15.5271 1215 118.254 1263.66 480.217
675 0 80.1686 14.4071 1155 123.806 1264.08 478.101
676 0 80.1686 14.4071 1155 175.444 1264.08 478.101
677 0 85.2124 15.5377 1324 121.87 1266.69 475.774
678 0 87.2012 15.1718 1323 124.224 1267.35 474.714
679 0 89.2685 15.4814 1382 124.205 1268.18 473.591
680 0 92.2006 16.0086 1476 123.602 1270.97 472.312
681 0 95.1757 15.6132 1486 125.42 1272.83 471.407
682 0 99.2942 16.9899 1687 122.436 1274.03 470.912
683 0 100.199 15.8785 1591 127.887 1275.65 469.138
684 0 102.155 16.0051 1635 129.555 1275.36 468.33
685 0 106.236 15.7102 1669 131.509 1276.26 468.739
686 0 109.119 15.7351 1717 133.126 1276.57 467.941
687 0 113.23 17.5925 1992 129.383 1276.99 467.086
688 0 115.128 17.8497 2055 130.821 1276.26 466.424
689 0 119.319 18.0106 2149 130.415 1274.89 464.721
690 0 121.163 17.4393 2113 134.031 1274.26 463.107
691 0 125.26 16.2702 2038 136.109 1272.66 462.449
692 0 128.253 17.294 2218 135.338 1271.63 459.659
693 0 131.156 18.6343 2444 130.468 1270.49 459.502
694 0 134.235 18.0579 2424 133.355 1269.82 454.95
695 0 136.129 16.8297 2291 138.762 1267.41 452.903
696 0 138.184 16.1018 2225 141.7 1266.6 448.822
697 0 142.185 17.1327 2436 139.493 1265.76 445.631
698 0 146.19 18.3665 2685 133.602 1266.05 447.394
699 0 149.362 17.6484 2636 136.355 1266.62 443.829
700 0 150.326 17.8611 2685 137.241 1266.81 439.645
701 0 152.11 17.3953 2646 139.168 1266.79 437.749
702 0 155.175 17.8572 2771 136.796 1267.75 434.121
703 0 158.127 16.9801 2685 139.76 1268.84 434.042
704 0 160.236 17.1435 2747 138.751 1269.4 432.444
705 0 164.272 17.3249 2846 136.995 1270.3 432.77
706 0 165.446 17.3652 2873 137.408 1270.82 427.813
707 0 168.228 17.5893 2959 135.914 1272.04 426.213
708 0 173.351 18.8577 3269 132.25 1273.63 428.083
709 0 175.271 19.0391 3337 131.432 1275.42 426.848
710 0 176.208 18.1887 3205 133.783 1278.54 427.917
711 0 180.427 20.1189 3630 129.474 1279.19 424.934
712 0 183.34 18.452 3383 133.299 1280.68 424.028
713 0 186.141 19.6141 3651 130.697 1282.48 426.618
714 0 189.267 19.2691 3647 131.778 1282.76 423.307
715 0 190.297 17.7512 3378 135.964 1281.38 423.168
716 0 196.355 19.368 3803 130.957 1280.47 424.083
717 0 198.32 19.5795 3883 130.631 1279.9 421.602
718 0 201.2 18.6978 3762 133.075 1277.92 421.109
719 0 204.352 21.4385 4381 126.04 1276.61 421.039
720 0 206.284 18.426 3801 134.28 1275.43 420.425
721 0 210.279 19.3743 4074 131.481 1274.56 419.267
722 0 212.29 18.8421 4000 133.236 1272.98 414.845
723 0 214.214 18.6729 4000 134.175 1271.01 408.428
724 0 218.343 18.4939 4038 134.359 1269.23 410.616
725 0 220.338 18.635 4106 135.453 1268.43 406.278
726 0 224.268 18.2327 4089 135.795 1267.85 406.435
727 0 223.243 17.7789 3969 138.452 1267.66 404.731
728 0 225.179 17.626 3969 138.381 1266.98 399.826
729 0 230.27 19.4294 4474 132.59 1266.82 401.172
730 0 232.213 18.8146 4369 134.528 1266.36 396.905
731 0 235.504 18.6664 4396 135.124 1266.99 395.814
732 0 235.307 18.7075 4402 134.527 1267.64 396.274
733 0 238.38 17.728 4226 136.929 1268.31 394.356
734 0 240.224 19.3652 4652 130.825 1269.27 394.805
735 0 242.351 18.7167 4536 133.728 1270.91 391.299
736 0 246.502 19.087 4705 130.906 1272.86 390.901
737 0 247.352 17.942 4438 133.35 1274.19 392.487
738 0 249.274 19.1075 4763 129.881 1275.83 391.695
739 0 251.197 18.0456 4533 133.363 1277.27 391.741
740 0 255.304 19.5923 5002 127.886 1278.44 395.539
741 0 257.309 19.6923 5067 127.744 1278.83 392.119
742 0 259.314 19.1698 4971 129.256 1279.12 396.12
743 0 261.414 19.2415 5030 130.268 1278.8 395.9
744 0 264.422 19.3894 5127 131.174 1277.7 393.95
745 0 266.449 18.4238 4909 133.579 1276.24 393.259
746 0 266.285 19.2613 5129 132.354 1273.96 395.552
747 0 270.319 19.3031 5218 133.851 1271.31 392.373
748 0 270.288 18.9613 5125 134.764 1269.29 386.734
749 0 274.434 18.0554 4955 137.607 1268.08 387.574
750 0 276.336 19.6572 5432 133.527 1267.05 389.714
751 0 276.277 19.0172 5254 135.864 1265.23 386.935
752 0 278.315 18.2994 5093 138.237 1264.81 383.455
753 0 278.429 18.766 5225 138.082 1263.46 381.433
754 0 280.346 18.4522 5173 139.997 1262.81 378.926
755 0 282.493 17.9827 5080 140.118 1262.75 377.998
756 0 284.368 19.3271 5496 135.939 1263.62 376.471
757 0 285.279 19.0691 5440 136.904 1263.03 372.665
758 0 287.515 19.3799 5572 134.377 1263.58 373.48
759 0 287.515 19.3764 5571 168.573 1264.59 373.33
760 0 290.472 19.5785 5687 133.779 1264 369.833
761 0 290.475 18.9069 5492 136.096 1264.78 366.164
762 0 291.411 18.8977 5507 133.821 1266.16 369.028
763 0 293.296 19.7821 5802 130.908 1268.19 370.774
764 0 296.353 19.74 5850 130.435 1269.87 365.419
765 0 297.411 18.8493 5606 132.04 1271.9 364.937
766 0 297.56 19.1794 5707 131.506 1273.7 366.162
767 0 298.604 18.5999 5554 132.26 1275.58 366.168
768 0 303.359 19.5643 5935 129.341 1276.65 362.96
769 0 301.37 21.399 6449 124.702 1277.07 360.437
770 0 302.44 20.3677 6160 127.072 1276.95 364.725
771 0 305.45 20.275 6193 128.115 1275.81 362.702
772 0 305.469 19.7074 6020 127.527 1275.36 362.71
773 0 308.332 22.2617 6864 122.251 1274.05 365.329
774 0 310.39 21.0928 6547 121.29 1272.2 367.258
775 0 309.461 19.2011 5942 124.984 1271.31 364.801
776 0 311.346 20.0163 6232 112.506 1270.48 367.097
777 0 313.458 20.0059 6271 111.256 1269.24 363.909
778 0 315.388 20.2988 6402 109.897 1268.27 357.926
779 0 315.339 20.8474 6574 108.459 1266.54 365.234
780 0 317.436 19.8843 6312 110.478 1265.08 363.586
781 0 316.344 18.1859 5753 114.647 1264.03 357.027
782 0 319.48 18.8275 6015 112.347 1263.65 350.97
783 0 321.395 20.215 6497 109.148 1263.69 356.538
784 0 323.39 23.0155 7443 102.918 1264.05 354.819
785 0 322.418 20.2749 6537 109.02 1264.27 353.556
786 0 323.556 20.6332 6676 107.2 1264.92 347.212
787 0 326.414 20.4954 6690 106.775 1265.03 349.048
788 0 328.483 20.5825 6761 105.687 1265.21 345.959
789 0 330.429 23.3787 7725 99.6496 1266.38 346.354
790 0 330.477 20.9757 6932 104.012 1267.01 352.091
791 0 331.557 20.3404 6744 104.154 1269.07 348.512
792 0 334.648 23.0182 7703 98.6452 1270.95 350.314
793 0 333.483 21.1315 7047 101.768 1273.01 345.918
794 0 333.529 19.2067 6406 105.377 1274.39 352.008
795 0 336.597 22.4868 7569 98.7961 1275.14 353.163
796 0 336.516 20.5191 6905 102.707 1275.35 350.433
