time division length width area intensity CMx CMy
0 0 32.157 13.4341 432 92.0509 1348.81 501.118
1 0 34.0534 13.3907 456 89.6469 1348.83 501.862
2 0 33.0238 15.9279 526 88.5932 1349.34 499.354
3 0 34.0903 13.0829 446 92.6749 1350.31 500.8
4 0 33.0244 15.0192 496 89.1653 1349.3 500.629
5 0 34.0135 14.9352 508 91.0453 1349.01 498.272
6 0 36.0834 16.4896 595 86.1714 1348.47 497.587
7 0 36.0175 16.1033 580 87.2448 1347.24 497.831
8 0 39.0369 18.3672 717 81.2999 1348.31 496.266
9 0 38.1222 16.2372 619 87 1347.08 496.291
10 0 38.0524 19.1052 727 82.641 1347.85 495.955
11 0 38.0452 15.245 580 89.6241 1348.25 497
12 0 39.0471 16.8002 656 87.657 1349.12 496.284
13 0 40.0287 17.9122 717 85.6332 1349.18 497.504
14 0 40.0557 14.7045 589 91.5739 1349.09 497.075
15 0 41.3974 14.9768 620 90.9516 1348.88 496.505
16 0 42.1044 16.6728 702 89.1866 1348.6 494.729
17 0 43.0429 14.8689 640 92.2062 1349.35 495.431
18 0 44.0804 15.6078 688 91.9753 1348.82 494.038
19 0 44.2468 15.4362 683 94.0073 1349.74 493.864
20 0 46.1987 15.1519 700 93.4457 1348.47 493.727
21 0 48.0925 16.094 774 91.5633 1348.75 493.829
22 0 48.1472 15.3903 741 94.2915 1348.35 493.103
23 0 50.1701 15.6268 784 93.014 1348.91 493.17
24 0 51.168 16.1234 825 93.2352 1349.28 491.936
25 0 52.2442 15.0639 787 95.3329 1349.99 492.144
26 0 53.2365 16.7366 891 93.156 1351.32 492.701
27 0 55.4469 16.8991 937 93.6649 1352.59 491.617
28 0 56.2712 16.7581 943 94.7911 1352.38 489.331
29 0 57.1756 18.242 1043 91.116 1351.33 491.276
30 0 61.2544 15.9009 974 94.5472 1350.52 487.555
31 0 62.3054 16.4512 1025 95.3571 1349.86 486.076
32 0 64.3314 18.4203 1185 91.3738 1350.64 486.722
33 0 65.4237 16.9816 1111 95.6445 1351.1 483.684
34 0 68.4715 16.8829 1156 94.0225 1351.63 484.003
35 0 69.3362 18.6483 1293 92.8592 1350.83 482.514
36 0 71.3244 20.1193 1435 92.099 1350.83 480.724
37 0 75.24 17.6103 1325 95.323 1351.39 481.599
38 0 78.3409 19.2875 1511 92.5301 1351.12 478.757
39 0 80.1674 18.7732 1505 93.3216 1352.55 477.888
40 0 83.2844 17.5783 1464 95.9877 1352.6 476.076
41 0 85.2416 19.6266 1673 92.7346 1352.13 474.666
42 1 47.0703 13.6179 641 96.649 1352.37 494.471
43 0 50.1209 13.3876 671 96.7079 1352.25 494.222
44 0 50.0802 14.7963 741 94.9312 1351.86 493.838
45 0 51.0839 15.0341 768 94.72 1353.23 493.872
46 0 51.1319 13.1229 671 99.4382 1353.2 491.908
47 0 53.263 15.3202 816 95.636 1353.05 492.641
48 0 55.1964 15.3452 847 95.9233 1352.85 490.995
49 0 56.1274 15.251 856 95.9533 1353.08 491.186
50 0 58.1674 14.8709 865 96.9919 1353.26 489.802
51 0 61.2658 16.257 996 93.5703 1352.99 489.497
52 0 63.1867 13.563 857 96.1377 1352.85 490.596
53 0 64.1772 15.1923 975 95.4431 1352.34 485.564
54 0 67.2864 15.3672 1034 94.0116 1351.95 485.416
55 0 68.1728 14.2139 969 96.6904 1353.22 484.85
56 0 71.3064 14.7112 1049 96.4967 1352.69 484.384
57 0 76.1648 16.3593 1246 93.6164 1353.23 481.975
58 0 77.1166 14.9643 1154 97.156 1352.1 481.439
59 0 80.2006 14.7754 1185 98.1452 1352.84 478.592
60 1 43.054 12.7514 549 97.0164 1354.11 495.526
61 0 44.1068 12.5604 554 96.213 1354.21 495.48
62 0 47.0611 13.2169 622 94.6592 1354.57 493.91
63 0 50.075 12.9206 647 93.1113 1354.66 494.334
64 0 50.0544 13.0658 654 94.8578 1354.79 492.884
65 0 50.0878 14.4346 723 92.4246 1354.99 494.064
66 0 53.1166 15.193 807 88.948 1355.49 490.129
67 0 57.0934 14.6427 836 88.7356 1355.32 490.815
68 0 57.2158 15.7299 900 87.8889 1355.44 489.519
69 0 58.2635 14.4859 844 90.7666 1355.68 487.286
70 0 57.1213 13.7602 786 93.8181 1354.51 485.688
71 0 62.0882 14.6727 911 90.2228 1355.1 486.063
72 0 65.1551 15.0871 983 90.4201 1355.03 483.131
73 0 66.061 15.2889 1010 90.204 1354.47 483.892
74 0 68.1104 13.713 934 93.394 1355.35 482.397
75 0 69.1519 14.0849 974 92.5565 1354.99 481.485
76 0 73.0868 18.0197 1317 85.9924 1353.78 481.485
77 0 75.0892 15.1686 1139 90.6295 1353.96 478.273
78 0 79.1471 16.1219 1276 88.6372 1354.92 481.181
79 0 79.0666 13.3432 1055 93.9071 1355.71 481.754
80 0 82.2401 14.3969 1184 92.8767 1355.61 478.478
81 0 85.355 14.1995 1212 93.9373 1355.85 476.118
82 1 45.167 11.5128 520 91.025 1354.97 497.738
83 0 46.1285 12.5736 580 90.3897 1354.91 496.105
84 0 45.0621 10.075 454 95.3634 1354.62 494.993
85 0 49.2491 12.0002 591 91.286 1354.94 495.003
86 0 51.1517 12.7269 651 89.7588 1355.45 493.67
87 0 50.1055 11.9149 597 93.1591 1354.27 493.062
88 0 54.136 14.87 805 87.5217 1354.6 492.043
89 0 55.2254 12.8745 711 89.5485 1354.35 492.027
90 0 55.3344 14.3491 794 89.6436 1354.06 489.943
91 0 58.2138 13.4161 781 91.0743 1354.45 488.106
92 0 59.208 13.8157 818 90.9584 1354.43 487.766
93 0 60.1656 13.6955 824 91.7876 1354.32 485.113
94 0 65.1325 15.5836 1015 88.3064 1354.32 485.896
95 0 65.2259 12.7863 834 93.5983 1354.12 485.243
96 0 65.1834 12.9327 843 94.4354 1354.98 483.87
97 0 69.1353 13.6978 947 92.1098 1355.27 481.901
98 0 72.1333 15.7209 1134 89.7504 1355.4 480.962
99 0 74.1164 14.8955 1104 91.1078 1355.71 480.312
100 0 76.2097 14.4995 1105 93.2986 1355.09 479.499
101 0 78.2646 14.0166 1097 95.4038 1355.15 478.527
102 0 82.1796 12.7647 1049 97.2574 1356.61 478.035
103 1 42.2431 11.9546 505 93.1188 1357.94 496.677
104 0 42.1568 11.0302 465 92.486 1357.82 498.989
105 0 46.0643 11.8747 547 90.5503 1357.87 498.124
106 0 46.0252 11.0374 508 94.7618 1356.39 494.833
107 0 49.383 11.0564 546 93.3864 1357.26 497.015
108 0 50.1731 13.5331 679 92.0589 1356.48 494.405
109 0 51.2034 13.2413 678 92.7729 1356.31 492.673
110 0 52.3098 13.7259 718 92.2423 1356.67 493.659
111 0 55.1447 13.7457 758 91.9894 1356.79 494.383
112 0 54.2735 12.8608 698 95.9298 1355.99 489.991
113 0 58.3087 13.8744 809 92.403 1355.59 492.901
114 0 60.2219 13.6661 823 92.4897 1356.14 492.243
115 0 62.1709 14.1063 877 92.0023 1356.09 490.689
116 0 62.2577 13.1229 817 95.5141 1355.85 487.351
117 0 66.2611 13.8543 918 93.5806 1355.94 487.542
118 0 66.379 14.0707 934 94.7173 1356.03 485.357
119 0 69.2574 13.0528 904 94.0243 1355.14 487.043
120 0 73.2428 15.1824 1112 91.2347 1355.7 483.217
121 0 73.1565 13.4779 986 94.8611 1356.41 483.387
122 1 38.0363 9.64868 367 94.297 1355.72 500.537
123 0 38.0159 12.3106 468 89.9402 1354.89 501.712
124 0 40.0664 9.30954 373 93.9652 1355.73 502.03
125 0 41.031 10.8211 444 93.491 1355.2 498.896
126 0 42.0815 12.4758 525 92.5505 1355.25 497.602
127 0 45.0876 12.3981 559 91.4562 1355.1 497.488
128 0 45.071 12.6023 568 93.2394 1354.9 496.41
129 0 48.1791 12.3498 595 91.4689 1355.04 496.403
130 0 48.0677 11.4006 548 94.958 1356.29 494.077
131 0 52.0428 13.9885 728 88.4657 1356.41 494.213
132 0 52.0472 13.238 689 90.2293 1356.84 492.528
133 0 53.0734 13.2458 703 89.7169 1356.08 493.152
134 0 55.0605 12.9131 711 87.8833 1357.02 492.48
135 0 56.0731 12.2697 688 87.468 1357.37 492.546
136 0 60.0995 13.7106 824 85.5061 1356.14 489.172
137 0 62.0835 14.7865 918 84.2266 1356.52 488.231
138 0 63.039 11.9291 752 88.8537 1356.19 486.793
139 0 65.1626 12.676 826 87.6646 1355.94 488.002
140 0 67.1156 15.0934 1013 84.2478 1355.92 485.051
141 0 69.0989 12.4894 863 88.3569 1355.16 486.269
142 0 72.1064 14.4509 1042 85.7044 1355.56 484.112
143 0 75.2609 15.6124 1175 83.5328 1355.5 484.31
144 0 75.2301 13.5318 1018 87.7289 1355.54 482.463
145 0 76.3481 14.2374 1087 88.7148 1355.77 479.63
146 1 41.1171 10.0931 415 86.3687 1355.95 503.414
147 0 41.2084 9.73103 401 89.8728 1355.04 501.012
148 0 45.2285 12.1163 548 86.4142 1354.71 500.073
149 0 45.2204 10.88 492 90.6951 1353.92 499.447
150 0 48.1332 12.6939 611 87.5483 1353.36 497.648
151 0 49.3469 12.2804 606 88.3944 1353.23 496.919
152 0 49.094 13.5658 666 88.7192 1353.59 493.143
153 0 51.2043 12.3232 631 89.58 1352.82 494.933
154 0 53.2116 13.3054 708 86.7768 1353 494.251
155 0 55.1491 13.3456 736 86.7201 1352.65 493.842
156 0 56.1326 12.5952 707 88.5912 1352.22 492.273
157 0 57.2333 13.4362 769 87.8908 1351.95 490.059
158 0 58.1466 13.0532 759 88.9262 1351.93 490.195
159 0 61.2764 13.5942 833 87.2713 1353.06 490.996
160 0 61.279 12.4839 765 91.1268 1352.7 486.001
161 0 64.3902 14.614 941 86.9054 1353.73 486.522
162 0 68.2263 14.8037 1010 85.4931 1353.66 488.679
163 0 69.4287 14.0576 976 88.5676 1354 482.622
164 0 72.3487 14.7618 1068 87.1339 1355 483.296
165 0 75.3655 14.9803 1129 86.0939 1355.11 482.108
166 0 76.2534 13.4683 1027 88.9211 1354.84 481.679
167 1 41.3023 10.6774 441 87.2222 1355.41 499.841
168 0 40.1373 9.51732 382 89.9293 1355.88 499.916
169 0 44.2661 11.2727 499 86.7415 1355.2 499.236
170 0 44.398 12.1852 541 85.4159 1355.17 498.728
171 0 45.2127 12.3859 560 86.9196 1355.67 496.439
172 0 48.1163 12.5321 603 85.9171 1355.79 497.405
173 0 50.1772 12.695 637 85.5133 1355.91 496.363
174 0 50.3539 13.7824 694 85.1859 1355.86 494.732
175 0 50.1949 12.2323 614 87.5961 1355.58 496.808
176 0 54.2143 13.7418 745 85.5074 1355.51 494.777
177 0 55.1648 15.8253 873 82.7113 1354.68 493.269
178 0 56.1326 13.4859 757 86.0925 1354.35 494.041
179 0 56.2134 12.2747 690 89.0652 1354.17 493.596
180 0 61.43 16.9136 1039 80.1944 1354.13 494.064
181 0 62.3051 13.3376 831 86.7617 1353.04 492.165
182 0 63.1874 14.006 885 85.9955 1352.08 490.832
183 0 64.066 13.1739 844 87.7014 1351.86 485.123
184 0 67.1221 15.2409 1023 84.1496 1351.81 486.581
185 0 68.3291 14.1082 964 86.3122 1351.93 486.765
186 0 70.1547 13.4845 946 87.6533 1352.17 483.948
187 0 73.1991 15.8472 1160 84.9319 1351.64 483.003
188 0 77.2363 15.8604 1225 85.3935 1351.71 482.842
189 0 79.1665 15.5495 1231 86.8928 1352.41 480.746
190 0 82.1842 16.3413 1343 85.9501 1353.02 479.208
191 0 82.1907 12.9942 1068 92.7172 1352.91 477.633
192 0 87.2159 14.745 1286 90.3468 1352.96 474.878
193 1 45.0588 10.1423 457 91.4858 1352.96 496.667
194 0 49.1652 10.6376 523 90.0937 1352.86 495.969
195 0 51.0739 11.4931 587 89.8245 1353.42 494.242
196 0 52.1163 12.1075 631 89.7734 1353.22 492.628
197 0 52.0625 12.2545 638 90.4279 1354.37 493.364
198 0 54.1476 13.1123 710 90.169 1353.98 492.055
199 0 54.1847 13.1033 710 90.0282 1355.1 491.32
200 0 59.1869 12.9759 768 90.2031 1353.42 490.332
201 0 59.0585 14.782 873 87.2509 1353.57 491.735
202 0 61.246 12.7192 779 90.5186 1352.61 488.806
203 0 64.3157 14.3666 924 86.7208 1354.1 488.981
204 0 66.2118 14.6953 973 86.5971 1352.79 488.913
205 0 69.1688 14.761 1021 87.4642 1354.5 487.649
206 0 72.2404 14.2303 1028 88.4008 1354.62 487.421
207 0 72.1325 14.2238 1026 89.9269 1353.79 484.625
208 0 75.1501 13.4664 1012 89.7549 1352.82 486.595
209 0 77.2908 14.2578 1102 90.1869 1352.31 481.804
210 0 79.2465 13.7798 1092 92.2152 1352.07 481.243
211 0 83.2111 13.8683 1154 92.9116 1351.84 478.905
212 0 86.2709 12.7274 1098 94.9781 1351.75 478.293
213 1 46.0494 11.1619 514 92.4747 1351.47 497.613
214 0 46.1386 8.47447 391 93.8159 1352.34 499.501
215 0 50.1937 11.8541 595 90.0084 1351.27 497.41
216 0 49.0903 10.2872 505 92.5188 1350.25 496.947
217 0 50.0635 11.2457 563 92.9396 1350.9 494.098
218 0 53.1439 12.6826 674 91.3398 1350.67 493.298
219 0 54.1376 11.6924 633 92.91 1351.14 493.626
220 0 58.1784 12.9601 754 90.7971 1350.77 493.618
221 0 60.2142 12.8873 776 90.674 1351.02 491.72
222 0 61.2159 12.4804 764 92.1204 1350.91 491.598
223 0 63.191 13.8786 877 90.691 1350.74 489.324
224 0 64.1099 13.7108 879 91.537 1350.13 487.972
225 0 66.1723 13.1777 872 92.906 1349.86 485.789
226 0 69.1912 13.7156 949 90.8841 1350.64 486.331
227 0 70.127 13.1618 923 92.8927 1351.14 484.517
228 0 74.3025 14.8313 1102 89.6733 1351.86 482.966
229 0 76.1772 14.6763 1118 90.6243 1351.35 481.376
230 0 77.0732 13.1693 1015 91.9271 1352.02 482.331
231 0 77.2689 11.9065 920 95.0989 1352.62 479.186
232 1 43.0762 9.58766 413 87.5884 1353.34 500.54
233 0 44.1208 10.4486 461 89.1974 1353.52 498.052
234 0 47.0655 10.7722 507 88.213 1353.67 497.274
235 0 48.1673 12.0206 579 87.5527 1354.03 496.874
236 0 47.1179 11.9275 562 88.2829 1353.82 496.377
237 0 51.3391 12.6804 651 87.3825 1353.95 495.499
238 0 52.285 12.1832 637 88.1648 1354.11 495.622
239 0 53.169 11.849 630 89.2397 1353.63 496.184
240 0 53.2903 11.503 613 90.9739 1354.08 493.817
241 0 56.2576 11.4118 642 89.9953 1353.57 495.776
242 0 58.1504 10.662 620 91.7081 1352.75 493.879
243 0 59.2742 12.7712 757 89.5284 1352.25 491.915
244 0 59.2742 12.8555 762 130.692 1352.27 491.942
245 0 63.39 12.1155 768 91.4792 1352.56 489.578
246 0 65.2639 11.7216 765 91.7974 1352.74 487.905
247 0 68.3485 11.6901 799 92.7785 1352.35 485.944
248 1 38.3412 9.05031 347 88.6023 1351.74 504.888
249 0 40.1819 10.9253 439 87.6606 1350.94 503.879
250 0 40.421 9.6237 389 89.3342 1350.75 503.712
251 0 40.2956 10.2244 412 89.2573 1350.26 501.786
252 0 42.0749 10.5764 445 89.9461 1350.12 500.44
253 0 41.1917 10.8517 447 90.1275 1350.74 500.43
254 0 43.0809 10.6544 459 91.9434 1352.05 499.057
255 0 43.147 11.0321 476 92.6933 1351.99 498.561
256 0 45.1198 12.0568 544 90.9007 1351.88 498.186
257 0 48.1686 12.1864 587 89.3407 1351.62 497.654
258 0 48.2611 10.5054 507 93.0789 1351.33 496.408
259 0 50.1949 12.2323 614 90.5798 1352.29 494.638
260 0 51.0967 10.2159 522 92.7012 1352.31 494.529
261 0 54.2228 11.3974 618 90.7654 1352.29 493.424
262 0 55.229 13.4531 743 87.9529 1353.1 493.786
263 0 56.147 10.8821 611 91.0344 1352.72 493.843
264 0 58.2419 13.4954 786 89.3422 1352.97 490.261
265 0 59.1926 12.1975 722 91.5997 1353.11 489.133
266 0 61.3344 12.1954 748 91.004 1353.21 489.872
267 0 62.2296 13.2252 823 90.2163 1354.04 486.93
268 0 66.3817 11.5996 770 91.7831 1354.33 489.365
269 0 66.3369 12.8737 854 90.9988 1354.32 489.225
270 1 40.1956 9.10547 366 88.5492 1354.64 504.967
271 0 39.3218 9.61299 378 88.5952 1354.13 504.733
272 0 40.1746 11.5994 466 87.8948 1353.67 502.972
273 0 40.1605 10.6074 426 91.0962 1353.46 502.826
274 0 43.2043 11.0637 478 91.2908 1353.49 502.297
275 0 45.2348 13.1094 593 87.8516 1353.58 503.256
276 0 44.2849 11.2002 496 93.0887 1353.06 502.669
277 0 44.1452 11.9152 526 93.9525 1352.82 500.751
278 0 45.1534 10.9626 495 94.7919 1352.94 499.915
279 0 50.2317 13.4975 678 89.8879 1352.72 500.025
280 0 52.2943 13.73 718 89.2507 1352.64 500.143
281 0 50.1957 12.4911 627 94.3908 1352.56 497.309
282 0 53.3921 12.455 665 93.5699 1352.66 496.602
283 0 54.1991 12.5648 681 94.2878 1352.32 495.778
284 0 55.3499 13.225 732 95.1544 1351.37 494.922
285 0 57.2477 15.4417 884 91.3722 1351.11 493.864
286 0 60.2226 15.642 942 91.8121 1350.72 491.835
287 0 59.3069 14.3828 853 94.075 1351.51 492.553
288 0 62.5654 13.0583 817 97.2424 1351.29 488.603
289 0 65.4469 13.9502 913 95.0964 1351.52 487.738
290 0 67.3664 14.4583 974 95.0945 1352.74 486.017
291 0 69.3709 14.9198 1035 95.0435 1353.05 485.789
292 0 71.3611 14.4617 1032 96.624 1353.6 483.919
293 0 74.3839 15.4603 1150 95.3983 1354.28 482.044
294 0 76.3824 15.4093 1177 95.5769 1354.7 480.096
295 1 40.5281 11.0541 448 95.8973 1355.32 502.48
296 0 41.4134 12.9668 537 95.2626 1355.85 500.639
297 0 42.57 11.8393 504 99.3452 1355.6 499.685
298 0 45.3767 14.016 636 96.6494 1355.24 497.998
299 0 45.4628 13.6815 622 98.0482 1355.36 497.693
300 0 47.2112 14.8482 701 95.4137 1356.24 498.057
301 0 49.2626 15.1839 748 96.4572 1356.27 497.489
302 0 51.3171 14.4396 741 96.4939 1357.15 498.32
303 0 50.2182 13.6405 685 100.137 1355.13 496.435
304 0 53.3411 13.7792 735 98.8027 1355.46 497.135
305 0 55.3925 14.3882 797 98.271 1355.23 496.191
306 0 56.7066 14.2312 807 98.6976 1354.61 496.714
307 0 59.4194 15.0456 894 97.3188 1354.75 496.653
308 0 59.3957 14.4286 857 99.5694 1354.58 496.639
309 0 62.4687 14.6153 913 99.4852 1354.02 495.399
310 0 64.3823 14.4294 929 100.667 1354.17 492.363
311 0 66.5836 15.8898 1058 98.1701 1353.44 491.517
312 0 65.8474 13.8654 913 104.008 1352.4 490.498
313 0 71.4543 15.4784 1106 98.1582 1352.19 489.554
314 0 70.5574 13.3225 940 104.209 1352.48 487.932
315 0 73.5356 14.4828 1065 101.212 1352.12 487.388
316 0 77.5268 14.9626 1160 100.756 1352.26 484.611
317 0 80.5117 15.8983 1280 99.5742 1352.12 483.55
318 0 81.3704 15.1898 1236 101.206 1351.41 481.719
319 0 82.5216 15.4505 1275 101.964 1351.52 479.031
320 0 84.3768 14.7552 1245 103.372 1350.97 478.608
321 0 89.4919 14.3253 1282 103.401 1352.03 477.24
322 1 47.4806 12.1102 575 100.746 1352.44 498.908
323 0 49.3231 12.631 623 98.5169 1353.39 497.124
324 0 49.5013 13.0704 647 100.294 1352.82 495.408
325 0 50.3515 12.5716 633 101.915 1353.61 494.276
326 0 51.3132 13.3689 686 101.004 1354.23 495.184
327 0 54.2957 15.2682 829 96.8106 1354.83 494.125
328 0 56.2679 15.3551 864 96.5949 1354.92 492.367
329 0 58.4546 14.1819 829 97.1725 1355.33 493.626
330 0 58.2828 13.8634 808 97.0693 1355.6 493.398
331 0 61.4078 14.2327 874 96.7574 1356.15 490.748
332 0 63.5342 15.1257 961 95.2674 1355.68 490.21
333 0 65.295 15.3611 1003 95.329 1355.57 491.605
334 0 69.5223 15.7935 1098 93.9936 1355.65 490.485
335 0 70.4191 15.2516 1074 95.0391 1356.09 490.01
336 0 73.3622 14.0263 1029 97.7891 1356.17 489.99
337 0 75.5648 14.1071 1066 99.5281 1356.48 487.486
338 0 79.3845 13.9826 1110 98.1991 1355.97 488.607
339 0 81.5006 14.5888 1189 98.4054 1355.41 485.291
340 1 43.1353 11.8928 513 98.2339 1356.06 503.803
341 0 42.2799 11.8023 499 99.5832 1355.65 503.733
342 0 45.311 11.9397 541 99.0314 1354.07 502.841
343 0 45.0901 11.3994 514 101.529 1352.65 500.753
344 0 48.2146 13.6888 660 96.747 1352.68 499.741
345 0 49.1848 14.2117 699 96.5036 1352.48 498.695
346 0 51.2855 13.3176 683 97.795 1353.17 497.517
347 0 52.1726 12.9762 677 99.5421 1352.64 496.95
348 0 56.0801 13.0706 733 98.9345 1352.57 495.887
349 0 56.1972 13.0967 736 99.5435 1351.62 493.889
350 0 58.1295 14.0892 819 96.7204 1352.16 493.664
351 0 58.2231 14.1868 826 99.2107 1352.51 489.667
352 0 61.0694 13.3619 816 100.259 1352.78 488.194
353 0 65.1596 14.5642 949 96.8841 1353.4 489.104
354 0 65.0701 14.3691 935 99.6642 1353.28 486.796
355 0 67.1748 14.7526 991 99.7619 1353.64 485.773
356 0 72.1716 14.2715 1030 99.9116 1354.47 484.934
357 0 76.11 14.9258 1136 97.6796 1355.28 485.837
358 0 77.1347 14.9479 1153 97.9254 1355.31 484.353
359 0 80.2648 16.1341 1295 96.2904 1356.18 481.286
360 0 82.2038 14.3302 1178 99.2199 1355.86 480.798
361 1 44.056 11.6216 512 96.9824 1356.66 500.656
362 0 45.1684 11.0033 497 98.6881 1356.93 500.443
363 0 46.1021 9.95617 459 100.749 1357.08 500.906
364 0 49.0968 12.0374 591 97.9949 1357.6 499.245
365 0 50.1149 13.6087 682 96.7067 1356.93 499.154
366 0 52.1913 13.5846 709 97.3145 1356.65 499.04
367 0 55.1809 15.4039 850 93.8953 1356.92 499.321
368 0 56.1421 14.1249 793 97.8134 1355.88 499.27
369 0 56.2208 11.8639 667 101.663 1355.02 500.361
370 0 60.1083 13.2261 795 99.8 1355.03 497.291
371 0 61.1348 13.5438 828 99.244 1355.06 496.425
372 0 64.202 14.3142 919 98.6779 1354.52 493.966
373 0 67.145 14.3719 965 98.7824 1354.32 491.07
374 0 68.1883 13.0228 888 100.787 1353.37 489.859
375 0 74.1548 13.6067 1009 99.7156 1352.77 490.981
376 1 38.1447 9.96208 380 100.208 1353.21 504.884
377 0 42.0791 12.025 506 96.8893 1352.97 503.581
378 0 42.1456 11.8874 501 96.9621 1351.95 504.437
379 0 43.051 13.635 587 97.5962 1350.33 501.179
380 0 44.1385 13.2311 584 99.286 1349.95 499.471
381 0 44.1385 13.1858 582 149.698 1349.98 499.509
382 0 49.1808 13.9689 687 96.1776 1350.79 496.921
383 0 49.1588 14.0361 690 96.113 1352.49 496.43
384 0 51.1589 14.7775 756 95.8558 1352.56 494.698
385 0 51.1298 13.4364 687 96.9985 1352.92 495.542
386 0 55.0836 13.9606 769 96.7477 1353.17 492.805
387 0 56.151 13.5884 763 97.9397 1353.33 492.29
388 0 59.2953 15.1951 901 94.6149 1354.67 492.264
389 0 59.3177 13.4867 800 98.925 1354.79 491.486
390 0 63.0884 15.1375 955 96.3131 1355.31 489.636
391 0 65.3194 13.5029 882 99.2007 1354.63 489.625
392 0 66.0823 14.4517 955 99.133 1355.81 487.652
393 0 69.1867 13.9189 963 100.627 1356 486.629
394 0 72.2274 13.9421 1007 101.002 1355.85 487.788
395 0 75.2015 15.4385 1161 100.076 1356.2 486.24
396 0 77.1414 14.1688 1093 103.447 1357.06 484.932
397 0 80.1289 14.3644 1151 104.01 1356.83 483.674
398 0 84.2812 15.3771 1296 102.671 1356.29 484.758
399 0 87.2664 16.3293 1425 102.666 1355.61 481.832
400 1 47.2026 11.1858 528 107.441 1355.28 502.947
401 0 47.3036 12.3458 584 105.926 1354.36 502.974
402 0 49.2827 13.0066 641 106.002 1353.39 501.777
403 0 53.2862 13.024 694 106.869 1352.93 499.605
404 0 53.1745 13.3711 711 107.253 1352.07 499.748
405 0 54.0972 13.8454 749 108.413 1352.36 497.543
406 0 55.1864 15.1849 838 107.204 1351.4 496.574
407 0 54.1746 13.5119 732 111.482 1351.9 495.392
408 0 59.1472 13.6946 810 110.469 1351.91 494.686
409 0 59.196 14.5618 862 111.43 1352.43 491.825
410 0 63.421 14.0017 888 111.593 1351.64 490.045
411 0 65.2783 14.1241 922 111.325 1350.97 489.729
412 0 66.3415 14.6967 975 110.894 1350.99 488.03
413 0 68.1567 13.7184 935 111.928 1351.26 487.997
414 0 71.351 13.819 986 112.267 1351.09 485.084
415 0 72.3606 13.5156 978 113.173 1352.34 484.889
416 1 40.1118 12.6646 508 109.866 1353.45 499.512
417 0 41.1642 11.5149 474 110.38 1353.81 498.74
418 0 43.2827 11.3671 492 110.289 1354.93 498.679
419 0 44.1091 12.9225 570 110.163 1355.8 497.918
420 0 47.064 12.7911 602 109.686 1356.85 496.806
421 0 47.045 13.0726 615 110.863 1357.57 498.226
422 0 49.1508 13.1839 648 111.465 1357.72 496.043
423 0 51.2014 14.0035 717 108.986 1358.12 497.88
424 0 53.1258 14.7574 784 107.864 1357.53 496.977
425 0 54.2189 14.8841 807 109.146 1357.72 496.048
426 0 58.1384 14.1043 820 107.81 1357.14 497.706
427 0 58.11 14.1972 825 108.993 1356.15 495.497
428 0 58.1454 12.6923 738 111.774 1356.1 496.122
429 0 64.075 13.8275 886 106.941 1355.76 496.144
430 0 66.1433 15.5874 1031 103.831 1355.13 494.532
431 0 67.0913 13.7425 922 108.38 1354.28 492.613
432 0 68.2135 14.2201 970 109.009 1353.7 489.305
433 0 68.2178 14.2338 971 152.13 1352.67 489.231
434 0 75.1211 14.4034 1082 106.987 1352.4 487.851
435 0 78.1645 13.9961 1094 107.621 1352.31 487.682
436 0 81.2601 13.6352 1108 108.511 1351.96 483.982
437 0 81.144 14.8994 1209 106.09 1351.31 483.758
438 0 85.2811 14.5753 1243 106.578 1350.88 481.849
439 0 88.2207 15.8693 1400 105.249 1350.14 478.309
440 0 91.4809 14.5058 1327 107.88 1349.7 475.837
441 0 94.2382 15.5882 1469 105.346 1349.81 473.557
442 0 95.5031 14.2718 1363 109.439 1349.97 469.401
443 0 99.4452 14.0982 1402 109.119 1350.49 470.137
444 0 103.473 14.2066 1470 107.392 1351.15 469.271
445 0 108.233 16.4645 1782 102.998 1351.79 467.184
446 0 112.441 15.2435 1714 105.916 1353.16 465.785
447 1 61.2722 12.5669 770 103.283 1354.08 491.37
448 0 62.3519 12.4295 775 103.836 1355.04 491.477
449 0 63.179 12.6466 799 104.093 1355.67 491.315
450 0 66.2532 13.2975 881 103.989 1356.86 488.059
451 0 68.167 14.4938 988 102.792 1357.12 487.566
452 0 71.2568 13.9215 992 103.86 1357.79 488.497
453 0 73.2035 15.1905 1112 101.681 1357.88 488.611
454 1 38.0222 10.4939 399 104.504 1358.32 505.013
455 0 41.0691 9.47184 389 105.257 1357.95 506.589
456 0 43.0187 11.5531 497 105.694 1357.17 503.785
457 0 41.0383 9.84446 404 108.698 1356.78 506.035
458 0 43.0377 11.8036 508 107.106 1356.48 504.787
459 0 45.0481 13.2303 596 104.102 1355.98 504.003
460 0 48.0523 13.2356 636 102.013 1355.63 504.662
461 0 50.0689 14.0606 704 100.861 1354.92 502.399
462 0 50.0442 13.1883 660 103.902 1354.22 501.348
463 0 50.1616 13.3967 672 104.658 1353.72 499.799
464 0 54.1866 13.2874 720 102.979 1353.09 498.543
465 0 56.1759 14.2944 803 101.823 1351.3 495.72
466 0 57.0798 13.5424 773 103.582 1352.08 494.821
467 0 58.1999 12.8866 750 105.485 1351.88 493.965
468 0 61.1896 11.7667 720 107.089 1352.36 492.589
469 0 66.159 14.6465 969 100.638 1351.15 490.977
470 1 35.0555 9.95564 349 102.418 1351.54 503.905
471 0 36.0976 10.3608 374 102.647 1350.47 503.147
472 0 36.0685 11.8109 426 103.099 1350.75 500.535
473 0 40.0662 13.303 533 97.5047 1351.04 501.053
474 0 40.0337 12.2647 491 100.401 1351.8 499.177
475 0 41.0246 13.1872 541 99.6617 1352.16 498.403
476 0 43.0453 13.0328 561 100.572 1352.95 497.743
477 0 45.0407 14.9198 672 95.2307 1354.72 497.565
478 0 46.0474 13.877 639 95.4695 1356 497.762
479 0 45.0305 11.7032 527 100.543 1358.76 498.408
480 0 47.0308 12.1197 570 101.791 1359.02 497.577
481 0 50.0199 13.9944 700 98.7871 1360.43 497.803
482 0 50.0576 13.4445 673 101.027 1360.28 498.138
483 0 52.0513 13.2369 689 101.177 1359.57 497.685
484 0 52.1369 12.1411 633 103.011 1358.82 498.648
485 0 56.2316 12.9465 728 102.957 1358.42 496.234
486 0 56.0246 13.5119 757 102.963 1357.66 496.083
487 0 59.0769 14.4388 853 101.276 1357.04 496.43
488 0 62.1131 13.9906 869 101.918 1355.92 497.006
489 0 64.1625 13.8399 888 102.243 1355.49 495.873
490 0 66.1296 13.5492 896 103.667 1354.64 494.53
491 0 69.2132 13.2923 920 104.471 1354.12 492.27
492 0 72.2127 14.8312 1071 102.613 1353.13 491.956
493 0 73.223 14.5173 1063 104.06 1351.87 487.706
494 0 76.0711 15.17 1154 102.565 1352.33 487.464
495 0 77.0879 12.9592 999 107.428 1351.06 486.103
496 0 80.4288 14.9698 1204 104.19 1350.29 484.762
497 1 44.134 11.533 509 103.312 1349.84 501.815
498 0 44.0976 12.427 548 103.356 1348.88 499.401
499 0 46.0567 13.8525 638 99.5502 1349.22 497.779
500 0 50.1604 13.8755 696 99.7486 1349.12 496.227
501 0 49.0738 14.1012 692 100.916 1348.85 495.34
502 0 50.1698 13.3945 672 103.028 1349.97 493.494
503 0 53.0542 13.8538 735 101.261 1350.23 492.943
504 0 53.1599 13.845 736 101.106 1350.88 493.871
505 0 54.0504 13.5244 731 102.621 1352.84 490.679
506 0 56.1481 12.7876 718 103.602 1355.53 492.713
507 0 58.1504 13.6198 792 102.73 1357.08 491.798
508 0 60.0831 14.6464 880 101.845 1358.33 490.011
509 0 60.0831 14.7795 888 141.039 1359.34 490.038
510 0 64.1228 13.0063 834 105.633 1359.85 490.287
511 1 36.1461 10.4022 376 103.415 1360.46 505.755
512 0 35.0306 10.8762 381 103.795 1361.12 506.861
513 0 38.0601 10.536 401 105.579 1361.51 507.536
514 0 39.0172 10.6107 414 106.37 1360.85 507.942
515 0 41.0464 11.5723 475 107.564 1359.78 506.164
516 0 45.0328 13.1904 594 104.372 1359.08 507.384
517 0 47.0953 12.2093 575 107.037 1358.1 508.657
518 0 47.1099 14.1159 665 104.592 1355.66 506.45
519 0 48.1337 14.1273 680 102.924 1354.46 507.704
520 0 50.1363 13.224 663 106.104 1353.31 505.113
521 0 52.1212 13.0849 682 105.799 1351.66 504.887
522 0 53.1639 14.7657 785 103.771 1350.14 502.941
523 0 56.0963 14.386 807 103.903 1349.01 501.344
524 0 60.0286 11.4612 688 108.849 1347.91 500.446
525 0 60.1091 15.2556 917 104.322 1347.56 497.451
526 0 63.1269 14.1303 892 106.185 1347.12 497.131
527 0 66.0747 13.515 893 107.55 1346.11 495.903
528 0 67.1169 13.335 895 108.179 1345.38 495.047
529 1 35.0493 11.9831 420 107.779 1345.48 507.005
530 0 38.1041 11.3111 431 105.872 1346.19 508.455
531 0 38.0464 11.9065 453 108.327 1346.51 505.605
532 0 39.046 11.7298 458 109.869 1346.65 506.251
533 0 40.0922 13.0449 523 108.849 1347.31 504.564
534 0 42.1821 13.8921 586 107.809 1349.75 504.655
535 0 44.1323 13.1197 579 110.059 1351.17 504.002
536 0 45.1687 14.7669 667 107.256 1353.22 503.792
537 0 46.037 14.2277 655 109.754 1354.34 504.131
538 0 46.1582 13.2804 613 111.806 1355.75 505.251
539 0 50.2189 14.1381 710 110.586 1356.9 505.242
540 0 51.2361 15.3017 784 111.468 1357.03 503.86
541 0 53.0362 13.7642 730 116.004 1357.38 505.821
542 0 54.18 14.3411 777 114.767 1355.26 506.874
543 0 55.133 14.2564 786 117.06 1354.48 506.3
544 0 58.1466 14.1883 825 118.074 1353.84 504.4
545 0 62.1047 13.6866 850 117.989 1351.8 505.648
546 0 64.1939 15.2351 978 116.06 1350.28 504.736
547 0 67.2371 15.6759 1054 114.736 1348.94 502.616
548 0 69.1478 14.9246 1032 118.569 1347.82 500.011
549 1 37.0427 12.2831 455 117.246 1346.44 516.769
550 0 39.0513 12.1123 473 119.15 1345.67 513.338
551 0 39.0572 11.752 459 120.279 1344.75 512.908
552 0 42.1142 14.3657 605 114.79 1343.07 509.899
553 0 42.089 13.8754 584 116.671 1343.13 508.82
554 0 45.1617 13.7506 621 115.957 1343.19 506.581
555 0 48.2189 14.9112 719 111.324 1343.21 505.94
556 0 49.0861 14.0977 692 113.999 1342.86 503.118
557 0 48.2176 13.1073 632 117.736 1343.6 501.21
558 0 50.2345 13.6759 687 116.492 1343.78 499.493
559 0 52.1348 13.8871 724 116.162 1344.22 497.204
560 0 54.2591 13.8779 753 115.288 1344.75 496.716
561 0 57.0626 14.4929 827 112.972 1345.75 496.36
562 0 59.267 16.0966 954 112.271 1347.06 493.567
563 0 59.267 14.9493 886 115.964 1347.73 491.551
564 0 61.3337 13.5488 831 118.195 1349.85 493.444
565 0 65.3282 13.5164 883 118.125 1351.96 492.338
566 1 35.215 11.7848 415 117.971 1354.7 505.13
567 0 36.2162 12.094 438 116.735 1355.81 506.929
568 0 38.2186 14.1816 542 113.129 1356.66 507.692
569 0 37.0865 13.0236 483 120.441 1356.6 507.033
570 0 40.114 13.2373 531 117.307 1356.89 508.908
571 0 44.157 13.4973 596 117.258 1356.67 507.896
572 0 45.1826 14.1205 638 115.171 1355.78 509.61
573 0 45.1826 14.2311 643 155.39 1354.76 509.602
574 0 49.0754 13.6117 668 116.883 1355.1 508.865
575 0 51.1387 13.6687 699 116.033 1354.05 508.369
576 0 54.0406 12.8977 697 117.24 1352.12 508.275
577 0 57.1371 14.3865 822 112.995 1349.34 504.697
578 0 59.0391 12.9236 763 114.62 1348.48 504.676
579 0 60.0984 13.2949 799 114.707 1347.24 502.054
580 0 64.1802 13.5712 871 111.59 1346.32 502.123
581 1 33.0902 11.7255 388 109.825 1345.78 514.088
582 0 34.0378 12.0748 411 109.224 1345.49 511.993
583 0 34.1117 12.5177 427 107.663 1344.73 508.618
584 0 37.0646 11.6823 433 107.704 1344.28 508.649
585 0 40.1136 14.4091 578 101.202 1344.43 507.239
586 0 40.0893 12.9211 518 105.822 1344.64 505.658
587 0 44.084 13.4289 592 104.243 1344.4 504.47
588 0 43.1542 13.0231 562 106.496 1344.7 501.263
589 0 43.111 13.3377 575 106.405 1345.43 501.534
590 0 48.2766 14.4998 700 101.48 1346.16 500.741
591 0 46.1897 12.7951 591 107.794 1346.62 499.961
592 0 50.1855 13.749 690 105.313 1348.01 498.536
593 0 49.157 14.3825 707 106.197 1350.82 499.55
594 0 51.1478 12.2977 629 110.424 1353.69 500.348
595 0 54.1927 12.9353 701 110.15 1355.72 497.873
596 0 54.2001 12.8598 697 148.914 1357.74 497.855
597 0 58.0698 12.8122 744 111.011 1357.82 497.555
598 0 62.1727 14.1702 881 108.557 1358.79 498.988
599 0 62.1552 14.1903 882 109.71 1358.34 498.991
600 0 67.0788 12.9698 870 109.66 1357.08 498.476
601 0 70.1499 14.1411 992 108.95 1354.54 500.422
602 1 35.0668 9.29654 326 112.785 1355.16 518.328
603 0 39.1029 11.0478 432 110.248 1353.3 518.495
604 0 39.1214 11.4004 446 109.946 1351.38 516.67
605 0 41.0782 12.5371 515 106.452 1348.62 518.309
606 0 44.0342 12.354 544 105.489 1348.25 519.564
607 0 44.0342 12.2859 541 139.63 1348.25 519.555
608 0 46.1283 14.1562 653 105.469 1346.2 517.395
609 0 47.1186 12.0759 569 109.513 1344.86 517.805
610 0 50.1297 13.0661 655 106.624 1344.13 517.36
611 0 53.1611 13.3368 709 106.594 1343.27 515.275
612 0 56.1661 15.561 874 102.581 1341.77 513.243
613 0 56.0912 14.6012 819 106.304 1340.99 512.775
614 0 57.1827 14.4799 828 108.438 1340.06 508.675
615 0 60.1354 14.5339 874 107.563 1341.23 507.565
616 0 62.1052 15.989 993 104.202 1340.17 505.076
617 0 64.0978 14.9615 959 107.241 1341.37 503.035
618 0 68.16 14.466 986 108.193 1341.77 501.252
619 0 70.2103 15.2684 1072 107.813 1342.06 499.244
620 1 38.0326 11.3061 430 106.319 1343.32 517.144
621 0 40.0694 11.9543 479 109.167 1343.96 514.213
622 0 39.0462 11.0894 433 112.111 1346.16 515.044
623 0 42.0245 12.2786 516 112.698 1345.61 512.256
624 0 43.0251 12.3649 532 113.318 1347.52 512.117
625 0 46.0536 13.2889 612 110.804 1349.21 512.157
626 0 47.1773 13.0359 615 112.304 1348.69 513.117
627 0 48.0615 13.8781 667 111.616 1348.26 511.924
628 0 51.109 14.0875 720 110.611 1348.22 512.671
629 0 53.1668 14.746 784 110.95 1348.22 513.267
630 0 55.1148 15.4224 850 111.454 1346.57 514.188
631 0 57.0661 15.3331 875 112.474 1346.83 515.341
632 0 60.1576 14.7612 888 113.967 1345.25 514.813
633 0 63.132 14.9845 946 113.389 1344.46 515.243
634 0 65.1539 14.8264 966 115.618 1344.77 515.122
635 0 67.1587 15.9771 1073 114.428 1344.66 514.062
636 0 70.0309 16.2071 1135 115.33 1343.22 510.769
637 0 72.0733 14.7211 1061 118.55 1340.48 510.277
638 0 75.1218 15.6945 1179 116.45 1339.16 507.165
639 1 39.102 11.3549 444 118.315 1337.97 524.928
640 0 39.0383 11.5784 452 119.597 1337.73 522.179
641 0 39.0366 11.5789 452 174.088 1337.73 522.179
642 0 46.041 13.3794 616 114.615 1336.4 517.888
643 0 45.0685 12.5365 565 117.782 1336 515.044
644 0 46.0488 13.6377 628 115.137 1336.75 513.484
645 0 47.0698 12.747 600 117.738 1337.66 513.142
646 0 49.1513 14.8318 729 113.038 1337.72 512.444
647 0 50.1162 13.4288 673 116.978 1339.62 512.204
648 0 53.106 14.1604 752 115.116 1341.01 510.757
649 0 53.1556 14.2224 756 115.172 1342.08 510.57
650 0 56.1189 13.4536 755 117.359 1343.35 508.432
651 0 59.0578 12.9534 765 117.716 1344.89 507.186
652 0 60.0607 14.3855 864 116.809 1346.33 505.91
653 0 63.0335 13.1835 831 117.653 1347.48 506.184
654 0 65.0565 13.3422 868 118.783 1348.56 506.934
655 0 69.0603 14.7263 1017 115.996 1349.27 503.671
656 1 35.0053 11.8839 416 116.409 1350.14 521.046
657 0 36.0573 11.1766 403 118.305 1350.5 520.509
658 0 38.0586 11.5348 439 116.989 1350.29 521.039
659 0 39.0844 12.7928 500 116.3 1350.18 519.982
660 0 41.0929 12.9219 531 115.282 1349.08 521.418
661 0 45.1577 14.084 636 112.088 1347.73 521.399
662 0 46.1292 12.7468 588 115.549 1346.88 520.91
663 0 48.1603 14.2649 687 113.719 1344.9 518.013
664 0 50.1085 14.3289 718 113.579 1344.9 515.522
665 0 52.1412 13.1566 686 112.755 1343.75 515.673
666 0 54.1712 14.2696 773 111.25 1342.1 513.221
667 0 55.2624 13.3364 737 112.385 1341.78 510.615
668 0 58.1483 12.279 714 114.202 1341.16 509.431
669 0 61.2088 14.0993 863 110.009 1340.8 505.666
670 0 62.2097 14.9655 931 106.916 1340.69 505.009
671 0 65.2167 15.5788 1016 105.409 1340.26 502.673
672 0 66.2699 14.7428 977 110.348 1340.82 499.273
673 0 66.2374 14.2216 942 114.24 1342.51 496.935
674 0 71.192 14.9455 1064 111.749 1342.91 496.392
675 0 69.1857 13.7601 952 168.936 1343.92 494.731
676 1 38.099 10.6827 407 113.256 1344.67 512.066
677 0 39.0405 10.7068 418 114.806 1345.64 510.94
678 0 41.0882 12.2906 505 113.061 1346.67 509.05
679 0 41.1819 12.2627 505 114.04 1348.29 509.564
680 0 43.221 12.4014 536 114.44 1350.3 508.218
681 0 43.2081 12.382 535 154.359 1352.28 508.215
682 0 46.2218 13.1107 606 112.851 1353.78 508.987
683 0 46.376 13.6709 634 114.325 1354.31 507.281
684 0 50.1589 13.6167 683 112.037 1354.97 509.056
685 0 51.2176 13.2572 679 114.912 1355.83 508.613
686 0 51.1854 13.7148 702 115.392 1355.64 509.735
687 0 54.2 13.9299 755 115.486 1354.97 507.841
688 0 58.1643 13.4447 782 114.503 1354.28 506.977
689 0 60.1482 13.766 828 113.279 1353.75 506.959
690 0 62.0991 13.253 823 113.125 1352.85 506.723
691 0 65.0716 14.4456 940 109.209 1351.21 504.312
692 0 67.094 13.6972 919 112.319 1351.11 502.767
693 1 38.0124 10.0494 382 111.995 1349.94 515.086
694 0 40.0672 11.9549 479 107.724 1348.49 514.507
695 0 40.1386 9.54193 383 112.896 1346.12 511.433
696 0 43.0933 12.5774 542 107.744 1345.35 509.458
697 0 44.219 13.0261 576 107.538 1344.19 506.929
698 0 46.0537 12.8329 591 107.513 1344.19 502.75
699 0 49.1857 13.2762 653 106.548 1344.86 502.547
700 0 50.1747 14.1705 711 105.156 1344.98 500.433
701 0 53.1155 13.2353 703 105.974 1345.98 498.501
702 0 54.2465 14.2498 773 103.939 1346.64 497.724
703 0 54.1777 14.8031 802 104.074 1347.08 495.903
704 0 56.1681 15.0085 843 104.37 1348.07 494.145
705 0 58.1902 13.5762 790 106.825 1348.75 494.315
706 0 59.1807 13.2814 786 107.588 1349.58 493.748
707 0 60.3086 13.5138 815 107.746 1350.14 492.747
708 0 65.1945 13.0993 854 108.109 1351.93 491.818
709 0 65.2845 13.2191 863 109.051 1354.12 491.824
710 0 70.2474 14.4632 1016 106.929 1356.25 491.106
711 0 71.372 14.7537 1053 107.631 1357.74 491.577
712 1 36.1504 10.8989 394 108.825 1359.48 509.381
713 0 39.1385 13.0051 509 106.483 1360.51 509.635
714 0 39.2231 13.4105 526 107.063 1360.65 509.823
715 0 42.2393 13.4235 567 106.287 1359.87 509.258
716 0 45.1774 13.2367 598 106.819 1358 510.005
717 0 45.0547 13.0286 587 109.225 1357.71 509.806
718 0 47.1862 13.6693 645 108.767 1356.64 509.623
719 0 49.0351 13.3578 655 110.542 1354.47 507.408
720 0 51.343 14.0039 719 109.008 1353.81 507.478
721 0 53.065 13.3233 707 110.692 1352.71 507.281
722 0 54.1083 13.0294 705 112.223 1350.84 505.462
723 0 56.1967 13.7731 774 109.597 1348.39 502.87
724 0 60.3613 15.3078 924 104.608 1347.78 502.56
725 0 60.191 14.5703 877 108.531 1347.17 499.94
726 0 62.2163 14.0317 873 110.071 1346.87 497.195
727 0 65.4469 14.3322 938 108.341 1346.45 495.559
728 0 67.1935 14.5847 980 108.456 1346.36 494.111
729 1 37.1875 12.1008 450 107.287 1344.8 508.053
730 0 36.152 12.1432 439 109.344 1344.59 505.387
731 0 38.1227 9.99405 381 112.68 1344.73 504.625
732 0 41.0153 13.4096 550 105.955 1345.87 503.098
733 0 42.1203 13.8413 583 105.302 1346.02 503.473
734 0 44.0658 14.0245 618 105.23 1348.08 502.811
735 0 46.0809 13.3895 617 107.663 1349.31 501.655
736 0 49.1553 13.081 643 107.283 1351.42 502.49
737 0 50.0957 13.8934 696 106.717 1352.26 501.432
738 0 51.2978 14.3671 737 107.014 1353.88 499.621
739 0 54.4164 14.0399 764 106.783 1355.78 501.658
740 0 55.126 13.4601 742 109.132 1356.57 502.474
741 0 59.2549 13.8723 822 108.131 1356.74 503.883
742 0 61.2375 14.6806 899 107.633 1357.41 503.501
743 0 66.1314 16.2102 1072 102.061 1356.78 506.368
744 0 69.1561 15.0529 1041 107.048 1355.58 505.043
745 1 38.098 10.0005 381 108.478 1353.79 521.299
746 0 39.1271 11.092 434 108.585 1351.85 520.585
747 0 42.1755 12.4717 526 106.65 1350.1 519.013
748 0 43.1784 12.8073 553 105.139 1347.43 518.174
749 0 45.0781 12.5116 564 105.615 1347.81 518.094
750 0 46.1234 13.3121 614 104.987 1346.74 515.71
751 0 49.1818 13.1553 647 104.468 1345.16 514.539
752 0 50.1832 12.5141 628 106.123 1343.12 512.71
753 0 52.0807 13.6711 712 103.463 1341.37 510.753
754 0 52.2151 13.7317 717 104.572 1340.53 507.308
755 0 54.0796 12.648 684 106.219 1341.24 507.063
756 0 56.0644 14.9649 839 102.215 1341.53 503.409
757 0 58.0864 13.962 811 103.561 1340.79 502.457
758 0 60.2954 13.6163 821 102.269 1341.68 500.508
759 0 62.1793 13.3807 832 103.792 1341.69 498.446
760 0 63.1111 12.3433 779 105.35 1342.92 497.664
761 0 65.1281 12.9284 842 104.54 1343.91 497.119
762 0 68.0752 14.2343 969 102.155 1344.85 495.984
763 0 70.1482 13.9134 976 103.883 1346.91 494.038
764 1 40.0585 10.6095 425 103.379 1348.99 509.12
765 0 43.0124 11.9733 515 101.717 1349.75 508.006
766 0 42.0622 11.8634 499 102.653 1351.62 508.307
767 0 45.0585 12.0954 545 103.007 1353.26 508.163
768 0 47.0472 13.4121 631 100.621 1353.98 507.39
769 0 48.1104 12.6376 608 102.878 1353.93 508.339
770 0 49.207 12.7421 627 103.622 1354.13 506.882
771 0 51.1189 12.8328 656 104.715 1353.37 506.332
772 0 56.3135 13.5136 761 99.8607 1353.48 507.687
773 0 56.106 12.6011 707 103.365 1352.92 509.134
774 0 60.1286 12.1406 730 99.9438 1351.25 506.789
775 0 62.0819 14.1748 880 94.533 1350.51 507.872
776 0 65.1784 13.2099 861 89.8362 1349.09 504.791
777 0 69.1966 14.2493 986 86.0913 1348.09 501.946
778 0 71.1104 12.8673 915 88.059 1346.95 500.648
779 0 73.197 13.9896 1024 86.9941 1344.32 496.008
780 1 38.0251 11.9395 454 81.7797 1344.28 515.619
781 0 40.0133 11.2962 452 80.6925 1343.33 514.768
782 0 40.0298 12.0161 481 80.7297 1342.62 511.713
783 0 41.0532 11.1563 458 82.4913 1343.46 509.5
784 0 44.0345 12.2631 540 80.3685 1344.46 508.426
785 0 46.0776 13.7377 633 77.8736 1344 509.114
786 0 45.0323 11.8138 532 81.7801 1343.8 505.088
787 0 48.0643 12.7121 611 79.8658 1343.97 505.383
788 0 48.0577 11.6318 559 81.4168 1345.13 506.748
789 0 49.1225 12.6826 623 81.0867 1345.71 503.814
790 0 53.0908 13.637 724 80.5401 1345.76 502.605
791 0 55.2589 13.102 724 80.2113 1347.47 503.732
792 0 57.1853 13.8497 792 80.6616 1349.15 504.394
793 0 57.0953 10.3861 593 87.6459 1351.64 503.224
794 0 63.2568 12.9947 822 83.5791 1352.71 503.987
795 0 64.1178 12.5706 806 86.8089 1354.75 503.115
796 0 68.2548 13.5082 922 85.59 1354.94 503.779
797 0 70.3362 12.6251 888 89.2804 1354.38 502.467
798 0 74.3015 13.4048 996 89.0813 1352.92 498.818
799 1 40.1958 10.9215 439 85.8383 1352.32 522.091
800 0 41.0998 12.1655 500 86.83 1351 519.448
801 0 45.2479 12.3321 558 86.3817 1347.59 520.287
802 0 47.1196 12.8397 605 85.3223 1346.19 519.255
803 0 49.0563 13.1685 646 86.6548 1344.33 517.817
804 0 49.2052 12.8238 631 88.6624 1342.06 515.558
805 0 50.1767 12.0773 606 90.4538 1340.35 512.984
806 0 54.3358 15.0729 819 83.6606 1339.74 512.125
807 0 55.1845 13.6089 751 87.4754 1338.48 510.712
808 0 56.2425 12.6417 711 92.0506 1338.05 507.636
809 0 59.2792 13.9003 824 89.3398 1337.68 504.075
810 0 60.3867 13.7613 831 88.8147 1338.52 504.029
811 0 61.2234 13.3609 818 91.0086 1338.21 501.546
812 0 64.6547 14.4924 937 89.1387 1338.7 498.85
813 0 65.369 13.9822 914 91.4059 1339.69 496.498
814 0 69.5562 14.5206 1010 89.4168 1340.62 494.522
815 0 69.268 14.148 980 91.0051 1341.87 493.492
816 0 72.3725 13.8174 1000 91.897 1342.91 494.02
817 1 41.309 9.85256 407 89.1769 1345.18 511.015
818 0 40.246 9.3177 375 91.48 1347.09 510.648
819 0 42.0722 12.1933 513 91.3294 1348.9 507.123
820 0 45.1212 12.3445 557 91.018 1350.75 507.873
821 0 44.0372 11.672 514 93.8541 1351.79 506.586
822 0 48.2459 14.7785 713 87.2496 1352.12 508.077
823 0 49.1145 13.3362 655 90.9206 1353.5 507.289
824 0 50.179 13.7308 689 90.4485 1353.36 507.245
825 0 51.2514 12.6826 650 92.4692 1352.93 506.22
826 0 55.2119 12.5516 693 92.2799 1352.6 506.397
827 0 57.2417 11.862 679 92.9632 1351.75 507.829
828 0 59.3517 14.2203 844 88.3246 1350.7 508.194
829 0 60.2747 12.0946 729 92.6735 1348.64 504.405
830 0 64.2339 12.4233 798 90.1855 1346.8 506.099
831 0 65.3878 11.7453 768 90.6432 1345.28 501.611
832 0 71.1342 14.564 1036 86.749 1344.33 499.383
833 0 71.3281 12.099 863 89.7288 1343.89 497.977
834 0 76.2431 13.2209 1008 88.2688 1343.13 494.694
835 1 44.0337 9.99234 440 85.9114 1343.31 510.782
836 0 43.1083 11.8539 511 84.2133 1343.24 508.636
837 0 48.1031 13.1384 632 82.1725 1342.8 505.888
838 0 48.0774 12.0431 579 83.1209 1342.72 504.731
839 0 48.0284 12.2011 586 84.07 1343.52 502.236
840 0 50.0569 12.1262 607 84.1252 1344.51 503.272
841 0 53.0258 12.2205 648 84.108 1344.42 502.685
842 0 55.1114 14.5342 801 81.2659 1344.31 500.979
843 0 55.1521 12.6559 698 86.3023 1344.78 500.894
844 0 58.2398 13.908 810 83.8062 1347.64 501.435
845 0 60.2072 13.2708 799 86.3279 1348.32 498.691
846 0 59.0769 11.3919 673 91.0178 1350.23 501.214
847 0 59.0769 11.3242 669 138.2 1352.25 501.248
848 0 65.1986 12.807 835 89.2204 1352.69 500.394
849 0 70.2582 12.5537 882 88.9785 1353.27 500.594
850 0 73.1944 11.9545 875 91.9371 1353.96 498.79
851 0 76.2438 12.5256 955 90.8461 1354.49 497.591
852 1 43.2978 11.2246 486 89.0967 1355.47 516.811
853 0 43.1168 11.782 508 88.4685 1353.5 517.652
854 0 48.1497 11.2358 541 88.9649 1351.4 517.148
855 0 49.169 11.796 580 88.1466 1349.26 515.917
856 0 52.2457 13.3217 696 85.3692 1347.91 514.172
857 0 53.3168 12.7164 678 86.708 1345.73 510.755
858 0 56.1568 12.9637 728 86.0371 1344.22 510.543
859 0 58.2063 14.0706 819 82.6374 1341.94 509.609
860 0 60.2642 14.8513 895 82.1285 1341.11 508.837
861 0 60.2931 12.3895 747 87.0161 1339.65 504.91
862 0 64.2889 12.0861 777 85.5727 1340.33 504.273
863 0 65.3796 13.674 894 84.5783 1339.16 499.535
864 0 68.2371 13.5557 925 84.0508 1339.1 500.535
865 0 68.2698 11.8647 810 88.9506 1339.19 496.404
866 0 71.2745 14.2548 1016 86.2293 1340.02 493.639
867 1 38.0398 10.9622 417 85.6667 1341.78 511.36
868 0 41.0298 11.3089 464 83.3254 1342.31 509.409
869 0 42.0241 11.8503 498 82.3735 1343.6 508.717
870 0 42.0458 9.08533 382 86.877 1345.13 508.228
871 0 45.1185 12.4118 560 83.1607 1345.3 508.07
872 0 46.0709 11.7428 541 85.0407 1346.32 507.323
873 0 48.0373 11.3037 543 87.1805 1348.28 506.018
874 0 51.0691 12.0425 615 87.813 1349.32 506.546
875 0 52.0392 12.4329 647 87.0278 1349.6 504.946
876 0 56.115 12.4566 699 87.6238 1349.81 505.318
877 0 58.08 14.0151 814 86.9005 1350.74 503.647
878 0 61.1569 14.6508 896 87.8683 1351.4 504.381
879 0 62.1077 13.1224 815 94.5215 1351.34 503.307
880 0 64.1346 13.7835 884 94.3043 1351.47 503.032
881 0 69.1734 13.8059 955 95.3058 1349.61 501.01
882 0 71.2356 14.9785 1067 93.7329 1347.59 501.836
883 0 74.0767 14.242 1055 96.1924 1345.76 499.387
884 0 80.1461 15.6589 1255 92.2653 1344.3 497.559
885 0 82.3084 14.5064 1194 94.9673 1342.64 495.657
886 0 87.0984 16.3608 1425 88.4028 1341.28 494.391
887 0 89.1737 16.0922 1435 88.4523 1340.14 491.215
888 1 48.1372 12.9422 623 89.4446 1340.46 508.978
889 0 47.0781 13.4033 631 91.1902 1339.99 506.033
890 0 46.0225 10.3862 478 96.8013 1340.64 506.456
891 0 55.0947 12.8143 706 90.6105 1340.06 504.13
892 0 52.0671 12.5415 653 94.4135 1340.7 500.502
893 0 55.1227 13.5697 748 90.7527 1340.57 500.201
894 0 56.1313 12.5955 707 92.9109 1341.43 496.936
895 0 61.0609 15.3617 938 86.5203 1341.33 496.288
896 0 60.1608 14.5942 878 90.402 1342.89 492.642
897 0 62.0277 14.6064 906 90.734 1344.39 493.323
898 0 66.1732 14.4469 956 90.5345 1346.6 493.743
899 0 67.0995 14.5605 977 91.2098 1346.89 492.202
900 0 70.2698 14.8428 1043 91.7315 1348.82 491.081
901 0 75.1327 14.5077 1090 92.6606 1351.11 491.769
902 0 78.166 14.0726 1100 93.7891 1352.99 492.061
903 0 80.1735 14.8179 1188 94.2374 1354.63 489.46
904 0 83.0535 14.7014 1221 96.0115 1355.24 489.187
905 0 88.1685 15.1982 1340 94.5746 1355.82 490.019
906 0 91.1344 15.6801 1429 94.6907 1355.44 490.973
907 1 49.322 9.99554 493 98.2718 1354.46 513.655
908 0 50.106 11.8549 594 98.0539 1353.33 513.524
909 0 53.0847 12.9039 685 95.8949 1351.03 513.407
910 0 53.0864 12.5833 668 96.7126 1347.96 510.903
911 0 57.209 13.3545 764 93.1113 1346.46 510.971
912 0 58.293 13.1577 767 92.6193 1344.87 509.979
913 0 61.1334 14.362 878 92.7995 1343.93 506.731
914 0 63.1742 13.3282 842 95.8195 1343.49 505.259
915 0 67.2002 14.5386 977 92.6387 1342.7 502.362
916 0 68.2675 13.4617 919 95.0131 1341.89 501.666
917 0 71.2261 14.3487 1022 94.317 1341.17 497.595
918 1 37.0751 10.681 396 97.9621 1342.21 513.01
919 0 39.1293 9.68584 379 97.0976 1342.89 513.369
920 0 41.1877 11.9939 494 96.1518 1341.98 511.433
921 0 44.1752 11.8845 525 96.0152 1341.78 510.055
922 0 44.2123 14.7244 651 93.576 1342.3 506.948
923 0 46.1607 14.1246 652 92.9248 1342.78 509.035
924 0 46.1477 13.1317 606 96.4802 1343.47 507.705
925 0 48.1571 14.1412 681 95.6623 1344.16 506.564
926 0 48.2499 13.8446 668 97.8847 1345.93 507.04
927 0 51.2531 13.1894 676 97.8728 1347.8 508.621
928 0 52.1904 13.719 716 98.6131 1349.58 507.454
929 0 53.1878 14.3454 763 100.666 1351.67 507.288
930 0 54.1982 13.5429 734 104.849 1353.68 508.253
931 0 57.1824 13.7979 789 106.421 1353.3 507.942
932 0 59.0791 12.6441 747 108.971 1352.94 509.078
933 0 62.1664 13.5926 845 108.064 1352.48 507.662
934 0 65.1922 15.2472 994 104.313 1351.43 507.136
935 0 67.084 13.9378 935 106.527 1349.32 506.78
936 0 69.1373 14.8111 1024 106.205 1347.12 506.981
937 0 72.1597 13.8443 999 106.436 1345.06 503.876
938 0 76.2855 14.2753 1089 106.413 1343.52 500.307
939 1 43.0573 11.4731 494 107.86 1342.5 515.642
940 0 43.0858 11.1173 479 108.117 1341.22 514.146
941 0 47.1439 11.9846 565 105.35 1340.23 512.016
942 0 47.1513 11.3677 536 107.31 1339.74 509.698
943 0 50.1243 12.9478 649 103.609 1338.54 508.455
944 0 52.1228 13.8135 720 103.14 1338.85 504.265
945 0 54.1186 13.8585 750 101.455 1338.64 503.529
946 0 54.1923 13.3783 725 103.754 1338.6 499.621
947 0 57.1205 15.7211 898 98.6826 1338.62 499.213
948 0 59.2197 13.813 818 101.604 1339.57 497.478
949 0 59.175 14.3473 849 100.98 1340.7 497.518
950 0 64.149 14.5131 931 99.6219 1341.5 494.374
951 0 63.2253 13.2384 837 103.93 1342.89 492.922
952 0 66.1516 14.497 959 100.966 1343.5 493.984
953 0 68.1756 12.4678 850 107.154 1346.57 492.472
954 0 72.1513 13.8875 1002 105.234 1347.76 491.248
955 0 76.0785 14.9057 1134 103.458 1350.27 490.16
956 0 78.0641 14.155 1105 106.919 1352.57 489.432
957 0 82.2611 14.4783 1191 106.56 1354.9 489.118
958 1 44.0282 11.3109 498 107.39 1356.74 510.777
959 0 47.0608 12.8982 607 106.465 1356.61 508.885
960 0 49.0874 12.7528 626 106.903 1356.28 509.01
961 0 50.1339 13.444 674 105.973 1355.46 510.558
962 0 51.2294 12.5709 644 109.143 1353.77 509.974
963 0 55.1193 13.498 744 107.194 1353.17 509.903
964 0 55.0977 13.7211 756 108.14 1351.14 508.567
965 0 59.1695 14.1458 837 106.241 1349.08 505.896
966 0 63.2536 14.3391 907 103.615 1346.92 504.987
967 0 65.1586 14.0273 914 104.318 1345.18 502.042
968 0 68.1369 13.7517 937 103.166 1344.58 499.644
969 1 38.025 11.8869 452 98.9447 1343.87 516.088
970 0 39.0503 11.8821 464 101.297 1342.53 511.983
971 0 40.0298 10.4672 419 106.94 1342.35 510.585
972 0 41.0652 10.0815 414 107.577 1343.39 508.111
973 0 44.0467 12.2824 541 102.542 1342.97 506.163
974 0 45.0166 12.5954 567 102.053 1342.85 504.384
975 0 47.1147 14.0296 661 98.8321 1342.91 503.206
976 0 48.1207 13.1337 632 101.342 1343.34 501.312
977 0 48.0502 12.7367 612 103.082 1343.8 499.214
978 0 52.2275 12.1966 637 103.221 1344.23 499.944
979 0 52.2196 12.007 627 103.295 1345.63 500.289
980 0 54.0361 13.1024 708 101.739 1347.95 499.291
981 0 57.0363 13.5878 775 101.125 1349.53 498.928
982 0 58.144 13.5698 789 101.814 1351.4 498.537
983 0 61.1921 14.7241 901 99.2408 1352.77 497.98
984 0 62.0574 12.9074 801 104.255 1354.79 498.606
985 0 67.0556 13.7796 924 100.756 1355.86 498.998
986 0 69.1218 13.4256 928 102.498 1356.15 498.574
987 0 72.0378 14.2009 1023 101.691 1356.93 498.186
988 1 36.0157 10.5787 381 103.924 1356.45 516.097
989 0 37.0056 10.0525 372 104.425 1354.68 516.616
990 0 42.0256 12.2544 515 99.6252 1352.31 515.88
991 0 43.0141 12.4843 537 96.9944 1350.92 517.929
992 0 44.1452 13.7048 605 95.9223 1349.4 513.043
993 0 46.0465 11.749 541 99.0481 1348.25 512.858
994 0 49.0423 12.2343 600 97.235 1346.74 509.753
995 0 50.1799 12.6345 634 96.817 1344.64 509.224
996 0 51.1045 13.4431 687 95.3814 1343.26 508.419
997 0 54.0651 14.7045 795 93.7874 1343.78 505.387
998 0 56.0438 14.6493 821 93.9793 1343.92 504.217
999 0 59.0648 12.9519 765 96.5974 1343 501.595
1000 0 60.1564 13.3818 805 96.1503 1343.27 499.025
1001 0 62.0641 13.8244 858 96.4417 1343.36 498.624
1002 0 63.1253 13.4494 849 97.596 1343.34 495.392
1003 1 37.1202 10.7219 398 96.1231 1343.48 509.741
1004 0 39.033 11.2981 441 96.9864 1344.69 507.701
1005 0 39.0512 10.5503 412 100.723 1345.8 505.563
1006 0 42.0743 11.5034 484 97.5207 1347.7 505.874
1007 0 42.069 13.1213 552 96.4312 1348.11 505.288
1008 0 44.1027 12.9017 569 97.1758 1349.14 505.322
1009 0 46.1898 13.3146 615 98.2472 1350.77 506.106
1010 0 48.2698 13.4245 648 99.1404 1352.92 505.971
1011 0 50.1939 13.4279 674 99.4258 1355.57 506.157
1012 0 50.094 12.3368 618 102.814 1355.78 506.372
1013 0 52.2544 12.7453 666 102.502 1355.48 505.905
1014 0 57.0889 14.3636 820 98.8805 1356.85 505.659
1015 0 59.1036 14.5 857 99.5029 1356.54 506.898
1016 0 61.1235 14.8225 906 98.0618 1355.35 506.772
1017 0 64.155 12.766 819 101.712 1353.22 506.643
1018 0 68.1167 13.609 927 101.042 1352.35 503.695
1019 0 69.1768 14.1377 978 100.03 1350.45 503.874
1020 0 73.1652 14.2007 1039 101.342 1349.31 500.784
1021 1 36.1479 11.3146 409 102.342 1348.45 519.274
1022 0 37.0406 10.853 402 101.915 1346.46 518.98
1023 0 41.066 11.2015 460 101.576 1345.82 517.243
1024 0 42.1022 11.1871 471 103.89 1345.2 514.251
1025 0 44.0478 13.0086 573 102.613 1343.18 509.981
1026 0 46.1068 13.0566 602 102.601 1343.06 509.555
1027 0 48.1258 12.9868 625 103.144 1342.61 505.659
1028 0 49.0662 13.6754 671 103.659 1343.31 503.949
1029 0 50.0944 14.7122 737 102.244 1343.2 502.457
1030 0 51.2294 13.0394 668 107.136 1344.25 501.711
1031 0 52.1291 13.2939 693 106.948 1345.62 501.012
1032 0 55.2026 14.637 808 103.87 1345.75 498.527
1033 0 57.0833 14.3475 819 102.44 1347.02 500.476
1034 0 60.082 14.4136 866 102.301 1348.67 498.52
1035 0 62.0478 12.8772 799 105.37 1350.56 496.874
1036 0 64.2553 13.9132 894 103.378 1352.49 496.796
1037 0 66.2517 14.2638 945 102.901 1353.48 495.269
1038 0 67.1599 13.9369 936 104.969 1355.69 495.476
1039 0 74.1746 14.749 1094 101.399 1356.79 496.426
1040 0 76.1849 13.8085 1052 104.135 1357.19 494.273
1041 0 81.3362 15.0241 1222 100.355 1357.19 495.926
1042 0 84.0936 15.0546 1266 101.426 1357.2 493.159
1043 1 45.2736 13.2528 600 101.12 1356.76 513.757
1044 0 43.1285 9.66878 417 110.029 1356.68 514.42
1045 0 48.2873 12.5913 608 102.942 1354.92 514.161
1046 0 50.2083 13.922 699 100.561 1352.28 510.96
1047 0 53.254 12.7878 681 102.172 1349.82 511.022
1048 0 54.3366 13.8581 753 100.316 1349.01 509.507
1049 0 55.1549 13.0904 722 102.294 1347.07 507.821
1050 0 59.2792 13.7485 815 100.283 1346.11 503.937
1051 0 61.3536 12.3709 759 103.235 1343.76 502.746
1052 0 66.195 13.3998 887 100.039 1342.37 499.481
1053 0 68.5057 14.101 966 98.2101 1342.95 496.585
1054 0 70.1774 14.2354 999 98.4244 1342.47 492.92
1055 0 73.2696 13.7028 1004 99.0488 1342.68 491.286
1056 0 78.3583 15.7099 1231 93.7051 1343.08 488.79
1057 1 41.1602 11.1516 459 97.1852 1343.65 505.728
1058 0 41.1186 10.9683 451 97 1344.16 505.004
1059 0 42.2511 11.195 473 95.4482 1345.38 503.858
1060 0 46.0583 10.313 475 93.9979 1346.75 503.448
1061 0 47.089 12.6569 596 90.8188 1348.19 502.084
1062 0 49.1411 12.2911 604 91.149 1349.51 501.141
1063 0 49.1024 12.3823 608 92.0493 1350.92 499.877
1064 0 52.0466 13.9875 728 88.9313 1352.3 501.118
1065 0 53.0521 13.3454 708 90.2585 1353.24 501.881
1066 0 55.1762 12.9404 714 92.1106 1355.47 500.095
1067 0 57.2692 11.315 648 94.3534 1357.55 502.381
1068 0 59.1452 13.5429 801 91.2222 1357.75 501.931
1069 0 62.1948 13.313 828 91.1002 1357.77 501.665
1070 0 65.245 13.9168 908 89.3844 1355.8 502.007
1071 0 68.2815 14.9967 1024 89.2168 1354.94 499.267
1072 0 74.3331 14.8924 1107 87.8446 1354.47 499.716
1073 0 74.4347 15.3692 1144 89.6407 1353.16 496.01
1074 0 78.2152 15.777 1234 78.3331 1350.6 498.93
1075 1 40.2635 8.71758 351 94.5043 1350.7 515.37
1076 0 38.2602 7.68423 294 94.0578 1349.56 515.949
1077 0 46.3471 11.1118 515 91.8136 1347.46 509.499
1078 0 48.1568 13.02 627 87.8022 1345.89 509.298
1079 0 48.1547 11.4631 552 91.0417 1345.89 506.65
1080 0 49.2021 13.1702 648 88.6296 1344.74 502.764
1081 0 53.1148 13.8379 735 86.1646 1344.88 502.706
1082 0 53.1719 13.0332 693 87.9553 1345.3 500.15
1083 0 57.1505 14.2606 815 84.7706 1345.36 499.407
1084 0 56.1404 14.1431 794 87.6713 1345.46 496.108
1085 0 60.3966 13.5272 817 87.4969 1345.19 493.785
1086 0 60.2018 14.3683 865 86.467 1346.34 494.172
1087 0 65.2534 13.1181 856 87.6051 1348.02 492.833
1088 0 66.1512 13.4389 889 88.2025 1348.98 492.786
1089 0 70.2023 13.8742 974 87.4928 1350.43 491.456
1090 0 75.1484 14.7175 1106 85.4286 1352.49 491.305
1091 0 79.3706 16.1899 1285 82.6506 1354.37 491.273
1092 1 42.0891 10.2164 430 90.8721 1356.52 508.188
1093 0 45.2246 12.1615 550 87.0327 1358.51 508.527
1094 0 45.0163 11.6402 524 89.8168 1359.05 508.036
1095 0 47.0902 14.5041 683 86.3324 1359.75 507.429
1096 0 48.0334 12.304 591 90.1388 1359.86 509.014
1097 0 53.0788 13.2633 704 88.3864 1359.85 509.612
1098 0 55.054 13.5685 747 87.6078 1358.46 510.928
1099 0 57.0415 12.2718 700 90.2657 1356.32 510.413
1100 0 57.085 12.9281 738 92.2995 1354.89 507.356
1101 0 61.0389 13.4504 821 89.838 1352.68 507.685
1102 0 66.0962 15.5077 1025 85.5015 1350.6 506.271
1103 0 68.0326 14.64 996 87.7309 1348.85 502.66
1104 0 71.0936 14.08 1001 88.5964 1347.72 501.008
1105 1 36.0088 11.7471 423 88.1773 1346.52 515.804
1106 0 37.1022 11.0505 410 89.0268 1347.31 514.256
1107 0 33.0115 10.8447 358 91.0531 1346 512.455
1108 0 39.1189 11.0177 431 89.6357 1344.49 510.42
1109 0 39.1109 11.608 454 89.641 1343.98 507.59
1110 0 42.079 13.0944 551 87.4084 1344.7 506.098
1111 0 43.1372 13.3991 578 86.8581 1344.8 505.038
1112 0 44.1155 12.2859 542 90.0018 1345.83 502.985
1113 0 47.1151 12.565 592 89.0912 1347.46 502.824
1114 0 48.1881 14.6717 707 85.9774 1348.83 502.485
1115 0 48.1416 12.671 610 91.859 1349.15 500.936
1116 0 50.1172 13.6281 683 89.3807 1350.97 500.78
1117 0 53.1134 13.4994 717 87.4686 1352.33 501.145
1118 0 53.2195 12.533 667 91.6897 1353 501.03
1119 0 55.3686 12.9315 716 92.074 1355.83 499.377
1120 0 57.2704 13.4625 771 91.2685 1356.89 499.038
1121 0 62.203 14.099 877 89.6283 1358.89 499.69
1122 0 64.2989 14.2615 917 90.7961 1358.46 499.83
1123 0 67.4147 14.166 955 91.5183 1359.11 499.913
1124 0 72.2007 13.6564 986 92.2769 1357.85 498.657
1125 0 76.3189 15.4221 1177 89.712 1356.69 498.679
1126 1 40.1289 11.7621 472 94.4555 1354.27 515.57
1127 0 43.1382 11.127 480 95.3625 1352.55 516.521
1128 0 44.2277 10.446 462 95.4697 1351.41 516.673
1129 0 48.1222 13.0917 630 90.7333 1350.13 514.295
1130 0 49.1845 13.5408 666 91.9865 1347.81 510.838
1131 0 50.0848 12.978 650 93.4538 1346.87 509.503
1132 0 52.0334 12.9917 676 93.0473 1346.12 508.432
1133 0 55.1071 13.9365 768 91.0872 1345.8 506.165
1134 0 56.1336 14.0558 789 91.9531 1344.6 501.904
1135 0 59.12 13.3288 788 93.7957 1344.13 501.015
1136 0 60.1102 12.9762 780 95.0872 1345.11 499.35
1137 0 60.172 12.7967 770 96.6558 1345.42 497.357
1138 0 65.2346 13.965 911 94.1251 1344.9 494.745
1139 0 68.1756 14.888 1015 92.5222 1345.13 493.624
1140 0 70.1465 14.8689 1043 92.2263 1346.05 494.083
1141 0 74.1904 15.0154 1114 93.518 1345.67 490.303
1142 1 40.2679 11.5477 465 94.8882 1347.96 507.787
1143 0 40.2159 10.4436 420 98.0952 1348.97 507.002
1144 0 44.3275 10.3773 460 96.7739 1350.95 508.978
1145 0 47.1402 13.2583 625 92.7264 1353.21 508.067
1146 0 49.2153 14.6296 720 92.0222 1355.27 506.074
1147 0 50.2454 14.0709 707 93.9052 1357.6 506.574
1148 0 51.1163 13.0878 669 97.2601 1358.23 506.622
1149 0 56.3168 13.0512 735 96.9646 1358.37 508.147
1150 0 55.168 13.5767 749 96.769 1359.13 507.146
1151 0 60.3344 16.4251 991 90.4178 1356.38 507.13
1152 0 63.1904 14.7016 929 93.9957 1355.36 505.548
1153 0 65.1269 14.9401 973 93.2148 1354.6 506.636
1154 0 67.1904 15.0468 1011 93.7102 1352.83 506.559
1155 0 69.3167 13.9216 965 96.1181 1351.26 503.903
1156 0 72.2298 14.6062 1055 95.6237 1349.82 500.844
1157 1 38.4066 10.4669 402 97.8358 1348.63 519.443
1158 0 41.121 12.0377 495 97.5333 1346.97 515.584
1159 0 44.3414 12.8322 569 95.1652 1346.39 514.55
1160 0 46.1638 13.4088 619 95.4523 1346.04 512.548
1161 0 46.0765 14.6279 674 94.0772 1344.64 509.445
1162 0 50.1738 13.6127 683 96.183 1344.23 507.389
1163 0 52.0883 15.0706 785 94.0955 1343.68 505.345
1164 0 53.2009 14.7742 786 94.4389 1344.03 503.588
1165 0 54.1663 14.3816 779 94.6252 1344.44 502.071
1166 0 56.3025 13.3387 751 97.2823 1343.9 499.981
1167 0 58.2376 14.9045 868 96.159 1344.64 496.889
1168 0 60.2736 15.0314 906 94.553 1345.33 498.078
1169 0 61.1986 14.6735 898 95.5935 1345.95 496.425
1170 0 63.2437 14.1358 894 97.2987 1346.29 494.631
1171 0 66.3182 14.3249 950 96.6063 1347.8 493.449
1172 0 70.1902 15.1446 1063 95.111 1350.12 493.74
1173 0 74.1716 15.3967 1142 92.9448 1351.9 494.499
1174 0 74.2419 16.096 1195 95.4377 1353.69 491.69
1175 1 42.0693 9.93598 418 99.3445 1355.94 509.794
1176 0 45.0472 14.2073 640 93.0922 1357.54 509.195
1177 0 45.0743 11.359 512 100.469 1358.1 508.301
1178 0 49.1588 12.7546 627 96.8166 1358.57 508.263
1179 0 50.1316 12.9659 650 97.0569 1358.4 508.675
1180 0 55.0543 14.3313 789 93.7452 1357.78 508.347
1181 0 55.1111 13.3911 738 97.3225 1355.8 508.447
1182 0 58.2025 14.2949 832 94.75 1355.11 508.892
1183 0 57.1659 13.1197 750 100.008 1352.64 505.369
1184 0 63.1141 14.9412 943 94.4804 1351.7 505.718
1185 0 65.084 14.2585 928 96.7565 1350.68 502.573
1186 0 69.2254 15.3412 1062 95.2891 1349.5 500.355
1187 0 72.0986 14.1196 1018 98.8713 1348.19 498.043
1188 0 73.1377 15.0265 1099 98.1328 1347.38 495.367
1189 1 40.1391 11.6096 466 97.6953 1346.37 511.918
1190 0 40.0235 10.294 412 100.718 1345.96 509.915
1191 0 42.026 12.1591 511 98.8102 1345.38 507.327
1192 0 43.0525 12.4964 538 100.457 1345.25 504.4
1193 0 45.0369 12.5231 564 100.363 1345.83 502.945
1194 0 47.1655 14.4809 683 97.4407 1345.56 501.249
1195 0 48.2292 13.7676 664 100.714 1346.37 500.099
1196 0 51.1272 13.1437 672 100.473 1346.56 500.213
1197 0 52.1279 13.5628 707 99.9194 1347.4 499.129
1198 0 53.195 12.8584 684 103.079 1348.58 497.801
1199 0 54.1826 13.03 706 103.559 1350.27 496.535
1200 0 58.3067 12.9488 755 102.379 1352.18 496.934
1201 0 60.2322 14.2615 859 100.339 1353.64 495.853
1202 0 61.3385 13.5152 829 104.366 1355.02 494.648
1203 0 66.2675 12.857 852 104.477 1356.83 495.05
1204 0 68.2073 12.6086 860 104.121 1357.67 496.72
1205 0 70.2853 13.3598 939 104.261 1358.71 493.6
1206 0 73.2045 12.4036 908 106.324 1358.98 494.197
1207 1 38.145 11.5087 439 102.016 1359.29 512.456
1208 0 41.2477 9.50356 392 104.064 1357.78 514.321
1209 0 42.2539 11.9752 506 102.508 1356.28 513.128
1210 0 45.3003 12.2516 555 100.252 1354.48 514.458
1211 0 47.2516 12.9731 613 98.6199 1353.25 513.383
1212 0 49.2314 11.903 586 101.635 1352.07 511.894
1213 0 50.2293 12.1841 612 101.43 1350.52 510.026
1214 0 52.1176 12.4334 648 101.076 1350.02 508.259
1215 0 53.1028 13.1066 696 101.093 1348.49 505.603
1216 0 54.0994 12.7173 688 102.608 1347.79 504.68
1217 0 58.232 13.824 805 99.6484 1346.22 500.74
1218 0 57.3144 12.4227 712 102.362 1345.96 498.691
1219 1 31.0126 9.28653 288 103.451 1346.07 511.632
1220 0 33.0668 9.07256 300 102.963 1346.49 510.27
1221 0 37.0683 11.843 439 98.0478 1346.9 507.214
1222 0 38.1257 11.3834 434 98.8456 1347.07 507.917
1223 0 38.2183 9.9952 382 102.518 1347.31 507.194
1224 0 42.2133 12.9106 545 95.4294 1348.37 506.07
1225 0 41.139 12.1539 500 99.39 1349.05 504.468
1226 0 41.2577 12.4825 515 100.468 1352.17 504.819
1227 0 44.1871 12.8544 568 98.7958 1353.42 505.176
1228 0 44.1363 12.3028 543 102.68 1355.67 503.959
1229 0 49.1875 13.662 672 98.2515 1357.34 505.198
1230 0 49.1183 13.5998 668 100.952 1358.6 504.445
1231 0 50.123 12.8484 644 103.634 1359.84 505.644
1232 0 54.0156 14.3662 776 100.715 1359.96 505.898
1233 0 55.0202 13.5223 744 105.165 1360.68 503.847
1234 0 56.0356 13.4736 755 105.617 1360.81 507.012
1235 0 59.0735 12.95 765 107.413 1359.53 505.897
1236 0 62.0798 13.9659 867 104.815 1359.1 507.347
1237 0 64.0866 14.2776 915 105.423 1357.2 506.357
1238 0 67.078 14.0135 940 105.913 1355.58 505.911
1239 0 70.092 15.4083 1080 103.116 1353.49 503.911
1240 1 38.0742 11.0048 419 106.337 1352.03 518.986
1241 0 40.1159 10.8187 434 107.551 1350.71 517.164
1242 0 41.083 11.2942 464 109.144 1349.93 514.097
1243 0 40.0601 11.5826 464 111.409 1348.57 512.093
1244 0 43.0447 12.2663 528 109.186 1348.15 509.621
1245 0 46.0774 13.9548 643 102.821 1347.38 507.723
1246 0 49.0733 13.653 670 103.201 1347.36 506.428
1247 0 48.1482 13.6246 656 105.593 1345.76 504.038
1248 0 50.1562 13.3184 668 106.692 1347.07 503.472
1249 0 50.0698 12.5026 626 108.03 1348.09 503.212
1250 0 54.091 14.8823 805 102.379 1347.84 501.451
1251 0 56.1452 13.7857 774 104.09 1348.83 501.924
1252 0 55.082 13.8702 764 105.281 1349.06 499.533
1253 0 57.1605 12.5786 719 107.953 1350.22 500.54
1254 0 59.1337 14.0529 831 105.037 1351.83 499.85
1255 0 60.0595 13.3368 801 107.308 1353.41 499.216
1256 0 64.2376 14.8667 955 103.468 1355.4 498.664
1257 0 65.0754 15.0595 980 105.598 1358 498.17
1258 0 69.286 15.0535 1043 105.081 1358.35 499.342
1259 0 70.2308 13.7689 967 110.701 1358.71 499.152
1260 1 38.1182 9.83781 375 111.891 1358.7 517.677
1261 0 39.1111 11.2244 439 111.936 1358.66 516.572
1262 0 42.0891 12.7349 536 109.237 1357.97 515.58
1263 0 43.1061 12.0865 521 111.303 1356.85 516.027
1264 0 48.1362 13.815 665 106.544 1355.32 516.77
1265 0 47.0494 13.964 657 109.122 1352.93 514.326
1266 0 50.0231 14.0135 701 109.622 1351.34 512.271
1267 0 52.0828 14.4961 755 107.077 1349.59 511.151
1268 0 54.2302 13.8299 750 108.749 1346.93 508.604
1269 0 55.0679 14.237 784 107.696 1346.31 508.417
1270 0 57.1287 14.9137 852 106.847 1345.14 505.613
1271 0 61.032 15.1888 927 104.421 1345.01 504.053
1272 0 60.092 14.6608 881 107.621 1344.67 499.722
1273 0 62.169 13.9137 865 108.536 1345.12 498.074
1274 0 67.1344 13.3166 894 107.923 1344.09 495.832
1275 0 66.1203 13.3393 882 109.296 1344.32 493.515
1276 0 71.1363 15.0275 1069 104.891 1345.07 490.914
1277 0 73.1473 13.4796 986 107.624 1345.88 489.544
1278 1 38.1567 11.61 443 104.025 1347.6 506.664
1279 0 38.1127 11.2823 430 104.574 1349.54 507.358
1280 0 42.166 12.9725 547 102.271 1349.99 505.399
1281 0 42.1502 12.2182 515 103.594 1351.2 505.94
1282 0 46.1304 12.8115 591 100.645 1353.55 506.184
1283 0 46.1314 13.0714 603 102.423 1354.76 504.119
1284 0 48.1408 13.4605 648 101.75 1356.61 505.392
1285 0 50.1983 13.2275 664 102.223 1357.78 505.346
1286 0 51.1316 12.3407 631 103.479 1358.48 505.182
1287 0 54.1479 13.4816 730 101.573 1359.19 505.715
1288 0 56.1309 14.1099 792 100.747 1358.77 504.398
1289 0 59.1252 12.2621 725 102.801 1357.45 505.237
1290 0 61.1708 13.1435 804 101.201 1356.12 503.709
1291 0 62.1968 13.1197 816 102.955 1354.47 504.277
1292 0 67.1306 14.4196 968 100.104 1353.3 501.894
1293 0 70.0719 13.7002 960 102.411 1351.77 499.558
1294 0 71.1814 13.9362 992 103.264 1350.88 498.124
1295 0 76.2052 13.3062 1014 103.386 1349.83 495.9
1296 1 42.0439 10.8934 458 103.55 1349.4 511.114
1297 0 44.0453 11.7833 519 101.559 1348.97 510.555
1298 0 45.0312 12.4802 562 102.528 1347.58 506.884
1299 0 47.0771 12.299 579 102.946 1346.71 504.979
1300 0 48.096 12.9948 625 103.901 1346.18 501.755
1301 0 49.0667 12.6155 619 104.863 1345.84 500.3
1302 0 51.0167 13.1722 672 103.18 1347.03 499.448
1303 0 54.1059 12.6973 687 103.447 1347.8 499.662
1304 0 54.0513 13.9127 752 103.816 1349.36 496.082
1305 0 57.077 13.9636 797 101.871 1349.94 497.435
1306 0 57.074 12.2823 701 106.271 1351.31 496.954
1307 0 59.196 12.5346 742 106.086 1352.48 495.666
1308 0 62.0534 14.1652 879 103.179 1355.36 493.454
1309 0 66.1528 14.7386 975 100.059 1355.77 494.911
1310 0 69.1079 14.8898 1029 100.361 1356.49 492.475
1311 0 72.233 14.5363 1050 101.802 1358.33 493.279
1312 1 36.111 10.6339 384 103.328 1358.71 511.208
1313 0 40.0655 11.0319 442 105.025 1360.29 509.441
1314 0 43.1615 13.3916 578 98.9965 1360.93 510.983
1315 0 42.1446 12.3385 520 104.413 1360.37 510.492
1316 0 43.083 12.3483 532 105.383 1358.61 509.083
1317 0 47.0278 13.0561 614 102.236 1357.88 511.844
1318 0 49.1405 14.2449 700 101.72 1357.13 509.519
1319 0 49.1692 12.5688 618 105.006 1354.52 509.409
1320 0 52.1974 14.8092 773 100.382 1352.98 506.58
1321 0 53.1852 12.6727 674 105.68 1352 506.942
1322 0 56.131 13.3616 750 104.465 1350.14 503.555
1323 0 59.0383 14.1603 836 102.955 1349.32 501.605
1324 0 61.2563 12.7824 783 106.602 1347.47 497.822
1325 0 63.088 14.3133 903 103.104 1347.6 495.46
1326 0 66.1113 14.2941 945 104.423 1346.9 493.78
1327 0 67.1251 14.1229 948 105.622 1346.67 492.266
1328 1 37.0471 10.8241 401 105.185 1347.59 505.868
1329 0 36.0402 9.35067 337 107.522 1349.16 505.991
1330 0 38.0887 11.0006 419 104.594 1350.88 504.981
1331 0 41.0685 11.8582 487 104.31 1351.37 502.949
1332 0 43.0483 12.5441 540 102.146 1351.64 501.776
1333 0 46.0771 13.0651 602 101.61 1352.66 502.965
1334 0 48.1219 12.5722 605 102.663 1353.68 502.106
1335 0 50.182 12.1358 609 103.452 1355.81 503.399
1336 0 50.2058 13.3052 668 103.952 1358.07 502.141
1337 0 50.105 12.394 621 106.512 1359.83 503.037
1338 0 53.0516 13.1005 695 105.914 1360 500.911
1339 0 56.1265 12.8282 720 105.397 1360.99 502.2
1340 0 58.0871 12.2402 711 109.699 1362.14 500.956
1341 0 60.0441 12.2577 736 110.738 1361.2 500.815
1342 0 62.1389 12.6974 789 110.816 1360.04 500.797
1343 1 33.0257 8.50852 281 112.776 1359.65 517.128
1344 0 35.0689 9.18194 322 115.708 1357.66 515.755
1345 0 37.1034 9.08272 337 115.878 1356.09 516.691
1346 0 41.0584 11.301 464 112.011 1354.39 515.356
1347 0 40.0108 11.3469 454 115.841 1353.48 513.128
1348 0 43.0323 12.3396 531 112.891 1351.5 512.932
1349 0 47.1149 13.2018 622 110.265 1350.24 511.359
1350 0 48.1732 13.2231 637 113.14 1348.61 506.752
1351 0 47.1152 12.4801 588 116.939 1347.66 505.638
1352 0 50.221 12.3056 618 118.662 1347.59 502.748
1353 0 50.1149 11.6333 583 119.527 1347.26 501.295
1354 0 54.2488 12.3689 671 117.258 1347.27 497.11
1355 0 56.096 11.4625 643 119.114 1348.17 497.56
1356 0 59.2346 13.3537 791 113.631 1349.16 495.899
1357 0 61.1277 12.3348 754 116.204 1349.61 492.995
1358 0 62.2656 11.8685 739 116.583 1349.58 491.468
1359 0 67.3391 12.3554 832 114.918 1350.76 492.358
1360 0 68.2418 12.8221 875 115.434 1350.76 489.736
1361 1 34.0454 9.42858 321 115.321 1353.91 507.511
1362 0 40.1063 12.6165 506 106.706 1355.01 508.937
1363 0 41.0695 12.1745 500 108.568 1357.3 508.674
1364 0 40.1665 11.8756 477 113.103 1360.49 507.53
1365 0 44.1102 13.4436 593 107.256 1361.04 509.487
1366 0 44.1079 13.4443 593 136.6 1361.04 509.487
1367 0 45.1316 12.0315 543 113.529 1361.55 510.186
1368 0 47.0745 11.7261 552 115.382 1360.91 509.955
1369 0 49.1217 12.4385 611 115.146 1359.01 511.82
1370 0 51.0715 13.2364 676 114.321 1357.56 509.499
1371 0 53.0836 11.5667 614 118.958 1355.42 508.375
1372 0 56.066 12.6993 712 115.551 1354.29 509.083
1373 0 57.0498 13.2691 757 116.324 1352.8 505.126
1374 0 61.0306 14.0749 859 112.764 1351.71 505.903
1375 0 63.0587 12.7817 806 118.171 1349.46 501.975
1376 0 66.0794 13.4989 892 116.266 1347.79 500.701
1377 0 69.2474 14.0799 975 114.798 1346.35 498.592
1378 1 38.0113 11.0493 420 116 1346.62 511.907
1379 0 39.0522 11.3438 443 115.806 1345.64 510.35
1380 0 41.0563 12.5438 515 113.629 1345.02 509.068
1381 0 39.0533 11.5739 452 119.396 1346.46 506.292
1382 0 43.0306 12.038 518 116.145 1346.85 505.143
1383 0 45.1443 13.1357 593 113.13 1347.35 504.113
1384 0 44.0865 12.8384 566 116.804 1347.27 503.267
1385 0 46.2788 12.7056 588 116.153 1348.92 502.968
1386 0 49.1912 12.7665 628 117.739 1350.51 500.699
1387 0 49.2473 11.757 579 122.313 1352.34 499.978
1388 0 51.1626 12.4896 639 120.865 1354.51 500.615
1389 0 55.158 13.416 740 117.18 1356.75 502.519
1390 0 58.1658 13.2724 772 117.596 1358 502.861
1391 0 60.0879 15.0779 906 114.026 1358.88 502.46
1392 0 62.129 14.5504 904 115.955 1359.79 502.236
1393 0 66.1947 14.8199 981 114.324 1359.52 501.743
1394 0 69.1274 13.7283 949 117.955 1359.69 502.27
1395 1 36.0239 10.6041 382 119.791 1359.02 519.736
1396 0 38.096 10.8673 414 120.558 1358.12 519.365
1397 0 41.0157 11.3127 464 119.397 1356.33 519.284
1398 0 43.0222 12.9003 555 116.663 1354.87 517.76
1399 0 44.0351 12.7171 560 117.83 1353.41 516.043
1400 0 47.0215 12.8665 605 117.256 1351.45 514.559
1401 0 48.0514 13.215 635 116.813 1349.97 513.049
1402 0 48.0817 12.8739 619 117.601 1349.58 510.703
1403 0 50.0358 12.4111 621 120.048 1347.22 506.127
1404 0 52.0563 12.8707 670 119.027 1346.53 505.736
1405 0 55.0563 13.7314 756 115.734 1345.56 504.251
1406 0 57.0496 13.6898 781 115.713 1345.57 501.804
1407 0 59.0615 13.9516 824 115.426 1345 499.616
1408 0 60.1205 14.0551 845 115.543 1345.26 497.508
1409 0 63.088 13.3306 841 116.258 1346.2 496.31
1410 0 65.0774 14.3368 933 113.801 1346.74 493.232
1411 0 68.0585 15.0312 1023 111.268 1347.62 493.956
1412 0 71.0607 13.8192 982 114.427 1348.13 493.483
1413 0 73.1346 15.0681 1102 111.666 1349.83 491.195
1414 0 77.1501 15.7226 1213 110.148 1351.31 490.514
1415 0 77.2417 15.5874 1204 112.002 1353.54 489.16
1416 0 82.1603 14.8247 1218 112.885 1355.81 489.236
1417 0 87.1343 15.5048 1351 110.89 1356.89 490.522
1418 0 88.2478 15.7511 1390 112.227 1358.28 488.452
1419 0 91.1451 15.02 1369 115.569 1359.01 488.576
1420 1 49.0853 10.8586 533 119.614 1358.92 510.807
1421 0 51.1147 13.5186 691 115.877 1358.63 509.408
1422 0 56.2811 14.2499 802 112.339 1357.27 510.738
1423 0 60.1837 13.3591 804 114.558 1355.85 510.29
1424 0 61.1964 13.71 839 115.489 1354.26 508.98
1425 0 64.2477 14.4908 931 112.716 1352.85 507.347
1426 0 66.142 13.8339 915 114.39 1351.28 505.32
1427 0 70.1514 15.5948 1094 109.33 1350.23 502.292
1428 0 72.2736 15.0677 1089 110.862 1348.28 501.761
1429 0 76.1621 15.0469 1146 110.311 1347.52 499.219
1430 0 77.1927 14.9107 1151 111.615 1347.52 496.049
1431 0 79.1246 13.9021 1100 113.722 1346.27 493.851
1432 0 83.1824 15.6163 1299 109.336 1346.73 491.367
1433 0 84.304 13.9614 1177 113.967 1345.67 488.782
1434 0 88.2118 15.6555 1381 109.31 1346.06 484.379
1435 0 90.2519 14.8473 1340 111.054 1346.21 484.033
1436 0 95.1608 15.2689 1453 109.502 1345.28 479.774
1437 0 98.1253 14.7261 1445 110.439 1345.82 477.216
1438 1 54.0635 11.4495 619 113.816 1347.41 500.494
1439 0 57.0768 12.5795 718 109.646 1348.45 500.678
1440 0 57.1205 12.6574 723 110.871 1349.89 498.163
1441 0 60.0476 13.839 831 109.483 1351 497.562
1442 0 65.0627 15.3698 1000 104.553 1352.67 496.645
1443 0 66.1781 14.461 957 107.955 1354.45 497.142
1444 0 70.1934 13.648 958 110.06 1356.58 495.59
1445 0 71.1972 14.7056 1047 107.548 1357.42 496.377
1446 0 77.2612 14.8328 1146 107.924 1358.78 494.243
1447 1 39.2929 12.0887 475 111.648 1358.08 512.261
1448 0 43.1207 11.9432 515 111.528 1356.63 512.806
1449 0 45.3632 12.4991 567 110.393 1355.3 512.94
1450 0 45.3108 12.6901 575 110.485 1353.98 513.537
1451 0 51.1488 14.0766 720 105.656 1352.65 511.699
1452 0 53.3561 14.1127 753 104.279 1351.57 510.823
1453 0 54.334 13.7299 746 106.571 1350.07 507.647
1454 0 55.434 13.5476 751 106.907 1347.69 506.161
1455 0 59.2468 13.891 823 104.903 1347.48 504.091
1456 0 62.4366 15.2154 950 102.949 1346.65 500.984
1457 0 65.3786 14.7908 967 103.232 1345.59 498.168
1458 0 68.4084 16.0507 1098 100.106 1344.34 496.372
1459 0 70.4199 14.7544 1039 103.698 1343.5 492.837
1460 0 72.4038 14.281 1034 104.801 1343.1 491.374
1461 0 74.4074 14.9448 1112 104.448 1344.41 487.817
1462 0 77.3157 14.7318 1139 104.185 1344.67 487.667
1463 1 42.2991 11.7969 499 107.898 1344.25 504.461
1464 0 42.2333 11.105 469 108.273 1344.74 505.872
1465 0 41.1441 11.8365 487 109.998 1346.03 503.877
1466 0 44.0985 13.039 575 107.139 1346.67 503.642
1467 0 45.2794 13.4056 607 105.308 1347.83 504.799
1468 0 47.3119 13.95 660 103.774 1350.34 504.871
1469 0 45.1148 12.5014 564 108.541 1352.38 505.332
1470 0 47.0848 14.2721 672 105.457 1353.48 505.546
1471 0 46.0709 13.3273 614 109.59 1355.1 505.883
1472 0 47.2417 12.8912 609 110.918 1355.24 507.243
1473 0 48.4585 13.2278 641 109.315 1356.12 509.115
1474 0 49.223 14.0788 693 106.977 1357.35 510.163
1475 0 49.2812 13.9404 687 108.962 1356.4 510.645
1476 0 50.1108 14.4879 726 107.036 1356.25 512.556
1477 0 46.142 13.5018 623 112.844 1355.5 513.034
1478 0 49.1837 14.09 693 106.993 1354.04 513.846
1479 0 50.1934 13.8066 693 106.185 1352.59 513.462
1480 0 50.2072 13.1654 661 105.941 1350.31 513.275
1481 0 48.1772 13.7617 663 107.385 1348.32 510.164
1482 0 50.2681 14.0049 704 104.803 1347.02 510.642
1483 0 50.1307 13.5446 679 107.252 1346.32 507.859
1484 0 48.2086 14.3958 694 105.827 1345.11 506.718
1485 0 51.0965 15.324 783 101.748 1344.53 505.416
1486 0 51.1935 13.2243 677 106.654 1344.06 504.148
1487 0 51.1419 14.1958 726 104.289 1344.4 501.694
1488 0 52.2346 14.7986 773 101.395 1345.36 501.102
1489 0 51.2454 14.3818 737 102.137 1346.04 500.408
1490 0 52.0973 15.3559 800 98.9275 1345.24 499.892
1491 0 50.3289 12.6766 638 105.545 1345.87 499.597
1492 0 51.2618 14.0065 718 101.636 1347.51 500.091
1493 0 52.319 14.6601 767 98.8866 1348.49 500.172
1494 0 52.2497 15.2154 795 98.6176 1351.09 499.914
1495 0 52.1639 14.7228 768 98.7526 1351.92 501.051
1496 0 52.14 13.9624 728 99.6085 1353.72 501.78
1497 0 51.1601 12.8029 655 103.681 1356.26 501.583
1498 0 52.2469 13.6467 713 100.311 1357.29 502.77
1499 0 52.2803 13.4468 703 100.461 1356.67 503.344
1500 0 51.1484 13.9007 711 103.051 1356.78 504.183
1501 0 52.2153 13.3677 698 101.225 1356.1 507.454
1502 0 53.2966 14.9728 798 97.3383 1355.67 507.59
1503 0 52.2459 13.4173 701 100.418 1354.74 508.377
1504 0 53.1481 14.168 753 97.1673 1353.51 510.461
1505 0 50.2342 14.1139 709 100.732 1352.07 508.591
