time division length width area intensity CMx CMy
0 0 45.0669 15.8431 714 88.1316 1272.37 491.473
1 0 44.0614 16.25 716 89.2486 1272.01 491.814
2 0 46.1711 18.4314 851 84.7908 1273.65 491.781
3 0 46.0388 16.182 745 89.5007 1272.82 491.217
4 0 47.1663 16.7493 790 87.3747 1272.91 491.991
5 0 48.03 16.3023 783 88.857 1272.44 491.068
6 0 50.1327 19.588 982 82.2872 1271.74 489.721
7 0 52.0879 21.1566 1102 80.5835 1270.59 488.678
8 0 52.0653 18.496 963 84.6781 1271.77 486.646
9 0 52.0405 19.0621 992 85.1452 1270.93 488.239
10 0 53.0287 19.4046 1029 84.2002 1271.86 488.617
11 0 53.1091 17.078 907 89.9537 1271.89 488.322
12 0 56.0693 19.2975 1082 85.6885 1273.03 488.677
13 0 57.0995 17.5834 1004 87.9173 1272.91 487.933
14 0 59.0556 19.5409 1154 85.175 1273.02 485.651
15 0 60.0799 20.2896 1219 84.5349 1272.93 486.541
16 0 60.2406 17.1811 1035 89.8667 1272.52 486.393
17 1 32.0382 11.2366 360 96.2361 1272.86 500.978
18 0 33.0681 13.3361 441 94.2064 1272.56 499.873
19 0 30.014 11.4946 345 100.203 1273.21 500.203
20 0 36.0394 13.1245 473 94.5328 1272.08 499.867
21 0 37.0342 12.826 475 95.6442 1272.22 498.629
22 0 36.045 12.3734 446 98.6278 1271.86 498.321
23 0 38.0263 14.0955 536 94.3974 1272.3 497.345
24 0 40.0482 14.8571 595 93.4588 1272.76 495.982
25 0 40.0152 12.5452 502 97.6773 1273.48 496.914
26 0 42.0476 15.316 644 93.3634 1274.94 496.598
27 0 44.05 15.6413 689 93.4833 1276.12 495.653
28 0 45.1275 15.9326 719 93.5146 1275.81 493.68
29 0 48.0925 16.9881 817 90.3941 1274.8 493.643
30 0 47.1142 15.0485 709 94.4274 1274.07 492.626
31 0 48.0884 16.3449 786 94.0076 1273.67 491.018
32 0 51.0835 15.5823 796 94.0415 1274.36 490.829
33 0 52.0858 16.012 834 94.4652 1274.81 490.892
34 0 54.0661 18.4589 998 89.8256 1275.46 489.096
35 0 54.0446 15.9128 860 95.5023 1274.6 487.607
36 0 58.1922 18.6623 1086 90.2588 1274.67 489.03
37 0 57.048 17.0032 970 94.6918 1275.09 487.576
38 0 60.1433 16.2944 980 93.9429 1274.92 488.646
39 0 62.1405 16.5432 1028 94.0554 1276.41 486.918
40 0 64.1166 17.1094 1097 93.0893 1276.46 485.943
41 0 67.2491 16.0448 1079 93.6284 1275.95 485.892
42 0 68.112 15.9737 1088 94.8713 1275.97 483.975
43 0 70.1209 17.042 1195 93.9121 1275.85 482.143
44 0 74.1272 16.9978 1260 93.4278 1275.46 481.958
45 0 75.1589 16.2855 1224 94.9355 1276.71 481.842
46 0 79.1231 17.0999 1353 94.2949 1276.65 478.635
47 1 41.157 12.4644 513 98.1501 1277.05 498.355
48 0 43.1525 13.9274 601 98.2063 1276.88 495.908
49 0 44.1014 13.8544 611 98.6743 1277.17 496.967
50 0 47.0809 15.6539 737 96.1615 1277.54 495.579
51 0 47.1198 14.5374 685 99.5693 1277.26 494.638
52 0 48.136 15.8717 764 97.6479 1277.21 495.906
53 0 51.0283 15.756 804 97.9229 1276.9 493.92
54 0 53.1131 17.1333 910 95.633 1276.41 493.473
55 0 54.045 15.6906 848 100.215 1277.78 491.346
56 0 56.0344 15.1336 848 101.188 1277.23 493.038
57 0 57.1373 15.6815 896 101.95 1277.8 489.125
58 0 60.2028 15.564 937 102.834 1276.62 488.774
59 0 62.1019 15.6839 974 102.991 1277.57 488.13
60 0 64.1869 17.7606 1140 100.215 1277.7 485.784
61 0 66.1012 16.1268 1066 102.327 1277.86 486.299
62 0 66.2416 15.0661 998 105.045 1278.14 484.927
63 0 70.1376 15.7262 1103 104.191 1278.2 483.029
64 0 72.1303 16.9 1219 103.345 1278.29 481.875
65 0 76.1019 15.9129 1211 104.171 1278.65 482.557
66 0 77.083 15.3341 1182 104.514 1279.25 479.707
67 1 44.0872 12.0216 530 104.37 1279.7 497.055
68 0 44.1018 13.4235 592 101.226 1279.68 496.76
69 0 45.2344 12.9326 585 104.2 1280.06 495.046
70 0 49.0519 15.1472 743 100.268 1278.94 494.467
71 0 47.1446 13.8086 651 105.356 1279.55 492.387
72 0 50.0858 12.8779 645 105.482 1279.5 494.567
73 0 52.1386 14.6149 762 103.528 1278.76 491.757
74 0 52.049 15.3701 800 103.204 1279.73 492.29
75 0 56.0345 15.5975 874 101.013 1279.59 491.545
76 0 57.2674 14.476 829 102.876 1278.31 491.233
77 0 58.1523 13.5162 786 104.347 1278.36 488.709
78 0 62.3233 14.5371 906 102.174 1279.24 489.077
79 0 63.1518 15.3915 972 102.181 1280.29 488.937
80 0 66.323 14.1429 938 103.872 1280.18 487.102
81 0 67.1062 14.9763 1005 103.425 1280.61 484.622
82 0 70.4631 14.7879 1042 103.628 1279.61 484.086
83 0 73.2363 15.7709 1155 101.346 1279.48 483.481
84 0 76.0863 15.3773 1170 103.28 1279.37 479.144
85 0 78.2048 15.306 1197 102.345 1279.4 479.423
86 0 82.1985 15.0246 1235 102.413 1279.89 477.401
87 0 85.2517 14.0408 1197 104.85 1278.72 476.677
88 1 44.0795 13.0673 576 101.299 1279.52 494.575
89 0 45.0299 10.4153 469 103.699 1279.05 495.173
90 0 46.1031 13.0577 602 101.055 1278.89 493.616
91 0 48.0575 13.7336 660 101.045 1279.34 492.8
92 0 50.0667 14.7403 738 98.8469 1279.18 492.378
93 0 51.1982 13.5942 696 101.448 1279.08 490.668
94 0 53.0609 14.9262 792 100.328 1278.89 489.245
95 0 55.0954 13.8306 762 101.564 1278.75 488.823
96 0 57.1686 12.1395 694 104.294 1279.79 488.411
97 0 56.138 12.0952 679 104.415 1280.11 488.004
98 0 61.2904 13.0689 801 102.055 1279.98 486.496
99 0 61.1678 12.8662 787 104.396 1280.41 484.549
100 0 64.1072 12.7599 818 104.643 1279.81 486.583
101 0 68.1456 13.9554 951 104.25 1279.7 483.984
102 0 71.1962 15.4362 1099 101.605 1281.14 483.19
103 0 72.0874 13.4004 966 106.353 1281.62 483.181
104 0 76.1255 16.591 1263 101.41 1281.43 479.609
105 1 38.0884 11.3946 434 102.574 1282.44 499.007
106 0 40.1774 11.9968 482 101.585 1280.96 498.689
107 0 41.1261 11.0392 454 105.141 1281.93 499.053
108 0 42.1145 12.5847 530 103.943 1281.2 497.804
109 0 45.059 13.2937 599 101.032 1281.04 497.454
110 0 44.1867 12.8772 569 103.995 1281.35 498.225
111 0 47.297 14.1024 667 102.312 1281.42 497.102
112 0 48.2066 11.4922 554 108.547 1280.83 496.426
113 0 50.3047 12.8219 645 105.526 1280.18 496.375
114 0 52.1465 13.2511 691 105.059 1280.6 495.297
115 0 54.2388 12.6478 686 105.101 1280.82 496.655
116 0 52.2926 13.0994 685 108.187 1280.61 495.133
117 0 54.2748 11.6076 630 109.684 1280.66 495.635
118 0 56.1969 13.2926 747 108.854 1280.69 492.801
119 0 58.2238 13.8431 806 107.175 1279.7 491.851
120 0 60.1864 12.7604 768 109.016 1280.41 491.833
121 0 63.3738 15.2587 967 106.511 1280.9 488.218
122 0 64.1991 13.832 888 108.69 1279.18 490.114
123 0 66.1531 13.5594 897 110.933 1278.27 487.175
124 0 69.138 14.811 1024 109.107 1279.04 486.82
125 0 71.2588 13.9492 994 112.73 1278.46 483.833
126 1 39.133 10.5537 413 110.153 1279.26 501.605
127 0 39.099 10.3328 404 113.399 1279.28 500.272
128 0 40.0418 12.5369 502 111.253 1279.3 499.213
129 0 43.0303 11.1549 480 110.767 1279.22 501.465
130 0 42.211 11.6557 492 112.661 1280.38 499.78
131 0 43.0978 12.3904 534 112.009 1280.69 499.092
132 0 44.0619 13.5491 597 111.849 1281.06 496.658
133 0 46.1256 12.9646 598 113.371 1280.26 496.564
134 0 47.1706 12.0626 569 113.091 1280.84 496.75
135 0 50.3592 13.1257 661 108.608 1281.34 497.148
136 0 49.2725 14.3285 706 108.065 1280.17 495.708
137 0 49.3531 12.6233 623 113.116 1280.7 495.122
138 0 53.2866 13.6432 727 109.743 1280.49 495.006
139 0 53.2373 13.2614 706 111.354 1280.22 494.657
140 0 55.298 13.5629 750 110.531 1280.3 493.203
141 0 59.2454 13.2668 786 108.898 1279.97 494.72
142 0 59.3054 13.422 796 110.103 1280.31 493.369
143 0 60.3109 13.5962 820 110.696 1280.06 491.183
144 0 64.334 13.7097 882 108.851 1280.27 492.766
145 1 32.0242 9.96123 319 111.147 1281.16 507.072
146 0 34.2651 11.5569 396 109.154 1281.31 505.293
147 0 36.0854 11.0294 398 108.58 1280.03 505.065
148 0 35.0497 12.2112 428 109.692 1279.91 503.787
149 0 38.0413 12.3813 471 108.645 1279.27 503.064
150 0 37.1377 12.0901 449 109.918 1278.66 503.922
151 0 39.0436 13.4209 524 107.594 1278.62 501.62
152 0 39.2645 12.2757 482 111.357 1279.42 501.506
153 0 41.1736 13.7224 565 108.575 1278.36 500.044
154 0 41.1844 12.1162 499 111.503 1278.56 499.645
155 0 45.3753 13.6859 621 106.475 1278.1 500.148
156 0 44.1077 13.0363 575 109.903 1277.46 497.885
157 0 48.2501 14.8808 718 104.774 1277.3 496.933
158 0 48.3997 12.934 626 109.893 1277.17 496.113
159 0 50.2821 13.5635 682 108.984 1278.12 495.809
160 0 49.1967 13.4359 661 110.032 1278.03 495.467
161 0 51.4957 13.5934 700 110.267 1278.5 495.027
162 0 53.2408 14.0682 749 110.2 1278.28 493.688
163 0 55.3474 14.2735 790 109.876 1278.64 491.516
164 0 58.2107 14.4475 841 107.503 1279.57 493.864
165 0 59.4851 14.3733 855 109.513 1279.57 490.518
166 0 61.4528 14.8895 915 108.411 1279.39 489.64
167 0 63.6052 15.0459 957 109.069 1279.83 488.514
168 0 65.3523 14.0469 918 112.876 1280.2 487.834
169 0 66.2952 15.0539 998 111.258 1279.63 487.004
170 0 69.4638 14.4104 1001 112.336 1279.5 486.072
171 0 73.5944 15.6534 1152 109.12 1280.16 486.041
172 1 38.0367 11.7255 446 113.617 1280.51 502.426
173 0 40.1454 11.9316 479 110.885 1280.77 502.752
174 0 41.0454 12.8394 527 111.729 1280.64 501.197
175 0 44.0258 14.0599 619 109.304 1280.4 500.803
176 0 45.0601 13.4709 607 111.171 1280.03 500.799
177 0 44.0636 11.7557 518 115.523 1279.13 501.548
178 0 47.0574 14.5354 684 109.659 1278.87 499.225
179 0 48.1469 12.9811 625 112.718 1278.74 500.448
180 0 50.1252 13.2668 665 113.104 1278.23 497.765
181 0 50.0985 13.0942 656 114.846 1277.29 497.198
182 0 51.2091 12.4783 639 116.097 1276.39 497.102
183 0 55.0937 14.9927 826 108.597 1276.37 496.429
184 0 55.0971 14.1205 778 111.438 1276.17 495.107
185 0 58.2449 13.7008 798 110.233 1276.48 495.294
186 0 59.2473 13.4858 799 112.471 1276.57 492.547
187 0 62.2596 12.8655 801 113.161 1275.85 490.305
188 0 62.3956 14.344 895 111.696 1276 490.546
189 0 66.0695 14.9237 986 111.174 1276.65 487.446
190 0 68.1617 14.0548 958 111.141 1277.4 489.536
191 1 34.0863 9.47596 323 114.817 1277.64 503.303
192 0 37.1121 11.9907 445 110.962 1277.73 501.276
193 0 37.1655 11.7582 437 111.819 1277.53 501.05
194 0 38.0674 11.1119 423 112.95 1277.41 501.019
195 0 39.0383 12.3981 484 110.583 1278.19 500.012
196 0 41.0301 12.7955 525 110.051 1278.07 499.928
197 0 42.0631 13.1945 555 111.052 1279.04 498.24
198 0 41.0982 11.7523 483 113.625 1278.53 499.673
199 0 45.1053 14.2334 642 105.847 1279.44 500.681
200 0 47.0563 13.7707 648 108.682 1277.96 498.79
201 0 48.0736 14.041 675 108.874 1278.25 497.947
202 0 49.0861 12.9161 634 110.088 1277.25 497.907
203 0 49.0845 13.5888 667 109.684 1278.54 497.306
204 0 51.1406 14.0788 720 108.75 1277.31 497.043
205 0 53.2132 13.0795 696 109.94 1278.99 497.688
206 0 53.1066 13.5765 721 110.94 1279.08 496.476
207 0 54.1581 12.4266 673 113.682 1278.36 495.64
208 0 58.1623 14.0641 818 108.699 1277.39 494.603
209 0 61.1122 15.6106 954 105.42 1277 493.877
210 0 61.2028 13.0386 798 111.717 1276.73 493.119
211 0 65.0683 13.9546 908 111.009 1276.52 490.828
212 1 32.1071 11.7731 378 109.442 1276.69 507.709
213 0 34.1595 11.7683 402 111.674 1276.32 505.525
214 0 36.1811 12.244 443 108.919 1276.98 505.255
215 0 38.2499 13.8301 529 106.03 1275.91 503.418
216 0 40.2482 13.7646 554 105.928 1275.15 502.968
217 0 38.1297 13.2705 506 109.427 1275.62 501.364
218 0 40.0686 13.3022 533 109.083 1275.21 501.942
219 0 41.0395 13.3043 546 109.778 1276.32 501.114
220 0 43.0227 13.1559 566 110.618 1275.92 501.254
221 0 43.0762 12.8609 554 112.617 1275.99 499.318
222 0 46.0959 14.1444 652 108.816 1275.91 499.778
223 0 47.2092 14.3404 677 108.594 1275.65 498.638
224 0 49.1569 14.7284 724 108.452 1275.15 498.24
225 0 49.0873 14.9937 736 109.232 1274.94 497.37
226 0 50.0414 16.2465 813 107.054 1275.86 496.042
227 0 51.2276 15.031 770 109.747 1276.07 494.91
228 0 52.1715 14.874 776 110.11 1276.7 494.53
229 0 54.2197 15.4372 837 108.599 1276.43 495.293
230 0 56.181 14.6491 823 109.971 1276.95 493.354
231 0 59.1165 15.2411 901 107.83 1277.66 492.777
232 0 60.1868 15.1362 911 109.529 1278.35 490.578
233 0 63.181 14.5614 920 109.825 1278.37 490.026
234 0 63.1584 14.5824 921 110.612 1278.41 489.199
235 0 69.389 14.8727 1032 108.4 1278.99 489.277
236 1 36.0877 12.1648 439 109.009 1279.04 503.321
237 0 37.1522 12.4892 464 106.371 1279.16 505.248
238 0 40.175 12.6945 510 106.796 1278.94 502.947
239 0 39.1069 13.4247 525 107.667 1278.52 502.718
240 0 42.21 13.575 573 107.6 1278.86 502.264
241 0 42.2425 13.4935 570 108.993 1278.58 501.491
242 0 45.104 13.6795 617 106.754 1277.94 502.676
243 0 44.0709 13.501 595 110.156 1277.27 500.442
244 0 44.0709 13.6144 600 156.087 1276.26 500.385
245 0 49.0903 13.3631 656 109.317 1277.56 498.992
246 0 51.1073 14.0489 718 106.68 1277.91 499.085
247 0 52.1886 13.9686 729 107.567 1277.28 497.281
248 0 52.149 13.308 694 108.911 1276.76 497.762
249 0 53.1207 12.594 669 111.712 1275.67 495.32
250 0 58.1269 13.6426 793 106.596 1275.59 494.551
251 0 58.2302 12.8112 746 107.988 1275.25 493.685
252 0 61.1503 13.7203 839 106.698 1275.25 492.106
253 0 65.1232 14.2653 929 104.467 1275.68 491.076
254 0 65.1414 12.7876 833 108.932 1275.46 489.932
255 1 36.0833 10.5866 382 105.076 1275.84 505.249
256 0 36.0776 10.5883 382 106.094 1275.83 503.168
257 0 38.121 11.175 426 105.239 1275.8 502.406
258 0 39.0564 11.8546 463 105.35 1276 502.132
259 0 40.0175 13.3192 533 101.961 1277.02 500.902
260 0 41.0703 13.4891 554 102.94 1277.42 499.523
261 0 43.0824 13.6947 590 102.88 1276.85 498.675
262 0 44.1141 12.0823 533 105.535 1277.92 499.522
263 0 46.2087 12.7249 588 104.468 1277.82 498.69
264 0 47.1332 13.0057 613 105.604 1277.66 496.4
265 0 48.1781 14.0313 676 104.55 1277.95 496.212
266 0 48.1855 12.1821 587 108.036 1277.99 496.571
267 0 51.1156 12.462 637 106.865 1278.96 495.49
268 0 53.0846 12.6214 670 106.264 1279.49 495.643
269 0 53.1466 12.6066 670 107.457 1279.24 493.5
270 0 55.108 11.6861 644 108.317 1279.57 495.731
271 0 57.2255 12.3546 707 106.911 1278.9 494.622
272 0 61.3483 14.3606 881 102.372 1278.58 493.708
273 0 63.2579 12.8047 810 105.716 1278.46 492.74
274 0 64.2597 12.9319 831 106.172 1278.26 491.748
275 0 70.1835 13.5787 953 101.735 1278.45 494.455
276 0 69.3178 13.2145 916 105.539 1277.47 489.198
277 1 39.1129 11.7608 460 100.961 1277.42 506.235
278 0 39.0389 12.1417 474 100.346 1277.18 505.867
279 0 40.0493 12.7093 509 100.01 1276.73 504.481
280 0 44.182 13.3538 590 97.0847 1276.85 503.263
281 0 44.1748 12.858 568 98.8768 1277.12 503.461
282 0 45.2739 12.8772 583 98.8182 1276.83 500.899
283 0 45.1889 12.5252 566 100.65 1276.37 498.585
284 0 48.1069 11.3705 547 101.166 1275.43 500.528
285 0 50.1339 12.7459 639 99.3506 1274.95 496.023
286 0 52.0592 13.0044 677 98.3072 1274.78 496.145
287 0 52.2336 13.2099 690 97.9493 1275.39 494.51
288 0 51.256 11.1987 574 101.523 1275.3 493.57
289 0 56.1987 14.9648 841 94.2616 1275.75 490.325
290 0 56.5565 12.7129 719 97.2267 1276.69 492.3
291 0 58.3313 12.0861 705 98.4312 1277.14 490.336
292 0 61.4304 14.3089 879 94.7656 1277.66 489.082
293 0 63.272 14.1137 893 96.1433 1278.26 486.455
294 0 66.2346 14.1467 937 94.5187 1278.79 485.09
295 0 68.3652 13.2085 903 95.6633 1279.12 487.713
296 0 72.1651 12.9703 936 95.9701 1279.61 485.809
297 1 40.2313 11.9559 481 93.3971 1279.79 501.26
298 0 40.1779 12.1958 490 92.5571 1279.68 501.49
299 0 42.1666 12.9486 546 92.8168 1279.71 499.766
300 0 44.2156 12.8914 570 91.4667 1280.57 500.714
301 0 42.1094 12.7762 538 95.4368 1280.56 499.225
302 0 47.0642 13.2372 623 93.13 1280.98 499.225
303 0 47.239 13.3788 632 92.7104 1279.18 501.223
304 0 51.1506 13.3136 681 92.4156 1279.64 499.354
305 0 52.1358 14.328 747 91.7497 1279.37 498.024
306 0 52.1506 14.0938 735 93.298 1278.82 496.931
307 0 55.2502 13.7556 760 93.054 1278.89 497.099
308 0 57.2311 14.1881 812 92.2365 1278.88 496.049
309 0 58.28 13.847 807 93.0198 1278.37 495.403
310 0 62.1788 14.6513 911 91.1811 1278.67 494.441
311 0 60.178 13.4767 811 93.815 1277.51 491.409
312 0 65.2929 13.6462 891 93.0673 1276.7 490.86
313 0 67.1347 14.2549 957 90.4441 1276.56 490.818
314 0 67.233 13.3714 899 92.5328 1276.85 487.848
315 0 70.204 12.7486 895 92.8905 1276.41 488.346
316 0 74.0985 14.4267 1069 90.363 1276.56 485.688
317 0 76.2395 13.6412 1040 91.5356 1276.55 485.882
318 0 77.2274 13.8422 1069 92.4331 1275.71 482.079
319 1 41.2057 10.7752 444 90.7455 1275.88 500.311
320 0 42.317 10.6813 452 89.4668 1275.31 501.113
321 0 44.3362 12.2699 544 89.2555 1276.49 499.397
322 0 46.1215 14.0065 646 86.5062 1276.39 497.806
323 0 48.3011 12.5463 606 88.335 1277.37 495.556
324 0 50.2368 13.1378 660 88.2364 1276.8 494.855
325 0 50.0871 13.8758 695 87.9655 1277.57 492.586
326 0 52.2235 12.9061 674 90.4095 1277.97 492.286
327 0 53.0864 12.4326 660 90.9348 1278.28 493.003
328 0 55.0843 11.9998 661 91.0045 1278.54 491.735
329 0 57.113 13.9373 796 87.2425 1279.1 491.888
330 0 59.6094 13.3368 795 87.5371 1279.4 490.453
331 0 59.1829 11.6588 690 90.458 1279.62 490.884
332 0 61.1236 11.2722 689 90.7576 1279.25 490.16
333 0 65.4147 13.1927 863 88.1692 1279.26 490.256
334 0 68.3615 12.6241 863 88.4867 1279.4 489.608
335 0 71.2552 13.4727 960 87.2854 1279.9 487.947
336 0 73.5345 13.1503 967 88.4374 1279.85 488.284
337 0 76.2618 12.9029 984 90.3476 1280.24 485.223
338 1 40.1107 10.0223 402 87.7413 1280.08 506.552
339 0 41.2582 10.5434 435 88.3517 1279.07 503.361
340 0 43.1094 12.8278 553 85.8517 1279.17 501.036
341 0 45.1913 11.7501 531 86.4444 1278.75 502.906
342 0 47.1368 12.1137 571 87.9159 1277.25 500.786
343 0 49.1975 11.6063 571 88.8984 1276.17 499.715
344 0 51.2187 12.9054 661 86.6641 1276.22 498.448
345 0 50.1581 12.5603 630 88.3936 1276 496.765
346 0 54.2604 13.3615 725 85.5641 1276.73 497.686
347 0 55.1479 13.8355 763 86.3159 1276.24 495.218
348 0 58.3555 14.069 821 86.0085 1275.97 493.722
349 0 56.0893 10.9647 615 91.2 1275.2 493.865
350 0 59.2604 12.9429 767 89.0652 1275.58 490.077
351 0 62.1712 13.8006 858 86.6072 1276.32 490.907
352 0 65.3657 16.293 1065 83.5887 1276.58 487.642
353 0 67.1778 14.3649 965 87.1078 1277.07 485.317
354 0 67.2702 13.6465 918 89.8726 1276.91 483.564
355 0 72.3203 14.9612 1082 87.5656 1277.52 484
356 0 75.254 14.0989 1061 89.935 1278.27 483.239
357 0 78.4182 15.073 1182 88.7403 1279.07 481.411
358 0 79.3655 14.2883 1134 90.6552 1278.94 480.36
359 0 83.3563 14.7559 1230 90.2024 1280.03 480.216
360 1 44.193 11.4045 504 90.6171 1280.26 499.06
361 0 45.1479 10.8975 492 93.5528 1280.44 497.065
362 0 48.2164 11.9461 576 93.3177 1280.83 496.648
363 0 48.1657 12.3324 594 93.1027 1280.88 497.678
364 0 50.1133 12.6513 634 94.0063 1281.3 496.872
365 0 52.1794 13.8944 725 91.4028 1281.03 498.397
366 0 54.3634 13.8696 754 93.0875 1280.6 497.011
367 0 55.3886 13.3241 738 95.2385 1281.01 496.222
368 0 57.1263 13.4614 769 95.7698 1280.13 497.757
369 0 60.2411 13.7116 826 95.7639 1279.23 496.53
370 0 61.3016 15.1709 930 93.9473 1279.43 495.294
371 0 64.2854 14.0312 902 96.1962 1279.44 492.319
372 0 67.2209 13.8796 933 95.941 1279.01 493.258
373 0 69.3129 12.8692 892 97.8139 1278.9 491.715
374 0 70.3099 13.4263 944 97.6292 1278.06 488.075
375 1 36.0635 10.8697 392 96.5791 1278.15 505.602
376 0 38.0869 10.9486 417 96.3501 1277.7 503.748
377 0 39.1498 10.5492 413 96.3414 1278.17 504.511
378 0 43.1796 11.9501 516 96.0426 1276.84 502.612
379 0 44.0914 12.6102 556 96.2212 1275.57 500.342
380 0 46.177 12.8852 595 95.3647 1275.41 500.503
381 0 46.177 12.8419 593 146.396 1275.39 500.518
382 0 49.1072 12.5643 617 97.9643 1276.16 496.844
383 0 51.0741 13.1769 673 96.948 1277.79 496.181
384 0 52.0479 13.5836 707 96.6591 1277.67 495.509
385 0 53.1001 12.9567 688 98.093 1278.12 493.747
386 0 55.2005 13.7499 759 97.5402 1277.69 493.423
387 0 56.2603 15.4816 871 94.3307 1278.26 493.341
388 0 59.2945 12.8511 762 98.6299 1279.35 492.743
389 0 59.1645 13.3864 792 98.8106 1279.7 493.179
390 0 61.2949 14.0795 863 98.9444 1279.92 488.641
391 0 64.214 15.5885 1001 96.6124 1279.52 489.558
392 0 64.1555 13.0464 837 101.769 1280.42 488.472
393 0 68.2307 14.1578 966 99.9783 1280.69 488.982
394 0 71.1079 16.257 1156 96.7984 1280.37 487.978
395 0 75.1806 15.6024 1173 97.7911 1280.78 487.929
396 0 76.204 14.5924 1112 100.111 1281.53 488.456
397 0 81.1938 15.6046 1267 98.5454 1281.32 487.159
398 0 82.194 15.7797 1297 99.8959 1280.68 485.334
399 1 43.0725 10.8422 467 102.816 1280.82 505.867
400 0 45.0826 11.3126 510 100.688 1280.65 505.839
401 0 47.0542 12.2412 576 99.3542 1279.57 503.67
402 0 49.0145 10.6499 522 100.36 1278.72 504.935
403 0 50.0782 12.7201 637 100.666 1278.26 500.479
404 0 52.0614 13.6762 712 99.0014 1277.52 499.555
405 0 52.0398 12.721 662 101.352 1277.79 498.088
406 0 54.0653 12.0965 654 102.098 1276.75 498.61
407 0 57.0831 14.0672 803 97.5479 1277.14 495.949
408 0 58.1011 12.8225 745 100.686 1277.14 494.588
409 0 60.083 14.0472 844 99.949 1277.68 491.55
410 0 60.0445 13.8064 829 100.339 1276.93 492.158
411 0 63.1491 12.6843 801 102.423 1276.06 491.18
412 0 66.0627 14.1381 934 99.7966 1275.97 487.266
413 0 67.0997 12.9062 866 102.204 1276.17 486.206
414 0 70.1882 12.9936 912 101.234 1275.98 485.281
415 0 73.1284 14.9053 1090 98.3954 1276.89 483.589
416 0 74.2829 14.1217 1049 100.163 1277.69 484.068
417 1 38.0486 11.0385 420 98.019 1278.08 500.607
418 0 39.0436 9.86077 385 98.9818 1278.88 501.636
419 0 39.0889 11.6401 455 98.6462 1279.85 500.081
420 0 42.0411 12.9397 544 94.3033 1281.22 499.778
421 0 42.1315 11.654 491 98.0407 1282.1 499.756
422 0 44.3274 11.3248 502 98.9641 1281.99 498.647
423 0 43.172 13.2262 571 97.5412 1282.31 498.002
424 0 46.1487 12.5247 578 97.7284 1281.92 500.313
425 0 47.091 13.0173 613 97.7325 1282.31 499.018
426 0 48.0993 12.4534 599 96.9082 1281.82 500.12
427 0 51.0889 13.3297 681 94.3275 1280.82 499.488
428 0 52.2274 13.3072 695 95.0216 1280.78 498.629
429 0 53.1401 14.4712 769 94.0442 1280.33 496.961
430 0 57.2309 13.5067 773 93.8409 1279.93 498.322
431 0 58.2799 13.4008 781 94.8156 1278.98 497.274
432 0 61.2718 14.9824 918 91.7734 1278.57 496.449
433 0 63.1462 13.9834 883 94.2593 1277.47 494.622
434 0 64.181 14.6928 943 94.3637 1276.85 491.771
435 0 65.2464 13.1348 857 97.6184 1276.82 491.569
436 1 37.0768 10.5457 391 96.9028 1277.06 505.263
437 0 38.0379 10.2004 388 96.6263 1276.46 505.119
438 0 37.1429 11.3615 422 96.4313 1275.94 503.332
439 0 40.0575 12.9564 519 94.0308 1275.37 500.913
440 0 38.0355 11.6733 444 98.3716 1274.73 499.565
441 0 41.0584 12.9815 533 94.5816 1274.99 498.679
442 0 43.1099 12.6885 547 95.2852 1275.16 498.861
443 0 45.0281 11.726 528 96.2803 1275.63 498.403
444 0 45.094 12.5072 564 95.4131 1276.36 496.872
445 0 45.069 12.3144 555 97.5153 1276.99 494.892
446 0 48.1021 13.5753 653 96.0383 1278.39 495.945
447 0 50.1311 13.3849 671 96.5917 1279.06 495.49
448 0 53.095 14.5588 773 94.238 1279.69 495.122
449 0 54.1081 13.5285 732 97.3101 1280.29 495.38
450 0 54.1036 12.4576 674 99.7982 1281.54 495.392
451 0 57.116 12.6409 722 99.9294 1281.71 493.344
452 0 58.1014 13.1322 763 100.653 1282.42 492.851
453 0 62.0783 15.561 966 96.1832 1282.46 492.466
454 0 65.1886 13.2692 865 100.163 1282.16 493.101
455 1 37.015 11.671 432 99.6505 1281.37 507.324
456 0 37.1245 12.7678 474 98.9747 1280.14 507.27
457 0 38.1371 11.8258 451 102.248 1280.02 507.43
458 0 39.1475 13.6407 534 100.466 1279.94 508.275
459 0 39.0407 12.9352 505 102.527 1279.57 508.459
460 0 43.1613 14.8281 640 96.2141 1279.22 508.878
461 0 43.1432 12.4701 538 105.16 1278.57 506.751
462 0 44.2162 12.8008 566 105.493 1278.27 506.606
463 0 45.1714 13.5705 613 104.672 1277.9 505.674
464 0 46.1637 13.6254 629 104.82 1277.18 504.806
465 0 47.0976 12.421 585 108.285 1275.19 503.162
466 0 50.144 13.6407 684 105.225 1276.3 502.882
467 0 51.1569 14.5826 746 105.69 1275.84 498.684
468 0 54.118 14.339 776 105.594 1276.46 498.294
469 0 54.1502 13.7026 742 108.07 1275.27 497.171
470 0 54.1517 13.8315 749 108.422 1274.86 495.846
471 0 58.1165 13.9892 813 107.953 1274.28 494.021
472 0 58.1355 13.5717 789 109.362 1274.46 494.39
473 1 32.0734 11.0684 355 110.58 1275.68 505.687
474 0 32.0225 11.773 377 108.549 1276.55 506.077
475 0 33.1401 10.8932 361 111.08 1277.29 505.199
476 0 33.034 11.3217 374 114.115 1277.81 504.078
477 0 33.0248 10.8403 358 116.184 1279.58 502.958
478 0 37.0276 12.5042 463 110.279 1280.59 502.119
479 0 39.0388 13.7812 538 106.704 1283.28 503.141
480 0 38.0573 13.1381 500 111.232 1283.57 503.03
481 0 39.1216 12.4228 486 113.01 1285.08 504.216
482 0 44.0172 14.1308 622 108.921 1284.94 503.629
483 0 43.0519 14.5406 626 109.764 1284.36 503.08
484 0 44.0489 12.9856 572 114.255 1283.97 503.932
485 0 45.107 13.4347 606 114.447 1283.38 503.913
486 0 46.0425 14.4649 666 113.029 1282.75 503.646
487 0 46.0137 13.3656 615 116.876 1282.13 504.444
488 0 51.0468 13.7717 703 114.802 1281.09 504.286
489 0 51.0498 13.908 710 114.856 1280.53 504.518
490 0 53.042 15.2144 807 112.46 1279.76 502.636
491 0 55.1669 15.9878 882 109.62 1278.8 500.472
492 0 57.1615 14.8877 851 111.535 1277.78 500.895
493 0 59.1058 14.3471 848 112.362 1276.56 498.712
494 0 60.2073 15.3636 925 109.078 1277.16 497.72
495 1 34.0126 12.5542 427 112.649 1277.05 507.7
496 0 35.0577 12.1799 427 111.667 1276.15 507.511
497 0 36.0339 11.5724 417 108.966 1275.76 508.082
498 0 37.0202 14.0464 520 108.26 1274.5 504.537
499 0 38.0345 13.6981 521 110.213 1274.78 502.192
500 0 40.0532 13.532 542 111.249 1274.45 500.816
501 0 41.0631 13.2236 543 112.193 1274.19 500.433
502 0 41.0218 13.7976 566 112.689 1275.33 498.827
503 0 40.3097 13.4211 541 115.03 1275.03 498.993
504 0 43.2481 13.0641 565 115.244 1275.7 497.03
505 0 44.3493 12.9653 575 114.019 1277.88 496.788
506 0 46.2381 14.274 660 112.394 1280.25 496.761
507 0 49.2321 15.0308 740 109.505 1281.76 497.409
508 0 50.2856 13.7415 691 112.638 1282.87 497.648
509 0 50.2856 13.8409 696 165.095 1282.89 497.677
510 0 55.1507 13.7079 756 113.164 1284.35 496.665
511 0 55.2209 16.1714 893 107.951 1283.87 498.106
512 0 58.2258 15.5773 907 108.482 1284.72 497.764
513 0 59.2091 14.6092 865 113.382 1284.98 497.923
514 0 61.1236 13.988 855 115.276 1284.28 498.565
515 0 63.2329 15.8462 1002 111.317 1283.07 495.529
516 0 66.2406 14.1303 936 115.808 1282.58 497.231
517 0 70.107 14.7631 1035 114.688 1281.46 496.698
518 1 37.1515 12.3817 460 115.154 1280.13 512.104
519 0 36.0534 12.1209 437 116.103 1278.66 511.467
520 0 40.1329 13.6546 548 111.038 1277.38 510.398
521 0 42.2858 13.8344 585 110.115 1275.83 509.814
522 0 45.1002 14.3902 649 108.55 1274.32 507.774
523 0 47.1617 14.2276 671 107.544 1273.13 508.528
524 0 46.1966 15.4773 715 108.264 1271.99 505.752
525 0 48.2224 15.2004 733 109.97 1271.6 503.606
526 0 52.0965 16.2199 845 105.693 1271.09 501.853
527 0 52.0921 15.7797 822 107.929 1270.23 501.094
528 0 52.2387 14.3955 752 111.335 1269.42 500.195
529 0 54.357 14.0368 763 112.111 1269.27 498.372
530 0 54.1357 14.1681 767 112.632 1269.69 496.538
531 0 58.2195 15.4587 900 107.46 1270.33 496.716
532 0 60.5736 15.5678 943 106.599 1270.61 497.513
533 0 61.3769 14.859 912 108.038 1271.27 495.887
534 0 65.3294 17.2817 1129 101.706 1273.85 495.245
535 0 64.1559 15.6026 1001 106.889 1275.25 493.306
536 0 66.2965 14.5106 962 109.088 1277.2 492.371
537 0 65.3171 13.9014 908 145.796 1279.18 491.727
538 0 72.2438 15.7661 1139 106.481 1279.57 490.38
539 0 78.2149 14.7542 1154 107.126 1280.92 490.804
540 1 42.0181 14.0416 590 107.071 1281.38 509.617
541 0 43.0312 13.2462 570 109.028 1281.66 510.944
542 0 44.0258 14.5142 639 108.59 1279.53 509.714
543 0 48.0829 13.4143 645 109.71 1278.62 510.036
544 0 48.1224 14.4423 695 108.988 1278.14 509.164
545 0 50.0714 13.6006 681 110.606 1275.98 509.279
546 0 54.1599 15.3619 832 107.025 1274.46 507.309
547 0 54.027 12.6974 686 111.353 1273.03 507.636
548 0 59.1322 15.3047 905 106.627 1272.07 505.621
549 0 61.1034 15.1874 928 106.884 1270.65 504.889
550 0 64.0709 15.0146 962 107.83 1269.58 499.863
551 0 67.083 14.2659 957 109.011 1268.86 499.209
552 0 70.0624 14.2873 1001 108.604 1267.08 497.446
553 0 73.1324 14.8771 1088 108.049 1267.23 493.553
554 1 37.0286 12.0718 447 109.642 1267.26 509.304
555 0 40.0398 15.11 605 104.494 1267.13 507.562
556 0 39.0683 14.5642 569 107.044 1267.03 504.757
557 0 40.0139 13.7702 551 108.281 1267.77 504.436
558 0 44.0294 14.513 639 106.717 1268.06 502.208
559 0 45.0719 15.1536 683 106.217 1268.53 500.558
560 0 44.0695 14.2048 626 110.684 1268.88 499.757
561 0 48.0499 14.7139 707 108.748 1269.99 498.736
562 0 49.1222 14.7184 723 109.769 1271.37 497.689
563 0 52.196 14.867 776 109.55 1271.85 495.608
564 0 53.1063 14.8758 790 110.916 1274.15 496.266
565 0 53.0824 14.9579 794 113.398 1276.14 494.547
566 0 54.0373 14.4715 782 113.811 1279.05 496.812
567 0 58.0917 15.4755 899 111.158 1279.96 495.502
568 0 61.0699 15.1957 928 112.656 1280.94 494.853
569 0 64.0283 15.4775 991 111.721 1280.92 494.95
570 0 66.1692 12.8005 847 118.009 1281.08 495.325
571 0 70.129 17.0971 1199 109.183 1280.81 495.294
572 0 71.2692 14.6627 1045 115.74 1279.86 495.041
573 0 71.2692 14.6487 1044 166.612 1278.87 495.074
574 1 40.1328 11.3623 456 112.202 1279.95 514.018
575 0 41.0598 12.0799 496 112.472 1278.97 513.681
576 0 42.0568 12.9349 544 114.136 1277.04 510.934
577 0 45.1571 13.2648 599 112.536 1274.3 510.341
578 0 47.0965 13.0158 613 113.778 1273.41 508.67
579 0 49.1725 14.2559 701 110.037 1272.25 507.207
580 0 51.0972 13.7189 701 111.107 1271.14 506.675
581 0 51.3054 12.9226 663 114.032 1270.39 505.253
582 0 56.1269 13.9505 783 110.999 1269.98 502.98
583 0 56.1658 15.5076 871 107.921 1269.3 499.518
584 0 58.1369 13.623 792 112.463 1268.85 498.205
585 0 61.163 13.7174 839 110.911 1268.84 496.927
586 0 63.1978 13.703 866 113.262 1268.98 494.274
587 0 64.1614 14.3233 919 111.235 1269.24 493.403
588 0 68.1041 14.7568 1005 110.075 1269.54 490.883
589 1 37.0843 10.3548 384 111.039 1270.97 506.177
590 0 36.0486 11.4845 414 109.645 1271.51 505.051
591 0 38.0578 13.243 504 106.722 1271.94 505.155
592 0 39.1038 13.4769 527 107.689 1273.57 503.992
593 0 42.035 13.4412 565 107.543 1276.16 504.504
594 0 43.055 12.3795 533 111.096 1279.04 503.983
595 0 44.0439 11.8972 524 113.034 1281.17 504.311
596 0 44.0439 11.8291 521 148.413 1283.2 504.303
597 0 47.1584 11.9809 565 114.074 1283.25 505.8
598 0 48.2224 14.1221 681 112.596 1283.69 504.225
599 0 51.1215 14.1232 722 112 1283.4 505.748
600 0 50.1051 12.7332 638 115.933 1282.1 505.368
601 0 54.0972 13.4018 725 114.75 1279.57 506.868
602 0 55.3827 12.549 695 115.683 1279.57 509.604
603 0 59.1733 13.9928 828 112.525 1277.73 509.558
604 0 62.192 13.4744 838 112.937 1275.78 507.535
605 0 63.1557 12.8096 809 114.03 1272.96 508.79
606 1 34.1093 10.9941 375 109.008 1273.29 525.691
607 0 34.1093 11.0234 376 140.285 1273.31 525.638
608 0 36.1689 12.3034 445 110.396 1271.33 524.029
609 0 38.2093 13.7925 527 108.26 1269.8 522.632
610 0 37.2734 12.529 467 111.897 1269.04 522.72
611 0 39.2935 13.87 545 109.862 1267.93 519.706
612 0 42.3014 13.2147 559 110.013 1266.52 519.939
613 0 43.2665 13.1742 570 111.5 1265.45 518.507
614 0 44.2418 14.1043 624 109.486 1264.8 517.261
615 0 44.3328 12.6092 559 113.503 1265.82 516.234
616 0 43.3221 12.1647 527 114.772 1264.67 513.638
617 0 47.2774 13.2622 627 111.748 1265.7 509.943
618 0 50.2584 13.4704 677 109.072 1266.18 510.651
619 0 50.1833 12.6735 636 112.319 1266.36 509.638
620 0 55.2724 14.528 803 106.107 1267.25 507.499
621 0 55.2928 14.5046 802 107.541 1267.89 505.896
622 0 58.3317 15.6004 910 105.556 1270.13 504.193
623 0 58.2428 14.285 832 109.636 1269.47 503.27
624 0 61.5726 14.4707 891 109.209 1271.48 503.067
625 0 64.3076 12.8134 824 112.403 1273.29 501.373
626 0 69.3581 13.5961 943 109.313 1272.75 500.993
627 1 34.0433 11.7204 399 112.489 1272.95 515.321
628 0 39.1538 12.6425 495 107.887 1272.76 515.956
629 0 40.0871 13.2462 531 107.354 1272.58 517.262
630 0 41.0879 13.0696 537 109.75 1270.99 516.97
631 0 43.0852 13.4617 580 108.138 1271.1 519.576
632 0 44.0995 13.2881 586 108.708 1269.51 520.027
633 0 45.191 13.1885 596 108.599 1268.77 521.149
634 0 49.1987 15.9557 785 102.269 1268.86 519.665
635 0 50.1712 13.8725 696 106.81 1268.69 520.034
636 0 54.4157 14.72 801 103.899 1267.2 517.799
637 0 55.1792 13.1571 726 105.638 1264.64 517.729
638 0 57.235 15.5324 889 100.858 1263.18 513.033
639 0 59.1048 13.3153 787 104.818 1261.59 511.588
640 0 62.1443 14.5468 904 100.975 1261.43 509.647
641 0 62.1395 14.7893 919 137.508 1261.44 509.798
642 0 66.2619 15.3482 1017 100.348 1260.21 503.214
643 0 67.5827 11.9261 806 105.823 1260.01 502.381
644 0 71.2937 13.5356 965 103.278 1260.54 499.601
645 0 75.4175 13.4319 1013 103.028 1261.38 498.588
646 0 78.389 14.7215 1154 101.536 1261.48 494.601
647 1 41.0735 11.8325 486 104.167 1263.61 514.041
648 0 42.015 11.5673 486 104.79 1265.09 514.218
649 0 44.1471 15.1312 668 99.7904 1266.11 512.334
650 0 47.1198 14.4525 681 100.661 1267.33 510.887
651 0 47.1858 13.7753 650 103.509 1268.95 509.972
652 0 51.1855 14.4182 738 101.581 1270.36 509.885
653 0 53.1332 13.7955 733 102.263 1271.62 510.563
654 0 54.1975 13.0449 707 105.901 1272.61 510.108
655 0 57.3795 14.3431 823 103.269 1273.4 507.817
656 0 60.2263 14.8772 896 102.979 1273.9 507.444
657 0 64.1817 14.381 923 103.523 1274.33 506.616
658 0 68.3385 14.6916 1004 102.899 1274.09 505.731
659 0 70.2849 14.5693 1024 104.63 1273.93 505.785
660 1 36.0988 13.0752 472 103.597 1272.83 523.307
661 0 38.0238 12.7552 485 106.868 1271.58 522.513
662 0 39.0835 12.8955 504 107.877 1270.82 521.736
663 0 43.0269 13.9215 599 103.828 1269.17 520.708
664 0 43.0091 13.4623 579 106.083 1269.3 519.534
665 0 44.1413 15.1332 668 102.543 1268.11 516.823
666 0 44.0592 13.6634 602 106.588 1266.52 515.664
667 0 49.0762 13.6522 670 103.128 1266.13 513.375
668 0 51.0944 14.5809 745 101.67 1265.6 511.96
669 0 51.1827 14.3212 733 102.733 1265.21 510.412
670 0 53.1141 13.9323 740 102.145 1265.15 508.382
671 0 56.1707 14.0821 791 102.095 1264.59 505.757
672 0 58.1192 15.5887 906 100.201 1265.3 504.863
673 0 60.1326 16.0312 964 101.418 1266.83 500.693
674 0 59.0937 14.2824 844 107.289 1267.32 500.649
675 0 59.0937 14.2316 841 162.57 1267.33 500.596
676 0 65.1586 15.2704 995 106.007 1268.26 497.324
677 0 68.1948 16.0716 1096 103.849 1269.09 496.593
678 0 69.281 16.2382 1125 106.099 1270.29 493.082
679 0 72.3721 15.2407 1103 108.546 1271.71 492.849
680 0 75.1772 16.0554 1207 107.112 1274.08 491.927
681 0 75.1772 16.0155 1204 167.928 1276.07 491.905
682 0 83.1971 17.6809 1471 104.617 1277.67 490.725
683 0 83.3508 16.0047 1334 110.06 1278.1 489.464
684 1 47.2178 12.0293 568 110.305 1279.17 510.245
685 0 49.1311 12.9043 634 111.203 1280.22 509.369
686 0 50.1715 13.6133 683 111.363 1280.01 508.982
687 0 51.078 13.8611 708 110.879 1279.63 509.218
688 0 54.123 13.8758 751 110.614 1278.86 507.81
689 0 57.0427 14.3927 821 108.292 1278.31 508.748
690 0 59.0351 13.89 820 109.5 1277.35 507.674
691 0 61.0273 13.8954 848 108.321 1275.58 505.13
692 0 64.0925 15.1188 969 105.976 1275.05 503.865
693 0 66.0717 15.801 1044 103.44 1274.01 501.184
694 0 68.105 14.6832 1000 105.856 1272.5 499.118
695 0 71.1276 15.7042 1117 103.549 1270.31 496.794
696 0 75.2309 15.4059 1159 102.228 1269.35 495.8
697 0 77.1338 15.4796 1194 103.242 1268.25 492.045
698 0 79.0663 16.2269 1283 102.409 1268.21 487.704
699 1 43.0895 11.6038 500 104.254 1269.18 506.676
700 0 46.0768 11.1336 513 105.478 1269.55 504.639
701 0 48.0689 12.0868 581 103.969 1270.55 502.305
702 0 49.0604 13.249 650 102.614 1271.23 500.417
703 0 49.1109 11.9322 586 104.271 1271.87 500.664
704 0 51.121 13.5952 695 103.515 1273.13 496.859
705 0 54.0601 13.3185 720 102.151 1273.76 498.804
706 0 54.0413 12.5089 676 105.731 1274.37 496.694
707 0 56.1083 14.6146 820 101.265 1274.98 495.528
708 0 57.1959 14.6164 836 102.486 1276.69 495.466
709 0 61.1119 15.0707 921 100.671 1279.01 495.22
710 0 62.2841 14.4339 899 103.902 1281.02 494.899
711 0 65.1295 13.8493 902 106.147 1282.62 494.011
712 0 69.1357 15.3755 1063 102.725 1284.08 494.369
713 0 72.1309 13.4616 971 108.299 1284.95 494.611
714 0 75.1258 15.2677 1147 104.242 1285.15 495.525
715 0 77.2182 14.608 1128 106.973 1284.27 492.53
716 1 44.1529 10.056 444 108.804 1282.58 512.25
717 0 46.1502 11.2026 517 108.139 1282.39 511.781
718 0 48.1203 12.4895 601 106.416 1281.41 512.15
719 0 48.1662 12.0416 580 109.917 1279.21 510.588
720 0 51.1855 13.2069 676 108.286 1278.48 508.278
721 0 52.1246 12.4317 648 109.846 1277.45 508.181
722 0 56.1141 14.0072 786 104.828 1275.5 507.335
723 0 57.1188 14.0234 801 106.441 1272.88 501.963
724 0 61.0998 13.7971 843 105.126 1272.37 502.792
725 0 63.1587 13.9173 879 106.53 1271.71 498.885
726 0 62.1512 12.9201 803 109.943 1271.36 496.959
727 0 66.1518 13.4993 893 108.299 1271.01 495.617
728 0 69.1304 13.0623 903 108.846 1271.4 494.228
729 0 72.0898 13.9687 1007 107.174 1269.73 491.019
730 0 75.0962 14.5813 1095 106.033 1269.37 489.748
731 1 38.0132 12.3641 470 107.357 1269.71 505.089
732 0 38.0654 11.3752 433 109.54 1270.99 504.346
733 0 43.0261 12.1089 521 104.338 1271.19 505.678
734 0 43.0429 12.383 533 106.193 1273.08 504.002
735 0 44.04 14.0327 618 105.66 1274.08 502.286
736 0 46.0907 13.7338 633 106.461 1275.95 504.016
737 0 45.0333 13.3457 601 108.857 1276.61 502.958
738 0 50.117 13.3488 669 107.541 1278.35 504.395
739 0 51.1671 14.2474 729 106.44 1280 503.417
740 0 53.1089 14.7245 782 106.593 1280.83 504.646
741 0 58.0504 15.0387 873 104.032 1281.15 506.601
742 0 59.1299 14.7303 871 107.072 1281.63 505.619
743 0 62.0959 14.9285 927 106.049 1280.99 506.716
744 0 65.0652 13.7247 893 110.72 1279.7 505.714
745 0 67.1916 14.7637 992 109.017 1278.03 504.963
746 0 73.0743 15.71 1148 107.037 1276.19 505.311
747 0 75.0869 14.7429 1107 109.396 1274.53 504.29
748 0 80.2582 15.039 1207 107.839 1271.89 502.11
749 1 41.0434 11.5 472 108.189 1272.25 521.962
750 0 41.0367 12.233 502 110.012 1270.94 518.661
751 0 47.1144 12.9472 610 107.126 1269.51 516.957
752 0 48.0478 13.5282 650 107.145 1267.38 514.52
753 0 50.1194 13.9866 701 106.046 1265.5 513.187
754 0 53.1136 14.5349 772 104.909 1264.84 510.249
755 0 54.0529 13.3943 724 108.08 1265.54 508.282
756 0 55.1738 15.0253 829 105.475 1265.8 505.078
757 0 57.0728 15.1386 864 105.174 1265.08 503.736
758 0 60.188 15.7008 945 101.949 1265.99 501.205
759 0 62.2227 15.5249 966 102.934 1266.01 498.979
760 0 66.2548 14.6405 970 104.148 1267.21 498.827
761 0 67.1278 15.4332 1036 103.718 1268.15 496.539
762 0 67.3489 14.1205 951 108.091 1269.06 495.089
763 0 72.3749 15.1572 1097 105.329 1271.19 494.63
764 0 74.1211 15.4612 1146 106.308 1272.73 492.456
765 0 78.2769 15.2024 1190 107.497 1273.55 491.303
766 0 80.1735 15.4914 1242 108.623 1275.22 489.419
767 1 47.3026 13.0014 615 109.833 1277.01 507.237
768 0 45.1958 12.0365 544 112.86 1278.05 507.458
769 0 48.2643 13.0738 631 111.805 1277.89 507.605
770 0 51.2502 12.7414 653 110.62 1278.26 508.853
771 0 52.17 14.932 779 109.521 1277.5 505.548
772 0 55.1692 13.8121 762 109.643 1277.43 507.294
773 0 58.0998 13.8727 806 110.243 1277.09 506.73
774 0 62.1913 13.8122 859 103.889 1275.63 507.848
775 0 63.0813 13.1101 827 106.449 1274.62 502.834
776 0 68.1813 15.2828 1042 92.1286 1273.45 503.216
777 0 71.1297 13.7495 978 92.7076 1272.46 502.991
778 0 75.2362 15.4846 1165 89.394 1271.25 498.886
779 0 77.1522 13.6095 1050 92.1105 1268.65 496.441
780 0 81.2103 15.4291 1253 89.0032 1267.76 491.995
781 1 44.1587 12.5457 554 86.0487 1267.25 512.832
782 0 46.2362 11.8089 546 89.1557 1266.24 508.901
783 0 46.1936 11.2353 519 90.6802 1267.18 507.316
784 0 50.3054 12.4042 624 87.9407 1267.95 504.609
785 0 50.3567 11.776 593 88.4823 1267.78 505.879
786 0 55.2261 13.653 754 85.4523 1267.52 502.411
787 0 55.135 13.3853 738 87.4309 1268.09 500.729
788 0 58.1683 13.2031 768 86.2266 1269.15 500.499
789 0 59.18 14.4812 857 85.2345 1270.22 499.635
790 0 61.3195 13.6009 834 86.9964 1270.18 498.778
791 0 63.1114 13.7535 868 86.4297 1272.04 497.336
792 0 66.2241 14.2546 944 86.1102 1273.89 496.917
793 0 69.3672 13.6808 949 86.9831 1276.47 497.054
794 0 74.2011 13.0321 967 87.6825 1277.55 497.338
795 0 77.0948 15.1372 1167 85.1337 1279.57 497.782
796 0 80.253 13.9932 1123 88.2903 1279.64 495.887
797 0 84.2071 15.3194 1290 87.3326 1279.1 494.273
798 1 44.1507 10.9171 482 89.0166 1278.11 517.207
799 0 46.2765 9.89703 458 92.9148 1277.04 518.448
800 0 48.2684 12.3062 594 91.9293 1275.86 515.835
801 0 50.0943 13.5544 679 90.7025 1272.28 515.657
802 0 53.2133 14.0754 749 89.1749 1271.07 514.834
803 0 53.13 13.5705 721 92.9182 1268.74 512.308
804 0 56.1553 14.4421 811 90.1973 1266.76 511.035
805 0 60.2128 13.4191 808 91.3725 1265.28 508.595
806 0 61.2537 13.0931 802 92.3915 1264.25 506.274
807 0 62.119 12.7658 793 93.372 1263.22 503.356
808 0 69.2293 13.7081 949 92.98 1262.86 502.164
809 0 70.1451 13.8142 969 94.2797 1262.44 498.677
810 0 72.1923 14.7661 1066 93.9372 1262.91 494.049
811 0 76.1441 15.3919 1172 92.616 1262.81 493.666
812 0 78.1513 14.9454 1168 94.292 1263.24 489.337
813 1 43.0936 10.7673 464 94.7651 1264.8 509.153
814 0 44.2812 10.5688 468 93.4914 1266.1 509.165
815 0 46.0658 11.5921 534 94.2996 1267.22 506.069
816 0 49.2026 13.17 648 92.838 1268.2 505.384
817 0 50.0985 12.156 609 95.2775 1270.04 505.003
818 0 52.0487 13.2568 690 94.9681 1271.99 503.713
819 0 55.0332 13.083 720 96.0972 1273.9 503.067
820 0 55.0962 12.705 700 99.9514 1275.79 501.93
821 0 59.0501 13.5139 798 98.3571 1276.3 501.576
822 0 60.1622 13.1478 791 100 1276.41 501.635
823 0 65.3208 14.7273 962 95.7931 1277.99 501.187
824 0 67.3306 12.1342 817 101.072 1278.03 501.711
825 0 71.4118 13.1491 939 99.3578 1277.81 500.962
826 1 35.0843 9.37742 329 100.036 1277.98 516.173
827 0 40.0733 12.6268 506 94.8775 1277.24 515.415
828 0 43.0943 10.5814 456 96.4825 1276.52 516.158
829 0 44.1409 12.8905 569 92.8805 1274.65 514.441
830 0 45.0088 13.7306 618 93.1036 1272.76 512.231
831 0 48.0237 11.5984 557 95.0485 1270.9 511.032
832 0 49.0718 13.5516 665 93.0135 1269.55 509.035
833 0 50.0859 11.1409 558 95.4373 1268.45 507.185
834 0 52.1616 12.097 631 94.6355 1267.17 504.276
835 0 55.1622 13.3787 738 91.0854 1267.08 503.404
836 0 55.483 11.6252 645 94.0558 1267.04 501.623
837 0 58.3802 12.7441 744 91.7836 1266.48 498.292
838 0 61.3071 14.3377 879 87.1695 1266.37 497.057
839 0 62.445 11.9465 746 89.8606 1266.89 497.58
840 0 62.3809 12.4878 779 90.923 1267.88 496.417
841 0 66.5183 13.8909 924 89.6385 1268.06 492.555
842 0 69.251 13.7904 955 89.4356 1268.9 492.699
843 0 71.2502 14.1754 1010 90.9653 1269.16 492.282
844 0 74.2343 14.0771 1045 91.1215 1272.04 493.107
845 0 79.2799 14.1524 1122 91.2834 1272.97 491.869
846 1 40.309 10.6924 431 95.0998 1275.52 507.724
847 0 40.2992 10.695 431 139.643 1276.52 507.724
848 0 46.1856 12.6663 585 91.4359 1277.65 509.504
849 0 48.0607 13.046 627 92.0096 1277.92 510.236
850 0 48.2762 11.4549 553 98.4991 1279.21 510.351
851 0 50.3412 11.7796 593 97.9764 1280.24 511.418
852 0 53.3583 11.3947 608 100.062 1280.48 510.781
853 0 54.3023 11.9516 649 99.037 1278.75 511.84
854 0 58.42 12.8038 748 97.496 1276.33 511.668
855 0 60.4574 13.034 788 95.514 1274.09 509.612
856 0 64.2362 12.1427 780 95.659 1272.76 509.213
857 0 65.1672 11.7697 767 96.1643 1270.65 506.78
858 0 67.3857 12.6882 855 95.1041 1268.81 505.641
859 0 68.2086 12.6524 863 94.0811 1266.34 501.318
860 0 74.3359 14.0713 1046 90.3719 1265.5 501.779
861 0 75.3034 13.585 1023 92.4575 1263.99 497.271
862 1 40.0439 10.4136 417 89.8393 1265.49 516.314
863 0 41.0847 10.9773 451 90.8337 1264.24 512.663
864 0 42.0859 11.0013 463 90.6048 1264.2 512.194
865 0 43.0804 11.8151 509 90.9666 1264.42 510.018
866 0 43.1001 11.2761 486 92.356 1265.28 508.459
867 0 45.1658 11.7788 532 91.5583 1266 507.692
868 0 47.0444 12.8177 603 87.1791 1266.48 505.947
869 0 48.1027 12.2031 587 87.8194 1267.84 505.593
870 0 50.0871 12.1389 608 87.9918 1269.34 504.357
871 0 52.1172 12.683 661 87.5658 1269.38 505.032
872 0 51.0887 11.1179 568 91.7623 1270.56 504.449
873 0 55.1247 13.3334 735 89.0163 1272.79 500.842
874 1 28.0742 9.72424 273 92.1026 1273.45 518.051
875 0 31.291 11.8884 372 88.6048 1273.91 515.468
876 0 30.0276 10.457 314 90.8026 1275.65 517.962
877 0 33.0357 10.3222 341 90.1114 1276.4 517.78
878 0 36.1007 11.8003 426 89.7981 1276.6 517.707
879 0 35.1277 12.6965 446 91.3049 1276.36 517.117
880 0 35.0611 11.2946 396 94.9748 1276.59 515.318
881 0 38.1748 10.9496 418 93.5622 1274.61 517.691
882 0 42.1087 13.3939 564 87.3617 1272.85 516.145
883 0 44.1654 14.3098 632 85.3275 1270.93 515.528
884 0 46.1726 13.5362 625 86.1824 1269.46 512.248
885 0 45.1611 10.4958 474 92.1435 1267.75 512.295
886 0 48.0684 11.4212 549 88.0911 1266.38 510.658
887 0 51.1192 12.4611 637 85.9466 1265.21 508.838
888 0 53.0638 16.32 866 79.7714 1264.84 504.488
889 0 54.1861 14.1549 767 83.2203 1264.11 503.582
890 0 54.1437 13.2979 720 85.5028 1264.59 503.367
891 0 56.1279 13.5405 760 85.1118 1264.04 501.689
892 0 56.1027 12.4415 698 87.5215 1264.58 499.38
893 0 58.1896 12.8889 750 86.0787 1264.4 497.553
894 0 60.0774 13.7323 825 84.0533 1265.4 496.131
895 0 63.1102 14.3241 904 82.479 1265.56 493.492
896 0 65.0846 13.3826 871 84.3536 1267.85 492.381
897 0 67.1458 13.3292 895 84.7631 1269.03 489.783
898 1 35.1007 10.1707 357 85.9272 1270.11 508.059
899 0 37.028 10.4246 386 87.4275 1270.39 506.052
900 0 38.125 11.3312 432 86.9583 1272.44 507.898
901 0 40.0776 12.6754 508 86.3917 1275.11 507.628
902 0 42.1221 14.909 628 81.379 1277.44 509.68
903 0 45.1005 12.971 585 83.8923 1279.23 509.797
904 0 46.1094 13.2728 612 84.884 1279.98 510.529
905 0 47.0357 13.0964 616 85.8685 1281.19 510.679
906 0 49.0836 14.2614 700 86.2857 1280.6 510.309
907 0 50.0427 12.4694 624 89.7099 1279.05 509.665
908 0 54.1221 12.4718 675 88.9407 1277.52 512.299
909 0 53.0796 11.7748 625 91.3856 1275.3 511.858
910 0 56.4787 11.9868 677 90.1477 1272.45 510.541
911 1 32.1418 9.42698 303 86.2442 1270.7 524.865
912 0 33.2222 12.0702 401 83.5436 1268.97 521.419
913 0 32.2556 9.17671 296 88.2264 1268.17 522.733
914 0 35.0591 10.8388 380 86.6079 1267.55 519.774
915 0 36.1468 13.2792 480 82.4417 1266.55 515.831
916 0 37.1971 12.958 482 81.1017 1265.78 515.963
917 0 37.3066 11.4189 426 84 1265.19 514.155
918 0 39.2781 12.7807 502 82.0618 1265.86 511.962
919 0 41.1884 12.3336 508 82.1398 1266.28 509.644
920 0 42.2668 13.3438 564 81.5922 1265.76 509.7
921 0 43.041 12.0118 517 84.5126 1265.85 506.323
922 0 42.0735 14.2845 601 82.2529 1266.36 507.401
923 0 44.3084 12.2099 541 84.39 1266.71 508.34
924 0 46.2416 13.8404 640 82.4453 1267.52 506.622
925 0 49.3764 13.7718 680 81.9412 1268.38 506.168
926 0 50.4506 13.2407 668 83.518 1270.21 506.084
927 0 52.1191 14.582 760 82.4618 1272.14 505.978
928 0 50.3598 12.9866 654 86.633 1273.9 504.873
929 0 56.0789 14.123 792 85.173 1276.03 506.355
930 0 59.1213 14.4956 857 86.3979 1278.13 506.964
931 0 61.3045 14.1099 865 88.6902 1277.83 507.661
932 0 63.1782 16.1765 1022 86.4178 1277.37 505.524
933 0 68.2924 15.9168 1087 86.942 1276.92 504.622
934 0 67.2196 13.8204 929 91.69 1275.88 504.972
935 0 71.2806 14.1413 1008 91.1726 1273.75 502.857
936 1 42.0725 12.526 527 89.8311 1271.95 521.524
937 0 43.0791 11.3976 491 92.4582 1269.58 518.069
938 0 45.0954 13.3495 602 90.7791 1268.12 514.904
939 0 46.1488 14.5183 670 91.0239 1266.74 513.804
940 0 50.244 13.9121 699 90.5637 1265.47 512.173
941 0 51.241 14.8124 759 90.635 1264.6 509.513
942 0 50.0786 13.5188 677 94.613 1264.04 505.609
943 0 53.1784 15.1189 804 91.7413 1262.92 505.432
944 0 56.1879 17.0855 960 88.7042 1263.33 502.309
945 0 58.1384 16.3747 952 89.6985 1263.35 501.712
946 0 59.1466 15.4193 912 92.011 1263.03 497.872
947 0 60.1914 14.4539 870 93.777 1263.17 497.51
948 0 63.1179 14.6234 923 93.6934 1263.87 495.024
949 0 65.3049 14.4093 941 94.8108 1265.15 494.256
950 0 69.2188 15.7038 1087 91.3799 1265.92 493.825
951 0 71.1236 14.6084 1039 94.871 1267.15 490.299
952 0 73.1871 15.1529 1109 93.4274 1267.84 492.767
953 1 38.0214 11.4409 435 95.3012 1271.34 508.825
954 0 38.0506 14.1916 540 93.3889 1272.29 508.119
955 0 43.0423 13.1731 567 93.7108 1274.82 508.302
956 0 41.033 11.308 464 100.558 1276.83 507.3
957 0 45.0979 12.5948 568 98.3768 1279.32 506.834
958 0 48.0176 13.3701 642 97.7882 1280.87 506.625
959 0 47.0146 12.5068 588 100.369 1280.76 508.325
960 0 52.1346 15.2106 793 94.8701 1280.24 507.888
961 0 54.0989 14.5844 789 96.5627 1279.6 507.29
962 0 54.0535 12.6541 684 101.468 1277.96 508.811
963 0 58.0784 14.2394 827 98.0121 1277.32 507.23
964 0 63.1338 15.8711 1002 93.7824 1275.28 508.51
965 0 64.0292 14.2123 910 96.9484 1273.21 507.752
966 0 67.058 16.2695 1091 93.1384 1271.15 504.052
967 0 71.1822 15.3128 1090 93.7963 1269.43 503.247
968 0 71.1833 14.6242 1041 95.9683 1268.77 499.476
969 0 73.0527 14.1131 1031 97.7061 1267.42 497.415
970 0 78.1477 15.8674 1240 94.2645 1266.2 494.416
971 0 80.1024 13.6825 1096 101.918 1265.98 490.777
972 1 42.1071 11.542 486 100.576 1267.04 509.603
973 0 44.1268 10.991 485 100.905 1266.95 508.781
974 0 46.0451 11.5104 530 100.906 1266.62 505.938
975 0 47.137 11.3287 534 101.826 1266.69 504.474
976 0 49.1015 13.1972 648 98.1451 1267.36 503.199
977 0 50.0432 12.4492 623 100.918 1267.65 501.469
978 0 46.0654 9.4431 435 107.221 1267.82 494.938
979 0 54.1198 13.0821 708 97.7048 1269.51 502.13
980 0 56.0878 11.9099 668 100.145 1271.7 498.807
981 0 59.1122 14.1933 839 96.559 1273.57 498.683
982 0 59.1882 13.2797 786 99.1361 1275.28 498.071
983 0 64.1994 13.3179 855 98.0994 1276.71 496.654
984 0 64.1269 12.3661 793 99.9672 1278.78 498.246
985 0 68.1677 12.7186 867 100.277 1279.82 497.441
986 0 72.2593 13.0226 941 100.095 1280.22 496.996
987 1 44.052 11.3956 502 96.9183 1281.92 514.257
988 0 40.0564 9.38676 376 99.7633 1281.66 516.835
989 0 45.0555 12.2294 551 96.3358 1280.2 514.468
990 0 47.0817 11.9154 561 97.4011 1277.86 514.562
991 0 49.0446 12.6008 618 95.1812 1276.17 514.494
992 0 49.0721 12.1862 598 97.3963 1275.11 512.348
993 0 55.0479 13.3702 736 93.5136 1273.86 511.181
994 0 57.0988 14.0984 805 92.0037 1272.16 507.237
995 0 60.0399 13.7742 827 92.4317 1269.96 507.126
996 0 59.0331 12.4168 733 96.2387 1268.25 505.898
997 0 62.0447 13.2808 824 95.9199 1268.8 502.972
998 0 65.0459 14.4975 943 92.9915 1268.83 500.663
999 0 66.041 13.0222 860 96.0709 1267.77 498.214
1000 0 71.0852 13.2798 944 95.5265 1267.76 494.779
1001 0 73.147 13.425 982 96.2383 1267.82 492.714
1002 1 39.0376 12.0397 470 93.2489 1267.25 509.23
1003 0 40.0229 10.9937 440 95.6182 1266.97 508.236
1004 0 42.1029 10.8781 458 96.6856 1268.28 507.489
1005 0 42.1036 11.0917 467 98.6874 1269.36 506.593
1006 0 46.1002 13.3405 615 94.4293 1271.17 503.387
1007 0 48.1736 13.7005 660 92.4545 1272.02 505.73
1008 0 47.0198 12.5054 588 96.4099 1274.14 505.094
1009 0 48.0445 13.0712 628 96.9427 1275.69 505.237
1010 0 52.0603 12.6776 660 97.0712 1277.72 504.28
1011 0 52.1272 12.1626 634 99.153 1280.06 504.319
1012 0 55.0466 12.4622 686 98.3353 1280.07 503.813
1013 0 57.0792 12.8944 736 98.3601 1279.85 504.253
1014 0 59.1438 13.036 771 99.7095 1281.19 502.571
1015 0 64.1896 13.538 869 98.8688 1281.04 503.365
1016 0 65.1917 13.0538 851 100.888 1279.6 501.358
1017 0 69.1405 13.1038 906 99.9415 1277.72 503.783
1018 0 73.2357 12.5076 916 101.481 1276.92 502.653
1019 1 41.1798 10.0292 413 97.9588 1275.29 520.569
1020 0 44.1232 10.516 464 98.5927 1274.03 518.543
1021 0 43.1483 11.1476 481 98.3368 1272.07 517.146
1022 0 46.1411 12.5701 580 96.4293 1270.95 514.428
1023 0 47.07 12.4708 587 98.3424 1270.36 510.964
1024 0 50.1676 12.8768 646 97.3313 1269.67 509.258
1025 0 51.1483 13.0796 669 97.8176 1267.54 505.601
1026 0 54.2098 14.7206 798 94.0551 1267.45 505.117
1027 0 55.0493 13.3698 736 97.5245 1266.7 501.986
1028 0 57.2574 13.3607 765 98.3503 1267.19 500.473
1029 0 59.1365 14.9315 883 94.0294 1267.19 500.749
1030 0 61.1337 14.2147 869 97.3015 1268.04 495.94
1031 1 29.1108 8.75963 255 100.882 1270.09 513.404
1032 0 33.1076 9.66546 320 101.572 1270.39 510.991
1033 0 35.1029 10.1131 355 99.0704 1271.67 511.817
1034 0 36.0886 12.2476 442 96.5588 1273.21 509.498
1035 0 37.1072 11.3725 422 99.5521 1275.25 508.946
1036 0 38.0535 12.6927 483 97.8944 1276.98 509.451
1037 0 40.1985 13.0851 526 97.0418 1277.6 510.515
1038 0 41.0918 14.0904 579 97.5147 1279.7 509.059
1039 0 44.2029 13.2571 586 98.2799 1280.82 509.867
1040 0 44.2165 12.778 565 100.904 1281.25 510.717
1041 0 48.1281 13.2563 638 99.8056 1281.92 511.058
1042 0 49.1486 13.3066 654 100.688 1282.06 511.453
1043 0 51.1167 14.4375 738 98.836 1280.95 511.386
1044 0 53.4139 14.266 762 100.822 1281.06 511.114
1045 0 57.1471 13.4565 769 101.811 1279.12 512.861
1046 0 56.2127 13.7158 771 102.663 1276.65 511.23
1047 0 60.1389 13.6185 819 102.381 1274.08 509.811
1048 0 62.1327 14.9197 927 100.566 1273.31 508.062
1049 0 64.1794 13.3999 860 104.097 1271.32 505.791
1050 0 69.3648 14.4886 1005 101.37 1270.19 502.329
1051 1 36.2034 10.6343 385 104.268 1268.8 518.125
1052 0 38.1378 10.7505 410 104.602 1267.26 514.583
1053 0 40.1834 11.0493 444 103.333 1267.75 512.491
1054 0 40.2475 12.125 488 103.832 1267.44 508.436
1055 0 43.1274 11.2226 484 104.899 1267.65 508.231
1056 0 45.3102 13.7055 621 99.7794 1267.86 504.147
1057 0 46.2579 14.0733 651 99.4885 1268.2 503.743
1058 0 48.204 14.1897 684 98.2266 1268.65 503.424
1059 0 49.1694 13.4027 659 99.9287 1270.01 501.866
1060 0 48.1286 12.0926 582 102.806 1271.18 500.215
1061 0 54.099 13.4014 725 98.6883 1272.64 498.783
1062 0 56.0808 14.4791 812 96.9581 1274.31 497.702
1063 0 58.1412 13.7424 799 97.8048 1275.54 497.623
1064 0 58.1431 12.8992 750 101.153 1277.22 497.276
1065 0 61.1744 12.9466 792 100.48 1278.32 496.811
1066 0 65.088 14.1501 921 98.4973 1280.54 497.37
1067 0 68.0437 13.315 906 100.178 1282.57 495.858
1068 1 36.1043 10.5805 382 101.113 1282.49 512.901
1069 0 38.1436 11.6664 445 99.2382 1282.53 513.544
1070 0 39.0401 12.7817 499 97.8918 1280.4 513.607
1071 0 41.1311 11.6943 481 98.5634 1279.78 515.042
1072 0 45.2319 13.7514 622 95.9357 1279.08 512.818
1073 0 44.1358 13.2319 584 98.6558 1277.65 510.86
1074 0 51.1104 13.6176 696 82.5187 1275.38 513.203
1075 0 49.0214 13.1983 647 98.7017 1274.79 510.216
1076 0 51.1882 15.6091 799 93.8048 1273.54 507.224
1077 0 51.176 13.4243 687 99.3202 1271.8 506.795
1078 0 55.093 14.3212 789 96.4094 1270.44 504.423
1079 0 57.1891 13.7789 788 98.4353 1270.19 501.482
1080 0 59.1612 15.0098 888 95.366 1269.12 498.963
1081 0 61.157 14.847 908 95.7412 1269.07 496.254
1082 0 64.2379 14.4774 930 95.9699 1269.61 494.641
1083 0 66.2244 15.1908 1006 95.3986 1269.6 491.916
1084 0 66.2339 14.2978 947 99.3875 1269.56 490.422
1085 0 69.2524 12.7649 884 102.337 1269.57 488.328
1086 1 40.0817 11.3768 456 99.0351 1271.07 505.357
1087 0 39.0494 10.9349 427 100.714 1272.49 504.948
1088 0 40.1104 11.6678 468 101.222 1273.33 504.451
1089 0 41.1063 11.1905 460 103.317 1274.85 504.285
1090 0 44.1606 12.7263 562 100.76 1276.96 503.375
1091 0 46.1781 13.0798 604 100.26 1278.83 504.517
1092 0 48.1296 13.4221 646 100.841 1280.48 504.046
1093 0 50.1086 14.4486 724 98.4738 1282.16 505.816
1094 0 50.1585 14.0156 703 101.644 1282.68 505.139
1095 0 54.0542 14.504 784 100.277 1283.24 504.652
1096 0 55.1392 13.9647 770 101.97 1283.42 504.56
1097 0 57.0558 14.0214 800 101.921 1283.48 506.515
1098 0 62.1576 14.5598 905 101.02 1282.03 505.487
1099 0 63.126 14.3047 903 101.262 1279.98 506.457
1100 0 67.08 15.489 1039 100.894 1278.51 503.84
1101 0 69.1162 13.9765 966 103.793 1276.28 503.664
1102 0 73.1098 13.9243 1018 102.947 1274.52 501.244
1103 0 77.283 14.4146 1114 101.244 1272.85 499.362
1104 1 43.0731 12.444 536 98.5243 1272.45 515.541
1105 0 43.1297 12.9145 557 99.447 1271.26 512.144
1106 0 45.162 12.7541 576 96.9132 1272.13 512.717
1107 0 44.2337 12.3661 547 99.3675 1271.08 510.091
1108 0 46.1206 13.2912 613 99.5351 1269.45 506.199
1109 0 49.1052 15.3141 752 94.7035 1269.08 502.979
1110 0 50.2273 14.6136 734 96.9319 1269.62 500.813
1111 0 52.1987 14.8471 775 95.8323 1270.14 500.395
1112 0 52.2411 13.9737 730 98.7932 1270.95 499.234
1113 0 55.1658 14.7011 811 97.1911 1272.6 499.089
1114 0 57.2593 15.2639 874 95.96 1273.73 498.442
1115 0 58.1421 12.9338 752 102.68 1273.98 497.195
1116 0 60.2036 14.8496 894 99.4206 1275.55 496.371
1117 0 64.2643 16.6033 1067 95.0553 1276.94 495.982
1118 0 64.1488 14.1234 906 103.482 1277.74 495.413
1119 0 67.2849 15.4269 1038 102.18 1280.42 496.727
1120 0 70.1269 15.2295 1068 105.077 1281.38 492.797
1121 1 37.2128 11.3671 423 106.953 1284.03 512.418
1122 0 42.1577 11.5993 489 109.121 1283.56 511.54
1123 0 44.145 12.4816 551 108.548 1283.96 511.744
1124 0 46.1649 12.9102 596 109.149 1282.8 512.559
1125 0 48.078 12.0013 577 110.868 1281.52 513.823
1126 0 51.1049 13.3842 684 109.947 1279.15 512.589
1127 0 52.1132 14.1231 736 109.633 1277.26 513.675
1128 0 54.0648 13.3543 722 111.881 1276.12 511.439
1129 0 56.1078 13.3315 748 110.209 1275.07 512.396
1130 0 59.1548 15.0622 891 108.878 1272.98 508.62
1131 0 60.0833 14.43 867 109.638 1271.08 506.023
1132 0 63.1765 14.6257 924 108.926 1270.58 504.719
1133 0 64.1045 13.0256 835 112.432 1270.34 501.291
1134 0 69.1792 13.8336 957 110.333 1269.17 497.792
1135 1 34.0628 10.9504 373 110.601 1269.31 513.166
1136 0 38.0569 11.5091 438 110.728 1270.47 510.295
1137 0 39.1801 10.1327 397 111.98 1270.56 510.582
1138 0 40.1379 12.1581 488 109.9 1269.96 507.381
1139 0 41.1208 11.0893 456 110.173 1270.26 508.636
1140 0 42.1145 12.0623 508 108.236 1270.93 507.843
1141 0 44.2463 14.3063 633 105.656 1270.44 505.528
1142 0 46.2202 14.9934 693 103.502 1271.99 505.33
1143 0 46.2644 13.7038 634 106.784 1273.2 504.238
1144 0 48.3486 13.0924 633 106.754 1275.04 506.463
1145 0 50.27 12.8705 647 107.218 1277.53 504.937
1146 0 53.2163 15.7658 839 101.514 1279.37 505.528
1147 0 54.1247 13.746 744 106.246 1281.89 505.523
1148 0 58.2441 15.0916 879 103.157 1282.02 504.823
1149 0 58.0733 14.4128 837 107.854 1282.38 504.301
1150 0 59.214 13.1557 779 109.496 1283.26 505.01
1151 0 63.3245 13.6756 866 108.06 1280.43 505.128
1152 0 68.4464 13.8649 949 106.708 1279.07 502.778
1153 1 36.1763 9.23256 334 107.039 1278.46 521.952
1154 0 39.0446 10.8338 423 104.823 1276.86 521.272
1155 0 39.2144 12.3424 484 104.364 1275.41 520.012
1156 0 42.1127 13.3452 562 102.605 1274.03 517.5
1157 0 43.0565 13.0991 564 105.243 1272.22 515.699
1158 0 44.0781 12.682 559 105.955 1270.92 514.832
1159 0 47.0419 13.8387 651 103.439 1270.31 512.214
1160 0 48.1713 14.5522 701 102.183 1270.05 510.455
1161 0 50.3397 13.389 674 104.055 1268.7 508.059
1162 0 50.233 12.2828 617 107.319 1268.28 506.82
1163 0 52.1202 12.7781 666 107.634 1267.7 503.462
1164 0 55.1471 12.8928 711 106.08 1268.17 501.315
1165 0 57.1774 14.0965 806 102.833 1268.55 498.026
1166 0 59.6273 13.5173 806 104.5 1268.01 495.109
1167 0 62.2634 12.688 790 105.037 1268.77 496.597
1168 0 64.22 13.8586 890 102.104 1269.35 495.767
1169 0 68.1578 14.7892 1008 98.6696 1270.06 493.671
1170 1 34.0258 11.7264 399 102.283 1270.89 506.815
1171 0 36.015 11.5507 416 101.897 1272.45 506.495
1172 0 37.0821 12.324 457 100.092 1274.77 507.969
1173 0 37.0525 12.8196 475 99.0926 1276.47 508.013
1174 0 38.0976 12.3105 469 102.772 1278.24 507.399
1175 0 41.1165 12.4281 511 99.7945 1280.09 507.812
1176 0 44.1418 13.1395 580 96.7879 1281.92 508.536
1177 0 44.2007 13.3256 589 97.7216 1282.44 508.586
1178 0 47.051 14.1336 665 96.185 1282.82 507.313
1179 0 47.0261 14.1198 664 97.2063 1282.76 508.794
1180 0 50.0861 14.0758 705 97.6908 1282.07 508.291
1181 0 53.2183 15.3143 815 94.4552 1280.09 509.106
1182 0 53.0888 13.8447 735 98.4599 1279.53 508.774
1183 0 57.1128 14.6727 838 95.864 1277.05 506.901
1184 0 59.1488 15.9259 942 94.4363 1276.03 505.919
1185 0 60.1099 13.4753 810 98.9728 1274.82 505.201
1186 0 64.1274 12.8494 824 100.102 1273.64 502.284
1187 0 66.0751 13.7722 910 99.1637 1272.31 499.559
1188 0 69.2283 13.2171 915 99.5235 1271.56 496.378
1189 0 71.1622 14.5302 1034 96.6383 1269.79 495.549
1190 1 38.044 11.0136 419 98.3174 1269.83 508.609
1191 0 39.0139 11.6113 453 97.3046 1269.31 507.514
1192 0 41.0667 11.3961 468 97.6752 1269.35 505.092
1193 0 42.0245 12.2548 515 97.3223 1269.97 501.984
1194 0 44.1821 12.8785 569 95.341 1270.55 501.726
1195 0 46.0865 12.6718 584 96.1764 1271.1 500.822
1196 0 45.2817 12.632 572 96.9948 1271.34 500.547
1197 0 49.1313 12.5175 615 96.5902 1272.28 498.122
1198 0 53.2922 12.6097 672 95.3839 1273.5 499.051
1199 0 53.1975 15.3015 814 92.226 1275.16 497.924
1200 0 54.0917 13.0889 708 95.8178 1277.16 497.465
1201 0 56.2378 13.7986 776 94.9575 1278.67 496.378
1202 0 58.2472 13.2024 769 96.5735 1280.42 496.718
1203 0 63.1282 13.5122 853 95.7925 1282.01 493.729
1204 0 64.1859 12.8844 827 95.6856 1282.98 497.068
1205 0 67.0907 13.6681 917 95.2595 1283.81 493.913
1206 0 70.1609 12.4428 873 96.8236 1283.99 493.541
1207 0 73.2001 13.5656 993 95.4723 1283.64 493.947
1208 0 79.1536 14.1118 1117 94.0197 1282.01 494.056
1209 0 82.1503 13.3049 1093 96.2644 1280.74 493.279
1210 0 85.2069 14.7993 1261 94.1086 1278.57 491.696
1211 0 89.1434 13.2371 1180 95.9856 1277.66 491.515
1212 0 90.1271 12.793 1153 99.0798 1276.35 489.488
1213 0 97.2175 14.2258 1383 96.047 1274.73 486.71
1214 0 101.338 14.2296 1442 96.1623 1273.39 484.264
1215 0 105.469 13.7386 1449 97.2174 1272 482.861
1216 0 110.383 13.888 1533 97.5636 1271.44 477.927
1217 0 113.214 13.8499 1568 98.4228 1270.03 475.667
1218 0 117.232 13.1704 1544 99.2817 1270.06 472.42
1219 0 120.326 12.9648 1560 100.109 1270.18 469.57
1220 0 127.326 13.5793 1729 98.5639 1270.38 465.569
1221 0 132.493 13.6913 1814 99.0413 1271.04 460.915
1222 1 67.2836 12.1872 820 96.9866 1271.95 493.371
1223 0 69.2007 11.3005 782 98.8133 1272.1 491.11
1224 0 74.2333 14.67 1089 92.2617 1272.93 489.366
1225 0 76.1482 12.7777 973 94.962 1273.85 490.221
1226 0 79.1898 12.9562 1026 96.847 1276.62 486.822
1227 0 82.2234 14.862 1222 93.2234 1277.67 483.203
1228 0 84.2067 13.55 1141 98.5679 1279.98 482.079
1229 0 89.0732 13.3149 1186 97.8718 1281.53 484.048
1230 0 92.1399 14.033 1293 97.2854 1282.31 481.324
1231 0 97.1926 14.7542 1434 96.3284 1283.49 480.911
1232 0 102.223 15.7498 1610 94.2733 1283.8 481.985
1233 1 59.0354 10.9426 646 98.0139 1285.09 503.882
1234 0 63.0378 13.246 835 92.9258 1285.15 505.236
1235 0 65.0228 12.6263 821 95.5834 1283.95 503.705
1236 0 70.0832 13.3984 939 94.4462 1283.09 502.567
1237 0 73.2325 13.3547 978 93.6268 1281.42 503.997
1238 0 75.1897 13.6056 1023 96.0381 1279.91 500.806
1239 0 82.1322 15.1585 1245 92.2032 1277.95 497.459
1240 1 44.036 10.0827 444 96.8626 1277.32 515.367
1241 0 45.0202 11.0173 496 96.2863 1275.46 514.202
1242 0 50.035 12.1715 609 93.4926 1274.48 512.069
1243 0 50.0414 13.7286 687 91.8836 1273.28 511.464
1244 0 53.0726 13.0387 692 94.5636 1272.7 507.814
1245 0 54.0825 13.0541 706 96.2535 1272.04 503.225
1246 0 55.0389 11.9552 658 98.0441 1272.38 502.924
1247 0 59.1191 13.8196 817 95.0832 1269.81 500.661
1248 0 58.1834 12.9075 751 98.9507 1271.09 498.8
1249 0 63.216 14.6798 928 93.9935 1272.31 497.366
1250 0 66.1449 13.1378 869 97.0886 1271.87 496.041
1251 0 67.1464 13.9397 936 96.2308 1272.69 495.57
1252 0 71.246 13.292 947 96.4784 1273.02 492.214
1253 1 37.1534 9.95871 370 97.1757 1275.31 510.376
1254 0 38.1051 11.3108 431 96.3944 1276.47 508.856
1255 0 39.0726 12.1057 473 93.5772 1278.26 509.482
1256 0 43.1036 11.484 495 95.204 1280 509.311
1257 0 43.0758 12.3271 531 95.6893 1282.52 509.448
1258 0 45.147 13.0463 589 96.5739 1282.43 509.626
1259 0 46.2071 12.3141 569 98.8453 1283.02 511.281
1260 0 48.2908 13.895 671 95.62 1282.92 510.692
1261 0 51.1881 13.2453 678 96.9882 1282.81 511.217
1262 0 52.186 12.9345 675 98.717 1282.03 509.778
1263 0 54.1031 13.8439 749 97.0961 1280.72 509.885
1264 0 55.2131 12.497 690 100.397 1279.04 510.722
1265 0 59.2452 13.7564 815 97.0258 1276.23 507.881
1266 0 61.1118 14.4162 881 96.1748 1274.85 506.331
1267 0 64.2214 13.3445 857 96.9615 1273.25 504.065
1268 0 67.1404 13.4345 902 96.6419 1270.93 503.925
1269 0 70.1281 14.3452 1006 95.2545 1270.31 501.039
1270 0 71.176 12.7571 908 99.7522 1268.95 498.273
1271 1 38.1855 11.5751 442 98.2014 1269.43 512.916
1272 0 38.1154 10.5731 403 100.457 1268.95 511.084
1273 0 40.0779 12.6254 506 96.6304 1269.68 510.099
1274 0 42.0854 12.5459 528 97.4943 1268.44 506.636
1275 0 43.0372 14.6152 629 94.6057 1268.7 505.574
1276 0 44.0715 13.2512 584 98.0274 1269.42 503.512
1277 0 44.1792 14.0564 621 97.372 1270.34 502.612
1278 0 46.1055 15.2259 702 94.5698 1271.81 502.118
1279 0 48.04 14.2798 686 96.9023 1273.62 500.593
1280 0 50.0847 14.8748 745 96.055 1274.29 502.089
1281 0 51.0875 12.8994 659 101.323 1275.47 500.778
1282 0 53.0589 15.1153 802 96.2893 1278 501.628
1283 0 55.1802 14.0993 778 98.883 1279.46 499.758
1284 0 55.1802 14.0086 773 141.671 1280.45 499.783
1285 0 59.087 14.0132 828 99.529 1282.31 500.907
1286 0 61.1168 14.3987 880 99.0875 1283.01 499.566
1287 0 64.1694 14.6799 942 99.6571 1283.53 498.756
1288 0 66.1443 14.5288 961 100.1 1283.07 497.442
1289 0 72.2245 14.718 1063 97.4807 1281.75 498.295
1290 0 73.257 13.8417 1014 100.342 1280.5 497.606
1291 0 75.2837 14.545 1095 100.052 1278.78 496.138
1292 0 78.2124 14.0003 1095 101.283 1277.56 495.86
1293 0 83.2454 14.259 1187 100.557 1276.09 492.585
1294 0 87.2657 14.8168 1293 99.4091 1275.17 490.239
1295 1 47.1508 9.35297 441 103.243 1274.3 510.184
1296 0 47.2116 10.8448 512 98.9688 1273.17 510.236
1297 0 48.0998 11.2267 540 99.6759 1272.83 507.87
1298 0 53.129 12.5167 665 96.2421 1271.51 505.753
1299 0 52.0735 12.2711 639 99.0156 1270.38 500.944
1300 0 55.1252 14.6394 807 93.4957 1270.07 499.721
1301 0 56.0954 14.6358 821 92.8417 1269.83 496.879
1302 0 58.1152 13.5249 786 93.7557 1270.91 495.627
1303 0 60.1152 13.2579 797 93.3162 1271.77 496.279
1304 0 60.1232 12.8237 771 95.6615 1273.35 491.876
1305 0 61.1684 12.9152 790 94.4544 1273.96 492.856
1306 0 65.3252 14.0987 921 91.5972 1275.32 491.074
1307 0 66.2071 14.3338 949 91.8988 1276.54 489.455
1308 0 71.255 14.0622 1002 90.6467 1279.52 489.136
1309 0 73.1569 13.5599 992 91.1119 1280.07 488.327
1310 0 76.2396 13.9954 1067 90.1031 1280.98 487.115
1311 0 79.2647 14.9373 1184 88.7568 1282.82 488.119
1312 0 80.187 13.8177 1108 90.4025 1282.93 487.801
1313 0 83.2999 14.1657 1180 89.6042 1284.62 486.555
1314 0 88.3074 13.5549 1197 89.1704 1285.3 486.587
1315 0 90.2825 13.3248 1203 89.2693 1284.64 485.476
1316 0 97.1802 14.8384 1442 84.5465 1283.13 482.205
1317 1 52.1522 9.97082 520 86.8481 1282.5 507.8
1318 0 52.0742 11.3876 593 85.6948 1281.73 505.582
1319 0 55.13 12.5159 690 83.0681 1278.92 502.529
1320 0 56.3085 13.284 748 80.1658 1277.39 503.898
1321 0 60.1714 12.4976 752 81.0612 1276.37 498.477
1322 0 61.0769 11.068 676 82.4837 1274.55 495.686
1323 0 62.0607 13.3901 831 79.8351 1273.8 496.49
1324 0 62.1075 12.6394 785 81.1096 1272.09 492.58
1325 0 67.1294 12.4833 838 79.8878 1271.98 491.36
1326 1 30.007 4.93218 148 84.4527 1271.36 507.351
1327 0 30.0389 9.05492 272 79.1728 1271.33 508.349
1328 0 30.0346 8.49021 255 78.2274 1271.5 507.431
1329 0 28.0282 5.88692 165 79.5818 1273.13 508.824
1330 1 79.1024 14.0957 1115 78.252 1274.46 482.219
1331 0 80.3047 14.2084 1141 78.6424 1274.96 479.466
1332 0 86.1654 15.2033 1310 76.2771 1275.38 483.517
1333 0 85.2264 13.2705 1131 81.076 1276.37 481.538
1334 0 92.1301 14.7509 1359 79.3127 1277.53 480.291
1335 0 93.2392 14.4896 1351 80.8438 1279.47 478.466
1336 0 95.4125 14.6836 1401 81.1178 1281.75 478.302
1337 0 99.135 15.0905 1496 81.0602 1283.56 478.326
1338 0 101.245 15.6156 1581 81.3599 1283.77 477.148
1339 0 106.154 15.892 1687 81.227 1284.73 475.938
1340 0 109.261 12.9598 1416 86.2225 1285.96 477.121
1341 1 58.0706 10.0051 581 86.136 1285.06 503.941
1342 0 60.2303 9.94516 599 86.6327 1283.79 505.232
1343 0 63.1636 11.4623 724 84.9213 1282.86 504.32
1344 0 61.2653 12.3724 758 86.3615 1281.05 502.27
1345 0 63.0912 12.2838 775 86.0774 1279.65 507.274
1346 0 65.1632 12.4764 813 87.8573 1277.77 504.812
1347 0 65.1641 12.9212 842 88.9109 1277.12 502.925
1348 0 70.15 12.6728 889 88.4679 1275.21 501.333
1349 0 69.085 14.0262 969 87.6698 1274.18 500.786
1350 0 68.1692 14.3613 979 89.5322 1272.84 496.921
1351 0 70.0619 13.2454 928 91.4741 1271.8 496.388
1352 0 72.086 14.7602 1064 90.7274 1271.83 494.704
1353 0 72.0319 13.9244 1003 92.7188 1271.52 492.971
1354 0 73.2187 13.7123 1004 94.2241 1271.46 490.149
1355 0 74.1433 14.2832 1059 93.1756 1272.47 492.289
1356 0 73.1188 14.6884 1074 95.7225 1273.49 488.139
1357 0 75.093 15.6339 1174 94.8041 1274.05 489.371
1358 0 75.0799 14.3447 1077 98.1068 1273.96 487.705
1359 0 74.1324 14.2313 1055 99.6446 1275.08 488.462
1360 0 78.1938 16.3696 1280 95.7758 1275.28 487.728
