time division length width area intensity CMx CMy
0 0 38.2198 13.6055 520 118.581 1046.52 498.217
1 0 38.2303 13.3664 511 118.767 1045.36 498.556
2 0 40.2478 15.1064 608 112.674 1045.9 498.482
3 0 39.2278 14.7089 577 114.78 1046.73 497.308
4 0 40.1466 14.1481 568 114.026 1045.68 497.826
5 0 39.1083 13.0663 511 119.628 1045.49 496.781
6 0 41.2232 15.8163 652 110.854 1044.83 495.712
7 0 39.1761 14.371 563 118.693 1043.6 495.339
8 0 43.1509 14.4377 623 114.294 1044.78 495.083
9 0 44.0945 14.5143 640 115.347 1043.85 492.959
10 0 44.267 14.4577 640 113.762 1044.37 494.758
11 0 45.1858 14.0974 637 115.948 1044.74 493.865
12 0 46.1256 15.0459 694 113.674 1045.68 493.912
13 0 48.1087 14.5296 699 113.116 1045.52 493.957
14 0 47.1563 14.2293 671 116.599 1045.71 492.487
15 0 49.065 15.9992 785 113.017 1045.55 491.199
16 0 50.0645 16.7384 838 110.605 1045.3 491.495
17 0 51.1865 16.645 852 110.39 1045.88 491.205
18 0 53.1148 16.1537 858 112.214 1045.38 490.334
19 0 54.1267 16.1288 873 112.805 1046.05 490.273
20 0 55.0421 15.9333 877 113.761 1044.83 489.991
21 0 57.0651 16.4549 939 111.873 1045.12 489.716
22 0 57.0318 15.9034 907 114.874 1044.7 488.354
23 0 59.1217 16.2715 962 112.87 1045.13 487.204
24 0 60.0525 15.7529 946 114.812 1045.66 486.985
25 0 62.0708 16.4973 1024 112.915 1046.36 485.459
26 0 64.085 16.088 1031 114.789 1047.84 484.737
27 0 65.0983 16.406 1068 114.075 1048.96 485.396
28 0 68.0753 16.5846 1129 113.249 1048.87 484.895
29 0 69.1196 16.0012 1106 116.535 1047.57 480.597
30 0 71.1954 16.4758 1173 114.616 1046.99 479.546
31 1 36.0829 11.3904 411 121.406 1046.33 497.207
32 0 37.0512 12.3343 457 119.84 1046.9 496.661
33 0 39.0788 13.0761 511 120.382 1047.71 494.914
34 0 41.0412 12.7189 522 119.385 1048.16 494.58
35 0 41.0508 13.2032 542 119.801 1047.32 493.539
36 0 44.0358 14.8289 653 115.674 1047.53 494.288
37 0 42.1152 13.3443 562 121.995 1048.22 494.121
38 0 45.1473 14.4859 654 118.083 1047.97 493.541
39 0 47.1183 14.9623 705 115.224 1049.44 493.491
40 0 47.2592 14.6003 690 118.726 1049.72 492.613
41 0 50.1231 13.9457 699 118.506 1049.12 491.648
42 0 51.0404 15.1253 772 116.045 1049.08 490.76
43 0 51.0649 13.4339 686 119.219 1048.98 491.06
44 0 53.1277 14.851 789 117.724 1048.62 488.72
45 0 56.0488 14.4874 812 116.974 1049.91 489.924
46 0 57.0316 15.1144 862 115.537 1049.89 490.401
47 0 61.1416 15.0307 919 114.57 1049.75 489.479
48 0 62.1475 16.0425 997 114.255 1049.68 487.934
49 0 64.1438 15.1067 969 115.799 1049.87 487.67
50 0 66.0969 16.0522 1061 114.159 1050.16 486.147
51 0 68.1086 15.9598 1087 114.574 1049.86 485.298
52 0 70.1103 15.932 1117 114.947 1049.72 484.947
53 0 71.1339 14.6625 1043 117.71 1049.34 484.538
54 0 75.1951 16.7564 1260 113.907 1048.9 481.036
55 0 78.1721 15.1717 1186 116.048 1050.26 482.834
56 0 81.1472 16.5871 1346 114.039 1049.67 480.805
57 1 43.0402 10.7341 462 118.115 1050.42 499.188
58 0 46.081 12.6733 584 117.783 1049.37 496.834
59 0 49.0468 13.0692 641 116.145 1050.14 496.02
60 0 47.0704 14.404 678 117.173 1050.46 493.953
61 0 52.0539 13.755 716 115.458 1050.64 494.226
62 0 51.0311 14.207 725 116.63 1050.93 491.986
63 0 52.1923 14.0251 732 117.048 1050.93 491.807
64 0 55.1136 15.1142 833 113.598 1051.08 493.162
65 0 55.0843 15.1404 834 115.204 1051.45 491.727
66 0 60.0784 16.0956 967 109.051 1052.11 489.746
67 0 62.0486 15.5685 966 110.425 1052.21 489.689
68 0 61.0317 15.9098 971 113.34 1052.13 485.518
69 0 64.0801 15.1061 968 114.138 1052.35 486.41
70 0 66.1706 15.717 1040 116.078 1051.23 484.091
71 0 69.2655 16.0253 1110 115.068 1051.97 482.714
72 0 71.119 14.7359 1048 119.192 1051.83 483.101
73 0 73.0639 14.8363 1084 119.643 1051.23 481.622
74 0 75.0515 13.8172 1037 123.41 1052.11 480.146
75 1 37.0423 11.5544 428 118.855 1051.95 498.874
76 0 41.0246 13.1872 541 115.035 1050.77 498.767
77 0 42.0317 13.1567 553 114.685 1051 498.257
78 0 43.069 13.3042 573 114.798 1052.11 498.398
79 0 43.0783 13.7424 592 117.897 1053.04 497.505
80 0 43.1885 13.4758 582 119.512 1053.06 497.509
81 0 47.0467 14.1136 664 115.855 1053.47 496.679
82 0 47.118 12.2034 575 121.694 1052.71 496.883
83 0 48.149 13.2713 639 120.817 1052.4 493.71
84 0 48.2153 13.3982 646 120.444 1052.7 494.896
85 0 53.0981 14.332 761 115.137 1052.51 494.173
86 0 54.0925 13.6063 736 118.385 1053.01 491.213
87 0 54.1766 14.5266 787 118.151 1051.9 491.126
88 0 54.136 12.3393 668 121.377 1052.22 491.792
89 0 59.1325 13.4782 797 116.982 1051.7 489.148
90 0 61.3836 13.3586 820 116.656 1051.5 489.326
91 0 63.3833 13.8207 876 115.768 1051.94 488.357
92 0 66.2686 15.5579 1031 113.168 1051.83 485.324
93 0 66.2988 13.3034 882 117.755 1051.83 486.112
94 0 70.467 13.5099 952 118.923 1051.42 482.973
95 1 37.1666 11.2466 418 114.481 1051.55 499.553
96 0 38.0601 11.6132 442 115.183 1052.21 498.462
97 0 39.0501 11.3956 445 114.209 1052.37 499.115
98 0 41.0347 12.6966 521 111.614 1052.11 497.722
99 0 44.0472 12.1461 535 112.802 1052.71 497.093
100 0 44.0801 12.8856 568 114.863 1052.07 496.171
101 0 44.0573 13.9364 614 114.671 1051.97 495.951
102 0 47.0755 12.8729 606 114.86 1053.76 496.843
103 0 48.1351 13.0051 626 116.882 1054.25 495.685
104 0 48.1021 14.2406 685 115.677 1054.22 493.581
105 0 51.214 13.2776 680 114.888 1054.51 495.144
106 0 52.1535 12.4057 647 118.345 1053.18 493.181
107 0 53.1424 12.8146 681 117.524 1054.09 493.57
108 0 55.1301 13.2595 731 116.718 1053.47 492.646
109 0 56.1705 13.9753 785 115.478 1053.39 489.299
110 0 59.1806 12.7744 756 115.735 1053.84 492.046
111 0 61.2414 14.0265 859 114.65 1053.89 490.037
112 0 63.2784 14.776 935 113.836 1053.07 486.922
113 0 64.3465 12.8212 825 117.076 1052.55 489.292
114 1 35.0606 11.7226 411 112.384 1053.72 503.18
115 0 34.0274 9.72745 331 115.988 1053.72 503.604
116 0 36.0883 11.2502 406 112.076 1053.59 503.732
117 0 40.1085 11.2944 453 109.269 1053.52 503.949
118 0 40.1368 13.2547 532 109.65 1053.75 500.979
119 0 40.0484 12.7596 511 110.62 1052.92 500.479
120 0 39.0479 11.9341 466 113.015 1053.26 500.384
121 0 45.1685 13.2615 599 107.965 1054.22 499.145
122 0 45.0738 14.3764 648 107.275 1052.17 498.5
123 0 45.0394 13.7657 620 110.213 1050.7 498.032
124 0 46.1249 12.9431 597 113.745 1051.55 496.451
125 0 49.1502 13.4689 662 111.258 1051.1 495.272
126 0 50.1507 13.5591 680 111.524 1051.36 495.147
127 0 51.0863 13.3891 684 112.554 1051.37 495.504
128 0 51.1917 13.2248 677 116.143 1051.28 494.684
129 0 52.1311 12.9098 673 117.938 1051.2 494.171
130 0 54.2653 14.3923 781 114.789 1052.53 492.945
131 0 57.2661 13.935 798 115.642 1052.67 491.971
132 0 58.4925 14.5318 850 116.095 1052.97 490.634
133 0 61.2357 13.8808 850 116.398 1052.31 491.558
134 0 62.4716 14.3745 898 113.773 1053.39 490.958
135 0 64.3114 14.181 912 116.101 1053.89 488.807
136 0 65.3403 13.9118 909 117.557 1052.76 488.092
137 0 70.3374 14.7148 1035 113.579 1053.39 489.664
138 0 70.4072 13.919 980 118.62 1053.04 487.359
139 1 38.1985 11.1785 427 118.269 1053.35 501.953
140 0 39.0492 12.4458 486 115.27 1053.48 501.198
141 0 41.12 12.1839 501 115.559 1053.08 501.257
142 0 41.1955 13.3024 548 114.453 1053.49 501.549
143 0 45.0738 13.5555 611 114.334 1053.49 499.948
144 0 44.0589 13.4139 591 115.687 1053.76 499.981
145 0 48.0622 13.8362 665 114.466 1053.79 499.027
146 0 49.0902 12.9965 638 114.146 1053.98 500.433
147 0 49.0892 13.2005 648 115.801 1052.85 498.773
148 0 51.0491 13.9278 711 113.076 1052.81 497.865
149 0 53.0464 15.1188 802 111.859 1051.88 495.252
150 0 54.0522 13.746 743 114.048 1051.2 495.102
151 0 57.0409 14.1127 805 112.194 1051.24 494.042
152 0 56.1159 13.8998 780 115.597 1051.71 492.228
153 0 58.1695 13.22 769 115.281 1050.94 493.074
154 0 61.0914 14.6338 894 111.398 1050.95 491.702
155 0 64.2028 14.6567 941 111.197 1050.5 489.982
156 0 67.1331 15.1639 1018 110.29 1050.12 488.631
157 0 66.345 13.5353 898 114.736 1049.95 487.816
158 1 37.0195 11.7236 434 112.935 1050.13 501.915
159 0 38.017 11.6527 443 113.479 1051.06 501.481
160 0 39.0202 11.2762 440 115.336 1050.72 500.55
161 0 38.1127 12.6729 483 113.317 1051.08 501.014
162 0 42.0155 13.2332 556 112.457 1050.94 499.493
163 0 43.0427 13.3356 574 113.134 1051.1 497.608
164 0 44.046 12.8956 568 113.653 1052.1 500.509
165 0 44.0715 12.9108 569 114.308 1052.26 499.267
166 0 46.0769 13.8681 639 113.779 1052.04 496.781
167 0 46.0626 12.7652 588 116.381 1052.59 496.491
168 0 49.1327 13.5958 668 113.449 1053.09 498.265
169 0 52.1307 14.9624 780 111.005 1052.46 495.979
170 0 51.1427 13.433 687 115.215 1052.46 496.489
171 0 54.1578 14.8824 806 110.891 1053.12 496.295
172 0 55.0724 14.6353 806 112.985 1053.07 493.55
173 0 56.1346 13.3251 748 114.59 1053.36 494.489
174 0 58.3128 15.5198 905 111.202 1053.17 492.113
175 0 59.2409 13.7743 816 114.076 1053.13 493.645
176 0 61.1239 14.2007 868 114.469 1052.76 492.183
177 0 64.3891 14.2571 918 113.739 1051.83 491.331
178 0 66.235 14.2523 944 114.692 1051.54 488.986
179 1 34.0661 10.6851 364 115.769 1051.81 506.28
180 0 35.0511 11.3549 398 115.583 1051.63 504.387
181 0 39.0529 12.88 503 110.698 1050.61 505.08
182 0 38.0164 12.8103 487 113.456 1049.69 503.138
183 0 37.1052 11.9929 445 115.142 1049.6 503.838
184 0 38.096 12.5735 479 114.539 1049.42 502.267
185 0 42.1047 14.2027 598 108.92 1049.36 501.948
186 0 42.1423 14.4748 610 111.095 1049.66 500.098
187 0 43.1238 13.4265 579 113.193 1049.25 501.016
188 0 44.0299 12.923 569 116.745 1049.3 499.826
189 0 45.207 14.8428 671 113.788 1049.98 497.353
190 0 46.4013 14.0729 653 114.882 1050.64 498.012
191 0 49.2079 13.3718 658 116.684 1050.56 497.444
192 0 49.2911 13.6739 674 116.991 1050.53 495.555
193 0 51.0944 13.9154 711 116.546 1050.3 494.547
194 0 53.0633 14.4544 767 116.077 1050.06 493.774
195 0 56.2215 13.8381 778 115.084 1050.61 494.353
196 0 57.1798 14.5506 832 114.415 1050.55 492.79
197 0 58.24 13.7191 799 117.497 1051.76 490.88
198 0 59.1494 13.4405 795 117.824 1051.2 491.096
199 0 64.2916 14.6675 943 112.244 1052.16 491.08
200 0 65.225 14.427 941 115.307 1050.74 488.536
201 0 67.1864 13.9909 940 116.959 1050.92 487.678
202 1 36.0487 11.6509 420 113.986 1050.26 503.045
203 0 38.05 12.5624 478 110.705 1051.6 503.5
204 0 39.0194 12.0453 470 111.813 1050.24 502.357
205 0 39.0266 11.2744 440 114.139 1051.93 502.627
206 0 40.0961 12.4701 500 113.558 1052.02 501.938
207 0 41.0356 11.9409 490 113.416 1051.35 501.898
208 0 44.0485 15.4375 680 105.16 1050.31 500.531
209 0 46.0828 13.6927 631 107.605 1049.68 501.211
210 0 46.1115 13.7927 636 109.074 1049.5 502.014
211 0 47.1032 14.4364 680 109.751 1049.38 499.337
212 0 49.1617 12.4284 611 113.728 1049.29 499.324
213 0 51.1666 13.6808 700 111.347 1048.99 498.167
214 0 53.1567 14.0904 749 109.427 1049.61 496.983
215 0 53.1651 12.4706 663 112.674 1048.62 496.615
216 0 54.1655 13.9941 758 110.846 1047.76 494.711
217 0 58.0185 14.7367 855 106.904 1048.51 495.26
218 0 57.3235 14.392 825 110.56 1048.12 492.805
219 0 59.1953 14.4268 854 111.59 1048.87 492.034
220 0 61.2811 14.9475 916 110.163 1048.51 492.555
221 0 65.1812 14.1912 925 110.257 1048.78 492.712
222 0 66.2407 14.8096 981 111.52 1048.61 489.229
223 0 66.3 14.1327 937 111.97 1048.31 491.052
224 0 68.4337 13.0784 895 116.074 1047.76 487.985
225 0 74.1572 14.3749 1066 111.926 1047.59 486.848
226 0 74.2305 14.2799 1060 113.313 1048.29 484.658
227 0 78.3072 15.3626 1203 111.049 1048.57 483.042
228 1 41.1489 12.7342 524 111.025 1049.6 500.635
229 0 42.1248 11.4659 483 114.346 1049.24 500.433
230 0 44.2413 12.59 557 111.127 1049.85 499.275
231 0 45.1047 13.7901 622 110.161 1050.55 497.82
232 0 47.0612 13.8118 650 108.954 1051.16 497.386
233 0 47.1224 13.5392 638 110.16 1051.31 497.491
234 0 47.1584 11.472 541 113.519 1051.26 498.856
235 0 50.0685 12.8823 645 113.045 1051.76 496.126
236 0 52.2548 13.3768 699 109.801 1051.52 497.026
237 0 52.2441 13.1307 686 112.404 1051.52 495.424
238 0 54.238 12.9429 702 112.89 1051.5 494.604
239 0 55.2719 13.913 769 110.938 1051.14 495.248
240 0 58.198 13.1791 767 111.898 1051.63 494.57
241 0 59.2777 13.2765 787 112.418 1051.33 493.869
242 0 65.298 14.7018 960 108.651 1050.48 492.615
243 0 66.3035 14.1621 939 109.961 1049.91 490.655
244 0 66.3035 14.1169 936 152.494 1049.9 490.807
245 0 70.2863 13.8292 972 111.551 1050.16 490.076
246 1 39.1343 13.9008 544 103.967 1051.05 504.807
247 0 39.0542 10.2166 399 111.421 1050.53 505.045
248 0 41.1738 11.6579 480 106.815 1049.93 505.688
249 0 42.0637 12.6713 533 109.189 1049.17 502.623
250 0 43.0678 13.0027 560 106.968 1048.95 502.85
251 0 45.1518 13.1778 595 107.003 1048.51 501.106
252 0 46.1469 12.6552 584 108.212 1048.59 501.046
253 0 47.09 12.508 589 110.411 1049.05 499.796
254 0 48.0581 12.3392 593 112.212 1048.65 498.437
255 0 51.1667 14.5407 744 106.11 1048.65 498.16
256 0 52.0394 12.4713 649 110.536 1048.48 497.749
257 0 54.0555 14.6886 794 106.097 1048.3 495.485
258 0 56.0955 13.2631 744 109.801 1048.28 494.974
259 0 58.0306 15.5263 901 104.184 1049.48 494.768
260 0 58.1059 13.8368 804 110.071 1049.59 493.336
261 0 61.133 14.5257 888 108.798 1049.45 492.532
262 0 61.0839 13.9153 850 111.194 1050.28 492.128
263 1 32.0307 12.4568 399 108.123 1049.98 505.073
264 0 33.0436 11.1368 368 110.772 1049.94 505.236
265 0 34.0664 11.2427 383 110.023 1050.39 505.363
266 0 36.0306 12.0731 435 110.469 1050.17 504.062
267 0 38.0206 11.7831 448 111.074 1051.27 503.775
268 0 38.178 12.2322 467 112.394 1052.03 503.632
269 0 39.0259 12.607 492 112.051 1052.1 503.616
270 0 42.1025 13.1109 552 109.638 1051.89 503.598
271 0 43.1917 12.7802 552 111.217 1051.19 504.112
272 0 43.1519 12.9542 559 112.903 1050.94 502.614
273 0 46.2694 12.9892 601 111.952 1050.76 502.992
274 0 45.1433 13.0252 588 114.335 1050.84 501.896
275 0 48.2611 13.6549 659 110.375 1051.04 503.574
276 0 50.0772 14.9369 748 108.713 1050.31 501.598
277 0 51.0993 13.738 702 111.313 1050.38 499.634
278 0 51.1635 13.2125 676 111.714 1050.38 498.954
279 0 53.0756 13.5656 720 110.61 1049.95 499.303
280 0 56.1007 12.638 709 111.127 1049.82 499.059
281 0 57.0729 13.8244 789 109.096 1049.84 498.065
282 0 58.0991 12.5819 731 112.975 1049.93 494.101
283 0 61.0696 13.5256 826 109.568 1049.48 494.238
284 0 63.1173 14.5127 916 108.947 1048.59 493.836
285 0 67.133 13.6892 919 110.229 1048.03 490.447
286 0 68.0802 13.7485 936 111.262 1047.72 488.141
287 1 34.0334 9.2556 315 111.07 1048.64 505.375
288 0 37.1415 10.0696 374 109.829 1048.35 503.922
289 0 37.0611 11.1707 414 109.647 1048.58 501.894
290 0 41.1608 13.4594 554 104.33 1049.82 501.005
291 0 41.1386 12.4457 512 107.637 1050.3 500.568
292 0 42.1372 13.2424 558 108.179 1050.5 498.351
293 0 42.0431 12.9629 545 111.073 1051.19 497.161
294 0 44.0828 13.2251 583 109.451 1051.75 497.587
295 0 46.1198 13.4433 620 109.913 1052.24 498.056
296 0 48.0746 13.1462 632 109.668 1052.56 498.294
297 0 48.0338 13.0533 627 112.656 1052.42 496.895
298 0 49.0892 12.4467 611 114.836 1052.17 495.861
299 0 51.1562 14.4264 738 110.478 1052.36 496.145
300 0 54.0518 15.5036 838 107.037 1053.27 495.271
301 0 54.0777 14.3312 775 112.373 1053.17 494.863
302 0 55.0934 14.303 788 112.169 1053.79 494.305
303 0 60.0867 14.6954 883 109.06 1051.87 495.579
304 0 61.1402 14.4259 882 110.014 1052.2 493.423
305 0 63.1177 14.5443 918 109.362 1051.93 494.723
306 0 65.0859 14.9341 972 109.289 1051.34 493.532
307 0 68.2881 15.4346 1054 107.991 1051.21 492.787
308 0 70.1953 15.0295 1055 110.108 1051.12 491.011
309 0 75.3234 14.8161 1116 109.935 1050.63 489.849
310 1 44.0778 10.6403 469 109.239 1050.82 506.977
311 0 41.0359 10.8929 447 111.649 1050.25 505.474
312 0 45.163 12.2888 555 109.292 1049.53 504.076
313 0 47.0259 12.1422 571 110.196 1049.15 500.76
314 0 46.0343 12.86 592 109.938 1049.66 500.38
315 0 48.0366 12.3864 595 110.75 1049.27 499.993
316 0 50.1096 12.9117 647 109.768 1049.34 498.329
317 0 52.0246 13.0131 677 110.792 1049.23 497.1
318 0 55.0422 14.2073 782 108.033 1048.48 495.697
319 0 57.07 13.4221 766 108.213 1048.45 494.978
320 0 57.0859 14.3818 821 107.369 1047.88 492.825
321 0 60.0792 14.2146 854 107.58 1049.04 492.251
322 0 61.0631 13.7071 837 107.622 1048.83 492.263
323 0 65.1515 14.7656 962 104.17 1049.82 489.869
324 0 64.0769 14.1237 905 107.475 1049.29 488.701
325 0 69.1464 14.5199 1004 105.763 1050.17 487.44
326 0 72.1187 14.4345 1041 106.801 1050.7 486.517
327 0 73.0872 13.8875 1015 109.059 1051.1 484.925
328 1 37.0496 10.1755 377 105.003 1051.52 504.005
329 0 38.047 11.0127 419 104.036 1051.8 503.012
330 0 39.12 11.7076 458 101.522 1052.14 503.166
331 0 41.0491 11.6933 480 101.588 1052.58 503.69
332 0 44.0497 12.8945 568 100.393 1052.16 502.327
333 0 45.0471 12.3426 556 102.275 1051.93 502.638
334 0 46.0881 13.5393 624 100.821 1052.48 500.795
335 0 47.2173 13.2155 624 102.396 1052.81 500.944
336 0 49.2453 13.3617 658 102.14 1053.09 501.708
337 0 52.2118 13.8091 721 101.029 1053.45 501.444
338 0 53.1446 15.7118 835 96.824 1052.84 502.428
339 0 53.2556 12.5808 670 105.031 1052.19 498.161
340 0 55.3075 13.0543 722 101.875 1052.35 499.614
341 0 58.2066 12.6103 734 102.82 1051.91 497.877
342 0 57.1398 12.1981 697 105.105 1050.39 495.392
343 0 60.2481 12.5813 758 103.67 1049.16 493.125
344 0 63.3137 14.4834 917 98.0567 1049.41 493.379
345 0 64.2332 12.8283 824 101.453 1049.18 491.763
346 0 69.1785 14.8456 1027 96.4645 1049.78 490.156
347 0 68.3009 13.0013 888 101.155 1049.15 489.44
348 0 71.3061 13.393 955 101.434 1049.09 485.146
349 0 73.3256 15.0016 1100 98.8045 1048.33 482.648
350 0 75.2675 13.565 1021 100.678 1048.88 483.211
351 0 80.1537 15.8446 1270 95.9102 1049.42 481.093
352 0 81.2551 12.1592 988 103.068 1049.63 479.416
353 1 44.0557 10.918 481 96.5863 1050.73 497.923
354 0 45.0458 11.233 506 96.5949 1050.91 497.812
355 0 43.1212 9.87914 426 101.007 1051.56 496.89
356 0 46.0615 11.3327 522 97.8467 1052.43 498.377
357 0 48.0917 11.0414 531 99.6817 1053.12 496.823
358 0 50.1 12.475 625 96.0544 1052.94 496.485
359 0 52.0989 12.8218 668 95.2066 1053.79 496.668
360 0 53.1649 13.5616 721 95.1706 1053.28 494.211
361 0 53.0558 11.9308 633 99.7836 1053.58 494.378
362 0 57.0551 14.1968 810 96.0432 1053.6 492.312
363 0 60.1023 13.7931 829 95.6659 1053.68 494.604
364 0 62.0834 13.9812 868 96.5853 1054.41 493.317
365 0 62.0692 12.9855 806 98.5906 1053.64 494.093
366 0 69.1366 14.3195 990 94.6182 1053.29 494.218
367 1 34.0329 7.52213 256 100.371 1053.01 509.633
368 0 35.0262 11.5342 404 98.2921 1051.95 507.356
369 0 37.032 10.1264 375 99.3973 1051.07 507.872
370 0 39.0564 11.7522 459 96.732 1051.31 506.586
371 0 38.0622 10.7193 408 98.5172 1051.42 506.61
372 0 41.0638 13.2233 543 93.4899 1051.09 505.764
373 0 43.0712 12.2588 528 96.3087 1051.52 504.008
374 0 45.0607 13.16 593 92.9578 1051.01 504.378
375 0 44.1004 12.2448 540 98.2333 1050.65 502.813
376 0 44.0585 11.9841 528 97.9659 1050 502.703
377 0 46.0609 12.4835 575 98.2922 1050 500.81
378 0 48.0569 12.4228 597 98.3903 1048.95 499.809
379 0 50.1026 12.5942 631 98.2409 1047.55 498.241
380 0 50.0496 13.3068 666 98.0495 1047.06 496.872
381 0 50.0496 13.2668 664 145.696 1047.04 496.908
382 0 53.1189 12.3497 656 97.779 1047.49 497.032
383 0 54.1148 11.6974 633 99.9684 1049.39 493.953
384 0 56.1223 13.5775 762 97.0367 1049.47 491.661
385 0 59.109 13.6527 807 95.9864 1049.86 491.212
386 0 58.0738 12.9491 752 98.4761 1050.07 490.975
387 0 62.0728 11.9859 744 99.7433 1050.41 490.512
388 0 62.1365 11.7483 730 100.367 1051.56 490.153
389 1 33.0557 10.9815 363 94.0689 1051.45 505.749
390 0 33.0713 11.7625 389 94.6427 1052.12 505.491
391 0 34.0149 10.6718 363 96.8815 1051.49 505.036
392 0 37.0585 9.55246 354 96.4322 1052.73 505.822
393 0 38.0962 12.2584 467 94.8009 1052.78 504.619
394 0 38.0804 11.607 442 95.1425 1052.79 506.751
395 0 37.0475 12.0386 446 98.8004 1052.9 505.379
396 0 39.0211 11.0197 430 98.6628 1053.97 508.379
397 0 42.1773 12.732 537 97.2197 1053.61 505.406
398 0 42.1072 11.5182 485 101.214 1053.11 506.184
399 0 42.0239 11.6838 491 102.56 1052.45 507.193
400 0 45.1144 14.0975 636 97.4858 1052.16 504.855
401 0 44.1176 13.3053 587 100.278 1051.27 503.501
402 0 47.0879 13.3367 628 99.3439 1050.49 503.576
403 0 48.0899 13.1005 630 100.248 1050.21 503.098
404 0 47.098 11.7202 552 105.176 1049.2 501.056
405 0 49.1113 13.2352 650 101.886 1049.78 500.462
406 0 51.2042 15.2331 780 97.6103 1049.04 500.327
407 0 53.1042 12.7674 678 101.979 1049.36 498.839
408 0 53.2303 11.8354 630 106.048 1049.43 495.395
409 0 57.1331 14.3349 819 100.96 1050.2 496.142
410 0 57.1734 13.6952 783 102.999 1049.42 494.552
411 0 59.0926 13.7411 812 105.073 1048.73 491.656
412 0 61.0609 13.4292 820 104.84 1048.66 491.644
413 0 62.1468 12.744 792 106.245 1048.83 490.086
414 0 64.194 14.7677 948 103.297 1048.61 488.079
415 0 66.2439 12.3785 820 109.283 1049.8 486.438
416 1 35.138 11.3552 399 103.679 1050.92 504.429
417 0 36.1712 10.7268 388 107.528 1051.45 501.518
418 0 36.1999 11.4917 416 105.01 1052.25 502.707
419 0 38.1641 10.5335 402 108.328 1053.06 502.938
420 0 39.2139 12.2916 482 106.811 1054.05 501.429
421 0 42.1405 12.0549 508 106.624 1054.56 502.191
422 0 39.2343 11.4951 451 111.998 1055.25 502.1
423 0 43.1483 13.1407 567 107.598 1055.49 502.044
424 0 44.1728 12.4058 548 107.688 1054.74 503.805
425 0 46.183 12.9268 597 107.687 1055.1 503.136
426 0 50.0999 13.513 677 104.223 1054.61 502.851
427 0 50.1622 14.0943 707 102.747 1053.6 503.205
428 0 51.0807 13.5276 691 105.441 1053.52 501.66
429 0 52.1818 13.4721 703 104.982 1053.18 501.731
430 0 55.0941 13.5223 745 104.497 1052.57 500.315
431 0 58.0814 15.4094 895 100.242 1051.76 499.135
432 0 60.0731 13.8997 835 103.886 1051.22 497.889
433 0 61.2037 13.5449 829 105.802 1050.12 496.351
434 0 63.0678 13.8898 876 104.549 1049.69 496.058
435 1 33.0686 11.1586 369 104.39 1048.7 509.675
436 0 32.0376 9.58248 307 107.016 1048.13 509.026
437 0 35.0349 12.2164 428 102.988 1047.65 506.988
438 0 36.0471 12.8443 463 103.004 1047.1 505.384
439 0 36.0575 12.3136 444 105.964 1046.6 503.401
440 0 38.2161 11.9845 458 104.775 1046.15 502.362
441 0 41.2571 13.331 550 100.356 1047.02 502.245
442 0 40.0603 11.8821 476 106.464 1047.05 500.933
443 0 40.178 13.042 524 104.649 1047.63 500.542
444 0 42.1918 12.1113 511 105.904 1048.24 499.053
445 0 43.2877 13.006 563 104.657 1049 498.666
446 0 44.1825 13.5574 599 105.215 1050.28 498.546
447 0 46.2221 13.9111 643 105.072 1050.88 497.631
448 0 48.0735 12.1689 585 109.027 1051.78 497.34
449 0 49.1512 13.1024 644 108.281 1052.53 496.953
450 0 51.2758 13.1641 675 107.453 1053.91 497.434
451 0 51.1686 13.0353 667 108.234 1054.11 497.106
452 0 55.1991 13.9676 771 105.55 1054.86 497.232
453 0 55.0807 13.2714 731 108.197 1054.8 496.837
454 0 57.0655 13.4582 768 107.355 1054.7 497.727
455 0 59.0479 12.5999 744 110.056 1054.33 497.204
456 0 63.0657 13.3987 845 109.102 1053.63 494.872
457 0 65.0938 13.6265 887 109.493 1053.13 495.201
458 0 66.0933 13.4961 892 109.848 1052.95 496.092
459 0 71.0478 14.6662 1042 106.116 1052.52 494.348
460 0 70.1429 13.2729 931 110.459 1051.92 492.427
461 1 37.1108 10.8863 404 108.545 1051.14 509.173
462 0 41.1239 10.748 442 110.998 1050.65 506.943
463 0 43.0197 11.948 514 107.535 1050.47 506.772
464 0 44.0154 11.7686 518 108.01 1049.64 504.71
465 0 47.0848 13.2739 625 106.272 1047.9 502.184
466 0 45.0967 12.0186 542 110.782 1048.87 502.1
467 0 48.1561 11.878 572 110.22 1048.62 500.958
468 0 50.2619 13.2904 668 108.927 1049.03 497.234
469 0 52.1807 14.1815 740 107.089 1047.99 496.154
470 0 54.2512 12.4974 678 109.74 1047.78 496.603
471 0 56.1783 13.5106 759 109.635 1046.96 493.664
472 0 57.1589 13.3837 765 110.446 1046.92 492.246
473 0 58.2072 12.2322 712 113.471 1047.32 492.695
474 0 62.0353 14.5079 900 109.028 1048.24 488.889
475 0 63.1486 14.5688 920 108.484 1048.62 489.455
476 0 66.1677 14.2366 942 110.339 1049.44 487.596
477 0 68.0728 14.8811 1013 108.135 1051.28 486.044
478 0 68.0913 14.8477 1011 145.924 1053.3 486.16
479 0 73.1783 14.1025 1032 108.802 1055.45 485.076
480 0 74.191 13.8966 1031 111.607 1055.65 483.717
481 0 79.3666 15.0441 1194 108.083 1057.24 483.816
482 0 83.2647 14.4479 1203 110.406 1057.14 482.375
483 1 41.144 11.2046 461 110.2 1056.3 502.811
484 0 45.2016 13.7827 623 104.968 1055.95 501.873
485 0 47.1231 13.0509 615 106.111 1055.58 502.603
486 0 48.12 13.2377 637 106.931 1054.94 501.37
487 0 50.0887 12.977 650 106.192 1054.31 502.26
488 0 52.1887 13.6236 711 105.717 1053.23 501.405
489 0 52.1576 11.7912 615 109.636 1052.7 500.657
490 0 54.3017 13.1487 714 106.197 1052.06 499.888
491 0 55.2117 12.4249 686 107.028 1051.41 499.653
492 0 59.2855 13.7808 817 104.634 1050.59 496.741
493 0 59.4916 13.6826 814 104.186 1049.38 496.354
494 0 63.3774 13.4748 854 104.121 1049.8 493.972
495 0 65.2822 12.9438 845 105.32 1048.62 490.627
496 0 68.4561 13.6438 934 103.93 1047.64 489.369
497 0 71.4133 15.4733 1105 100.084 1047.22 487.201
498 0 72.2039 13.4619 972 105.377 1046.06 483.95
499 0 75.4144 13.2999 1003 104.984 1046.46 482.646
500 0 78.4019 13.6476 1070 104.735 1046.27 480.253
501 1 42.2591 11.8791 502 99.9044 1046.55 500.169
502 0 43.1487 12.5149 540 100.541 1047.23 497.941
503 0 44.0934 12.3601 545 100.901 1047.21 497.853
504 0 45.0781 12.4894 563 101.231 1047.6 496.043
505 0 47.0328 13.9477 656 98.4893 1049.82 494.172
506 0 49.013 12.7313 624 100.804 1052.47 496.83
507 0 52.1279 13.2559 691 99.9696 1054 495.893
508 0 52.0811 12.9606 675 101.388 1055.18 496.141
509 0 52.0811 13.0374 679 141.258 1057.16 496.097
510 0 55.0958 13.8123 761 101.472 1056.84 495.44
511 0 54.0338 13.251 716 103.469 1056.38 495.651
512 0 59.161 13.4548 796 102.428 1057.4 495.023
513 0 61.1102 13.7947 843 102.548 1057.74 496.495
514 0 64.1133 14.178 909 102.851 1056.88 494.336
515 0 66.1013 14.508 959 103.388 1056 495.928
516 0 70.1233 14.3889 1009 104.863 1055.41 495.108
517 0 72.0937 14.6476 1056 106.402 1054.3 492.64
518 0 76.1511 14.1955 1081 105.614 1052.38 492.755
519 0 77.1495 14.1284 1090 106.26 1050.95 491.436
520 0 81.2159 13.8397 1124 106.769 1049.83 488.698
521 0 85.1517 14.6445 1247 104.581 1048.15 489.478
522 1 44.0723 11.4584 505 104.982 1046.81 507.743
523 0 45.0191 12.3059 554 102.625 1045.78 508.753
524 0 47.0574 12.2404 576 105.052 1044.8 505.648
525 0 48.039 12.6147 606 105.637 1044.91 504.111
526 0 49.1001 12.8106 629 105.486 1044.73 503.41
527 0 52.1214 15.0034 782 99.8504 1043.7 503.058
528 0 54.0704 13.39 724 102.61 1042.97 501.162
529 0 56.0642 14.5726 817 100.728 1042.69 499.45
530 0 55.057 13.931 767 103.464 1043.35 497.207
531 0 57.1208 12.6574 723 105.581 1043.85 496.87
532 0 61.3038 12.7888 784 104.064 1043.98 497.256
533 0 63.0912 13.1556 830 102.888 1044.74 495.78
534 0 64.08 14.2478 913 102.25 1047.16 494.428
535 0 67.0503 15.1081 1013 99.7848 1048.8 492.486
536 0 68.0447 13.9467 949 102.314 1050.7 493.45
537 1 36.075 11.2543 406 101.155 1051.57 510.384
538 0 37.0352 12.6906 470 100.685 1052.75 509.472
539 0 39.0383 12.8848 503 100.483 1053.99 511.101
540 0 42.0906 13.9699 588 99.8316 1054.35 511.483
541 0 42.0103 12.7826 537 104.73 1054.8 512.777
542 0 43.0494 14.3091 616 103.445 1052.62 511.372
543 0 44.0983 13.4699 594 106.473 1052.26 511.429
544 0 46.1821 14.4212 666 104.616 1051.66 512.725
545 0 49.0998 12.4848 613 109.007 1049.7 511.664
546 0 54.0607 15.3346 829 102.152 1047.97 511.604
547 0 53.068 13.266 704 108.074 1046.8 510.268
548 0 53.08 14.431 766 108.554 1045.78 508.825
549 0 57.0548 14.1794 809 107.711 1044.22 507.494
550 0 59.0713 13.2382 782 110.55 1043.34 504.129
551 0 61.1274 14.2326 870 109.813 1042.41 501.985
552 0 63.1831 13.6271 861 110.053 1040.12 500.07
553 0 67.1388 14.6413 983 107.974 1040.15 497.047
554 1 36.1289 10.8224 391 108.008 1040.66 512.105
555 0 39.1484 11.9545 468 108.177 1040.29 509.327
556 0 39.2565 12.8387 504 106.536 1040.18 507.635
557 0 40.1725 12.5957 506 108.125 1040.89 504.704
558 0 41.2445 12.9472 534 107.107 1041.3 503.521
559 0 40.0853 11.7499 471 112.709 1041.72 502.234
560 0 43.1884 13.5453 585 107.055 1041.96 501.838
561 0 43.2571 12.1367 525 111.238 1042.98 499.739
562 0 46.0809 12.847 592 110.064 1044.18 498.647
563 0 47.1073 13.0341 614 109.267 1044.73 498.319
564 0 49.252 12.3853 610 110.008 1047.12 499.475
565 0 50.1493 13.2205 663 109.757 1048.99 497.982
566 0 52.3973 13.5885 712 109.676 1051.76 497.924
567 0 55.2512 13.5925 751 109.206 1052.69 497.281
568 0 56.497 12.921 730 110.575 1053.9 497.812
569 0 58.3249 13.3734 780 110.667 1053.8 497.7
570 0 59.115 14.1588 837 109.82 1053.97 498.925
571 0 61.2135 13.2977 814 111.386 1053.7 498
572 0 67.2054 14.3441 964 108.301 1052.79 497.098
573 0 68.242 14.7123 1004 107.737 1052.39 497.597
574 0 70.2622 14.5028 1019 108.639 1052.29 496.147
575 0 71.2542 13.0519 930 111.543 1051.51 496.023
576 0 77.2985 14.1141 1091 107.931 1049.52 494.365
577 0 82.122 14.7464 1211 105.418 1046.81 492.581
578 0 84.1458 14.665 1234 105.748 1046 491.543
579 0 86.3348 14.4206 1245 106.293 1044.88 488.7
580 1 48.0673 12.0872 581 104.919 1044.07 507.651
581 0 51.1023 12.4652 637 102.998 1043.2 505.975
582 0 51.1292 11.7154 599 103.594 1042.8 505.82
583 0 52.254 12.9751 678 101.252 1042.23 502.752
584 0 53.0715 14.1507 751 100.093 1041.42 501.236
585 0 54.3065 12.8898 700 102.104 1041.48 500.487
586 0 54.155 12.1688 659 104.222 1041.8 499.396
587 0 58.1896 13.5591 789 101.099 1041.99 496.298
588 0 59.1908 13.1946 781 101.483 1042.16 494.907
589 0 61.3275 13.3871 821 102.161 1043.01 492.89
590 0 62.1902 13.925 866 101.51 1043.5 491.636
591 0 63.3703 12.8451 814 104.663 1044.1 490.644
592 0 67.2944 12.8985 868 104.838 1045.65 489.952
593 0 70.3747 12.9592 912 105.62 1048.26 490.579
594 0 74.3777 14.8163 1102 103.121 1050.98 487.76
595 0 76.1811 13.2185 1007 107.811 1053.05 487.61
596 0 76.1675 13.2471 1009 148.53 1055.04 487.665
597 1 43.0629 11.5877 499 105.603 1055.91 507.99
598 0 43.0689 10.6109 457 107.996 1056.65 509.527
599 0 44.0696 11.6861 515 109.179 1056.34 508.078
600 0 46.2766 13.2464 613 105.088 1055.12 508.666
601 0 51.1805 13.8529 709 103.794 1052.46 511.306
602 0 51.0891 12.9969 664 106.643 1052.44 513.492
603 0 52.0951 13.1298 684 109.129 1050.84 513.323
604 0 55.1826 12.8482 709 109.107 1048.95 511.561
605 0 57.1093 13.9557 797 105.542 1045.92 512.536
606 0 60.1 13.4942 811 106.557 1045.59 511.898
607 0 60.1 13.4942 811 151.599 1045.61 511.977
608 0 65.1381 13.8168 900 108.31 1043.68 510.686
609 1 36.1297 10.6837 386 107.298 1042.3 526.073
610 0 37.0566 11.7388 435 107.897 1041.68 523.952
611 0 38.1079 11.7299 447 109.597 1040.89 522.747
612 0 40.0353 12.7138 509 107.548 1039.55 521.499
613 0 41.0597 13.6143 559 107.125 1038.71 520.299
614 0 40.0664 12.3295 494 111.223 1037.94 519.174
615 0 43.1297 11.6857 504 112.464 1039.02 516.548
616 0 44.0563 12.7791 563 109.638 1037.97 515.016
617 0 47.1115 12.9692 611 108.403 1038.1 513.691
618 0 47.1056 12.7161 599 110.396 1038.76 512.087
619 0 48.1039 13.0343 627 112.459 1038.99 510.494
620 0 50.1853 14.0479 705 109.814 1040 509.572
621 0 51.1111 12.3065 629 115.014 1040.85 507.66
622 0 53.1907 13.4422 715 111.45 1043.29 508.615
623 0 54.1331 13.2451 717 114.121 1042.84 506.905
624 0 58.2365 13.5997 792 112.967 1044.83 506.389
625 0 59.2733 12.9063 765 114.275 1046.64 507.131
626 0 61.1828 13.9745 855 112.874 1046.19 505.147
627 1 35.0726 11.3194 397 111.635 1046.19 519
628 0 35.0748 11.0906 389 115.733 1046.38 516.576
629 0 39.0654 11.7751 460 111.191 1046.08 519.03
630 0 39.0775 11.7971 461 113.323 1044.4 521.013
631 0 41.1663 13.3604 550 109.605 1044.59 520.836
632 0 43.0761 12.6056 543 110.724 1043.17 521.383
633 0 41.122 11.1619 459 115.466 1041.95 523.194
634 0 46.0669 13.806 636 108.753 1042.32 522.157
635 0 48.1141 14.0084 674 108.042 1042.15 521.993
636 0 50.1459 12.663 635 111.342 1040.69 520.913
637 0 51.166 13.6028 696 108.476 1037.87 519.283
638 0 52.1359 14.5581 759 106.556 1036.45 516.835
639 0 53.1951 13.4599 716 109.101 1034.91 515.152
640 0 58.1649 13.9259 810 105.805 1034.82 513.878
641 0 58.1649 13.8743 807 144.843 1034.79 513.854
642 0 61.4147 14.801 909 105.118 1033.35 508.743
643 0 61.2876 14.3585 880 106.141 1033.17 507.408
644 0 64.2253 14.5581 935 105.991 1033.67 505.814
645 0 67.2089 13.8375 930 107.633 1034.46 503.449
646 0 69.2665 15.231 1055 106.041 1034.73 502.362
647 0 71.2311 14.5302 1035 107.605 1036.54 502.28
648 0 74.304 14.6964 1092 107.674 1037.95 499.44
649 0 75.1738 13.7947 1037 110.48 1039.06 498.578
650 1 40.0752 10.3306 414 109.896 1040.8 516.889
651 0 43.081 11.3275 488 109.551 1042.49 514.523
652 0 46.0265 12.2755 565 107.573 1043.87 515.389
653 0 46.0651 13.6546 629 105.146 1044.87 515.038
654 0 48.0289 13.1588 632 107.797 1045.75 513.984
655 0 51.1607 13.2719 679 106.292 1046.59 513.641
656 0 52.1726 14.337 748 105.393 1046.87 511.943
657 0 54.3035 13.001 706 107.714 1047.47 511.554
658 0 57.1158 12.711 726 106.752 1047.07 511.065
659 0 58.3986 12.4489 727 108.105 1046.83 510.303
660 0 62.118 14.2149 883 102.6 1045.74 510.968
661 0 64.3638 13.8743 893 103.7 1044.46 510.396
662 0 66.224 13.9979 927 103.655 1043.43 508.176
663 0 67.2777 12.0396 810 106.995 1041.62 506.364
664 1 35.1199 10.5638 371 103.935 1042.09 521.887
665 0 38.1536 8.36094 319 101.42 1040.76 522.627
666 0 39.129 10.2737 402 100.871 1039.18 519.279
667 0 42.1155 10.2575 432 100.713 1038.88 515.586
668 0 43.0813 10.6079 457 98.8271 1038.19 515.989
669 0 43.348 12.1574 527 99.4231 1038.08 511.159
670 0 45.1029 12.4604 562 95.9822 1037.76 512.434
671 0 48.1575 12.4799 601 96.025 1037.24 508.98
672 0 48.1351 12.2156 588 99.4218 1037.82 505.937
673 0 51.1932 13.1072 671 97.7064 1039.53 504.559
674 0 51.061 13.2391 676 99.503 1040.1 501.902
675 0 51.061 13.2195 675 137.225 1041.11 501.871
676 0 56.3458 14.3755 810 97.263 1041.14 500.272
677 0 56.2165 12.1673 684 101.475 1042.07 500.734
678 0 60.2088 14.2504 858 97.6888 1043.31 500.218
679 0 58.2723 11.9096 694 104.256 1045.01 497.873
680 0 62.3137 13.4802 840 100.623 1047.13 495.97
681 0 66.1638 14.8117 980 96.9582 1048.43 496.035
682 0 67.2307 13.2082 888 101.039 1050.58 494.546
683 0 70.44 14.4946 1021 98.1812 1051.19 494.167
684 0 75.3777 14.8054 1116 97.1846 1051.83 493.336
685 0 77.3098 13.9051 1075 99.1935 1052.72 493.741
686 1 40.2142 11.3393 456 99.0899 1052.7 513.059
687 0 41.0985 9.12442 375 102.995 1052.42 512.251
688 0 41.0218 9.48276 389 101.879 1051.92 512.746
689 0 45.1501 11.8715 536 97.4515 1051.3 511.683
690 0 47.0582 11.1564 525 98.5162 1050.2 512.166
691 0 48.2481 13.1197 633 95.4044 1048.57 509.167
692 0 51.1308 11.6955 598 98.0017 1048.19 509.617
693 0 51.2798 12.032 617 97.201 1047.09 506.476
694 0 54.2814 12.3615 671 97.0387 1045.62 504.249
695 0 57.2135 12.6194 722 96.3546 1043.24 500.964
696 0 59.2389 13.0826 775 96.2774 1042.37 499.796
697 0 61.3627 11.9454 733 98.3929 1041.48 498.186
698 0 63.2178 13.0343 824 97.0522 1041.47 495.973
699 0 66.2922 13.9986 928 96.7554 1042.05 493.03
700 0 69.2252 13.4922 934 98.2131 1042.37 492.396
701 0 68.2686 12.7584 871 101.17 1043.2 489.336
702 0 72.1613 13.6638 986 100.551 1043.86 486.984
703 0 75.2913 14.8224 1116 97.9668 1044.21 486.203
704 0 77.1539 14.5813 1125 98.8818 1045.46 485.973
705 0 79.1942 14.5465 1152 100.204 1045.92 484.382
706 0 82.3668 15.1517 1248 98.7548 1046.8 483.28
707 0 85.1707 14.923 1271 99.3367 1047.35 481.932
708 0 88.1173 15.1162 1332 100.441 1049.28 480.118
709 0 89.2337 13.4702 1202 104.488 1051.64 480.938
710 0 93.1887 15.4632 1441 102.008 1053.58 479.715
711 0 97.2659 16.7582 1630 100.792 1055.24 477.952
712 1 55.1289 13.151 725 101.857 1056.93 501.811
713 0 57.1311 12.4276 710 104.187 1057.9 502.586
714 0 60.0355 12.959 778 104.811 1058.38 501.131
715 0 62.0759 13.7412 853 103.946 1057.66 499.737
716 0 64.0722 14.6709 940 102.92 1055.61 500.824
717 0 66.1015 13.5398 895 106.165 1055.56 500.401
718 0 71.0871 14.7425 1048 104.378 1054.33 499.126
719 0 72.1139 13.7699 993 107.712 1052.19 497.662
720 0 76.2717 13.9239 1062 108.626 1051.34 493.858
721 0 81.1153 15.5211 1259 104.677 1050.27 493.218
722 1 44.0591 10.5994 467 102.529 1048.83 515.186
723 0 44.0405 11.1942 493 106.596 1046.31 509.164
724 0 46.1288 10.9693 506 105.439 1045.68 510.759
725 0 48.0129 13.7463 660 103.121 1045.21 506.08
726 0 49.0337 12.8687 631 105.83 1044.76 505.886
727 0 51.0291 12.5615 641 107.229 1044.04 502.115
728 0 53.0356 12.8404 681 106.888 1043.83 501.855
729 0 55.1184 13.6434 752 105.645 1042.11 500.327
730 0 56.0443 13.7391 770 107.226 1041.82 497.825
731 0 59.0594 14.0198 828 105.917 1041.91 496.942
732 0 58.0989 13.8557 805 107.41 1043.04 497.402
733 0 63.0734 14.2057 896 106.325 1043.06 495.885
734 0 64.1133 13.7257 880 108.338 1044.91 494.697
735 0 66.159 13.6489 903 110.081 1046.14 494.629
736 0 69.2242 13.8102 956 111.321 1048.18 492.798
737 1 39.0239 10.122 395 112.458 1048.95 509.096
738 0 36.0815 10.1991 368 113.636 1050.83 511.258
739 0 40.0434 12.5863 504 108.421 1052.44 510.883
740 0 41.0325 11.2838 463 113.97 1053.3 511.57
741 0 43.0505 12.9151 556 110.176 1053.47 512.538
742 0 43.0651 13.0268 561 111.857 1054.06 513.415
743 0 47.0551 13.0698 615 109.054 1053.48 514.842
744 0 51.0329 13.991 714 107.992 1052.41 513.749
745 0 53.0771 12.9246 686 109.538 1050.75 513.857
746 0 55.0245 14.0301 772 107.943 1048.76 512.931
747 0 55.1265 13.2241 729 109.204 1047.91 513.092
748 0 58.0945 14.1666 823 106.893 1045.16 511.299
749 0 61.0913 14.9939 916 103.928 1044.94 509.908
750 0 62.0777 13.0321 809 106.665 1043.75 508.749
751 0 66.0834 14.0277 927 103.219 1042.32 506.654
752 0 69.0501 14.0188 968 102.925 1040.21 503.905
753 0 72.0949 14.5503 1049 100.743 1038.4 500.131
754 1 37.025 9.93924 368 103.098 1037.49 516.921
755 0 39.0805 10.9774 429 103.671 1037.92 512.662
756 0 40.0087 10.8227 433 101.109 1038.11 513.538
757 0 41.0369 10.9414 449 101.987 1037.09 508.933
758 0 42.0915 11.6413 490 99.8714 1038.2 507.969
759 0 46.1939 12.6424 584 97.6455 1038.17 505.866
760 0 47.029 12.8006 602 98.51 1039.34 504.028
761 0 49.0804 12.3878 608 99.0757 1041.17 504.924
762 0 51.1237 12.9881 664 99.0136 1042.06 503.042
763 0 53.1107 12.8223 681 99.5815 1044.17 502.535
764 0 55.0457 12.3534 680 100.243 1045.65 502.654
765 0 57.2099 12.4804 714 102.087 1046.44 501.12
766 0 60.0556 14.0869 846 99.6667 1048.28 501.416
767 0 62.149 13.0171 809 103.183 1049.79 499.917
768 0 65.0811 13.5062 879 101.708 1050.99 499.709
769 0 66.0662 12.8356 848 104.816 1050.73 498.783
770 0 71.0938 13.9675 993 102.779 1051.21 498.618
771 1 37.0242 10.7767 399 105.825 1050.17 513.945
772 0 40.0308 10.8666 435 101.926 1050.01 516.547
773 0 41.1977 11.5783 477 104.214 1049.57 516.352
774 0 44.0494 11.2828 497 99.9598 1048.04 515.907
775 0 45.1065 12.8585 580 98.0172 1047.14 513.74
776 0 47.0974 12.3149 580 91.4931 1046.45 513.783
777 0 48.0672 13.3979 644 89.0404 1044.97 511.087
778 0 51.0338 14.0299 716 86.3589 1043.63 511.802
779 0 52.1364 13.2921 693 89.2973 1041.18 508.056
780 0 56.1235 13.3812 751 87.522 1040.4 506.18
781 0 57.1641 14.4846 828 85.965 1039.41 505.563
782 0 60.1428 13.9002 836 86.8959 1038.66 503.589
783 0 61.0831 12.6876 775 89.8529 1039.59 500.008
784 0 63.0378 13.135 828 89.2959 1040.46 499.158
785 0 66.1165 13.8543 916 88.0993 1039.99 497.926
786 0 69.2375 15.4829 1072 84.9534 1040.03 495.977
787 0 69.2104 14.1308 978 88.5757 1040.28 493.903
788 0 73.2002 13.5382 991 89.5177 1041.5 492.204
789 0 76.2655 16.141 1231 85.1405 1042.48 493.857
790 1 40.0707 10.1071 405 91.0617 1042.32 509.198
791 0 41.058 9.2552 380 91.5526 1044.66 511.203
792 0 43.0497 11.5448 497 89.6982 1046.62 510.125
793 0 46.0948 11.8235 545 90.1284 1049.45 510.251
794 0 45.0371 12.1677 548 92.208 1050.76 510.44
795 0 50.0468 13.2476 663 89.9065 1052.66 511.281
796 0 50.0866 12.8178 642 92.5156 1052.4 510.153
797 0 51.1318 11.1477 570 96.4053 1051.69 511.372
798 0 55.0882 14.8489 818 88.3998 1050.24 510.919
799 0 56.0735 12.5906 706 93.8045 1049.36 512.409
800 0 60.0502 13.955 838 91.4666 1048.28 510.94
801 0 62.224 14.0139 872 91.9851 1044.78 509.662
802 0 66.2163 12.4139 822 91.8528 1043.38 509.206
803 1 37.0817 11.1645 414 89.8961 1041.04 522.964
804 0 36.0533 10.0684 363 89.7576 1039.25 523.868
805 0 39.0297 10.5561 412 89.483 1037.45 521.75
806 0 39.0743 11.9516 467 87.424 1036.7 520.323
807 0 41.1167 12.6956 522 87.7854 1035.53 516.636
808 0 42.0512 12.2945 517 91.5803 1035.04 514.845
809 0 46.0995 13.037 601 89.827 1034.7 512.488
810 0 46.054 12.6156 581 91.6678 1035.26 510.565
811 0 48.0883 11.9988 577 93.1594 1035.06 508.747
812 0 49.0307 13.0939 642 92.514 1036.67 506.846
813 0 50.1207 12.011 602 95.0731 1037.35 504.522
814 0 52.2195 13.405 700 91.7386 1038.43 503.691
815 0 53.0363 11.5015 610 94.5066 1039.6 502.441
816 0 55.0749 12.5829 693 92.5411 1040.41 503.987
817 0 56.1001 13.6542 766 92.3721 1041.89 500.569
818 0 60.1448 15.2798 919 88.8672 1043.98 499.708
819 0 63.2003 14.1139 892 91.0202 1046.2 497.263
820 0 67.074 12.8515 862 92.6265 1048.47 499.075
821 1 35.0827 8.77927 308 95.6591 1048.68 513.646
822 0 35.0317 8.90622 312 92.6923 1048.96 516.221
823 0 37.0677 9.52311 353 91.9008 1050.33 516.215
824 0 39.0279 10.864 424 92.7665 1050.58 514.031
825 0 40.0674 12.5788 504 90.5278 1050.07 513.8
826 0 42.1057 11.7561 495 92.5576 1049.78 514.014
827 0 43.2037 11.6194 502 94.2809 1048.9 513.713
828 0 47.109 11.8873 560 93.4821 1047.69 513.65
829 0 46.0849 11.0014 507 95.7594 1045.73 512.972
830 0 48.1356 12.3609 595 94.0084 1043.84 510.091
831 0 50.0901 11.9984 601 93.1215 1042.2 508.504
832 0 55.1189 13.4981 744 89.5739 1041.37 508.077
833 0 54.2743 13.4502 730 90.026 1041.14 506.749
834 0 56.1321 12.6131 708 91.387 1040.09 505.311
835 0 59.1744 13.4856 798 89.381 1039.85 501.96
836 0 60.2249 13.0677 787 89.8844 1039.97 501.262
837 0 62.1899 13.9412 867 87.2411 1039.31 496.051
838 0 65.2101 13.2955 867 85.5859 1039.39 496.498
839 0 66.1278 13.4739 891 85.1886 1039.91 494.406
840 0 70.1924 14.2181 998 83.7224 1041.04 493.579
841 0 73.3882 12.9585 951 85.8297 1041.28 493.035
842 0 73.2053 11.898 871 88.0092 1042.2 491.425
843 0 76.3494 13.2156 1009 87.7324 1042.6 489.663
844 0 81.2591 14.263 1159 85.2951 1045.34 488.904
845 1 43.0408 10.0835 434 87.2281 1047.53 509.15
846 0 44.0346 12.6491 557 85.6679 1049.11 507.636
847 0 44.0346 12.6946 559 127.154 1052.14 507.657
848 0 46.0454 11.2932 520 90.025 1051.68 510.206
849 0 48.1211 12.1361 584 90.1421 1052.18 507.548
850 0 50.0488 12.4079 621 90.8792 1051.71 509.879
851 0 53.2431 12.9782 691 89.3936 1052.42 510.402
852 0 56.2404 11.6109 653 92.2358 1052.81 510.579
853 0 55.1706 12.8692 710 91.693 1051.09 511.687
854 0 60.1299 12.9886 781 89.8758 1048.65 511.816
855 0 63.1699 13.5982 859 87.7427 1046.41 509.398
856 0 66.2197 13.727 909 86.8394 1044.98 508.354
857 0 69.2209 13.5653 939 86.5612 1042.91 504.188
858 0 72.276 14.8182 1071 85.1438 1040.98 502.373
859 0 73.1436 14.0682 1029 85.6754 1038.76 500.415
860 0 76.2812 13.9615 1065 86.4986 1037.74 498.962
861 0 78.3373 13.2121 1035 87.4145 1036.54 498.484
862 1 45.1675 11.8227 534 85.3127 1037.54 513.084
863 0 45.0819 11.9117 537 85.7952 1036.41 511.864
864 0 45.0836 11.2901 509 86.9293 1036.15 511.059
865 0 48.0731 11.3369 545 88.5963 1036.25 508.165
866 0 51.1851 12.953 663 85.8462 1037.12 506.795
867 0 53.161 13.8824 738 84.1626 1037.88 505.612
868 0 54.1767 13.6959 742 83.3733 1038.43 502.919
869 0 57.0572 15.8788 906 79.6744 1039.98 500.422
870 0 57.1096 13.4478 768 84.3672 1041.31 501.814
871 0 58.2594 12.6675 738 86.4688 1041.25 501.743
872 0 62.1456 14.289 888 83.0732 1042.63 500.155
873 0 64.376 15.2852 984 82.5366 1044.69 499.966
874 0 67.1488 13.6265 915 87.2601 1045.7 498.74
875 0 69.2834 14.2603 988 85.1721 1046.06 498.531
876 0 74.3675 13.9443 1037 85.5188 1047.18 497.531
877 0 75.2159 13.5211 1017 87.3825 1048.15 495.876
878 0 81.263 15.6898 1275 85.1075 1048.47 494.654
879 0 83.5491 14.5184 1213 88.7214 1048.47 493.241
880 0 88.2486 15.5583 1373 86.5936 1048.76 492.521
881 0 91.2951 14.9844 1368 87.7822 1046.85 491.717
882 0 94.3562 14.5724 1375 88.3833 1044.9 489.437
883 1 47.0331 9.92918 467 91.0535 1043.87 512.54
884 0 49.1746 10.8999 536 88.153 1042.42 511.826
885 0 51.0725 11.2389 574 87.7875 1040.82 508.042
886 0 54.1376 11.7663 637 84.0345 1038.95 505.363
887 0 55.1192 13.5524 747 80.9116 1037.6 504.866
888 0 59.2933 13.4248 796 80.6193 1037.35 501.67
889 0 58.1191 13.2487 770 82.8857 1036.66 497.264
890 0 61.3647 14.0309 861 81.9593 1037.25 495.931
891 0 62.0982 12.2065 758 84.8087 1036.86 496.236
892 0 68.2269 12.9714 885 82.7412 1037.54 494.584
893 0 68.2087 12.5937 859 83.9802 1037.5 490.553
894 0 70.2194 13.999 983 81.6612 1038.34 489.104
895 0 76.2002 14.4882 1104 79.615 1038.33 488.158
896 0 75.2461 12.0405 906 85.5397 1040.57 483.754
897 0 78.3198 13.1257 1028 84.1936 1042.05 483.674
898 0 81.1576 13.1842 1070 84.8019 1044.07 481.122
899 1 45.063 11.4284 515 81.0175 1045.04 501.146
900 0 50.1638 10.4856 526 83.0684 1046.81 501.867
901 0 49.1639 9.09204 447 83.7964 1049.12 504.588
902 0 52.0804 10.0806 525 83.7295 1051.14 503.665
903 0 55.1204 11.9556 659 81.522 1052.85 502.077
904 0 56.3965 12.8199 723 81.2102 1053.38 503.012
905 0 59.2016 12.8544 761 81.2576 1053.65 503.557
906 0 61.4781 12.3784 761 82.2431 1053.42 504.728
907 0 63.355 12.643 801 82.9538 1052 503.838
908 0 67.368 12.9587 873 83.0115 1050.96 504.869
909 0 69.3101 12.913 895 84.1441 1048.51 503.897
910 0 73.4943 12.8173 942 83.5393 1045.67 502.33
911 0 77.2077 13.6256 1052 81.1179 1043.99 502.911
912 0 78.3932 12.8583 1008 82.6181 1042.2 497.917
913 1 42.2456 10.2969 435 82.3287 1041.37 518.071
914 0 44.2273 10.8756 481 83.0873 1040.77 515.204
915 0 43.1968 10.0702 435 85.5149 1039.69 511.924
916 0 47.0796 10.3654 488 85.1086 1039.45 510.605
917 0 47.1226 11.2048 528 85.0038 1039.2 509.549
918 0 49.1396 12.1694 598 85.4147 1039.51 506.906
919 0 52.2345 13.0948 684 81.7558 1040.12 506.289
920 0 53.0638 10.836 575 87.4557 1039.55 504.41
921 0 57.2763 12.9722 743 83.2934 1039.14 502.655
922 0 57.2411 12.788 732 84.6954 1039.85 501.571
923 0 57.1691 11.3698 650 86.7123 1040.37 502.425
924 0 60.2236 13.317 802 84.7244 1040.79 498.777
925 0 62.2753 13.344 831 84.5235 1041.42 499.367
926 0 64.2525 13.4003 861 84.0883 1043.16 501.043
927 0 66.3091 13.8292 917 84.8702 1044.83 498.388
928 1 34.0559 10.2185 348 84.3075 1047.32 516.391
929 0 35.094 12.4523 437 82.4348 1049.14 517.648
930 0 38.0883 9.89804 377 87.4721 1051.17 518
931 0 39.051 11.3185 442 86.3733 1050.66 518.41
932 0 40.028 10.7175 429 88.5385 1050.45 518.573
933 0 43.1133 12.989 560 86.1821 1049.9 517.702
934 0 43.0695 11.7484 506 89.913 1048.22 517.219
935 0 45.0812 13.021 587 87.5213 1045.92 517.685
936 0 47.134 12.7933 603 89.1575 1043.94 516.123
937 0 49.2287 12.3505 608 89.097 1041.85 513.742
938 0 52.1297 11.855 618 90.1748 1040.5 512.15
939 0 54.1369 14.1124 764 86.6243 1039.33 512.63
940 0 55.2082 12.8966 712 87.9382 1038.13 511.603
941 0 56.2583 12.4782 702 91.0114 1037.12 507.221
942 0 57.1293 12.3579 706 90.8159 1036.7 505.428
943 0 60.2184 14.8127 892 87.2007 1035.7 504.215
944 0 60.1623 12.7156 765 91.8902 1035.88 501.392
945 0 60.1317 12.6223 759 92.8037 1036.03 499.074
946 0 64.1437 12.6123 809 92.0161 1035.78 495.349
947 0 67.2557 13.9616 939 90.3642 1035.89 494.188
948 0 67.1935 13.2007 887 91.8703 1036.64 492.809
949 0 69.195 12.2263 846 94.2033 1037.87 489.728
950 0 73.3226 15.1659 1112 89.33 1038.64 486.231
951 0 77.4769 15.1916 1177 89.1071 1040.01 487
952 0 77.2465 12.7125 982 94.5305 1040.83 484.824
953 0 82.2129 13.611 1119 93.655 1043.83 485.971
954 0 83.1043 12.731 1058 96.6957 1045.03 486.274
955 1 46.0949 10.5652 487 94.5318 1048.16 506.121
956 0 47.069 10.5165 495 96.3677 1050.47 505.238
957 0 48.0447 10.9273 525 96.1333 1052.7 505.931
958 0 51.0293 13.2081 674 92.9481 1053.93 506.283
959 0 53.1564 12.8301 682 93.9032 1053.24 506.726
960 0 55.1434 13.3833 738 93.2195 1052.93 507.858
961 0 57.1231 13.4622 769 94.0689 1052.59 507.233
962 0 60.2074 12.9552 780 94.6038 1051.14 508.659
963 0 60.1615 13.5801 817 94.8446 1050.44 508.153
964 0 63.0809 13.2053 833 95.0984 1048.53 509.318
965 0 68.2372 13.966 953 94.2718 1046.35 505.822
966 0 68.1602 14.1285 963 95.0852 1044.15 503.591
967 0 72.1527 13.6516 985 96.2376 1042.5 501.489
968 0 73.1394 14.4792 1059 95.0614 1042.04 499.509
969 0 77.2173 13.1965 1019 96.4122 1040.73 500.458
970 0 79.2688 14.8861 1180 95.2 1039.28 495.707
971 0 79.1713 14.0329 1111 101.032 1039.25 491.534
972 0 80.1247 13.1919 1057 103.784 1040.19 490.978
973 1 43.0237 10.3199 444 104.295 1040.77 508.363
974 0 46.0137 12.3224 567 98.3474 1040.31 507.739
975 0 46.0277 11.4496 527 99.2694 1040.44 508.133
976 0 49.0286 12.9108 633 98.218 1040.94 505.706
977 0 48.0693 13.4181 645 99.9984 1041.17 503.484
978 0 52.0251 13.0322 678 98.5693 1041.68 503.795
979 0 51.0182 13.6226 695 98.5712 1043.03 504.036
980 0 51.0581 13.2986 679 99.8527 1045.21 503.281
981 0 56.0256 15.5643 872 93.3956 1046.9 503.489
982 0 56.0171 12.3534 692 100.168 1048.64 502.591
983 0 55.0433 12.8263 706 100.443 1049.91 503.582
984 0 56.0428 12.3834 694 102.125 1051.88 502.967
985 0 62.0954 15.0092 932 94.7124 1053.02 503.791
986 0 60.1113 13.1589 791 99.4842 1053.18 503.779
987 0 64.0629 13.0028 833 98.6555 1054.07 503.941
988 0 66.1998 13.2327 876 98.3345 1053.9 504.435
989 0 68.0928 13.4082 913 96.7087 1052.37 505.524
990 0 67.1021 12.5629 843 99.7011 1050.01 503.187
991 0 69.1059 13.3708 924 96.1981 1048.3 505.363
992 0 71.1784 13.2203 941 95.2922 1047.15 504.437
993 0 71.2518 13.0383 929 96.2788 1045.98 503.206
994 0 69.1006 12.8219 886 96.7596 1044.33 500.84
995 0 72.101 13.8001 995 94.0462 1042.17 499.431
996 0 72.109 12.5504 905 95.3425 1040.69 500.245
997 0 72.1221 13.5603 978 93.6667 1041.21 499.126
998 1 38.0312 10.281 391 93.8849 1041.31 514.35
999 0 42.0611 11.3169 476 89.7164 1040.55 513.384
1000 0 38.0485 11.4853 437 93.151 1040.49 508.817
1001 0 40.081 11.1524 447 90.7226 1040.76 510.689
1002 0 39.0648 11.9289 466 90.7318 1040.62 507.972
1003 0 40.0831 11.8005 473 88.9662 1040.54 508.662
1004 0 41.1913 13.3038 548 86.6387 1041.85 507.551
1005 0 40.1127 12.1408 487 88.8337 1042.72 507.517
1006 0 40.1013 12.0694 484 88.7996 1044.46 506.814
1007 0 41.1455 11.7388 483 87.4099 1045.16 508.226
