time division length width area intensity CMx CMy
0 0 40.075 15.9201 638 96.1959 1123.5 492.71
1 0 43.0921 16.6388 717 94.7155 1121.39 493.149
2 0 43.0184 18.2247 784 92.7207 1123.03 493.176
3 0 43.0184 18.3177 788 147.803 1123.02 493.179
4 0 43.2384 16.3512 707 98.7199 1123.36 489.308
5 0 44.0662 16.6114 732 98.541 1124.52 492.439
6 0 44.0364 17.2812 761 99.2313 1124.74 491.359
7 0 46.0715 16.0837 741 102.192 1123.78 489.834
8 0 47.0578 17.0216 801 99.5855 1123.84 489.243
9 0 47.0623 16.765 789 102.238 1123.8 489.51
10 0 49.0963 20.1848 991 91.5782 1122.79 488.846
11 0 48.047 17.358 834 102.406 1122.65 489.276
12 0 49.0194 16.6669 817 103.638 1122.71 487.958
13 0 51.3872 15.9962 822 103.561 1124.94 488.158
14 0 51.1858 17.8956 916 101.483 1124.13 486.511
15 0 54.1877 20.1153 1090 96.2853 1125.12 487.148
16 0 54.1261 18.8633 1021 98.7209 1123.58 486.193
17 0 57.1203 19.4502 1111 96.8884 1123.07 485.723
18 0 57.1472 18.986 1085 98.7318 1123.15 484.478
19 0 58.2465 19.7608 1151 97.0565 1123.56 483.632
20 0 61.0598 19.7839 1208 95.6018 1122.88 482.323
21 0 60.1542 15.7927 950 104.992 1123 482.404
22 0 64.1356 19.4432 1247 95.3232 1124.64 480.646
23 1 32.0299 9.80334 314 106.812 1125.38 499.373
24 0 33.0589 11.9181 394 106.299 1124.7 497.041
25 0 35.0188 10.9655 384 104.82 1125.97 497.081
26 0 36.0562 11.4266 412 103.888 1125.58 497.167
27 0 39.0252 12.4791 487 100.027 1125.23 498.002
28 0 39.0271 11.7354 458 103.177 1125.22 496.245
29 0 40.0075 14.4223 577 99.5043 1125.5 494.738
30 0 42.0344 13.9172 585 97.1009 1124.86 494.998
31 0 43.0357 14.4763 623 98.3451 1124.28 492.775
32 0 45.3599 13.6244 618 99.4547 1125.26 493.076
33 0 48.3233 16.3275 789 92.4411 1125.56 492.238
34 0 48.2158 16.3847 790 92.4278 1126.2 491.965
35 0 49.2413 15.4139 759 95.4598 1125.85 489.801
36 0 49.242 15.5964 768 95.9284 1125.85 489.514
37 0 53.2865 15.0132 800 95.0788 1126.68 489.849
38 0 51.1425 14.9582 765 96.3634 1127.36 489.699
39 0 58.3041 16.7227 975 89.5969 1127.49 489.998
40 0 54.0924 14.5492 787 98.3405 1127.13 487.912
41 0 57.1149 15.1274 864 95.6458 1127.34 489.029
42 0 59.1159 16.4085 970 94.2691 1127.11 486.078
43 0 61.0784 16.1432 986 94.4878 1127.48 485.361
44 0 63.1256 18.7404 1183 90.0237 1127.43 486.673
45 0 63.068 17.0926 1078 94.3302 1128.32 484.326
46 0 68.0661 19.5986 1334 89.3298 1128.08 484.955
47 0 70.1392 16.6669 1169 93.9512 1127.92 484.809
48 0 72.2398 16.5837 1198 95.7321 1127.88 482.57
49 0 74.0321 17.3573 1285 93.9113 1128.08 482.191
50 0 76.1206 17.0782 1300 94.2015 1128.14 481.274
51 0 76.1113 15.9766 1216 98.0255 1127.32 479.203
52 1 45.015 14.3064 644 95.0947 1127.07 497.582
53 0 42.0244 11.4695 482 99.2842 1126.55 498.824
54 0 45.0336 13.1679 593 96.2631 1126.66 497.782
55 0 48.3924 11.7167 567 95.5362 1126.65 499.085
56 0 47.1966 13.2637 626 99.492 1125.92 495.302
57 0 48.0794 13.4153 645 101.806 1127.05 491.631
58 0 51.0234 14.366 733 97.9673 1126.3 492.598
59 0 50.0677 15.3992 771 99.537 1126.37 490.323
60 0 53.0446 13.7243 728 101.93 1126.62 490.146
61 0 54.1486 14.1093 764 101.588 1126.84 487.696
62 0 57.1549 15.0468 860 98.4942 1127.05 489.42
63 0 58.0597 15.863 921 99.2041 1127.27 486.418
64 0 62.1418 16.8003 1044 97.3487 1127.48 485.983
65 0 62.082 15.7534 978 99.2413 1126.99 485.347
66 0 64.0752 15.5286 995 98.9719 1128.06 485.612
67 0 66.1526 14.9956 992 100.397 1127.98 483.741
68 0 70.1355 14.8142 1039 99.2878 1127.75 483.952
69 0 69.0861 13.3312 921 103.747 1128.34 482.846
70 0 71.1246 15.7751 1122 102.778 1126.29 479.858
71 0 77.0417 17.6268 1358 98.6392 1127.56 478.966
72 0 77.118 15.2234 1174 105.623 1127.28 477.738
73 0 78.2327 14.2524 1115 108.985 1126.75 476.224
74 0 82.2372 16.039 1319 105.284 1127.2 476.414
75 0 86.1047 17.6065 1516 102.441 1126.99 475.191
76 0 89.084 17.4218 1552 103.2 1128.53 474.677
77 1 50.0553 13.7648 689 103.92 1129.16 493.193
78 0 51.1343 11.9098 609 107.75 1129.49 492.036
79 0 51.0315 12.6589 646 109.237 1129.91 491.845
80 0 54.0622 13.1885 713 109.21 1130.04 492.363
81 0 57.149 16.8682 964 100.583 1130.28 492.89
82 0 55.0611 14.0571 774 110.827 1129.73 488.7
83 0 61.0971 15.6309 955 105.406 1129.28 488.794
84 0 62.1396 15.4974 963 106.83 1128.62 486.575
85 0 65.1575 14.3192 933 107.406 1128.43 486.818
86 0 67.1624 14.6511 984 107.77 1128.15 485.018
87 0 70.1121 15.0901 1058 107.051 1128.33 483.502
88 0 72.1989 14.8202 1070 108.469 1128.71 481.844
89 0 75.2363 14.5409 1094 106.591 1128.65 482.674
90 1 41.1176 13.0114 535 102.686 1128.36 497.733
91 0 42.1065 11.7559 495 103.727 1128.82 498.311
92 0 42.1144 11.5637 487 107.834 1128.53 496.554
93 0 44.2553 12.8798 570 105.856 1128.56 494.76
94 0 46.1269 13.051 602 106 1128.93 495.208
95 0 47.1929 15.4472 729 104.152 1128.99 492.258
96 0 48.0582 12.5681 604 109.293 1129.63 492.656
97 0 50.0193 13.4748 674 107.392 1129.49 491.674
98 0 49.1095 13.8466 680 107.197 1128.95 492.959
99 0 52.1262 14.0045 730 108.138 1129.65 490.704
100 0 55.1639 13.904 767 107.975 1131.08 491.133
101 0 56.0799 13.3203 747 108.87 1129.86 490.837
102 0 57.2268 13.8921 795 108.955 1130.24 489.405
103 0 59.305 13.4896 800 110.648 1129.78 488.138
104 0 61.2236 14.3245 877 109.412 1130.32 486.328
105 0 63.1536 14.3143 904 109.5 1130.36 486.625
106 0 65.2588 14.1897 926 110.545 1130.34 485.05
107 1 35.1876 11.936 420 106.212 1130.45 500.874
108 0 34.1564 11.5059 393 105.176 1131.13 502.684
109 0 35.0921 11.2846 396 107.556 1131.36 500.874
110 0 35.0931 10.2869 361 109.828 1131.13 502.199
111 0 36.0178 12.2162 440 105.632 1131.09 501.382
112 0 39.0731 11.3377 443 107.147 1131.09 500.984
113 0 40.1445 11.0351 443 109.194 1129.75 499.752
114 0 40.0733 12.9513 519 106.432 1129.57 498.821
115 0 43.1187 13.7759 594 103.682 1129.34 498.734
116 0 44.049 12.3499 544 107.358 1129.21 497.717
117 0 44.1109 12.4232 548 107.029 1129.2 499.142
118 0 45.1956 11.8596 536 108.91 1129.07 497.664
119 0 44.0452 11.9196 525 109.756 1128.85 497.29
120 0 49.2401 13.7896 679 104.143 1128.27 496.892
121 0 49.1371 13.5743 667 105.933 1128.32 494.831
122 0 50.2169 12.3863 622 107.74 1129.34 494.019
123 0 51.1761 12.0955 619 107.467 1128.83 493.486
124 0 51.2294 13.137 673 107.098 1128.11 493.04
125 0 53.2069 13.9831 744 105.651 1129 490.852
126 0 55.1746 14.4813 799 104.733 1128.71 489.874
127 0 56.2032 13.4156 754 106.362 1129.39 490.11
128 0 58.213 12.6604 737 108.834 1129.3 488.06
129 0 59.2953 11.5524 685 111.266 1128.61 487.714
130 0 61.3308 13.4679 826 109.022 1128.87 485.847
131 0 63.6732 12.9097 822 109.523 1129.07 486.173
132 0 66.2729 13.203 875 109.266 1129.47 484.97
133 1 37.1449 11.8724 441 106.667 1129.22 499.503
134 0 36.2839 10.2249 371 106.989 1129.76 500.496
135 0 39.2013 12.2955 482 104.763 1129.78 498.363
136 0 35.2559 9.95578 351 111.188 1129.58 500.131
137 0 38.1393 11.2745 430 109.891 1129.29 497.695
138 0 41.4552 11.3858 472 107.206 1130.25 500.144
139 0 42.2637 10.9787 464 109.815 1130.47 497.431
140 0 42.2214 11.8423 500 108.48 1130.46 498.85
141 0 42.2243 11.3915 481 109.279 1130.05 499.31
142 0 43.3398 12.252 531 109.296 1129.32 495.663
143 0 45.2185 12.6718 573 107.539 1129.4 496.407
144 0 47.2357 13.4644 636 105.503 1129.98 497.072
145 0 48.2854 13.006 628 107.127 1129.36 497.541
146 0 49.254 13.6842 674 105.613 1129.5 496.116
147 0 51.2118 12.5752 644 105.413 1128.26 497.002
148 0 51.2197 12.3781 634 107.905 1129.11 495.498
149 0 54.3317 12.847 698 106.254 1127.97 495.322
150 0 53.2227 12.3068 655 108.324 1128.04 491.173
151 0 58.2926 14.513 846 101.861 1128.15 492.173
152 0 59.1762 13.0627 773 104.364 1128.62 491.62
153 0 63.1941 14.8432 938 101.302 1128.13 489.054
154 0 64.2571 13.5549 871 103.243 1128.32 487.865
155 0 69.1825 13.4138 928 103.297 1128.07 487.033
156 1 35.0269 10.8203 379 100.984 1128.18 502.596
157 0 36.0385 10.1558 366 101.473 1128.46 502.639
158 0 37.089 11.5937 430 102.433 1127.78 499.358
159 0 39.0681 11.9791 468 100.348 1128.32 499.726
160 0 40.0576 10.9842 440 103.723 1128.21 498.177
161 0 42.0248 12.0167 505 101.299 1127.98 498.186
162 0 45.0561 12.7841 576 100.795 1128.09 496.63
163 0 43.2953 12.8882 558 102.812 1128.39 496.729
164 0 45.1252 12.3878 559 105.224 1129.15 496.238
165 0 47.2127 11.7553 555 105.995 1129.24 494.977
166 0 48.2936 14.329 692 101.494 1129.29 493.59
167 0 50.2588 14.6442 736 101.355 1130.16 494.258
168 0 50.4175 14.0626 709 104.19 1129.57 492.392
169 0 53.2032 14.548 774 102.159 1129.94 493.342
170 0 54.259 14.8362 805 102.707 1129.98 492.463
171 0 55.1942 14.0957 778 105.219 1130.06 493.005
172 0 57.2603 13.5871 778 106.317 1130.2 491.446
173 0 60.3165 14.9544 902 104.058 1130.06 491.761
174 0 61.2023 14.6726 898 105.189 1129.85 489.3
175 0 62.1577 13.3371 829 108.579 1129.21 490.117
176 0 66.2728 14.9383 990 105.029 1128.64 489.71
177 1 36.0346 11.2947 407 107.595 1129.21 503.182
178 0 36.0663 12.2829 443 107.135 1130.08 502.354
179 0 36.0663 12.2829 443 143.497 1131.11 502.368
180 0 36.0186 11.4108 411 109.204 1129.8 503.234
181 0 40.0799 13.6228 546 104.412 1128.73 502.551
182 0 40.0322 12.1402 486 108.829 1127.83 500.529
183 0 40.0745 12.6265 506 109.103 1128.01 498.905
184 0 40.1748 12.8439 516 107.083 1127.76 499.36
185 0 42.1933 13.4145 566 106.88 1127.31 497.293
186 0 46.0865 13.2577 611 105.092 1126.81 498.691
187 0 46.0543 13.6361 628 103.452 1126.38 499.481
188 0 48.0559 14.2958 687 103.889 1126.53 496.985
189 0 47.0531 12.8791 606 107.224 1126.28 496.924
190 0 50.1132 15.1856 761 101.833 1126.64 496.053
191 0 50.0424 15.2471 763 103.497 1125.87 493.439
192 0 53.0988 14.9909 796 102.725 1126.49 493.482
193 0 51.0563 13.632 696 106.582 1127.12 493.287
194 0 54.0579 13.2451 716 106.865 1126.57 493.413
195 0 57.1032 14.7627 843 104.327 1127.77 491.66
196 0 57.1471 14.1739 810 105.89 1127.43 491.005
197 0 60.1195 14.2383 856 106.258 1128.03 488.919
198 0 61.0875 13.5052 825 106.942 1128.16 489.88
199 0 65.2163 14.8736 970 104.554 1128.8 488.812
200 0 65.2194 12.343 805 108.488 1128.65 487.909
201 1 36.209 12.0688 437 104.696 1128.02 501.911
202 0 36.1481 11.5359 417 103.705 1128.23 502.597
203 0 35.3379 11.8853 420 103.062 1128.6 502.681
204 0 36.1989 12.5694 455 104.284 1128.84 501.934
205 0 38.3164 12.9449 496 102.363 1129.31 501.76
206 0 41.3126 13.2647 548 102.396 1128.78 500.374
207 0 42.1632 12.7837 539 103.219 1128.78 501.764
208 0 43.147 14.2768 616 101.287 1128.49 499.997
209 0 44.1696 13.7198 606 101.937 1128.21 499.985
210 0 46.155 13.9096 642 101.519 1128.63 500.41
211 0 46.2884 12.9622 600 104.478 1129.19 499.112
212 0 48.1987 12.7182 613 104.628 1128.32 499.45
213 0 50.1872 14.2666 716 101.892 1127.65 497.31
214 0 51.3603 11.8964 611 105.733 1128.06 496.933
215 0 52.1743 12.9757 677 104.388 1126.56 493.74
216 0 55.2062 14.2557 787 101.187 1126.07 495.375
217 0 56.1047 11.6211 652 104.517 1126.35 495.879
218 0 57.2287 12.8956 738 103.473 1125.97 493.617
219 0 61.1673 13.9127 851 100.942 1126.13 492.73
220 0 62.2706 13.7304 855 101.804 1125.5 490.295
221 0 65.2959 14.9014 973 100.211 1126.04 489.094
222 0 67.4184 14.0763 949 101.451 1125.8 488.308
223 0 70.2503 14.1352 993 100.66 1126.42 486.148
224 1 34.0408 8.9892 306 104.48 1126.63 502.497
225 0 35.0191 10.7656 377 102.411 1126.66 500.944
226 0 39.1287 12.165 476 98.2941 1127.3 501.454
227 0 39.048 13.573 530 98.0208 1127.3 499.815
228 0 40.0185 12.2693 491 100.914 1127.21 499.016
229 0 42.0796 13.8072 581 98.6248 1126.12 497.938
230 0 44.1054 13.5358 597 98.1457 1127.45 497.546
231 0 45.0988 14.3463 647 97.9784 1127.6 496.677
232 0 47.1243 14.7907 697 97.274 1128.55 494.954
233 0 47.0499 11.6047 546 103.125 1129.07 495.835
234 0 49.0748 15.1605 744 97.4462 1128.77 496.109
235 0 54.0756 16.5879 897 94.602 1128.86 494.698
236 0 54.246 13.0885 710 102.863 1128.77 493.423
237 0 56.2096 14.6594 824 100.038 1128.49 493.164
238 0 57.3023 15.0954 865 100.854 1128.74 492.576
239 0 59.0894 14.7235 870 102.685 1129.03 491.792
240 1 32.0085 12.0905 387 102.886 1129.22 505.171
241 0 33.0463 12.8002 423 102.418 1128.96 505.889
242 0 35.0368 11.6449 408 102.093 1128.12 506.446
243 0 34.0295 12.4304 423 103.991 1127.72 504.567
244 0 36.0867 12.5531 453 102.616 1127.35 505.294
245 0 37.045 11.8235 438 103.032 1127.56 504.724
246 0 41.0641 12.7849 525 100.261 1127.91 502.954
247 0 41.0585 13.0546 536 101.084 1127.91 502.974
248 0 41.3549 12.5499 519 102.603 1127.14 501.805
249 0 44.1229 15.2982 675 97.0652 1126.33 500.593
250 0 45.2723 13.6949 620 99.0726 1126.5 499.331
251 0 45.1571 12.8662 581 100.843 1127 500
252 0 45.1693 13.5048 610 100.779 1126.67 498.277
253 0 48.2783 16.7156 807 94.2751 1127.02 498.428
254 0 50.1738 15.0876 757 96.5997 1126.53 497.283
255 0 52.1536 15.9529 832 96.0709 1125.59 495.941
256 0 52.221 13.845 723 100.225 1126.48 494.808
257 0 55.2632 15.1095 835 96.9701 1126.17 493.559
258 0 57.3005 15.9685 915 95.2973 1126.47 493.807
259 0 57.2352 14.4666 828 98.8768 1126.49 490.739
260 0 60.102 14.2924 859 98.9243 1127.41 489.908
261 0 61.1377 15.3588 939 97.9766 1127.36 490
262 0 64.1442 15.4807 993 98.6375 1127.87 487.29
263 0 67.1634 16.1844 1087 96.8556 1128.18 487.336
264 0 69.1907 15.5512 1076 98.3178 1127.68 485.524
265 1 34.0182 10.2298 348 98.6264 1129.26 504.198
266 0 34.037 10.4592 356 100.952 1128.7 502.868
267 0 35.0311 11.2757 395 98.7316 1129.66 503.478
268 0 38.0665 11.6638 444 98.3176 1129.83 503.793
269 0 39.0627 13.8495 541 95.0388 1130.2 502.035
270 0 41.0309 14.0382 576 95.0972 1129.97 503.033
271 0 39.0823 13.3564 522 98.2184 1129.68 502.799
272 0 41.1357 11.9118 490 101.169 1129.82 502.953
273 0 43.1299 12.7754 551 100.599 1129.7 500.918
274 0 44.134 13.2778 586 97.9829 1129.14 502.894
275 0 46.2015 13.9822 646 96.8731 1129.89 502.519
276 0 46.2688 13.2054 611 99.7349 1128.44 502.545
277 0 48.0558 13.2971 639 99.9296 1129.02 499.889
278 0 49.0996 13.8087 678 98.1372 1128.01 499.538
279 0 51.0415 13.0874 668 98.9955 1128.02 498.898
280 0 51.0991 12.7008 649 99.1156 1127.31 500.302
281 0 54.1682 14.1227 765 98.4549 1126.92 496.463
282 0 54.13 12.7286 689 100.107 1126.5 497.47
283 0 55.0495 13.3879 737 100.693 1126.43 496.001
284 0 58.1141 13.9381 810 99.863 1125.97 496.381
285 0 60.1388 15.6471 941 98.1286 1126.1 492.452
286 0 61.2867 14.3261 878 101.064 1126.63 492.05
287 0 59.1789 13.5014 799 103.178 1127.03 492.124
288 0 64.1988 14.1903 911 99.5225 1127.04 492.675
289 0 66.2732 13.0671 866 104.336 1126.63 489.209
290 0 65.2148 12.5125 816 106.343 1127.84 489.805
291 0 68.2779 11.7754 804 109.919 1127.48 487.28
292 0 70.2856 13.2744 933 107.319 1127.8 487.713
293 0 69.8096 13.3793 934 108.974 1127.5 486.108
294 0 70.615 14.6853 1037 109.168 1127.94 484.49
295 1 38.1747 12.4952 477 108.09 1129.06 502.254
296 0 39.1641 13.1243 514 106.494 1129.61 503.28
297 0 38.2525 13.437 514 109.903 1129.2 502.251
298 0 39.681 14.443 1743 119.895 1128.91 468.264
299 0 40.172 14.6156 1771 121.641 1130.07 466.168
300 0 41.727 16.2778 2014 119.92 1130.44 466.033
301 0 42.97 16.8929 2128 120.75 1130.18 465.43
302 0 43.892 13.9735 1843 122.939 1129.23 471.125
303 0 44.925 16.7613 2228 122.344 1128.4 465.121
304 0 45.334 16.6603 2388 120.598 1128.86 461.461
305 0 46.114 15.3923 2326 120.515 1128.37 459.733
306 0 47.482 16.5427 1960 122.017 1128.27 469.184
307 0 48.042 18.0914 2226 119.576 1127.99 471.024
308 0 51.113 17.8319 2231 122.015 1127.77 470.047
309 0 54.5844 13.2822 725 119.625 1128.06 499.099
310 0 58.7485 15.0132 882 117.577 1127.35 498.817
311 0 60.5215 14.1603 857 120.804 1127.39 498.356
312 1 31.1399 13.1343 409 120.445 1127.27 509.807
313 0 33.1406 13.8501 459 117.144 1127.21 509.235
314 0 34.1299 15.148 517 116.7 1126.36 506.176
315 0 35.0162 13.3367 467 120.475 1125.45 506.542
316 0 35.0881 13.5658 476 122.895 1125.7 506.324
317 0 38.0717 15.9699 608 118.888 1125.9 504.13
318 0 38.3303 14.1924 544 120.862 1125.37 505.116
319 0 40.0968 15.263 612 119.56 1125.21 502.799
320 0 39.1341 15.9196 623 121.18 1125.23 501.324
321 0 40.1329 15.2494 612 123.474 1126 501.178
322 0 43.1159 14.7973 638 121.107 1126.71 502.287
323 0 43.0561 14.1676 610 123.07 1127.81 501.211
324 0 44.3477 15.2883 678 123.808 1126.77 499.392
325 0 45.1272 14.9356 674 125.591 1127.67 499.527
326 0 46.2555 15.0685 697 127.585 1127.82 498.706
327 0 50.3207 14.3082 720 127.51 1127.95 498.492
328 0 50.3429 15.3547 773 128.838 1128.43 495.838
329 0 52.2365 15.5447 812 127.613 1129.82 494.585
330 0 55.2471 15.5845 861 126.237 1129.41 495.376
331 0 57.2469 15.4594 885 127.734 1130.79 495.702
332 0 58.2126 16.9723 988 125.513 1130.03 495.539
333 0 59.211 16.0781 952 130.057 1130.37 495.434
334 0 63.2663 16.0433 1015 128.39 1130.34 494.509
335 0 62.2308 14.9604 931 133.857 1130.66 493.849
336 1 35.027 13.5895 476 127.092 1130.63 509.036
337 0 34.022 13.3443 454 132.236 1129.99 507.976
338 0 36.0754 14.442 521 128.056 1129.11 508.701
339 0 35.1757 13.7595 484 132.215 1128.14 507.864
340 0 37.0703 14.7288 546 131.011 1128.58 506.59
341 0 40.0563 15.3284 614 127.617 1126.72 505.598
342 0 39.0823 14.1496 553 131.526 1127.31 505.872
343 0 42.082 15.6837 660 126.47 1127.03 505.55
344 0 42.2106 15.9202 672 128.906 1127.06 503.082
345 0 44.1114 15.6876 692 128.981 1126.58 502.504
346 0 45.0225 15.6366 704 129.759 1126.42 501.663
347 0 46.1064 15.5076 715 131.27 1126.22 499.655
348 0 49.0708 15.0802 740 129 1126.79 500.954
349 0 52.1555 15.4729 807 129.107 1124.96 496.976
350 0 52.1069 16.0823 838 128.18 1124.74 496.87
351 0 52.1153 16.5786 864 128.162 1125.39 495.398
352 0 56.0644 15.0363 843 130.4 1126.03 494.896
353 0 57.055 17.1939 981 128.497 1126.38 491.294
354 0 59.1567 16.9719 1004 130.255 1126.42 490.89
355 0 63.1965 16.7731 1060 128.977 1127.32 491.84
356 0 63.1659 16.1004 1017 132.507 1128.4 490.627
357 0 66.0758 15.9665 1055 131.53 1128.87 489.177
358 0 65.2188 15.747 1027 133.428 1128.96 488.786
359 1 38.0353 12.1729 463 130.799 1130 505.497
360 0 37.0464 15.1162 560 131.654 1130.58 502.591
361 0 38.064 14.896 567 131.668 1131.15 503.374
362 0 39.1057 14.3713 562 135.043 1131.1 502.589
363 0 42.0416 15.1041 635 130.4 1131.58 504.191
364 0 43.0304 15.2683 657 131.691 1130.91 502.426
365 0 46.0499 15.9827 736 128.908 1131.25 503.359
366 0 45.0459 15.7173 708 132.038 1131.18 502.164
367 0 46.1128 15.6572 722 132.925 1130.73 502.011
368 0 49.0367 16.4163 805 128.014 1130.61 504.19
369 0 52.0473 15.851 825 129.598 1130.17 504.225
370 0 50.0553 15.6627 784 134.557 1129.75 501.17
371 0 55.1548 16.3902 904 130.871 1128.89 501.335
372 0 53.0437 14.9499 793 136.782 1128.28 500.28
373 0 57.0637 17.0161 971 132.945 1127.02 498.383
374 0 60.0523 16.3691 983 132.2 1126.53 496.947
375 0 60.0754 16.3961 985 134.645 1125.96 496.67
376 0 63.0738 15.9179 1004 134.709 1125.45 493.75
377 0 64.1759 15.3329 984 133.411 1125.21 494.668
378 1 35.0188 15.4203 540 128.644 1124.71 507.028
379 0 33.0266 14.1098 466 129.809 1126.19 508.077
380 0 36.1266 14.2831 516 130.498 1126.24 506.11
381 0 34.0369 13.0447 444 135.66 1126.46 505.437
382 0 37.1066 16.1966 601 127.962 1126.12 504.27
383 0 39.0405 15.7016 613 128.227 1125.74 503.499
384 0 40.035 16.8603 675 126.587 1126.51 502.631
385 0 41.0477 16.7853 689 126.808 1127.43 502.058
386 0 42.0706 15.7117 661 127.519 1128.43 502.387
387 0 43.0582 16.2571 700 129.364 1128.76 499.581
388 0 45.027 16.1459 727 128.662 1129.68 499.352
389 0 48.0668 16.7475 805 126.165 1129.91 499.453
390 0 48.0611 14.8977 716 131.282 1130.17 499.622
391 0 49.0634 16.4073 805 132.446 1131.17 497.549
392 0 54.1657 16.8188 911 128.069 1131.07 498.259
393 0 55.0443 17.0953 941 129.386 1131.48 497.844
394 0 56.0494 15.3793 862 132.423 1131.55 499.703
395 0 60.1509 17.3563 1044 130.305 1130.31 497.228
396 0 61.0477 16.61 1014 131.488 1130.97 499.108
397 0 63.1139 15.7968 997 135.272 1130.48 496.15
398 0 67.2484 16.848 1133 132.105 1129.88 496.959
399 0 66.123 16.2727 1076 135.732 1128.91 495.37
400 1 37.0878 15.7195 583 132.456 1128.98 509.472
401 0 41.0928 16.5966 682 125.556 1129.34 509.089
402 0 41.0433 16.6653 684 130.681 1128.55 509.197
403 0 39.0703 14.9474 584 140.469 1129.45 508.194
404 0 42.0495 16.5757 697 133.859 1128.85 506.197
405 0 43.1501 15.4577 667 135.822 1127.81 506.919
406 0 44.0321 15.8521 698 137.315 1126.52 503.871
407 0 45.185 16.3992 741 134.308 1126.57 502.957
408 0 47.2639 16.0588 759 135.344 1125.96 500.336
409 0 50.1439 16.0738 806 134.288 1125.66 500.135
410 0 51.2974 17.1938 882 133.391 1125.64 498.501
411 0 53.0752 16.5049 876 134.848 1125.49 497.916
412 0 52.119 16.1745 843 137.969 1125.48 496.716
413 0 55.0908 17.0809 941 134.162 1125.85 496.013
414 0 56.0968 15.7407 883 139.245 1125.75 493.222
415 0 60.1357 17.1279 1030 134.347 1126.65 494.16
416 0 61.0663 17.3418 1059 137.773 1127.8 492.44
417 0 63.0857 16.4221 1036 139.645 1127.9 491.727
418 0 66.1073 16.7758 1109 138.983 1128.85 490.853
419 0 70.0923 17.4912 1226 136.308 1129.31 490.239
420 0 71.0656 16.1682 1149 140.032 1129.77 489.949
421 1 33.028 15.8653 524 140.765 1131.06 505.006
422 0 35.1237 15.5451 546 139.516 1131.25 505.731
423 0 35.1734 15.4378 543 143.674 1131.85 505.775
424 0 38.0852 16.253 619 140.234 1131.61 506.393
425 0 39.035 15.7807 616 139.938 1131.53 507.125
426 0 38.0652 16.3141 621 141.686 1131.6 507.3
427 0 44.0564 16.0249 706 138.432 1130.71 507.102
428 0 42.0246 14.3963 605 141.521 1130.74 508.496
429 0 46.0636 17.1719 791 135.116 1129.61 507.177
430 0 46.0448 16.788 773 138.352 1128.79 505.921
431 0 46.1631 16.68 770 140.488 1127.98 505.247
432 0 49.0669 17.8328 875 139.323 1127.15 504.359
433 0 52.0802 17.6459 919 137.182 1126.56 502.951
434 0 52.1725 18.0172 940 138.563 1125.71 502.101
435 0 55.0614 17.5077 964 139.512 1125.97 500.861
436 0 55.1146 18.0714 996 141.362 1125.31 497.19
437 0 57.067 17.2955 987 143.746 1125.22 495.984
438 0 60.16 18.4009 1107 140.955 1124.34 495.759
439 0 62.0536 16.9692 1053 145.568 1124.59 493.702
440 0 64.0506 16.7836 1075 145.249 1124.01 493.175
441 0 64.1706 16.5185 1060 146.996 1123.96 491.816
442 0 68.2165 18.4853 1261 144.029 1123.67 490.059
443 0 70.0631 17.9695 1259 145.544 1124.71 488.233
444 1 35.0486 15.6354 548 145.515 1125.21 503.622
445 0 34.2684 15.5537 533 145.968 1126.11 504.341
446 0 36.1233 17.1911 621 143.945 1126.87 503.275
447 0 39.0865 15.4017 602 147.319 1127.87 502.729
448 0 40.1501 17.2602 693 145.27 1129.59 502.483
449 0 40.0548 16.4774 660 147.941 1130.22 502.573
450 0 42.0646 17.1878 723 148.669 1131.46 500.454
451 0 44.0624 16.8398 742 147.787 1131.75 502.247
452 0 46.3703 16.6917 774 147.305 1132.48 502.119
453 0 47.0458 15.6231 735 150.712 1132.83 501.193
454 0 48.0963 17.5065 842 145.239 1132.11 502.903
455 0 51.0445 16.3191 833 150.28 1131.82 502.194
456 0 51.0964 15.8132 808 150.136 1131.52 501.923
457 0 54.0595 16.5558 895 147.962 1130.53 500.804
458 0 55.0941 16.9347 933 148.465 1129.96 500.951
459 0 58.0944 18.0052 1046 144.624 1129.12 499.018
460 0 59.093 16.7871 992 145.633 1128.99 499.793
461 0 62.1944 17.0755 1062 146.984 1128.36 497.531
462 0 64.1609 16.3028 1046 148.465 1127.47 497.135
463 0 66.2789 16.2043 1074 147.759 1126.94 496.905
464 1 34.0314 13.752 468 144.671 1125.87 509.504
465 0 35.0246 15.0466 527 146.083 1126.17 507.423
466 0 38.1672 16.2967 622 141.037 1126.11 505.949
467 0 37.0558 15.0584 558 146.832 1125.77 505.86
468 0 37.0902 15.1792 563 149.883 1124.79 504.766
469 0 40.0771 15.6698 628 147.328 1123.97 501.764
470 0 39.0369 15.2676 596 150.56 1124.26 502.476
471 0 40.1073 15.7079 630 152.498 1124.83 501.392
472 0 43.0215 17.2704 743 151.196 1125.28 498.907
473 0 42.0476 16.3148 686 155.009 1126.09 499.424
474 0 47.0685 17.5489 826 150.404 1126.76 497.876
475 0 49.0433 16.0674 788 153.008 1127.21 497.297
476 0 50.0825 16.393 821 154.52 1127.51 497.664
477 0 50.0447 15.5061 776 156.531 1128.95 497.12
478 0 50.0167 15.7347 787 156.963 1129.53 496.882
479 0 53.1176 16.3787 870 156.59 1131.21 496.046
480 0 55.1112 16.8024 926 158.943 1131.68 496.407
481 0 56.0696 16.3547 917 162.486 1132.93 496.945
482 0 60.1283 17.8286 1072 158.854 1132.66 496.475
483 0 60.2084 18.2201 1097 161.433 1133.45 495.49
484 0 61.0944 16.2535 993 166.208 1133 497.531
485 0 67.166 16.3773 1100 162.923 1132.99 497.158
486 0 67.0804 15.5634 1044 167.079 1132.57 495.076
487 0 69.1102 17.0597 1179 166.445 1131.71 494.798
488 1 38.0466 15.7438 599 167.683 1131.2 509.604
489 0 40.0263 14.9902 600 165.57 1130.59 511.202
490 0 43.0549 15.8402 682 162.352 1129.2 509.16
491 0 40.0161 16.1935 648 167.31 1128.18 508.738
492 0 45.0573 16.2682 733 164.123 1126.78 506.296
493 0 46.0237 16.7522 771 166.388 1126.23 505.237
494 0 47.0277 16.4371 773 167.003 1125.56 502.486
495 0 49.0784 15.3428 753 167.588 1124.73 503.539
496 0 51.0345 16.2439 829 168.226 1124.36 500.136
497 0 53.0646 16.6778 885 166.114 1123.97 497.403
498 0 52.0426 15.4873 806 171.141 1123.83 497.5
499 0 56.1451 15.3531 862 169.273 1123.98 494.642
500 0 59.1168 16.1714 956 167.969 1124 491.648
501 0 60.0735 16.3799 984 165.878 1123.29 491.812
502 0 63.1148 16.066 1014 167.732 1124.43 490.209
503 1 27.0198 14.4339 390 169.069 1125 504.951
504 0 30.0375 13.0836 393 169.293 1125.83 504.346
505 0 32.0114 14.3386 459 164.749 1127.41 503.327
506 0 33.023 14.505 479 165.257 1129.08 504.205
507 0 34.1053 14.3966 491 166.212 1130.62 503.843
508 0 36.0269 14.9055 537 162.821 1131.93 504.376
509 0 34.0141 14.5528 495 168.428 1133.55 504.525
510 0 37.025 17.0155 630 161.348 1134.93 503.359
511 0 38.1918 14.6105 558 167.584 1134.74 505.66
512 0 39.1551 15.4258 604 168.652 1134.94 504.873
513 0 40.0673 15.0996 605 170.203 1134.96 506.547
514 0 43.0324 15.6161 672 166.359 1134.21 507.722
515 0 44.1675 16.528 730 166.023 1133.39 505.711
516 0 47.0755 15.7832 743 167.872 1133.26 506.649
517 0 46.0903 15.8168 729 168.937 1131.97 507.226
518 0 49.0516 15.7793 774 167.111 1130.14 505.926
519 0 52.1718 15.6023 814 162.703 1128.54 505.421
520 0 54.0842 16.4188 888 162.474 1127.43 502.986
521 0 57.2758 16.2372 930 160.995 1125.91 501.98
522 0 60.2324 16.1375 972 158.288 1125.22 500.876
523 1 28.0098 13.7809 386 159.746 1124.75 513.756
524 0 30.0213 14.8228 445 156.384 1123.43 512.796
525 0 31.0442 14.9142 463 155.352 1122.86 511.857
526 0 32.0757 15.0893 484 155.161 1121.8 511.058
527 0 34.0351 15.3959 524 154.708 1120.51 509.3
528 0 37.0397 15.7129 582 151.649 1119.3 508.112
529 0 36.0427 14.788 533 154.979 1119.3 508.829
530 0 37.0237 15.2065 563 154.43 1119.71 505.973
531 0 38.081 16.3073 621 151.29 1120.33 504.253
532 0 39.1214 15.3113 599 152.245 1120.91 505.594
533 0 42.0573 15.9069 669 148.732 1121.96 505.054
534 0 43.1121 16.6543 718 146.429 1123.87 504.387
535 0 43.1222 16.975 732 146.904 1125.83 503.398
536 0 46.081 16.2757 750 145.403 1127.5 503.975
537 0 47.0584 15.8526 746 147.622 1128.05 503.795
538 0 50.0644 16.6186 832 144.733 1128.97 503.968
539 0 52.2746 16.3942 857 146.429 1130.62 505.483
540 0 53.0532 17.228 914 146.977 1130.91 505.799
541 0 54.0732 14.9612 809 153.916 1130.81 507.053
542 0 57.106 17.9491 1025 145.99 1130.47 507.285
543 0 60.4086 17.0174 1028 148.006 1129.17 506.257
544 0 60.0599 15.7842 948 153.406 1128.65 507.416
545 0 65.3543 16.6477 1088 150.132 1127.1 506.23
546 1 32.0272 14.956 479 152.81 1125.07 519.649
547 0 32.0445 15.1976 487 154.554 1124.79 518.224
548 0 33.0333 15.3482 507 154.254 1123.68 517.118
549 0 36.0572 16.5293 596 147.829 1122.34 515.973
550 0 36.0522 14.9506 539 153.315 1120.9 514.518
551 0 39.1267 16.2038 634 147.675 1120.32 513.256
552 0 39.0448 15.0596 588 152.99 1119.47 512.156
553 0 42.0665 15.6894 660 147.762 1119.09 509.838
554 0 42.1638 16.8391 710 147.542 1118.87 507.061
555 0 44.1033 17.9805 793 144.398 1118.7 505.942
556 0 44.1512 16.3529 722 150.548 1117.98 503.326
557 0 47.0411 16.2624 765 158.046 1117.29 501.982
558 0 49.1677 16.5149 812 146.198 1117.59 500.11
559 0 50.0779 16.714 837 147.879 1118.48 497.834
560 0 49.103 16.3941 805 149.827 1119.14 498.034
561 0 54.2996 17.9928 977 143.741 1119.77 496.624
562 0 55.1004 16.6061 915 150.991 1121.27 494.386
563 0 54.2896 16.4488 893 154.076 1122.93 493.296
564 0 60.2181 17.5529 1057 147.394 1126.11 493.672
565 0 61.2128 17.1369 1049 147.728 1127.59 494.047
566 0 63.151 17.7353 1120 146.503 1129.73 492.364
567 0 65.1463 16.8851 1100 148.695 1131.25 494.049
568 0 70.137 17.9934 1262 143.529 1131.1 492.98
569 0 73.2552 17.7462 1300 143.718 1131.65 493.886
570 0 75.2994 16.7066 1258 147.799 1131.52 493.958
571 0 81.2783 18.4305 1498 141.025 1130.65 492.672
572 0 85.4491 18.3384 1567 142.077 1130.52 491.599
573 1 44.1281 16.724 738 148.343 1130.08 509.122
574 0 47.2834 16.454 778 144.719 1129.06 510.383
575 0 49.4257 18.3912 909 142.127 1127.7 509.49
576 0 52.2965 17.745 928 144.963 1126.51 507.774
577 0 53.2733 17.063 909 147.674 1125.57 507.385
578 0 55.2605 16.2865 900 148.498 1124.61 506.307
579 0 57.2477 17.0487 976 149.428 1122.59 503.121
580 0 60.3275 17.0072 1026 149.836 1121.37 502.099
581 0 59.3317 15.9948 949 154.066 1120.5 500.132
582 0 64.2311 17.2658 1109 148.137 1119.9 497.381
583 0 67.2866 17.2397 1160 145.659 1119.69 495.316
584 0 70.5531 18.1849 1283 143.622 1118.73 492.695
585 0 72.3844 16.5091 1195 149.092 1118.58 491.777
586 1 38.4816 13.9028 535 150.009 1119.56 506.74
587 0 38.384 13.0263 500 149.726 1120.11 506.226
588 0 41.1862 15.8791 654 141.278 1119.9 505.399
589 0 41.3753 15.5407 643 144.432 1120.64 504.037
590 0 44.2293 16.4371 727 138.84 1120.95 502.751
591 0 44.3286 16.107 714 142.777 1121.97 500.801
592 0 46.4807 16.1572 751 140.483 1123.81 501.137
593 0 50.2181 16.6275 835 137.673 1126.25 501.069
594 0 50.3723 15.8619 799 141.653 1128.47 500.534
595 0 51.2571 16.0563 823 139.439 1129.59 502.261
596 0 55.469 16.9824 942 135.175 1130.81 501.138
597 0 55.2394 15.9669 882 138.693 1132.29 501.566
598 0 57.2456 15.6868 898 141.535 1132.37 500.264
599 0 60.3794 16.3798 989 137.87 1133.08 502.678
600 0 63.2526 16.8531 1066 134.927 1132.98 503.015
601 0 64.1419 16.6506 1068 137.903 1130.08 504.334
602 0 69.1965 16.1858 1120 136.329 1129.61 505.47
603 0 70.3807 16.2971 1147 136.073 1128.44 505.707
604 0 72.1266 16.7206 1206 134.949 1127.32 504.525
605 0 76.2778 17.9607 1370 128.677 1124.02 504.861
606 0 78.2544 17.3409 1357 129.582 1122.57 503.419
607 0 80.433 17.0452 1371 130.217 1121.67 501.57
608 1 43.1185 15.0515 649 128.68 1120.93 521.14
609 0 45.1803 16.5559 748 127.612 1119.72 518.365
610 0 45.3136 15.0286 681 130.883 1117.92 518.542
611 0 46.1565 16.6607 769 128.421 1117.57 518.261
612 0 49.064 17.2428 846 129.975 1116.99 515.836
613 0 50.071 16.4766 825 132.028 1116.83 514.71
614 0 51.2775 16.7325 858 131.906 1116.08 512.689
615 0 54.1228 17.8853 968 126.849 1116.25 511.327
616 0 55.2194 18.019 995 125.338 1115.58 509.645
617 0 59.3212 16.6214 986 127.664 1116.33 506.053
618 0 60.3846 16.9745 1025 126.87 1115.76 504.68
619 0 62.0757 16.9954 1055 125.676 1115.77 505.003
620 0 65.2846 17.0944 1116 124.971 1117.53 502.211
621 0 67.2565 16.9798 1142 126.252 1118.01 500.455
622 0 69.1122 18.0576 1248 123.253 1119.58 500.805
623 0 72.232 17.3746 1255 125.594 1120.26 499.689
624 0 75.3893 18.305 1380 122.333 1122.33 498.802
625 0 78.4032 17.257 1353 124.831 1124.42 497.431
626 0 83.5595 17.9632 1501 123.807 1124.26 496.297
627 0 88.5346 18.6142 1648 122.422 1124.3 493.958
628 1 44.1513 14.3824 635 126.274 1125.04 514.729
629 0 45.0985 14.0359 633 127.265 1124.57 516.67
630 0 46.5509 14.7795 688 131.352 1122.78 516.546
631 0 52.4833 15.7764 828 125.056 1122.49 517.703
632 0 52.1863 16.1153 841 130.178 1121 515.916
633 0 56.5014 15.1147 854 128.797 1119.66 518.178
634 0 59.6741 16.9588 1012 126.001 1119.38 517.723
635 0 61.6499 16.5126 1018 130.374 1118.34 514.344
636 0 63.373 15.9216 1009 131.388 1117.14 513.742
637 0 66.3419 16.3547 1085 131.164 1114.89 512.009
638 0 69.4803 15.6879 1090 132.789 1114.3 509.538
639 1 35.2055 14.5148 511 126.616 1113.44 524.54
640 0 34.2102 13.6216 466 130.004 1112.89 523.146
641 0 37.1244 13.3066 494 130.49 1112.76 521.176
642 0 38.2401 14.8274 567 127.21 1112.28 519.82
643 0 38.2426 14.0681 538 128.92 1112 517.383
644 0 40.3081 14.2651 575 129.136 1111.79 515.717
645 0 43.1528 14.7615 637 125.743 1112.44 515.579
646 0 45.4843 15.1041 687 124.972 1112.78 513.917
647 0 46.7734 14.9016 697 126.121 1114.8 513.907
648 0 49.4908 14.9321 739 125.855 1116.02 511.877
649 0 49.6777 13.648 678 130.118 1117.41 512.273
650 0 52.3568 15.0888 790 127.6 1118.71 509.973
651 0 54.5699 13.7439 750 130.888 1120.22 508.573
652 0 57.6215 14.9597 862 129.111 1120.98 507.615
653 0 59.8067 14.5803 872 126.097 1122.01 508.203
654 0 60.6687 13.582 824 132.075 1123.42 508.524
655 0 63.3723 15.2275 965 129.304 1124.21 506.341
656 1 34.5017 12.5211 432 126.389 1124.22 521.396
657 0 33.4744 11.9494 400 130.07 1123.76 521.322
658 0 36.2158 12.6464 458 128.336 1123.56 521.668
659 0 35.3329 12.5379 443 133.921 1123.46 522.126
660 0 39.0507 13.2392 517 129.979 1121.66 521.224
661 0 40.235 12.9738 522 131.979 1121.36 521.268
662 0 42.3465 13.6257 577 131.198 1120.33 519.092
663 0 40.2463 12.3738 498 137.173 1118.98 519.365
664 0 42.3542 13.576 575 133.597 1118.01 518.543
665 0 44.4912 12.9689 577 132.18 1117.36 516.645
666 0 48.5344 12.7951 621 130.902 1116.44 514.444
667 0 47.588 13.8901 661 130.72 1115.76 512.8
668 0 49.528 12.8008 634 133.527 1116.16 512.219
669 0 50.7122 13.6653 693 134.561 1116.58 508.707
670 0 51.5004 13.7475 708 132.9 1116.19 508.124
671 0 55.7688 14.596 814 129.129 1115.29 506.186
672 0 56.4972 14.0892 796 133.849 1115.33 502.866
673 0 58.311 14.4227 841 134.402 1115.67 501.447
674 0 57.3967 12.7359 731 142.295 1115.54 500.546
675 0 59.4062 12.6418 751 142.664 1116.69 497.587
676 0 62.308 13.7863 859 138.955 1118 498.609
677 0 65.429 13.6331 892 140.691 1119.2 494.593
678 0 68.4345 13.9257 953 137.243 1120.71 493.078
679 1 37.2123 12.0928 450 127.54 1121.69 510.071
680 0 35.1699 10.9184 384 133.693 1124.25 510.07
681 0 38.1974 12.3569 472 126.775 1125.24 511.394
682 0 39.1636 13.916 545 124.833 1127.94 510.338
683 0 41.0982 12.385 509 127.635 1128.66 511.12
684 0 40.1826 12.9409 520 129.337 1130.11 510.908
685 0 43.2059 12.6372 546 131.073 1130.52 510.577
686 0 46.2011 14.0473 649 127.866 1130.92 512.217
687 0 47.0792 13.6154 641 131.253 1130.24 511.423
688 0 46.196 13.3994 619 134.945 1128.96 509.85
689 0 48.1464 13.9782 673 132.587 1128.29 510.04
690 0 52.1905 14.5046 757 129.303 1127.45 509.66
691 1 25.2368 10.8175 273 129.744 1126.47 522.586
692 0 29.0778 12.1742 354 128.941 1125.76 519.328
693 0 29.147 12.0081 350 128.64 1123.94 518.734
694 0 31.1483 11.7181 365 131.315 1122.94 517.003
695 0 34.0498 12.5111 426 126.441 1121.71 515.735
696 0 33.0939 12.2379 405 130.627 1120.91 513.432
697 0 34.1003 12.082 412 132.036 1119.62 511.646
698 0 37.3026 12.3316 460 127.854 1119.67 511.237
699 0 36.1722 12.9934 470 131.038 1119.03 508.26
700 0 37.149 12.9748 482 131.49 1119.72 506.699
701 0 39.1021 14.7563 577 125.939 1120.38 505.763
702 0 41.1411 14.7541 607 125.43 1121.66 503.86
703 0 39.1713 13.9133 545 130.473 1122.71 502.499
704 0 42.1738 14.3454 605 129.41 1123.29 501.886
705 0 43.1789 14.8452 641 127.242 1123.88 501.312
706 0 43.232 14.2256 615 130.247 1125.11 500.912
707 0 44.33 13.9183 617 130.063 1126.45 501.574
708 0 45.3473 13.8928 630 130.01 1128.47 501.062
709 0 45.1748 13.326 602 133.857 1130.82 500.522
710 0 48.5112 15.213 738 127.057 1132.72 501.352
711 0 48.3029 13.6224 658 131.38 1134.58 502.546
712 0 51.3453 14.0227 720 129.996 1135.59 502.111
713 0 53.5641 14.2446 763 130.587 1135.91 501.798
714 0 56.3418 14.412 812 129.24 1136.03 502.725
715 0 56.4314 13.8575 782 132.56 1135.62 501.407
716 1 30.1372 13.9362 420 130.15 1134.97 514.917
717 0 31.2963 12.3657 387 131.935 1134.04 516.447
718 0 33.1488 11.2523 373 137.126 1133.18 515.995
719 0 34.2919 14.3183 491 131.937 1131.53 515.884
720 0 33.2374 12.4257 413 137.69 1130.26 514.901
721 0 37.2163 15.289 569 130.83 1128.78 512.402
722 0 36.0577 14.0885 508 137.435 1126.62 511.886
723 0 38.1681 14.1741 541 136.412 1124.12 511.689
724 0 41.0531 15.2973 628 132.532 1123.81 510.744
725 0 42.0305 16.2025 681 132.004 1122.81 507.712
726 0 42.0609 15.3825 647 135.753 1122.33 506.924
727 0 43.0574 16.3967 706 135.224 1122.1 505.169
728 0 44.1232 14.4822 639 141.274 1121.1 503.454
729 0 46.2041 15.9293 736 135.179 1121.62 502.936
730 0 47.1012 16.1779 762 135.1 1122.07 501.224
731 0 49.2264 15.7233 774 135.615 1121.76 499.699
732 0 52.1797 15.7341 821 134.834 1121.13 498.432
733 0 55.2621 15.9422 881 133.941 1121.24 497.232
734 1 28.0974 11.6381 327 134.554 1123.43 510.765
735 0 27.1375 13.5237 367 133.444 1125.17 510.316
736 0 33.1726 13.9573 463 126.456 1126.59 510.516
737 0 31.1125 14.1422 440 131.484 1128.34 510.436
738 0 34.0557 14.5056 494 129.881 1129.61 511
739 0 36.0437 14.205 512 127.82 1131.5 511.92
740 0 35.0236 15.6181 547 128.689 1132.77 512.137
741 0 39.0334 15.0384 587 128.807 1133.58 512.32
742 0 39.0183 15.7362 614 130.528 1133.01 512.743
743 0 40.0818 14.3457 575 133.506 1131.68 514.292
744 0 43.0351 14.9413 643 131.128 1130.19 515.673
745 0 45.0949 14.1923 640 133.875 1128.04 515.295
746 0 48.065 14.3556 690 133.846 1126.26 514.657
747 0 50.0442 15.0867 755 131.821 1124.55 514.428
748 0 51.0136 14.1727 723 135.69 1123.85 512.468
749 0 55.078 15.124 833 131.687 1122.58 512.25
750 0 57.0558 14.9328 852 132.752 1120.05 509.31
751 0 56.2045 14.7675 830 133.226 1118.4 508.36
752 1 30.022 11.858 356 133.326 1117.75 519.817
753 0 32.0118 12.2143 391 131.315 1117.85 518.261
754 0 34.0569 13.4481 458 131.186 1116.66 514.921
755 0 36.0719 12.6691 457 128.886 1117.04 515.499
756 0 36.1294 12.8981 466 129.936 1116.85 513.337
757 0 37.0099 13.8341 512 126.635 1116.75 512.115
758 0 38.023 13.6233 518 127.483 1117.05 508.836
759 0 40.0789 14.172 568 125.583 1116.89 509.051
760 0 41.0234 14.7721 606 125.168 1117.96 506.13
761 0 42.1153 15.1251 637 124.214 1118.76 506.207
762 0 43.0433 14.7294 634 125.355 1120.93 505.35
763 0 45.0671 13.9126 627 125.654 1122.01 505.758
764 0 46.1085 15.1816 700 124.826 1123.84 504.164
765 0 46.2355 14.2964 661 128.433 1125.24 504.182
766 0 50.0595 14.3829 720 126.26 1127.73 505.953
767 0 51.0582 14.1603 723 127.296 1128.44 504.062
768 0 53.0533 14.231 755 125.682 1130.51 505.29
769 0 56.0952 14.4576 811 127.617 1129.71 503.7
770 0 59.1122 15.3099 905 126.358 1129.19 502.937
771 1 33.0683 10.6749 353 130.671 1129.29 516.822
772 0 37.0937 14.2342 528 123.706 1128.87 516.472
773 0 39.0691 14.4104 563 124.863 1127.72 517.19
774 0 40.0455 13.5596 543 124.799 1126.82 515.538
775 0 42.0381 14.582 613 114.555 1125.92 514.493
776 0 44.0329 15.125 666 111.434 1124.12 515.664
777 0 45.1284 14.4034 650 113.918 1122.88 512.898
778 0 47.18 16.0449 757 107.614 1120.93 513.885
779 0 47.1253 14.366 677 115.242 1119.23 511.038
780 0 51.1968 15.0986 773 112.668 1118.38 509.141
781 0 52.1549 14.9171 778 112.717 1117.62 507.17
782 0 55.35 16.5131 914 109.88 1117.26 504.461
783 0 57.3554 15.2906 877 112.507 1117.07 503.084
784 0 59.1962 15.9301 943 112.46 1117.38 499.327
785 0 63.31 13.8051 874 114.009 1116.86 500.649
786 0 64.0946 15.3679 985 113.837 1117.53 495.018
787 1 35.096 12.4516 437 114.169 1117.98 510.751
788 0 35.0502 13.067 458 113.937 1119.75 510.059
789 0 37.0242 12.2623 454 114.8 1120.66 510.269
790 0 40.0532 13.6818 548 112.814 1121.99 508.796
791 0 41.033 14.0375 576 112.953 1124.45 507.703
792 0 43.1491 14.6932 634 111.612 1125.4 508.427
793 0 46.329 15.1741 703 108.458 1127.46 510.152
794 0 49.2924 15.2356 751 108.766 1128.24 509.755
795 0 50.1634 15.7685 791 108.932 1128.52 508.631
796 0 52.1454 15.15 790 111.832 1129.14 509.386
797 0 56.1587 16.2575 913 108.366 1128.45 511.192
798 0 58.182 16.2937 948 109.554 1128.03 510.049
799 0 60.1214 15.2026 914 112.57 1126.75 512.284
800 0 64.2216 15.9292 1023 111.999 1125.27 511.287
801 0 67.0986 16.3938 1100 111.239 1123.32 510.555
802 0 69.1353 15.5348 1074 113.785 1122.13 507.045
803 1 40.0576 13.1311 526 115.933 1120.52 521.211
804 0 41.0494 13.9588 573 114.878 1118.22 518.606
805 0 43.1178 14.6807 633 112.329 1115.84 518.101
806 0 45.1716 16.1827 731 108.951 1115.2 516.204
807 0 47.0542 15.8966 748 112.067 1114.11 513.816
808 0 48.091 15.8034 760 116.638 1113.85 510.304
809 0 50.175 14.8082 743 117.867 1113.8 509.289
810 0 53.2425 16.4906 878 112.992 1113.96 506.544
811 0 53.0477 16.2118 860 115.899 1114.05 503.487
812 0 55.2275 15.7892 872 116.533 1114.91 502.423
813 0 56.1814 15.2008 854 119.088 1115.14 500.355
814 0 61.2259 16.8229 1030 111.519 1116.37 499.933
815 0 59.2497 16.0338 950 114.529 1117.63 498.029
816 0 65.0731 16.1511 1051 112.342 1118.36 496.533
817 0 65.2045 15.6431 1020 116.06 1119.65 496.111
818 0 67.121 15.8371 1063 116.114 1121.39 494.972
819 0 72.3563 16.6952 1208 111.802 1123.08 494.377
820 0 74.1502 16.5745 1229 112.923 1124.6 493.637
821 0 76.1391 15.8788 1209 115.702 1125.89 491.666
822 1 45.0238 14.1481 637 114.909 1127.37 510.757
823 0 45.1529 12.8895 582 115.935 1128.27 511.826
824 0 46.2374 13.993 647 115.447 1128.65 510.764
825 0 49.1669 15.6203 768 112.613 1127.42 509.544
826 0 53.2135 16.913 900 109.034 1126.5 510.206
827 0 55.1747 16.5474 913 108.261 1126.19 508.269
828 0 55.1545 14.9761 826 116.156 1124.88 507.538
829 0 59.1651 15.6173 924 113.728 1123.97 506.444
830 0 61.0781 18.2389 1114 108.842 1124.01 505.351
831 0 63.1184 15.6848 990 113.372 1121.99 503.681
832 0 66.0649 17.4071 1150 111.573 1119.97 500.953
833 0 69.1141 16.8562 1165 111.199 1119.19 499.518
834 0 72.098 16.0337 1156 113.922 1118.44 496.981
835 0 74.1603 15.4395 1145 114.794 1117.87 493.905
836 0 78.341 16.9643 1329 110.268 1117.89 490.991
837 0 83.2072 16.4409 1368 110 1117.3 488.785
838 1 44.073 12.5927 555 111.438 1118.09 506.676
839 0 45.1264 14.3596 648 106.34 1118.53 506.231
840 0 47.2423 15.3676 726 104.712 1119.06 505.887
841 0 47.2124 15.1655 716 107.628 1119.97 504.615
842 0 48.271 14.9986 724 108.957 1119.67 504.541
843 0 50.0441 14.727 737 110.369 1120.83 505.339
844 0 49.0487 14.9647 734 110.579 1123.37 504.94
845 0 51.1393 15.3698 786 109.701 1124.44 505.954
846 0 50.0648 15.5199 777 111.543 1126.13 504.323
847 0 53.0365 16.1964 859 107.515 1128.19 507.326
848 0 52.1387 16.2259 846 108.995 1128.78 506.452
849 0 52.039 15.277 795 112.727 1130.21 507.546
850 0 54.1242 15.834 857 111.023 1129.54 509.371
851 0 56.1383 17.1541 963 106.843 1129.65 510.977
852 0 56.0588 14.6453 821 112.353 1128.52 513.21
853 0 53.0975 14.2003 754 115.277 1127.27 513.488
854 0 55.0518 14.8042 815 112.713 1125.41 515.037
855 0 55.0853 14.4685 797 113.22 1123.32 513.691
856 0 55.0853 14.5592 802 177.944 1120.33 513.762
857 0 56.0361 15.1866 851 108.677 1119.84 511.035
858 0 56.2976 15.347 864 108.395 1118.97 511.426
859 0 57.1506 14.5755 833 108.059 1118.04 511.509
860 0 56.1478 15.4414 867 107.624 1116.38 509.998
861 0 56.067 14.3756 806 108.251 1116.29 509.545
862 0 57.2708 14.0386 804 107.439 1115.56 506.908
863 0 58.2379 16.4498 958 103.316 1115.25 505.049
864 0 56.2079 14.5353 817 107.395 1115.12 504.1
865 0 59.1181 17.3382 1025 102.252 1114.74 503
866 0 60.0568 15.452 928 105.952 1114.71 501.862
867 0 59.1546 14.5889 863 106.359 1115.52 501.99
868 0 59.1238 15.8988 940 100.778 1115.19 501.538
869 0 60.1004 16.8551 1013 97.2113 1116.51 502.355
870 0 60.1177 16.4012 986 98.6055 1117.96 500.073
871 0 60.0869 15.0116 902 100.509 1119.61 501.247
872 0 59.129 15.1533 896 100.729 1120.18 500.229
873 0 61.1083 16.2007 990 97.9273 1122 499.8
874 0 60.1451 16.2274 976 99.1547 1123.43 501.363
875 0 59.1362 14.8978 881 99.5301 1123.79 502.928
876 0 61.1942 16.9134 1035 95.2763 1125.29 502.521
877 0 60.1216 15.0029 902 98.2683 1126.24 504.486
878 0 62.1061 16.7455 1040 95.2923 1126.39 505.165
879 0 61.1865 16.2454 994 97.1268 1126.22 506.15
880 0 62.1386 14.9022 926 98.4114 1125.54 505.603
881 0 63.1561 15.9446 1007 96.7786 1123.94 506.452
882 0 62.1491 15.7846 981 97.3649 1122.9 503.266
883 0 61.2075 15.5863 954 96.5273 1121.52 507.628
884 0 63.1127 16.32 1030 93.8097 1120.6 504.953
