time division length width area intensity CMx CMy
0 0 43.3866 12.7459 553 127.42 1350.64 493.134
1 0 43.294 13.443 582 127.816 1349.38 492.978
2 0 44.0749 13.8855 612 124.703 1350.86 493.395
3 0 44.0749 13.7947 608 156.977 1351.86 493.398
4 0 46.1007 13.5573 625 124.538 1351.49 492.726
5 0 46.1247 13.2033 609 126.829 1352.84 491.488
6 0 46.1041 14.4889 668 124.377 1353.16 490.638
7 0 50.0913 16.8692 845 115.693 1352.21 490.641
8 0 49.0417 13.3764 656 125.433 1352.41 489.127
9 0 49.0635 15.2455 748 122.873 1351.9 489.131
10 0 52.1689 15.009 783 120.498 1351.69 489.179
11 0 53.1418 14.4707 769 123.296 1351 488.114
12 0 53.1108 15.0817 801 121.454 1351.62 489.014
13 0 53.2862 13.5682 723 124.663 1352.08 488.664
14 0 57.0656 14.1416 807 123.181 1352.22 486.214
15 0 58.1275 15.1735 882 119.649 1352.65 487.406
16 0 59.1475 16.0277 948 117.276 1351.08 485.393
17 0 61.122 16.0826 983 116.739 1350.81 484.801
18 0 61.1272 14.9852 916 120.221 1351.09 486.323
19 0 63.1896 14.0846 890 122.865 1350.92 484.442
20 0 64.1147 14.3649 921 120.685 1350.32 485.008
21 0 66.126 14.9563 989 118.323 1350.37 483.419
22 0 70.2273 15.5922 1095 113.928 1352.07 483.332
23 1 36.0904 12.441 449 117.02 1352.35 497.857
24 0 36.0959 9.91803 358 119.57 1351.33 499.274
25 0 36.1648 9.56731 346 118.341 1352.62 499.48
26 0 36.0273 11.4635 413 117.368 1353.03 498.404
27 0 39.1466 11.8784 465 116.957 1352.35 496.974
28 0 41.0871 12.6317 519 114.397 1352.22 496.324
29 0 40.0172 10.8703 435 117.683 1352.33 496.595
30 0 43.0331 13.0365 561 112.665 1352.44 494.795
31 0 44.1672 14.0376 620 113.144 1351.97 492.931
32 0 45.1678 13.6602 617 114.433 1352.67 492.658
33 0 46.1921 13.4006 619 111.577 1352.72 493.887
34 0 48.27 13.8181 667 111.103 1353.45 491.732
35 0 48.2086 12.9852 626 114.064 1353.42 491.54
36 0 51.1596 15.4419 790 108.689 1353.42 490.671
37 0 50.3485 15.3728 774 110.287 1354.16 489.997
38 0 52.2372 15.3913 804 108.907 1354.92 490.182
39 0 51.1754 13.4244 687 112.712 1354.78 490.057
40 0 53.1777 13.3515 710 114.472 1354.64 489.128
41 0 56.2932 13.554 763 112.375 1354.68 489.059
42 0 56.1789 14.8988 837 112.468 1354.47 487.358
43 0 58.3583 13.9997 817 112.29 1354.93 488.197
44 0 60.3384 14.4021 869 111.216 1354.58 488.124
45 0 64.3709 14.0592 905 111.07 1355.49 485.875
46 0 65.2908 15.7449 1028 109.076 1355.35 486.429
47 0 69.3689 15.4824 1074 107.188 1355.24 486.021
48 0 70.4297 14.5677 1026 110.101 1355.24 485.581
49 0 72.5111 14.5357 1054 109.772 1355.45 484.331
50 1 39.0575 10.8302 423 107.418 1355.73 500.246
51 0 41.1231 12.9854 534 104.502 1355.2 498.67
52 0 46.2084 16.339 755 95.9258 1355.32 499.276
53 0 43.1242 12.8002 552 105.136 1354.97 497.554
54 0 46.0846 13.9309 642 103.713 1355.21 496.449
55 0 49.0718 14.1425 694 101.99 1355.11 496.012
56 0 50.1412 12.4249 623 106.136 1354.35 494.91
57 0 54.0829 15.051 814 100.592 1354.65 493.345
58 0 52.1175 13.0858 682 107.204 1353.64 491.21
59 0 53.0463 12.8755 683 107.398 1353.81 491.13
60 0 56.1369 13.7699 773 105.921 1353.93 489.964
61 0 58.0817 13.3261 774 104.796 1354.39 490.463
62 0 63.0632 15.3972 971 101.934 1354.25 487.01
63 0 63.147 14.4266 911 103.488 1354.56 487.151
64 0 65.1414 14.9214 972 104.137 1354.93 484.676
65 0 68.1701 14.4198 983 104.359 1354.29 481.94
66 0 71.2205 15.6275 1113 100.542 1355.53 483.017
67 0 72.0602 14.7654 1064 102.167 1355.37 481.341
68 0 73.1138 15.387 1125 99.1964 1355.2 483.1
69 0 75.2029 13.1378 988 105.406 1355.84 479.849
70 0 80.0893 15.0832 1208 104.085 1353.78 476.372
71 1 40.064 12.4052 497 100.964 1355.36 497.022
72 0 42.0864 11.9516 503 102.4 1354.58 496.716
73 0 41.13 12.2781 505 104.689 1354.17 495.289
74 0 44.087 13.3373 588 101.49 1354.62 495.194
75 0 46.0956 12.9947 599 101.561 1354.3 496.067
76 0 46.0509 14.18 653 101.21 1355.99 495.902
77 0 49.0652 14.1648 695 100.475 1356.78 494.967
78 0 50.1266 14.3636 720 102.038 1357.07 492.892
79 0 50.103 14.2307 713 105.269 1357.48 491.811
80 0 54.0351 14.2685 771 104.304 1357.62 493.132
81 0 54.154 13.7386 744 107.56 1357.87 492.522
82 0 54.2832 14.3138 777 108.795 1357.58 491.894
83 0 56.1235 15.0561 845 108.942 1356.99 489.775
84 0 57.179 13.519 773 111.212 1356.18 491.292
85 0 62.2806 15.655 975 105.786 1355.96 488.772
86 0 63.2501 13.8498 876 109.643 1355.69 489.892
87 0 65.2733 15.7492 1028 108.172 1356.03 487.906
88 0 66.1942 14.669 971 112.25 1356.14 485.691
89 0 67.3872 14.246 960 112.849 1356.08 483.497
90 0 74.3537 16.1122 1198 106.407 1355.94 483.487
91 1 39.1681 11.3102 443 108.156 1356.25 500.158
92 0 41.2942 13.5128 558 109.491 1355.73 497.068
93 0 40.247 11.9015 479 113.033 1355.76 497.754
94 0 42.1763 12.9694 547 112.539 1356.28 496.631
95 0 45.1098 14.0768 635 109.167 1356.41 496.328
96 0 46.1764 13.9465 644 109.944 1356.62 495.134
97 0 46.0893 13.2352 610 110.393 1356.54 495.682
98 0 46.181 13.2955 614 112.143 1356.2 494.725
99 0 46.2123 12.7672 590 113.534 1356.97 494.61
100 0 47.2459 11.5142 544 116.188 1358.61 494.176
101 0 50.0634 13.6627 684 113.288 1358.35 492.054
102 0 51.138 13.3169 681 113.17 1358.5 492.498
103 0 55.0335 14.3731 791 109.865 1358.32 492.29
104 0 55.0908 13.7047 755 110.946 1358.71 491.164
105 0 57.0944 13.8017 788 111.115 1358.76 489.453
106 0 59.0496 13.3278 787 112.333 1358.65 489.526
107 0 62.0923 14.4301 896 110.018 1358.55 488.496
108 0 64.1167 14.7387 945 110.311 1359.11 486.936
109 0 64.1527 13.9043 892 111.115 1359.2 487.799
110 1 35.0397 12.7855 448 107.562 1359.06 501.475
111 0 37.0596 12.7092 471 107.352 1358.92 500.881
112 0 36.0318 10.2132 368 112.209 1358.9 502.764
113 0 39.1262 13.0348 510 109.792 1357.39 499.204
114 0 41.1836 12.6264 520 110.815 1357.46 499.969
115 0 43.1362 12.0085 518 112.226 1357.28 499.541
116 0 44.1182 14.2798 630 108.751 1357.3 499.01
117 0 45.1529 15.3257 692 107.728 1357.35 497.321
118 0 44.0717 12.7293 561 113.159 1356.99 497.071
119 0 48.133 14.8131 713 107.255 1356.79 497.588
120 0 49.2072 15.262 751 107.23 1355.99 494.972
121 0 50.3485 14.3996 725 108.84 1356.17 494.257
122 0 53.0981 14.1436 751 107.453 1357.02 493.38
123 0 51.2428 14.2069 728 109.402 1356.56 492.283
124 0 53.2071 14.7913 787 108.421 1355.63 492.138
125 0 57.284 14.1226 809 107.533 1356.53 492.21
126 0 58.2923 15.3022 892 106.513 1356.07 489.596
127 0 60.1915 15.2181 916 106.404 1356.92 489.317
128 0 63.309 15.1163 957 106.926 1356.87 488.013
129 0 64.2348 14.0267 901 109.866 1356.15 487.472
130 0 66.1942 15.4696 1024 106.933 1356.24 486.308
131 0 68.2274 14.6422 999 109.285 1356.38 484.013
132 0 70.1183 14.176 994 109.531 1356.82 484.147
133 0 73.2526 14.607 1070 109.794 1356.73 480.86
134 0 74.2187 14.2282 1056 108.027 1356.97 481.315
135 1 38.0629 11.7437 447 105.298 1357.45 498.658
136 0 40.0861 12.0241 482 105.272 1357.1 498.064
137 0 40.0847 13.4216 538 103.777 1357.04 497.323
138 0 43.082 12.9056 556 102.833 1358.06 498.031
139 0 43.1228 13.0325 562 102.941 1358.41 496.206
140 0 46.0825 13.8447 638 98.674 1358.43 498.596
141 0 46.1798 13.8589 640 99.8797 1357.91 497.486
142 0 46.1968 15.0876 697 100.062 1357.61 495.11
143 0 48.3498 14.1056 682 100.358 1357.33 496.088
144 0 48.2433 13.2246 638 101.723 1358.03 496.244
145 0 49.2073 14.3068 704 100.757 1357.25 494.902
146 0 52.17 14.3378 748 99.5348 1357.47 493.83
147 0 55.2397 14.772 816 98.473 1355.96 493.382
148 0 54.0473 13.6917 740 101.597 1356.87 493.073
149 0 58.2753 15.1865 885 97.8407 1355.66 493.186
150 0 59.2105 15.1493 897 98.6812 1355.9 490.059
151 0 63.2137 15.2498 964 95.9938 1355.74 491.69
152 0 64.0678 14.0632 901 99.9101 1356.25 488.818
153 0 66.2993 15.7166 1042 97.2265 1355.67 489.214
154 0 67.1771 15.1837 1020 99.1814 1355.89 485.07
155 0 70.2302 15.9476 1120 97.6348 1355.58 486.3
156 0 71.3229 13.6562 974 102.063 1354.48 484.516
157 1 36.0641 10.8418 391 97.3964 1354.9 502.939
158 0 33.0825 8.94732 296 103.074 1354.29 502.432
159 0 37.245 11.7331 437 100.558 1355.1 499.719
160 0 40.0588 13.5051 541 95.8078 1355.08 500.442
161 0 41.0478 12.6194 518 97.5096 1355.42 501.044
162 0 41.1284 13.0567 537 99.4953 1356.03 498.335
163 0 43.1028 14.5234 626 97.0128 1356.37 498.254
164 0 44.2188 15.1067 668 97.3713 1357.17 498.323
165 0 44.0748 13.4771 594 101.515 1356.98 495.867
166 0 47.1634 13.6971 646 100.432 1357.1 494.842
167 0 49.2208 13.6121 670 99.5896 1357.77 496.033
168 0 49.0689 13.8377 679 99.8527 1357.44 495.493
169 0 52.1377 14.0781 734 98.1826 1357.7 495.266
170 0 51.1208 13.6735 699 101.695 1357.4 494.001
171 0 54.0772 14.0355 759 101.726 1357.62 493.372
172 0 58.1472 13.1907 767 102.018 1357.75 493.773
173 0 58.1165 14.3849 836 102.368 1357.36 491.084
174 0 60.2022 14.0526 846 103.85 1357.18 489.422
175 0 61.1693 13.8632 848 105.054 1356.39 489.673
176 0 64.2921 15.0407 967 103.345 1355.92 489.456
177 0 70.1707 12.3698 868 107.532 1355.55 488.699
178 0 69.1249 15.0163 1038 104.735 1356.45 486.566
179 0 69.1249 15.0452 1040 148.292 1357.45 486.54
180 1 33.1166 11.6558 386 105.702 1356.79 504.801
181 0 38.1152 12.0949 461 103.492 1355.81 504.731
182 0 38.0829 12.8667 490 105.133 1355.06 503.171
183 0 37.0288 12.4768 462 107.303 1355.58 503.193
184 0 39.0649 13.4136 524 104.771 1355.29 503.048
185 0 41.056 13.4694 553 105.199 1355.06 502.074
186 0 45.0456 13.0756 589 105.025 1354.64 500.557
187 0 46.107 15.399 710 101.779 1354.29 500.354
188 0 45.1028 14.1898 640 106.817 1354.44 499.084
189 0 48.0989 14.6157 703 105.181 1354.13 498.3
190 0 50.158 15.3315 769 103.853 1354.6 496.466
191 0 49.15 14.3845 707 108.11 1353.74 495.594
192 0 52.0637 14.1749 738 109.94 1354.46 494.058
193 0 54.2914 13.7591 747 110.802 1355.15 492.692
194 0 57.1333 15.4376 882 107.92 1354.56 492.756
195 0 59.0891 13.725 811 112.704 1355.5 491.398
196 0 60.154 15.078 907 111.051 1355.23 490.885
197 0 63.0397 15.2602 962 111.456 1355.76 488.66
198 0 65.151 15.0573 981 112.13 1355.92 488.561
199 0 65.0722 15.2753 994 114.896 1356.51 486.691
200 0 68.2246 14.1445 965 117.515 1356.3 485.859
201 0 72.057 16.5702 1194 112.197 1356.08 485.553
202 0 74.2647 14.1251 1049 118.627 1355.66 484.947
203 1 39.1775 13.375 524 114.002 1356.7 502.7
204 0 38.2674 13.2228 506 118.733 1356.42 501.804
205 0 39.22 14.049 551 117.822 1356.97 500.956
206 0 43.2391 14.7089 636 114.759 1356.77 501.031
207 0 43.2618 14.7706 639 116.302 1356.53 501.518
208 0 43.2574 15.165 656 116.573 1356.4 500.812
209 0 44.3312 14.1886 629 119.73 1355.96 500.547
210 0 44.3803 14.7137 653 119.861 1356.18 500.795
211 0 46.2431 13.9913 647 122.306 1356.69 498.986
212 0 47.2995 14.3131 677 122.219 1355.92 500.168
213 0 49.1553 14.5254 714 121.409 1355.25 500.147
214 0 50.1725 15.1876 762 120.546 1355.35 498.535
215 0 52.128 15.8648 827 119.012 1354.33 496.053
216 0 56.457 15.4277 871 117.866 1353.69 497.033
217 0 55.278 13.8934 768 123.691 1353.58 495.491
218 0 58.3238 15.9969 933 117.902 1353.49 495.014
219 1 27.2653 11.5165 314 121.048 1353.92 508.965
220 0 28.2146 11.6252 328 122.726 1353.56 507.552
221 0 31.1607 12.8688 401 118.721 1353.97 505.85
222 0 33.1592 13.6915 454 116.465 1353.75 504.901
223 0 33.0897 13.9923 463 116.114 1354.55 504.998
224 0 34.0809 13.732 468 116.175 1353.86 505.436
225 0 36.2659 14.1731 514 114.745 1353.96 504.128
226 0 34.0956 12.8169 437 120.588 1354.7 503.865
227 0 36.1617 14.3522 519 117.62 1354.7 502.029
228 0 38.1149 13.5905 518 116.43 1354.51 503.098
229 0 38.1277 13.8744 529 119.73 1353.57 501.501
230 0 40.378 13.5717 548 117.04 1355.12 502.405
231 0 40.1538 13.0498 524 119.718 1355.17 500.664
232 0 39.434 13.4909 532 120.289 1356.23 500.573
233 0 43.1626 14.874 642 114.818 1356.43 500.377
234 0 42.1752 14.0841 594 118.503 1356.04 499.448
235 0 44.1831 13.8967 614 119.544 1356.27 499.191
236 0 44.3081 13.045 578 120.865 1356.56 499.132
237 0 46.1743 15.5498 718 116.883 1356.16 498.003
238 0 47.2496 14.18 670 119.964 1356.38 498.698
239 0 49.293 13.511 666 120.682 1356.7 498.988
240 0 51.7075 15.4136 797 116.138 1356.49 498.051
241 0 54.5806 14.1626 773 119.408 1356.23 496.215
242 0 55.5335 13.8475 769 119.195 1355.37 497.798
243 0 56.4744 14.3782 812 118.893 1354.92 496.121
244 1 29.1842 11.0334 322 116.634 1354.61 510.444
245 0 29.1396 10.913 318 114.066 1354.47 511.289
246 0 30.275 12.3864 375 116.352 1355.69 507.443
247 0 32.2504 13.3332 430 112.849 1355.63 508.151
248 0 32.2635 13.4207 433 115.896 1354.94 505.651
249 0 36.2215 13.5279 490 111.412 1353.73 506.653
250 0 36.3623 14.9056 542 106.734 1353.73 506.244
251 0 35.0994 13.0772 459 113.669 1354.23 505.434
252 0 35.169 12.4542 438 114.763 1353.99 504.336
253 0 39.2002 13.8265 542 110.574 1354.2 503.443
254 0 39.1879 13.7287 538 110.658 1353.63 502.773
255 0 40.1986 13.1348 528 113.975 1352.84 501.807
256 0 39.1878 12.5805 493 115.456 1353.47 500.227
257 0 40.1347 12.6574 508 113.907 1353.36 501
258 0 43.1874 14.7265 636 109.278 1353.7 501.991
259 0 44.8088 13.2563 594 110.468 1353.9 500.978
260 0 45.2723 13.8937 629 110.814 1354.5 498.868
261 0 48.3111 13.6201 658 112.085 1354.42 496.903
262 0 48.553 13.7582 668 112.469 1355.07 496.551
263 0 51.3456 13.5163 694 112.072 1355.37 495.859
264 0 52.2368 13.592 710 112.821 1354.76 495.114
265 0 53.3326 13.7439 733 113.58 1355.4 493.228
266 0 55.5922 15.6497 870 109.577 1355.01 493.829
267 0 55.5034 13.5667 753 115.12 1356.08 493.544
268 0 59.4882 14.6247 870 113.069 1356.18 493.363
269 0 62.3916 14.409 899 113.19 1356.61 492.514
270 1 32.2148 12.2925 396 112.169 1356.57 507.121
271 0 33.2714 11.3611 378 114.995 1356.5 506.524
272 0 35.2494 12.8229 452 113.956 1356.9 506.033
273 0 35.2199 11.9535 421 117.178 1356.63 506.905
274 0 36.1009 13.3515 482 115.154 1355.95 507.079
275 0 37.191 13.3635 497 117.219 1356.99 507.805
276 0 39.1413 13.8217 541 116.917 1355.67 507.919
277 0 39.109 14.9838 586 117.556 1356.27 506.032
278 0 41.1589 14.359 591 116.249 1355.21 504.613
279 0 39.1207 13.6501 534 121.742 1355.24 504.601
280 0 42.1112 14.1293 595 119.931 1354.5 503.896
281 0 46.0952 15.2076 701 116.545 1354.13 502.632
282 0 47.1222 15.4492 728 117.269 1353.59 500.868
283 0 48.2801 14.8716 718 118.429 1353.27 500.323
284 0 49.3064 14.1767 699 121.575 1352.7 500.209
285 0 51.4096 13.655 702 120.434 1352.97 498.833
286 0 53.3486 15.1269 807 117.941 1353.38 496.719
287 0 54.189 14.1911 769 120.367 1353.89 495.443
288 0 57.2503 14.9693 857 118.333 1354.09 494.107
289 0 58.4287 15.1295 884 119.229 1353.52 492.241
290 0 61.2591 15.7528 965 117.681 1354.87 492.109
291 0 62.5486 15.0603 942 119.631 1354.52 491.756
292 0 64.3404 14.8896 958 121.842 1354.65 487.906
293 0 65.2995 13.1241 857 126.754 1354.6 488.61
294 1 36.1657 13.2446 479 122.357 1355.18 501.716
295 0 39.1675 13.455 527 123.313 1355.68 500.693
296 0 39.0874 13.8408 541 121.706 1356.05 500.869
297 0 40.1078 15.8573 636 119.248 1355.79 499.8
298 0 42.2001 13.9573 589 123.696 1356.25 500.248
299 0 42.1053 14.7012 619 122.013 1357.43 499.603
300 0 45.2425 14.8312 671 121.07 1357.72 499.231
301 0 44.307 12.9099 572 128.061 1357.43 498.734
302 0 46.186 14.2467 658 124.637 1356.5 499.798
303 0 48.2916 13.6048 657 124.871 1355.72 500.492
304 0 50.1829 14.3475 720 122.882 1356.15 500.093
305 0 51.1464 14.3901 736 123.898 1355.75 499.061
306 0 55.196 14.4576 798 121.392 1355.67 499.769
307 0 54.1216 15.0587 815 122.434 1355.3 498.908
308 0 58.2386 15.6425 911 119.267 1355.14 497.633
309 0 58.3921 15.0534 879 122.865 1355.31 496.448
310 0 62.3069 14.7496 919 122.291 1354.69 494.146
311 0 62.3873 14.2497 889 124.47 1354.69 494.139
312 0 67.3576 15.2915 1030 122.466 1353.98 492.384
313 0 67.3468 13.8388 932 125.343 1354.29 491.593
314 1 35.1656 11.8866 418 124.17 1353.93 504.837
315 0 37.1884 12.5846 468 122.318 1353.25 504.308
316 0 38.1341 13.3476 509 121.063 1353.52 503.841
317 0 39.0371 13.0133 508 124.132 1353.86 502.726
318 0 40.0171 13.4692 539 125.377 1353.29 501.111
319 0 43.0651 14.5593 627 121.011 1353.12 499.434
320 0 45.1816 14.2979 646 120.659 1353.28 499.378
321 0 44.2115 13.933 616 123.765 1354.01 498.266
322 0 48.3168 15.2328 736 116.658 1354.74 498.882
323 0 48.2203 13.8323 667 122.432 1355.62 496.037
324 0 49.3135 13.2418 653 125.389 1354.7 495.103
325 0 53.3531 14.226 759 121.626 1355.58 495.159
326 0 53.2537 15.229 811 120.683 1355.49 494.285
327 0 56.1642 14.1015 792 121.884 1355.73 494.379
328 0 57.1182 14.6888 839 121.899 1356.2 491.626
329 0 59.0839 13.9801 826 121.626 1357.71 492.722
330 0 60.258 12.8116 772 125.075 1357.19 491.753
331 0 64.2944 14.2781 918 119.552 1358.68 492.609
332 1 32.0086 10.8721 348 120.997 1357.82 507.118
333 0 34.0366 12.3103 419 119.993 1358.32 506.248
334 0 34.133 11.836 404 121.854 1358.22 506.725
335 0 35.1399 12.0091 422 121.758 1358.57 507.436
336 0 37.1388 13.0591 485 120.751 1358.67 505.291
337 0 37.0313 13.5021 500 121.444 1357.83 505.368
338 0 40.0989 13.0428 523 120.082 1356.92 506.031
339 0 40.1011 12.3188 494 122.949 1355.89 505.194
340 0 42.1374 13.0051 548 121.436 1356.03 504.405
341 0 44.0862 14.4263 636 117.785 1354.37 502.34
342 0 45.1292 12.9406 584 121.524 1354.76 502.038
343 0 45.0727 13.5559 611 121.434 1354.35 500.926
344 0 47.1014 12.6111 594 122.258 1354.51 498.84
345 0 48.1322 13.2759 639 118.862 1353.66 500.404
346 0 51.1073 13.5793 694 118.533 1353.59 497.84
347 0 52.1552 13.5365 706 118.465 1353.12 496.831
348 0 53.2245 13.6403 726 119.167 1353.9 495.058
349 0 56.2803 12.3489 695 120.475 1352.26 492.212
350 0 59.1731 14.2801 845 116.405 1352.28 490.854
351 0 61.2551 15.1824 930 113.377 1352.8 489.159
352 0 63.3806 12.1646 771 119.288 1353.22 488.914
353 0 65.0954 13.3957 872 116.5 1353.63 486.32
354 0 67.1743 13.785 926 117.324 1353.73 483.558
355 1 37.154 10.2277 380 112.479 1354.11 503.566
356 0 36.2282 12.09 438 111.24 1355.39 501.329
357 0 39.3125 12.1335 477 110.633 1355.88 500.654
358 0 39.1119 12.7583 499 109.353 1355.96 500.721
359 0 43.186 13.3608 577 108.527 1356.75 499.811
360 0 43.3098 12.6992 550 110.627 1357.17 499.398
361 0 43.2983 12.4485 539 113.236 1358.12 499.043
362 0 44.1899 13.5778 600 112.773 1357.92 498.018
363 0 46.3149 13.5594 628 111.889 1358.3 498.449
364 0 47.2614 13.711 648 111.787 1357.75 498.864
365 0 50.0677 13.8612 694 111.71 1357.9 499.55
366 0 51.3806 14.1493 727 112.022 1358.19 497.858
367 0 52.4566 14.3738 754 112.822 1357.83 497.893
368 0 55.3056 15.2064 841 111.391 1357.82 498.195
369 0 58.3259 13.9218 812 114.015 1357.15 498.182
370 0 60.5302 15.0173 909 111.449 1356.96 495.234
371 0 62.435 13.8544 865 113.148 1356.07 496.531
372 0 65.2879 14.2905 933 112.536 1355.53 495.175
373 0 67.5135 15.1673 1024 111.922 1354.18 493.367
374 1 34.3316 11.5928 398 112.555 1353.76 507.241
375 0 36.4357 12.5426 457 111.477 1353.15 506.204
376 0 37.2665 12.3435 460 109.474 1352.77 505.613
377 0 37.3086 12.544 468 109.004 1352.41 504.284
378 0 39.2697 12.2996 483 110.064 1351.64 503.571
379 0 40.1368 13.2298 531 109.154 1352.98 502.614
380 0 43.4422 12.3382 536 110.716 1353.04 502.002
381 0 43.3073 14.755 639 108.761 1353.39 500.25
382 0 44.078 14.6558 646 108.964 1353.07 499.085
383 0 45.1177 13.9635 630 111.476 1352.78 496.848
384 0 47.2634 15.6781 741 106.95 1353.63 498.551
385 0 49.4045 15.5654 769 106.469 1354.78 496.776
386 0 49.1422 13.9798 687 112.483 1355.62 495.511
387 0 50.3096 14.1524 712 112.774 1356.16 493.819
388 0 51.2992 13.2361 679 112.736 1357.11 495.667
389 0 53.3095 14.5377 775 109.901 1357.21 495.289
390 0 56.3602 13.396 755 112.485 1357.69 493.203
391 0 59.3453 15.5025 920 107.685 1358.48 492.59
392 0 58.3099 14.3543 837 112.011 1358.37 493.392
393 0 64.4047 16.2566 1047 106.291 1358.88 492.617
394 1 31.2553 9.34243 292 110.795 1359.89 509.788
395 0 33.1893 11.5399 383 108.742 1358.43 509.23
396 0 33.1893 11.4796 381 164.121 1356.5 509.265
397 0 35.0942 11.5974 407 112.027 1358.59 508.135
398 0 40.0792 14.5212 582 104.406 1357.92 507.528
399 0 39.1008 12.9153 505 110.297 1357 506.776
400 0 41.0438 14.8622 610 107.377 1356.55 505.018
401 0 41.0671 13.9771 574 109.378 1357.02 504.672
402 0 43.0237 12.7372 548 110.63 1356.01 504.464
403 0 45.1519 12.9341 584 110.365 1356.74 503.337
404 0 48.2052 15.1851 732 104.861 1356.16 500.697
405 0 48.1243 14.3379 690 106.822 1355.01 500.887
406 0 50.0342 15.2695 764 106.361 1353.76 498.535
407 0 50.1745 14.2702 716 106.814 1353.73 498.637
408 0 55.1607 16.189 893 100.414 1353.33 498.047
409 0 54.0562 14.0779 761 107.894 1352.5 494.509
410 0 57.1378 15.4889 885 103.047 1352.54 493.781
411 0 56.3774 13.5338 763 109.786 1352.28 490.868
412 0 60.217 16.0918 969 102.744 1352.59 489.816
413 0 60.2545 14.4387 870 106.391 1352.69 489.405
414 0 61.1869 14.611 894 105.755 1353.04 487.922
415 0 66.4755 14.2609 948 104.927 1353.95 488.671
416 0 68.439 13.691 937 107.154 1355.3 486.189
417 1 33.0956 11.0891 367 103.937 1356.52 502.845
418 0 33.0714 12.3974 410 104.976 1357.56 501.029
419 0 35.0487 12.0975 424 107.118 1357.59 500.078
420 0 38.1754 14.9835 572 99.4196 1357.81 500.535
421 0 39.0605 13.5687 530 102.442 1358.83 501.36
422 0 39.076 11.8999 465 106.951 1358.87 500.499
423 0 41.1216 14.1531 582 103.376 1359.53 501.187
424 0 43.0691 15.1849 654 102.003 1359.05 500.786
425 0 44.1194 15.4807 683 101.42 1359.24 500.635
426 0 46.138 15.0635 695 101.793 1359.21 500.724
427 0 48.28 14.6438 707 101.242 1358.2 502.232
428 0 48.1751 13.8453 667 104.606 1358.1 500.612
429 0 52.2085 14.2889 746 101.808 1357.27 502.475
430 0 51.1576 14.7388 754 104.252 1356.22 500.435
431 0 51.0549 13.7891 704 106.511 1355.42 499.822
432 0 53.1514 12.8313 682 109.063 1354.48 498.548
433 0 55.1594 15.0836 832 105.228 1353.79 495.005
434 0 59.2293 13.7094 812 105.101 1353.13 497.762
435 0 60.1825 15.2204 916 105.291 1353.33 492.861
436 0 63.2431 14.4206 912 105.678 1352.72 491.792
437 1 36.1239 11.1837 404 105.683 1352.87 504.795
438 0 34.1426 9.40175 321 110.907 1351.96 504.626
439 0 38.0618 12.0331 458 107.703 1352.27 501.14
440 0 38.0967 12.0483 459 109.73 1351.82 498.993
441 0 39.0744 12.3354 482 107.726 1351.4 500.224
442 0 43.1872 13.7541 594 106.278 1351.29 498.502
443 0 41.0751 12.7571 524 110.198 1352.25 498.506
444 0 44.1544 14.1549 625 107.243 1352.32 496.93
445 0 45.1736 14.7874 668 106.069 1353.51 497.641
446 0 45.1495 14.308 646 109.729 1354.15 495.955
447 0 49.1592 15.0124 738 107.32 1355.15 495.634
448 0 50.2065 15.6354 785 106.419 1356.95 495.902
449 0 52.218 16.3545 854 105.033 1357.48 495.362
450 0 51.2055 14.432 739 112.28 1358.83 493.863
451 0 54.3109 14.5275 789 111.588 1359.28 494.906
452 0 54.1084 14.933 808 112.303 1359.86 493.469
453 0 57.0732 14.1573 808 112.002 1360.44 495.478
454 0 57.1442 14.9796 856 113.334 1359.49 492.813
455 0 59.2844 13.3931 794 116.61 1359.26 491.178
456 0 61.0661 14.4597 883 112.984 1358.8 490.513
457 0 66.1635 16.1267 1067 107.415 1357.9 491.984
458 0 66.2931 14.27 946 113.025 1357.25 490.544
459 0 70.2366 14.0525 987 110.829 1356.52 491.414
460 1 35.0838 10.6317 373 111.434 1356.41 507.954
461 0 39.0278 13.6057 531 106.008 1355.7 506.868
462 0 39.1583 10.6746 418 113.653 1355.01 506.194
463 0 42.1149 13.1782 555 108.341 1354.28 505.187
464 0 42.0906 13.1146 552 110.23 1353.19 502.009
465 0 47.1602 15.7972 745 102.428 1353.38 501.311
466 0 46.1435 14.1515 653 108.25 1353.23 500.231
467 0 48.1564 15.1382 729 107.579 1353.14 498.649
468 0 49.1942 14.2903 703 110.639 1352.21 497.381
469 0 49.1633 14.6247 719 111.937 1351.36 494.976
470 0 51.0992 15.3231 783 109.287 1351.72 493.964
471 0 54.2296 14.2358 772 111.278 1352.26 494.295
472 0 54.1552 14.8462 804 111.403 1352.71 492.606
473 0 54.1552 14.9939 812 166.563 1352.69 492.611
474 0 60.2373 14.9077 898 108.347 1353.95 489.472
475 0 64.1939 15.6713 1006 105.964 1354.51 489.171
476 0 65.285 14.9192 974 108.216 1354.9 489.34
477 0 66.3642 14.6163 970 108.659 1356.11 486.165
478 0 67.2837 13.3762 900 110.044 1356.8 485.223
479 0 74.1827 16.4998 1224 102.414 1358.35 484.223
480 0 75.2127 14.7714 1111 106.544 1358.97 485.59
481 1 40.1539 11.6551 468 107.618 1360.49 503.19
482 0 39.0607 12.4166 485 107.361 1360.34 502.315
483 0 43.0806 13.2078 569 104.056 1360.9 502.439
484 0 44.0921 11.7028 516 106.645 1360.39 503.659
485 0 45.2875 14.706 666 102.937 1360.19 501.82
486 0 45.2411 12.4223 562 106.484 1360.16 504.139
487 0 49.2672 14.127 696 103.664 1359.36 503.029
488 0 50.1915 14.0063 703 104.303 1358.8 504.006
489 0 51.4363 13.4924 694 106.768 1358.04 502.944
490 0 52.2184 13.0414 681 107.17 1356.67 503.05
491 0 56.5814 14.1743 802 103.875 1355.63 501.309
492 0 55.3661 13.3295 738 107.654 1354.05 499.035
493 0 58.3384 13.8845 810 104.942 1353.54 499.51
494 1 32.294 11.3643 367 102.548 1353.18 509.621
495 0 32.1373 11.5131 370 102.13 1352.19 508.678
496 0 33.078 11.7903 390 104.644 1351.93 506.477
497 0 33.1389 10.1392 336 103.821 1351.19 506.961
498 0 35.1922 11.4798 404 105.077 1351.22 503.134
499 0 38.0419 12.7491 485 100.029 1351.46 502.621
500 0 37.1027 13.0718 485 104.105 1351.63 499.753
501 0 39.2102 13.3639 524 101.702 1350.84 498.779
502 0 41.0822 14.118 580 99.2966 1351.81 500.078
503 0 41.0384 13.134 539 104.349 1352.05 498.052
504 0 44.0711 14.3405 632 100.193 1352.94 498.198
505 0 46.0343 13.642 628 102.502 1354.52 497.215
506 0 45.0626 13.3148 600 106.84 1356.3 497.238
507 0 46.1354 14.4358 666 105.643 1357.92 496.492
508 0 48.1962 14.3787 693 105.882 1358.92 496.623
509 0 48.1588 13.9331 671 108.396 1360.57 496.232
510 0 51.0794 16.0143 818 103.818 1361.84 497.065
511 0 53.2416 15.3264 816 104.938 1361.79 498.598
512 0 54.2503 13.8432 751 109.839 1361.84 498.125
513 0 57.1318 14.1778 810 110.395 1362.02 498.043
514 0 59.1435 14.6593 867 110.894 1361.1 497.726
515 0 63.1722 15.6556 989 108.098 1360.5 498.671
516 0 64.2755 16.3048 1048 109.346 1360.34 497.734
517 1 33.0333 11.3522 375 116.576 1358.83 512.437
518 0 34.1634 11.9426 408 113.988 1357.16 513.279
519 0 39.2332 12.8718 505 110.549 1355.41 511.61
520 0 40.2224 13.4751 542 110.838 1354.27 510.327
521 0 39.2312 12.2351 480 114.083 1353.23 510.733
522 0 43.201 14.7913 639 109.912 1352.4 507.444
523 0 44.3367 13.8711 615 111.052 1351.66 505.663
524 0 45.2664 14.6466 663 110.985 1350.5 504.677
525 0 46.2163 15.7953 730 109.804 1349.84 502.832
526 0 47.3203 13.5248 640 115.158 1348.97 502.202
527 0 51.2002 15.0585 771 110.08 1347.72 501.703
528 0 52.1267 14.1194 736 113.173 1346.75 500.481
529 0 52.1676 16.3128 851 110.235 1346.65 498.476
530 0 56.0763 14.3911 807 112.366 1347.26 497.916
531 0 56.1643 14.8849 836 112.921 1347.74 495.537
532 0 58.0932 16.2153 942 108.936 1348.35 495.422
533 0 62.2181 15.3653 956 108.197 1349.45 496.595
534 0 60.2274 14.2958 861 112.516 1351.09 494.455
535 0 64.1689 15.5059 995 109.842 1353.12 493.179
536 0 68.1538 15.3917 1049 107.458 1354.82 493.925
537 1 33.0611 11.2822 373 112.558 1356.26 510.67
538 0 37.0565 12.8182 475 111.038 1356.91 508.882
539 0 37.071 13.3258 494 113.113 1358.45 510.271
540 0 40.0311 14.9634 599 110.509 1358.85 510.808
541 0 41.1227 15.5632 640 110.709 1358.68 510.909
542 0 43.3236 14.8879 645 110.933 1358.3 513.112
543 0 43.1408 13.3516 576 117.693 1357.02 512.457
544 0 45.1523 13.7092 619 118.194 1356.3 512.142
545 0 47.117 14.9627 705 113.872 1354.68 511.566
546 0 51.1569 15.1299 774 113.592 1352.34 510.504
547 0 49.1853 13.8862 683 118.362 1352.18 509.482
548 0 52.1837 14.9089 778 117.27 1350.85 507.634
549 0 56.2506 15.4132 867 114.484 1349.41 506.135
550 0 57.145 15.6619 895 114.493 1348.14 502.906
551 0 60.1747 14.4579 870 115.828 1347.49 501.49
552 0 62.2914 14.9459 931 114.683 1346.6 500.316
553 0 63.1428 15.5045 979 114.173 1346.12 495.894
554 0 65.3187 14.5134 948 116.546 1345.94 492.186
555 1 36.1754 12.937 468 114.981 1346.15 507.714
556 0 37.0217 13.1004 485 115.998 1345.4 505.245
557 0 40.0291 14.7393 590 118.592 1344.75 503.514
558 0 41.0789 13.608 559 114.775 1344.98 501.324
559 0 43.112 14.9147 643 112.649 1345.71 499.639
560 0 44.1598 13.1115 579 116.632 1346.58 499.231
561 0 44.2594 14.1891 628 115.975 1347.06 497.769
562 0 47.1722 14.3517 677 117.009 1348.41 495.275
563 0 49.1253 15.0025 737 114.643 1350.24 496.168
564 0 49.1172 14.1295 694 116.761 1353.16 497.133
565 0 51.1512 15.5226 794 115.344 1354.64 495.563
566 0 54.2489 14.8575 806 115.591 1356.83 495.68
567 0 56.1035 15.4714 868 115.055 1358.4 496.816
568 0 58.1383 15.1191 879 115.886 1358.09 497.247
569 0 60.3025 15.4388 931 117.088 1358.73 496.31
570 0 62.1853 15.888 988 117.516 1358.69 496.982
571 0 65.2386 16.2787 1062 116.523 1357.61 496.527
572 0 68.2123 14.5282 991 122.941 1357.69 496.115
573 0 72.3666 15.0346 1088 121.728 1356.81 495.267
574 0 74.305 14.8981 1107 123.037 1355.69 495.675
575 1 37.2381 12.6752 472 121.905 1354.6 514.28
576 0 39.1668 13.6085 533 122.636 1353.6 512.886
577 0 42.1109 14.0581 592 121.287 1352.78 513.231
578 0 43.247 14.2438 616 122.89 1351.79 510.534
579 0 43.0666 14.1409 609 125.174 1349.91 510.573
580 0 46.0792 13.607 627 126.592 1348.61 508.81
581 0 45.1769 13.4582 608 128.926 1347.92 506.988
582 0 48.2207 13.9774 674 127.362 1347.35 504.599
583 0 49.2702 14.2682 703 125.186 1347.15 503.327
584 0 51.2258 13.8602 710 125.832 1346.04 501.62
585 0 53.3705 15.2331 813 123.321 1346.11 501.188
586 0 55.5228 14.6246 812 123.273 1346.42 499.153
587 0 59.428 14.2525 847 121.771 1346.8 496.385
588 0 59.5672 14.3871 857 122.699 1346.72 494.931
589 0 60.5009 13.0246 788 124.602 1347.66 494.706
590 0 63.1843 14.6872 928 121.22 1347.83 491.612
591 0 65.3645 14.5339 950 121.422 1348.98 490.607
592 1 35.1872 12.8172 451 116.55 1351.18 505.239
593 0 36.2845 13.5595 492 116.652 1353.8 506.205
594 0 37.0695 13.6231 505 117.861 1356.06 506.139
595 0 38.0696 13.1601 501 119.307 1357.2 506.381
596 0 40.3137 13.9407 562 116.479 1358.48 506.224
597 0 40.1538 13.0996 526 119.952 1360.03 506.918
598 0 43.2312 13.6244 589 118.53 1360.12 507.54
599 0 44.2103 13.3906 592 118.524 1360.54 508.245
600 0 46.2125 12.9619 599 117.399 1360.58 509.733
601 0 49.2683 13.9035 685 117.498 1357.4 509.698
602 0 52.354 14.9368 782 114.399 1356.96 509.504
603 0 51.3631 13.3948 688 118.853 1355.85 512.24
604 0 56.4816 15.2616 862 112.396 1354.68 511.365
605 0 59.4765 14.3418 853 113.667 1351.47 509.658
606 1 31.1378 11.7221 365 112.885 1350.38 524.868
607 0 30.1612 12.0685 364 113.228 1349.3 524.409
608 0 33.101 12.5676 416 111.325 1348.13 524.19
609 0 35.0806 11.7444 412 112.231 1347.19 523.917
610 0 35.0195 13.364 468 112.449 1345.28 521.808
611 0 36.0632 12.8108 462 114.004 1345.22 521.457
612 0 38.2462 12.9163 494 114.269 1344.58 520.872
613 0 41.5064 13.3955 556 113.572 1344.32 519.117
614 0 41.2384 13.9433 575 115.162 1343.59 516.417
615 0 43.2558 13.7092 593 112.444 1343.94 516.749
616 0 46.234 14.578 674 110.608 1342.83 512.838
617 0 46.2684 15.7991 731 109.451 1343.65 511.342
618 0 46.1338 13.3741 617 115.922 1342.92 509.643
619 0 48.3246 13.7611 665 114.689 1342.98 509.577
620 0 50.3114 14.9668 753 112.3 1344.58 507.461
621 0 52.2721 13.7358 718 116.359 1345.11 506.663
622 0 54.617 13.8418 756 115.507 1346.82 506.485
623 0 58.3464 14.4139 841 113.378 1347.24 505.902
624 0 61.3149 14.238 873 113.804 1349.39 505.197
625 0 61.5614 14.6358 901 115.673 1351.6 503.295
626 0 64.2792 14.717 946 115.806 1351.3 503.945
627 1 33.1894 12.1123 402 118.572 1351.66 516.774
628 0 35.1246 11.7581 413 120.14 1352.06 516.46
629 0 34.1778 10.972 375 119.72 1351.52 520.256
630 0 40.0818 14.0962 565 113.825 1350.05 520.605
631 0 38.2191 12.219 467 119.33 1350.03 521.514
632 0 42.1133 13.9623 588 113.731 1348.55 522.33
633 0 44.0801 14.0199 618 113.188 1347.19 521.739
634 0 43.344 13.5428 587 117.997 1346.89 520.755
635 0 46.1953 14.2006 656 114.149 1345.63 521.63
636 0 49.1459 13.6736 672 116.074 1344.5 519.083
637 0 49.2894 14.7699 728 115.658 1342.23 517.089
638 0 52.0735 15.8046 823 111.996 1341.38 516.06
639 0 54.1486 15.0696 816 113.516 1340.45 514.216
640 0 54.1549 13.96 756 116.373 1339.92 512.606
641 0 57.2916 14.1557 811 116.309 1339.75 509.668
642 0 59.1267 14.6972 869 115.374 1339.45 507.688
643 0 60.1757 15.6209 940 113.041 1338.98 505.972
644 0 61.298 13.8341 848 118.475 1339.13 505.283
645 0 66.2292 15.3407 1016 114.686 1339.83 502.161
646 0 67.409 15.6359 1054 115.178 1340.24 500.902
647 1 36.1006 11.9665 432 115.486 1341.99 518.023
648 0 38.0853 12.2094 465 117.4 1343.47 515.946
649 0 38.0419 11.5399 439 119.462 1344.96 516.002
650 0 40.0304 13.2149 529 116.388 1346.64 515.34
651 0 41.0999 13.7227 564 118.488 1347.85 512.385
652 0 43.0695 13.6059 586 117.601 1348.54 513.263
653 0 46.1475 13.3485 616 115.977 1349.81 514.036
654 0 47.1123 14.8369 699 115.704 1351.07 512.432
655 0 49.2156 14.0606 692 116.48 1352.04 512.548
656 0 51.057 14.0823 719 117.67 1351.81 512.083
657 0 54.0954 14.8442 803 115.24 1351.24 511.768
658 0 54.1802 14.8394 804 116.509 1351.13 511.331
659 0 56.1925 15.1266 850 117.072 1351.08 511.447
660 0 60.0774 14.1484 850 116.895 1349.44 510.789
661 0 63.0556 15.7797 995 114.376 1349.45 510.134
662 0 64.1142 15.5972 1000 114.719 1348.57 509.762
663 0 69.1296 15.8543 1096 114.776 1347.18 506.699
664 0 70.0815 14.5973 1023 119.009 1346.09 504.842
665 1 37.0243 11.4789 425 116.078 1345.55 521.002
666 0 35.0586 11.1242 390 117.415 1344.32 520.182
667 0 38.0402 12.8548 489 114.746 1343.64 516.481
668 0 41.0938 13.2137 543 113.643 1344.14 516.505
669 0 43.1412 14.5105 626 109.923 1344.6 513.679
670 0 43.1172 14.333 618 110.256 1344.37 511.945
671 0 44.3212 12.996 576 113.474 1343.25 510.917
672 0 45.2022 13.7825 623 114.507 1343.48 507.857
673 0 45.2021 13.0967 592 116.868 1343.93 506.992
674 0 48.2043 13.8369 667 115.237 1343.75 504.825
675 0 49.2295 14.2191 700 114.073 1344.76 504.314
676 0 51.2713 14.9791 768 114.206 1346 501.872
677 0 52.1937 13.948 728 115.891 1347.32 501.794
678 0 55.1939 14.9473 825 111.072 1348.88 501.782
679 0 55.1557 13.9061 767 114.606 1350.25 500.428
680 0 57.2962 14.0498 805 113.961 1352.86 499.475
681 0 61.0978 14.5013 886 111.394 1353.75 498.765
682 0 64.236 14.2443 915 110.966 1356.37 498.696
683 0 67.1709 15.2894 1027 108.937 1357.04 497.84
684 1 37.0328 11.0713 410 109.146 1359.15 514.683
685 0 38.036 12.199 464 109.332 1359.59 514.302
686 0 40.0654 14.3266 574 106.866 1359.54 513.958
687 0 43.2741 13.9113 602 107.276 1358.96 513.653
688 0 43.2741 13.842 599 149.96 1358.98 513.701
689 0 46.0338 13.5118 622 109.751 1356.78 512.633
690 0 49.1541 15.014 738 105.413 1355.98 512.618
691 0 50.1382 13.8218 693 108.759 1354.54 510.069
692 0 52.0476 14.5828 759 107.976 1353.92 508.177
693 0 54.1272 14.392 779 107.671 1352.02 507.281
694 0 56.1405 15.7997 887 105.828 1351.02 505.648
695 0 59.0641 14.3404 847 107.484 1349.82 503.361
696 0 61.1473 15.2092 930 106.477 1348.88 501.023
697 0 60.3896 13.5951 821 111.348 1347.45 497.537
698 0 63.2435 15.4957 980 106.307 1347.42 496.792
699 0 65.1625 15.0086 978 107.6 1346.79 494.049
700 0 68.2868 15.0834 1030 107.37 1347.44 490.559
701 1 38.0323 13.0153 495 106.04 1348.26 505.879
702 0 37.0211 11.9121 441 107.204 1349.12 506.406
703 0 40.0615 12.8053 513 104.702 1349.91 504.45
704 0 41.107 13.4527 553 104.392 1350.59 503.237
705 0 40.0637 13.1041 525 106.404 1350.9 501.905
706 0 43.0472 14.4028 620 102.873 1352.25 501.482
707 0 44.1248 14.0284 619 103.89 1353.7 501.683
708 0 45.2085 13.7585 622 105.46 1356 501.063
709 0 48.1183 15.358 739 102.077 1358.3 500.38
710 0 47.2143 13.5552 640 107.053 1360.03 501.722
711 0 52.1749 14.2214 742 104.433 1361.75 501.075
712 0 55.2272 14.2683 788 104.056 1362.6 502.17
713 0 55.3036 13.7423 760 107.234 1363.01 502.121
714 0 59.18 15.0896 893 103.488 1362.98 501.604
715 0 61.1276 15.2468 932 104.727 1362.65 499.79
716 0 64.2513 14.5367 934 106.697 1361.82 499.682
717 0 66.2211 14.6328 969 107.793 1360.69 498.564
718 1 35.1811 12.5351 441 109.553 1359.84 514.469
719 0 38.1254 11.4884 438 109.765 1358.34 515.011
720 0 40.1876 12.5412 504 108.873 1357.06 511.986
721 0 42.1801 13.4661 568 107.447 1355.57 511.255
722 0 44.2332 14.6496 648 107.216 1353.32 508.039
723 0 44.267 14.164 627 110.008 1351.08 506.617
724 0 48.55 14.9949 728 108.151 1350.59 506.688
725 0 49.3586 14.8708 734 108.778 1349.5 505.696
726 0 50.3846 14.3099 721 109.893 1349.28 504.322
727 0 52.3539 15.357 804 110.05 1348.74 500.001
728 0 55.4311 14.1256 783 110.66 1348.02 500.512
729 0 57.2595 14.9844 858 110.492 1348.26 496.635
730 0 58.6363 14.7008 862 111.684 1348.95 495.013
731 0 62.6789 14.1674 888 112.489 1348.74 493.028
732 0 65.5061 15.3726 1007 108.362 1348.11 492.714
733 0 68.4128 15.8011 1081 107.759 1348.09 491.389
734 1 36.2562 12.2186 443 110.564 1349.73 505.968
735 0 37.2288 12.8127 477 111.528 1351.58 505.539
736 0 40.0678 13.003 521 109.315 1353.42 505.411
737 0 43.0906 12.9727 559 108.662 1355.45 507.454
738 0 42.0779 14.4732 609 109.32 1357.26 506.22
739 0 45.1122 14.5637 657 107.452 1358.95 506.872
740 0 44.058 14.027 618 110.542 1360.15 507.647
741 0 47.2955 14.2931 676 111.689 1360.92 507.373
742 0 49.1793 14.8843 732 112.582 1360.32 508.868
743 0 53.4672 15.0373 804 110.52 1358.83 509.637
744 0 53.3763 14.8006 790 114.434 1357.34 510.957
745 0 54.398 14.0814 766 117.651 1355.11 510.24
746 0 58.277 14.9974 874 117.585 1353.33 508.878
747 0 61.4038 14.5594 894 118.432 1351.57 508.532
748 0 64.3038 14.6492 942 118.462 1350.88 506.951
749 0 69.1869 15.6677 1084 115.664 1349.65 504.829
750 1 37.1204 12.1497 451 119.35 1347.31 518.091
751 0 37.1063 11.4266 424 122.189 1345.87 516.686
752 0 38.2641 12.9625 496 120.357 1345.17 515.544
753 0 41.0319 12.8193 526 118.553 1345.14 513.713
754 0 41.116 12.9877 534 120.925 1344.35 511.395
755 0 42.0769 12.2395 515 121.429 1344.71 512.132
756 0 45.0868 13.9509 629 118.444 1344.5 507.539
757 0 46.0793 14.8223 683 117.117 1344.04 504.854
758 0 49.2785 14.1441 697 115.043 1344.52 504.472
759 0 49.1504 13.2044 649 119.812 1344.56 501.125
760 0 52.219 13.6349 712 115.232 1345.75 502.447
761 0 55.1628 15.1551 836 111.344 1346.14 499.726
762 0 56.1482 14.5686 818 111.422 1348.38 500.337
763 0 57.2166 13.58 777 114.113 1349.33 498.342
764 0 59.2613 13.432 796 114.486 1351.19 499.27
765 0 61.3994 13.6158 836 114.978 1352.59 497.403
766 0 66.3115 14.3414 951 113.857 1355.09 496.227
767 0 68.3439 13.7101 937 114.518 1355.91 495.774
768 0 72.5206 14.8647 1078 111.557 1358 494.789
769 1 40.1531 12.552 504 110.73 1357.39 511.522
770 0 41.129 12.7647 525 111.05 1357.03 511.642
771 0 41.2583 12.2642 506 113.881 1356.46 512.04
772 0 44.1255 13.3483 589 110.17 1356.16 512.474
773 0 45.2416 13.8589 627 111.494 1355.19 514.139
774 0 46.2687 14.3726 665 108.653 1354.28 512.182
775 0 49.2925 14.9313 736 98.5856 1353.09 512.194
776 0 49.201 13.8818 683 101.246 1351.35 512.19
777 0 51.2773 13.6903 702 101.189 1350.13 509.063
778 0 56.1308 15.3392 861 95.8432 1348.04 507.423
779 0 55.2829 14.0007 774 100.492 1346.4 506.012
780 0 58.2764 14.0709 820 99.3037 1345.51 505.304
781 0 62.562 16.5276 1034 93.7544 1344.85 501.179
782 0 64.4067 14.7655 951 96.9054 1344.37 499.701
783 0 69.5124 14.4866 1007 95.5263 1344.37 499.855
784 1 35.1865 11.8511 417 98.4101 1344.53 511.484
785 0 37.2188 11.204 417 97.0839 1343.84 512.12
786 0 38.2099 13.3473 510 95.5667 1344.89 508.769
787 0 41.3186 12.8756 532 95.0075 1345 508.758
788 0 41.151 13.9729 575 93.8817 1347.17 508.023
789 0 44.5287 16.3939 730 90.4603 1348.16 506.818
790 0 42.319 14.5561 616 96.0487 1349.44 508.026
791 0 43.2652 14.3996 623 95.8989 1351.77 507.908
792 0 47.1835 18.9473 894 87.5011 1352.44 508.626
793 0 48.2747 15.5775 752 95.3072 1354.64 506.535
794 0 49.3471 15.4822 764 94.9503 1355.39 509.253
795 0 51.3869 13.4859 693 98.7056 1355.71 509.371
796 0 53.1713 14.9329 794 97.8514 1356.34 508.715
797 0 57.4309 14.4522 830 98.8494 1355.59 509.919
798 0 59.3018 14.3503 851 100.27 1355.14 508.381
799 0 63.3866 15.3818 975 98.1077 1353.77 509.911
800 0 66.4812 13.5527 901 104.315 1352.5 507.886
801 1 35.2784 12.3872 437 104.501 1350.46 523.59
802 0 35.3729 12.3823 438 105.13 1349.19 522.062
803 0 37.2586 11.6751 435 107.701 1347.41 521.667
804 0 38.2396 12.7616 488 107.674 1345.18 519.303
805 0 39.1542 14.0981 552 108.582 1343.24 517.295
806 0 44.1645 15.1253 668 104.198 1342.63 516.482
807 0 45.2912 14.9036 675 107.141 1341.57 513.415
808 0 46.4358 14.9023 692 111.149 1341.38 511.143
809 0 48.4174 14.375 696 111.33 1341.43 509.934
810 0 48.2238 13.9558 673 112.223 1341.44 508.212
811 0 50.6948 14.5972 740 111.358 1341.46 505
812 0 52.5349 15.799 830 108.386 1342.35 503.369
813 0 54.4773 15.2724 832 108.493 1342.53 503.195
814 0 54.3827 15.7771 858 107.446 1343.77 499.744
815 0 56.4824 15.0666 851 107.157 1345.13 499.177
816 0 58.5034 15.8111 925 104.939 1345.86 498.477
817 0 61.3292 15.376 943 106.429 1347.19 497.328
818 0 61.5411 16.3143 1004 106.107 1349.14 495.224
819 0 64.3972 14.4727 932 108.557 1350.6 495.531
820 0 66.3852 15.5004 1029 107.293 1352.17 494.562
821 0 69.582 14.0985 981 109.731 1353.61 495.46
822 0 74.1871 15.4744 1148 106.539 1354.99 495.071
823 0 79.3182 15.3937 1221 105.165 1355.7 493.527
824 1 42.2061 12.51 528 104.411 1356.2 512.691
825 0 43.0681 13.3277 574 105.213 1355.24 511.706
826 0 46.0345 14.5109 668 104.244 1354.34 509.991
827 0 50.2103 14.5986 733 102.033 1353.95 511.585
828 0 51.2578 14.6319 750 103.62 1352.62 509.547
829 0 53.3268 14.158 755 103.236 1351.65 510.539
830 0 54.1852 14.4874 785 102.735 1351.58 509.162
831 0 57.1176 14.1462 808 103.644 1349.55 505.318
832 0 59.2976 14.5874 865 103.295 1347.52 502.563
833 0 61.104 15.5964 953 101.409 1346.75 500.188
834 0 66.1117 15.02 993 101.059 1345.94 499.684
835 0 67.1389 13.6582 917 105.029 1345.37 495.566
836 1 37.031 13.2862 492 100.067 1344.59 511.807
837 0 39.0183 13.5578 529 99.2382 1344.22 510.369
838 0 39.0412 13.6522 533 96.6904 1345.06 509.505
839 0 40.0967 13.4675 540 96.8741 1345.71 508.187
840 0 41.0645 13.3692 549 98.7304 1346.54 506.557
841 0 44.0779 14.9281 658 95.9757 1347.15 505.638
842 0 46.0608 14.2637 657 97.8858 1346.86 504.446
843 0 47.1494 13.9132 656 99.8018 1348.15 505.294
844 0 50.0911 14.4936 726 98.6598 1350.59 503.328
845 0 50.0837 13.2578 664 101.813 1351.89 504.586
846 0 53.1338 14.2282 756 99.6984 1353.56 503.471
847 0 53.0641 13.3989 711 102.73 1355.71 504.433
848 0 57.1491 14.3659 821 99.6736 1356.34 503.38
849 0 60.1372 15.897 956 97.5105 1358.15 503.91
850 0 61.1042 14.9089 911 101.889 1357.6 504.307
851 0 65.1466 14.7667 962 102.692 1357.65 504.782
852 0 69.0494 14.9169 1030 102.9 1356.53 505.341
853 1 36.0868 12.3868 447 103.996 1354.9 521.353
854 0 36.109 10.5791 382 107.188 1352.79 521.809
855 0 39.0541 12.982 507 103.761 1350.89 520.625
856 0 39.0541 13.0844 511 155.315 1347.89 520.524
857 0 42.0864 12.9971 547 102.208 1347.02 518.885
858 0 43.069 13.5364 583 103.487 1346.49 517.137
859 0 45.0905 14.6816 662 99.2976 1345.75 516.642
860 0 45.2287 14.0176 634 104.263 1344.08 513.573
861 0 48.1229 14.5253 699 101.504 1343.92 511.867
862 0 50.107 15.1675 760 98.4263 1343.25 511.566
863 0 50.1357 14.1616 710 101.33 1343 509.269
864 0 52.1508 13.6527 712 102.246 1342.8 507.941
865 0 55.1773 15.133 835 100.007 1342.48 505.556
866 0 55.0418 14.8069 815 102.861 1342.5 503.034
867 0 57.1348 14.6671 838 101.374 1343.27 500.607
868 0 61.1575 15.8934 972 94.6759 1343.12 500.775
869 0 64.2179 16.0547 1031 93.451 1344.13 499.406
870 1 33.0702 12.0048 397 97.136 1346.44 513.662
871 0 35.0898 12.9097 453 94.2737 1348 513.419
872 0 36.0142 13.939 502 94.2291 1349.09 511.707
873 0 38.0359 12.6985 483 95.3064 1350.92 511.451
874 0 38.1019 13.8838 529 95.4461 1352.19 513.163
875 0 41.0599 14.8076 608 90.9441 1352.51 513.873
876 0 41.0175 14.506 595 93.0235 1354.1 512.929
877 0 44.1368 14.7496 651 92.1444 1354.85 513.092
878 0 44.0921 14.8553 655 94.484 1354.9 513.452
879 0 46.022 15.2101 700 93.6986 1354.8 514.546
880 0 47.1385 14.8498 700 94.2857 1353.84 513.911
881 0 50.0885 15.6922 786 94.2964 1352.23 511.941
882 0 52.133 15.5564 811 92.5425 1351.03 513.507
883 0 54.161 14.0322 760 97.5987 1349.67 510.049
884 0 56.1637 15.2412 856 94.1764 1348.69 508.776
885 0 58.2276 14.5807 849 96.3333 1347.07 507.377
886 0 60.5346 15.6439 947 93.9145 1345.8 503.702
887 0 63.2632 15.475 979 93.7028 1344.68 501.483
888 0 67.4369 16.4005 1106 92.3092 1343.26 498.091
889 1 34.111 14.3942 491 91.8024 1342.88 514.89
890 0 34.1539 11.9459 408 96.9436 1342.63 513.956
891 0 34.0858 13.7301 468 98.4423 1342.81 510.872
892 0 36.1261 12.0965 437 99.5217 1343.27 510.373
893 0 39.2559 14.5965 573 94.7958 1343.87 507.215
894 0 38.1293 13.4542 513 97.7232 1344.59 505.799
895 0 42.2214 14.6371 618 94.4466 1345.56 503.812
896 0 42.2117 14.6405 618 96.0129 1346.31 503.869
897 0 47.1455 15.2507 719 92.8331 1347.53 503.163
898 0 44.267 15.1128 669 96.1211 1349.08 503.244
899 0 48.5701 15.2151 739 94.9905 1350.07 502.503
900 0 50.1582 16.3682 821 93.7625 1352.96 503.018
901 0 52.3709 15.7721 826 95.1138 1355.03 503.83
902 0 53.306 14.9326 796 97.3367 1356.04 505.572
903 0 54.6904 14.9935 820 98.1573 1357.26 504.554
904 0 59.607 15.2499 909 97.9109 1358.64 504.53
905 0 63.5951 16.1176 1025 95.0302 1358.1 505.322
906 0 65.4783 14.7835 968 99.6457 1357.49 503.825
907 0 69.5466 15.1265 1052 99.3508 1356.26 502.994
908 0 74.6762 15.5069 1158 98.9586 1354.92 504.32
909 1 36.2127 13.5588 491 102.014 1353.8 522.2
910 0 37.2853 14.3757 536 100.597 1351.97 521.257
911 0 40.4337 15.037 608 98.9046 1349.23 519.681
912 0 40.3913 14.5576 588 101.398 1347.29 518.641
913 0 42.4853 15.5583 661 102.59 1346.25 517.357
914 0 44.5137 14.8494 661 106.127 1345.08 516.074
915 0 44.5513 15.7796 703 106.154 1343.79 513.354
916 0 48.617 14.8508 722 106.475 1343.39 512.561
917 0 47.391 15.3194 726 108.668 1343.08 510.132
918 0 49.7002 14.4667 719 111.656 1342.31 508.644
919 0 51.8232 14.9161 773 109.383 1342.57 507.762
920 0 56.8308 16.5931 943 105.274 1342.89 504.705
921 0 55.985 16.3794 917 107.191 1344.17 505.218
922 0 59.6576 16.2259 968 106.072 1344.32 503.466
923 0 60.6886 15.1594 920 108.738 1345.81 502.563
924 1 30.6522 12.1035 371 108.515 1346.17 517.151
925 0 33.5826 13.102 440 106.464 1347.78 515.639
926 0 32.4081 13.2374 429 107.855 1349.33 514.343
927 0 33.4406 13.9651 467 107.61 1349.79 514.054
928 0 36.3114 13.935 506 107.055 1352.12 515.514
929 0 38.3611 13.9464 535 108.009 1354.12 515.817
930 0 39.4173 15.2725 602 107.201 1354.69 515.924
931 0 40.1676 14.2154 571 110.327 1355.25 516.152
932 0 44.7005 13.8925 621 108.309 1354.78 516.824
933 0 45.453 14.1685 644 108.21 1353.96 516.293
934 0 46.4492 14.7042 683 108.53 1352.65 515.129
935 0 48.6961 14.6624 714 107.284 1350.7 514.826
936 0 50.4493 15.0844 761 107.16 1349.11 513.593
937 0 51.3917 13.582 698 107.893 1347.24 511.789
938 0 55.2835 14.7784 817 107.053 1345.7 509.027
939 0 58.4941 15.2836 894 106.815 1344.03 508.284
940 0 59.392 14.5306 863 108.915 1342.56 506.641
941 0 62.3813 15.1969 948 108.088 1341.99 502.151
942 0 64.3674 14.0755 906 110.455 1341.32 499.109
943 0 67.2832 15.2638 1027 109.124 1340.7 495.878
944 0 69.5287 15.1161 1051 110.219 1340.03 494.103
945 0 72.1621 14.315 1033 112.409 1340.53 490.582
946 0 76.2314 16.4499 1254 105.985 1340.4 490.683
947 1 39.0528 11.5741 452 108.803 1340.01 506.58
948 0 41.053 11.4243 469 109.893 1341.38 504.431
949 0 42.0174 12.2092 513 109.086 1342.89 503.973
950 0 43.0896 13.4835 581 106.621 1345.16 502.427
951 0 46.1238 13.8974 641 104.956 1346.58 501.775
952 0 47.13 12.9005 608 105.74 1347.99 502.982
953 0 49.1655 13.9529 686 104.758 1350.15 501.634
954 0 51.2155 13.6287 698 105.44 1352.53 502.742
955 0 52.0452 14.0647 732 106.436 1353.79 502.937
956 0 56.1624 15.9716 897 100.575 1355.66 504.256
957 0 58.2241 14.5816 849 105.771 1357.16 502.508
958 0 60.1399 13.9009 836 107.043 1358.18 504.687
959 0 61.1699 15.0891 923 107.888 1358.44 503.846
960 0 64.0672 15.8583 1016 107.215 1357.89 504.113
961 0 65.1515 14.7349 960 111.724 1357.53 503.936
962 0 71.1605 14.924 1062 111.089 1356.73 503.807
963 0 72.2127 13.7787 995 114.839 1355.55 503.939
964 1 40.1142 12.0406 483 111.3 1353.63 519.849
965 0 39.2021 10.3056 404 113.418 1352.31 520.322
966 0 42.171 11.5956 489 116.577 1350.18 516.043
967 0 41.0434 11.6462 478 117.837 1347.63 515.107
968 0 45.0796 14.4855 653 110.887 1346.62 513.868
969 0 45.1237 12.2109 551 118.142 1345.64 512.864
970 0 48.1088 13.1161 631 117.252 1345.08 510.61
971 0 49.2719 13.8416 682 116.056 1344.83 509.254
972 0 50.1305 12.9662 650 118.602 1344.6 507.398
973 0 51.1616 13.9362 713 116.755 1344.36 506.712
974 0 51.1179 12.8722 658 121.585 1344.75 503.389
975 0 54.1165 14.0068 758 118.77 1344.89 503.241
976 0 57.1195 13.3755 764 119.145 1345.1 500.915
977 0 58.3619 13.6048 794 120.597 1346.55 500.966
978 0 58.1654 13.0146 757 123.162 1346.61 500.337
979 0 63.4987 13.6696 868 121.122 1348.21 497.634
980 0 64.3793 14.2903 920 120.692 1350.62 498.1
981 0 67.3498 13.7491 926 122.933 1352.66 496.767
982 1 34.3028 10.9612 376 116.215 1354.22 516.048
983 0 34.1981 9.85434 337 121.754 1355.67 514.332
984 0 37.2629 12.3984 462 116.604 1356.78 515.342
985 0 37.1919 13.4169 499 118.289 1358.87 515.024
986 0 39.1381 12.7497 499 119.96 1359.56 516.918
987 0 41.1106 13.3299 548 118.146 1359.36 515.635
988 0 43.2232 13.0486 564 120.064 1358.61 517.152
989 0 45.3435 12.8574 583 117.866 1357.81 517.527
990 0 45.3003 12.075 547 123.927 1356.73 517.576
991 0 48.216 12.3196 594 118.786 1354.7 516.559
992 0 50.2129 12.9449 650 118.268 1353.14 515.445
993 0 50.2305 11.7857 592 122.348 1352.45 514.818
994 1 27.0166 9.25356 250 119.476 1351.14 523.6
995 0 25.0557 9.65847 242 117.884 1349.77 524.525
996 0 26.0152 11.6855 304 117.918 1348.94 522.862
997 0 31.0088 12.8995 400 112.612 1348.06 520.745
998 0 32.0543 9.82707 315 118.898 1347.56 519.984
999 0 30.0778 12.3014 370 117.93 1346.19 517.784
1000 0 32.0897 11.8418 380 121.655 1345.87 515.113
1001 0 33.1316 12.0731 400 121.242 1346.33 515.008
1002 0 35.1765 14.3562 505 119.263 1347.56 510.865
1003 0 34.2142 12.9186 442 124.713 1347.78 511.425
1004 0 39.0729 13.2829 519 121.137 1347.28 509.416
1005 0 38.1627 13.2066 504 123.377 1348.26 508.188
1006 0 40.0991 13.4168 538 122.805 1349.59 508.796
1007 0 41.1807 13.3072 548 121.46 1350.05 506.626
1008 0 42.164 12.3565 521 122.758 1352.16 508.678
1009 0 46.1281 13.2674 612 118.101 1354.05 508.324
1010 0 46.0665 14.4791 667 118.628 1355.93 506.195
1011 0 47.1173 13.8378 652 120.929 1358.1 507.822
1012 0 49.0718 14.5909 716 118.859 1358.66 507.292
1013 0 52.1145 14.1803 739 118.667 1359.42 508.008
1014 0 55.1979 14.4208 796 118.982 1358.62 506.147
1015 1 26.1618 10.588 277 124.527 1358.36 521.913
1016 0 27.192 10.5546 287 121.638 1357.02 523.028
1017 0 31.105 11.7023 364 122.926 1356.37 522.085
1018 0 32.0858 12.6536 406 121.345 1354.58 521.623
1019 0 32.0956 12.6497 406 121.158 1353.17 521.776
1020 0 31.041 12.5318 389 125.805 1351.08 520.853
1021 0 35.2669 13.0151 459 119.758 1349.98 520.937
1022 0 35.1984 13.012 458 124.076 1348.66 519.09
1023 0 37.3074 13.3486 498 121.566 1347.99 518.183
1024 0 36.2992 13.0581 474 154.152 1346.92 517.787
1025 0 40.1953 15.3252 616 119.218 1345.3 513.244
1026 0 39.2184 14.126 554 124.103 1345.54 511.125
1027 0 39.2501 12.8407 504 126.317 1345.5 511.01
1028 0 42.1623 14.0884 594 124.184 1345.87 508.308
1029 0 41.301 12.8568 531 128.962 1346.08 508.153
1030 0 45.0961 14.7685 666 122.703 1347.76 506.072
1031 0 47.1682 14.8405 700 121.017 1348.37 505.056
1032 0 46.1792 14.3788 664 124.586 1348.46 504.086
1033 0 49.1837 13.4191 660 125.314 1349.36 504.37
1034 0 50.0907 15.1525 759 120.053 1350.69 503.175
1035 0 52.2326 14.646 765 120.8 1351.35 503.384
1036 0 52.1234 15.5592 811 120.797 1353.54 502.074
1037 0 53.2592 14.1384 753 124.429 1355.63 503.031
1038 0 54.1402 15.1459 820 123.566 1357.74 503.709
1039 0 53.1526 13.9786 743 126.756 1359.64 505.187
1040 0 56.1289 14.1638 795 126.112 1360.37 506.57
1041 0 58.1229 15.0543 875 124.939 1360.63 505.936
1042 0 58.0708 15.6016 906 123.972 1359.97 507.863
1043 0 61.0896 15.9602 975 124.777 1358.42 506.249
1044 0 61.1069 15.8738 970 126.398 1357.84 506.82
1045 0 62.1069 16.0047 994 126.466 1355.69 508.52
1046 0 64.0732 16.2783 1043 125.012 1354.19 507.361
1047 0 67.1412 16.8749 1133 122.752 1352.54 507.404
1048 0 65.0425 16.8966 1099 125.171 1351.55 505.039
1049 0 68.1301 17.0116 1159 124.46 1349.38 502.986
1050 0 70.151 18.0753 1268 119.941 1348.38 503.662
1051 0 70.0731 16.5684 1161 126.115 1347.25 499.801
1052 0 72.1146 16.4876 1189 124.616 1346.81 499.198
1053 0 73.0737 17.1744 1255 122.993 1346.37 497.609
1054 0 72.0836 16.1895 1167 126.057 1346.04 495.917
1055 1 37.0831 13.1596 488 127.98 1346.16 511.553
1056 0 38.1077 14.4853 552 125.212 1346.13 510.355
1057 0 36.0707 13.6121 491 129.931 1346.4 508.694
1058 0 36.0505 12.9263 466 130.453 1346.43 508.891
1059 0 37.0595 15.4076 571 126.349 1347.28 507.098
1060 0 40.0353 14.9368 598 122.181 1348.61 508.012
