time division length width area intensity CMx CMy
0 0 26.0765 10.6993 279 127.581 1201.74 500.344
1 0 26.1184 10.6821 279 129.125 1200.01 500.961
2 0 27.1512 11.5649 314 126.717 1200.51 500.185
3 0 27.1512 11.5649 314 171.777 1200.54 500.162
4 0 28.0123 10.8167 303 125.937 1201.1 500.396
5 0 29.0187 10.6483 309 123.67 1202.43 500.693
6 0 32.0856 11.9991 385 118.455 1202.74 500.164
7 0 30.0488 11.9472 359 124.49 1201.5 498.014
8 0 31.0445 12.6915 394 120.393 1201.66 497.041
9 0 32.0549 12.7281 408 120.164 1200.92 497.917
10 0 33.0151 13.2969 439 116.519 1200.42 496.916
11 0 32.1402 13.6278 438 118.434 1198.77 496.096
12 0 34.0817 14.2012 484 115.155 1199.69 497.707
13 0 35.4386 12.8673 456 117.414 1200.38 497.226
14 0 33.1196 15.0666 499 114.565 1200.51 497.036
15 0 36.1415 15.135 547 113.488 1200.98 496.327
16 0 36.4518 14.5672 531 112.71 1199.34 496.213
17 0 36.2399 14.3212 519 115.765 1199 495.938
18 0 38.2188 14.3646 549 114.572 1199.45 496.301
19 0 39.1579 14.7608 578 114.86 1199.38 495.318
20 0 40.2366 14.9864 603 114.761 1198.64 494.854
21 0 40.1728 14.4874 582 114.816 1198.84 495.887
22 0 41.1954 14.8075 610 115.625 1200.29 494.085
23 0 42.082 14.9945 631 115.437 1200.88 494.113
24 0 42.3793 15.5029 657 115.234 1200.03 494.671
25 0 43.2585 16.3205 706 114.317 1201.39 492.979
26 0 45.0599 14.8025 667 117.504 1201.67 493.829
27 0 46.1433 14.5633 672 118.75 1200.64 493.557
28 0 47.0424 18.0688 850 111.593 1200.55 492.486
29 0 47.0964 18.0056 848 113.771 1200.93 489.489
30 0 49.1484 16.1958 796 114.471 1201.25 490.946
31 0 50.1399 16.2346 814 115.285 1200.57 490.556
32 0 51.0728 15.7618 805 116.724 1201.01 490.255
33 0 53.0466 15.6466 830 115.084 1201.05 488.99
34 0 53.0461 17.7016 939 111.302 1201.89 488.414
35 0 56.0553 17.0189 954 112.144 1201.62 487.273
36 0 56.2223 16.2925 916 114.572 1201.53 485.391
37 0 61.0594 17.8023 1087 108.773 1202.55 486.501
38 0 60.1902 17.7271 1067 110.611 1203 485.999
39 0 63.1899 17.8351 1127 108.213 1202.96 486.247
40 0 64.3322 17.5962 1132 111.064 1202.68 484.96
41 0 66.1852 17.7985 1178 110.712 1202.81 483.252
42 0 68.1304 17.1583 1169 111.936 1202.8 483.262
43 0 71.1837 17.5181 1247 111.083 1203.15 482.205
44 0 73.2562 18.1555 1330 109.879 1202.9 482.752
45 0 75.1559 18.8408 1416 109.349 1203.91 480.982
46 0 75.3295 16.6469 1254 114.416 1203.68 480.904
47 1 41.0471 14.4224 592 110.796 1203.78 498.779
48 0 39.1161 14.9044 583 111.93 1203.83 499.065
49 0 42.0883 15.3249 645 110.735 1204.07 497.712
50 0 42.0971 15.7493 663 111.187 1203.86 495.535
51 0 45.0836 15.7041 708 109.77 1203.3 497.08
52 0 45.0712 15.4644 697 110.502 1203.14 495.921
53 0 47.073 16.2089 763 107.65 1202.91 496.764
54 0 49.0684 18.1787 892 105.469 1203.08 493.674
55 0 50.0969 15.989 801 108.805 1202.97 494.819
56 0 52.1196 16.3278 851 109.771 1202.34 493.217
57 0 54.0728 16.0524 868 109.023 1203.18 492.43
58 0 56.081 15.4419 866 113.374 1202.45 489.092
59 0 57.0407 15.112 862 114.065 1202.57 488.894
60 0 61.077 15.5378 949 111.842 1202.6 489.264
61 0 59.0419 15.6669 925 113.538 1202.91 488.458
62 0 64.0776 17.2915 1108 110.552 1202.87 486.473
63 0 64.0762 15.6064 1000 115.069 1203.05 486.081
64 0 67.1926 17.3233 1164 113.887 1203.33 483.548
65 0 70.1364 16.4964 1157 113.246 1202.87 483.439
66 0 73.1125 17.7124 1295 110.392 1204 481.537
67 0 74.0986 18.7993 1393 108.717 1203.96 479.602
68 0 74.2273 15.8432 1176 114.267 1203.45 479.546
69 0 79.0687 17.7567 1404 110.92 1204.11 478.25
70 0 81.0768 17.1566 1391 114.849 1202.07 475.697
71 0 82.2627 14.2349 1171 119.645 1203.26 477.056
72 1 44.0355 14.0341 618 115.528 1203.12 494.049
73 0 45.0757 14.6198 659 117.03 1202.71 492.501
74 0 48.0577 14.545 699 114.365 1203.14 494.109
75 0 48.0305 15.511 745 115.023 1202.84 491.989
76 0 52.1327 15.0769 786 113.573 1204.44 493.084
77 0 51.1254 13.907 711 117.277 1204.56 491.44
78 0 53.0427 14.9125 791 115.752 1205.1 491.241
79 0 58.0631 14.1226 820 117.211 1205.44 490.012
80 0 57.1219 14.9855 856 116.846 1205.8 490.904
81 0 61.0718 15.3262 936 115.136 1206.04 490.222
82 0 62.0586 14.3574 891 117.274 1205.82 490.141
83 0 65.0885 15.3176 997 117.555 1205.33 486.192
84 0 65.0429 14.2214 925 121.387 1204.77 485.128
85 0 67.1302 14.8815 999 118.068 1204.56 485.543
86 0 70.2071 14.0726 988 120.605 1204.41 484.119
87 1 34.0436 12.3077 419 117.704 1204.74 500.561
88 0 36.0173 12.3829 446 115.309 1204.98 501.191
89 0 37.0325 12.2595 454 116.874 1204.91 499.381
90 0 40.0673 14.5755 584 111.721 1204.45 498.327
91 0 38.0281 14.6997 559 114.574 1204.94 497.8
92 0 40.0541 13.4568 539 116.414 1204.44 498.393
93 0 41.115 14.6419 602 115.362 1204.44 496.787
94 0 44.0188 14.5847 642 115.745 1205.02 496.136
95 0 44.0358 13.9432 614 117.062 1205.08 495.813
96 0 45.0824 14.9282 673 116.129 1205.3 494.028
97 0 48.018 14.7653 709 114.051 1205.54 493.674
98 0 49.0334 14.7858 725 114.891 1205.06 493.764
99 0 51.1363 14.608 747 115.774 1205.72 493.078
100 0 50.0527 13.6856 685 121.086 1207.22 490.207
101 0 54.0545 13.8564 749 118.963 1206.11 491.714
102 0 56.0579 14.4493 810 118.943 1206.22 488.695
103 0 56.0645 12.8959 723 121.308 1206.07 491
104 0 60.0938 14.6438 880 118.07 1206.62 488.402
105 0 60.1254 14.4697 870 119.894 1206.59 487.385
106 0 63.1375 14.0487 887 122.045 1206.51 486.766
107 0 65.1323 13.25 863 123.432 1206.53 486.572
108 0 69.2158 15.8056 1094 117.798 1207.17 484.665
109 0 70.0928 14.5236 1018 120.073 1207.33 483.302
110 0 73.2091 14.2059 1040 121.072 1207.18 483.071
111 0 75.2361 15.4979 1166 118.931 1206.78 482.122
112 0 79.1731 14.8409 1175 119.744 1206.78 481.003
113 0 81.0997 15.3392 1244 119.767 1205.42 478.714
114 0 85.1512 16.042 1366 117.828 1205.37 477.626
115 0 87.0895 15.8228 1378 119.459 1205.24 475.805
116 0 90.3506 15.3956 1391 119.249 1205.3 475.759
117 1 48.0856 12.9145 621 116.203 1205.92 497.325
118 0 51.0588 13.2396 676 114.734 1205.52 494.972
119 0 52.0507 13.9095 724 113.982 1205.42 494.294
120 0 55.0606 13.6214 750 115.723 1204.77 492.999
121 0 57.0436 14.6379 835 113.283 1204.76 490.984
122 0 57.2701 14.3006 819 113.436 1205.7 491.735
123 0 60.1755 13.095 788 114.687 1205.23 490.195
124 0 62.1465 14.5463 904 113.795 1204.44 488.52
125 0 64.1584 13.1705 845 115.011 1205.38 488.42
126 0 67.1391 14.5668 978 112.572 1204.91 484.909
127 1 36.0693 13.0305 470 111.049 1206.53 500.483
128 0 37.0151 11.9681 443 113.201 1206.24 500.761
129 0 37.0418 11.1226 412 115.417 1205.44 501.046
130 0 37.0179 13.0747 484 112.733 1205.56 499.787
131 0 41.0601 13.0297 535 111.058 1205.81 499.252
132 0 42.0331 15.2499 641 107.047 1205.96 497.757
133 0 42.0616 14.1697 596 112.008 1205.91 496.114
134 0 44.1556 14.0639 621 108.399 1206.01 497.539
135 0 43.2421 13.7135 593 109.971 1206.21 496.841
136 0 46.3129 13.5815 629 111.498 1205.81 495.294
137 0 46.2323 13.4971 624 112.298 1205.61 495.553
138 0 50.2808 14.2997 719 109.277 1206.37 494.061
139 0 50.27 13.4474 676 110.676 1206.73 494.454
140 0 52.2212 14.7641 771 107.815 1206.62 493.108
141 0 55.1782 14.2448 786 107.714 1205.92 493.095
142 0 58.1068 15.7469 915 103.349 1205.85 493.999
143 0 57.1061 14.009 800 108.666 1205.39 491.042
144 1 31.0852 11.0342 343 108.991 1206.31 506.012
145 0 30.0307 11.6214 349 109.054 1205.45 506.358
146 0 33.0531 11.7387 388 109.536 1205.94 504.843
147 0 33.0748 12.9706 429 109.851 1204.4 502.855
148 0 35.1412 13.0047 457 108.88 1205.37 503.162
149 0 35.0507 14.8071 519 108.933 1204.1 502.765
150 0 37.2373 12.6755 472 111.203 1204.41 502.108
151 0 38.0289 15.199 578 107.888 1203.17 500.862
152 0 40.0517 14.5312 582 109.768 1203.78 499.703
153 0 40.1891 14.3074 575 111.381 1203.18 499.717
154 0 41.0298 13.5268 555 112.903 1203.5 499.398
155 0 43.1769 13.7574 594 113.741 1203.1 498.747
156 0 45.2408 14.6328 662 111.157 1201.92 498.875
157 0 46.2087 14.9755 692 112.077 1202.21 496.536
158 0 47.1256 15.6391 737 111.858 1201.74 495.848
159 0 48.1108 15.7969 760 112.363 1202.32 495.629
160 0 50.2781 14.9966 754 114.32 1202.45 494.672
161 0 50.4912 14.9927 757 115.324 1202.81 494.266
162 0 53.206 15.6561 833 113.292 1203.21 493.334
163 0 56.3793 16.1939 913 111.244 1203.47 491.945
164 0 57.2732 15.7316 901 112.164 1204.18 492.687
165 0 59.1496 15.6721 927 112.579 1204.29 490.871
166 0 61.2583 15.655 959 111.888 1204.48 488.934
167 0 63.3499 16.3694 1037 110.251 1205.2 488.922
168 1 34.6432 13.1916 457 112.214 1204.45 503.385
169 0 31.3521 12.4394 390 116.323 1204.79 503.164
170 0 33.344 14.6953 490 111.188 1204.72 503.384
171 0 36.4992 15.151 553 109.483 1204.79 503.441
172 0 35.2831 14.5396 513 114.099 1204.88 502.084
173 0 37.1688 14.905 554 113.242 1204.83 502.942
174 0 39.1976 14.9754 587 111.908 1204.51 501.874
175 0 40.3118 15.5042 625 110.853 1203.83 502.368
176 0 43.1584 15.6169 674 111.675 1203.33 501.182
177 0 42.2307 15.368 649 113.789 1202.85 501.151
178 0 43.2959 13.8812 601 117.356 1203.85 500.91
179 0 43.2959 13.7888 597 165.067 1203.85 500.96
180 0 46.1723 14.7924 683 116.161 1203.85 500.085
181 0 48.1379 15.4348 743 114.829 1203.06 498.767
182 0 49.1843 15.8994 782 114.203 1202.32 497.85
183 0 51.1295 15.7834 807 114.896 1202.59 497.481
184 0 53.1392 16.3909 871 112.072 1202.34 496.697
185 0 55.1523 17.2432 951 110.737 1202.07 494.723
186 0 56.163 15.366 863 115.334 1201.65 494.395
187 0 58.1816 15.1766 883 115.607 1201.4 494.737
188 0 61.1459 18.1042 1107 109.787 1201.84 491.5
189 0 62.1104 18.1773 1129 109.734 1201.65 491.686
190 0 65.2126 15.5491 1014 114.868 1201.91 489.988
191 0 66.1087 17.1838 1136 114.17 1201.25 487.14
192 0 68.2275 16.4596 1123 114.659 1201.95 487.193
193 0 73.2365 17.3684 1272 111.952 1202.73 485.699
194 0 73.1661 16.7837 1228 115.385 1202.12 484.262
195 0 79.1562 19.3036 1528 108.204 1203.34 482.852
196 1 42.1383 13.5032 569 115.165 1202.82 499.084
197 0 44.1044 15.1459 668 113.841 1203.66 496.868
198 0 44.0939 13.8341 610 117.857 1203.84 496.915
199 0 44.0714 14 617 118.358 1204.63 496.433
200 0 46.1123 14.8984 687 115.991 1204.52 495.424
201 0 48.1727 14.4688 697 116.77 1204.41 495.836
202 0 50.0417 14.1682 709 116.587 1204.17 495.705
203 0 52.1093 14.7958 771 115.197 1204.58 493.35
204 0 55.1228 15.1843 837 113.406 1204.7 493.652
205 0 56.0526 16.092 902 113.208 1205.2 492.645
206 0 58.072 16.9101 982 110.922 1204.93 492.54
207 0 59.102 15.1602 896 116.133 1204.77 491.708
208 0 61.1577 15.5173 949 114.347 1204.42 489.428
209 0 64.1398 15.4974 994 113.775 1204.14 490.321
210 0 66.2273 16.3679 1084 112.525 1204.44 489.696
211 0 70.1335 15.6844 1100 113.063 1204.95 488.301
212 0 72.2013 16.5925 1198 112.182 1204.19 487.73
213 1 39.0604 11.6742 456 112.928 1203.98 504.035
214 0 39.0205 12.1475 474 115.103 1204.18 501.865
215 0 43.0707 14.1395 609 108.304 1202.97 501.777
216 0 42.0231 11.8744 499 114.589 1202.35 502.505
217 0 44.045 14.7349 649 109.342 1202.24 501.083
218 0 46.0737 13.7823 635 112.624 1202.21 499.452
219 0 47.126 13.4533 634 114.082 1202.27 497.998
220 0 49.1824 13.1551 647 112.798 1201.94 498.482
221 0 50.2289 12.881 647 113.193 1202.37 498.468
222 0 51.1012 13.9723 714 113.947 1202.09 495.511
223 0 53.2473 15.2308 811 110.261 1202.68 494.941
224 0 53.1285 13.2885 706 114.52 1202.14 494.746
225 0 56.2683 13.1157 738 114.176 1202.34 494.175
226 0 59.1845 14.9364 884 111.706 1202.97 491.793
227 0 60.1135 14.5891 877 112.86 1203.02 491.438
228 1 31.099 12.9908 404 110.025 1203.78 504.262
229 0 32.0981 11.091 356 111.323 1202.77 505.365
230 0 33.0535 10.6494 352 113.764 1204.08 503.611
231 0 34.0439 12.6014 429 110.646 1204.14 503.685
232 0 34.0996 10.0294 342 115.564 1205.11 502.866
233 0 38.0413 13.4591 512 109.447 1205.37 502.549
234 0 38.0661 14.0282 534 108.749 1205.1 502.747
235 0 38.0772 12.7373 485 112.229 1205.39 502.652
236 0 38.1129 10.9412 417 118.345 1205.59 502.564
237 0 39.241 11.4676 450 117.62 1205.21 502.747
238 0 40.3001 13.6972 552 116.763 1205.11 501.63
239 0 41.4906 11.8099 490 121.904 1205.3 501.996
240 0 41.6383 13.3531 556 121.683 1205.12 501.198
241 0 43.4941 12.5994 548 121.664 1204.84 501.71
242 0 44.3177 12.6586 561 123.62 1203.9 500.513
243 0 47.2394 13.421 634 118.41 1203.35 501.071
244 0 46.2915 13.199 611 123.687 1203.1 499.682
245 0 47.1897 10.8498 512 124.514 1203.21 500.359
246 0 51.1822 13.0905 670 121.281 1203.67 496.809
247 0 52.3001 12.9063 675 122.182 1203.81 498.161
248 0 51.3524 13.2808 682 124.49 1203.04 497.626
249 0 51.4315 10.5966 545 126.316 1202.12 499.941
250 1 32.18 10.9074 351 118.618 1202.63 508.681
251 0 31.1153 10.7021 333 118.835 1202.95 509.039
252 0 32.0949 10.9986 353 121.635 1202.83 508.094
253 0 32.2245 12.7232 410 119.632 1203.28 507.902
254 0 30.186 11.5617 349 125.828 1202.91 507.719
255 0 33.554 16.3793 1647 129.583 1201.03 475.12
256 0 34.044 15.6231 1563 134.016 1201.47 474.936
257 0 35.205 16.1136 1663 132.884 1201.31 474.963
258 0 36.606 16.4812 1757 132.746 1201.5 475.092
259 0 37.388 16.4587 1751 134.878 1201.81 472.44
260 0 39.526 16.539 1828 135.222 1202.53 469.385
261 0 41.316 17.3003 1995 133.807 1202.49 468.904
262 0 42.388 15.9319 1918 136.405 1203.1 467.091
263 0 43.466 16.3812 1957 137.92 1203.47 466.236
264 0 43.1718 12.9251 558 127.367 1203.65 499.894
265 0 43.1153 12.942 558 129.977 1204.33 499.711
266 0 47.2045 14.8291 700 124.056 1203.76 498.62
267 0 49.1172 13.1522 646 127.567 1204.69 497.701
268 0 50.1142 14.2874 716 127.017 1204.93 498.278
269 0 51.2106 14.333 734 128.384 1205.44 497.219
270 1 22.0149 12.219 269 130.662 1204.5 511.041
271 0 25.0202 12.5099 313 129.802 1204.35 510.479
272 0 24.0319 11.6928 281 135.893 1205.12 509.89
273 0 27.0108 12.8838 348 133.618 1204.98 509.954
274 0 28.0231 12.2756 344 133.828 1204.4 510.927
275 0 30.0436 13.0144 391 134.266 1205.19 511.32
276 0 30.0521 12.7778 384 138.297 1204.45 511.852
277 0 30.0971 12.8584 387 140.966 1204.95 510.687
278 0 31.1532 13.5139 421 140.58 1203.99 509.181
279 0 32.1009 14.0495 451 141.428 1203.84 508.483
280 0 32.0817 14.3696 461 142.887 1203.21 507.905
281 0 36.0437 13.7888 497 141.581 1202.98 507.398
282 0 35.0813 13.5685 476 143.725 1202.37 506.466
283 0 37.1181 14.2518 529 142.858 1201.79 504.021
284 0 39.0692 14.18 554 139.574 1201.5 506.193
285 0 40.0986 15.2374 611 136.185 1201.76 504.727
286 0 40.0482 14.5075 581 141.017 1202.06 502.184
287 0 42.0533 15.0286 632 136.717 1202.47 500.847
288 0 44.1538 15.4913 684 134.423 1202.64 499.803
289 0 44.0963 15.126 667 136.084 1201.97 497.946
290 0 46.1843 15.0051 693 134.794 1203.17 497.973
291 0 47.1247 15.2786 720 134.176 1202.91 497.432
292 0 49.0364 15.0908 740 131.564 1203.17 497.915
293 0 50.2674 15.6165 785 131.546 1202.9 495.661
294 0 52.1012 14.9901 781 132.109 1203.5 495.156
295 0 52.032 15.452 804 132.67 1204.17 494.547
296 0 55.1286 14.5115 800 133.981 1204.63 492.759
297 0 58.0562 16.484 957 126.885 1204.28 493.71
298 0 57.0954 14.7473 842 133.686 1204.99 493.049
299 0 58.0215 14.9083 865 133.869 1206.01 491.94
300 0 62.0762 15.0782 936 131.519 1206.33 492.087
301 0 63.088 15.2803 964 130.017 1206.21 493.587
302 1 34.0499 13.6564 465 131.809 1205.24 505.875
303 0 35.1198 14.1231 496 129.915 1204.44 506.442
304 0 38.0316 12.9103 491 130.149 1204.93 507.084
305 0 40.0952 14.4656 580 126.303 1204.71 506.666
306 0 40.1631 15.5616 625 124.658 1204.51 507.446
307 0 43.0236 13.6669 588 128.957 1204.11 507.126
308 0 40.0572 14.9287 598 130.936 1203.9 506.309
309 0 42.142 15.5664 656 126.73 1204 506.855
310 0 42.0692 15.9737 672 127.141 1203.45 506.281
311 0 43.0362 15.7542 678 129.558 1203.32 505.261
312 0 45.4044 15.1527 688 130.541 1202.65 504.734
313 0 45.1448 15.55 702 131.652 1202.69 502.372
314 0 45.1155 14.5626 657 134.457 1201.98 501.443
315 0 48.0652 16.228 780 130.553 1201.26 500.232
316 0 49.0874 15.7067 771 131.685 1201.45 501.066
317 0 50.1569 15.0727 756 135.138 1201.6 499.216
318 0 51.0864 15.6793 801 133.863 1201.11 499.337
319 0 52.1236 16.2307 846 133.638 1201.08 497.69
320 0 52.0364 15.4123 802 137.973 1201.12 496
321 0 56.1231 16.5172 927 134.262 1201.86 495.45
322 0 55.0646 15.3638 846 136.585 1202.68 496.086
323 0 60.0816 16.8604 1013 133.556 1203.62 493.499
324 1 29.0327 14.3631 417 136.141 1202.94 506.01
325 0 29.012 15.3385 445 136.234 1203.8 505.151
326 0 32.0224 14.1463 453 137.225 1203.84 506.04
327 0 32.0094 16.0265 513 135.435 1204.04 504.725
328 0 33.0243 15.9579 527 136.106 1204.58 503.909
329 0 34.0564 16.5314 563 133.165 1206.08 503.634
330 0 36.0151 15.6601 564 134.11 1205.47 503.541
331 0 37.0568 16.5962 615 133.406 1206.9 503.707
332 0 38.1078 16.532 630 131.729 1206.13 505.989
333 0 39.0599 15.8218 618 137.252 1206.55 504.562
334 0 40.0974 16.5347 663 136.235 1206.32 504.017
335 0 40.021 15.9167 637 140.08 1206.8 503.716
336 0 43.028 16.2685 700 139.907 1206.81 503.867
337 0 43.0272 15.9899 688 143.432 1206.1 504.365
338 0 47.0874 17.3295 816 139.081 1205.03 503.582
339 0 48.1118 17.5217 843 141.499 1204.2 501.661
340 0 48.034 16.3842 787 145.173 1204.37 502.479
341 0 52.0457 15.6593 815 143.562 1202.77 503.014
342 0 54.0871 16.5659 896 146.795 1203.29 499.028
343 0 54.0918 16.509 893 150.057 1203.01 498.035
344 1 27.008 14.0699 380 151.955 1203.29 509.708
345 0 30.0687 14.3671 432 151.275 1202.78 509.222
346 0 30.0459 15.8424 476 147.55 1202.72 508.964
347 0 28.0314 15.4113 432 155.914 1202.26 507.081
348 0 30.0144 16.4255 493 153.475 1202.86 507.602
349 0 32.0926 15.8915 510 153.104 1201.22 505.767
350 0 32.0079 15.5274 497 154.934 1201.07 504.897
351 0 33.1038 16.1311 534 153.828 1201.47 503.698
352 0 36.0894 15.7941 570 153.058 1202.08 502.988
353 0 36.0224 15.0185 541 153.63 1202.44 503.25
354 0 37.0224 16.7196 619 153.341 1202.45 501.326
355 0 38.0241 14.8064 563 157.844 1203.28 502.492
356 0 37.0269 16.6636 617 157.687 1204.37 500.7
357 0 41.0696 15.7781 648 155.503 1204.89 500.673
358 0 41.1523 17.2287 709 152.226 1205.03 499.533
359 0 42.0747 15.9241 670 155.127 1205.84 500.494
360 0 45.056 17.112 771 152.434 1206.33 499.512
361 0 47.1166 16.491 777 152.014 1206.9 500.727
362 0 47.1337 17.0154 802 154.653 1206.93 499.146
363 0 50.0772 16.5544 829 155.118 1207.17 498.585
364 0 53.0552 16.8881 896 153.674 1206.72 498.768
365 0 53.0784 17.1633 911 157.238 1206.85 497.674
366 1 29.0777 13.9282 405 157.363 1207.18 510.267
367 0 31.0143 15.4767 480 156.742 1206.71 509.725
368 0 33.0469 15.7655 521 156.635 1206.7 509.833
369 0 34.0325 15.2208 518 160.479 1206.1 510.718
370 0 32.0172 15.7103 503 161.511 1205.81 510.29
371 0 36.0924 16.4854 595 158.787 1204.96 508.358
372 0 37.0211 16.4231 608 158.462 1204.3 508.354
373 0 37.0256 16.8262 623 159.337 1203.06 507.49
374 0 36.1439 15.383 556 163.198 1202.59 505.989
375 0 39.0349 15.1147 590 161.68 1201.98 506.542
376 0 40.0251 15.865 635 160.121 1201.5 503.803
377 0 41.1456 14.7525 607 160.542 1201.19 504.165
378 0 43.1148 15.8182 682 156.818 1200.57 503.522
379 0 44.1661 15.7587 696 161.236 1201.95 500.5
380 0 45.0669 16.0428 723 161.925 1202.25 499.423
381 0 46.0273 16.4902 759 162.54 1202.25 498.623
382 0 48.0614 15.0433 723 164.563 1201.94 497.559
383 0 49.1169 16.0026 786 162.828 1201.49 496.67
384 0 52.1137 15.3894 802 164.138 1202.13 495.575
385 0 53.2848 14.9574 797 163.127 1203.38 496.312
386 0 53.0864 15.3146 813 165.934 1204.29 493.71
387 0 58.121 16.9302 984 157.98 1204.79 493.337
388 0 60.1529 15.2279 916 161.37 1205.74 492.456
389 1 31.0506 14.0094 435 158.637 1206.21 505.513
390 0 33.1029 14.9836 496 153.077 1206.47 505.732
391 0 33.0817 14.5095 480 158.654 1207.25 505.385
392 0 34.041 14.7763 503 160.006 1207.39 504.708
393 0 34.0208 15.8432 539 158.239 1207.81 505.564
394 0 36.079 15.3552 554 158.7 1207.77 506.042
395 0 36.0536 15.3383 553 159.014 1206.58 507.655
396 0 39.1272 11.6798 457 179.077 1206.54 534.899
397 0 39.0446 15.239 595 158.859 1206.84 506.558
398 0 41.1813 15.5167 639 157.286 1205.97 507.939
399 0 40.242 15.2329 613 159.909 1205.25 506.747
400 0 42.1317 15.8313 667 159.892 1204.84 504.804
401 0 44.0663 15.7717 695 158.062 1205.49 504.022
402 0 45.1928 15.6883 709 158.052 1204.56 504.12
403 0 47.3214 16.1027 762 156.723 1205.39 503.299
404 0 49.2096 16.2773 801 157.208 1204.78 500.111
405 0 51.0453 16.1425 824 156.754 1203.63 500.689
406 0 52.0441 14.6414 762 160.192 1202.6 500.383
407 0 53.3301 15.3009 816 158.397 1202.53 498.414
408 0 55.1526 15.1942 838 158.78 1201.89 496.91
409 0 55.2505 14.6786 811 162.66 1201.73 496.126
410 0 59.1093 15.3106 905 160.875 1201.68 494.199
411 0 58.1329 14.9485 869 165.536 1201.49 492.756
412 1 31.0325 12.9219 401 157.339 1202.04 506.19
413 0 32.1729 14.391 463 153.803 1202.18 505.214
414 0 34.1781 13.8393 473 153.537 1202.33 505.027
415 0 33.1117 14.8588 492 154.069 1203.09 504.472
416 0 33.1072 13.7734 456 157.151 1204.13 504.89
417 0 33.1106 14.1344 468 156.297 1204.49 504.239
418 0 35.2231 14.394 507 156.55 1205 502.769
419 0 37.1519 14.6426 544 153.171 1205.47 502.614
420 0 37.3354 13.9278 520 154.471 1205.92 503.621
421 0 40.4293 15.6817 634 151.454 1206.84 501.609
422 0 40.4994 14.6669 594 155.579 1207.11 501.717
423 0 42.3025 15.4365 653 153.256 1207.57 502.632
424 0 45.2899 14.2416 645 155.318 1207.27 501.93
425 0 47.747 15.247 728 153.006 1207.27 501.36
426 0 46.3241 13.6214 631 156.238 1207.37 503.295
427 0 50.4325 14.1179 712 152.226 1206.6 504.324
428 0 52.4425 14.1488 742 154.79 1206.35 501.632
429 0 51.3095 13.6427 700 158.377 1205.59 501.673
430 1 29.0798 12.8612 374 152.332 1204.91 511.947
431 0 28.0696 12.5046 351 155.746 1204.24 511.957
432 0 31.1167 12.6941 395 152.109 1203.02 511.62
433 0 31.054 12.9774 403 151.139 1202.37 510.883
434 0 33.058 13.8544 458 149.389 1201.58 509.817
435 0 32.0842 12.81 411 155.961 1201.88 508.735
436 0 35.1688 13.7338 483 152.611 1201.18 506.145
437 0 37.0499 15.0068 556 146.482 1200.94 505.444
438 0 36.0219 14.3524 517 153.683 1200.2 503.456
439 0 38.0245 14.6748 558 151.457 1200.46 502.45
440 0 40.1345 14.3268 575 149.431 1199.88 501.99
441 0 40.1496 15.1932 610 149.336 1199.53 499.636
442 0 41.1625 14.382 592 152.28 1199.37 499.382
443 0 44.2116 15.4032 681 145.821 1200.52 499.95
444 0 43.0342 14.7557 635 151.493 1200.61 498.28
445 0 44.2267 13.883 614 153.083 1201.52 498.301
446 0 46.0854 14.9071 687 150.25 1202.39 497.61
447 0 48.0821 15.6815 754 148.781 1203.38 495.224
448 0 50.1677 15.1293 759 148.781 1205.06 495.852
449 0 53.1511 15.9357 847 144.557 1205.58 494.946
450 0 53.1401 14.283 759 150.343 1206.95 494.014
451 0 54.3333 14.227 773 150.618 1207.4 494.147
452 0 58.2239 15.8698 924 143.803 1208.08 494.579
453 0 61.1344 15.3269 937 144.185 1208.52 493.809
454 0 62.118 15.1003 938 144.972 1207.72 494.097
455 0 65.1256 14.2954 931 149.054 1207.54 491.939
456 1 34.0153 12.4062 422 142.052 1207.08 508.258
457 0 34.0625 10.745 366 143.951 1206.16 508.803
458 0 35.0176 12.2795 430 144.498 1205.52 507.881
459 0 35.0543 12.5234 439 143.333 1204.86 508.175
460 0 39.0743 13.9478 545 139.202 1204.62 506.776
461 0 39.0232 14.4017 562 140.831 1203.9 505.386
462 0 40.1235 14.7295 591 140.245 1203.09 505.636
463 0 41.0557 14.0541 577 143.215 1202.23 504.068
464 0 43.1432 14.6257 631 141.187 1201.14 501.144
465 0 43.1465 13.7207 592 144.461 1201.53 501.073
466 0 46.0966 14.5998 673 141.01 1201.35 500.254
467 0 46.069 13.5449 624 145.268 1201.13 498.904
468 0 49.0282 14.4407 708 142.797 1200.17 496.345
469 0 49.0927 14.8087 727 141.62 1199.3 496.085
470 0 51.0497 14.7307 752 141.888 1199.61 494.898
471 0 53.0499 15.5702 826 141.585 1200.13 492.614
472 0 55.0818 15.6858 864 140.677 1200.6 491.627
473 0 55.0882 15.5932 859 158.939 1200.62 491.632
474 0 59.1042 15.1428 895 140.842 1202.1 488.85
475 0 62.1728 16.4541 1023 135.813 1202.69 489.585
476 0 62.2101 14.9172 928 142.531 1202.89 487.824
477 0 67.1397 15.639 1050 136.473 1204.32 486.139
478 1 35.1397 11.6962 411 132.187 1205.12 504.049
479 0 34.1789 13.3123 455 133.143 1206.85 502.745
480 0 35.0854 14.6215 513 134.175 1207.37 501.953
481 0 36.0857 13.2463 478 135.243 1208.78 504.082
482 0 38.1377 13.6872 522 136.345 1208.55 502.736
483 0 38.1846 14.5608 556 135.833 1209.38 502.887
484 0 39.2514 14.9294 586 133.971 1208.9 504.401
485 0 43.0616 14.6767 632 132.073 1208.97 504.008
486 0 44.2058 14.9075 659 132.628 1208.53 502.451
487 0 44.0712 14.3404 632 134.657 1207.59 504.002
488 0 47.3251 14.9181 706 132.231 1207.07 504.048
489 0 49.3017 14.7662 728 132.944 1206.32 502.43
490 0 50.1677 15.2887 767 131.01 1204.9 503.602
491 0 52.6939 14.1193 744 133.163 1203.98 501.874
492 0 54.4805 14.4272 786 133.29 1202.41 499.869
493 0 56.4929 14.6921 830 132.716 1201.86 498.918
494 0 57.2503 14.5152 831 133.182 1201.15 496.14
495 0 61.3304 15.9138 976 129.182 1200.47 494.075
496 0 62.2395 14.3639 894 133.419 1200.08 493.008
497 0 63.3155 13.4722 853 136.503 1199.58 489.14
498 1 35.1082 12.2194 429 131.214 1199.71 503.942
499 0 37.37 12.8178 479 129.668 1199.76 501.582
500 0 36.1729 12.8826 466 132.528 1199.76 500.485
501 0 38.2892 13.3458 511 130.603 1199.09 499.883
502 0 39.1344 13.7475 538 131.097 1200.23 499
503 0 40.28 13.7785 555 130.973 1200.39 498.11
504 0 41.2664 13.013 537 131.041 1201.31 498.505
505 0 42.1731 14.5353 613 128.917 1202.96 497.595
506 0 43.2047 14.142 611 131.928 1204.77 497.512
507 0 44.0799 14.2695 629 130.639 1206.43 497.447
508 0 46.1944 14.4606 668 130.792 1207.56 497.129
509 0 48.34 14.9979 725 128.874 1209.28 496.69
510 0 49.4187 15.9252 787 127.208 1210.58 496.407
511 0 53.3707 13.8653 740 128.931 1210.53 499.342
512 0 55.1308 15.0914 832 127.554 1210.7 498.776
513 0 56.3204 15.8557 893 128.316 1210.69 498.393
514 0 60.3441 15.1962 917 128.867 1209.76 498.964
515 1 28.3235 11.0862 314 132.076 1209.48 513.952
516 0 31.2864 13.4244 420 130.548 1209.09 513.431
517 0 33.2366 13.2986 442 131.063 1207.91 513.176
518 0 32.1909 13.3889 431 130.469 1206.21 514.158
519 0 35.0968 14.9301 524 124.153 1204.45 513.286
520 0 34.1693 13.4331 459 132.721 1203.32 511.78
521 0 36.2107 13.8081 500 131.852 1201.76 510.784
522 0 38.1283 14.2152 542 130.101 1201.17 510.249
523 0 38.0877 14.3091 545 131.231 1200.23 508.8
524 0 41.0778 13.9491 573 129.511 1199.19 508.831
525 0 42.1161 14.7687 622 129.915 1198.42 506.685
526 0 42.0742 15.7103 661 129.887 1197.42 504.103
527 0 45.09 14.837 669 130.701 1196.09 503.197
528 0 44.0564 15.6163 688 130.89 1195.13 502.09
529 0 47.059 15.1937 715 129.797 1194.96 502.684
530 0 48.1356 14.7708 711 131.602 1195.41 500.765
531 0 49.0202 15.2794 749 130.816 1195.93 500.571
532 0 52.1586 15.4145 804 129.597 1196.51 499.708
533 0 51.2005 14.9608 766 133.354 1197.43 497.808
534 0 55.2425 15.1333 836 130.626 1199.24 497.475
535 0 56.1344 17.8144 1000 123.709 1201.47 498.038
536 0 59.1302 15.1023 893 128.501 1203.12 497.149
537 0 62.2054 15.7703 981 126.385 1203.81 497.487
538 1 31.0212 11.9596 371 131.453 1204.74 510.72
539 0 31.0798 12.9666 403 131.089 1206.44 511.913
540 0 33.0984 13.9584 462 130.545 1206.75 512.316
541 0 36.0916 12.496 451 131.526 1206.69 513.891
542 0 37.1224 14.6273 543 127.667 1206.38 513.86
543 0 39.053 15.0052 586 126.964 1205.11 513.406
544 0 40.1308 14.5026 582 128.107 1204.48 513.918
545 0 45.2523 15.5793 705 121.804 1202.99 514.068
546 0 45.2621 15.3108 693 125.242 1200.61 512.583
547 0 46.2877 15.8574 734 125.678 1200.25 510.248
548 0 47.1578 15.3739 725 127.074 1199.04 509.55
549 0 48.1515 14.7867 712 128.438 1197.72 508.768
550 0 51.3317 15.02 771 127.07 1196.4 504.676
551 0 52.162 14.1674 739 128.501 1195.82 505.016
552 0 56.2585 16.3886 922 121.09 1195.12 503.873
553 0 56.254 14.6123 822 127.613 1194.53 499.781
554 0 61.2318 14.8942 912 125.048 1194.54 497.056
555 0 62.2842 15.9591 994 122.973 1194.38 496.714
556 1 31.079 13.1922 410 126.31 1194.05 508.256
557 0 35.1145 12.2457 430 133.433 1193.6 507.13
558 0 33.0852 13.3897 443 127.567 1193.73 504.612
559 0 35.0238 14.7899 518 124.351 1194.47 503.228
560 0 36.2401 13.9348 505 126.972 1195.08 502.059
561 0 37.1324 15.4851 575 125.459 1195.59 500.877
562 0 39.0933 15.6037 610 124.533 1197.14 500.503
563 0 40.0732 14.8978 597 126.611 1199.02 499.911
564 0 41.0781 15.3853 632 125.921 1201.91 500.397
565 0 42.046 15.5306 653 125.351 1203.5 500.011
566 0 45.1126 14.8517 670 123.148 1205.65 501.091
567 0 47.1323 15.2337 718 121.506 1207.16 502.313
568 0 46.1039 14.5324 670 126.491 1206.94 500.063
569 0 49.103 15.3758 755 123.772 1207.47 501.658
570 0 50.085 15.1542 759 125.976 1207.46 501.96
571 0 53.1429 14.5269 772 126.334 1206.41 502.266
572 1 26.0133 11.4557 298 127.852 1206.81 516.651
573 0 28.05 12.656 355 128.789 1205.97 515.766
574 0 28.0534 12.0841 339 128.735 1204.83 516.912
575 0 31.09 13.8308 430 125.551 1203.52 516.893
576 0 33.1002 14.6223 484 125.097 1202.33 515.523
577 0 34.0703 14.1766 483 125.499 1201.51 515.53
578 0 35.0889 15.5605 546 122.864 1200.36 514.194
579 0 37.2861 14.4021 537 124.791 1198.44 513.412
580 0 36.165 15.7058 568 125.914 1197.05 511.072
581 0 37.152 14.1581 526 128.664 1196.27 509.987
582 0 39.1668 14.2212 557 127.978 1195.62 508
583 0 39.1168 14.9041 583 126.672 1195.42 506.021
584 0 41.0718 16.3372 671 123.531 1194.42 504.337
585 0 44.2275 15.5785 689 123.435 1194.27 504.401
586 0 45.181 14.1653 640 126.195 1194.8 503.119
587 0 46.1373 14.5869 673 125.275 1195.3 500.368
588 0 48.1328 15.852 763 120.658 1195.26 499.966
589 0 51.1704 14.6764 751 121.499 1196.13 499.736
590 0 53.2834 15.746 839 118.647 1196.32 497.692
591 0 53.1117 14.912 792 123.053 1197.41 495.437
592 1 25.0808 12.4398 312 123.426 1199.97 508.603
593 0 27.0836 11.5937 314 124.487 1202.4 509.854
594 0 27.0525 12.3464 334 124.955 1204.74 510.518
595 0 30.0962 14.4869 436 120.165 1205.65 510.291
596 0 31.1713 14.8855 464 120.33 1206.87 510.474
597 0 33.1411 15.2077 504 119.591 1208.29 510.915
598 0 36.2865 16.0666 583 116.124 1208.32 512.086
599 0 36.2095 15.4103 558 121.152 1208.81 511.719
600 0 36.2165 14.9103 540 121.543 1208.7 513.789
601 0 38.1199 14.8479 566 123.186 1205.95 515.979
602 0 39.0635 15.078 589 123.557 1205.48 517.243
603 0 40.0339 15.1122 605 123.55 1204.26 519.261
604 0 43.1085 16.3077 703 119.623 1203.14 518.376
605 0 41.1651 15.5472 640 122.986 1199.86 518.575
606 0 45.1169 15.4931 699 122.22 1198.53 517.89
607 0 46.4575 16.1007 748 121.34 1197.64 517.893
608 0 48.1545 16.8001 809 121.142 1196.38 517.083
609 0 51.1694 16.592 849 120.827 1195.27 516.207
610 0 51.0894 16.5592 846 124.095 1193.47 514.728
611 0 53.3004 16.1537 861 125.374 1193.19 514.635
612 0 56.1588 16.5424 929 125.75 1192.56 512.108
613 1 28.2188 13.3599 377 132.761 1192.5 524.523
614 0 28.2202 15.3082 432 130.627 1191.81 522.958
615 0 30.4303 15.6751 477 127.308 1192.21 521.539
616 0 30.1102 15.1776 457 129.748 1191.48 520.197
617 0 33.1564 17.7341 588 124.776 1192.28 517.265
618 0 35.4225 16.6843 591 126.118 1191.7 516.44
619 0 34.5318 16.4486 568 129.792 1191.85 515.32
620 0 35.4268 16.2024 574 130.526 1193.43 514.34
621 0 37.3598 16.4883 616 130.849 1194 512.987
622 0 39.2927 16.0589 631 129.932 1195.68 514.417
623 0 40.4917 18.6211 754 124.05 1196.31 514.578
624 0 41.5135 15.3685 638 133.713 1198.33 513.511
625 0 42.3251 16.8458 713 132.098 1200.37 512.874
626 0 46.875 19.7333 925 123.183 1200.22 513.237
627 0 47.4485 17.3662 824 132.262 1200.44 511.875
628 0 50.7415 17.6187 894 128.933 1200.86 513.658
629 0 50.3535 17.536 883 133.973 1200.28 513.065
630 0 54.5692 16.786 916 136.367 1198.59 513.762
631 0 55.604 17.5347 975 135.094 1198.5 514.48
632 0 59.4981 16.9249 1007 135.433 1196.8 514.38
633 1 26.351 14.7623 389 138.856 1195.95 528.925
634 0 28.5661 15.2278 435 137 1195.71 529.766
635 0 27.4873 15.9346 438 138.388 1194.44 529.45
636 0 31.5952 15.1605 479 135.474 1193.38 528.553
637 0 30.3791 16.9195 514 137.747 1191.12 527.008
638 0 29.354 17.5104 514 138.107 1190.35 526.654
639 0 32.445 18.8627 612 132.485 1189.64 525.565
640 0 31.7753 15.9872 508 141.443 1188.88 523.813
641 0 33.4916 18.0642 605 136.582 1188.6 521.479
642 0 35.455 17.9382 636 136.998 1188.52 519.425
643 0 37.1863 16.135 600 139.3 1188 518.452
644 0 37.4669 17.1885 644 138.43 1188.21 517.703
645 0 38.9 17.5064 681 138.452 1188.84 516.681
646 0 41.6902 17.4142 726 137.072 1189.36 516.736
647 0 39.8094 16.8302 670 142.582 1191.24 515.793
648 0 41.436 18.0519 748 139.664 1192.45 515.455
649 0 44.6067 17.3965 776 140.742 1193.53 514.095
650 0 46.4673 16.9366 787 142.592 1195.19 513.466
651 0 47.3475 17.1075 810 143.469 1196.54 512.783
652 0 48.3811 18.7883 909 139.612 1197.55 513.647
653 0 54.8629 20.2323 1110 130.215 1198.66 513.977
654 0 54.2547 18.3579 996 140.973 1199.92 512.768
655 0 53.6167 17.9049 960 145.253 1200.65 512.559
656 0 56.766 16.3654 929 149.787 1200.36 512.712
657 0 59.7825 17.6975 1058 146.625 1199.85 511.093
658 0 61.5261 18.0086 1108 146.076 1199.72 511.908
659 0 62.257 17.749 1105 151.29 1199.73 511.604
660 0 63.4625 17.4434 1107 151.65 1197.86 511.752
661 0 68.4607 17.7036 1212 151.562 1197.72 510.543
662 0 72.5309 17.5511 1273 148.327 1196.79 510.112
663 0 73.4104 17.7631 1304 151.497 1195.44 506.729
664 0 76.3554 17.0387 1301 152.363 1194.47 505.789
665 0 81.4144 18.2523 1486 144.649 1193.81 503.453
666 0 82.6863 16.9556 1402 147.024 1192.81 501.425
667 0 88.3889 19.4368 1718 137.934 1192.25 497.509
668 1 33.1387 15.6614 519 153.079 1192.95 519.829
669 0 36.1933 15.6382 566 149.585 1193.36 517.809
670 0 37.3187 16.7744 626 143.013 1193.06 517.038
671 0 38.096 17.1409 653 141.536 1192.03 515.841
672 0 38.1748 17.7866 679 145.588 1192.05 511.853
673 0 41.1522 17.2044 708 143.799 1192.46 510.891
674 0 41.2157 16.1832 667 147.25 1192.35 509.562
675 0 45.2391 16.7775 759 141.688 1193.31 508.368
676 0 45.2516 17.6126 797 142.013 1194.63 507.321
677 0 47.1393 18.0529 851 140.917 1195.9 505.772
678 0 49.3126 16.3853 808 143.889 1197.37 504.493
679 0 50.1593 17.1454 860 140.812 1198.91 504.74
680 0 53.3736 17.3869 928 139.065 1201.57 504.424
681 0 54.3514 16.2093 881 141.556 1202.43 504.447
682 0 57.3753 17.952 1030 136.442 1205.08 504.149
683 0 58.1638 16.9521 986 138.735 1206 504.227
684 0 61.3342 16.1411 990 140.823 1207.16 503.757
685 0 64.4564 16.8486 1086 139.559 1207.67 502.954
686 0 66.2644 16.8567 1117 140.975 1207.82 503.656
687 0 68.3264 17.2261 1177 141.371 1207.12 500.088
688 0 68.3264 17.2115 1176 180.005 1206.14 500.13
689 0 74.1363 16.2269 1203 144.46 1205.07 499.529
690 0 78.281 17.8076 1394 141.43 1204.12 499.597
691 0 80.3818 18.0265 1449 142.24 1202.72 497.708
692 0 83.3251 17.7977 1483 144.31 1202.29 494.86
693 0 87.1921 17.8571 1557 143.675 1200.35 492.374
694 0 91.3238 17.7062 1617 144.554 1199.36 491.164
695 0 93.1077 17.8396 1661 146.655 1197.98 485.794
696 0 97.2531 18.3747 1787 145.321 1197.1 482.772
697 1 51.1705 14.9109 763 153.039 1196.45 503.666
698 0 52.2023 15.4208 805 151.56 1196.26 501.758
699 0 55.08 16.5396 911 150.282 1195.77 498.789
700 0 56.2814 17.3059 974 149.034 1196.35 496.638
701 0 59.4056 16.2443 965 151.319 1196.9 495.344
702 0 60.3777 17.6224 1064 147.649 1197.89 494.381
703 0 61.448 17.0225 1046 150.352 1198.81 491.663
704 0 65.5415 16.3103 1069 149.843 1199.53 492.544
705 0 65.3064 18.4209 1203 147.789 1199.88 489.385
706 0 64.5519 16.7307 1080 157.293 1201.34 488.444
707 0 66.3473 16.8357 1117 158.056 1202.53 489.014
708 0 66.4109 15.4041 1023 163.472 1204.83 489.337
709 0 70.8995 16.1778 1147 159.108 1207.12 488.657
710 0 72.2053 16.7716 1211 157.263 1208.76 490.474
711 0 75.3967 18.5817 1401 152.081 1210.27 488.55
712 1 46.4314 15.8944 738 172.569 1209.27 501.631
713 0 47.0539 15.0253 707 178.74 1210.13 502.076
714 0 47.132 16.1674 762 179.26 1211.23 501.986
715 0 48.232 13.9327 672 179.945 1211.82 502.67
716 0 48.9894 13.0641 640 187.867 1211.47 504.281
717 1 37.315 15.2485 569 175.534 1209.78 509.272
718 0 38.6395 14.6741 567 177.21 1208.53 510.323
719 0 42.0122 15.1147 635 173.496 1206.91 510.195
720 0 43.3928 15.1408 657 173.921 1205.6 508.005
721 0 45.7982 14.6731 672 176.423 1204.36 505.876
722 0 46.6858 16.4932 770 172.062 1202.27 504.177
723 0 47.6628 15.7355 750 174.439 1199.81 501.643
724 0 50.7283 14.7649 749 174.768 1199.32 499.561
725 0 53.4613 16.1051 861 171.134 1198.26 498.434
726 0 54.4511 16.2531 885 169.756 1197.75 497.209
727 0 57.6934 14.8197 855 173.667 1197.54 495.358
728 0 57.3856 16.2933 935 171.373 1196.64 492.97
729 0 60.3587 14.8446 896 174.239 1197.09 490.456
730 0 65.0002 15.8 1027 169.966 1197.66 489.177
731 0 66.7027 15.7565 1051 169.914 1197.31 487.55
732 0 67.5732 14.71 994 174.701 1196.86 485.643
733 1 32.2439 12.7156 410 156.827 1196.93 504.978
734 0 34.5186 14.0504 485 151.045 1198.05 504.05
735 0 37.3545 15.045 562 147.08 1199.84 504.158
736 0 36.4258 13.15 479 152.96 1201.4 504.545
737 0 38.0864 14.3621 547 147.358 1203.08 505.437
738 0 40.1053 15.7834 633 142.923 1204.73 505.943
739 0 41.0543 14.4686 594 144.859 1206.23 506.239
740 0 41.0512 14.4941 595 146.582 1207.41 506.494
741 0 44.1485 14.4286 637 146.03 1208.28 508.592
742 0 45.0875 14.4608 652 148.951 1207.62 508.735
743 0 47.1987 15.3394 724 145.044 1206.37 509.493
744 0 49.1539 15.1768 746 146.981 1204.94 509.879
745 0 51.1788 16.0223 820 143.555 1202.95 510.615
746 0 53.136 15.9214 846 147.071 1201.21 509.007
747 0 54.1595 15.7128 851 150.006 1199.52 508.565
748 0 57.1161 15.4597 883 149.969 1198.89 506.874
749 0 60.113 15.8535 953 149.606 1197.61 505.919
750 0 61.218 15.5836 954 152.307 1195.22 503.263
751 1 33.0857 11.0622 366 156.683 1193.34 517.642
752 0 32.058 10.325 331 158.178 1192.63 517.737
753 0 35.0552 13.493 473 151.632 1192.78 515.036
754 0 37.0268 13.9359 516 150.93 1191.79 512.793
755 0 37.0248 12.6942 470 154.479 1192.14 512.026
756 0 38.0144 14.7312 560 149.625 1191.95 509.214
757 0 40.0934 13.4187 538 152.186 1191.64 507.758
758 0 41.0078 14.6314 600 147.013 1192.07 506.208
759 0 43.1485 14.8093 639 146.825 1192.1 504.595
760 0 43.1007 13.6193 587 149.48 1193.33 503.451
761 0 44.0156 13.8814 611 148.079 1194.07 503.288
762 0 47.0393 13.797 649 146.527 1196.22 502.501
763 0 48.0398 15.1125 726 143.694 1197.3 499.964
764 0 51.0275 15.2663 779 142.177 1199.3 499.951
765 0 53.0333 14.3495 761 145.382 1200.7 498.725
766 0 55.0485 14.0058 771 147.457 1203.21 499.887
767 0 58.0478 15.3494 891 142.331 1203.92 499.837
768 0 60.0628 14.4349 867 144.965 1205.87 498.504
769 1 33.0371 12.4406 411 146.185 1205.29 511.912
770 0 34.0479 11.5719 394 146.33 1204.8 513.49
771 0 36.0934 11.9135 430 146.24 1204.45 513.535
772 0 38.01 13.1544 500 141.918 1204.22 514.99
773 0 38.0706 13.0284 496 147.522 1203.21 514.867
774 0 41.1489 13.0988 539 144.102 1202.16 512.978
775 0 41.0282 12.4061 509 135.923 1201.27 512.401
776 0 44.084 13.2021 582 132.464 1199.51 512.438
777 0 47.1375 13.3015 627 130.722 1198.43 510.782
778 0 48.0853 12.0203 578 134.841 1196.25 508.128
779 0 51.114 13.7731 704 130.632 1194.63 507.159
780 0 51.0624 12.8079 654 134.209 1193.75 504.44
781 0 54.1307 12.8024 693 132.968 1193.16 503.385
782 0 55.0721 12.2748 676 134.778 1192.78 501.133
783 0 56.1897 13.0629 734 133.148 1192.7 500.511
784 0 61.0793 14.3256 875 129.368 1192.9 499.032
785 0 59.1497 12.0373 712 136.795 1192.46 497.001
786 1 33.0252 11.8092 390 124.741 1193.16 511.636
787 0 32.1151 12.7977 411 123.209 1193.27 511.762
788 0 35.045 13.8679 486 119.111 1195.37 511.885
789 0 35.0126 12.824 449 124.842 1196.32 511.22
790 0 35.0661 13.2607 465 124.643 1197.5 511.108
791 0 38.0334 13.8299 526 121.357 1200.21 511.112
792 0 38.0709 13.6062 518 124.929 1201.15 511.085
793 0 40.0381 12.7379 510 124.655 1203.23 512.643
794 0 41.0529 13.7627 565 124.501 1204.15 512.94
795 0 40.0841 12.349 495 128.533 1204.52 514.65
796 0 44.0286 14.3316 631 125.177 1205.14 514.276
797 0 46.0804 14.6483 675 124.569 1204.44 515.788
798 0 46.1943 14.9152 689 126.438 1204.13 515.118
799 0 50.2195 13.8791 697 127.192 1202.9 517.739
800 0 51.1554 14.4266 738 129.136 1201.42 517.062
801 0 51.2076 13.3183 682 135.147 1199.61 515.982
802 0 55.0643 14.819 816 129.403 1198.33 514.154
803 0 56.0724 14.3743 806 132.809 1196.42 512.261
804 1 32.0295 11.9577 383 127.567 1194.74 524.212
805 0 29.0812 11.5538 336 132.321 1192.36 524.033
806 0 30.0304 11.9212 358 132.338 1191.69 522.589
807 0 32.0563 11.355 364 135.786 1190.61 520.082
808 0 35.0579 13.1782 462 134.483 1190.6 517.435
809 0 35.0503 14.6647 514 131.037 1190.61 515.381
810 0 35.1217 14.1793 498 133.211 1190.69 513.568
811 0 37.0361 14.6074 541 130.854 1190.66 512.529
812 0 39.0424 13.575 530 133.449 1191.48 511.251
813 0 39.0194 14.5056 566 131.968 1191.66 509.638
814 0 40.0178 13.419 537 131.696 1192.95 508.011
815 0 41.1256 13.6168 560 128.821 1194.17 508.088
816 0 43.1871 14.8424 641 126.679 1194.91 505.574
817 0 44.0706 14.2045 626 129.383 1196.05 505.339
818 0 46.0809 14.1056 650 127.571 1197.78 505.889
819 0 46.0863 13.9087 641 127.044 1199.46 505.442
820 0 48.1358 14.376 692 127.929 1200.81 503.724
821 0 51.3726 13.6454 701 128.046 1202.24 504.114
822 0 55.1341 13.8027 761 126.873 1203.66 504.268
823 0 58.2727 14.8955 868 122.499 1204.45 504.598
824 1 27.0128 10.7356 290 128.872 1205.16 518.724
825 0 31.0382 10.632 330 127.533 1203.85 518.915
826 0 30.1009 11.6276 350 127.617 1202.88 518.851
827 0 32.0327 11.8004 378 127.463 1202.67 519.436
828 0 34.0669 13.8551 472 124.466 1201.11 517.254
829 0 36.0659 12.0613 435 128.313 1200.32 517.028
830 0 36.075 13.3888 483 126.228 1200.31 515.849
831 0 39.0532 13.6993 535 123.021 1198.27 514.561
832 0 40.0163 12.6449 506 126.67 1196.24 513.512
833 0 41.0286 13.4784 553 125.438 1195.4 511.34
834 0 44.041 12.8744 567 126.915 1194.68 510.101
835 0 42.029 13.3003 559 127.789 1194.35 508.091
836 0 46.0397 14.9436 688 119.69 1194.09 507.265
837 0 48.0376 14.3221 688 120.708 1193.66 505.717
838 0 48.0495 14.7556 709 118.719 1194.25 504.147
839 0 48.1025 14.1157 679 120.806 1194.62 503.224
840 0 52.0692 14.8456 773 118.382 1195.31 501.708
841 0 53.0352 14.0096 743 122.606 1195.98 500.817
842 0 55.0976 14.8827 820 120.38 1195.8 500.007
843 0 58.0755 16.0136 930 119.029 1196.82 499.688
844 0 59.1211 15.7643 932 120.633 1199.38 498.878
845 0 61.1066 15.6939 959 121.377 1200.48 499.823
846 0 64.1976 15.499 995 122.477 1202.15 498.593
847 1 32.0105 10.6215 340 128.115 1204.37 515.532
848 0 34.03 12.9885 442 124.572 1205.06 515.292
849 0 34.0218 10.699 364 131.385 1206.54 516.393
850 0 36.0265 12.5463 452 128.735 1205.67 516.954
851 0 36.0644 13.9196 502 128.805 1205.52 517.671
852 0 38.17 13.4399 513 129.891 1204.41 519.3
853 0 42.2848 13.3854 566 129.67 1203.17 519.2
854 0 41.0972 13.9425 573 131.693 1201.41 518.464
855 0 43.1198 13.5901 586 131.172 1199.37 518.616
856 0 43.1198 13.6828 590 165.181 1197.39 518.671
857 0 48.1048 14.6347 704 123.294 1195.98 515.754
858 0 49.0621 14.981 735 124.567 1195.1 513.939
859 0 50.0945 13.9736 700 125.946 1194.23 513.701
860 0 52.0568 14.1 734 128.24 1192.63 510.144
861 0 54.0949 15.0476 814 125.418 1192.49 507.377
862 0 58.0439 14.713 854 122.714 1191.84 506.958
863 0 59.203 15.2864 905 121.639 1191.57 504.577
864 1 31.0319 11.5365 358 126.838 1192.05 516.29
865 0 32.017 11.8062 378 128.159 1191.66 514.183
866 0 33.0265 12.5354 414 126.403 1191.65 513.756
867 0 34.1161 11.4902 392 127.342 1192.48 513.222
868 0 34.0172 12.4055 422 124.547 1192.22 510.967
869 0 37.0318 12.8268 475 120.12 1193.21 510.632
870 0 38.069 13.1603 501 120.447 1194.72 510.096
871 0 39.0372 13.7049 535 119.417 1196.41 510.178
872 0 41.0242 13.6748 561 120.114 1196.78 509.601
873 0 42.0849 14.4232 607 118.61 1198.51 508.746
874 0 43.1201 14.1001 608 121.184 1199.85 509.655
875 0 45.1285 14.0931 636 119.079 1200.27 509.714
876 0 47.07 15.4663 728 115.555 1201.84 509.875
877 0 49.2371 14.8262 730 117.338 1202.48 509.111
878 0 51.1102 15.0264 768 118.467 1202.59 509.595
879 0 53.0927 14.9173 792 120.47 1202.61 507.941
880 0 55.0628 14.8376 817 119.546 1201.9 508.931
881 0 56.028 14.3857 806 123.014 1200.13 507.722
882 0 59.2914 14.083 835 122.492 1199.2 506.087
883 0 61.0553 14.3313 875 123.973 1197.87 504.466
884 1 32.0304 10.6149 340 119.491 1197.16 520.679
885 0 33.0444 11.1668 369 121.455 1195.43 518.184
886 0 34.0071 11.7623 400 119.5 1194.18 514.5
887 0 35.1137 12.0466 423 116.998 1192.89 514.532
888 0 36.0282 12.8788 464 116.95 1191.29 511.571
889 0 39.0557 13.4424 525 113.971 1190.57 511.063
890 0 40.1749 14.2875 574 113.5 1190.45 508.486
891 0 39.2089 13.2368 519 118.711 1190.7 507.455
892 0 39.253 12.8907 506 118.358 1191.45 507.014
893 0 45.126 14.0496 634 110.535 1192.07 504.669
894 0 43.1308 13.5634 585 113.475 1192.86 502.761
895 0 45.1753 14.2113 642 111.921 1193.55 500.696
896 0 46.2174 13.6312 630 112.383 1194.66 499.757
897 0 49.0928 14.0754 691 109.59 1195.82 498.583
898 0 50.0371 14.5692 729 107.872 1197.24 498.782
899 0 55.0591 15.0021 826 104.702 1198.23 498.516
900 0 55.0988 15.6809 864 104.645 1201.08 497.574
901 0 57.0521 13.6717 780 106.547 1203.15 500.55
902 0 60.0675 15.2828 918 103.661 1204.28 499.188
903 0 61.064 14.0181 856 104.939 1205.33 501.113
904 0 66.1157 13.5974 899 105.006 1207.04 500.846
905 0 69.2803 14.4341 1000 102.608 1206.47 501.185
906 0 72.2016 14.9166 1077 101.945 1205.74 500.004
907 1 39.0838 11.4881 449 104.087 1204.55 516.301
908 0 41.1125 13.3536 549 102.546 1203.1 516.169
909 0 43.1544 12.7681 551 102.759 1201.31 518.661
910 0 45.1179 14.2516 643 100.166 1199.95 516.23
911 0 45.2432 13.3722 605 100.79 1197.6 514.926
912 0 49.1276 15.0832 741 97.5992 1195.5 512.271
913 0 52.3161 14.0875 737 100.695 1194.83 511.237
914 0 54.095 15.3804 832 99.8834 1193.58 509.364
915 0 55.0884 13.8142 761 104.364 1192 507.02
916 0 56.271 13.5238 761 104.945 1191.7 506.75
917 0 61.5835 14.8741 916 102.321 1191.44 504.223
918 0 63.3057 15.1171 957 104.561 1190.81 500.204
919 0 65.2083 14.6914 958 107.007 1190.92 498.335
920 0 66.3493 14.8909 988 107.694 1191.37 497.865
921 0 70.2824 15.0962 1061 108.634 1192.66 495.939
922 1 35.2057 12.0719 425 109.598 1193.17 512.442
923 0 37.4135 11.8941 445 109.337 1194.89 513.281
924 0 39.208 12.5485 492 109.161 1195.45 511.75
925 0 41.3535 14.5332 601 106.501 1197.04 510.07
926 0 41.2641 13.2803 548 110.474 1198.39 509.442
927 0 45.1865 14.0307 634 108.06 1199.15 510.349
928 0 44.2545 14.3262 634 109.448 1201.44 511.065
929 0 48.3976 14.2156 688 109.872 1203.68 511.366
930 0 49.3643 13.1066 647 114.233 1204.18 512.059
931 0 52.2763 14.2321 744 112.579 1204.75 512.136
932 0 55.495 15.1185 839 110.744 1204.46 511.865
933 0 57.2479 13.2407 758 114.586 1203.59 511.839
934 0 60.5932 13.7474 833 114.478 1202.32 509.813
935 0 63.5767 13.7944 877 113.729 1200.3 508.44
936 0 67.4834 14.7147 993 112.341 1198.65 506.93
937 0 70.4203 15.0667 1061 108.97 1196.73 504.198
938 0 72.5505 15.2583 1107 111.376 1195.3 500.068
939 1 36.423 10.7075 390 115.626 1193.96 518.149
940 0 39.1941 12.1957 478 111.561 1192.34 516.628
941 0 41.2937 12.3748 511 110.92 1191.81 514.773
942 0 42.1946 12.0157 507 111.85 1190.93 512.394
943 0 45.2643 13.0787 592 111.139 1190.12 509.476
944 0 46.3302 13.6844 634 110.909 1189.6 506.855
945 0 48.1862 15.5646 750 106.389 1190.07 503.805
946 0 49.2068 14.0631 692 109.592 1190 502.786
947 0 50.2014 12.7686 641 112.083 1190.21 500.378
948 0 53.3216 14.9283 796 106.359 1191.42 498.657
949 0 54.3083 15.0806 819 107.206 1192.27 496.3
950 0 54.2735 12.9529 703 111.669 1194.06 496.933
951 0 57.2306 14.8522 850 108.42 1195.06 495.049
952 0 61.419 13.8719 852 108.209 1196.33 494.977
953 0 64.28 14.4524 929 107.054 1198.48 495.442
954 0 67.6104 15.2639 1032 107.228 1200.77 493.623
955 0 67.4975 13.8524 935 112.043 1202.17 493.53
956 0 71.3766 14.1503 1010 112.412 1203.94 493.246
957 0 74.5278 14.1558 1055 112.619 1205.52 493.648
958 0 77.4169 15.4359 1195 111.451 1206.46 491.5
959 1 40.1725 9.85748 396 116.222 1207.27 512.197
960 0 45.1265 11.7669 531 114.314 1206.69 511.734
961 0 46.3299 11.8714 550 115.556 1206.16 511.6
962 0 47.1587 12.9138 609 114.197 1205.43 512.422
963 0 49.1346 12.7609 627 116.206 1203.98 511.048
964 0 51.1718 12.077 618 117.663 1202.27 512.136
965 0 55.2203 14.2158 785 111.859 1200.82 508.946
966 0 54.0861 12.9054 698 116.722 1198.84 507.09
967 0 60.0849 14.5294 873 110.538 1196.34 505.053
968 0 60.3319 12.5473 757 115.934 1195.42 503.05
969 0 62.2403 12.2268 761 117.331 1194.39 500.452
970 0 66.2218 12.2165 809 116.965 1193.97 496.78
971 1 33.1036 7.21976 239 117.983 1194.18 510.582
972 0 34.0959 6.07111 207 118.952 1194.54 510.275
973 0 36.1785 8.29222 300 114.71 1194.28 509.057
974 0 40.08 9.93014 398 109.181 1194.58 509.269
975 0 41.2811 11.676 482 108.203 1194.53 506.463
976 0 44.0603 13.0276 574 104.286 1194.64 506.246
977 0 43.0475 12.2887 529 109.078 1195.59 504.229
978 0 46.0908 11.0434 509 109.927 1195.68 505.193
979 0 46.1489 11.3329 523 110.338 1196.9 504.325
980 0 49.0901 11.815 580 108.774 1199.28 504.402
981 0 49.1695 11.857 583 110.153 1201.27 503.189
982 0 51.1565 12.061 617 109.335 1202.51 504.032
983 0 55.2046 14.2561 787 104.546 1203.89 502.611
984 0 56.163 12.5349 704 108.689 1204.97 503.246
985 0 58.1249 13.0581 759 108.52 1207.17 502.125
986 0 62.2148 12.5051 778 108.458 1207.84 503.123
987 0 63.3375 12.3623 783 109.741 1207.63 503.433
988 0 66.1357 14.5912 965 107.314 1206.86 501.969
989 1 36.1927 10.3059 373 107.255 1205.96 519.271
990 0 38.3588 10.6625 409 108.758 1204.75 518.105
991 0 40.2374 10.9848 442 106.81 1202.68 517.683
992 0 42.1041 11.1153 468 107.1 1201.22 517.705
993 0 42.2281 11.4142 482 109.643 1200.41 514.627
994 0 43.1036 12.644 545 108.119 1197.57 512.229
995 0 47.0862 13.4647 634 105.405 1196.44 511.56
996 0 48.1224 13.902 669 106.233 1195.31 509.528
997 0 50.1789 12.2761 616 110.713 1194.41 508.153
998 0 50.1314 11.5497 579 112.611 1194.23 505.699
999 0 53.0953 13.0143 691 109.608 1193.23 503.177
1000 0 56.2758 13.0251 733 108.724 1193.66 502.505
1001 0 56.3465 13.8607 781 107.504 1194.22 501.225
1002 0 59.3335 13.4157 796 107.85 1195.37 499.148
1003 1 31.1906 10.3877 324 108.049 1195.56 510.852
1004 0 33.2385 10.9812 365 104.09 1195.18 511.756
1005 0 31.3338 10.7552 337 106.297 1196.42 510.887
1006 0 34.2502 12.8466 440 105.727 1197.18 508.252
1007 0 34.1491 11.157 381 107.958 1198.03 508.399
1008 0 36.1438 11.7309 424 105.733 1200.27 509.507
1009 0 38.0852 13.0234 496 104.784 1202.12 508.641
1010 0 39.365 13.4383 529 105.786 1203.91 507.875
1011 0 41.167 13.6517 562 106.068 1206.03 509.37
1012 0 44.2357 13.5863 601 105.399 1206.58 509.526
1013 0 45.0537 14.0277 632 105.47 1208.25 510.87
1014 0 46.104 14.3588 662 107.495 1207.53 509.128
1015 0 48.1911 15.1688 731 106.639 1207.41 511.48
1016 0 50.1844 14.4866 727 107.761 1205.47 510.813
1017 0 51.0958 14.6392 748 109.346 1205.18 510.394
1018 0 53.0774 14.3941 764 110.755 1203.33 510.45
1019 0 56.1078 16.0405 900 107 1201.83 508.561
1020 0 58.109 15.3505 892 108.567 1199.91 508.169
1021 0 60.1408 15.6466 941 107.7 1198.75 507.046
1022 0 63.2395 14.6902 929 108.983 1197.49 504.957
1023 0 63.1023 13.9139 878 112.337 1196.63 502.714
1024 0 63.1023 13.9298 879 157.659 1194.62 502.677
1025 1 34.1078 11.4636 391 112.708 1193.9 514.463
1026 0 37.0915 12.941 480 109.696 1194.03 511.873
1027 0 40.1334 13.3056 534 106.672 1194.05 510.133
1028 0 39.0877 13.0476 510 109.51 1194.4 508.865
1029 0 40.1159 12.7879 513 109.936 1194.78 507.873
1030 0 42.1369 13.5036 569 109.165 1196.32 506.007
1031 0 42.1985 13.8156 583 108.895 1196.89 504.726
1032 0 44.1794 14.5769 644 107.169 1197.24 503.481
1033 0 44.0788 14.9959 661 107.061 1198.09 503.676
1034 0 47.0538 13.8352 651 107.819 1199.27 502.639
1035 0 47.1195 14.1555 667 108.349 1200.1 502.762
1036 0 49.0674 13.777 676 108.246 1202.1 503.8
1037 0 49.186 13.9877 688 108.853 1204.29 504.538
1038 0 51.1155 15.9443 815 106.123 1206.41 504.658
1039 0 53.0788 14.9212 792 106.01 1208.34 506.922
1040 0 55.1336 14.9818 826 107.139 1208.85 506.534
1041 0 56.1229 15.2523 856 107.489 1209.29 507.086
1042 0 56.1098 15.6835 880 106.427 1208.47 508.24
1043 0 58.1165 15.6066 907 107.808 1206.98 507.853
1044 0 58.2249 14.6157 851 111.099 1206.27 508.485
1045 0 60.0997 15.4577 929 109.527 1204.14 509.125
1046 0 63.1332 16.4573 1039 107.847 1202.6 506.208
1047 0 62.0835 14.4483 897 112.829 1200.82 506.052
1048 0 65.067 16.1372 1050 107.665 1200.03 506.063
1049 0 68.0657 16.44 1119 107.853 1197.79 502.513
1050 0 66.0853 15.6616 1035 111.22 1196.69 500.336
1051 0 71.1069 16.1588 1149 108.867 1195.83 498.975
1052 0 71.1301 17.2079 1224 107.417 1195.3 497.199
1053 0 73.1005 17.0997 1250 106.952 1194.92 495.601
1054 0 72.2555 16.1372 1166 110.376 1194.41 492.215
1055 0 73.1384 16.8448 1232 109.998 1194.15 490.261
1056 0 74.1267 17.0519 1264 109.433 1194.22 489.726
1057 0 76.1281 16.6167 1265 108.462 1194.46 490.385
1058 0 76.1439 16.4031 1249 110.198 1194.51 488.082
1059 0 79.3057 17.9306 1422 106.602 1195.35 485.887
1060 0 80.125 17.5351 1405 106.571 1196.73 484.742
1061 0 82.1732 16.4287 1350 107.809 1197.95 484.933
1062 0 83.3683 16.9129 1410 106.712 1199.55 484.109
1063 0 86.2176 17.0267 1468 105.52 1202.28 484.483
1064 0 85.2032 16.8304 1434 106.642 1204.57 483.792
1065 0 89.2137 17.587 1569 104.092 1206.08 484.087
1066 0 89.1886 15.4056 1374 108.966 1207.67 485.523
1067 0 88.2296 16.6497 1469 107.383 1209.05 484.224
1068 0 91.2177 15.4685 1411 108.374 1208.37 485.269
1069 0 91.1531 15.5014 1413 108.106 1208.86 485.895
1070 0 93.3018 15.5088 1447 107.932 1207.88 486.169
1071 0 94.1378 16.3271 1537 107.707 1206.45 485.79
1072 0 96.1464 15.6948 1509 107.953 1205.39 487.111
1073 0 97.2948 16.0851 1565 107.574 1203.31 486.396
1074 0 99.2655 16.4005 1628 107.754 1202.21 484.188
1075 0 100.182 15.5617 1559 108.441 1201.17 485.657
1076 0 101.288 17.4946 1772 105.437 1199.57 484.062
1077 0 99.4295 17.6406 1754 110.052 1198.19 482.245
1078 0 92.1788 18.7787 1731 115.57 1197.04 484.316
1079 0 88.2968 17.4525 1541 123.316 1195.63 485.567
1080 0 86.3165 17.9456 1549 122.269 1195.1 488.618
