time division length width area intensity CMx CMy
0 0 34.1734 14.046 480 116.86 1197.63 491.873
1 0 36.2858 13.9173 505 117.82 1196.82 492.396
2 0 36.2858 13.9173 505 137.317 1195.82 492.396
3 0 35.3463 11.4864 406 123.776 1197.22 491.113
4 0 37.3029 12.5728 469 120.808 1197.41 491.768
5 0 39.3066 13.3057 523 116.776 1198.42 491.063
6 0 39.3066 13.3311 524 132.641 1199.44 491.172
7 0 39.3003 13.5368 532 120.408 1197.84 489.242
8 0 41.3484 13.0114 538 118.201 1198.34 490.186
9 0 41.3462 14.4149 596 118.235 1198.04 487.53
10 0 41.5057 13.1307 545 121.072 1198.29 487.796
11 0 43.3203 12.2114 529 123.832 1197.88 487.682
12 0 44.3606 13.5932 603 119.892 1198.44 487.244
13 0 45.2785 14.2672 646 117.289 1198.4 486.666
14 0 45.3252 12.4213 563 122.25 1198.41 485.886
15 0 47.3026 13.7625 651 119.249 1197.92 485.103
16 0 47.2283 11.7938 557 123.461 1197.54 486.35
17 0 49.2718 13.2936 655 119.634 1197.6 486.203
18 0 52.3349 13.8149 723 118.877 1197.57 484.714
19 0 54.4075 14.4649 787 117.427 1198.3 483.018
20 0 54.3943 14.2294 774 118.645 1197.65 483.553
21 0 55.3142 14.029 776 119.534 1198.33 482.751
22 0 55.2876 13.8367 765 119.333 1199.48 482.299
23 0 58.2792 14.7222 858 117.519 1199.9 481.64
24 0 59.2775 15.8576 940 116.33 1200.03 479.24
25 0 61.2328 15.6779 960 116.306 1200.1 478.839
26 0 64.2612 15.8416 1018 115.209 1200.77 479.198
27 0 65.1998 14.6473 955 116.375 1200.19 479.005
28 0 66.3559 15.025 997 117.368 1200.33 477.514
29 1 35.0722 10.6922 375 120.461 1199.75 492.605
30 0 36.0469 11.2908 407 116.71 1199.21 492.312
31 0 38.0363 10.4374 397 117.763 1199.91 492.008
32 0 39.075 11.5931 453 116.574 1200.3 491.66
33 0 39.0416 12.8068 500 114.352 1200.87 489.69
34 0 40.074 11.2791 452 117.283 1201 488.604
35 0 43.1077 12.7819 551 113.744 1200.85 488.644
36 0 44.052 12.9166 569 113.627 1201.15 487.919
37 0 45.0442 13.2759 598 113.326 1201.55 486.661
38 0 47.0813 14.7192 693 109.475 1202.37 486.157
39 0 47.1923 14.2184 671 110.897 1202.63 485.459
40 0 49.2681 14.4312 711 110.473 1203.47 485.283
41 0 51.2041 13.7098 702 110.956 1203.96 485.295
42 0 53.2433 15.6076 831 106.462 1203.94 485.949
43 0 53.1632 17.5497 933 104.736 1203.83 482.337
44 0 55.2784 15.0149 830 107.849 1203.71 483.849
45 0 57.2193 16.2533 930 106.02 1203.82 482.162
46 0 58.2049 15.5142 903 105.919 1203.83 484.208
47 0 61.2601 17.2706 1058 102.133 1203.76 480.74
48 0 64.2675 17.0537 1096 103.186 1204.32 481.005
49 0 67.3537 15.7824 1063 103.926 1203.8 481.361
50 0 67.2374 16.4789 1108 103.29 1203.52 478.995
51 0 68.3249 16.2166 1108 104.267 1202.43 479.585
52 0 71.3992 17.073 1219 102.057 1203.17 477.993
53 0 73.3369 16.7174 1226 103.261 1203.23 475.209
54 0 75.4801 16.6401 1256 103.093 1203.53 475.229
55 0 79.2994 16.0026 1269 104.432 1203.4 472.74
56 0 81.1928 16.5655 1345 104.602 1202.85 471.494
57 0 83.2384 15.9902 1331 106.159 1203.63 470.967
58 0 86.3204 16.6589 1438 105.626 1202.97 468.719
59 0 89.3457 15.6359 1397 107.615 1202.71 466.892
60 0 94.3141 19.2442 1815 98.9813 1202.69 467.369
61 1 50.1911 11.0378 554 105.857 1202.13 487.507
62 0 49.1049 10.9561 538 108.301 1202.11 484.6
63 0 52.1419 11.2577 587 105.966 1202.32 486.676
64 0 54.1825 13.7314 744 103.039 1202.23 484.069
65 0 57.2191 14.4532 827 100.287 1201.61 482.883
66 0 58.1431 14.4299 839 100.364 1202.16 479.644
67 0 61.2073 14.8675 910 98.6923 1202.48 479.375
68 0 63.102 14.1675 894 98.7494 1202.55 479.327
69 0 67.1768 15.9281 1070 95.2514 1202.76 477.747
70 0 68.1948 16.5115 1126 96.9609 1201.37 473.782
71 0 71.1456 15.1239 1076 99.4684 1202.54 475.215
72 0 72.293 15.4787 1119 99.8963 1202.02 473.589
73 0 74.2655 13.6268 1012 103.48 1201.36 472.412
74 0 75.5659 14.2922 1080 102.799 1201.98 470.181
75 0 79.3098 15.3449 1217 100.818 1201.75 471.562
76 0 81.3064 16.0873 1308 100.3 1203.66 468.915
77 0 85.3707 16.7388 1429 98.4745 1204.11 468.4
78 1 47.2588 11.1302 526 99.2414 1204.43 488.099
79 0 47.2438 11.1337 526 146.47 1205.41 488.101
80 0 49.0886 12.4265 610 98.6951 1205.6 487.338
81 0 50.1894 11.9946 602 101.01 1206.3 485.985
82 0 51.1592 14.3865 736 98.2582 1204.98 484.904
83 0 53.1147 13.612 723 99.8963 1204.97 484.672
84 0 54.3477 14.1128 767 100.099 1205.16 482.984
85 0 55.3296 13.8082 764 100.165 1205.45 481.836
86 0 58.368 14.203 829 99.9059 1205.92 481.601
87 0 58.2013 14.9309 869 98.7342 1205.65 480.982
88 0 62.0886 14.0766 874 99.7105 1205.72 480.963
89 0 64.1719 14.9442 959 98.4088 1205.13 478.463
90 0 68.3642 15.5491 1063 96.0884 1204.73 478.88
91 0 68.2908 13.7354 938 100.746 1204.52 477.016
92 0 72.3427 16.021 1159 97.1018 1204.45 473.995
93 0 71.3805 13.5471 967 104.62 1204.48 472.266
94 0 76.3702 16.1188 1231 100.496 1205.33 472.903
95 0 80.3083 16.2748 1307 100.904 1205.01 469.031
96 0 80.2728 13.9773 1122 105.459 1205.18 469.941
97 0 85.1964 15.7518 1342 101.863 1204.85 466.96
98 0 87.355 15.5687 1360 102.37 1204.71 466.443
99 1 47.1483 9.73524 459 103.251 1204.54 488.78
100 0 49.2065 12.0106 591 102.142 1205.38 486.022
101 0 50.1465 10.6089 532 103.244 1205.21 487.947
102 0 51.1436 10.754 550 105.022 1205.42 485.96
103 0 54.1741 12.6813 687 103.213 1206.56 485.066
104 0 54.1472 13.7218 743 102.474 1205.91 482.777
105 0 58.2041 14.9302 869 100.466 1205.49 482.505
106 0 60.1392 13.635 820 104.311 1205.6 480.906
107 0 62.2218 15.1233 941 100.812 1206.02 482.088
108 0 64.2364 14.8825 956 103.131 1206.38 479.373
109 0 66.1633 14.6456 969 102.677 1206 480.811
110 0 68.1625 15.287 1042 104.187 1205.93 478.683
111 0 71.1187 15.4249 1097 103.964 1205.98 477.735
112 0 71.2244 14.1524 1008 106.993 1205.59 478.18
113 0 73.2164 14.6962 1076 108.34 1205.17 475.181
114 0 75.1816 14.3652 1080 108.82 1205.46 474.672
115 0 79.1993 15.4799 1226 106.278 1204.89 472.925
116 0 82.1299 17.6671 1451 102.182 1204.48 473.174
117 0 82.2914 14.3514 1181 109.319 1204.3 472.168
118 0 88.1695 17.1601 1513 101.911 1204.03 471.465
119 1 47.0344 12.5015 588 102.153 1202.5 489.818
120 0 46.0699 11.5911 534 103.867 1202.95 490
121 0 50.0376 12.2908 615 102.774 1203.31 489.148
122 0 49.038 11.8684 582 102.844 1203.59 489.399
123 0 53.0718 13.3216 707 100.19 1204.1 487.209
124 0 50.1367 12.2266 613 104.798 1203.69 487.887
125 0 51.2754 11.9355 612 105.858 1203.37 486.972
126 0 53.0643 12.4189 659 104.498 1203.63 485.926
127 0 55.2029 12.5718 694 104.876 1204.1 483.321
128 0 59.31 13.4379 797 101.668 1203.5 485.009
129 0 59.1389 13.6627 808 101.71 1204 483.23
130 0 61.1709 13.9118 851 102.309 1204.99 482.028
131 0 63.3673 11.9147 755 104.575 1205.28 480.784
132 0 67.2178 14.5348 977 99.9918 1205.77 479.329
133 0 67.2178 14.5795 980 140.417 1205.77 479.299
134 0 67.2295 14.6959 988 139.514 1205.8 479.344
135 0 72.3421 11.9847 867 103.205 1205.68 475.914
136 1 40.1812 9.65625 388 95.9278 1205.49 494.657
137 0 39.3066 7.45422 293 98.0887 1205.42 494.553
138 0 42.148 10.5106 443 95.7314 1205.76 492.099
139 0 44.3802 11.3789 505 92.8059 1205.6 491.857
140 0 46.2363 12.3712 572 91.292 1205.95 492.094
141 0 46.2759 10.848 502 95.0279 1205.47 490.566
142 0 46.2839 12.6394 585 93.6513 1205.15 490.716
143 0 49.2236 12.0877 595 93.2857 1204.79 490.242
144 0 51.1906 13.2056 676 91.5858 1204.67 489.837
145 0 52.055 12.5828 655 92.6763 1204.21 487.889
146 0 53.0322 11.8419 628 93.5748 1203.8 488.809
147 0 56.0777 12.2509 687 94.2358 1202.56 485.511
148 0 58.0509 14.2806 829 90.9324 1203.22 484.864
149 0 61.0746 12.542 766 94.0118 1203.21 485.611
150 0 60.048 12.973 779 94.5597 1203.4 484.678
151 0 63.1724 12.8695 813 94.6716 1202.76 482.613
152 0 65.2429 10.2233 667 99.7451 1203.07 482.798
153 0 67.3016 12.3028 828 98.407 1202.49 481.47
154 0 71.1896 13.4851 960 97.6729 1202.44 477.956
155 0 72.1803 12.8982 931 99.9291 1202.2 476.918
156 1 39.028 9.91596 387 94.739 1202.71 496.147
157 0 37.0455 9.42084 349 97.5874 1201.96 495.648
158 0 40.0346 11.9646 479 94.5303 1202.45 493.493
159 0 43.0406 12.8019 551 91.5735 1202.68 494.292
160 0 42.0723 12.6211 531 93.936 1202.37 492.414
161 0 43.2121 11.8022 510 97.1314 1202.38 492.841
162 0 42.2996 11.0403 467 100.767 1204.25 492.315
163 0 43.3655 11.2071 486 101.088 1204.37 491.366
164 0 44.3122 12.3217 546 100.712 1204.75 490.692
165 0 46.3283 12.0876 560 101.325 1204.94 491.039
166 0 48.3615 13.6886 662 99.8595 1204.9 489.5
167 0 49.5258 13.1245 650 101.74 1205.8 489.103
168 0 52.4413 14.111 740 102.027 1204.51 489.568
169 0 52.4356 12.7204 667 105.421 1204.56 488.492
170 0 54.3292 13.3078 723 104.693 1205.32 487.333
171 0 54.3907 13.2192 719 106.477 1205.42 487.431
172 0 58.3061 14.098 822 103.762 1205.63 487.921
173 0 58.419 13.9852 817 105.846 1205.08 485.641
174 0 60.4337 13.4362 812 106.469 1204.56 485.743
175 0 62.3885 14.3456 895 104.896 1203.77 484.372
176 0 65.3435 13.5132 883 106.999 1203.97 484.668
177 0 65.4044 14.632 957 105.975 1204.06 484.066
178 0 67.2356 14.3525 965 107.105 1203.97 482.146
179 0 71.3714 15.3143 1093 104.175 1203.71 482.318
180 1 36.1087 11.0777 400 105.572 1204.73 497.5
181 0 38.048 11.9323 454 103.905 1203.94 497.282
182 0 38.0795 9.95286 379 107.264 1203.96 497.359
183 0 39.0671 12.1586 475 103.739 1204.12 496.556
184 0 40.0271 11.7421 470 102.609 1204.02 496.953
185 0 43.067 11.6098 500 102.706 1203.8 496.232
186 0 41.1488 11.9566 492 105.201 1202.43 494.5
187 0 42.2042 11.9419 504 104.405 1201.77 493.958
188 0 45.3177 13.5047 612 101.807 1201.82 491.828
189 0 46.2128 12.767 590 103.364 1201.52 492.324
190 0 47.2012 13.0082 614 102.658 1201.14 491.746
191 0 49.2339 14.3803 708 102.09 1201.78 488.597
192 0 49.2117 13.3098 655 105.644 1201.23 487.982
193 0 50.1623 13.7354 689 106.08 1201.29 486.804
194 0 52.2194 13.2709 693 107.084 1201.54 486.947
195 0 54.3055 14.2895 776 105.307 1201.65 486.03
196 0 53.2082 14.9037 793 106.777 1201.74 485.542
197 0 57.304 15.1124 866 104.633 1201.89 485.876
198 0 58.2781 14.0018 816 107.768 1202.03 485.609
199 0 60.1851 14.6548 882 109.334 1202.89 482.527
200 0 61.2173 15.2408 933 107.541 1203.36 481.751
201 0 65.2742 14.4927 946 108.86 1204.1 480.778
202 0 67.1413 14.2982 960 108.492 1203.04 482.348
203 0 69.3247 16.4588 1141 104.559 1203.67 479.21
204 1 34.0511 11.5708 394 107.132 1202.35 496.84
205 0 36.0603 10.2329 369 109.089 1202.47 496.726
206 0 37.0453 11.8234 438 105.888 1201.6 496.904
207 0 40.0123 11.3465 454 105.5 1201.73 498.026
208 0 41.0916 13.0684 537 103.756 1202 495.926
209 0 43.1243 12.6147 544 105.439 1202.51 495.204
210 0 43.0584 13.0753 563 104.494 1202.4 496.544
211 0 45.1218 13.7184 619 104.255 1202.65 493.913
212 0 46.0987 14.1002 650 104.315 1202.23 494.334
213 0 49.1735 14.3573 706 102.68 1201.56 494.16
214 0 48.1268 13.2774 639 107.072 1201.79 491.52
215 0 50.0887 13.6757 685 105.339 1201.74 489.999
216 0 51.1028 14.3436 733 105.408 1201.15 491.423
217 0 55.1921 15.3102 845 101.462 1201.13 489.878
218 0 53.1763 12.5244 666 109.192 1200.49 488.719
219 0 58.1748 15.5738 906 102.489 1201.02 487.433
220 0 59.5208 14.0623 837 105.626 1200.8 486.112
221 0 60.22 15.4102 928 103.622 1201.22 484.984
222 0 61.198 14.6573 897 105.567 1201.09 483.541
223 0 63.3822 14.1522 897 104.872 1200.98 483.632
224 0 65.1841 14.973 976 105.322 1200.69 480.661
225 1 35.0946 10.7424 377 106.844 1200.88 497.788
226 0 36.1941 12.0462 436 104.798 1201.2 496.766
227 0 37.1536 11.6005 431 105.629 1201.58 495.968
228 0 39.265 12.2501 481 105.753 1201.36 494.99
229 0 38.1957 12.0694 461 106.44 1201.37 494.308
230 0 40.2235 12.8283 516 104.975 1202.46 494.705
231 0 41.2686 12.9881 536 104.562 1202.67 493.44
232 0 43.3208 14.635 634 101.713 1202.96 491.446
233 0 44.2566 13.6251 603 103.609 1203.04 491.391
234 0 45.2417 12.9747 587 104.709 1202.75 492.479
235 0 47.1881 13.5203 638 104.654 1202.93 491.492
236 0 47.1881 13.6475 644 145.697 1203.95 491.433
237 0 47.1046 14.8606 700 104.604 1203.03 489.51
238 0 48.0917 13.4535 647 108.386 1203.83 490.777
239 0 50.1528 14.2365 714 107.165 1203.4 489.777
240 0 52.0814 14.9189 777 104.181 1203.67 491.284
241 0 54.1554 14.4953 785 106.222 1203.29 489.429
242 0 56.2117 15.2993 860 104.924 1203.09 487.969
243 0 58.1351 15.0167 873 104.215 1202.6 488.845
244 0 59.387 15.138 899 105.178 1202.55 487.289
245 0 61.1562 14.6347 895 105.526 1202.88 484.937
246 0 64.0944 15.68 1005 103.124 1202.94 485.246
247 0 68.1265 15.0162 1023 103.152 1202.58 485.796
248 0 69.2386 14.2984 990 105.334 1201.7 484.116
249 0 69.2386 14.3273 992 145.948 1200.71 484.292
250 1 38.0332 10.9378 416 105.69 1200.49 497.692
251 0 40.1744 10.3798 417 106.261 1199.97 496.343
252 0 43.0478 13.2876 572 101.11 1199.63 495.524
253 0 42.1531 11.1024 468 104.331 1199.27 496.447
254 0 44.1646 14.9894 662 98.6888 1199.9 494.725
255 0 44.1157 12.9659 572 104.392 1199.39 493.11
256 0 47.0335 14.0326 660 100.87 1200.01 490.333
257 0 48.1511 12.8761 620 102.185 1199.96 491.89
258 0 49.2366 13.3031 655 101.183 1200.02 490.472
259 0 51.0886 13.5255 691 99.6527 1200.85 491.472
260 0 53.3023 15.0087 800 97.9712 1201.41 489.245
261 0 54.2243 13.5364 734 102.695 1201.28 487.683
262 0 56.3859 14.8087 835 99.8946 1201.74 487.217
263 0 57.2721 13.5494 776 103.5 1201.97 485.76
264 0 60.2418 14.4086 868 101.906 1202.68 485.038
265 0 62.3426 14.5005 904 102.075 1203.27 483.013
266 0 64.3203 13.7904 887 101.439 1203.35 484.941
267 0 66.3218 15.2288 1010 99.3406 1204 483.144
268 0 67.3865 14.6765 989 102.032 1204.02 481.976
269 0 72.3904 14.8777 1077 100.689 1204.1 481.824
270 0 73.2961 15.6488 1147 100.036 1203.96 481.805
271 0 75.2295 13.8642 1043 103.958 1202.99 478.922
272 0 79.086 15.4262 1220 103.19 1203.18 476.815
273 1 45.0609 12.6939 572 101.517 1202.89 495.841
274 0 44.0645 10.9385 482 107.228 1202.71 495.697
275 0 45.073 11.315 510 107.186 1202.99 496.269
276 0 49.1126 13.52 664 104.492 1202.06 494.592
277 0 50.0799 12.48 625 107.776 1202.23 493.824
278 0 51.2714 13.9844 717 103.929 1201.56 493.031
279 0 53.1587 14.184 754 103.618 1201.34 492.747
280 0 54.209 12.0091 651 108.029 1201.12 492.724
281 0 56.1081 15.3988 864 102.249 1200.75 490.069
282 0 58.1151 14.368 835 105.655 1199.71 488.834
283 0 61.2234 14.5043 888 106.536 1199.4 487.403
284 0 63.0826 13.9817 882 108.841 1199.28 486.276
285 0 65.1794 15.6645 1021 105.93 1199.94 483.229
286 0 67.1774 14.9455 1004 104.855 1199.93 485.09
287 0 70.1592 14.0252 984 108.278 1200 480.525
288 0 71.0908 13.5601 964 109.527 1199.9 479.924
289 0 75.2473 15.0039 1129 106.275 1200.04 477.1
290 1 38.032 10.7804 410 106.949 1200.7 496.002
291 0 42.2091 13.0304 550 102.755 1201.3 493.435
292 0 42.0731 9.88756 416 106.712 1201.48 494.531
293 0 44.0832 12.4084 547 104.046 1202.55 492.636
294 0 43.0678 10.9827 473 106.159 1202.48 493.351
295 0 45.0922 11.3323 511 108.665 1203.4 490.562
296 0 47.0273 12.4608 586 105.007 1203.01 490.52
297 0 48.1452 12.4 597 106.243 1203.69 490.263
298 0 51.1677 13.5632 694 102.873 1204.01 489
299 0 51.1553 12.8237 656 105.46 1204.77 487.588
300 0 56.1919 14.5573 818 99.3203 1204.26 488.795
301 0 55.1269 12.4803 688 104.481 1204.66 488.15
302 0 57.158 13.384 765 103.153 1204.58 487.518
303 0 59.0974 13.537 800 103.319 1204.23 487.349
304 0 62.1665 14.3003 889 100.906 1203.63 487.64
305 0 62.1224 13.8597 861 102.163 1202.76 485.836
306 0 67.2085 13.2573 891 102.46 1202.71 486.145
307 0 71.1678 13.9389 992 100.642 1202.81 484.002
308 0 72.2079 14.9014 1076 99.2946 1202.55 483.597
309 0 74.0948 14.5894 1081 101.475 1202.9 481.957
310 0 75.1516 12.3617 929 106.743 1202.33 480.029
311 1 41.1056 10.4609 430 104.674 1201.62 496.963
312 0 44.0999 10.6576 470 102.821 1201.42 497.687
313 0 46.0439 12.1623 560 100.739 1200.92 494.568
314 0 47.0501 14.1126 664 96.7289 1201.02 493.538
315 0 46.0524 12.7246 586 148.928 1200.92 492.206
316 0 51.0768 14.7817 755 93.6252 1201.55 490.417
317 0 51.1172 12.7746 653 98.2466 1201.89 490.755
318 0 54.023 14.8826 804 94.7811 1201.05 487.588
319 0 55.1504 14.0887 777 96.4504 1201.12 486.503
320 0 56.1126 14.0076 786 96.271 1201.1 485.756
321 0 61.2651 14.7555 904 93.4259 1201.19 485.845
322 0 59.1932 14.3598 850 94.9482 1201.01 483.354
323 0 63.1656 14.8024 935 93.2856 1201.5 481.725
324 0 67.2021 14.568 979 92.6364 1201.74 481.549
325 0 67.3109 12.9845 874 96.6076 1202.27 480.206
326 0 69.1692 13.1995 913 95.943 1202.58 479.116
327 0 72.0952 14.6612 1057 93.21 1203.26 476.917
328 1 39.0484 8.22058 321 93.6262 1201.93 496.234
329 0 38.0274 9.9139 377 93.2918 1202.76 494.844
330 0 41.0827 10.0772 414 91.8913 1202.96 495.13
331 0 42.0522 11.0101 463 93.0864 1203.93 493.292
332 0 42.0392 11.9888 504 93.9425 1203.44 491.577
333 0 42.0392 11.965 503 140.503 1203.44 491.535
334 0 47.0944 11.1266 524 94.2691 1203.56 494.466
335 0 47.1999 14.0678 664 91.3087 1204.77 493.834
336 0 49.127 13.1292 645 92.8465 1204.11 492.857
337 0 50.1625 12.8582 645 95.4558 1203.89 492.527
338 0 53.0709 13.416 712 95.5365 1204.66 491.574
339 0 53.0718 13.8303 734 95.8147 1204.3 491.943
340 0 54.0762 13.1666 712 98.4059 1204.13 490.236
341 0 57.0566 14.4593 825 96.1091 1202.3 489.481
342 0 59.0628 13.511 798 97.8722 1203.03 488.916
343 0 60.1183 14.7709 888 97.509 1202.29 485.161
344 0 64.1392 14.5309 932 96.7607 1202.01 485.282
345 0 65.0659 15.5074 1009 96.4083 1201.75 483.624
346 0 67.0851 14.4145 967 99.1665 1201.45 481.501
347 0 69.1303 15.4491 1068 97.442 1200.62 481.583
348 0 70.1448 14.8692 1043 100.145 1199.69 480.11
349 1 38.0239 11.5717 440 99.5318 1199.84 495.716
350 0 36.0118 9.05259 326 108.19 1201.04 492.276
351 0 38.0809 8.16682 311 105.968 1200.94 494.74
352 0 43.1148 11.7129 505 101.834 1201.07 491.552
353 0 44.0814 11.7964 520 100.969 1201.35 491.612
354 0 46.0684 13.0675 602 98.304 1201.47 490.954
355 0 45.1152 12.9668 585 100.002 1202.21 490.59
356 0 50.134 13.8429 694 98.1888 1202.54 488.785
357 0 50.3125 14.6882 739 96.2138 1203.91 488.892
358 0 51.1911 13.7133 702 99.4074 1204.11 488.635
359 0 51.2569 14.0274 719 100.615 1204.99 488.424
360 0 53.3459 13.6093 726 101.555 1205.51 487.631
361 0 55.3038 15.2973 846 99.5804 1205.9 485.785
362 0 57.1243 15.8427 905 100.522 1205.55 485.713
363 0 58.2069 13.3146 775 104.492 1206.09 486.883
364 0 60.1904 13.64 821 104.976 1205.53 484.884
365 0 62.1834 13.7657 856 104.384 1205.33 485.942
366 0 66.3105 14.975 993 100.714 1205.08 485.29
367 0 68.2912 15.185 1037 101.191 1204.69 485.972
368 0 71.2928 16.3832 1168 99.7389 1204.56 482.95
369 0 73.1969 14.1809 1038 105.625 1203.82 483.644
370 0 76.2466 15.9876 1219 102.34 1203.69 480.737
371 1 39.1384 11.2422 440 105.211 1201.87 499.307
372 0 42.2538 11.9279 504 105.603 1201.65 497.204
373 0 43.0961 11.7644 507 106.408 1202.26 496.296
374 0 44.1507 11.5287 509 105.821 1201.6 496.116
375 0 46.1994 12.3162 569 104.687 1201.05 494.453
376 0 47.1583 11.1963 528 105.447 1200.37 494.142
377 0 49.2692 13.3958 660 102.624 1199.85 491.639
378 0 51.177 12.5252 641 104.518 1199.33 490.119
379 0 51.2453 12.9768 665 103.764 1200.06 489.377
380 0 53.1934 15.8666 844 98.1078 1200.66 487.474
381 0 54.1454 13.0944 709 103.867 1200.55 487.166
382 0 57.4138 14.8571 853 100.928 1200.9 484.041
383 0 57.1658 14.2568 815 101.491 1201 484.456
384 0 61.2543 14.5949 894 100.829 1202.05 483.925
385 0 61.1278 14.1343 864 102.794 1202.97 481.619
386 0 64.1084 14.4755 928 101.448 1203.17 482.073
387 0 65.148 14.9506 974 101.586 1203.6 480.401
388 0 69.2684 15.6348 1083 98.3426 1204.41 479.234
389 0 70.1132 15.9742 1120 98.2125 1204.9 480.269
390 0 71.2096 15.2367 1085 101.081 1205.28 476.997
391 0 71.0766 14.4492 1027 104.145 1205.69 476.166
392 0 77.1727 15.9901 1234 99.56 1205.85 477.725
393 0 78.1626 15.3142 1197 101.802 1206.26 473.434
394 0 81.1953 15.7152 1276 100.642 1206.17 475.296
395 0 84.1113 15.2893 1286 101.78 1205.91 474.437
396 0 86.184 14.3994 1241 104.565 1206.29 473.671
397 0 91.1049 16.728 1524 99.311 1205.24 473.25
398 0 93.1782 15.5401 1448 102.813 1204.71 472.204
399 1 52.1658 11.981 625 103.258 1204.35 493.155
400 0 55.2045 12.3359 681 101.113 1204.27 494.327
401 0 55.1458 12.2403 675 102.265 1203.96 492.653
402 0 58.1571 12.621 734 102.61 1203.18 491.24
403 0 61.1368 14.8847 910 98.1341 1203.51 489.457
404 0 63.1193 14.6865 927 98.2265 1202.91 488.711
405 0 64.0932 14.7285 944 99.0191 1202.59 487.006
406 0 66.1958 14.0341 929 101.425 1202.28 482.379
407 0 70.069 16.1555 1132 97.0495 1201.93 480.153
408 0 73.0908 15.857 1159 95.7938 1202.58 481.336
409 0 73.1214 13.5665 992 101.803 1202.12 479.36
410 0 76.1312 15.0398 1145 99.71 1201.54 475.634
411 0 78.2645 13.6205 1066 103.145 1200.77 474.213
412 1 43.0877 10.5599 455 101.6 1200.33 491.508
413 0 47.0663 10.6021 499 103.387 1200.79 487.228
414 0 50.0538 10.9282 547 100.53 1201.03 490.238
415 0 52.0475 12.1043 630 100.929 1201.47 488.468
416 0 52.0872 13.1318 684 101.719 1202.45 486.061
417 0 55.0927 13.4319 740 100.127 1204.04 485.657
418 0 57.0227 15.5201 885 96.5559 1204.68 487.101
419 0 60.0321 14.3423 861 99.5331 1206.9 484.905
420 0 60.1726 13.3782 805 103.271 1206.95 484.711
421 0 62.0958 15.6371 971 100.492 1207.56 483.126
422 0 65.2724 13.5739 886 103.826 1207.26 483.304
423 0 66.1955 14.8349 982 102.908 1207.75 482.909
424 0 68.2936 13.2516 905 106.746 1206.66 481.806
425 0 71.244 14.8925 1061 103.923 1206.81 482.494
426 0 73.1787 14.7584 1080 104.054 1207.39 481.153
427 0 76.1293 15.3555 1169 102.063 1206.12 481.226
428 0 77.1491 14.7766 1140 104.684 1205.72 480.245
429 0 81.1161 14.6087 1185 104.112 1205.2 478.415
430 0 85.1571 15.0898 1285 102.308 1204.62 478.397
431 0 88.2414 14.3357 1265 104.209 1203.59 475.664
432 0 92.1147 15.8607 1461 101.876 1203.36 471.221
433 0 96.1387 14.4791 1392 104.236 1203.1 471.033
434 0 98.1695 15.7381 1545 103.576 1202.06 469.653
435 0 101.57 15.5163 1576 104.19 1201.12 467.695
436 0 104.288 14.5559 1518 106.646 1200.83 465.011
437 0 109.344 17.9251 1960 100.328 1200.02 461.972
438 0 111.344 14.1722 1578 107.79 1200.1 460.447
439 0 115.29 15.5694 1795 106.1 1199.03 456.489
440 0 121.325 16.6495 2020 103.533 1199.94 452.409
441 0 126.371 16.7998 2123 102.407 1199.97 450.587
442 1 66.2412 11.4732 760 105.788 1200.2 481.141
443 0 68.2496 11.7803 804 106.404 1201.47 479.26
444 0 70.2161 12.6609 889 105.295 1202.23 478.598
445 0 72.3131 13.7596 995 103.008 1202.8 476.534
446 0 73.1758 14.0484 1028 104.723 1203.05 476.536
447 0 77.1709 15.9127 1228 101.226 1204.36 475.264
448 0 81.3367 15.7494 1281 101.456 1206.17 474.304
449 0 83.3503 14.589 1216 103.391 1206.43 474.377
450 0 87.4693 15.5826 1363 101.584 1207.05 471.464
451 0 88.4955 14.8482 1314 104.415 1207.78 470.674
452 0 92.4354 15.8381 1464 103.572 1208.47 468.458
453 0 93.4022 13.8648 1295 107.998 1208.5 468.982
454 0 97.5693 14.9637 1460 107.118 1207.68 466.533
455 0 103.401 15.9185 1646 105.407 1207.39 464.845
456 1 44.1925 10.7484 475 102.446 1207.37 495.491
457 0 47.2801 12.1616 575 100.19 1206.89 495.419
458 0 47.0958 11.1263 524 101.214 1206.35 496.966
459 0 49.0821 12.53 615 98.2553 1204.92 493.171
460 0 51.1821 12.3872 634 99.0252 1204.62 492.94
461 0 52.1974 12.6635 661 99.2693 1204.14 491.77
462 0 55.1702 13.7393 758 96.6768 1202.99 492.719
463 0 56.2732 12.0128 676 99.8772 1201.25 490.895
464 0 59.1818 12.1659 720 99.6444 1200.66 489.064
465 0 61.1936 12.8281 785 98.2917 1200.35 485.941
466 0 63.1945 11.9947 758 100.479 1199.9 485.459
467 0 65.3911 13.2587 867 99.3045 1198.51 482.618
468 0 68.4906 12.6149 864 100.535 1198.32 479.914
469 0 71.3653 12.2609 875 100.571 1198.13 478.597
470 0 74.4233 12.8051 953 100.438 1197.67 476.349
471 1 40.1238 9.99406 401 99.7456 1198.41 492.504
472 0 43.1106 12.0388 519 95.183 1198.87 491.191
473 0 46.0697 13.6098 627 92.4721 1199.43 491.714
474 0 45.3891 12.2496 556 96.8399 1200.9 488.727
475 0 44.31 11.239 498 100.319 1201.38 487.38
476 0 49.254 13.3593 658 90.7249 1202.82 489.965
477 0 49.2532 11.9992 591 93.0863 1203.37 488.514
478 0 51.2987 12.32 632 91.9367 1204.61 488.384
479 0 52.2059 13.1978 689 91.7213 1206.46 487.975
480 0 53.3361 12.9181 689 93.5094 1206.98 487.242
481 0 55.1819 12.5585 693 93.9538 1207.97 486.899
482 0 57.1318 12.3924 708 95.7359 1208.7 487.387
483 0 59.1096 13.5342 800 93.9938 1208.98 486.464
484 0 60.1282 12.9723 780 95.2026 1208.57 487.565
485 0 63.1164 13.895 877 94.0673 1208.3 487.101
486 0 65.1061 13.4857 878 95.9123 1207.54 485.159
487 0 66.2462 13.3291 883 97.479 1206.66 485.989
488 0 69.1356 13.7266 949 97.196 1205.9 485.217
489 0 73.118 14.8253 1084 93.9982 1204.95 484.899
490 0 75.1192 14.6035 1097 93.876 1204.43 484.318
491 1 40.0308 10.4919 420 91.2595 1203.64 502.464
492 0 39.0988 9.2586 362 92.326 1202.81 501.561
493 0 42.083 11.2159 472 90.5742 1201.89 499.686
494 0 44.2082 10.9482 484 91.0455 1200.71 497.564
495 0 46.2025 12.2071 564 89.6241 1200.43 495.557
496 0 46.1045 13.6429 629 91.4436 1199.72 492.382
497 0 49.0356 12.1952 598 91.0987 1198.06 490.037
498 0 49.1903 12.8277 631 90.141 1198.59 490.694
499 0 50.1556 12.2419 614 95.0472 1198.33 488.265
500 0 52.1801 13.6642 713 93.4656 1198.26 486.707
501 0 53.1454 13.9805 743 92.3149 1198.57 485.74
502 0 53.2203 13.6414 726 93.4669 1199.53 485.189
503 0 54.2696 12.8064 695 96.0892 1200.25 482.511
504 0 58.2698 13.5405 789 93.8403 1201.78 483.304
505 0 61.2812 14.7517 904 90.8717 1203.11 483.514
506 0 61.2389 12.786 783 94.0856 1204.66 482.874
507 0 63.4204 14.6798 931 90.4597 1205.4 481.712
508 0 64.2709 14.1899 912 92.8882 1207.21 480.569
509 0 67.2405 15.1694 1020 90.7373 1207.41 479.535
510 0 70.324 16.1254 1134 88.1711 1209.12 482.159
511 0 71.2777 13.6929 976 93.4723 1209.27 479.473
512 1 39.0822 11.1816 437 90.0458 1210.76 499.178
513 0 41.0272 11.7239 481 88.9584 1210.34 501.299
514 0 42.1003 9.92868 418 91.9952 1209.68 502.562
515 0 42.2975 9.38591 397 97.5164 1208.94 499.224
516 0 46.0855 11.1966 516 94.4496 1208.58 501.533
517 0 48.1709 14.5108 699 90.0615 1206.54 499.575
518 0 50.3051 14.1934 714 89.451 1205.26 498.231
519 0 48.1669 10.8581 523 94.673 1203.66 498.065
520 0 52.2614 12.6288 660 92.0848 1202.35 497.776
521 0 54.0459 14.3027 773 88.6197 1200.95 496.741
522 0 56.0813 13.5874 762 90.2913 1199.94 495.003
523 0 58.2006 13.2301 770 91.7273 1199.11 491.47
524 0 60.2387 14.7912 891 88.8272 1198.12 492.149
525 0 62.2662 13.4102 835 92.0299 1196.9 488.566
526 0 64.128 15.6406 1003 89.001 1196.54 486.64
527 1 35.1275 12.2981 432 93.169 1194.59 500.785
528 0 33.0082 10.4216 344 98.0523 1193.81 501.076
529 0 39.0414 11.8592 463 95.1641 1193.51 499.628
530 0 39.0525 12.6752 495 95.8323 1194.53 498.376
531 0 41.1559 13.5096 556 94.5971 1195.11 497.664
532 0 40.3555 11.473 463 100.514 1195.87 496.799
533 0 42.2437 13.8245 584 95.8031 1196.78 496.817
534 0 44.2075 14.2284 629 96.186 1197.99 495.838
535 0 45.1626 13.1082 592 98.5912 1200.3 494.547
536 0 46.126 13.5282 624 97.5128 1201.15 494.688
537 0 47.1097 12.5027 589 100.165 1202.48 495.922
538 0 49.2016 13.028 641 98.7348 1204.13 496.808
539 0 49.2315 12.7967 630 101.646 1205.2 496.065
540 0 48.2176 13.0865 631 140.39 1206.24 495.856
541 0 55.1041 15.1531 835 97.2659 1205.57 497.908
542 0 56.2788 13.8774 781 101.575 1205.49 497.877
543 0 60.1227 15.169 912 99.591 1203.8 495.863
544 0 59.1169 13.6509 807 148.99 1201.85 497.245
545 0 64.2576 15.1422 973 99.5673 1201.99 497.991
546 0 69.1783 16.1756 1119 98.8356 1199.76 494.385
547 0 69.0915 14.8065 1023 103.109 1199.22 492.513
548 0 72.0869 14.3993 1038 105.49 1197.83 491.329
549 1 40.0849 12.4985 501 103.585 1195.93 506.742
550 0 40.2684 10.8273 436 106.484 1195.25 505.989
551 0 42.2452 12.9956 549 105.308 1194.73 503.424
552 0 44.1424 13.4565 594 103.552 1194.03 501.665
553 0 46.1981 13.1607 608 103.449 1193.38 498.623
554 0 46.2186 13.7391 635 103.872 1192.67 496.307
555 0 49.271 13.6592 673 105.915 1192.56 494.932
556 0 49.249 14.2541 702 104.251 1192.6 493.202
557 0 52.261 14.6955 768 103.469 1191.72 490.794
558 0 52.1232 13.1419 685 108.12 1192.96 489.054
559 0 54.2643 13.7475 746 106.298 1192.84 489.361
560 0 53.2352 13.8254 736 108.978 1193.88 487.227
561 0 56.321 13.4763 759 109.257 1194.11 485.424
562 0 60.3837 14.5072 876 106.753 1195.76 484.525
563 0 61.4805 15.387 946 104.215 1198.13 484.469
564 0 62.3614 13.8227 862 107.519 1200.58 486.543
565 0 66.5445 14.2161 946 107.474 1201.75 482.968
566 0 69.7441 15.4422 1077 104.211 1203.97 479.928
567 1 34.3867 10.5855 364 104.742 1205.57 501.418
568 0 38.2367 13.5995 520 99.9865 1206.37 500.808
569 0 38.2037 11.5172 440 105.468 1205.68 498.798
570 0 39.2794 11.991 471 105.89 1205.91 498.427
571 0 41.1928 12.5265 516 105.467 1205.68 500.291
572 0 44.1072 13.3538 589 102.141 1205.65 502
573 0 45.0421 12.9657 584 105.389 1204.44 501.104
574 0 46.2753 13.6358 631 104.252 1201.98 500.016
575 0 48.1345 13.857 667 104.247 1201.34 501.204
576 0 51.1336 14.8044 757 101.892 1200.3 501.054
577 0 53.1455 13.1714 700 105.974 1198.8 499.366
578 0 55.088 14.8308 817 102.798 1197.79 497.129
579 0 55.1414 14.1636 781 104.89 1196.62 494.905
580 0 58.1858 14.5052 844 104.146 1195.31 494.896
581 0 59.1291 15.6606 926 102.99 1195.76 492.608
582 0 62.3865 14.9712 934 104.072 1195.31 490.039
583 0 63.3511 13.8751 879 104.857 1193.97 489.377
584 0 65.2062 15.1979 991 104.725 1193.86 486.536
585 0 67.3122 14.1133 950 109.421 1193.29 483.656
586 0 71.2847 15.2487 1087 105.79 1192.74 483.545
587 0 72.27 15.0132 1085 107.041 1193.31 480.312
588 0 75.3404 14.2951 1077 108.812 1193.78 478.801
589 0 78.439 16.5096 1295 104.729 1194.2 474.938
590 0 81.327 15.5422 1264 105.982 1195.1 475.41
591 1 43.0955 9.90824 427 110.578 1195.55 494.37
592 0 43.1138 10.9942 474 110.359 1197.1 493.504
593 0 47.1396 12.516 590 108.095 1200.35 493.797
594 0 47.1396 12.6221 595 150.39 1204.35 493.704
595 0 50.0439 13.4082 671 107.1 1203.72 494.748
596 0 53.0379 15.0647 799 103.4 1205.44 494.199
597 0 54.1624 15.3427 831 104.357 1206.83 494.647
598 0 54.1505 13.6656 740 110.573 1206.79 495.376
599 0 58.0626 14.4327 838 108.747 1206.46 495.332
600 0 60.1387 15.5973 938 106.214 1205.98 495.196
601 0 64.1145 15.5347 996 108.939 1202.92 496.16
602 0 67.1619 15.4552 1038 108.83 1202.4 497.486
603 0 68.168 15.7112 1071 109.362 1201.05 499.359
604 0 72.1887 14.9331 1078 110.157 1199.56 497.7
605 0 74.0877 15.3467 1137 109.235 1197.97 497.281
606 0 79.0824 16.5018 1305 107.008 1196.5 495.043
607 0 81.169 15.5848 1265 109.718 1195.33 494.172
608 1 45.0579 12.606 568 108.305 1193.62 513.549
609 0 45.0829 12.1776 549 108.781 1192.14 513.341
610 0 45.2198 12.1849 551 109.875 1190.58 513.064
611 0 49.1028 12.8099 629 108.941 1190.56 510.927
612 0 50.1203 12.2505 614 110.134 1189.9 509.003
613 0 52.1193 14.6011 761 107.081 1189.78 506.457
614 0 53.1054 14.5371 772 106.937 1189.74 504.036
615 0 54.1163 14.321 775 106.732 1190.84 502.945
616 0 54.1163 14.2656 772 162.63 1191.83 502.937
617 0 60.2009 14.1028 849 105.166 1189.69 498.711
618 0 61.1198 15.2815 934 103.758 1190.37 496.06
619 0 64.1664 14.6026 937 106.64 1189.9 493.358
620 0 66.0683 14.0612 929 107.839 1190.93 492.508
621 0 70.2481 15.1463 1064 105.524 1191.63 492.324
622 0 70.158 13.6121 955 109.542 1192.69 489.731
623 0 76.0759 14.433 1098 106.684 1194.06 490.767
624 0 78.1355 14.6924 1148 106.834 1196.36 488.913
625 0 83.1798 15.1599 1261 105.572 1197.43 486.248
626 0 85.2144 14.5867 1243 107.742 1197.96 484.734
627 1 45.0996 9.86704 445 106.079 1197.84 507.737
628 0 48.1757 12.5167 603 101.131 1197.96 507.715
629 0 48.1757 12.4337 599 149.06 1197.98 507.801
630 0 51.0571 13.4751 688 101.416 1196.06 509.17
631 0 54.1908 14.4858 785 99.5592 1196.15 509.276
632 0 54.1184 14.0433 760 100.811 1195.36 509.232
633 0 58.1331 13.9507 811 99.979 1194.07 509.614
634 0 59.1828 14.1426 837 101.259 1194.27 508.674
635 0 63.4922 13.9545 886 102.103 1192.21 506.786
636 0 65.2463 13.9778 912 102.446 1191.66 505.391
637 0 70.21 14.8839 1045 100.764 1189.96 502.906
638 0 70.1963 13.562 952 104.826 1188.62 501.021
639 1 39.0316 10.7861 421 102.779 1188.11 516.162
640 0 39.1012 10.6135 415 102.827 1187.12 514.793
641 0 44.0645 11.2108 494 100.326 1187.22 513.144
642 0 43.0392 11.0829 477 102.744 1186.69 511.476
643 0 45.0562 12.1626 548 99.8613 1186.16 510.533
644 0 46.0552 12.8324 591 104.112 1186.14 507.323
645 0 50.2028 14.9195 749 98.0694 1187.07 505.708
646 0 47.1448 13.554 639 102.632 1188.01 503.268
647 0 50.0839 12.8584 644 101.834 1189.61 505.601
648 0 52.1469 12.7716 666 101.982 1190.41 504.833
649 0 55.1217 14.1324 779 99.7214 1191.53 502.908
650 0 57.0796 14.3484 819 98.9902 1192.17 501.869
651 0 58.0634 13.3303 774 100.986 1193.53 501.699
652 0 60.124 14.8693 894 98.8222 1194.08 500.468
653 0 63.1565 14.662 926 98.0767 1195.41 500.569
654 0 67.0919 14.0255 941 99.6631 1195.66 498.422
655 1 36.1861 10.8053 391 100.619 1196.09 514.458
656 0 38.2184 12.1146 463 99.1231 1196.6 513.911
657 0 38.5268 11.4466 441 100.245 1196.72 513.83
658 0 40.1683 12.7713 513 98.3041 1196.48 513.651
659 0 44.06 12.5965 555 98.391 1196.79 512.924
660 0 45.1114 14.2093 641 94.2699 1195.28 512.658
661 0 47.2706 13.9833 661 96.3812 1194.68 511.212
662 0 49.1646 13.9531 686 96.274 1193.96 510.593
663 0 49.1343 13.2901 653 98.66 1192.78 510.262
664 0 53.1887 14.3264 762 96.4974 1192 507.262
665 0 52.1874 12.2443 639 99.723 1191.03 506.484
666 0 58.229 14.546 847 91.8453 1190.33 504.277
667 0 59.2011 14.2565 844 92.1896 1189.87 501.62
668 0 62.2374 14.7018 915 91.4339 1189.74 499.287
669 0 64.2391 14.7262 946 91.8858 1189.12 496.569
670 0 64.2896 14.3569 923 91.7844 1189.08 497.736
671 0 65.1402 14.5379 947 93.0824 1188.3 492.251
672 0 69.1002 13.7482 950 96.8063 1190.17 490.978
673 0 72.2418 14.1746 1024 95.3213 1190.23 487.773
674 0 73.1282 12.7174 930 97.7946 1190.72 488.632
675 0 77.1191 13.8876 1071 96.436 1191.19 482.536
676 1 43.1797 12.9922 561 95.8824 1191.46 501.651
677 0 45.3479 14.5983 662 93.1344 1193.3 500.68
678 0 45.2518 13.8337 626 95.8227 1194.44 499.605
679 0 46.3021 14.2974 662 95.6631 1195.52 499.299
680 0 47.3228 14.1158 668 96.5704 1197.83 500.386
681 0 49.1975 14.7162 724 96.3688 1199.34 498.829
682 0 52.1267 14.6182 762 95.4974 1201.3 498.681
683 0 53.2345 13.4124 714 98.472 1202.2 498.948
684 0 58.2693 14.6218 852 94.331 1202.79 499.499
685 0 59.1181 17.9133 1059 90.1388 1203.6 497.329
686 0 62.1648 16.7941 1044 90.3123 1203.84 499.357
687 0 62.1943 14.7119 915 95.1978 1203.31 498.346
688 0 67.0861 15.4876 1039 94.4629 1202.07 497.122
689 0 70.1855 14.7751 1037 96.7637 1201.43 494.998
690 0 74.1151 15.395 1141 95.6179 1201.05 494.173
691 1 37.201 13.3061 495 98.6061 1199.06 509.877
692 0 41.1198 12.9378 532 98.6034 1198.32 508.532
693 0 42.0468 12.1769 512 98.5371 1196.92 507.469
694 0 45.0269 13.8584 624 97.1282 1196.02 504.186
695 0 45.0269 13.9028 626 154.645 1195.02 504.161
696 0 49.062 15.6741 769 94.2354 1194.04 498.954
697 0 49.2846 15.1163 745 97.9087 1193.22 497.65
698 0 51.1832 15.8646 812 96.4692 1192.65 495.91
699 0 53.1472 15.6923 834 96.9424 1193.53 493.782
700 0 52.2554 16.4959 862 97.6763 1194.52 490.921
701 0 57.1275 14.704 840 99.425 1194.82 491.437
702 0 59.2464 16.0347 950 96.2168 1195.54 489.529
703 0 62.1774 15.4075 958 97.2693 1196.04 487.21
704 0 61.1755 14.581 892 99.7007 1195.55 485.934
705 0 65.1674 16.0663 1047 96.5989 1196.82 484.577
706 0 65.1674 16.097 1049 157.384 1198.81 484.628
707 0 72.2173 16.0903 1162 94.7814 1199.14 483.382
708 0 74.2927 16.4215 1220 94.3688 1202.33 483.245
709 1 39.151 12.0048 470 99.6808 1203.96 499.877
710 0 42.0601 13.7184 577 97.877 1205.52 499.336
711 0 43.2103 14.0476 607 97.4514 1208.03 499.45
712 0 45.0478 14.2737 643 97.6159 1209.95 499.537
713 0 49.0842 16.0337 787 94.7027 1209.56 499.497
714 0 47.0771 15.7401 741 98.5277 1210.31 498.76
715 0 51.2573 16.0563 823 97.9648 1209.17 498.758
716 0 53.188 15.229 810 100.432 1208.54 499.962
717 0 56.1185 15.7346 883 99.513 1207.34 501.13
718 0 57.264 16.9216 969 100.078 1205.94 499.229
719 0 61.0509 17.1988 1050 99.7 1204.66 497.868
720 0 61.2756 15.8954 974 104.081 1203.41 495.928
721 0 66.3744 17.1301 1137 101.522 1202.19 494.689
722 0 69.2949 16.9132 1172 101.951 1200.17 491.473
723 0 70.471 16.4749 1161 104.494 1198.61 488.886
724 0 75.3396 19.0338 1434 98.6053 1197.14 487.596
725 0 75.2728 16.1811 1218 106.842 1195.59 484.139
726 0 80.1559 17.441 1398 103.378 1195.31 483.549
727 0 83.1919 19.5812 1629 99.0939 1194.4 482.208
728 0 85.2482 15.93 1358 107.191 1194.23 478.406
729 0 89.3093 20.9945 1875 98.2645 1194.92 475.56
730 0 92.3036 17.3991 1606 105.631 1194.48 472.685
731 1 47.2317 12.174 575 113.934 1194.6 494.362
732 0 51.1038 14.2846 730 109.33 1194.98 493.382
733 0 53.0292 15.8592 841 105.963 1195.88 491.87
734 0 54.1079 16.3192 883 106.665 1196.85 488.493
735 0 54.1079 16.2268 878 159.277 1197.87 488.476
736 0 62.1036 17.3581 1078 101.517 1200.47 489.841
737 0 64.095 16.3039 1045 103.414 1202.06 490.208
738 0 65.0919 15.7623 1026 105.456 1203.38 490.445
739 0 69.1554 16.7015 1155 103.758 1204.92 488.519
740 0 74.0901 17.1953 1274 102.412 1205.49 489.177
741 0 78.0415 16.7091 1304 103.778 1206.73 488.467
742 0 84.3245 16.899 1425 102.75 1205.49 488.375
743 1 42.0796 11.9298 502 107.082 1204.45 509.424
744 0 44.0489 12.4634 549 109.727 1202.97 508.124
745 0 47.1079 15.2416 718 104.4 1202.21 508.692
746 0 49.0775 15.2412 748 105.436 1200.59 507.921
747 0 53.1736 15.6845 834 104.917 1198.58 506.245
748 0 55.1365 15.7065 866 104.372 1196.65 504.843
749 0 57.0598 16.0884 918 104.533 1194.35 502.659
750 0 59.3983 16.1452 959 105.54 1192.2 500.47
751 0 63.2442 15.3532 971 105.028 1190.55 499.747
752 0 67.1248 15.717 1055 105.464 1190.79 496.599
753 0 67.2032 15.1332 1017 107.771 1190.07 494.62
754 0 70.1825 18.3379 1287 102.916 1190.24 490.842
755 0 72.3673 15.9741 1156 106.109 1189.86 490.78
756 0 77.2656 15.9709 1234 105.472 1190.18 487.433
757 0 79.4674 17.2775 1373 103.253 1190.54 484.744
758 0 79.2612 15.922 1262 106.004 1190.37 482.402
759 0 85.2825 18.4798 1576 99.7424 1191.18 482.816
760 0 88.4036 17.4088 1539 103.065 1190.84 476.373
761 0 90.462 16.1394 1460 105.408 1192.2 475.436
762 0 93.4039 16.4875 1540 104.551 1194.01 475.286
763 0 99.3321 17.366 1725 102.128 1194.53 472.832
764 0 101.568 16.5013 1676 105.296 1196.79 471.415
765 0 108.424 16.4816 1787 104.841 1198.36 471.631
766 0 112.231 15.7176 1764 108.457 1201.18 468.019
767 0 118.332 17.0537 2018 105.634 1202.28 466.839
768 0 124.323 16.6582 2071 106.757 1203.16 465.17
769 0 128.477 15.4113 1980 111.382 1203.04 460.068
770 0 135.396 17.157 2323 108.446 1202.98 459.26
771 0 142.445 15.8166 2253 112.197 1202.47 457.955
772 0 149.577 17.1149 2560 108.356 1201.89 454.877
773 0 157.741 17.7379 2798 108.676 1201.19 454.069
774 0 164.448 17.6226 2898 105.551 1199.45 450.48
775 0 170.673 15.9603 2724 100.732 1198.31 447.436
776 0 180.717 17.6962 3198 96.7764 1196.79 444.229
777 0 187.651 17.4633 3277 96.3595 1194.34 441.246
778 0 195.537 16.8101 3287 97.1628 1193.01 433.588
779 0 206.788 18.889 3906 93.0182 1192.3 430.271
780 1 157.388 14.4674 2277 98.9372 1191.1 454.238
781 0 164.311 14.576 2395 99.2301 1189.74 447.597
782 0 171.499 15.7669 2704 97.172 1190.33 444.951
783 0 175.553 15.0781 2647 99.0325 1189.81 437.238
784 0 184.579 15.9282 2940 97.4371 1189.6 433.552
785 0 192.329 15.9622 3070 98.0648 1189.17 423.324
786 0 201.514 15.8947 3203 97.5407 1189.99 424.106
787 1 51.0759 9.61314 491 84.1324 1189.36 495.409
788 0 55.1207 10.8671 599 80.9232 1190.56 496.619
789 0 58.3156 11.7636 686 81.6939 1191.75 492.554
790 0 60.222 11.3912 686 82.293 1193.47 492.847
791 0 62.1627 11.0999 690 82.0681 1195.2 494.359
792 0 64.2134 11.7421 754 82.8196 1196.51 491.005
793 0 68.2809 12.0971 826 81.3559 1198.36 492.896
794 0 69.1968 10.2606 710 85.2014 1199.84 489.963
795 0 75.3998 11.9364 900 82.5089 1200.79 490.856
796 1 40.1275 9.27045 372 79.328 1201.51 509.151
797 0 41.5098 10.5276 437 77.9954 1201.6 509.806
798 0 44.3987 11.2616 500 76.86 1200.95 511.782
799 0 43.4269 8.75033 380 81.9816 1199.69 512.495
800 0 46.2568 9.81476 454 82.7908 1198.12 511.903
801 0 49.5266 10.8225 536 81.5485 1196.73 508.187
802 0 49.5266 10.883 539 121.18 1194.74 508.148
803 0 54.618 12.4135 678 83.9838 1193.67 504.313
804 0 57.7735 11.3028 653 86.2573 1192.09 504.479
805 0 55.276 9.66061 534 90.8764 1190.54 503.079
806 0 57.5953 9.04587 521 91.7294 1189.42 499.639
807 0 58.7281 8.78626 516 91.8372 1188.05 499.996
808 0 63.4343 11.3503 720 89.7597 1188.19 498.76
809 0 63.5226 11.1299 707 92.1513 1187.99 495.535
810 0 65.8357 10.2072 672 93.9955 1187.58 494.606
811 0 67.4703 10.7603 726 92.613 1187.59 491.886
812 1 44.104 8.06829 138 81.8044 1188.93 515.536
813 0 45.0362 4.81878 58 84.7241 1189.91 516.534
814 0 46.0671 7.16792 108 79.5648 1190.62 514.907
815 0 46.3263 7.65913 171 80.8596 1190.78 512.392
816 0 47.3372 9.07462 239 81.2678 1191 508.695
817 0 48.2372 12.2105 589 80.9796 1191.62 499.246
818 0 48.2911 11.3685 549 82.5301 1193.92 500.565
819 0 48.3759 9.96365 482 87.5124 1196.38 496.396
820 0 52.2584 13.3758 699 83 1198.77 495.561
821 0 54.2638 12.0154 652 85.2592 1200.25 493.477
822 0 57.5779 12.4874 719 84.8567 1200.74 497.092
823 0 59.5025 12.5205 745 83.6725 1201.13 498.172
824 0 60.6499 12.432 754 85.321 1200.75 494.448
825 0 63.3578 12.6898 804 84.694 1200.53 493.608
826 0 66.7473 13.6035 908 84.641 1199.82 492.665
827 0 70.5145 13.5575 956 83.66 1199.1 492.407
828 1 36.7591 8.89576 327 84.6208 1197.6 507.976
829 0 38.5964 9.14594 353 83.6346 1197.17 508.547
830 0 40.7286 12.4237 506 81.1166 1196.18 504.121
831 0 41.6041 9.35005 389 83.7429 1195.11 504.632
832 0 45.2445 12.9961 588 79.4932 1193.73 500.685
833 0 45.1181 12.1681 549 80.5228 1191.91 502.907
834 0 49.184 13.053 642 79.5981 1191.32 500.517
835 0 47.3099 13.6546 646 80.3313 1192.2 497.491
836 0 51.2966 14.7768 758 77.5871 1191.18 496.828
837 0 53.4376 13.2491 708 79.75 1190.46 494.031
838 0 53.2747 11.6002 618 80.9256 1191.62 495.646
839 0 56.2002 12.153 683 80.4114 1191.98 493.422
840 0 57.2937 12.8112 734 80.4741 1191.94 491.395
841 0 57.3467 13.0086 746 82.0938 1192.21 490.484
842 0 60.3242 14.7536 890 79.0022 1193.13 490.22
843 0 60.3536 12.7084 767 84.1382 1194.55 489.306
844 0 63.2795 15.0918 955 80.9707 1196.33 490.419
845 0 64.3083 13.5286 870 83.8609 1197.93 489.817
846 0 65.2689 14.5399 949 83.2972 1199.16 489.362
847 0 68.43 13.0352 892 85.8016 1201.36 491.089
848 0 72.2615 13.9493 1008 85.4732 1201.99 489.572
849 0 76.5935 14.5051 1111 85.2151 1202.69 488.591
850 0 79.2543 14.5355 1152 85.5547 1202.88 489.437
851 1 43.1511 11.2627 486 86.465 1203.26 508.191
852 0 47.0719 10.3246 486 89.1255 1202.38 507.393
853 0 50.205 10.8555 545 88.0771 1200.7 507.947
854 0 51.1477 9.87336 505 89.3901 1199.35 508.216
855 0 51.1578 10.6338 544 89.3603 1197.68 506.215
856 0 55.1928 12.9727 716 85.0042 1196.37 502.765
857 0 59.2242 13.0183 771 82.6783 1194.01 501.473
858 0 60.3162 11.8874 717 85.7294 1192.55 500.25
859 0 61.2372 12.5904 771 84.3554 1191.82 497.973
860 0 64.2107 13.1754 846 84.5792 1189.88 495.322
861 0 70.1739 13.2955 933 82.7235 1189.78 494.714
862 0 73.2387 14.9648 1096 79.5794 1189.17 494.24
863 0 74.2034 12.8431 953 84.4711 1189.1 489.007
864 1 38.1809 7.3597 281 86.3879 1188.78 506.352
865 0 38.1804 7.43837 284 89.5986 1188.51 502.711
866 0 40.1245 8.89732 357 88.0588 1189.21 503.356
867 0 45.1418 11.7408 530 83.9434 1188.96 501.981
868 0 46.0334 11.0355 508 83.5748 1188.31 498.596
869 0 47.0997 11.7198 552 83.2373 1190.5 498.764
870 0 47.3531 12.5018 592 85.0304 1191.76 497.282
871 0 50.2316 12.1238 609 86.1609 1192.73 497.304
872 0 51.215 11.6763 598 87.1722 1194.19 496.619
873 0 54.2631 12.1261 658 86.8845 1196.52 496.343
874 0 56.2122 13.9471 784 85.1174 1197.44 497.005
875 0 57.277 13.8799 795 84.2302 1198.49 497.33
876 0 60.4011 14.0891 851 85.2855 1199.91 496.414
877 0 63.1666 11.5884 732 89.7145 1200.12 495.585
878 0 65.194 13.0533 851 90.2209 1199.96 495.146
879 0 69.2199 14.5767 1009 88.8335 1199.44 496.109
880 0 70.1421 13.0592 916 92.9967 1198.12 493.861
881 1 43.123 10.8063 466 89.015 1195.36 510.788
882 0 44.103 11.972 528 88.8125 1194.37 510.068
883 0 47.0701 13.2568 624 89.3734 1194 507.697
884 0 49.115 14.1708 696 87.2399 1192.98 506.417
885 0 50.1111 13.4501 674 90.178 1191.06 503.905
886 0 53.0831 15.391 817 85.8727 1189.38 500.465
887 0 54.1204 13.8765 751 87.7616 1188.01 497.716
888 0 56.362 13.7327 774 89.2455 1188.39 496.167
889 0 57.2399 13.4696 771 88.9261 1188.13 497.375
890 0 61.1814 14.5632 891 88.3075 1188.54 494.348
891 0 62.3146 13.9133 867 89.9631 1189.27 491.732
892 0 62.1602 13.8674 862 90.935 1189.7 489.972
893 0 64.1516 13.6863 878 90.4749 1190.1 488.657
894 0 67.2103 14.5811 980 88.8806 1190.46 487.248
895 0 72.4682 15.0135 1088 87.9403 1191.05 483.393
896 0 72.3261 14.1996 1027 91.0039 1191.68 481.807
897 0 75.3677 13.7459 1036 91.3205 1192.91 481.239
898 0 78.3716 16.9066 1325 86.6098 1194.6 481.248
899 0 81.7013 14.9569 1222 91.0843 1195.38 480.088
900 1 44.1378 11.4641 506 89.0949 1197.96 501.289
901 0 46.3664 11.7326 544 89.7169 1199.77 501.91
902 0 49.2969 11.9277 588 91.8095 1201.85 498.92
903 0 51.2596 13.1097 672 90.0714 1202.9 500.615
904 0 52.1453 13.7884 719 90.1613 1204.3 501.075
905 0 53.1533 13.8656 737 91.4735 1203.59 502.172
906 0 55.1757 13.2486 731 93.5691 1202.88 501.274
907 0 59.2343 12.3577 732 92.1544 1201.59 503.551
908 0 63.1935 12.802 809 93.7392 1200.71 501.188
909 0 66.3861 13.2106 877 92.3865 1198.95 501.948
910 0 67.5407 12.97 876 91.4247 1197.05 500.478
911 0 71.3433 12.5169 893 90.8903 1195.72 497.46
912 0 75.461 13.3844 1010 89.0941 1194.15 494.987
913 0 80.3634 13.7376 1104 88.7572 1192.97 492.04
914 0 82.4895 14.6928 1212 88.7352 1191.25 487.754
915 0 86.4391 14.033 1213 89.1847 1190.28 484.629
916 0 88.6981 12.9202 1146 90.8691 1189.41 483.604
917 1 47.3884 9.32718 442 87.181 1189.77 505.403
918 0 50.3331 8.86097 446 92.3206 1189.49 497.971
919 0 51.1222 11.8539 606 86.4901 1188.88 498.233
920 0 53.4709 12.6237 675 85.1363 1189.07 495.557
921 0 54.2649 13.5447 735 85.0367 1189.99 493.902
922 0 57.1019 13.222 755 84.1139 1190.54 494.034
923 0 60.1278 14.4525 869 82.9793 1191.91 492.986
924 0 62.0783 14.965 929 82.3595 1192.54 491.346
925 0 65.1787 14.9282 973 81.5683 1193.74 490.896
926 0 66.0687 12.593 832 86.1526 1195.8 490.826
927 0 70.1905 14.247 1000 83.74 1197.75 489.672
928 0 72.1733 13.4122 968 84.5444 1199.93 489.108
929 0 76.0767 15.0769 1147 83.5248 1201.94 488.924
930 0 78.1228 14.362 1122 85.3387 1201.56 490.792
931 0 82.139 13.6233 1119 87.7918 1201.49 485.556
932 0 85.2135 13.5894 1158 87.4154 1200.71 486.68
933 1 51.0346 8.73917 446 89.4552 1200.8 509.469
934 0 50.0637 10.3268 517 90.7853 1200.09 505.803
935 0 55.0886 11.7266 646 88.6192 1198.42 506.345
936 0 55.1098 14.6616 808 86.2302 1196.71 503.005
937 0 58.1772 13.3386 776 86.2861 1193.83 504.249
938 0 59.1684 12.0335 712 92.1854 1192.51 501.699
939 0 61.1257 13.3495 816 91.2243 1191.21 498.027
940 0 64.2066 13.1451 844 91.9609 1189.87 495.062
941 0 67.2883 13.5982 915 90.7738 1188.54 492.637
942 0 71.1238 13.7226 976 90.0676 1187.85 491.75
943 0 72.2068 14.5 1047 89.7498 1187.15 488.639
944 0 75.218 15.5548 1170 88.4009 1187.22 487.277
945 0 76.2077 14.9854 1142 89.2522 1187.38 482.253
946 0 81.2113 14.1236 1147 88.9738 1186.98 479.622
947 0 82.1587 14.2407 1170 89.5983 1187.45 476.903
948 0 86.1884 14.3291 1235 88.3368 1188.34 477.459
949 0 89.2396 14.377 1283 89.1707 1189.49 476.2
950 1 52.1755 12.2855 641 90.3838 1191.42 492.64
951 0 52.1105 12.0705 629 90.3021 1191.79 494.122
952 0 52.1876 11.6503 608 90.0872 1193.79 495.627
953 0 54.0596 11.1359 602 93.6628 1195.35 491.505
954 0 59.1016 14.0267 829 89.3052 1197.98 492.182
955 0 60.0821 14.0974 847 89.8099 1200.34 492.941
956 0 63.1209 13.7989 871 89.8898 1201.18 492.689
957 0 66.1534 15.7362 1041 87.562 1202.73 492.09
958 0 68.1006 16.0938 1096 87.6414 1203.24 491.226
959 0 72.2375 14.6877 1061 89.0415 1203.75 492.46
960 0 74.2689 15.5247 1153 86.8664 1203.69 494.873
961 0 77.153 14.5425 1122 90.5499 1203.35 491.497
962 0 80.2009 14.9874 1202 90.797 1202.51 488.508
963 0 85.2682 14.7065 1254 90.9298 1200.66 490.506
964 0 88.2759 14.8285 1309 91.7662 1199.23 484.823
965 0 93.3137 15.8926 1483 89.4181 1198.09 485.237
966 1 52.1797 12.8402 670 91.4298 1196.52 505.002
967 0 52.1029 12.0531 628 93.2962 1195.71 501.911
968 0 57.1678 12.5945 720 91.3569 1194.71 500.568
969 0 55.1599 14.1226 779 91.38 1193.81 498.384
970 0 55.2214 12.1692 672 95.9554 1192.4 495.768
971 0 60.3705 13.2018 797 92.542 1192.33 494.201
972 0 61.1698 14.2391 871 92.8186 1192.41 490.48
973 0 64.2537 14.3338 921 91.8122 1192.19 490.775
974 0 67.2144 13.9107 935 92.4128 1191.63 487.749
975 0 69.1889 12.979 898 93.902 1191.51 485.748
976 0 72.1691 14.1473 1021 92.8472 1191.88 483.761
977 0 74.1456 13.6353 1011 93.7577 1192.43 481.796
978 0 80.2917 15.207 1221 90.6314 1193.35 480.169
979 0 82.1596 14.8735 1222 92.0573 1194.59 478.701
980 0 85.1676 16.262 1385 90.8809 1196.64 476.421
981 0 90.3606 15.2057 1374 93.064 1198.32 476.598
982 1 50.0446 12.2291 612 93.5049 1199.62 495.649
983 0 54.0784 11.6867 632 93.0316 1201.6 497.312
984 0 56.2457 13.2277 744 91.8535 1203.58 497.988
985 0 58.2647 12.9066 752 94.0066 1205.01 496.919
986 0 60.2165 14.3648 865 92.7052 1205.82 496.651
987 0 62.1619 13.5935 845 96.4639 1205.45 495.667
988 0 66.1514 14.4517 956 95.6569 1204.84 495.031
989 0 70.182 15.0893 1059 95.2757 1203.84 494.418
990 0 71.1884 14.1877 1010 97.9693 1202.14 495.743
991 0 76.3764 16.3532 1249 93.8719 1200.6 492.626
992 0 79.4321 15.0443 1195 96.3515 1198.87 492.541
993 0 82.2639 15.4138 1268 97.0678 1196.79 487.598
994 0 85.3008 14.7947 1262 98.5777 1194.67 485.288
995 0 89.5085 16.4118 1469 95.7611 1194.25 483.511
996 0 90.4424 15.0261 1359 99.9301 1193.79 482.308
997 0 95.5271 15.9326 1522 97.9205 1192.58 478.357
998 0 101.291 15.9245 1613 96.7006 1191.48 474.756
999 1 59.2523 11.5607 685 95.7358 1191.1 496.142
1000 0 59.2634 12.6216 748 95.4933 1190.78 493.024
1001 0 58.0873 11.8098 686 97.8455 1191.09 491.274
1002 0 62.138 12.3918 770 95.5987 1192.49 489.822
1003 0 63.1863 13.2624 838 94.5525 1192.3 489.058
1004 0 66.1712 13.9487 923 95.0596 1192.96 485.083
1005 0 69.1216 13.686 946 95.2674 1193.91 484.923
1006 0 72.1985 14.6125 1055 93.1953 1196.14 483.457
1007 0 74.3225 13.3472 992 96.2681 1196.97 482.647
1008 0 76.2054 15.0514 1147 93.2075 1200.03 480.922
1009 0 79.2588 14.522 1151 94.795 1201.4 481.807
1010 0 83.2072 13.893 1156 95.9654 1202.3 481.382
1011 0 83.3044 13.6367 1136 98.3345 1203.72 478.777
1012 0 89.2561 15.1138 1349 95.0089 1204.56 479.148
1013 0 91.2201 14.0868 1285 96.9821 1205.13 479.212
1014 1 50.1306 10.0537 504 97.3075 1204.45 502.952
1015 0 53.1064 10.978 583 96.8336 1204.5 501.988
1016 0 55.0202 13.3405 734 92.9823 1203.86 501.399
1017 0 56.0274 12.3332 691 94.5948 1203.24 502.485
1018 0 62.0619 14.3566 891 89.78 1201.52 500.302
1019 0 62.046 14.038 871 91.6866 1199.94 499.798
1020 0 67.1353 14.3442 963 90.5961 1198.38 498.79
1021 0 66.0779 13.3782 884 93.0057 1196.93 496.719
1022 0 71.1616 14.6708 1044 90.2864 1195.41 493.223
1023 0 73.2793 15.1748 1112 90.4406 1195 493.384
1024 0 75.1687 13.7424 1033 94.8325 1193.79 488.253
1025 0 77.1976 14.1844 1095 94.5132 1192.18 487.547
1026 0 80.1665 13.8212 1108 93.769 1191.75 483.866
1027 0 83.1998 14.8678 1237 92.2902 1191.61 480.346
1028 0 86.2453 15.282 1318 92.6836 1191.76 477.555
1029 0 90.302 14.6619 1324 92.7009 1192.07 478.814
1030 1 49.3113 9.83548 485 95.3732 1191.49 496.93
1031 0 52.2001 13.0843 683 90.8346 1192.26 493.531
1032 0 53.2834 11.9737 638 92.6176 1192.81 492.473
1033 0 56.1888 10.7317 603 94.3997 1195.12 492.702
1034 0 56.1712 11.91 669 93.012 1196.09 491.744
1035 0 59.2111 14.4736 857 89.6546 1197.84 489.86
1036 0 61.2847 13.1354 805 91.3354 1199.22 489.886
1037 0 64.0878 14.2149 911 90.4413 1200.85 489.15
1038 0 68.2587 14.3279 978 90.1963 1202.81 491.333
1039 0 70.1053 11.8821 833 93.4982 1204.32 490.944
1040 0 75.3412 14.3082 1078 89.8785 1205.81 491.001
1041 0 75.2018 13.8029 1038 93.2023 1205.74 488.789
1042 0 80.22 14.0738 1129 92.5536 1205.13 488.368
1043 1 44.1555 9.30802 411 95.0146 1204.77 508.297
1044 0 47.2283 10.1211 478 95.1423 1203.03 507.49
1045 0 50.069 11.1446 558 93.6523 1201.39 506.579
1046 0 53.1593 12.0957 643 92.1882 1199.86 506.092
1047 0 55.2535 12.3793 684 92.4108 1198.57 503.895
1048 0 58.1076 14.5076 843 89.8138 1196.4 501.001
1049 0 59.353 13.8999 825 91.7321 1194.96 500.08
1050 0 60.164 12.549 755 94.8543 1193.32 497.755
1051 0 65.1918 15.7995 1030 89.6738 1192.52 494.375
1052 0 66.1763 13.4791 892 94.3419 1190.97 491.683
1053 0 69.1748 13.5888 940 94.6032 1191.32 488.596
1054 0 70.2227 13.1012 920 95.8087 1191.2 485.739
1055 0 74.1385 13.8525 1027 94.5443 1190.76 483.81
1056 0 76.343 14.2122 1085 94.5862 1191.14 479.512
1057 1 43.0294 10.5974 456 97.5482 1190.54 496.096
1058 0 46.0467 10.1419 467 95.272 1191.17 498.263
1059 0 44.0824 9.89057 436 97.3073 1192.03 496.745
1060 0 47.0227 10.7395 505 96.1307 1193.82 495.297
1061 0 49.021 11.1993 549 97.5155 1194.77 491.379
1062 0 50.0473 10.3902 520 98.2635 1197.07 493.612
1063 0 52.2044 11.4358 597 96.9028 1198.95 494.913
1064 0 55.0635 13.0758 720 96.0931 1201.32 492.639
1065 0 57.0848 13.7164 783 93.8442 1204.47 492.571
1066 0 55.076 12.0742 665 100.365 1205.7 492.886
1067 0 60.1356 14.2345 856 95.4241 1206.77 491.852
1068 0 63.0687 14.0165 884 96.2749 1206.53 492.916
1069 0 66.1798 14.5059 960 95.9688 1206.96 492.982
1070 0 67.1197 13.8707 931 98.7207 1205.86 491.241
1071 0 72.1354 13.6687 986 99.3225 1204.79 490.438
1072 0 74.0826 14.2139 1053 99.1823 1203.54 489.28
1073 0 78.1277 15.3595 1200 97.85 1202.49 489.465
1074 0 82.2526 15.6104 1284 97.5849 1201.33 486.54
1075 0 87.1015 15.4188 1343 98.0514 1199.97 483.754
1076 0 89.0856 15.4907 1380 97.3297 1197.26 481.157
1077 1 50.0966 11.1385 558 100.186 1196.32 500.651
1078 0 52.1707 11.9224 622 99.7347 1195.59 497.113
1079 0 55.2208 13.0386 720 95.9264 1193.67 496.182
1080 0 53.2506 12.6759 675 98.0163 1193.59 491.812
1081 0 56.1615 12.7489 716 95.669 1192.75 490.895
1082 0 58.124 14.5207 844 91.8199 1193.54 489.211
1083 0 58.2314 12.9655 755 95.5311 1193.22 486.722
1084 0 62.1236 13.8434 860 94.2942 1193.89 483.529
1085 0 64.1673 13.9635 896 93.8884 1194.26 483.394
1086 0 65.1837 13.1475 857 96.2555 1194.85 481.413
1087 0 67.1727 13.041 876 96.5674 1195.42 479.792
1088 0 72.2859 13.2806 960 95.8083 1196.51 477.852
1089 0 74.1421 14.0676 1043 94.5676 1199.14 477.346
1090 0 78.3364 13.7101 1074 94.8017 1200.7 476.636
1091 1 41.0532 9.81653 403 96.0273 1203.24 496.878
1092 0 45.1274 10.9911 496 94.4093 1205.18 496.012
1093 0 47.0836 11.4477 539 92.3395 1206.79 498.501
1094 0 49.1324 10.7872 530 91.3076 1206.96 499.581
1095 0 48.1228 11.4707 552 91.5706 1207.35 498.342
1096 0 51.0367 11.9326 609 90.9425 1208.62 498.278
1097 0 53.0626 11.0624 587 92.6882 1207.98 499.99
1098 0 54.0542 11.359 614 94.4902 1206.51 499.037
1099 0 60.138 12.039 724 92.6423 1204.96 498.546
1100 0 61.1861 12.6499 774 96.0982 1203.22 495.742
1101 0 65.0808 13.9826 910 91.922 1201.03 496.066
1102 0 66.205 12.0686 799 96.5657 1198.75 493.472
1103 0 71.3034 13.3795 954 92.6394 1197.26 490.361
1104 0 71.2095 12.3158 877 96.1243 1196.52 488.569
1105 0 73.2113 13.4405 984 94.3059 1195.51 485.344
1106 0 76.5596 14.4985 1110 91.8676 1194.88 483.27
1107 0 79.6216 12.798 1019 95.1256 1194.28 480.014
1108 0 86.6021 14.5378 1259 90.533 1193.7 481.122
1109 0 88.4217 13.413 1186 91.9064 1193.97 476.996
1110 0 92.4721 14.2854 1321 90.4731 1194.17 474.027
1111 1 51.2661 9.55797 490 91.0245 1193.98 492.749
1112 0 57.5106 10.5198 605 88.3306 1195.42 493.992
1113 0 58.2528 11.9651 697 88.0603 1194.77 490.112
1114 0 59.3314 14.2083 843 84.9798 1196 490.438
1115 0 60.1176 13.1742 792 90.5732 1197.53 488.85
1116 0 61.0598 12.8726 786 90.9695 1199.29 487.781
1117 0 65.1161 12.4393 810 90.1864 1199.47 487.732
1118 0 66.1169 14.5802 964 88.4938 1203.46 487.462
1119 0 67.2325 12.0775 812 92.7365 1205.24 487.171
1120 0 71.119 12.8376 913 90.0854 1206.84 488.318
1121 0 74.1476 13.3787 992 90.0333 1207.22 486.072
1122 0 76.1793 12.6019 960 92.2958 1207.25 486.154
1123 0 81.3399 14.2734 1161 89.6296 1207.27 484.227
1124 0 87.6031 13.9379 1221 89.7789 1206.26 484.415
1125 1 46.3748 7.80597 362 92.1602 1206.43 506.599
1126 0 48.3617 8.82931 427 92.6323 1204.96 507.246
1127 0 49.2618 9.47996 467 94.5375 1203.06 504.957
1128 0 52.3223 11.5056 602 92.8173 1201.95 502.027
1129 0 55.4062 13.3559 740 89.0122 1200.04 501.088
1130 0 58.3919 12.81 748 89.1203 1198.68 500.21
1131 0 59.298 12.8672 763 87.7104 1196.83 498.464
1132 0 60.2049 12.989 782 87.11 1195.44 498.348
1133 0 63.0753 12.9052 814 88.188 1194.97 493.187
1134 0 65.1736 12.2749 800 88.2262 1195.07 493.228
1135 0 66.1265 13.5649 897 88.175 1195.36 488.322
1136 0 70.1646 13.5253 949 87.7555 1195.31 487.247
1137 0 73.1793 12.8452 940 88.366 1195.01 484.886
1138 0 74.2057 14.6889 1090 86.6908 1195.71 482.701
1139 0 74.1309 12.6938 941 92.101 1194.85 479.844
1140 0 79.2531 13.2613 1051 90.333 1195.92 480.165
1141 0 82.3985 14.527 1197 89.071 1195.91 477.771
1142 0 86.334 14.4555 1248 89.2404 1197.31 478.124
1143 0 87.2172 14.7907 1290 89.9798 1198.81 477.67
1144 0 89.2233 14.0098 1250 91.0744 1199.96 476.771
1145 0 93.4179 13.1881 1232 92.8547 1202.04 474.304
1146 0 98.2841 14.0511 1381 91.643 1202.17 474.13
1147 1 57.1295 9.3997 537 91.5177 1204.9 497.471
1148 0 59.2226 11.8873 704 93.0511 1206.11 494.71
1149 0 61.2024 12.5322 767 90.7718 1206.39 496.455
1150 0 63.1519 13.2379 836 87.2392 1205.62 496.313
1151 0 68.2008 14.7506 1006 87.2704 1204.92 494.028
1152 0 69.1918 13.5854 940 89.7692 1203.82 496.14
1153 0 70.1724 12.8683 903 92.1152 1202.44 491.404
1154 0 76.2551 13.6778 1043 90.6625 1200.69 493.43
1155 0 78.2163 13.0919 1024 89.2441 1199.65 491.433
1156 0 83.7042 12.9384 1083 89.2447 1198.31 489.126
1157 0 87.6571 13.7468 1205 89.1859 1196.92 485.387
1158 0 88.3712 13.6696 1208 90.3386 1195.69 482.786
1159 1 51.0998 9.58907 490 89.8653 1194.22 503.68
1160 0 56.2448 11.0766 623 87.6485 1194.21 501.345
1161 0 55.1416 9.15823 505 92.0733 1193.08 497.077
1162 0 57.3471 10.8985 625 90.5632 1192.64 494.483
1163 0 59.1282 11.2467 665 90.9308 1191.93 493.711
1164 0 62.2157 14.3533 893 85.8544 1191.67 489.203
1165 0 63.0495 13.3229 840 88.7381 1192.93 487.707
1166 0 67.058 14.2414 955 87.1466 1193.04 486.535
1167 0 68.1105 13.8745 945 88.8328 1193.46 485.047
1168 0 69.1169 13.0504 902 90.378 1194.95 483.415
1169 0 72.0993 14.161 1021 88.3888 1195.58 482.519
1170 0 74.21 13.4618 999 90.3253 1195.92 478.911
1171 0 79.1218 14.6862 1162 88.1497 1197.58 479.414
1172 0 82.3819 15.9744 1316 86.3252 1198.76 479.207
1173 0 87.3112 14.5342 1269 86.9787 1200.06 480.091
1174 1 49.245 9.84872 485 89.066 1202.4 499.19
1175 0 51.1393 11.3416 580 85.3414 1204.39 501.952
1176 0 51.1441 11.1841 572 88.8112 1205.24 498.219
1177 0 53.1838 12.1842 648 87.4552 1206.15 498.336
1178 0 55.1665 12.9789 716 87.5684 1205.88 498.54
1179 0 59.1046 13.823 817 88.7858 1206.29 497.998
1180 0 58.0946 11.6534 677 90.6381 1204.57 496.098
1181 0 61.2106 11.9587 732 89.7076 1204.04 498.493
1182 0 65.227 14.1199 921 85.9967 1202.47 496.13
1183 0 69.1245 13.0055 899 87.5039 1200.96 494.783
1184 0 70.2422 14.0656 988 86.5719 1199.86 492.419
1185 0 75.1009 15.7255 1181 83.5047 1198.65 489.569
1186 0 78.1804 14.9654 1170 84.894 1197.45 487.384
1187 0 82.1598 17.1008 1405 82.1153 1195.78 484.177
1188 0 85.1468 14.8802 1267 85.4878 1194.66 484.038
1189 0 89.3017 14.6358 1307 86.4583 1193.82 481.171
1190 1 49.1685 12.4266 611 87.9116 1193.33 498.547
1191 0 51.204 11.5616 592 89.1622 1193.44 497.397
1192 0 51.0853 11.4123 583 91.3928 1193.58 493.612
1193 0 55.1204 14.6225 806 88 1194.71 490.655
1194 0 56.1038 15.0257 843 86.032 1194.5 488.848
1195 0 58.1888 14.4014 838 87.8938 1195.28 488.718
1196 0 60.1455 13.0683 786 89.3906 1195.45 489.043
1197 0 61.2008 13.8397 847 90.4203 1197.15 484.4
1198 0 65.191 14.6799 957 89.0616 1199 485.842
1199 0 68.2268 15.0381 1026 89.0185 1199.63 483.211
1200 0 68.1564 13.8065 941 92.6451 1200.57 482.696
1201 0 72.3021 14.2319 1029 92.3003 1203.63 482.681
1202 0 75.2345 16.3622 1231 89.6247 1204.87 483.075
1203 0 78.1795 15.9249 1245 91.4996 1205.54 480.149
1204 0 83.2993 16.6748 1389 89.3132 1207.24 479.691
1205 0 86.3252 16.044 1385 90.6852 1207.41 477.396
1206 0 90.2667 14.4682 1306 94.3936 1208.28 477.73
1207 1 50.0822 11.2216 562 95.3452 1207.89 501.472
1208 0 52.0737 12.5015 651 96.0998 1206.25 500.724
1209 0 54.2021 12.1397 658 96.5274 1205.42 500.509
1210 0 58.3482 13.7108 800 94.2138 1203.51 499.954
1211 0 60.1763 14.9062 897 93.0368 1203.09 499.48
1212 0 63.1008 14.5165 916 95.7249 1201.78 496.167
1213 0 62.1597 13.5457 842 98.1069 1199.81 495.221
1214 0 66.304 14.1922 941 96.5632 1198.54 495.132
1215 0 70.1885 15.3729 1079 95.3095 1197.31 491.753
1216 0 73.4795 15.8003 1161 94.8329 1196.58 490.408
1217 0 76.4463 15.3572 1174 96.4642 1195.92 486.963
1218 0 78.3936 15.9834 1253 95.5986 1195.74 483.203
1219 0 80.3993 14.5275 1168 100.161 1195.76 479.4
1220 0 82.4108 16.2357 1338 98.1876 1195.35 477.608
1221 0 84.4566 15.6056 1318 100.719 1196.2 473.743
1222 0 88.4459 15.9872 1414 100.191 1196.55 472.59
1223 0 92.443 17.8164 1647 96.3588 1197.43 471.724
1224 0 92.4111 15.918 1471 101.768 1197.41 467.308
1225 0 97.4685 15.2357 1485 101.876 1198.23 469.072
1226 0 101.413 16.3786 1661 100.865 1199.94 467.092
1227 0 106.539 16.839 1794 99.5953 1200.95 464.987
1228 1 63.1972 11.0764 700 102.226 1204.12 490.109
1229 0 63.2109 11.96 756 101.93 1206.47 489.378
1230 0 66.2082 11.7508 778 102.572 1206.51 488.743
1231 0 73.1474 14.669 1073 95.3178 1208.2 488.884
1232 0 74.0974 13.9546 1034 101.641 1209.23 486.453
1233 0 79.0819 15.3638 1215 97.107 1208.89 488.359
1234 0 81.204 14.716 1195 99.3054 1207.63 487.061
1235 0 85.1951 16.069 1369 97.8744 1206.55 485.413
1236 0 88.212 15.0887 1331 99.9046 1203.95 482.371
1237 0 93.3892 14.0809 1315 101.827 1203.81 481.838
1238 0 97.1864 14.395 1399 101.713 1201.85 476.274
1239 1 56.1418 9.476 532 101.571 1201.27 501.382
1240 0 56.0715 9.27387 520 105.277 1199.4 496.16
1241 0 59.1915 11.3699 673 101.596 1198.23 494.288
1242 0 62.0758 12.7264 790 98.7 1196.62 495.643
1243 0 65.1785 12.3814 807 99.2739 1195.59 493.744
1244 0 67.122 13.0062 873 99.4399 1194.49 491.352
1245 0 70.3009 13.5276 951 96.2555 1194.06 488.6
1246 0 74.1295 13.7462 1019 95.5427 1193.74 487.467
1247 0 74.2141 13.744 1020 97.8961 1194.11 482.594
1248 0 79.2969 12.4217 985 99.3127 1195.01 481.88
1249 0 79.3337 13.1596 1044 98.977 1194.43 480.43
1250 0 84.1698 13.9005 1170 95.8872 1196.12 478.977
1251 0 86.2778 14.1751 1223 96.9722 1197.1 476.262
1252 0 89.1486 13.4046 1195 97.882 1196.87 474.53
1253 0 92.3666 13.7604 1271 96.9662 1198.11 474.385
1254 0 96.3717 14.1432 1363 95.9457 1200.59 473.619
1255 0 99.146 13.6365 1352 97.6243 1202.79 471.135
1256 0 105.225 14.1886 1493 95.9571 1204.37 472.25
1257 0 108.187 15.7413 1703 93.8338 1206.01 468.971
1258 1 61.1621 9.41759 576 101.175 1205.58 491.476
1259 0 62.1479 9.31649 579 101.651 1204.79 493.261
1260 0 68.1098 10.8208 737 98.4206 1204.22 492.813
1261 0 71.062 13.6219 968 94.4804 1204.12 491.628
1262 0 73.1549 12.5624 919 94.5364 1203.76 490.825
1263 0 78.208 12.275 960 94.2208 1202.65 491.894
1264 0 81.219 12.7926 1039 94.5756 1201.71 489.268
1265 0 87.3762 13.2073 1154 94.1889 1200.12 485.955
1266 0 89.4243 12.122 1084 98.1439 1198.58 481.91
1267 0 96.329 13.4954 1300 94.7054 1196.6 480.97
1268 1 56.2962 11.6171 654 90.9006 1196.82 502.067
1269 0 57.2268 9.97784 571 96.2032 1195.58 497.424
1270 0 59.2483 10.6839 633 95.3855 1194.38 497.28
1271 0 57.0796 9.77581 558 97.8047 1194.75 493.778
1272 0 62.1235 12.0083 746 93.7802 1194.83 490.688
1273 0 64.1469 12.2064 783 93.1584 1194.49 489.14
1274 0 66.2715 13.837 917 90.6227 1192.94 486.574
1275 0 68.2326 13.41 915 91.5049 1193.2 486.215
1276 0 68.2663 12.0557 823 94.87 1194.82 484.446
1277 0 74.2292 13.0137 966 92.8799 1195.73 481.675
1278 0 76.2774 13.8049 1053 91.925 1196.64 479.34
1279 0 78.2724 13.0825 1024 93.4023 1198.34 480.089
1280 0 81.3479 13.7434 1118 93.6655 1198.64 477.405
1281 0 84.4288 13.7749 1163 94.7343 1201.54 475.611
1282 0 90.2592 15.7103 1418 90.1841 1203.55 477.738
1283 0 93.6898 13.2352 1240 95.6621 1205.2 475.954
1284 1 55.258 11.2925 624 91.8413 1207.15 498.228
1285 0 53.3848 12.1008 646 92.4443 1208.5 497.697
1286 0 59.1004 12.4026 733 89.7408 1208.54 499.525
1287 0 61.2428 12.0341 737 89.8711 1208.55 499.275
1288 0 62.3628 12.9885 810 89.3136 1207.31 495.936
1289 0 65.2842 14.1076 921 89.2845 1205.92 496.054
1290 0 67.3106 13.98 941 89.6844 1204.95 496.034
1291 0 70.2986 13.1866 927 92.3441 1203.35 495.2
1292 0 72.1174 13.3948 966 94.6615 1202.55 491.97
1293 0 76.2622 13.729 1047 93.3859 1201.17 489.681
1294 0 79.1105 13.6644 1081 93.3062 1199.17 488.813
1295 0 83.2373 14.3565 1195 91.9933 1197.79 485.741
1296 0 84.1786 14.5643 1226 93.3426 1196.03 481.682
1297 0 87.2782 14.3449 1252 95.1406 1194.96 478.952
1298 0 91.1418 14.7353 1343 94.035 1193.93 479.562
1299 0 94.118 14.0249 1320 96.5636 1193.7 473.911
1300 0 98.2569 14.8794 1462 95.1751 1193.62 472.078
1301 0 100.331 15.2895 1534 95.5196 1194.57 470.742
1302 0 102.415 14.4217 1477 98.0474 1195.56 468.105
1303 1 55.0609 11.0968 611 96.4583 1197.03 493.308
1304 0 58.1034 12.2884 714 98.5252 1197.81 486.936
1305 0 61.3501 13.4148 823 96.4496 1197.69 487.512
1306 0 64.1974 13.3183 855 96.3474 1198.83 487.767
1307 0 67.3376 14.6872 989 95.27 1200.7 485.493
1308 0 69.1491 12.755 882 101.73 1203.26 484.616
1309 0 69.2058 12.9324 895 102.834 1205.35 484.041
1310 0 74.274 14.7696 1097 99.5342 1207.24 484.401
1311 0 78.2934 13.641 1068 102.366 1208.77 483.83
1312 0 80.2168 14.3112 1148 102.171 1209.33 482.755
1313 0 82.1292 14.0267 1152 106.438 1209.39 481.862
1314 0 85.2582 14.849 1266 105.318 1208.41 485.315
1315 0 88.3786 13.7024 1211 109.339 1208.11 481.497
1316 0 91.2513 14.0491 1282 109.677 1206.3 483.161
1317 0 95.2311 15.3101 1458 111.18 1206.21 478.547
1318 1 25.0864 8.53052 214 97.0748 1203.31 516.963
1319 0 29.0369 10.1251 294 92.1395 1202.11 516.007
1320 0 27.0809 10.4871 284 94.1549 1203.02 514.616
1321 0 26.0479 10.903 284 97.1972 1201.35 514.046
1322 0 25.1483 11.134 280 99.0929 1199.39 512.279
1323 0 25.1191 10.8284 272 103.36 1198.71 511.853
1324 0 26.0918 11.5745 302 104.139 1198.27 509.871
1325 0 27.0682 11.8959 322 102.276 1197.35 509.671
1326 0 27.113 10.3272 280 109.654 1197.11 507.721
1327 0 26.1175 11.678 305 109.056 1197.62 506.577
1328 0 26.0906 10.6935 279 113.018 1198.06 504.573
1329 0 26.3358 10.8977 287 111.049 1198.4 505.432
1330 0 26.1706 12.151 318 111.912 1199.37 504.104
1331 0 26.1547 11.3173 296 112.983 1200.32 504.514
1332 0 28.1786 10.5044 296 112.291 1200.98 505.274
