time division length width area intensity CMx CMy
0 0 41.5378 12.8317 533 117.587 1344.29 483.64
1 0 44.4466 14.7368 655 111.292 1344.76 484.363
2 0 45.3146 14.1897 643 111.044 1344.73 484.348
3 0 46.347 14.1109 654 110.006 1344.65 483.726
4 0 46.3931 13.4934 626 111.286 1345.15 484.081
5 0 47.4803 13.5635 644 109.553 1345.93 482.342
6 0 49.3729 14.0968 696 112.296 1346.96 481.953
7 0 50.2077 14.3803 722 110.212 1345.58 481.568
8 1 25.1094 10.3547 260 114.912 1348.7 492.662
9 0 24.0382 9.15209 220 115.341 1348.86 493.932
10 0 28.0647 10.939 307 109.765 1348.29 492.326
11 0 25.0073 9.63718 241 115.311 1348.41 492.705
12 0 29.1484 11.9389 348 108.603 1347.72 492.486
13 0 29.0324 11.3666 330 109.945 1348.85 491.603
14 0 30.1376 10.9498 330 111.064 1348.25 490.833
15 0 29.0482 11.7735 342 109.491 1348.04 491.137
16 0 30.184 12.4569 376 106.742 1348.45 490.774
17 0 31.048 12.0459 374 104.898 1348.31 492.642
18 0 33.0429 13.5884 449 102.243 1347.59 491.644
19 0 32.0484 12.5123 401 107.264 1347.54 490.845
20 0 33.0722 12.4878 413 106.734 1347.17 490.264
21 0 34.0079 13.9085 473 105.89 1347.47 488.245
22 0 34.2302 15.7463 539 101.993 1347.93 487.484
23 0 36.1687 13.9071 503 104.197 1348.22 488.777
24 0 36.1829 14.4544 523 104.849 1347.57 488.145
25 0 37.0927 14.2076 527 105.901 1347.27 487.239
26 0 38.6713 13.9897 541 106.287 1346.43 486.852
27 0 39.1343 14.2075 556 105.473 1347.98 487.484
28 0 39.1349 14.2328 557 135.729 1348.97 487.513
29 0 39.2957 15.3452 603 105.083 1348.1 484.982
30 0 40.1603 14.9899 602 105.997 1349.4 484.314
31 0 41.0837 14.507 596 106.356 1349.71 484.589
32 0 42.0978 15.0602 634 105.516 1349.54 484.333
33 0 44.167 14.9433 660 104.902 1350.38 482.882
34 0 43.0669 14.0479 605 108.507 1350.67 482.144
35 0 46.1218 15.9794 737 104.993 1350.67 481.551
36 0 46.1218 15.9794 737 144.415 1349.67 481.566
37 0 49.076 16.1179 791 105.046 1351.31 479.92
38 0 50.0486 16.2242 812 104.491 1351.32 479.291
39 0 48.052 15.3167 736 141.168 1351.36 477.966
40 0 50.0628 15.6603 784 106.37 1350.73 480.953
41 0 54.0907 15.8622 858 105.479 1350.77 479.216
42 0 55.1008 16.007 882 104.605 1351.43 479.187
43 0 57.1729 15.3569 878 106.675 1351.95 476.273
44 0 59.1627 16.9702 1004 103.936 1351.4 476.579
45 0 58.1633 17.1758 999 147.056 1350.4 476.626
46 0 64.1921 17.4165 1118 103.242 1352.68 474.826
47 0 66.2051 16.0562 1063 105.677 1352.45 475.75
48 0 68.2126 17.1083 1167 103.969 1352.52 475.28
49 0 69.1565 17.8725 1236 103.237 1351.62 476.361
50 0 71.3013 16.9141 1206 104.34 1351.59 471.584
51 0 74.1211 17.242 1278 103.901 1350.66 472.243
52 0 76.0374 15.808 1202 106.018 1351.5 471.742
53 0 76.0374 15.7817 1200 154.817 1352.48 471.742
54 0 82.4389 17.7465 1463 102.298 1351.86 468.452
55 0 80.2722 15.1111 1213 108.094 1350.57 467.336
56 0 88.1935 16.7019 1473 105.008 1350.78 464.766
57 0 90.1588 15.9385 1437 106.789 1351.94 462.361
58 0 96.1491 16.36 1573 106.435 1351.27 459.745
59 1 46.0692 10.723 494 105.593 1352.06 486.779
60 0 48.0836 13.019 626 103.216 1351.96 484.313
61 0 50.1587 13.7763 691 102.122 1351.91 482.493
62 0 51.1061 14.2644 729 102.357 1352.3 481.155
63 0 52.072 14.4031 750 104.856 1351.36 480.073
64 0 54.1699 14.0115 759 105.333 1351.8 480.161
65 0 58.1579 15.4063 896 102.32 1351.6 478.612
66 0 58.1594 14.4947 843 103.996 1351.63 477.521
67 0 61.1116 16.6089 1015 99.9419 1352.13 475.579
68 0 63.2622 15.0485 952 102.821 1352.09 472.873
69 0 64.263 15.3432 986 102.997 1352.35 472.234
70 0 68.3211 14.9149 1019 102.982 1350.67 473.228
71 0 68.1592 13.3951 913 106.889 1351.69 470.537
72 0 74.4427 15.7571 1173 101.905 1350.51 469.338
73 1 37.3279 11.7874 440 102.205 1350.51 485.95
74 0 39.5677 11.1707 442 104.919 1350.59 484.821
75 0 40.5027 10.024 406 105.365 1351.39 485.872
76 0 45.7946 13.495 618 98.1845 1352.98 484.688
77 0 44.4041 12.8367 570 102.121 1351.96 482.563
78 0 44.5595 11.1761 498 103.223 1352.92 483.032
79 0 46.5062 12.837 597 102.422 1352.06 482.544
80 0 43.5317 11.2102 488 139.199 1351.91 480.455
81 0 50.5707 14.1188 714 98.0616 1353.28 481.391
82 0 53.287 13.5305 721 98.5728 1352.59 481.354
83 0 54.4466 12.5811 685 100.055 1353.06 479.089
84 0 54.3089 13.7178 745 98.4201 1352.13 479.162
85 0 56.3435 14.0389 791 97.0809 1352.97 478.614
86 0 57.3656 12.5685 721 101.316 1352.41 477.012
87 0 60.459 13.6621 826 99.6574 1352.41 474.97
88 0 62.2872 13.7428 856 99.2395 1352.68 474.475
89 0 63.2967 12.3545 782 102.017 1351.88 472.214
90 0 63.2967 12.5283 793 131.422 1351.91 472.252
91 0 69.4884 15.8732 1103 94.8685 1352.39 470.866
92 0 71.2165 14.814 1055 96.2815 1352.88 469.613
93 0 73.2434 13.5439 992 97.4194 1352.73 469.802
94 0 77.2672 14.5728 1126 96.6421 1352.67 466.572
95 0 79.3096 13.9832 1109 96.7033 1352.91 466.19
96 1 43.028 12.5964 542 89.9262 1354.08 484.428
97 0 41.0289 11.8453 486 132.938 1354.14 483.183
98 0 41.0289 11.8453 486 132.471 1354.14 483.183
99 0 48.0895 12.7471 613 86.8434 1354.17 484.372
100 0 48.0895 12.6639 609 127.021 1355.19 484.3
101 0 50.0694 12.962 649 86.7427 1354.86 481.596
102 0 50.6772 11.8594 601 88.3511 1353.63 480.71
103 0 51.438 11.8784 611 90.1964 1353.56 479.376
104 0 53.3531 12.7078 678 88.031 1354.03 480.165
105 0 54.489 13.1403 716 87.338 1354.02 479.804
106 0 59.4064 12.1031 719 91.3421 1353.91 478.618
107 0 57.3648 12.5164 718 92.4109 1353.48 475.877
108 0 57.3648 12.5687 721 127.587 1355.47 475.861
109 0 62.4714 15.1269 945 87.9735 1353.68 474.723
110 0 63.3932 14.9701 949 89.6449 1353.86 474.287
111 0 65.3842 12.893 843 92.9098 1353.37 474.788
112 0 68.4491 13.4553 921 92.6221 1353.55 471.8
113 0 69.3984 13.3721 928 93.986 1352.97 470.934
114 0 72.3512 11.5547 836 96.8457 1353.85 470.705
115 0 77.3643 16.1444 1249 89.5244 1351.55 468.324
116 0 78.3458 13.4915 1057 94.5894 1352.61 469.898
117 0 82.4366 15.0661 1242 92.6828 1352.05 467.077
118 0 84.3303 14.3602 1211 94.3551 1351.95 465.3
119 0 88.4353 14.6661 1297 93.3285 1351.55 465.549
120 1 43.0749 10.8184 466 92.2017 1353.3 486.212
121 0 45.1484 12.0934 546 91.6923 1352.99 484.505
122 0 46.2322 10.5338 487 93.7331 1350.82 484.967
123 0 48.3227 12.0854 584 90.1729 1351.28 485
124 0 48.3274 12.1877 589 91.4143 1351.19 483.615
125 0 48.3274 12.2498 592 137.672 1351.2 483.586
126 0 48.3274 12.3119 595 137.03 1351.18 483.513
127 0 53.2206 12.3824 659 91.0941 1351.48 482.232
128 0 55.3635 13.1133 726 91.8719 1351.37 478.86
129 0 57.3031 12.652 725 92.0069 1351.51 479.71
130 0 60.3318 14.6192 882 89.0873 1352.18 477.296
131 0 62.2554 15.2437 949 88.4858 1351.42 473.89
132 0 64.2195 13.0178 836 91.6041 1351.79 474.255
133 0 66.3303 12.8599 853 91.1137 1351.83 474.197
134 0 68.3291 14.0936 963 128.901 1351.76 472.422
135 0 71.2108 13.776 981 90.7176 1351.64 471.597
136 0 75.2213 15.0755 1134 88.3157 1352.01 470.442
137 0 76.2465 15.6728 1195 87.5724 1352.21 468.089
138 0 78.2631 15.9718 1250 87.8552 1353.71 467.995
139 0 80.2192 14.5227 1165 90.23 1352.91 467.465
140 0 83.1158 15.7251 1307 88.622 1352.95 466.702
141 0 85.1106 13.8291 1177 91.6542 1352.83 467.054
142 0 86.1582 13.1966 1137 93.1847 1352.82 464.321
143 1 49.1149 10.6689 524 88.9256 1350.8 486.487
144 0 50.0861 13.6764 685 85.0204 1350.48 486.876
145 0 49.216 12.8007 630 87.5079 1350.7 484.841
146 0 50.2373 11.6248 584 89.5942 1350.97 485.762
147 0 51.3874 14.3031 735 86.4163 1351.54 484.128
148 0 53.2274 14.5602 775 87.2116 1351.33 482.035
149 0 54.1684 14.6026 791 87.2503 1352.3 481.939
150 0 56.3307 13.1367 740 89.123 1351.7 482.265
151 0 56.0911 12.551 704 90.4872 1350.93 477.984
152 0 61.178 14.6621 897 85.5452 1351.38 479.72
153 0 60.2853 12.9716 782 89.2685 1350.87 477.501
154 0 65.1822 14.866 969 85.5511 1351.54 476.708
155 0 66.407 15.3448 1019 85.3817 1350.59 477.102
156 0 66.3897 13.7069 910 88.122 1350.52 475.01
157 0 69.3185 14.9455 1036 86.8147 1350.59 472.794
158 0 74.7495 15.3312 1146 84.8202 1350.73 471.577
159 1 39.3832 10.4867 413 85.9395 1351.2 489.123
160 0 39.4242 9.51191 375 90.192 1350.49 484.469
161 0 42.4138 10.5626 448 87.6004 1350.91 487.498
162 0 45.241 11.2066 507 87.5799 1351.25 485.179
163 0 44.589 13.1871 588 87.2211 1351.39 483.573
164 0 46.4462 13.112 609 87.22 1351.68 484.99
165 0 47.3747 12.5806 596 89.2232 1351.19 483.064
166 0 49.36 12.6013 622 89.6672 1351.63 481.743
167 0 52.3497 13.7728 721 87.4882 1351.04 481.377
168 0 52.3497 13.6963 717 138.697 1349.06 481.386
169 0 55.2743 12.8269 709 88.835 1352.65 482.556
170 0 55.106 13.0113 717 89.5635 1353.6 480.272
171 0 57.156 13.4544 769 88.4863 1352.38 481.384
172 0 60.261 15.3831 927 86.9159 1352.15 478.071
173 0 60.1634 12.6156 759 90.747 1351.61 480.227
174 0 62.2468 12.9003 803 91.5753 1351.69 478.441
175 0 63.2816 14.3012 905 90.1934 1351.64 476.341
176 0 64.3088 14.5392 935 91.2032 1351.63 477.142
177 0 68.2914 13.4424 918 91.9031 1351.78 476.527
178 0 70.2747 15.0267 1056 90.0341 1352.27 475.411
179 0 71.2358 12.4516 887 94.5006 1351.14 474.958
180 0 74.3975 15.0812 1122 91.5223 1351.18 473.39
181 0 76.8641 12.8148 985 95.0234 1350.89 472.992
182 0 79.2446 14.8401 1176 92.6896 1350.52 470.525
183 0 81.542 14.4465 1178 94.7997 1350.74 467.917
184 0 85.482 15.9683 1365 91.0337 1350.83 468.347
185 0 89.3788 15.4511 1381 93.0152 1350.34 466.343
186 1 38.1893 11.2597 430 92.2093 1351.45 489.858
187 0 41.1013 12.53 515 87.934 1351.53 491.373
188 0 41.1015 10.2916 423 94.2104 1351.15 489.13
189 0 44.0388 11.172 492 92.7846 1350.42 488.909
190 0 43.0979 11.6711 503 92.9304 1350.08 486.626
191 0 46.0345 12.4472 573 92.5079 1350.46 484.583
192 0 48.0582 11.6734 561 93.139 1350.56 485.221
193 0 48.0769 12.7712 614 92.3779 1351.8 485.282
194 0 50.1497 12.682 636 94.7358 1352.3 481.451
195 0 51.1776 12.7595 653 95.7933 1352.28 481.982
196 0 56.0923 12.8003 718 94.0153 1352.11 482.841
197 0 55.1455 12.0409 664 97.5798 1352.21 480.14
198 0 58.1293 13.8312 804 94.194 1351.89 478.816
199 0 59.1164 13.5157 799 95.2829 1350.96 480.334
200 0 59.1164 13.4819 797 143.178 1350.96 480.271
201 0 63.176 13.6286 861 97.2427 1351.76 478.965
202 1 34.1248 9.96343 340 100.221 1352.06 492.812
203 0 34.118 11.3723 388 100.58 1351.89 491.884
204 0 37.1407 11.3353 421 102.164 1352.19 491.038
205 0 39.0661 13.0548 510 96.6137 1352.44 492.118
206 0 41.0823 13.193 542 99.1734 1352.48 489.485
207 0 42.2869 13.101 554 98.4206 1352.39 491.097
208 0 39.1827 13.2712 520 102.258 1351.33 490.85
209 0 43.3988 13.4105 582 100.483 1351.58 491.096
210 0 43.2776 12.8473 556 102.836 1351.72 491.714
211 0 43.2776 12.8242 555 161.827 1350.71 491.681
212 0 44.2505 13.8756 614 103.606 1350.81 488.516
213 0 47.2428 13.5682 641 103.741 1350.02 487.944
214 0 50.2378 13.2171 664 103.607 1349.68 486.752
215 0 49.282 13.2909 655 104.611 1350.24 485.96
216 0 52.2384 13.5915 710 103.617 1350.29 485.487
217 0 52.2437 12.9202 675 105.244 1350.24 484.91
218 0 57.2811 15.6771 898 98.5212 1349.98 483.249
219 0 57.1677 15.8481 906 99.777 1349.76 481.589
220 0 58.1576 14.7358 857 102.877 1350.58 480.033
221 0 58.2076 14.3624 836 103.007 1350.46 480.437
222 0 62.2055 15.6899 976 99.4744 1350.47 478.817
223 0 63.2318 15.5934 986 99.645 1350.33 477.058
224 0 65.1516 16.0395 1045 99.1282 1349.49 474.311
225 0 66.1813 15.11 1000 100.005 1349.89 475.337
226 0 69.1778 17.0286 1178 96.3251 1350.35 472.158
227 1 37.1371 9.5861 356 104.522 1351.46 490.211
228 0 38.0599 10.247 390 103.718 1351.48 489.21
229 0 38.0599 10.1945 388 165.049 1351.47 489.245
230 0 41.0938 10.9992 452 102.195 1352.17 488.378
231 0 42.1648 12.6409 533 98.6829 1352.43 487.36
232 0 45.1785 13.9004 628 96.0669 1353.45 485.266
233 0 46.0892 13.2352 610 96.1 1353.86 485.564
234 0 47.1019 14.8402 699 92.824 1354.14 485.223
235 0 48.1181 14.7346 709 92.0606 1353.71 485.336
236 0 49.2326 14.2995 704 92.2386 1353.04 486.128
237 0 49.1445 13.0839 643 95.4137 1352.95 484.24
238 0 53.2288 16.0252 853 89.7855 1353.1 483.38
239 0 54.299 14.2912 776 93.7912 1353.27 483.7
240 0 56.1355 15.2666 857 91.5134 1353.31 482.592
241 0 56.3435 13.9324 785 96.9796 1352.3 480.443
242 0 57.3868 14.3936 826 95.77 1351.62 481.695
243 0 63.2181 15.755 996 91.8544 1351.54 481.001
244 0 63.429 15.7972 1002 92.4092 1351.76 480.741
245 0 65.374 15.7096 1027 92.1071 1351.77 478.853
246 0 67.2699 15.3263 1031 91.0766 1351.77 479.33
247 0 66.2084 13.6841 906 95.4724 1351.45 476.742
248 0 70.2333 14.6939 1032 93.5291 1351.16 474.345
249 0 71.2775 14.7171 1049 93.8332 1350.21 473.663
250 0 75.3192 15.0692 1135 92.2414 1350.95 473.381
251 0 79.3254 17.6614 1401 87.2905 1350.74 473.256
252 1 41.0852 11.8047 485 94.0495 1351.34 488.287
253 0 43.0637 12.7718 550 93.2727 1351.23 486.729
254 0 46.1719 12.0203 555 93.3405 1351.06 487.378
255 0 44.3497 12.9877 576 93.9253 1350.76 486.389
256 0 46.3274 12.6059 584 95.149 1351.04 483.538
257 0 49.2988 14.3208 706 91.7691 1350.99 484.268
258 0 51.0494 14.2803 729 91.3978 1351.47 483.399
259 0 51.2244 14.7391 755 91.4331 1350.65 482.709
260 0 52.345 14.5955 764 91.8298 1351.04 481.887
261 0 53.4403 13.6227 728 94.0467 1351.1 480.394
262 0 56.2159 15.476 870 90.8724 1351.31 480.902
263 0 58.3418 14.2608 832 92.5409 1351.83 480.102
264 0 58.5692 13.6249 798 94.5301 1352.07 476.929
265 0 62.3649 14.6236 912 91.1897 1352.61 478.515
266 0 62.3101 12.9995 810 95.279 1352.6 477.815
267 0 65.3288 16.4705 1076 90.0084 1353.1 475.856
268 0 68.3589 15.0675 1030 91.6029 1353.81 477.45
269 0 70.5129 14.5931 1029 93.138 1353.63 473.98
270 0 73.3597 15.2536 1119 91.0947 1353.16 476.107
271 0 73.2597 15.0424 1102 92.725 1352.86 474.802
272 0 77.2517 15.3653 1187 91.8324 1352.69 471.845
273 0 79.3063 14.362 1139 93.8516 1352.9 472.09
274 0 84.1611 17.6923 1489 87.7683 1352.36 473.85
275 0 85.1605 15.1126 1287 93.5967 1352.35 468.326
276 1 45.0984 11.3308 511 93.2094 1352.73 492.785
277 0 47.0613 12.3668 582 93.5498 1352.66 490.399
278 0 46.0606 11.9408 550 95.9255 1352.31 488.569
279 0 49.0863 13.9346 684 92.4181 1352.03 487.368
280 0 53.0894 12.6956 674 94.7923 1351.62 486.515
281 0 54.0605 14.7242 796 91.3065 1351.46 486.009
282 0 53.0416 12.33 654 98.078 1351.22 483.356
283 0 58.1083 14.559 846 93.6868 1350.45 482.487
284 0 59.0951 14.6036 863 95.1008 1349.65 481.315
285 0 62.1554 14.9947 932 93.6674 1350.26 480.075
286 0 64.1812 14.4279 926 95.5464 1349.36 477.795
287 0 64.1257 14.0661 902 96.4501 1349.6 476.95
288 0 68.1197 15.3406 1045 93.8153 1348.62 475.448
289 0 69.3468 14.5068 1006 95.33 1348.87 474.597
290 0 71.2958 15.6812 1118 93.8667 1349.35 472.238
291 0 74.1594 14.6576 1087 95.6081 1348.84 471.604
292 0 76.6865 16.6522 1277 92.1911 1349.3 468.774
293 0 80.529 17.4471 1405 90.5153 1350.36 468.793
294 0 79.4837 14.5816 1159 95.1691 1350.9 468.334
295 1 43.4448 10.2199 444 93.6329 1352.02 488.529
296 0 42.4853 10.5684 449 93.5902 1351.4 487.822
297 0 45.2092 11.4357 517 94.029 1351.74 485.59
298 0 48.3841 14.3022 692 88.4711 1352.71 484.717
299 0 48.4187 13.3213 645 91.014 1352.69 484.336
300 0 50.3794 12.5647 633 91.1058 1352.45 485.678
301 0 53.3093 13.3748 713 90.9018 1352.99 483
302 0 55.2581 13.627 753 89.7357 1352.94 483.556
303 0 56.1327 12.2389 687 91.9025 1353.93 483.952
304 0 58.075 13.3276 774 89.9121 1353.56 483.84
305 0 59.1099 13.0943 774 92.4302 1354.06 480.55
306 0 62.1085 13.7662 855 91.1965 1353.09 482.685
307 0 62.1382 12.8745 800 93.8725 1353.02 479.859
308 0 64.1722 13.7287 881 92.412 1352.42 479.313
309 0 69.2607 14.135 979 90.81 1352.27 477.913
310 0 72.1846 14.1304 1020 90.7804 1351.87 476.164
311 0 75.1227 14.9888 1126 89.4574 1351.29 473.996
312 1 41.2179 11.791 486 88.2654 1350.83 491.879
313 0 40.345 10.4846 423 89.8298 1350.79 491.504
314 0 42.1288 11.3936 480 88.7625 1349.89 489.265
315 0 44.315 11.8244 524 86.376 1349.71 489.901
316 0 47.1651 12.3608 583 85.7804 1349.51 488.376
317 0 47.3805 12.5579 595 87.8303 1348.89 485.481
318 0 49.398 12.3487 610 87.0951 1349.33 485.579
319 0 51.2367 13.9744 716 85.2919 1349.14 482.134
320 0 53.1456 12.3811 658 86.3951 1349.6 483.359
321 0 53.1795 12.3168 655 87.4504 1349.99 482.027
322 0 53.2852 12.7991 682 86.5528 1349.6 479.848
323 0 56.2611 14.1483 796 83.1445 1350.67 480.868
324 0 58.4345 13.2627 775 85.7252 1350.08 478.468
325 0 60.3709 13.8477 836 83.7524 1351.34 480.248
326 0 62.2318 13.5622 844 84.269 1352.21 478.123
327 0 62.1529 13.7564 855 85.9977 1352.42 476.373
328 0 65.4901 13.0249 853 86.449 1353 476.608
329 0 69.2364 15.7143 1088 81.2684 1354.04 474.932
330 0 70.2887 13.971 982 84.1823 1354.04 475.545
331 0 73.6543 14.8124 1091 84.6801 1354.23 472.923
332 0 73.4001 12.6703 930 89.0602 1354.01 472.178
333 0 77.1605 14.5411 1122 84.8084 1354.18 474.087
334 0 80.2323 15.2806 1226 84.7798 1353.55 471.425
335 0 81.1337 15.1478 1229 85.3735 1354.37 472.623
336 0 82.1158 12.799 1051 90.2864 1354.05 469.635
337 0 87.2397 14.5461 1269 88.5737 1353.61 466.515
338 0 90.1882 14.9909 1352 87.1886 1353.7 466.725
339 1 45.3507 9.54782 433 89.6051 1352.6 489.388
340 0 49.245 9.8081 483 87.1636 1351.33 490.474
341 0 51.1824 12.7388 652 84.908 1352.03 486.773
342 0 54.2553 12.091 656 85.5335 1351.92 486.401
343 0 56.2369 12.5896 708 85.565 1351.2 484.963
344 0 57.3312 14.8959 854 82.9415 1350.59 481.533
345 0 59.1894 15.2561 903 81.9745 1349.97 483.545
346 0 61.2997 13.9642 856 84.6425 1350.16 481.999
347 0 64.3616 14.2632 918 87.1492 1349.72 478.174
348 0 66.3441 13.7164 910 88.8121 1349.08 478.275
349 0 69.659 14.5997 1017 87.0226 1349.51 477.1
350 0 71.5194 14.8491 1062 87.2768 1349.28 474.44
351 0 71.3583 13.0188 929 91.7589 1349.74 473.179
352 0 74.2805 13.9067 1033 91.3824 1350.35 468.788
353 0 75.211 13.0034 978 93.1237 1351.14 470.015
354 0 79.2794 14.7579 1170 90.1504 1351.44 468.471
355 1 39.0533 11.6507 455 90.1011 1353.82 488.103
356 0 43.0343 12.1066 521 88.7793 1353.7 487.459
357 0 43.0162 11.7398 505 87.5723 1354.82 487.566
358 0 45.0649 12.0937 545 87.1578 1354.23 486.717
359 0 45.1861 12.6145 570 87.3807 1353.65 485.947
360 0 47.1107 13.2454 624 85.766 1354.34 486.514
361 0 47.2066 14.0235 662 85.1193 1353.69 488.692
362 0 46.1609 11.6982 540 92.2667 1354.2 485.941
363 0 48.1735 12.9117 622 90.1238 1354.12 486.977
364 0 50.1548 14.7144 738 88.0054 1354.89 484.058
365 0 53.1938 15.3965 819 86.9658 1355.34 485.35
366 0 54.2887 14.294 776 89.3093 1355.32 486.144
367 0 56.2268 14.9573 841 89.2105 1354.49 484.925
368 0 59.1472 14.5569 861 89.7317 1354.58 485.256
369 0 61.3349 14.8529 911 90.6707 1353.93 484.821
370 0 62.2511 14.6664 913 91.6835 1353.07 482.939
371 0 63.1838 14.3233 905 93.8254 1352.72 481.126
372 0 64.2875 14.1552 910 95.533 1351.5 479.954
373 0 65.1882 13.3 867 98.2226 1351.36 478.533
374 0 67.3399 13.5729 914 97.7582 1350.93 476.639
375 0 70.238 14.1519 994 99.0825 1349.83 475.141
376 0 75.2006 16.4759 1239 93.569 1349.56 473.094
377 0 78.1727 15.0308 1175 95.5132 1349.62 472.476
378 0 77.1645 14.3719 1109 99.6023 1348.34 471.304
379 1 40.0535 12.6581 507 97.7771 1350.44 489.27
380 0 43.0373 11.432 492 100.561 1349.97 487.929
381 0 43.1567 11.2845 487 99.6715 1350.43 488.645
382 0 46.0594 12.0497 555 99.0396 1349.13 487.169
383 0 46.0693 12.8936 594 101.059 1349.59 485.153
384 0 48.1096 11.9519 575 101.292 1350.72 485.706
385 0 48.0912 12.9338 622 101.743 1350.91 483.984
386 0 52.1145 14.2571 743 98.9637 1351.01 482.474
387 0 54.092 15.1409 819 97.0366 1352.02 482.991
388 0 55.141 15.8684 875 96.1074 1353.34 482.421
389 0 56.153 15.1194 849 99.0424 1353.59 482.002
390 0 56.153 15.1194 849 153.047 1353.57 482.035
391 0 62.1533 16.5719 1030 96.032 1354.63 481.03
392 0 62.1533 16.5076 1026 157.943 1355.61 480.965
393 0 64.1643 15.8188 1015 100.513 1354.62 479.367
394 0 67.2602 15.3434 1032 102.021 1354.56 479.279
395 0 70.1029 15.2775 1071 103.015 1354.27 478.38
396 0 73.2036 16.1877 1185 101.19 1354.58 478.278
397 0 76.2268 16.7133 1274 100.159 1354.04 478.728
398 0 78.1502 16.0588 1255 103.262 1353.35 477.32
399 0 81.2496 15.877 1290 102.516 1353.85 476.296
400 0 85.2359 17.1993 1466 99.8663 1353.39 474.076
401 0 88.2942 16.4564 1453 101.27 1354.04 471.072
402 0 92.3533 17.5955 1625 100.146 1353.64 470.65
403 0 93.3283 16.9188 1579 102.372 1352.31 466.84
404 0 98.3402 17.4903 1720 100.78 1351.53 467.023
405 0 102.479 17.9842 1843 100.105 1351.51 465.473
406 0 105.738 16.1059 1703 103.384 1351 461.107
407 1 57.2903 16.1807 927 96.7508 1350.56 485.501
408 0 58.2428 15.3324 893 99.7357 1349.8 481.595
409 0 62.181 16.4681 1024 96.7715 1349.16 481.571
410 0 62.0825 14.964 929 102.22 1348.43 478.042
411 0 66.1907 15.9539 1056 99.1572 1349.62 477.302
412 0 66.2231 15.8706 1051 99.3787 1349.72 475.427
413 0 67.2493 14.3496 965 102.402 1350.45 475.02
414 0 72.2489 16.3601 1182 98.0271 1350.8 471.56
415 0 74.2372 15.3831 1142 100.552 1351.78 472.254
416 0 77.1962 17.0734 1318 96.9165 1352.69 471.56
417 0 79.2354 16.7223 1325 97.4891 1353.74 469.586
418 0 82.2273 15.0315 1236 100.827 1353.99 468.857
419 1 42.0799 10.6226 447 104.289 1356.37 485.915
420 0 46.0279 11.5365 531 99.9492 1357.33 488.539
421 0 48.0752 12.0436 579 100.751 1357.85 487.756
422 0 48.0527 12.5071 601 102.015 1357.92 485.466
423 0 50.0214 12.8345 642 98.7274 1358.61 488.491
424 0 52.0323 13.4532 700 100.099 1357.76 485.909
425 0 52.1585 12.2895 641 99.3261 1357.98 486.956
426 0 56.105 14.8472 833 93.6182 1357.71 488.816
427 0 58.0223 13.9257 808 95.8837 1357.31 487.239
428 0 60.1651 14.6763 883 95.2367 1356.04 485.92
429 0 62.0554 15.1639 941 95.119 1355.65 485.479
430 0 64.1458 14.0929 904 97.4159 1354.89 484.576
431 0 66.0506 14.1407 934 97.9218 1354.43 482.532
432 0 71.0779 15.0117 1067 95.7188 1353.7 480.246
433 0 71.1916 14.1028 1004 97.6882 1353.28 480.124
434 0 71.1852 14.2024 1011 146.593 1353.3 480.029
435 1 42.0439 10.5366 443 99.2009 1351.41 492.077
436 0 41.0443 10.4034 427 99.0351 1350.98 491.26
437 0 43.0224 12.6678 545 95.3193 1349.99 487.912
438 0 46.1019 13.1665 607 93.6392 1349.24 487.839
439 0 48.1774 12.537 604 93.8626 1349.33 487.611
440 0 48.2349 14.9062 719 88.9318 1349.47 484.221
441 0 49.2852 12.2958 606 92.137 1350.22 483.149
442 0 51.1743 12.3304 631 92.9572 1349.48 482.899
443 0 53.2949 13.566 723 90.7068 1350.98 482.916
444 0 55.1867 15.058 831 89.0662 1351.1 479.645
445 0 57.2814 13.3726 766 90.3198 1352.05 481.204
446 0 56.3985 11.7556 663 95.0694 1352.66 479.534
447 0 60.3275 12.9128 779 93.2721 1354.1 477.555
448 0 61.1716 13.6501 835 94.0563 1355.17 476.293
449 0 64.2819 13.1297 844 94.0213 1356.51 477.493
450 0 64.2819 13.2075 849 132.252 1357.54 477.515
451 0 70.3947 13.3817 942 93.1316 1358.02 476.657
452 1 37.0416 11.4466 424 91.5731 1359.42 492.483
453 0 39.0496 10.9604 428 93.3715 1359.72 492.313
454 0 39.0238 11.1727 436 92.9495 1358.53 494.44
455 0 43.0345 12.5248 539 90.974 1358.57 491.952
456 0 42.0468 13.0569 549 90.7796 1357.7 491.887
457 0 44.2709 13.1237 581 89.358 1355.68 492.633
458 0 45.4109 13.499 613 89.1158 1355.2 492.096
459 0 46.3507 11.9524 554 90.1245 1354.74 491.67
460 0 49.2513 12.2027 601 89.1947 1354.36 490.409
461 0 51.4522 12.0112 618 89.9563 1354.38 487.306
462 0 54.2274 14.347 778 86.9113 1353.19 487.808
463 0 53.184 11.9773 637 90.3375 1351.6 485.969
464 0 58.5481 13.1003 767 87.9687 1351.34 483.021
465 0 59.2836 13.6125 807 86.7782 1351.41 482.942
466 0 61.1726 15.0558 921 86.5961 1349.91 479.999
467 0 64.375 13.7942 888 88.7635 1349.84 479.519
468 0 64.2265 12.9386 831 91.2022 1348.76 476.051
469 0 67.1937 14.7038 988 89.5071 1349.16 472.849
470 0 72.2982 14.8137 1071 88.76 1349.15 470.349
471 1 38.0314 9.99175 380 88.9605 1350.17 491.345
472 0 37.0533 10.4174 386 89.4611 1350.67 490.495
473 0 40.0364 11.3147 453 89.4857 1350.41 488.965
474 0 41.0235 13.6507 560 87.1214 1351.52 487.939
475 0 43.0677 11.1685 481 91.1871 1351.74 486.455
476 0 45.0769 14.1758 639 86.0391 1351.78 485.299
477 0 47.188 12.9694 612 88.5163 1352.97 484.931
478 0 48.0788 14.4762 696 85.1365 1354.41 484.578
479 0 49.1169 14.9847 736 85.7024 1355.19 483.779
480 0 51.2047 15.1353 775 86.0155 1355.65 483.223
481 0 52.3006 14.6844 768 87.3672 1356.68 485.038
482 0 52.3206 13.6849 716 90.8436 1356.77 483.888
483 0 54.2675 14.5759 791 89.2389 1356.86 485.2
484 0 57.3397 15.539 891 87.6633 1357.18 485.163
485 0 60.3183 16.6285 1003 87.5444 1356.58 481.707
486 0 60.3675 15.6044 942 88.6093 1355.55 484.57
487 0 63.2941 14.8513 940 91.9702 1355.01 481.783
488 0 68.2715 14.7646 1008 91.9216 1354.83 482.355
489 0 69.3493 15.184 1053 91.6182 1354.45 482.2
490 0 73.236 16.4673 1206 90.0887 1353.97 478.429
491 0 75.3217 14.8696 1120 94.425 1352.72 478.249
492 0 78.1806 14.927 1167 94.6221 1351.48 475.948
493 1 40.1631 11.9762 481 94.1601 1351.55 494.031
494 0 42.0574 12.5305 527 92.5503 1351.03 493.123
495 0 44.1471 13.4324 593 92.6037 1350.54 489.826
496 0 46.0433 12.9009 594 93.0303 1349.92 489.869
497 0 47.1578 12.1931 575 94.3878 1350.02 487.2
498 0 48.1173 13.7373 661 94.1528 1348.3 484.758
499 0 50.0733 13.1008 656 94.6692 1348.03 483.657
500 0 50.2083 14.7386 740 94.2946 1348.04 481.585
501 0 53.3136 13.9739 745 95.102 1347.71 479.4
502 0 57.2851 15.9029 911 89.8683 1348.87 480.778
503 0 58.2035 16.0643 935 90.785 1349.62 479.505
504 0 61.1981 15.1148 925 92.2314 1350.76 478.128
505 0 62.2289 15.8447 986 91.0477 1352.38 477.535
506 0 64.3814 15.1597 976 93.0359 1353.22 476.742
507 0 68.2558 16.7165 1141 89.6819 1353.75 475.683
508 0 70.2013 16.6806 1171 91.1896 1354.63 475.411
509 0 70.1839 15.5449 1091 94.077 1356.95 473.769
510 0 75.3071 16.8776 1271 91.3171 1358.4 474.659
511 0 76.3514 15.337 1171 93.7933 1358.37 473.896
512 0 80.319 15.9862 1284 93.088 1358.23 474.126
513 0 84.1333 15.4992 1304 94.1541 1357.98 473.674
514 1 41.0936 12.07 496 94.7802 1357.34 494.514
515 0 42.1098 14.7947 623 92.7817 1356.95 492.907
516 0 42.1849 11.8052 498 99.1084 1355.33 495.825
517 0 46.1344 12.3769 571 97.2259 1354.97 494.674
518 0 49.1791 14.9047 733 92.1924 1354.32 492.924
519 0 50.1144 15.0456 754 91.9443 1352.74 491.379
520 0 50.241 13.9727 702 95.1766 1352.12 491.551
521 0 56.2772 14.8728 837 91.3393 1351.05 491.585
522 0 56.2772 14.855 836 145.084 1349.06 491.604
523 0 58.1637 14.6999 855 95.9368 1348.53 487.002
524 0 61.2362 15.5137 950 94.7295 1347.52 486.044
525 0 64.3318 15.3579 988 95.163 1346.63 484.399
526 0 66.2938 14.9335 990 96.802 1345.67 482.452
527 0 66.2938 14.9034 988 154.743 1344.67 482.41
528 1 38.1108 9.94468 379 98.4776 1343.86 495.488
529 0 41.1595 11.006 453 96.3135 1343.88 495.276
530 0 40.1143 12.2899 493 96.716 1345.13 493.14
531 0 42.0477 14.0079 589 93.6587 1344.81 491.323
532 0 44.1311 12.1683 537 96.2737 1344.76 492.35
533 0 45.094 13.3055 600 93.6033 1345.49 489.833
534 0 45.0265 13.6142 613 93.124 1346.08 490.718
535 0 46.1669 13.4729 622 93.9968 1347.13 490.121
536 0 49.1624 13.1808 648 94.1235 1348.83 489.216
537 0 50.1062 12.733 638 94.605 1350.5 491.387
538 0 52.1767 13.5118 705 93.9461 1352.46 488.687
539 0 56.1082 13.5453 760 92.1882 1353.41 492.193
540 0 59.3776 15.1741 901 90.9811 1352.75 491.16
541 0 61.191 14.561 891 92.1358 1352.75 491.585
542 0 63.2087 14.0962 891 93.9461 1352.48 489.33
543 0 67.1465 15.6374 1050 91.2448 1350.84 489.557
544 1 36.0573 11.6204 419 96.5131 1350.34 503.379
545 0 39.0618 10.5218 411 95.6083 1349.63 505.17
546 0 40.2388 11.73 472 94.2839 1347.94 504.186
547 0 44.1614 12.6808 560 91.5964 1346.92 501.298
548 0 43.3067 13.3698 579 91.7582 1345.3 500.371
549 0 46.2279 14.3853 665 90.6165 1344.09 498.758
550 0 47.2616 13.986 661 92.0272 1342.56 495.964
551 0 48.1789 13.0555 629 93.8601 1341.53 496.041
552 0 51.3521 14.2156 730 92.3781 1340.82 492.582
553 0 53.2296 13.0191 693 93.5036 1340.37 493.227
554 0 56.2754 13.967 786 92.3995 1338.83 488.095
555 0 59.2128 15.9087 942 88.2197 1339.07 487.872
556 0 59.2321 15.549 921 90.241 1338.73 483.136
557 0 59.1714 12.5567 743 96.7564 1339.14 482.296
558 0 63.1312 14.161 894 93.189 1340.03 481.312
559 0 63.1578 14.4083 910 94.2055 1340.36 479.182
560 0 65.1195 13.1758 858 96.3613 1341.24 478.632
561 0 68.1753 16.7216 1140 90.1535 1343.59 476.181
562 0 72.169 14.7016 1061 92.8407 1345.11 474.538
563 0 72.07 13.0845 943 96.7455 1347.1 473.183
564 1 39.0332 11.2724 440 95.2273 1349.43 492.125
565 0 39.0206 11.9168 465 94.3699 1351.34 491.054
566 0 39.0718 11.0054 430 95.8721 1353.33 492.349
567 0 44.1123 12.7629 563 91.6234 1355.04 492.258
568 0 44.1208 12.4658 550 92.8182 1355.66 492.18
569 0 44.1124 13.987 617 89.7034 1355.56 492.932
570 0 47.2728 14.7442 697 89.7561 1354.66 492.707
571 0 46.2166 12.6794 586 93.442 1354 493.148
572 0 51.1751 15.3004 783 89.0664 1353.51 492.008
573 0 52.3272 13.6067 712 92.5787 1351.04 493.673
574 0 53.3214 14.3657 766 91.6423 1350.19 493.529
575 0 58.4042 15.564 909 87.7305 1350 494.935
576 0 58.2645 15.361 895 89.8581 1349.19 493.47
577 0 61.2578 16.1775 991 88.886 1347.85 490.48
578 0 62.2857 14.1766 883 94.1665 1346.82 487.492
579 0 67.4465 14.6931 991 92.1796 1345.05 487.321
580 0 69.3858 14.9166 1035 92.4947 1344.02 486.649
581 0 70.2118 15.7523 1106 93.2007 1343.62 480.87
582 0 72.44 16.3032 1181 92.1973 1343.5 482.22
583 0 76.2921 15.2834 1166 93.7419 1342.49 477.934
584 0 79.2568 15.6706 1242 94.1844 1342.16 475.579
585 1 40.0972 11.8213 474 95.4789 1342.42 496.456
586 0 41.1766 13.3328 549 97.0638 1341.99 491.412
587 0 44.1334 12.6435 558 96.2778 1341.98 489.742
588 0 46.2509 12.6268 584 96.4127 1342.73 488.884
589 0 48.3031 12.7735 617 95.7699 1342.51 488.178
590 0 49.2216 12.9618 638 95.5204 1344.05 487.434
591 0 53.0197 14.2023 753 91.919 1346.03 486.579
592 0 53.2303 14.2212 757 92.0647 1347.13 486.375
593 0 52.3971 14.2374 746 94.6944 1349.16 485.583
594 0 56.2726 16.0291 902 91.7384 1348.76 485.729
595 0 59.2323 14.3672 851 93.6334 1351.43 484.175
596 0 62.2316 15.828 985 90.9838 1353.48 482.592
597 0 65.1256 15.5085 1010 90.396 1355.23 486.338
598 0 68.123 15.6482 1066 91.6426 1354.68 485.296
599 0 71.3619 15.2462 1088 92.6461 1354.42 485.059
600 0 72.281 14.6235 1057 94.6481 1354.15 483.605
601 0 77.5088 16.2433 1259 93.2597 1351.39 484.172
602 0 80.2093 16.1328 1294 93.9312 1351.18 484.615
603 0 84.3183 15.6075 1316 94.9886 1349.74 484.019
604 0 89.3842 16.099 1439 92.7019 1347.24 484.969
605 1 46.0668 13.7626 634 94.5868 1346.77 504.861
606 0 47.0673 14.2774 672 94.9449 1344.53 504.368
607 0 49.0423 14.4365 708 95.6864 1343.06 503.34
608 0 51.1052 14.9887 766 94.5627 1342.09 502.295
609 0 53.3292 14.3636 766 95.6815 1340.2 502.935
610 0 57.0746 15.7513 899 93.01 1339.25 501.372
611 0 56.1467 14.4799 813 97.4403 1339.3 499.502
612 0 56.1467 14.3731 807 162.916 1340.33 499.565
613 0 63.236 15.798 999 95.5706 1338.56 496.276
614 0 64.2419 15.7063 1009 97.3518 1338.5 491.534
615 0 68.2247 15.3757 1049 96.1773 1338.32 491.684
616 0 70.3269 16.3095 1147 95.4638 1338.28 488.779
617 0 73.2203 14.4495 1058 99.706 1336.82 486.741
618 0 76.2261 16.5822 1264 95.9462 1338.59 484.719
619 0 76.2261 16.661 1270 155.394 1339.61 484.679
620 1 43.088 12.2076 526 99.5095 1339.73 498.835
621 0 44.2502 10.4632 463 100.683 1340.6 500.253
622 0 45.1595 13.4855 609 98.0345 1342.78 496.204
623 0 47.1653 12.2548 578 98.5017 1343.32 498.638
624 0 48.1383 14.2506 686 97.07 1345.52 496.477
625 0 50.1891 14.804 743 96.0054 1346.67 497.654
626 0 54.1878 14.7265 798 95.7732 1346.82 496.134
627 0 57.2071 16.4665 942 91.2718 1346.8 496.21
628 0 56.0612 14.7339 826 96.868 1346.04 493.225
629 0 60.219 13.617 820 98.5171 1345.15 495.984
630 0 64.1598 14.9159 957 95.7555 1343.43 496.097
631 0 66.1667 14.4786 958 96.6075 1343.98 497.405
632 0 68.0848 15.0107 1022 96.0724 1343.76 495.795
633 0 72.3543 17.898 1295 89.9413 1342.78 495.122
634 0 75.184 15.1495 1139 94.4126 1341.3 494.907
635 1 39.2436 11.6452 457 94.0722 1340.28 513.14
636 0 38.1708 11.8677 453 94.351 1340.16 512.305
637 0 41.3343 11.903 492 94.498 1337.9 510.803
638 0 43.1717 12.8788 556 92.2464 1336.51 509.549
639 0 45.2188 14.1092 638 90.4075 1334.29 505.944
640 0 47.1804 13.6073 642 91.3738 1333.74 504.315
641 0 47.3126 13.9075 658 90.0623 1334.23 503.746
642 0 50.1 13.9521 699 89.6323 1332.63 501.575
643 0 50.4873 13.4093 677 90.1433 1332.53 499.235
644 0 53.2771 14.0773 750 88.292 1333.32 498.115
645 0 52.0913 13.4187 699 91.0715 1334.31 494.436
646 0 56.1833 13.4559 756 89.5701 1335.61 497.448
647 0 56.2098 15.9758 898 86.8196 1337.37 493.261
648 0 58.3383 14.6045 852 88.3392 1338.33 494.37
649 0 59.3633 14.1333 839 89.2849 1339.37 491.793
650 0 62.5776 14.3182 896 88.8996 1341.22 490.151
651 0 64.3602 15.1491 975 88.3631 1342.35 488.458
652 0 67.2554 14.6903 988 88.8593 1343.06 488.55
653 0 70.4619 15.37 1083 86.7627 1344.88 489.319
654 0 74.2969 15.6534 1163 86.8598 1345.04 486.181
655 0 76.4127 13.5841 1038 90.5029 1345.22 484.696
656 1 36.4082 7.88285 287 93.4321 1345.55 507.014
657 0 43.2716 12.5486 543 88.6648 1343.99 505.123
658 0 44.2508 11.3444 502 92.0458 1344.02 506.207
659 0 47.1364 12.0713 569 91.4868 1343.71 505.425
660 0 46.1856 13.4891 623 89.3307 1344.02 503.881
661 0 50.2222 14.0575 706 89.9759 1343.27 503.891
662 0 53.3196 13.6535 728 90.2569 1341.4 503.25
663 0 54.1725 15.3214 830 89.2554 1341.51 501.598
664 0 55.1338 13.8391 763 92.4128 1340.98 499.025
665 0 57.3683 13.2129 758 95.529 1340 498.285
666 0 59.1784 14.6168 865 93.7214 1339.7 494.279
667 0 63.0658 13.3036 839 95.4434 1338.38 493.897
668 0 65.2021 15.2296 993 92.8802 1338.12 492.12
669 0 68.4067 14.4869 991 95 1337.7 490.093
670 1 35.0696 9.0962 319 97.4639 1337.32 505.558
671 0 37.1643 12.216 454 95.9163 1336.34 501.073
672 0 37.3619 11.7232 438 96.5799 1337.5 501.187
673 0 38.4381 12.0193 462 96.9567 1336.87 498.766
674 0 40.247 12.2991 495 96.9758 1338.07 498.123
675 0 41.1469 13.5855 559 94.9785 1338.89 495.903
676 0 43.2848 12.9376 560 95.7768 1339.66 495.923
677 0 44.2813 15.4467 684 91.1944 1340.67 495.016
678 0 47.2474 14.096 666 92.042 1342.85 492.979
679 0 49.2645 14.3511 707 90.3989 1344.71 492.511
680 0 49.1688 14.6434 720 90.3083 1346.46 492.371
681 0 52.0828 14.1889 739 91.1705 1349.84 491.762
682 0 53.0652 14.567 773 90.031 1351.48 493.03
683 0 54.4424 13.7025 746 91.5161 1352.37 492.324
684 0 56.368 13.8731 782 90.9335 1352.19 493.093
685 0 58.2615 14.229 829 91.9638 1352.68 492.794
686 0 61.3858 15.2152 934 91.7227 1352.66 492.007
687 0 63.3628 14.9299 946 92.7378 1351.59 492.574
688 0 65.6524 14.5158 953 95.256 1350.76 491.128
689 0 68.6214 13.7858 946 96.8034 1349.64 490.605
690 1 37.4294 11.3013 423 97.9905 1349.02 506.546
691 0 38.8476 12.7936 497 96.0121 1348.49 505.475
692 0 39.4569 12.2919 485 100.507 1346.07 502.909
693 0 43.3445 14.3501 622 97.0386 1345.47 500.302
694 0 45.1966 15.0675 681 94.3627 1344.78 500.182
695 0 44.0933 14.2652 629 98.8108 1343.34 496.963
696 0 46.3329 16.4678 763 94.6134 1341.95 494.206
697 0 49.6653 14.9601 743 96.3903 1341.12 493.907
698 0 48.1799 14.8402 715 99.2476 1340.64 490.999
699 0 52.3845 16.6462 872 94.4782 1341.85 489.367
700 0 54.5324 16.2656 887 95.8534 1341.65 487.678
701 0 53.3518 15.3322 818 99.2763 1342.57 486.407
702 0 57.4388 15.2858 878 98.1595 1343.32 484.068
703 0 58.5563 17.1117 1002 95.9411 1343.63 479.827
704 0 57.7268 14.8285 856 101.144 1343.98 480.16
705 0 61.9693 15.3624 952 99.9265 1345 476.569
706 0 67.7057 17.4727 1183 94.0423 1347.21 478.049
707 0 67.7364 15.9589 1081 97.938 1348.69 477.177
708 0 70.7412 16.2847 1152 97.2161 1350.52 474.293
709 1 38.7547 12.9533 502 97.5518 1353.47 491.926
710 0 40.7347 13.7475 560 97.7286 1355.34 491.111
711 0 43.7274 14.8648 650 93.6831 1356.97 493.177
712 0 41.3915 14.5682 603 99.4743 1356.77 491.163
713 0 46.1724 14.7058 679 98.7099 1356.95 491.589
714 0 49.4473 15.1475 749 98.5995 1357.46 490.852
715 0 51.6889 16.8315 870 96.2034 1357.85 492.302
716 0 51.6405 14.7559 762 102.121 1357.04 493.798
717 0 55.4735 15.6471 868 101.274 1355.93 490.953
718 0 58.5105 15.0058 878 103.368 1354.53 491.753
719 0 60.7445 16.0015 972 102.126 1353.1 490.903
720 0 63.3379 16.9883 1076 100.739 1351.92 491.091
721 0 64.5099 15.486 999 105.505 1350.49 488.192
722 0 68.5052 15.7068 1076 105.932 1348.77 484.599
723 0 72.5619 16.3998 1190 104.447 1347.49 482.906
724 0 75.5553 16.7427 1265 103.29 1346.01 482.081
725 1 38.4846 12.7843 492 104.585 1345.29 498.398
726 0 40.5005 10.7653 436 108.44 1344.42 496.523
727 0 41.2376 11.3489 468 107.286 1344.74 495.491
728 0 44.2487 13.2207 585 104.304 1343.23 492.207
729 0 44.1536 13.2945 587 104.663 1343.54 491.796
730 0 46.105 13.5126 623 104.552 1342.98 489.554
731 0 48.4163 12.9089 625 104.339 1342.81 489.885
732 0 48.2114 13.8556 668 104.581 1342.39 487.442
733 0 53.2365 13.8251 736 101.711 1344.35 486.438
734 0 53.129 13.7401 730 103.199 1345.4 484.648
735 0 55.1666 12.8157 707 103.373 1347.42 485.849
736 0 58.3191 15.4152 899 98.0078 1349.86 484.702
737 0 60.1883 14.6706 883 100.231 1351.44 483.548
738 0 63.2848 13.6842 866 102.181 1352.85 483.721
739 0 67.2945 13.701 922 101.479 1354.05 482.713
740 1 32.299 9.13341 295 100.861 1354.74 502.349
741 0 37.3496 10.3616 387 97.6977 1356.03 502.91
742 0 41.1912 10.2692 423 96.2837 1355.88 504.551
743 0 40.3865 11.588 468 95.6667 1354.22 505.049
744 0 44.1525 12.6154 557 95.9408 1351.44 502.664
745 0 47.1873 13.0756 617 95.047 1350.3 503.225
746 0 49.2273 12.7368 627 99.5917 1349.52 502.938
747 0 50.2578 13.4506 676 99.7692 1347.2 500.509
748 0 53.3547 13.2322 706 98.8187 1346.49 500.35
749 0 55.2761 14.1833 784 97.8189 1342.18 498.67
750 0 55.2443 13.8476 765 98.8144 1342.26 498.29
751 0 57.3554 11.8385 679 102.564 1341.63 495.976
752 0 58.3161 12.3465 720 102.651 1341.39 494.132
753 0 64.2287 15.0089 964 97.1494 1340.24 490.84
754 0 65.2736 13.5124 882 101.556 1340.3 488.037
755 1 34.0907 10.6187 362 98.6961 1340.22 504.309
756 0 36.1184 10.1057 365 102.29 1340.72 500.622
757 0 36.1504 9.54346 345 100.591 1340.32 501.342
758 0 40.1257 12.0123 482 97.1929 1340.18 498.019
759 0 40.1044 10.1236 406 100.278 1340.38 498.251
760 0 42.2165 11.8911 502 99.2052 1341.65 495.283
761 0 44.0463 12.0328 530 99.1245 1342.65 493.785
762 0 45.2928 12.5185 567 97.7601 1344.38 494.111
763 0 45.0831 13.0648 589 98.2767 1346.14 490.545
764 0 45.1729 12.5518 567 98.8272 1346.17 492.379
765 0 47.4244 11.9137 565 99.5681 1347.66 493.727
766 0 48.1566 12.5424 604 99.6672 1350.34 493.353
767 0 51.4223 13.4766 693 95.9798 1351.49 492.11
768 0 52.1759 13.2245 690 97.2246 1352.17 491.742
769 0 56.2481 13.956 785 96.2624 1352.33 490.395
770 0 57.1671 14.169 810 97.637 1351.94 491.236
771 0 57.4317 12.4322 714 101.134 1351.92 493.36
772 0 61.2758 14.3287 878 97.7973 1350.89 488.842
773 0 64.2694 13.8635 891 99.0932 1349.98 489.741
774 0 65.248 12.5521 819 96.7216 1348.43 491.046
775 0 70.4886 14.1441 997 86.5988 1347.6 487.438
776 0 72.534 13.828 1003 85.9242 1346.46 485.705
777 1 40.2573 11.3271 456 83.2368 1342.57 505.279
778 0 41.3459 12.4075 513 81.2047 1342.09 503.055
779 0 42.3665 11.1645 473 82.9387 1342.14 502.013
780 0 43.2193 11.8928 514 82.107 1341.09 501.521
781 0 43.2296 11.7281 507 83.0394 1339.51 497.268
782 0 44.224 11.3739 503 83.672 1339.57 495.755
783 0 47.2979 14.2078 672 79.7411 1339.69 493.408
784 0 48.1753 13.2433 638 81.4969 1339.72 493.84
785 0 49.0548 12.4759 612 83.7614 1340.13 491.859
786 0 52.0829 13.7665 717 82.1548 1340.32 490.715
787 0 54.0995 12.8837 697 82.198 1341.61 492.02
788 0 55.0305 13.2835 731 83.7893 1342.52 486.714
789 0 57.1599 13.2261 756 84.4511 1343.42 488.525
790 0 59.2343 14.0628 833 84.7431 1344.37 485.359
791 0 62.1489 13.4033 833 85.1969 1345.64 486.794
792 0 63.1967 12.9437 818 86.8068 1347.25 488.608
793 0 68.1946 14.7079 1003 84.5075 1349.39 484.776
794 0 71.1916 18.1903 1295 79.3815 1350.68 486.48
795 0 74.3993 16.3577 1217 82.9819 1350.18 485.369
796 0 77.1809 16.6492 1285 84.5268 1350.54 487.218
797 1 41.1356 11.6201 478 86.9812 1349.7 504.805
798 0 43.2084 9.60462 415 91.7783 1349.33 504.383
799 0 46.186 11.6702 539 89.859 1348.57 505.442
800 0 49.2573 12.5667 619 90.0533 1346.42 504.616
801 0 49.2583 12.5258 617 91.5737 1345.1 502.927
802 0 55.0976 14.4652 797 87.2547 1343.02 502.696
803 0 57.1608 15.4302 882 88.3333 1342.55 499.93
804 0 57.2308 14.5202 831 91.941 1341.35 498.644
805 0 60.0956 13.5118 812 94.6034 1340.13 498.841
806 0 63.1202 13.5297 854 96.1405 1338.82 495.587
807 0 63.1105 14.5935 921 96.4321 1338.33 492.519
808 0 66.2186 14.2709 945 100.735 1338.08 490.466
809 0 69.0541 15.3937 1063 98.4779 1338.07 488.263
810 0 72.1561 15.6743 1131 98.313 1336.76 486.186
811 0 74.4631 15.7528 1173 98.9003 1337.22 482.098
812 0 76.3468 14.3293 1094 103.549 1337 480.434
813 1 43.3806 11.4106 495 100.867 1337.83 498.307
814 0 43.2191 9.55596 413 102.136 1339.17 497.753
815 0 44.2288 9.81262 434 101.62 1339.69 497.173
816 0 42.2037 10.7337 453 102.757 1340.58 495.296
817 0 46.301 11.4468 530 101.634 1341.74 494.236
818 0 47.2596 11.3628 537 102.46 1343.28 492.849
819 0 49.2264 10.7463 529 102.295 1346.57 493.975
820 0 51.2104 12.146 622 99.4534 1347.57 493.855
821 0 57.2228 14.4173 825 93.4036 1348.68 492.65
822 0 59.3215 14.531 862 92.9408 1350.84 493.2
823 0 60.1748 13.0287 784 96.8903 1350.78 491.246
824 0 62.1322 14.3404 891 96.5421 1350.16 488.003
825 0 66.2863 14.6033 968 93.8698 1350.12 489.392
826 0 69.4265 14.0292 974 94.5154 1349.16 489.9
827 0 70.4346 13.729 967 96.6163 1348.24 486.907
828 1 37.2627 10.7883 402 94.1692 1346.13 504.831
829 0 40.2725 11.5463 465 90.8968 1345.37 505.742
830 0 42.2572 11.4773 485 92.4 1344.29 503.755
831 0 45.2876 12.7408 577 88.8718 1343.16 500.496
832 0 46.2279 12.2653 567 91.4621 1341.68 497.942
833 0 48.2369 12.024 580 91.8534 1340.53 497.521
834 0 51.3507 13.9823 718 90.9526 1340.48 494.602
835 0 52.3126 14.3751 752 89.6064 1340.44 493.779
836 0 52.4578 14.3734 754 90.8846 1339.99 490.35
837 0 54.2971 13.113 712 92.7767 1340.04 488.6
838 0 56.3643 14.3708 810 87.563 1340.79 488.627
839 0 58.2815 13.9839 815 88.8074 1340.86 486.36
840 0 61.2411 14.0592 861 87.3798 1341.11 485.711
841 0 61.3069 12.9023 791 91.0531 1341.22 485.587
842 0 65.1811 14.452 942 88.9989 1342.76 483.3
843 0 67.3697 14.5021 977 87.9877 1344.17 484.332
844 0 70.3526 15.7919 1111 85.1476 1345.66 484.307
845 1 36.1423 10.3203 373 89.3378 1349.04 498.965
846 0 36.1174 10.2167 369 85.9322 1350.18 503.07
847 0 39.2016 11.6067 455 88.0088 1351.72 499.04
848 0 41.3104 10.6995 442 87.7353 1352.36 501.018
849 0 42.3298 12.8042 542 87.4797 1352.42 500.33
850 0 44.2773 12.1055 536 88.7649 1352.31 502.437
851 0 47.3194 12.722 602 89.0515 1350.82 500.392
852 0 49.3788 13.8724 685 88.5854 1349.05 501.378
853 0 52.378 14.739 772 86.8847 1349.04 501.025
854 0 51.2478 12.5469 643 93.2551 1347.79 501.524
855 0 55.261 12.5405 693 92.381 1346.22 502.475
856 0 55.1618 12.9075 712 91.0801 1344.16 500.049
857 0 60.2494 13.2118 796 89.8857 1343.16 498.054
858 0 60.2899 13.4517 811 91.1048 1341.96 497.072
859 0 63.1243 12.7843 807 91.2937 1341.3 495.012
860 0 65.2236 14.8719 970 89.3495 1339.06 491.604
861 0 66.3025 14.826 983 89.9288 1338.37 490.56
862 0 69.2449 13.2717 919 92.4081 1338.82 489.53
863 0 72.4336 15.1035 1094 90.7706 1337.9 487.511
864 0 75.3537 14.5447 1096 91.9672 1338.09 484.45
865 0 75.2224 14.1181 1062 95.6394 1337.82 482.121
866 0 78.4483 14.7613 1158 95.6986 1338.22 479.274
867 0 81.4323 15.2396 1241 94.3465 1338.1 478.213
868 0 80.5447 14.5633 1173 94.9778 1338.11 475.689
869 0 85.2606 14.9776 1277 93.1214 1338.77 474.21
870 0 85.2606 15.0363 1282 157.341 1339.77 474.184
871 0 92.3567 15.1803 1402 93.3302 1341.49 473.41
872 0 94.5462 14.4268 1364 95.1804 1343 470.235
873 0 97.4262 15.1191 1473 94.3374 1344.23 467.891
874 0 104.4 15.4119 1609 93.0416 1345.16 470.099
875 1 42.0628 10.3655 436 91.055 1346.15 498.64
876 0 46.1326 11.1852 516 90.7868 1347.99 501.25
877 0 46.3212 12.1327 562 91.8879 1348.31 498.285
878 0 49.1719 13.3816 658 91.69 1347.6 499.392
879 0 52.2054 15.2858 798 87.1992 1348.49 498.831
880 0 53.2163 14.6948 782 90 1345.86 497.679
881 0 54.1537 13.6648 740 91.9986 1345.93 495.719
882 0 59.1713 13.7736 815 90.2442 1345.55 495.407
883 0 61.2263 14.2259 871 90.3169 1344.53 493.759
884 0 62.3197 12.6445 788 93.7348 1342.71 491.489
885 0 62.3197 12.5803 784 147.745 1340.7 491.351
886 0 68.1262 14.5906 994 89.0121 1339.73 486.344
887 0 70.4695 14.9426 1053 87.7331 1338.83 483.401
888 0 73.328 14.0465 1030 89.5379 1338.22 481.312
889 0 74.2397 14.3319 1064 90.3055 1337.63 480.011
890 0 79.1741 14.146 1120 90.3804 1338.05 479.321
891 0 82.345 16.9773 1398 85.9285 1338.45 473.951
892 0 84.3569 15.5411 1311 88.0641 1339.01 473.888
893 1 33.0797 10.7014 354 87.7486 1340.42 496.088
894 0 36.0108 10.5524 380 85.8132 1341.27 495.824
895 0 37.2468 10.8197 403 86.7866 1342.08 493.529
896 0 38.1199 13.1952 503 83.8907 1341.62 492.199
897 0 39.0162 12.7895 499 84.7355 1343.09 490.709
898 0 40.1031 13.3157 534 84.2547 1343.33 492.251
899 0 42.2588 13.441 568 83.2975 1346.41 492.116
900 0 45.163 13.3738 604 83.1507 1348.83 493.631
901 0 45.2489 13.3042 602 84.1993 1351.11 494.108
902 0 49.1642 14.2177 699 81.7797 1351.72 496.024
903 0 48.1685 13.2452 638 85.0313 1353.04 494.904
904 0 55.2116 14.218 785 82.5478 1354.18 496.018
905 0 55.3104 14.7531 816 83.2439 1354.19 496.047
906 0 56.2011 14.7862 831 85.077 1353.23 495.58
907 0 59.2878 13.6453 809 87.4141 1352.79 495.66
908 0 61.1953 13.5795 831 89.3177 1351.37 495.807
909 0 64.3201 13.5727 873 89.5246 1349.17 496.379
910 1 38.0598 12.4278 473 85.4651 1348.53 508.584
911 0 41.042 11.5004 472 86.6886 1346.15 507.712
912 0 42.1133 12.5376 528 85.8277 1343.48 506.983
913 0 39.1407 11.5225 451 90.2084 1341.21 505.88
914 0 42.0565 12.9825 546 86.9048 1340.07 504.927
915 0 42.1884 12.3257 520 87.3019 1339.64 503.196
916 0 44.2189 13.3653 591 84.7056 1339.41 502.365
917 0 45.1559 12.9994 587 86.2555 1339.46 497.874
918 0 46.3011 12.6347 585 87.7368 1338.85 497.301
919 0 49.1839 13.1344 646 85.0248 1338.89 497.11
920 0 49.1572 13.2229 650 85.7508 1339.84 495.949
921 0 52.1513 13.6909 714 84.6625 1340.5 495.119
922 0 52.1726 14.2603 744 85.3858 1340.58 491.793
923 0 53.1817 14.5539 774 84.2506 1340.9 492.609
924 0 55.1641 14.1578 781 85.9475 1341.75 491.303
925 0 57.136 15.6644 895 83.7274 1343.02 489.96
926 0 58.1672 14.785 860 84.8267 1344.84 490.107
927 0 62.1079 13.4927 838 85.7291 1347 492.126
928 0 62.1163 13.8611 861 85.7003 1348.43 490.891
929 0 64.3275 15.048 968 85.2242 1349.6 490.864
930 0 67.1509 14.9365 1003 85.4626 1349.52 490.601
931 0 68.1586 14.7303 1004 87.1753 1350.2 490.816
932 0 72.2754 14.8045 1070 86.0972 1349.98 489.936
933 0 74.1897 14.2742 1059 87.3314 1349.08 488.541
934 0 76.184 14.1762 1080 87.8241 1347.93 485.782
935 0 78.1737 14.2247 1112 87.3984 1345.99 485.483
936 0 82.1268 13.5522 1113 88.1348 1344.16 485.509
937 0 85.2686 13.7683 1174 84.8876 1342.63 486.365
938 0 87.2731 13.9791 1220 87.3385 1341.18 482.148
939 0 91.2277 14.4803 1321 85.9145 1340.36 480.674
940 1 49.0676 10.5976 520 87.325 1338.8 500.181
941 0 49.0829 11.7149 575 87.0191 1337.5 495.887
942 0 52.2869 12.6035 659 85.0364 1336.9 494.055
943 0 54.057 14.2257 769 83.4356 1336.13 491.152
944 0 57.0282 14.7646 842 80.6342 1336.34 488.374
945 0 58.0217 13.4777 782 80.9936 1336.21 489.685
946 0 59.1447 13.2894 786 81.07 1336.14 484.905
947 0 61.0448 14.9235 911 78.2766 1336.76 482.568
948 0 62.1432 13.308 827 79.3059 1338.17 480.47
949 0 63.25 13.9921 885 77.9672 1338.65 478.058
950 0 66.151 14.1495 936 76.6656 1340.38 477.237
951 0 67.2631 12.9492 871 77.5373 1340.99 475.712
952 0 69.0842 14.4606 999 74.8669 1342.58 479.979
953 1 95.3558 9.76343 931 79.1096 1344.21 468.618
954 0 105.257 12.8352 1351 93.8971 1346.84 389.833
955 0 102.235 6.2112 635 79.315 1348.82 474.213
956 0 107.592 9.20143 990 73.9384 1351.28 478.072
957 0 110.269 13.6122 1501 93.8847 1352.34 381.067
958 0 111.327 13.5457 1508 95.0676 1352.74 377.326
959 1 202.719 12.9292 2621 85.6929 1353.11 415.821
960 0 206.886 12.374 2560 87.2016 1352.63 408.621
961 0 211.498 11.2058 2370 88.5586 1352.25 412.897
962 0 212.468 9.50731 2020 94.7946 1350.95 378.58
963 1 123.168 10.7333 1322 102.597 1349.36 361.738
964 1 218.141 1.26523 276 114.395 1348.24 387.228
965 0 219.326 1.25384 275 104.255 1347.03 416.28
966 1 113.363 4.08424 463 111.43 1345.61 354.594
967 1 218.087 2.2514 491 92.721 1344.32 436.473
968 1 106.226 8.19948 871 92.6785 1342.16 366.544
969 0 105.335 6.81636 718 102.602 1341.42 349.607
970 0 110.17 4.74722 523 102.857 1339.79 348.834
971 0 113.308 8.446 957 100.715 1339.26 337.312
972 0 114.355 11.7092 1339 96.2084 1339.53 332.924
973 0 114.15 11.0119 1257 98.5314 1339.08 326.241
974 0 112.194 9.65293 1083 103.555 1338.71 311.096
975 0 118.259 10.9928 1300 100.4 1339.86 310.731
976 0 122.505 15.2892 1873 91.4095 1340.51 309.626
977 1 274.327 2.26372 621 110.535 1341.47 330.182
978 1 127.437 14.5876 1859 92.546 1341.63 296.342
979 0 128.475 14.2829 1835 93.1128 1342.8 291.452
980 0 133.653 13.8568 1852 93.851 1344.67 285.937
981 0 135.641 14.2066 1927 94.3762 1345.9 282.198
982 0 134.376 12.0781 1623 99.4652 1347.86 271.689
983 0 140.402 14.5582 2044 94.9007 1349.2 264.968
984 0 143.355 16.351 2344 90.1276 1351.42 261.576
985 0 147.364 16.3337 2407 90.2962 1352.48 252.596
986 0 151.575 15.583 2362 92.7557 1352.42 242.741
987 0 154.655 16.7728 2594 92.3917 1351.95 237.77
988 0 159.548 18.4835 2949 90.115 1351.16 228.906
989 0 166.449 17.7051 2947 92.318 1350.39 218.611
990 0 169.498 16.6845 2828 95.1358 1348.57 210.798
991 0 172.447 16.2079 2795 96.3449 1347.43 200.042
992 1 239.036 14.7384 3523 64.2438 1345.85 413.713
993 1 170.894 14.6699 2507 63.1627 1343.85 449.604
994 0 178.055 18.6909 3328 58.5736 1342.48 451.512
995 0 180.255 17.4087 3138 59.9493 1341.7 446.256
996 0 178.828 14.472 2588 62.4324 1341.4 444.082
997 0 182.77 17.7764 3249 60.5842 1339.84 433.59
998 0 184.777 15.6675 2895 62.0566 1338.64 428.933
999 0 187.581 18.7812 3523 59.1357 1338.29 432.049
1000 0 190.015 21.1351 4016 57.6616 1339.58 429.717
1001 0 190.789 16.6677 3180 60.3239 1340.25 431.974
1002 0 191.822 23.4071 4490 55.7615 1340.1 424.9
1003 0 192.508 17.0642 3285 60.5556 1340.18 426.932
1004 0 196.583 16.0441 3154 61.0869 1341.11 418.677
1005 0 196.587 17.9666 3532 59.0999 1341.32 419.067
1006 0 195.729 15.4806 3030 61.2772 1342.47 419.156
1007 0 203.476 16.3901 3335 58.6108 1343.57 430.41
