time division length width area intensity CMx CMy
0 0 40.1143 13.4865 541 114.954 1193.29 486.105
1 0 41.3037 13.1223 542 115.196 1192.67 487.419
2 0 42.083 15.1843 639 111.967 1192.89 486.925
3 0 43.3669 15.9799 693 107.486 1193.96 485.202
4 0 44.2563 12.7213 563 115.387 1193.04 486.725
5 0 44.05 14.5289 640 113.167 1192.92 485.522
6 0 45.1309 14.7128 664 112.63 1194.86 485.077
7 0 46.1216 14.6569 676 112.902 1193.84 483.68
8 0 47.1371 14.914 703 107.259 1194.51 485.607
9 0 45.0137 14.7955 666 112.808 1193.81 483.947
10 0 50.0687 15.1392 758 109.069 1193.83 484.038
11 0 49.2027 13.9017 684 116.452 1194.63 483.298
12 0 50.1504 19.0826 957 101.455 1193.28 484.397
13 0 52.0679 15.691 817 108.709 1194.06 484.219
14 0 52.0487 15.5431 809 111.1 1193.4 482.535
15 0 53.0458 15.628 829 111.729 1193.13 482.045
16 0 56.0726 17.7983 998 104.148 1194.29 480.599
17 0 58.0504 17.4676 1014 104.022 1194.41 480.674
18 0 58.0517 16.0202 930 109.287 1193.9 479.761
19 0 59.11 16.3424 966 108.384 1194.15 480.118
20 0 61.0881 16.2061 990 108.12 1193.47 478.306
21 0 62.1038 15.1198 939 111.678 1194.81 478.384
22 0 65.1089 16.4186 1069 106.973 1196.54 477.653
23 1 31.0581 9.53052 296 116.037 1196.02 493.152
24 0 34.0918 12.085 412 111.515 1195.86 491.9
25 0 36.066 12.699 458 111.666 1194.98 490.004
26 0 35.0437 11.6711 409 115.736 1195.29 489.288
27 0 36.0638 12.0342 434 111.217 1196.57 490.797
28 0 36.0638 11.7292 423 168.343 1198.62 490.641
29 0 40.1507 12.8018 514 108.204 1197.46 488.267
30 0 40.0649 12.8541 515 109.503 1198.51 488.066
31 0 43.2292 15.0824 652 105.153 1198.95 485.725
32 0 43.4795 14.6736 638 103.868 1198.18 485.298
33 0 43.3571 14.2076 616 106.442 1199.14 482.833
34 0 45.2152 15.1055 683 104.84 1199.48 483.073
35 0 46.3216 16.9467 785 102.855 1199.52 481.754
36 0 48.2687 15.7452 760 104.488 1199.56 482.221
37 0 51.436 16.3115 839 101.927 1200.16 483.408
38 0 49.0711 14.7949 726 107.72 1199.98 482.023
39 0 49.0711 14.7949 726 164.479 1199 482.056
40 0 52.3355 17.1967 900 103.557 1199.38 479.617
41 0 53.1612 16.0832 855 105.588 1199.4 479.402
42 0 55.2188 16.0815 888 103.983 1200.11 480.421
43 0 58.2583 16.8216 980 102.433 1200.34 478.527
44 0 60.1889 17.4119 1048 101.52 1199.9 476.666
45 0 60.1889 17.4617 1051 140.147 1199.89 476.671
46 0 63.3094 15.5743 986 105.06 1200.95 475.878
47 0 66.2506 17.4942 1159 100.756 1200.74 473.521
48 0 66.0992 15.0229 993 105.727 1201.14 474.699
49 0 70.1028 16.4045 1150 103.054 1200.33 474.113
50 0 70.1218 15.1878 1065 104.547 1200.11 471.823
51 0 75.3012 15.4579 1164 103.082 1198.63 473.026
52 1 38.1676 11.2137 428 102.404 1199.25 490.458
53 0 38.1676 11.1875 427 152.208 1200.24 490.471
54 0 39.0878 12.5615 491 100.841 1199.4 488.589
55 0 39.1668 12.0765 473 101.579 1198.32 489.12
56 0 42.1503 13.6179 574 99.3868 1198.51 488.476
57 0 45.0833 13.9298 628 97.0111 1199.84 486.917
58 0 44.0898 14.2437 628 99.4363 1199.06 484.586
59 0 45.1035 13.3471 602 100.123 1200.17 485.073
60 0 47.0993 14.3102 674 98.7819 1199.94 482.764
61 0 49.0321 14.7862 725 97.0524 1199.89 482.612
62 0 51.2292 15.1086 774 96.5775 1200.36 480.125
63 0 51.205 14.7447 755 98.3709 1200.07 480.448
64 0 52.0909 12.9965 677 102.573 1200.21 479.764
65 0 54.2626 13.4162 728 102.514 1199.79 476.787
66 0 57.0486 14.4088 822 98.4793 1199.81 477.612
67 0 57.1604 13.6458 780 101.395 1200.16 475.332
68 0 61.1963 15.4585 946 96.6385 1200.07 474.423
69 0 64.32 14.2724 918 97.8126 1200.15 472.928
70 0 68.2985 15.8422 1082 95.0018 1198.74 473.773
71 0 68.4596 14.242 975 99.2749 1199.78 471.351
72 0 72.418 15.1758 1099 97.8207 1198.45 470.389
73 0 72.1584 14.5375 1049 101.024 1198.04 466.851
74 0 76.1225 14.0037 1066 101.342 1198.38 467.465
75 1 39.0787 10.4916 410 100.427 1197.99 484.578
76 0 42.196 10.4038 439 99.8565 1199.77 485.014
77 0 42.1065 11.4472 482 99.8236 1199.02 483.815
78 0 47.2029 11.906 562 97.3345 1199.5 482.988
79 0 46.1554 13.2379 611 98.5859 1198.91 482.264
80 0 46.1554 13.2812 613 137.662 1197.91 482.334
81 0 50.0647 13.5625 679 98.2194 1200.16 481.934
82 0 51.1651 14.4043 737 97.289 1199.41 481.676
83 0 53.0962 14.276 758 98.0119 1200.01 478.708
84 0 55.1202 15.6204 861 96.1312 1199.28 478.823
85 0 56.1423 14.2139 798 97.9348 1200.16 479.327
86 0 58.049 14.6083 848 99.691 1199.71 477.335
87 0 60.4547 14.1428 855 101.926 1201.05 476.009
88 0 62.3545 14.8987 929 101.689 1201.18 473.075
89 0 65.3066 13.7352 897 102.64 1200.73 474.334
90 0 65.3066 13.873 906 160.556 1200.75 474.52
91 0 70.2336 14.9643 1051 101.238 1201.08 470.61
92 0 70.3382 13.691 963 104.485 1201.54 469.398
93 0 75.2468 14.5521 1095 102.767 1201.32 468.155
94 1 38.078 8.7452 333 100.453 1202.03 488.342
95 0 37.1091 9.88976 367 103.556 1201.08 484
96 0 40.0519 11.1605 447 100.302 1200.95 485.423
97 0 40.0533 11.0353 442 142.314 1200.95 485.407
98 0 42.104 12.8016 539 97.2931 1199.52 484.566
99 0 44.2033 12.8497 568 96.8592 1200.12 483.201
100 0 44.2033 12.8497 568 140.254 1201.12 483.201
101 0 45.0961 13.1053 591 96.9475 1200.62 482.841
102 0 46.23 12.9569 599 96.8581 1200.16 481.912
103 0 47.2159 12.1781 575 98.473 1200.18 482.257
104 0 47.1385 12.7072 599 98.1169 1200.4 479.614
105 0 50.0683 13.6414 683 95.0805 1200.49 480.442
106 0 50.0982 13.733 688 96.7224 1200.75 478.374
107 0 53.2778 15.0156 800 93.9388 1200.86 479.582
108 0 53.1982 13.2711 706 96.772 1201.18 479.085
109 0 55.1377 12.895 711 95.6399 1200.93 478.321
110 0 54.1862 13.1399 712 95.5464 1201.05 478.021
111 0 57.2012 13.5487 775 94.729 1200.83 476.097
112 0 59.1978 14.2404 843 93.2301 1200.87 476.332
113 0 59.205 14.188 840 93.4476 1200.4 474.411
114 0 62.272 15.4162 960 91.6229 1201.24 473.593
115 0 61.0773 12.5742 768 95.3828 1198.86 473.845
116 0 64.1188 13.1319 842 94.0938 1199.8 472.818
117 0 67.2059 12.2311 822 94.2749 1199.36 472.218
118 0 68.1178 13.873 945 91.0963 1199.42 468.357
119 0 69.1492 10.9329 756 94.1243 1198.99 471.201
120 0 73.1169 14.552 1064 89.2274 1198.98 465.79
121 1 34.0429 8.95929 305 88.2525 1199.04 487.43
122 0 36.0562 10.0122 361 86.7535 1198.29 486.172
123 0 43.0642 8.22029 354 88.6525 1198.18 482.647
124 0 43.171 5.79092 250 89.124 1198.59 482.88
125 0 43.171 5.69826 246 114.756 1198.61 482.825
126 0 42.1991 4.97641 210 116.81 1198.64 481.776
127 0 48.0513 9.34417 449 86.9866 1198.64 477.205
128 0 45.149 8.23938 372 88.1855 1198.61 473.121
129 0 50.1447 10.9483 549 84.5628 1198.73 474.452
130 0 53.1259 14.0986 749 80.0067 1200.03 473.206
131 0 55.1957 13.6605 754 80.2666 1199.26 472.7
132 0 57.104 10.3846 593 82.9494 1199.43 468.472
133 1 34.0213 7.93621 270 79.2963 1200.04 485.859
134 0 35.0194 8.13836 285 108.211 1198.99 485.014
135 0 40.0759 9.53191 382 77.9424 1199.84 481.767
136 0 31.1368 8.70354 271 78.214 1200.66 490.469
137 0 38.0721 9.29816 354 81.4096 1200.68 483.636
138 0 36.0445 10.1819 367 78.4114 1201.04 486.082
139 0 35.0498 7.07565 248 83.0605 1200.15 483.165
140 0 36.0404 6.77017 244 83.3484 1200.43 482.893
141 0 38.0447 6.86034 261 80.8812 1200.47 486.008
142 0 38.0819 7.08998 270 80.7815 1200.51 485.589
143 0 43.1582 6.74264 291 83.1443 1198.93 486.828
144 0 42.0845 12.4274 523 77.2543 1198.63 488.895
145 0 42.046 10.0842 424 80.6392 1198.96 486.929
146 0 42.0484 8.514 358 80.8743 1199.26 489.274
147 0 47.1124 7.7262 364 81.7857 1199.8 487.393
148 0 48.0621 8.86354 426 81.4249 1199.64 485.791
149 0 48.116 10.4955 505 79.5485 1199.2 487.252
150 0 49.2524 9.60359 473 80.6216 1199.09 485.249
151 0 50.1206 12.43 623 78.7849 1198.36 481.191
152 0 49.063 9.47761 465 82.8409 1199.1 481.705
153 0 53.0708 11.9463 634 80.0189 1199.66 480.232
154 0 56.0683 12.2886 689 80.5065 1200.21 478.176
155 0 58.1109 12.6654 736 80.5435 1199.29 479.353
156 0 59.0824 11.594 685 82.8526 1199.42 476.193
157 0 64.3475 11.6865 752 83.0864 1198.74 476.754
158 0 65.1935 13.1608 858 82.1422 1198.86 474.479
159 0 65.1673 13.3656 871 83.0769 1199.1 473.848
160 0 68.1833 13.7717 939 83.0788 1198.71 471.511
161 0 68.1507 12.7071 866 86.3476 1198.8 471.148
162 0 71.2609 12.2508 873 87.5533 1199.42 468.92
163 0 73.111 11.886 869 88.5259 1199.75 470.092
164 1 39.0522 8.68069 339 85.7139 1200.06 489.507
165 0 43.0668 12.7012 547 82.106 1200.09 486.709
166 0 43.1088 8.8613 382 85.3979 1200.96 489.544
167 0 43.1301 9.01922 389 86.7429 1200.5 489.072
168 0 43.1301 9.06559 391 127.381 1199.52 489.09
169 0 46.1355 10.9244 504 86.9425 1202.1 488.577
170 0 48.1742 12.3095 593 87.403 1201.68 485.958
171 0 51.2734 12.3066 631 87.878 1200.65 484.125
172 0 51.2582 12.0956 620 89.1597 1200.45 484.169
173 0 54.188 13.1579 713 88.5035 1200.09 483.729
174 0 56.1715 13.1383 738 88.8469 1200.14 484.095
175 0 58.1752 13.5109 786 89.5458 1200.08 483.906
176 0 57.2186 13.6145 779 93.208 1200.42 481.884
177 0 59.0885 12.8621 760 94.5737 1200.39 483.853
178 0 62.1376 13.631 847 95.0437 1200.96 481.222
179 0 63.277 13.9229 881 96.2872 1200.19 479.505
180 0 68.0765 15.9967 1089 92.337 1200.08 480.102
181 0 69.1337 13.8717 959 97.8332 1199.73 478.887
182 0 70.1369 14.5572 1021 98.381 1199.08 475.977
183 0 72.2241 15.0504 1087 97.7268 1198.83 476.987
184 0 77.1276 15.5068 1196 96.1396 1198.43 475.415
185 0 77.1808 15.807 1220 97.1205 1198.01 475.348
186 0 79.3767 15.8989 1262 98.7845 1197.73 472.35
187 0 83.275 16.2354 1352 97.0584 1197.67 472.158
188 0 84.3138 15.6439 1319 98.768 1197.34 472.284
189 0 87.2765 14.3338 1251 102.086 1196.76 469.883
190 0 88.3944 14.7521 1304 101.199 1196.54 468.598
191 0 90.133 15.0666 1358 102.105 1196.69 464.725
192 0 90.133 15.111 1362 164.776 1197.67 464.779
193 1 53.151 11.853 630 98.2905 1198.59 485.133
194 0 55.09 14.8666 819 93.7375 1199.48 483.941
195 0 55.0986 13.739 757 95.9538 1199.88 484.095
196 0 60.122 14.5038 872 93.9346 1200.08 483.528
197 0 58.0534 13.4359 780 99.1513 1200.24 482.338
198 0 56.0304 12.8502 720 101.607 1198.76 482.949
199 0 54.0624 12.689 686 107.872 1198.9 483.636
200 0 54.0624 12.7445 689 167.136 1198.91 483.53
201 0 56.0939 12.7287 714 109.426 1199.95 484.367
202 0 57.096 12.3827 707 111.371 1199.52 483.894
203 0 58.1075 13.5267 786 107.888 1199.78 484.969
204 0 59.2132 13.443 796 110.202 1200.08 483.401
205 0 62.0786 14.6105 907 108.63 1200.09 480.85
206 0 65.1101 12.5326 816 111.744 1200.53 482.06
207 0 64.1954 12.8981 828 111.866 1200.79 480.946
208 0 67.2455 13.6961 921 109.236 1200.11 480.271
209 0 70.2392 14.0947 990 109.26 1200.48 477.678
210 0 71.364 12.9617 925 109.617 1200.65 477.715
211 0 71.364 13.0878 934 152.106 1200.64 477.732
212 1 45.0152 11.3961 513 104.834 1199.73 491.027
213 0 41.0789 10.1512 417 106.42 1198.47 492.034
214 0 46.0673 12.7422 587 100.027 1197.97 490.969
215 0 47.0144 11.6773 549 102.022 1198.19 489.082
216 0 47.0794 13.063 615 100.488 1198.25 489.094
217 0 48.0857 12.6649 609 101.933 1197.6 486.744
218 0 49.1089 12.0956 594 103.259 1197.37 486.946
219 0 54.2256 13.2041 716 99.602 1197.4 486.81
220 0 52.2249 14.3227 748 100.269 1198.29 484.928
221 0 54.0948 13.8461 749 100.155 1198.12 483.208
222 0 55.2527 13.9541 771 99.6796 1198.43 483.428
223 0 56.2124 13.6091 765 100.093 1198.4 481.664
224 0 59.3187 14.7171 873 98.0389 1198.02 481.333
225 0 60.1219 14.1379 850 98.4694 1198.51 481.309
226 0 61.243 13.0954 802 100.865 1199.09 479.758
227 0 63.1744 14.1671 895 99.9285 1199.05 477.326
228 0 64.1919 12.6496 812 102.376 1199.1 476.486
229 0 64.1919 12.6028 809 140.201 1199.1 476.47
230 0 69.3743 13.9389 967 100.224 1199.68 475.723
231 1 35.1113 9.48412 333 98.4805 1201.08 492.694
232 0 37.2028 11.8002 439 95.0205 1201.61 491.79
233 0 37.1414 10.2581 381 97.1522 1201.93 491.525
234 0 39.0718 11.7476 459 95.183 1202.28 489.745
235 0 39.0864 11.0013 430 98.0581 1202.92 489.267
236 0 42.0639 11.9104 501 95.501 1202.17 489.627
237 0 42.0761 11.1702 470 96.0447 1202.2 490.692
238 0 44.1705 11.116 491 97.7312 1202.07 490.232
239 0 44.0856 12.4984 551 98.0907 1202.47 488.381
240 0 48.134 13.6286 656 94.9665 1202.44 487.529
241 0 48.2991 12.5468 606 96.6815 1201.45 488.37
242 0 49.1418 13.5323 665 94.9489 1200.68 487.974
243 0 52.2335 12.2335 639 96.2363 1200.15 487.1
244 0 55.1097 13.7362 757 93.823 1200.37 486.847
245 0 57.0921 12.5411 716 95.669 1200.47 484.961
246 0 58.1532 14.7541 858 92.4522 1200.24 484.702
247 0 58.1827 12.6498 736 96.4592 1200.09 482.928
248 0 61.1052 14.6796 897 93.408 1199.81 481.081
249 0 62.1458 13.227 822 95.511 1198.67 483.05
250 0 65.1616 14.0881 918 93.8834 1199.13 481.249
251 0 66.0957 13.3897 885 96.461 1198.92 479.39
252 0 66.4123 13.371 888 98.2748 1198.36 478.11
253 0 69.4155 14.2331 988 96.9383 1198.39 476.42
254 0 73.3234 14.5383 1066 95.9812 1198.11 475.936
255 0 75.4097 14.7196 1110 96.8631 1198.03 473.868
256 0 77.3923 15.1049 1169 96.769 1198.85 472.397
257 1 45.1688 11.0474 499 95.1683 1199.27 490.711
258 0 45.213 12.4964 565 95.0035 1199.66 489.616
259 0 47.0311 12.8426 604 96.0861 1199.57 485.548
260 0 50.2294 15.0509 756 91.0146 1199.93 485.713
261 0 48.0353 12.6365 607 97.9769 1200.14 484.356
262 0 53.0538 14.1743 752 93.9641 1199.23 485.596
263 0 52.0931 13.3799 697 97.8321 1199.71 482.01
264 0 54.2378 13.4777 731 97.0479 1200.08 481.658
265 0 57.1548 14.5045 829 95.1158 1200.41 481.922
266 0 57.1693 13.2064 755 97.9324 1200.32 480.193
267 0 60.327 15.3828 928 94.3362 1201.14 480.346
268 0 62.2309 14.5587 906 95.4978 1201.45 478.696
269 0 66.3471 14.4995 962 94.157 1201.44 482.637
270 0 65.1908 12.7779 833 100.521 1200.99 478.797
271 0 67.2553 14.2442 958 98.1472 1201.03 478.737
272 0 71.29 15.0793 1075 97.226 1201.23 477.441
273 1 37.1903 10.0026 372 100.333 1201.84 495.073
274 0 38.2012 10.9421 418 99.6579 1201.1 495.361
275 0 41.1849 12.4317 512 98.4297 1201.27 494.201
276 0 41.3026 12.0089 496 101.171 1200.23 493.98
277 0 43.2784 11.8073 511 101.436 1200.4 493.616
278 0 44.3206 12.906 572 99.528 1199.72 492.701
279 0 45.3256 13.6567 619 99.8885 1199.22 490.824
280 0 48.2364 13.3717 645 100.536 1198.42 491.046
281 0 49.1947 13.9446 686 100.953 1198.28 488.347
282 0 52.2612 14.4275 754 98.6101 1198.28 489.029
283 0 52.2672 14.5024 758 100.546 1197.74 486.642
284 0 54.1929 14.8359 804 100.889 1196.96 485.825
285 0 55.2748 14.5817 806 101.28 1197.5 484.065
286 0 56.1572 12.8211 720 104.975 1197.17 483.469
287 0 57.2628 15.0359 861 101.611 1197.79 480.102
288 0 59.2082 15.4708 916 99.9389 1197.05 480.451
289 0 62.1638 15.0731 937 100.615 1197.38 479.723
290 0 62.1763 15.3274 953 100.51 1197.78 478.618
291 0 63.1636 14.3754 908 102.586 1197.51 477.058
292 0 67.1697 14.5155 975 101.73 1197.88 475.896
293 0 71.1653 16.6092 1182 97.808 1198.97 474.162
294 0 71.2438 15.075 1074 101.069 1199.84 471.759
295 0 73.2227 14.8724 1089 101.137 1200.76 473.301
296 0 78.196 15.2054 1189 100.047 1199.93 471.077
297 0 79.1822 15.5717 1233 101.459 1200.65 468.678
298 0 82.3332 14.9757 1233 101.951 1201.72 467.86
299 1 44.0158 11.564 509 100.794 1202.47 487.878
300 0 44.0338 13.6032 599 97.7629 1202.29 487.651
301 0 47.0765 12.724 599 98.015 1202.84 488.498
302 0 47.0305 13.5444 637 97.1648 1202.64 487.89
303 0 49.127 13.3735 657 97.242 1202.67 487.495
304 0 51.0351 14.8133 756 96.3188 1201.92 487.284
305 0 52.0425 14.4689 753 96.4236 1202.25 487.809
306 0 52.0319 14.222 740 98.3959 1201.41 487.705
307 0 57.0354 15.2362 869 94.5075 1201.36 487.971
308 0 58.0853 15.0468 874 97.1899 1200.61 485.08
309 0 61.1538 14.7824 904 96.1338 1200.4 485.76
310 0 63.2785 16.8936 1069 92.7942 1200.13 483.636
311 0 64.1722 13.6196 874 99.3478 1199.56 481.966
312 0 67.1628 15.0381 1010 97.3287 1199.27 482.208
313 1 34.0242 12.256 417 96.6451 1198.41 496.257
314 0 36.0423 11.8195 426 96.8146 1197.73 495.181
315 0 38.1052 13.1478 501 93.5689 1196.97 495.293
316 0 40.0338 11.5652 463 95.2613 1196.75 494.849
317 0 39.0255 11.864 463 96.5184 1196.26 494.173
318 0 40.0411 12.8118 513 97.6842 1195.93 491.772
319 0 41.0163 13.2387 543 95.3775 1196.39 490.7
320 0 43.0345 14.5465 626 92.532 1196.86 489.355
321 0 43.0124 12.2058 525 99.1448 1197.18 488.126
322 0 46.0219 12.255 564 98.6436 1197.39 488.129
323 0 46.2476 15.3954 712 95.368 1199.21 487.25
324 0 47.252 13.5021 638 98.6019 1198.5 487.826
325 0 51.3066 13.507 693 97.9134 1199.6 486.221
326 0 53.141 16.1457 858 92.296 1200.43 485.703
327 0 52.1998 13.3525 697 99.5739 1200.6 484.485
328 0 55.1859 15.0944 833 96.2557 1201.14 485.325
329 0 56.1287 13.9323 782 97.4552 1202.05 485.326
330 0 57.1658 14.869 850 98.0529 1202.13 481.309
331 0 60.1767 13.8093 831 99.16 1202.29 482.834
332 0 61.2327 14.0611 861 99.698 1202.09 481.92
333 0 64.219 14.762 948 98.5106 1202.22 481.597
334 0 66.1719 13.6312 902 100.972 1201.77 481.453
335 0 70.1878 15.2021 1067 97.8716 1201.69 480.554
336 0 71.1969 13.6944 975 101.963 1201.29 479.799
337 0 74.1325 15.4453 1145 100.063 1200.99 478.905
338 0 76.1929 15.2639 1163 101.174 1201.17 475.249
339 1 41.0388 11.1602 458 99.1878 1199.5 496.924
340 0 39.0866 10.7454 420 103.724 1198.29 495.157
341 0 43.0852 11.6745 503 102.227 1198.96 493.388
342 0 44.111 12.5819 555 100.879 1198.93 493.64
343 0 44.0726 12.4113 547 103.731 1198.14 491.497
344 0 46.1403 13.6757 631 102.2 1197.22 489.049
345 0 48.0602 14.461 695 100.456 1196.83 489.655
346 0 50.134 16.5556 830 97.3434 1198.44 489.657
347 0 49.1358 12.8623 632 105.682 1197.88 487.646
348 0 52.0967 15.1257 788 102.713 1197.42 486.721
349 0 53.1479 14.4126 766 104.777 1197.61 485.466
350 0 55.1209 15.0034 827 104.15 1197.55 483.451
351 0 57.0604 14.1955 810 106.433 1197.97 483.036
352 0 58.052 13.6946 795 110.02 1198.45 479.532
353 0 59.1645 13.7413 813 109.31 1199.03 480.039
354 0 62.1508 15.1406 941 107.273 1199.26 478.547
355 0 62.1116 14.8442 922 110.407 1200.32 477.474
356 0 65.0682 16.1523 1051 107.426 1200.26 475.595
357 0 69.2097 15.0123 1039 106.335 1201.06 477.536
358 0 70.1732 15.476 1086 107.576 1200.77 473.811
359 1 39.0224 11.4549 447 107.096 1199.62 492.718
360 0 40.098 11.7961 473 107.465 1200.51 491.283
361 0 40.0597 11.1833 448 108.234 1200.84 492.203
362 0 44.0659 11.6644 514 106.93 1201.62 492.412
363 0 43.0299 12.317 530 108.468 1201.24 490.519
364 0 47.0654 12.7482 600 106.112 1202.42 490.912
365 0 46.0842 12.7809 589 106.944 1202.62 491.946
366 0 48.0272 15.283 734 102.54 1202.72 491.954
367 0 49.072 14.2036 697 108.09 1203.12 490.468
368 0 51.1836 14.0475 719 108.798 1203.01 491.273
369 0 52.2986 13.6524 714 110.024 1202.35 489.811
370 0 54.0926 14.1794 767 107.4 1201.63 488.566
371 0 56.2492 14.6135 822 106.137 1200.94 489.731
372 0 57.2608 13.8489 793 109.532 1199.58 487.871
373 1 30.0301 13.2867 399 101.734 1198.53 502.02
374 0 29.1808 11.0689 323 107.923 1198.11 500.827
375 0 32.1068 11.8666 381 105.654 1197.04 501.598
376 0 30.2533 12.6598 383 104.238 1197.21 501.269
377 0 32.1454 12.039 387 106.659 1197.22 498.866
378 0 31.1173 11.2799 351 109.507 1196.36 500.296
379 0 34.3486 12.8098 440 106.398 1197.54 499.061
380 0 32.0877 12.0919 388 111.513 1196.91 499.224
381 0 31.3046 13.5763 425 112.047 1197.51 498.068
382 0 31.2399 13.6044 425 113.852 1196.12 496.395
383 0 34.0992 13.4607 459 113.203 1196.86 496.604
384 0 33.1115 13.7113 454 117.322 1198.09 495.694
385 0 33.2607 12.6876 422 118.178 1198.79 496.289
386 0 34.2008 13.8008 472 118.57 1198.86 495.225
387 0 36.0571 12.6189 455 118.358 1200.09 496.963
388 0 36.0916 14.2692 515 116.61 1201.37 496.05
389 0 36.0726 13.3342 481 120.212 1202.06 496.181
390 0 37.0587 13.0064 482 163.869 1203.05 496.251
391 0 39.0684 14.0523 549 119.319 1203.21 496.929
392 0 39.0684 14.0779 550 166.665 1203.26 497.069
393 0 37.0509 14.0617 521 126.426 1203.27 496.795
394 0 41.2495 13.6486 563 128.81 1203.26 497.355
395 0 39.3293 15.3066 602 132.674 1202.9 497.382
396 0 40.5715 15.0352 610 134.58 1202.99 498.874
397 1 22.2855 13.1027 292 134.315 1202.47 507.541
398 0 23.7794 12.8262 305 133.292 1201.67 508.075
399 0 23.4691 12.9958 305 134.328 1201.99 506.911
400 0 24.508 14.6075 358 130.039 1201.48 507.148
401 0 23.2477 14.152 329 136.909 1202.26 505.103
402 0 23.2835 16.3635 381 137.16 1201.65 504.845
403 0 21.1045 19.6167 414 136.87 1201.11 504.599
404 0 21.0044 16.8536 354 142.949 1200.47 505.308
405 0 21.2549 16.8432 358 144.271 1200.36 505.444
406 0 21.1488 17.8734 378 144.249 1199.93 504.003
407 0 20.0672 13.5047 271 129.214 1199.16 503.321
408 0 18.0027 11.8316 213 130.46 1198.66 502.977
409 0 17.0051 13.643 232 131.668 1198.03 502.103
410 1 35.0338 14.8428 520 129.477 1197.48 494.506
411 0 35.047 15.2367 534 130.59 1198.31 493.161
412 0 37.0221 13.8836 514 132.362 1198.3 492.43
413 0 38.1339 16.2323 619 126.002 1198.81 491.444
414 0 40.0239 15.5157 621 125.317 1199.08 491.865
415 0 38.0223 14.4652 550 130.913 1199.96 491.227
416 0 40.0513 16.354 655 126.142 1200.54 490.574
417 0 44.0386 16.3039 718 124.093 1201.56 489.448
418 0 43.0363 15.7309 677 125.892 1201.96 490.405
419 0 44.0346 15.6241 688 127.503 1203.16 488.225
420 0 47.0125 15.8256 744 125.499 1203.86 488.374
421 0 48.0773 16.1823 778 127.731 1204.46 487.559
422 0 50.1043 15.1684 760 129.645 1204.71 487.813
423 0 50.0348 14.6498 733 132.685 1204.93 488.966
424 0 53.0955 15.4062 818 132.59 1204.59 487.068
425 0 56.3264 14.5935 822 132.147 1205.16 488.113
426 0 56.2284 13.9431 784 137.135 1204.8 487.723
427 0 60.1635 15.7903 950 130.067 1204.71 488.446
428 1 29.2188 11.7732 344 134.131 1203.54 501.959
429 0 32.1316 13.6315 438 131.342 1203.07 500.114
430 0 33.2364 13.5695 451 131.579 1202.31 500.721
431 0 36.1321 14.3086 517 128.907 1202.16 499.255
432 0 37.1427 14.4847 538 129.809 1201.39 498.615
433 0 39.1259 15.4373 604 128.093 1200.97 497.753
434 0 39.1259 15.4629 605 154.283 1201.99 497.765
435 0 41.0519 15.4682 635 129.38 1199.19 495.446
436 0 42.0927 14.2542 600 132.462 1198.94 494.33
437 0 44.0988 16.3723 722 126.958 1198.57 492.42
438 0 43.039 15.1955 654 132.052 1198.57 491.416
439 0 46.0642 15.1094 696 131.374 1197.85 489.139
440 0 49.0137 15.7711 773 128.044 1197.75 487.316
441 0 50.1147 16.4024 822 126.017 1198.35 485.832
442 0 50.0716 15.6975 786 129.986 1197.51 484.726
443 0 53.0296 15.9345 845 127.983 1198.94 484.503
444 0 56.044 15.8625 889 126.726 1199.32 483.645
445 0 57.1396 14.7534 843 129.535 1200.1 482.671
446 0 59.1776 15.5802 922 129.623 1200.78 481.6
447 0 60.1407 15.4637 930 130.829 1202.19 481.372
448 0 63.2668 15.9167 1007 129.538 1203.18 478.83
449 0 64.2002 14.8598 954 132.975 1204.49 480.234
450 0 64.2002 14.7507 947 161.97 1205.48 480.229
451 0 71.1515 15.6427 1113 131.645 1205.95 477.955
452 1 37.0186 13.1555 487 129.392 1206.86 495.733
453 0 36.0359 12.2378 441 135.488 1207.23 495.329
454 0 40.0147 14.3447 574 130.779 1206.02 495.223
455 0 40.11 13.7372 551 132.956 1205.98 495.446
456 0 44.0506 15.1644 668 127.891 1205.34 495.052
457 0 45.1007 15.2326 687 127.659 1204.37 495.278
458 0 47.1429 15.2303 718 128.54 1204.02 494.94
459 0 46.0802 14.4748 667 132.057 1203.39 494.705
460 0 50.0455 15.7856 790 126.981 1203.11 494.157
461 0 51.0369 15.7141 802 130.012 1203.1 490.589
462 0 53.0244 16.3698 868 129.43 1201.8 491.238
463 0 57.0776 17.1696 980 126.687 1200.01 488.181
464 0 57.077 15.0849 861 132.927 1199.81 487.668
465 0 62.0588 17.3062 1074 124.991 1199.83 485.241
466 0 64.0794 16.5108 1058 129.946 1198.45 483.04
467 0 65.1287 17.0432 1110 130.057 1197.79 480.742
468 0 67.1622 17.5694 1180 128.234 1196.95 480.374
469 0 71.0742 17.3903 1236 128.996 1197.19 478.033
470 0 72.1743 16.0861 1161 133.106 1197.18 475.795
471 0 77.1229 16.8303 1298 129.206 1196.74 473.707
472 1 42.0803 12.8801 542 136.509 1197.83 489.458
473 0 44.1113 13.8286 610 132.972 1198.01 489.497
474 0 46.1384 14.2398 657 131.912 1198.92 488.387
475 0 47.0417 14.8166 697 130.133 1199.86 487.347
476 0 49.1377 15.0597 740 130.134 1200.16 486.251
477 0 50.15 15.8524 795 126.053 1200.75 486.255
478 0 52.2318 14.8186 774 124.749 1201.99 485.558
479 0 55.1672 15.9878 882 122.88 1202.77 484.17
480 0 57.2061 14.9634 856 124.883 1203.65 484.793
481 0 59.1763 15.1243 895 126.696 1204.58 484.898
482 0 61.2227 14.5371 890 127.26 1204.84 485.755
483 0 64.2381 14.5397 934 127.26 1204.83 484.639
484 0 68.1752 16.2669 1109 123.684 1205.24 481.099
485 0 71.253 15.2976 1090 126.392 1204.67 481.825
486 0 74.0939 16.0877 1192 123.893 1203.43 478.741
487 0 78.2014 16.2657 1272 122.778 1202.97 479.215
488 0 81.1996 15.1971 1234 125.917 1202.47 477.15
489 0 85.1891 16.7392 1426 121.482 1202.03 474.966
490 0 90.1874 15.9335 1437 121.253 1201.77 472.673
491 0 93.3627 15.2952 1428 122.505 1200.63 472.648
492 1 49.0984 14.5422 714 120.144 1199.92 492.818
493 0 48.1328 13.6705 658 123.389 1198.85 491.79
494 0 51.27 13.8677 711 122.214 1198.38 489.75
495 0 55.1566 14.5767 804 119.689 1198.16 488.236
496 0 57.1402 15.0157 858 118.172 1197.33 486.286
497 0 59.4363 15.361 913 116.181 1197.37 484.067
498 0 60.0876 15.2278 915 118.462 1195.9 481.694
499 0 61.1418 16.3391 999 116.25 1196.21 479.504
500 0 65.2997 16.0797 1050 115.863 1196.66 478.368
501 0 66.1395 13.9402 922 120.253 1196.18 475.529
502 0 70.2897 16.0621 1129 115.267 1196.95 473.232
503 0 73.3709 14.7606 1083 118.456 1197.73 474.137
504 0 75.4544 15.8904 1199 116.089 1198.79 471.388
505 0 76.3286 16.1276 1231 115.343 1200.42 470.969
506 0 79.3164 14.9528 1186 118.047 1201.33 470.297
507 0 82.402 15.2909 1260 117.487 1201.92 466.993
508 0 88.1482 16.6538 1468 114.667 1203.5 467.167
509 0 91.4624 15.3396 1403 116.899 1205.94 466.989
510 0 95.4 16.5304 1577 113.531 1207.24 466.037
511 0 99.345 15.4713 1537 113.221 1207.52 469.009
512 0 101.344 15.3931 1560 115.373 1207.34 463.401
513 1 51.4323 12.1713 626 115.05 1207.02 489.508
514 0 55.3455 12.8104 709 111.262 1205.23 491.251
515 0 57.3569 12.2915 705 115.643 1204.3 489.183
516 0 60.4039 14.9494 903 111.909 1202.65 488.489
517 0 63.4589 14.7497 936 111.972 1201.9 487.991
518 0 67.2978 16.0629 1081 108.165 1200.94 484.797
519 0 70.4803 16.0328 1130 107.104 1199.39 483.76
520 0 71.7593 16.3324 1172 107.108 1198.73 483.939
521 0 74.2815 13.8258 1027 112.342 1197.54 480.247
522 0 75.2816 15.0767 1135 141.717 1197.58 481.584
523 0 81.4861 16.1255 1314 108.871 1195.04 475.095
524 0 83.3738 16.564 1381 109.213 1194.18 473.041
525 0 88.7169 18.3731 1630 104.876 1193.39 471.763
526 0 91.5986 17.5658 1609 106.97 1192.34 469.367
527 0 91.6325 17.6138 1614 155.918 1192.33 469.29
528 0 97.3948 16.469 1604 110.671 1190.57 465.063
529 0 101.811 17.1788 1749 108.648 1190.44 462.787
530 0 104.707 15.5004 1623 112.845 1191.62 458.338
531 0 111.538 16.5953 1851 108.982 1191.4 458.306
532 0 112.663 17.0864 1925 109.899 1191.48 453.384
533 0 117.64 16.8055 1977 109.52 1192.15 455.801
534 0 122.614 16.2379 1991 111.742 1193.09 452.129
535 1 60.4263 11.3858 688 115.513 1194.12 483.844
536 0 64.375 13.6699 880 112.49 1195.99 481.407
537 0 68.3729 13.7335 939 112.986 1197.37 482.688
538 0 71.4814 14.7031 1051 111.612 1199.68 480.376
539 0 75.4556 16.4202 1239 108.812 1200.38 481.571
540 0 77.3526 15.1772 1174 112.655 1199.82 483.952
541 0 82.236 16.1851 1331 111.358 1200.1 481.43
542 0 85.4305 15.0766 1288 114.661 1200.07 479.432
543 0 87.2438 13.9723 1219 118.854 1198.38 479.427
544 0 92.1353 15.0322 1385 116.757 1197.39 477.362
545 0 97.2723 15.3384 1492 115.281 1196.17 476.776
546 0 101.1 15.3511 1552 115.354 1194.69 472.498
547 1 56.1134 11.3877 639 115.135 1193.57 495.739
548 0 59.2054 11.7895 698 115.182 1192.35 491.84
549 0 61.1804 13.7789 843 110.955 1191.32 490.99
550 0 63.0885 13.9804 882 112.273 1189.93 486.815
551 0 66.1487 14.0744 931 112.055 1189.32 487.078
552 0 69.1728 14.153 979 111.901 1188.47 484.927
553 0 71.0927 14.038 998 112.974 1187.92 481.574
554 0 73.1881 14.3603 1051 112.11 1186.73 478.444
555 0 75.1349 14.1346 1062 113.197 1187.09 475.57
556 0 80.1272 13.7406 1101 113.043 1187.03 473.557
557 0 84.0711 15.9984 1345 109.23 1187.57 469.998
558 1 43.1268 11.2227 484 108.566 1189.1 490.915
559 0 46.179 11.6287 537 109.05 1189.82 488.708
560 0 45.1027 10.598 478 110.172 1191 488.967
561 0 47.1468 10.1173 477 112.013 1192.24 487.547
562 0 52.1452 11.583 604 106.863 1193.71 486.421
563 0 51.1768 13.0528 668 106.573 1195.85 484.142
564 0 54.1521 12.0586 653 105.688 1197.56 486.217
565 0 54.1289 13.8373 749 101.178 1197.62 485.856
566 0 55.1017 12.2501 675 103.932 1199.67 486.56
567 0 59.0878 13.2345 782 102.446 1201.66 484.99
568 0 62.23 14.35 893 99.7839 1202.39 486.006
569 0 63.1351 12.7188 803 104.822 1202.83 485.341
570 0 65.3976 12.8598 841 104.996 1202.72 486.038
571 0 69.2794 13.2796 920 104.296 1201.99 485.586
572 0 72.2175 14.5948 1054 101.584 1201.56 484.565
573 0 73.4548 13.2054 970 105.828 1199.3 484.939
574 0 77.4262 14.7366 1141 104.25 1198.74 481.526
575 1 41.128 11.4277 470 105.738 1199.02 502.336
576 0 42.0713 10.5535 444 107.295 1198.07 502.482
577 0 44.144 10.9641 484 106.8 1196.97 500.585
578 0 44.077 11.6387 513 108.589 1195.85 498.729
579 0 47.2284 12.0055 567 106.538 1194.13 496.511
580 0 48.1217 13.7984 664 102.133 1191.6 495.227
581 0 48.1016 11.7876 567 108.256 1191.36 494.944
582 0 50.1276 12.2687 615 107.315 1191.16 493
583 0 51.166 12.9969 665 105.526 1190.19 489.502
584 0 54.1313 12.7098 688 106.188 1189.9 488.868
585 0 55.1168 13.7345 757 104.724 1189.84 488.102
586 0 57.0861 12.7877 730 106.734 1189.41 484.827
587 0 58.1731 12.5488 730 106.349 1189.7 484.696
588 0 63.1159 13.4831 851 104.004 1190.42 483.139
589 0 62.1512 12.0513 749 107.016 1190.26 481.872
590 0 65.1055 12.2417 797 106.008 1191.31 480.235
591 0 69.1123 12.9789 897 106.884 1192.4 478.642
592 0 71.0954 13.1795 937 106.733 1194.07 476.409
593 0 74.1581 14.2938 1060 105.939 1196.19 475.357
594 0 80.1057 15.13 1212 103.775 1195.86 475.44
595 0 80.159 13.1738 1056 108.588 1198.6 473.847
596 0 83.1243 14.0031 1164 106.982 1201.06 471.776
597 1 45.0271 9.12784 411 109.803 1203.59 494.022
598 0 46.0548 9.11957 420 112.41 1203.43 493.386
599 0 50.1808 12.3354 619 106.373 1203.12 492.262
600 0 54.1013 12.0699 653 105.109 1203.57 493.441
601 0 57.1973 12.2908 703 107.792 1200.93 495.07
602 0 58.1577 13.3258 775 105.498 1199.02 495.56
603 0 59.1517 12.5609 743 107.536 1197.5 495.945
604 0 65.1446 12.9404 843 103.616 1195.44 496.791
605 0 68.1856 13.2726 905 102.4 1194.25 493.59
606 0 73.1528 14.3262 1048 100.626 1192.37 493.187
607 0 75.4221 14.6907 1108 100.42 1190.93 490.837
608 1 41.1611 7.70146 317 104.126 1190.72 511.35
609 0 43.1778 10.7463 464 100.843 1189.3 508.476
610 0 46.1982 12.2083 564 96.4965 1188.25 507.36
611 0 48.334 11.4412 553 97.924 1188.21 505.711
612 0 48.334 11.3585 549 139.27 1188.2 505.683
613 0 52.1236 13.6215 710 96.6155 1186.03 502.062
614 0 53.0491 14.6091 775 95.2387 1185.79 500.91
615 0 55.0783 13.3083 733 96.3015 1185.66 498.898
616 0 53.3585 13.8497 739 97.5183 1186.69 496.234
617 0 56.2441 13.797 776 97.4716 1185.07 495.247
618 0 60.2061 13.9853 842 96.4549 1186.82 493.223
619 0 61.313 14.4178 884 96.3631 1185.85 491.295
620 0 61.397 12.0364 739 101.047 1187.51 490.111
621 0 64.2606 14.8147 952 96.8603 1188.29 487.433
622 0 68.3047 13.674 934 97.4283 1190.54 490.069
623 0 68.3107 12.8823 880 100.583 1191.63 488.586
624 0 71.286 13.6072 970 100.059 1193.25 485.154
625 0 74.2229 14.7394 1094 97.3126 1194.55 486.759
626 0 78.415 16.4764 1292 94.2748 1195.11 486.822
627 0 81.6061 13.9573 1139 99.5847 1195.19 483.081
628 0 86.6556 14.2518 1235 99.6097 1195.05 480.253
629 0 89.643 13.788 1236 101.8 1194.57 482.734
630 0 94.4043 14.7345 1391 100.507 1192.73 482.411
631 1 48.3953 9.42241 456 101.004 1194.23 508.974
632 0 52.2245 11.3931 595 99.3445 1193.74 507.158
633 0 54.0937 11.6095 628 99.1672 1192.92 506.992
634 0 54.1026 10.5171 569 101.141 1191.16 507.698
635 0 59.055 13.0895 773 96.533 1190.52 504.77
636 0 62.1942 13.7634 856 95.2886 1189.34 503.23
637 0 63.0584 13.8443 873 96.4479 1186.82 503.381
638 0 65.1134 14.1599 922 96.9902 1185.42 499.842
639 0 67.1819 14.0216 942 99.0902 1183.23 496.66
640 0 68.1355 13.8548 944 100.786 1182.71 495.82
641 0 73.2182 14.6138 1070 99.0374 1182.92 492.775
642 0 76.1361 15.4723 1178 98.3642 1180.93 491.491
643 0 77.1107 15.2508 1176 99.8988 1180.03 488.9
644 0 79.2038 14.7594 1169 101.284 1180.78 487.352
645 0 81.1498 14.0481 1140 104.593 1181.79 483.203
646 0 86.1378 14.8251 1277 102.849 1182.99 485.407
647 0 87.2675 15.527 1355 102.425 1184.71 484.03
648 0 91.1513 14.4924 1321 104.316 1185.88 481.362
649 1 49.019 11.5669 567 106.707 1187.3 501.82
650 0 48.0387 11.8654 570 106.605 1188.96 501.758
651 0 50.0666 10.3862 520 109.7 1190.11 500.038
652 0 53.1121 12.0688 641 106.644 1191.03 499.119
653 0 56.1303 13.1123 736 103.397 1193.23 500.046
654 0 57.1072 13.9037 794 101.519 1192.98 499.145
655 0 58.0563 13.2113 767 102.057 1194.23 500.018
656 0 62.1048 14.073 874 99.3158 1194.14 498.573
657 0 64.1571 13.7631 883 100.425 1192.73 497.193
658 0 67.2281 14.7111 989 99.4641 1192.48 498.013
659 0 70.2282 14.0542 987 101.958 1192.11 498.76
660 0 72.1028 14.8954 1074 100.46 1192.63 496.69
661 0 77.2314 14.4889 1119 102.523 1191.78 494.079
662 0 80.1623 15.6183 1252 101.463 1189.81 493.012
663 0 83.1261 14.0269 1166 105.756 1189.9 490.733
664 1 45.0533 11.1646 503 103.416 1188.42 509.286
665 0 46.1695 11.5877 535 102.893 1187.4 507.929
666 0 47.0665 11.3031 532 105.203 1186.39 504.115
667 0 47.0692 11.9186 561 104.854 1185.47 501.431
668 0 49.0549 13.0874 642 100.374 1185.28 502.045
669 0 51.0424 12.9304 660 102.695 1184.98 500.036
670 0 53.0632 13.2107 701 101.281 1185.23 497.539
671 0 53.1814 12.5044 665 104.343 1185.48 494.817
672 0 56.1644 14.3151 804 101.335 1186.39 492.953
673 0 59.1807 13.839 819 102.024 1185.64 491.225
674 0 58.0921 12.1703 707 106.501 1186.69 488.926
675 0 61.209 12.7105 778 104.464 1187.87 487.684
676 0 62.1364 12.7944 795 106.045 1188.9 486.147
677 0 65.1937 13.3142 868 105.05 1189.46 485.245
678 0 68.22 15.3034 1044 100.745 1191.71 483.398
679 0 70.1798 14.2206 998 103.557 1193.43 481.734
680 0 73.2738 14.5482 1066 103.732 1195.15 480.706
681 1 38.0887 9.42536 359 104.939 1197.42 500.708
682 0 41.1318 11.4996 473 100.871 1199.34 501.034
683 0 40.1149 11.3424 455 156.062 1199.32 500.503
684 0 42.1612 10.958 462 104.805 1200.51 500.015
685 0 47.0837 14.5061 683 99.5007 1201.08 499.751
686 0 48.1234 12.8835 620 103.84 1201.09 499.4
687 0 52.0525 14.7351 767 99.8722 1200.14 499.679
688 0 52.3012 12.8295 671 107.596 1199.51 498.763
689 0 55.0946 14.6112 805 103.706 1198.71 496.791
690 0 58.1704 14.1309 822 103.14 1197.8 495.557
691 0 61.1941 14.7237 901 101.463 1197.05 494.245
692 0 64.1596 14.6821 942 102.307 1194.83 492.514
693 0 65.087 14.4115 938 102.512 1193.85 491.649
694 0 68.2303 14.2312 971 103.399 1192.92 488.29
695 0 69.2556 14.1505 980 105.08 1191.39 485.586
696 0 71.2056 13.5663 966 106.518 1189.73 483.407
697 1 40.11 9.47396 380 102.732 1188.04 499.963
698 0 42.0152 11.5672 486 99.5288 1187.65 497.617
699 0 42.0318 10.8251 455 102.495 1188.93 495.002
700 0 44.0374 10.423 459 102.161 1188.53 493.765
701 0 44.0442 11.988 528 99.4261 1189.66 491.797
702 0 46.0631 12.2224 563 98.5044 1190.08 490.831
703 0 49.1013 13.7064 673 95.1382 1191.45 488.816
704 0 50.0682 13.3618 669 96.0404 1193.17 488.549
705 0 50.0925 13.5749 680 96.9721 1194.23 486.885
706 0 52.1767 14.0292 732 95.2924 1196.26 484.944
707 0 54.147 13.8512 750 95.0547 1197.77 484.504
708 0 53.3083 12.4371 663 97.1267 1198.64 484.95
709 0 56.2269 13.4811 758 95.2111 1200.96 483.781
710 0 59.2725 12.5691 745 96.2456 1202.97 484.674
711 0 63.3273 14.8751 942 91.1019 1204.38 484.31
712 0 65.6296 13.6829 898 93.8419 1204.47 483.63
713 0 65.3678 14.0895 921 94.8654 1204.33 481.868
714 0 69.4378 14.8478 1031 92.7595 1204.72 482.604
715 0 74.4356 14.7644 1099 91.8317 1204.99 484.51
716 0 74.2022 14.2718 1059 94.5534 1204.24 481.933
717 0 77.3616 15.434 1194 93.0209 1203.09 481.079
718 1 41.3391 10.7646 445 93.1663 1202.28 501.939
719 0 44.3898 8.74074 388 95.366 1200.71 502.198
720 0 43.3845 11.4557 497 96.7203 1200.1 497.125
721 0 46.3147 10.8173 501 97.1018 1198.73 497.21
722 0 48.0925 13.079 629 93.1526 1196.99 496.758
723 0 50.2704 11.9554 601 94.8985 1196.05 494.421
724 0 52.2022 13.3519 697 91.439 1194.47 493.063
725 0 53.2358 13.2618 706 92.3513 1193.66 490.497
726 0 54.2891 12.415 674 93.8739 1192.53 490.366
727 0 58.3052 13.3607 779 93.0937 1193.03 487.144
728 0 59.3355 14.3927 854 91.7237 1191.75 485.13
729 0 61.3197 13.3399 818 94.1516 1192.34 483.467
730 0 62.5378 13.7837 862 93.1346 1191.96 483.418
731 0 65.3841 14.4531 945 92.437 1191.57 481.226
732 0 68.3962 14.2844 977 93.1709 1191.19 479.281
733 0 69.4336 13.4229 932 94.9142 1192.95 477.933
734 0 71.4219 14.1833 1013 94.6782 1193.88 476.618
735 0 75.6022 14.8276 1121 94.8742 1195.87 474.344
736 0 76.9008 13.3939 1030 97.2359 1198.53 475.13
737 0 80.4105 14.712 1183 95.4801 1200.36 475.914
738 1 43.2206 10.5737 457 94.9015 1202 497.011
739 0 47.138 10.8617 512 95.2539 1203.42 496.209
740 0 49.1251 10.5445 518 95.805 1204.29 496.008
741 0 49.2488 9.6043 473 97.8118 1205.57 498.175
742 0 52.1057 11.4383 596 96.3473 1205.13 496.857
743 0 55.2626 11.943 660 93.6348 1203.85 499.695
744 0 57.1888 13.674 782 94.6598 1201.57 495.393
745 0 61.1651 13.1938 807 91.6964 1199.6 498.429
746 0 64.139 14.4842 929 91.4446 1197.96 496.583
747 0 66.2437 13.1484 871 95.1952 1195.75 494.133
748 0 70.2376 13.1553 924 95.1504 1194.18 493.469
749 0 72.3108 12.9165 934 97.3779 1189.7 490.056
750 0 75.379 12.7091 958 98.3455 1189.57 488.693
751 0 80.3657 14.4962 1165 95.4721 1188.8 485.296
752 0 82.3931 12.5253 1032 100.176 1188.34 483.996
753 0 86.2809 13.7342 1185 98.0397 1187.18 480.679
754 1 47.0152 10.6136 499 96.8337 1186.65 500.2
755 0 47.1113 10.5495 497 95.7827 1186.15 499.93
756 0 51.0547 10.949 559 94.4079 1186.9 498.456
757 0 52.0974 10.7683 561 96.0143 1186.85 495.078
758 0 53.062 11.3075 600 96.0783 1186.92 492.073
759 0 55.0678 11.2952 622 95.5965 1187.2 491.807
760 0 57.0608 13.4769 769 91.8544 1188.49 489.663
761 0 59.0678 12.3248 728 92.7006 1189.56 488.555
762 0 59.1558 11.8501 701 96.214 1191.57 487.882
763 0 60.2281 11.0912 668 97.991 1193.09 483.097
764 0 64.182 11.9971 770 94.3688 1194.77 485.906
765 0 67.1616 12.6263 848 93.2323 1196.54 483.666
766 0 71.1595 13.4346 956 91.6778 1199.3 483.053
767 0 74.2072 13.0311 967 91.7229 1200.55 482.047
768 1 38.0456 9.38347 357 91.5266 1200.36 500.115
769 0 41.0145 9.77703 401 90.0499 1200.32 501.521
770 0 43.0739 8.98457 387 91.7416 1199.54 499.984
771 0 44.1187 9.67844 427 92.0047 1199.18 502.075
772 0 47.0642 12.0261 566 88.7332 1198.02 499.519
773 0 47.0805 12.2981 579 89.8014 1197.67 499.737
774 0 50.1791 11.718 588 88.0663 1198.02 501.498
775 0 49.1637 11.5126 566 83.0618 1196.97 501.385
776 0 53.0886 12.8464 682 80.2419 1195.8 500.424
777 0 54.0992 13.4383 727 80.4773 1191.84 497.707
778 0 56.1764 12.6922 713 81.6311 1191.25 497.362
779 0 57.1338 12.6895 725 81.7848 1191.32 496.677
780 0 59.0686 12.1892 720 82.825 1189.89 493.456
781 0 64.1371 12.4421 798 83.1717 1189.11 490.404
782 0 66.164 14.056 930 81.414 1188.89 487.383
783 1 36.0266 7.41119 267 83.4719 1187.87 505.198
784 0 38.0611 9.35338 356 82.6854 1188.09 501.708
785 0 37.0068 9.02536 334 85.4102 1187.21 498.883
786 0 39.0257 10.2753 401 82.9127 1187.22 499.097
787 0 40.0186 10.9699 439 81.2916 1189.58 499.533
788 0 39.0371 10.8102 422 83.1872 1190.82 497.211
789 0 42.057 10.7473 452 84.1593 1191.83 497.812
790 0 47.1775 12.9511 611 78.2357 1193.42 498.75
791 0 47.0357 12.5437 590 79.2576 1193 497.424
792 0 47.0256 13.0142 612 79.4085 1194.96 497.255
793 0 49.0661 13.5939 667 78.3853 1196.94 498.682
794 0 52.0465 12.7963 666 78.9955 1198.15 499.368
795 0 51.099 12.877 658 82.6413 1198.39 498.755
796 0 56.0825 13.5515 760 82.6053 1198.29 499.38
797 0 57.1281 14.9139 852 80.6772 1197.61 498.388
798 0 59.098 13.4692 796 83.2864 1197.26 500.602
799 0 62.0767 15.4164 957 81.6761 1196.15 500.829
800 0 65.1542 14.4734 943 84.597 1193.89 498.499
801 0 69.1872 14.627 1012 83.5455 1192.69 498.268
802 0 72.1376 14.3198 1033 83.7512 1191.12 496.73
803 1 35.0258 11.6771 409 86.379 1190.13 511.597
804 0 39.0122 10.7146 418 85.2632 1188.4 512.55
805 0 41.0684 12.3696 508 85.3524 1187.39 508.86
806 0 42.0514 12.5798 529 84.6673 1185.8 508.193
807 0 44.0443 12.8507 566 84.0459 1185 506.217
808 0 44.1141 13.0117 574 87.8467 1184.28 503.181
809 0 45.0841 12.2216 551 87.7042 1184.69 501.659
810 0 47.049 11.9875 564 88.5443 1184.07 498.069
811 0 48.1253 13.1739 634 87.4558 1186.73 496.48
812 0 50.1391 14.2404 714 85.3375 1186.74 496.237
813 0 50.2338 12.6807 637 89.9953 1187.26 493.989
814 0 53.0647 13.0407 692 86.1994 1188.19 493.211
815 0 55.2524 13.5017 746 84.8606 1188.62 491.539
816 0 55.2382 12.0388 665 88.5308 1190.04 491.129
817 0 56.3108 13.3544 752 87.3763 1191.17 489.626
818 0 61.2197 14.6848 899 84.5495 1192.85 489.1
819 0 63.2404 14.4054 911 85.1328 1196.2 486.124
820 0 66.4024 15.0748 1001 85.029 1197.2 487.047
821 0 66.4428 12.4769 829 89.4946 1198.21 484.394
822 0 73.3239 14.1427 1037 86 1199.69 483.929
823 0 74.3404 13.4516 1000 87.524 1198.7 485.55
824 0 78.5017 14.0761 1105 87.6996 1197.83 482.534
825 1 45.1095 10.1087 456 87.7434 1197.86 501.627
826 0 46.0794 11.4802 529 86.9225 1196.84 502.531
827 0 48.1226 14.5462 700 83.06 1196.37 501.593
828 0 49.1644 12.7328 626 86.9265 1194.85 499.733
829 0 51.0959 13.5627 693 85.9076 1192.59 499.681
830 0 51.1571 11.9827 613 89.5171 1191.81 498.55
831 0 53.117 13.9691 742 85.562 1190.57 495.86
832 0 57.078 13.4027 765 86.9176 1189.8 493.171
833 0 58.0844 14.7544 857 83.7351 1188.98 493.653
834 0 59.1383 12.327 729 88.347 1188.54 491.509
835 0 62.1349 13.5351 841 85.4031 1188.22 489.191
836 0 63.1933 13.2926 840 86.1036 1187.89 487.077
837 0 67.0966 12.6236 847 85.7745 1188.06 487.491
838 0 68.1404 13.707 934 82.9764 1188.66 484.709
839 0 72.0758 14.7484 1063 81.7131 1188.67 482.587
840 0 74.1772 14.9507 1109 81.4761 1189.04 478.343
841 0 78.1026 14.8651 1161 82.6968 1189.14 475.273
842 0 80.1778 15.2536 1223 82.8855 1190.93 476.456
843 0 85.1865 14.6972 1252 83.2356 1192.44 476.812
844 0 88.2161 15.5754 1374 82.3908 1193.93 474.841
845 0 91.2324 13.8218 1261 85.2577 1196.23 474.508
846 1 51.1082 9.66577 494 82.9777 1198.88 498.342
847 0 54.1811 11.8676 643 83.3655 1200.79 494.283
848 0 54.0881 11.888 643 82.0451 1201.52 496.869
849 0 55.0236 10.7045 589 84.5722 1201.66 498.323
850 0 59.1362 13.0208 770 81.5455 1201.39 498.896
851 0 61.143 12.4299 760 84.4671 1199.55 496.213
852 0 63.2361 12.5245 792 85.197 1197.28 496.614
853 0 67.3583 13.8513 933 82.6602 1197.14 495.528
854 0 70.2014 16.2247 1139 80.2985 1195.85 495.206
855 0 73.2728 14.4938 1062 82.4972 1194.08 492.798
856 0 77.2744 13.7691 1064 81.5742 1192.31 491.483
857 0 82.3699 13.9857 1152 81.4844 1191.22 488.943
858 0 84.3851 14.0428 1185 82.1257 1189.93 483.447
859 0 87.4396 12.8889 1127 81.3469 1189.29 485.698
860 0 91.2705 12.3698 1129 82.6944 1187.64 481.756
861 1 49.1115 10.0995 496 80.9113 1187.02 501.673
862 0 49.1837 12.4025 610 78.7361 1187.15 498.377
863 0 54.1516 13.0005 704 76.6619 1186.16 498.913
864 0 54.1841 12.4206 673 78.1664 1186.64 496.548
865 0 55.2514 12.3979 685 80.3518 1186.56 493.829
866 0 57.3162 12.0908 693 82.8268 1186.57 492.792
867 0 59.4085 13.7522 817 80.0942 1186.6 490.721
868 0 62.3563 13.2465 826 78.8087 1186.96 488.567
869 0 64.3148 13.4028 862 77.9176 1187.69 487.124
870 0 64.3148 13.3251 857 130.421 1188.68 487.249
871 0 69.3799 14.8746 1032 77.3081 1190.36 486.684
872 0 70.5763 14.92 1053 78.7882 1191.77 483.339
873 0 74.5537 15.0496 1122 78.6435 1193.28 484.075
874 0 75.534 15.397 1163 80.0722 1194.25 481.987
875 0 79.4628 15.0888 1199 79.6172 1195.38 480.647
876 0 83.7062 14.2522 1193 81.6647 1196.92 480.54
877 0 87.6786 14.7585 1294 81.4374 1197.12 480.226
878 0 88.6412 14.9592 1326 83.9706 1196.28 479.185
879 0 90.4694 11.6503 1054 89.8918 1196.87 477.541
880 0 97.2528 14.3749 1398 86.3863 1194.37 476.977
881 0 101.632 15.8414 1610 85.2497 1194.28 472.812
882 0 108.441 16.3591 1774 83.624 1193.84 473.053
883 0 108.441 16.3684 1775 136.934 1192.85 473.093
884 0 114.335 17.3263 1981 84.3009 1191.39 470.325
885 0 114.335 17.3089 1979 131.878 1190.4 470.29
886 0 125.288 17.7033 2218 82.2218 1188.36 461.027
887 0 128.65 16.0125 2060 83.0854 1186.64 458.29
888 1 68.1946 11.8631 809 84.9666 1186.57 487.56
889 0 75.3174 13.8879 1046 82.8403 1186.4 484.585
890 0 74.2485 12.9969 965 86.4912 1186.9 480.153
891 0 79.6314 14.4541 1151 84.099 1187.04 480.494
892 0 81.3982 14.0789 1146 85.0558 1187.48 478.104
893 0 82.4674 14.0055 1155 85.9913 1187.86 473.642
894 0 87.4637 15.2635 1335 83.4772 1188.44 471.272
895 0 90.6032 14.0282 1271 85.9575 1189.26 467.752
896 0 93.3221 15.3447 1432 83.4686 1189.07 467.117
897 0 97.535 15.2561 1488 83.6405 1190.69 465.661
898 0 100.367 15.523 1558 83.8216 1191.43 463.788
899 1 55.055 13.5864 748 81.2861 1195.81 488.18
900 0 57.1775 12.33 705 81.9546 1197.54 487.001
901 0 60.1911 12.8424 773 80.8085 1199.56 487.944
902 0 63.1328 14.5566 919 79.6115 1199.78 488.116
903 0 65.0527 14.1885 923 79.7768 1200.97 490.688
904 0 67.0845 14.6383 982 79.556 1201.99 490.842
905 0 69.1502 13.5358 936 82.0096 1201.89 489.979
906 0 73.3204 13.9115 1020 81.9598 1200.84 490.397
907 0 76.2761 14.1591 1080 83.6009 1200.31 488.094
908 0 79.0781 14.2012 1123 85.927 1199 487.589
909 0 83.1655 14.7898 1230 85.7569 1196.41 484.965
910 0 87.2222 13.4484 1173 85.7673 1195.2 483.841
911 0 92.1188 14.6441 1349 83.7643 1193.33 483.961
912 1 47.0745 10.8127 509 86.0923 1191.08 501.792
913 0 51.1199 10.8959 557 84.3321 1189.62 504.004
914 0 52.0589 12.0248 626 85.4712 1188.08 501.345
915 0 57.0726 13.9121 794 82.0063 1187.33 497.572
916 0 58.0844 11.7587 683 85.2796 1186.78 496.244
917 0 61.0454 14.2025 867 80.8431 1187.26 495.469
918 0 62.1395 12.9869 807 84.3135 1186.42 491.953
919 0 64.1234 14.5345 932 81.8444 1186.54 490.098
920 0 64.1129 12.556 805 84.595 1187.29 489.217
921 0 68.072 13.4123 913 84.0077 1188 486.91
922 0 72.1375 14.8605 1072 81.625 1188.43 485.04
923 1 37.0397 9.61131 356 85.0281 1189.97 502.685
924 0 38.0182 9.67956 368 85.1956 1190.81 502.614
925 0 42.0304 10.992 462 81.3463 1192.37 502.617
926 0 42.0323 10.2064 429 81.7133 1194.43 501.795
927 0 43.0513 11.8463 510 81.1863 1196.79 501.6
928 0 45.0769 12.9334 583 79.7787 1198.78 502.31
929 0 47.3359 12.4852 591 83.8731 1199.29 503.75
930 0 47.2542 13.2687 627 85.2568 1199.27 501.34
931 0 48.1288 13.1522 633 87.7062 1199.93 502.253
932 0 53.128 15.2274 809 83.8591 1199.38 503.381
933 0 55.1716 13.5758 749 87.8798 1198.43 502.527
934 0 56.1153 14.4524 811 89.127 1197.28 501.321
935 0 59.1533 15.1133 894 89.085 1195.26 501.544
936 0 62.2565 13.091 815 94.584 1193.37 499.164
937 0 65.2342 13.9038 907 92.3881 1191.55 498.594
938 0 67.1911 15.7015 1055 93.7156 1190.14 495.973
939 0 70.1852 16.7129 1173 93.3666 1189.16 494.685
940 0 70.1718 15.6758 1100 98.4727 1187.29 491.705
941 0 72.1385 14.9851 1081 101.409 1186.21 488.686
942 1 34.0385 10.1943 347 104.784 1184.75 507.625
943 0 37.1149 9.69961 360 105.492 1184.12 507.167
944 0 35.0412 8.90381 312 109.744 1184.12 504.689
945 0 40.1541 12.8007 514 104.947 1183.89 501.516
946 0 40.0718 11.8787 476 106.8 1183.64 500.563
947 0 40.0506 11.3856 456 108.61 1184.16 499.443
948 0 44.0639 13.3216 587 104.576 1185.96 497.836
949 0 44.0867 14.789 652 105.477 1186.25 494.911
950 0 46.076 12.87 593 107.626 1187.98 496.406
951 0 45.126 12.6756 572 111.234 1188.74 495.056
952 0 48.0897 14.5353 699 106.29 1190.3 495.391
953 0 51.0305 15.6769 800 104.531 1192.3 493.472
954 0 49.0295 14.1344 693 111.128 1195.28 494.072
955 0 50.0598 14.7024 736 111.425 1196.8 494.23
956 0 51.084 14.9949 766 111.705 1199.31 495.713
957 0 53.0919 14.1453 751 114.639 1201.22 495.927
958 0 53.1193 14.8534 789 115.677 1201.63 496.919
959 0 56.036 15.1867 851 116.078 1201.71 496.985
960 0 58.0464 16.4696 956 113.899 1201.25 498.308
961 0 58.1126 15.1086 878 120.549 1200.87 496.909
962 0 61.2098 15.406 943 120.627 1199.82 498.473
963 0 61.3516 15.2889 938 122.94 1198.46 498.706
964 0 63.0817 15.8525 1000 122.711 1196.68 499.046
965 0 62.0725 14.8858 924 127.817 1195.03 497.674
966 0 63.1982 16.6144 1050 124.782 1193.84 496.695
967 0 64.145 16.4939 1058 126.52 1192.13 495.493
968 0 65.1195 16.0167 1043 127.81 1190.56 495.31
969 0 66.1239 16.4388 1087 129.729 1189.7 491.551
970 0 68.1013 17.2831 1177 126.687 1189.23 490.73
971 0 68.129 16.0137 1091 131.852 1188.76 490.484
972 0 67.1043 16.6159 1115 134.158 1188.81 488.294
973 0 70.1302 17.1538 1203 130.509 1188.62 487.082
974 0 69.2017 15.8956 1100 136.09 1188.46 485.644
975 0 70.1571 16.8479 1182 135.131 1189 484.115
976 0 70.0939 16.5492 1160 136.313 1189.62 484.757
977 0 73.166 16.6881 1221 135.19 1190.46 484.302
978 0 71.1031 15.8362 1126 139.683 1190.75 483.69
979 0 72.1226 15.2379 1099 141.74 1191.87 482.488
980 0 73.1769 17.5875 1287 134.893 1193.71 482.919
981 0 74.1259 17.5107 1298 136.518 1195.1 483.384
982 0 75.1339 16.3308 1227 139.988 1196.99 484.465
983 0 76.0955 18.6476 1419 133.464 1198.97 485.135
984 0 74.1446 16.6566 1235 141.382 1201.02 486.071
985 0 75.1559 17.3506 1304 139.589 1202.04 486.959
986 0 76.1256 17.2872 1316 140.109 1202.05 488.247
987 0 76.1172 17.1315 1304 141.225 1201.45 488.678
988 0 75.1678 17.6671 1328 140.581 1200.66 489.989
989 0 77.172 16.7289 1291 143.013 1199.91 489.748
990 0 77.0849 17.4613 1346 141.188 1198.63 492.249
991 0 77.311 16.6212 1285 142.39 1196.76 491.678
992 0 77.1275 16.946 1307 142.613 1194.66 491.119
993 0 78.1114 18.64 1456 136.135 1192.74 489.606
994 0 79.099 18.4073 1456 135.552 1191.45 488.062
995 0 78.1382 18.1217 1416 135.984 1190.47 489.311
996 0 77.1991 18.0313 1392 137.698 1190.36 487.153
997 0 80.1316 18.7067 1499 135.779 1188.75 484.416
998 0 80.1824 17.5101 1404 136.939 1187.63 484.922
999 0 79.173 18.188 1440 135.747 1187.24 482.286
1000 0 80.1139 18.0992 1450 135.683 1188.51 480.259
1001 0 81.1205 17.8253 1446 134.696 1189.18 479.927
1002 0 79.1722 17.7209 1403 135.371 1189.25 479.291
1003 0 80.0789 18.307 1466 133.177 1189.18 477.897
1004 0 81.0936 18.4601 1497 131.847 1190.12 477.48
1005 0 82.1553 18.7815 1543 129.63 1190.3 478.499
1006 0 83.1342 18.3077 1522 129.152 1191.47 478.554
1007 0 82.1134 18.1334 1489 129.469 1192.51 478.693
1008 0 82.065 18.4488 1514 127.952 1194.56 477.789
1009 0 83.092 18.305 1521 126.817 1196.3 480.065
1010 0 82.0906 18.711 1536 127.158 1198.53 478.681
1011 0 83.1233 19.9824 1661 122.294 1199.8 480.482
1012 0 85.1358 19.5805 1667 121.049 1201.34 481.34
1013 0 85.0654 18.2566 1553 123.478 1202.05 482.11
1014 0 86.094 19.107 1645 120.923 1201.27 484.032
1015 0 85.0871 17.7113 1507 125.275 1200.97 485.325
1016 0 87.1107 18.4248 1605 122.178 1199.69 487.946
