time division length width area intensity CMx CMy
0 0 48.0494 13.3196 640 117.916 1270.67 367.983
1 0 48.0974 13.8885 668 117.802 1270.31 368.566
2 0 51.1427 14.2542 729 115.702 1270.81 368.213
3 0 51.119 14.2804 730 135.073 1271.8 368.275
4 1 27.0044 9.51695 257 118.105 1271.25 382.459
5 0 26.0101 11.2264 292 120.199 1270.18 380.695
6 0 28.0277 11.8454 332 117.443 1270.6 380.696
7 0 30.0129 11.0286 331 116.822 1269.85 381.87
8 0 29.0067 11.4801 333 118.381 1270 381.462
9 0 29.008 11.8588 344 118.491 1269.94 381.003
10 0 31.0967 11.5125 358 114.869 1269.23 382.131
11 0 32.0353 12.5487 402 113.366 1268.17 384.159
12 0 32.0206 14.3345 459 111.362 1270.14 384.699
13 0 33.0688 14.2733 472 110.057 1269.84 385.515
14 0 33.0421 13.0137 430 114.635 1269.58 385.316
15 0 36.2118 13.6972 496 110.639 1269.11 386.202
16 0 37.1933 13.981 520 110.798 1269.73 385.302
17 0 38.3662 15.5085 595 108.173 1268.79 384.57
18 0 38.1644 14.5423 555 112.054 1268.69 386.014
19 0 37.2059 15.0245 559 112.943 1268.8 386.646
20 0 39.1841 15.2613 598 112.921 1268.34 386.167
21 0 43.1823 15.7703 681 109.837 1268.68 387.245
22 0 41.1434 15.1422 623 113.523 1269.44 387.435
23 0 43.1064 15.0094 647 112.804 1270.13 387.569
24 0 43.1222 15.143 653 114.877 1270 388.672
25 0 47.047 17.4931 823 108.211 1270.27 389.745
26 0 48.0103 16.0382 770 111.642 1272.33 390.292
27 0 50.1803 15.9824 802 110.394 1272.75 391.753
28 0 51.0942 15.4616 790 112.641 1272.24 390.781
29 0 53.1423 17.5943 935 106.721 1271.49 391.529
30 0 53.1423 17.7448 943 151.129 1270.5 391.509
31 0 55.1154 17.5631 968 107.101 1272.43 392.694
32 0 55.1141 16.4024 904 110.244 1272.98 393.031
33 0 58.0739 16.6512 967 107.247 1273.42 393.959
34 0 59.0353 18.3788 1085 104.575 1273.48 392.838
35 0 61.1014 15.8752 970 109.603 1274.4 395.195
36 0 62.0525 15.9542 990 110.743 1272.78 393.688
37 0 65.0849 16.9778 1105 107.692 1272.93 394.918
38 0 67.0795 17.3525 1164 106.192 1273.11 395.723
39 0 70.1013 18.0881 1268 103.459 1272.99 397.785
40 0 73.2001 17.0492 1248 105.452 1274.11 397.239
41 0 76.1455 18.4515 1405 102 1273.9 398.565
42 0 79.1248 17.6051 1393 102.841 1275.26 399.021
43 0 82.1994 17.5062 1439 102.067 1275.31 399.58
44 1 42.0652 15.0718 634 105.14 1275.15 419.226
45 0 45.0255 13.5701 611 104.887 1274.63 422.53
46 0 46.0901 14.233 656 105.527 1274.72 422.444
47 0 48.3723 14.0783 681 102.987 1275.22 426.347
48 0 50.169 15.3083 768 102.109 1275.2 428.095
49 0 51.2837 14.956 767 103.407 1273.26 428.674
50 0 53.0719 15.6203 829 100.054 1274.45 429.062
51 0 57.0953 15.2902 873 98.6919 1274.52 432.609
52 0 57.1982 14.6508 838 101.496 1274.22 432.642
53 0 59.3443 14.4243 856 100.783 1274.1 435.787
54 0 60.1168 14.5384 874 100.418 1273.57 438.019
55 0 64.158 16.1476 1036 98.5376 1274.03 437.519
56 0 64.1099 15.2706 979 100.273 1273.65 440.693
57 0 69.1621 16.0203 1108 98.2626 1274.67 440.345
58 0 72.2867 15.6875 1134 98.8474 1274.13 441.47
59 0 74.1414 16.7922 1245 97.0667 1274.76 443.063
60 0 78.1397 16.6497 1301 96.2898 1274.88 443.353
61 0 78.1397 16.6497 1301 156.862 1272.84 443.364
62 0 82.1004 15.5054 1273 98.5499 1275.67 444.357
63 0 84.0927 15.6613 1317 98.9317 1276.47 448.422
64 1 42.0888 12.6637 533 98.152 1275.12 471.113
65 0 48.0495 10.6349 511 95.7241 1275.6 475.54
66 0 47.0812 12.2767 578 95.4689 1276.23 474.002
67 0 48.3768 10.4596 506 96.6502 1279.3 478.862
68 0 50.5933 13.8358 700 92.9529 1278.12 477.041
69 0 49.1954 13.7615 677 93.7873 1278.37 475.322
70 0 54.1625 13.8288 749 94.2003 1276.97 474.597
71 0 54.1625 13.7734 746 139.155 1275.95 474.52
72 0 58.1254 13.5053 785 95.0204 1276.13 474.618
73 0 59.1752 13.2995 787 96.1792 1276.64 473.621
74 0 62.0904 15.5741 967 92.7622 1277.02 472.344
75 0 63.1962 13.8932 878 95.9248 1277.06 473.048
76 0 65.1483 14.5821 950 95.9589 1276.4 469.198
77 0 65.1483 14.5821 950 149.229 1274.36 469.068
78 0 69.2601 13.5865 941 98.3985 1276.59 466.719
79 0 74.2168 15.805 1173 95.0196 1276.77 466.766
80 0 76.1112 16.2 1233 94.8686 1275.95 468.526
81 0 80.1429 14.7112 1179 97.7676 1275.15 467.52
82 0 81.1078 15.0417 1220 98.9754 1274.59 466.898
83 1 45.0498 11.8757 535 99.2579 1274.98 481.688
84 0 48.1318 13.3799 644 95.1025 1276.18 480.427
85 0 47.0367 10.5662 497 97.2958 1276.29 480.672
86 0 48.2684 10.7731 520 99.7404 1277.11 482.033
87 0 50.2775 12.8686 647 98.8253 1277.6 479.314
88 0 50.3306 13.5305 681 97.2981 1277.86 478.21
89 0 51.121 12.9106 660 99.1379 1277.29 477.174
90 0 54.1933 14.5405 788 95.6193 1276.96 476.728
91 0 57.2764 13.7055 785 96.9197 1277.34 476.995
92 0 57.1504 13.1758 753 100.684 1277.82 473.661
93 0 60.132 14.0524 845 100.125 1277.47 472.497
94 0 61.3401 13.5148 829 101.084 1278.75 474.187
95 0 62.2322 13.1925 821 104.164 1278.15 470.62
96 0 66.241 15.2775 1012 100.597 1277.34 470.091
97 0 69.2671 14.0471 973 102.053 1277.34 470.515
98 0 71.2027 14.4096 1026 101.889 1278.14 469.009
99 0 71.3222 14.5397 1037 103.9 1277.47 467.584
100 0 76.1636 15.1385 1153 101.326 1276.73 467.963
101 0 79.2406 15.2952 1212 102.13 1278.05 466.399
102 0 78.2519 15.0923 1181 104.384 1276.39 463.104
103 0 81.3658 14.8588 1209 105.107 1276.93 463.861
104 0 84.0698 15.1184 1271 104.199 1276.75 461.445
105 0 85.1139 13.5231 1151 108.374 1277.03 462.558
106 1 47.0362 11.6719 549 105.406 1277.64 481.359
107 0 48.0932 11.2698 542 105.873 1277.01 480.299
108 0 50.1518 11.0465 554 105.505 1277.17 481.092
109 0 49.1091 11.0774 544 105.206 1276.94 482.322
110 0 52.0695 11.888 619 103.016 1276.86 481.895
111 0 53.1485 10.9316 581 107.442 1277.15 478.327
112 0 55.0444 13.6435 751 101.756 1277.88 479.913
113 0 55.0444 13.6072 749 145.665 1277.87 479.912
114 0 59.2183 14.3874 852 99.8756 1277.96 477.83
115 0 60.166 14.593 878 100.049 1277.7 477.384
116 0 62.1688 13.6242 847 102.778 1276.71 476.011
117 0 64.2646 14.098 906 102.67 1277.1 476.054
118 0 66.1944 16.24 1075 96.6726 1277.17 474.024
119 0 66.1543 12.6825 839 103.373 1276.34 473.878
120 0 66.1543 12.758 844 148.239 1275.34 473.841
121 0 66.1617 12.8775 852 147.447 1274.34 473.77
122 0 72.2423 13.7039 990 101.469 1276.15 468.4
123 0 74.154 12.8786 955 102.68 1275.46 466.524
124 1 39.0624 9.34403 365 98.7671 1276.23 486.918
125 0 39.0934 10.0528 393 101.888 1277.15 483.796
126 0 43.0703 9.84437 424 99.2972 1276.92 484.252
127 0 43.121 12.5229 540 95.2556 1275.8 482.759
128 0 46.0315 12.8825 593 94.7302 1274.5 481.83
129 0 46.0315 12.8608 592 127.497 1273.49 481.792
130 0 48.0671 12.2121 587 96.8433 1276.28 480.058
131 0 48.0684 12.7735 614 96.6173 1275.7 480.029
132 0 47.1003 11.2101 528 99.8314 1276.89 479.659
133 0 51.126 13.4765 689 95.4688 1276.74 477.406
134 0 54.1633 13.7362 744 91.6989 1278.24 476.214
135 0 54.1995 13.5241 733 92.2879 1278.37 478.005
136 0 54.2266 12.2634 665 95.8662 1278.41 476.041
137 0 57.1915 12.9215 739 94.023 1278.68 476.261
138 0 59.1757 12.6741 750 95.1987 1278.62 475.849
139 0 61.1591 13.3423 816 94.9191 1277.99 473.062
140 0 63.131 13.0205 822 95.8796 1277.5 472.954
141 0 63.131 12.9889 820 134.046 1276.5 472.99
142 0 70.1785 13.7649 966 93.852 1276.19 473.37
143 0 70.1785 13.7506 965 142.25 1276.19 473.316
144 0 72.1093 13.4657 971 96.4161 1274.79 469.243
145 0 76.163 14.3114 1090 94.8239 1275.5 468.442
146 0 75.16 13.9835 1051 148.323 1275.49 468.977
147 1 40.0454 10.4381 418 94.8206 1275.23 486.385
148 0 45.069 11.1829 504 94.0754 1274.42 482.982
149 0 43.0425 9.94367 428 95.0864 1274.59 481.367
150 0 46.0869 11.4566 528 92.0644 1274.8 483.152
151 0 47.1596 13.1256 619 90.9709 1274.64 480.483
152 0 49.3248 14.7188 726 91.2534 1275.63 483.832
153 0 49.2382 14.704 724 92.1064 1274.98 481.769
154 0 50.193 13.0098 653 96.7703 1276.21 480.193
155 0 52.371 13.3662 700 96.1114 1275.88 480.817
156 0 53.1961 12.4069 660 98.1894 1275.75 480.588
157 0 55.1884 14.3146 790 96.2557 1274.67 478.196
158 0 58.1827 16.5169 961 92.1634 1275.11 476.348
159 0 58.2592 14.7101 857 95.5403 1275.07 474.655
160 0 61.2367 14.2072 870 97.2954 1275.68 473.208
161 0 63.2378 13.9474 882 98.1916 1276.42 473.505
162 0 67.1298 16.699 1121 91.1026 1276.58 475.21
163 0 66.157 14.4505 956 100.31 1276.08 469.273
164 1 35.0934 12.0535 423 97.8463 1276.12 486.629
165 0 32.1378 8.89916 286 103.927 1276.53 487.472
166 0 37.1762 10.2754 382 100.217 1276.6 486.382
167 0 37.2135 11.6893 435 98.7264 1277.86 486.549
168 0 38.1485 11.4814 438 100.913 1276.79 486.135
169 0 41.2452 11.0073 454 101.383 1277.35 487.018
170 0 41.3872 12.7334 527 100.116 1276.47 485.137
171 0 43.3791 12.2409 531 99.9906 1277.2 485.817
172 0 43.4695 12.5375 545 101.615 1276.61 483.483
173 0 45.1296 13.3837 604 96.543 1275.72 483.576
174 0 47.3199 12.8064 606 96.4092 1276.08 485.213
175 0 48.3459 14.148 684 94.4825 1277.11 482.382
176 0 50.2547 14.4663 727 94.8184 1276.92 482.827
177 0 50.3698 12.0112 605 99.7587 1277.2 482.81
178 0 53.4388 13.5295 723 96.9419 1276.89 480.928
179 0 54.328 13.9155 756 97.2712 1276.49 479.71
180 0 55.2965 14.1781 784 97.6747 1275.85 480.485
181 0 57.3365 13.7086 786 98.5992 1275.4 479.701
182 0 58.2107 13.0732 761 100.024 1275.46 479.971
183 0 61.2928 14.031 860 99.0709 1275.28 477.358
184 0 62.3364 14.4378 900 98.2022 1274.8 476.379
185 0 64.279 13.9392 896 100.136 1274.77 475.104
186 0 65.1899 14.5728 950 99.6726 1274.27 473.626
187 0 69.2415 14.8321 1027 98.2425 1274.23 473.973
188 0 70.216 15.5947 1095 98.3607 1273.75 471.58
189 0 70.493 13.9872 986 102.804 1274.32 470.16
190 0 70.493 14.0581 991 151.871 1275.32 470.15
191 0 77.2016 15.3235 1183 100.222 1273.52 467.771
192 0 80.2228 16.2173 1301 99.0354 1274.31 466.515
193 0 81.1839 15.8036 1283 101.118 1273.95 463.089
194 0 85.2344 15.2521 1300 102.02 1273.56 463.398
195 0 86.4216 15.0194 1298 103.204 1273.81 461.983
196 0 90.2618 17.7373 1601 97.8488 1274.32 460.534
197 0 90.2618 17.7927 1606 150.818 1275.3 460.494
198 0 94.2335 15.8436 1493 100.816 1273.89 460.24
199 0 99.2933 18.4605 1833 96.4228 1274.9 457.232
200 0 102.167 17.2071 1758 99.0319 1274.09 455.907
201 0 103.164 15.7322 1623 103.27 1274.39 452.459
202 1 54.2947 10.5167 571 103.368 1273.88 477.177
203 0 55.2777 12.1387 671 101.604 1274.53 478.773
204 0 59.233 12.3073 729 101.985 1275.17 479.045
205 0 63.1688 14.1051 891 100.273 1275.32 476.292
206 0 63.2339 14.2645 902 101.023 1275.61 475.157
207 0 66.2695 14.8183 982 98.9124 1275.26 475.71
208 0 67.2343 13.0142 875 103.773 1275.46 474.027
209 0 71.331 16.2061 1156 96.7742 1275.09 473.734
210 0 72.4925 14.5118 1052 101.899 1275.2 471.12
211 0 74.3523 14.2834 1062 102.014 1274.81 472.28
212 0 78.2758 16.0331 1255 99.2287 1274.19 469.629
213 0 80.4085 14.4388 1161 102.905 1273.23 466.72
214 0 84.2244 14.3308 1207 101.783 1273.34 467.924
215 1 42.2101 9.9976 422 101.137 1273.01 486.367
216 0 42.1446 10.1081 426 102.23 1272.45 484.899
217 0 45.1156 11.5703 522 96.9023 1272.32 485.854
218 0 48.0513 13.4023 644 95.5839 1271.61 484.196
219 0 47.1045 12.6102 594 98.1397 1272.48 481.811
220 0 48.3295 12.2286 591 97.9239 1274.91 482.558
221 0 47.2393 12.1509 574 98.5923 1274.71 482.051
222 0 51.3121 12.7455 654 96.2645 1274.69 480.951
223 0 51.2184 13.0031 666 96.0676 1274.62 479.614
224 0 54.1366 13.3921 725 94.3007 1275.04 479.61
225 0 55.2024 13.206 729 94.7407 1274.97 476.997
226 0 57.2239 13.4385 769 94.4941 1274.69 476.499
227 0 57.1264 14.9493 854 93.2073 1275.99 473.879
228 0 59.1221 13.6835 809 95.6205 1274.53 471.931
229 0 61.0504 13.0056 794 95.8035 1274.54 472.54
230 0 62.0562 12.247 760 97.1566 1274.72 473.325
231 0 67.141 14.7302 989 92.2528 1274.87 472.034
232 0 69.0961 14.6028 1009 91.2121 1275.94 469.07
233 0 71.1757 14.1481 1007 93.2185 1276.23 470.419
234 0 74.1712 15.1002 1120 91.3518 1275.21 468.69
235 0 75.1027 13.1686 989 96.455 1275.33 466.958
236 0 76.2462 11.253 858 101.172 1275.13 467.106
237 0 81.2641 15.1112 1228 94.373 1275.04 462.612
238 0 85.2069 14.811 1262 95.1696 1274.98 463.894
239 1 46.1184 9.34552 431 97.993 1274.93 484.954
240 0 51.0991 11.6636 596 92.8305 1275.08 485.394
241 0 50.106 10.398 521 98.0115 1274.53 483.031
242 0 54.0676 11.985 648 92.8071 1274.3 483.764
243 0 54.0565 12.6904 686 93.707 1274.96 480.484
244 0 54.0565 12.6164 682 145.674 1274.94 480.468
245 0 59.0899 13.9618 825 89.2703 1275.74 480.302
246 0 59.2612 12.6052 747 93.6613 1274.64 478.992
247 0 62.1738 13.9609 868 90.8548 1274.88 477.857
248 0 63.0893 12.7755 806 93.2891 1274.3 476.726
249 0 65.1744 12.9345 843 93.2076 1272.93 475.597
250 0 69.0759 14.5203 1003 90.1924 1273.7 472.649
251 0 70.0798 14.9116 1045 90.0737 1273.01 472.558
252 0 74.0847 13.5655 1005 92.7662 1273.2 470.536
253 0 76.0511 13.7145 1043 93.1112 1272.88 468.849
254 1 41.0191 10.4829 430 93.5953 1271.78 486.13
255 0 41.02 10.824 444 93.1329 1273.09 484.777
256 0 41.02 10.824 444 135.851 1274.09 484.777
257 0 44.049 10.8743 479 91.7328 1272.94 483.658
258 0 45.035 10.0144 451 93.0665 1272.77 483.475
259 0 46.1315 12.5944 581 88.4974 1274.13 480.719
260 0 49.022 10.7299 526 89.4867 1275.11 479.605
261 0 52.1574 12.1363 633 87.7141 1274.51 479.19
262 0 52.1128 11.8205 616 89.1006 1276.02 477.716
263 0 52.1128 11.7054 610 128.452 1277.05 477.751
264 0 56.0757 13.1073 735 86.5605 1278.47 477.075
265 0 57.2206 12.3033 704 88.358 1277.14 475.553
266 0 58.1997 12.543 730 88.6164 1276.02 475.133
267 0 61.1004 13.3714 817 87.5288 1277.17 475.4
268 0 61.0396 12.1069 739 90.3627 1277.02 476.292
269 0 64.0661 13.4705 863 87.9954 1277.57 475.313
270 0 65.0888 12.9208 841 90.3639 1277.21 472.488
271 0 67.0757 13.4624 903 89.3455 1276.99 472.953
272 0 69.0988 13.213 913 89.851 1276.34 473.62
273 0 72.1354 13.6133 982 89.2821 1275.62 472.744
274 0 72.0822 12.5829 907 92.6626 1275.74 472.148
275 1 39.0577 9.01231 352 94.8011 1275.81 489.009
276 0 40.0112 7.8228 313 96.3259 1273.89 490.217
277 0 43.098 10.8126 466 91.9077 1274.9 487.144
278 0 42.0273 8.99416 378 89.7884 1276.31 487.675
279 0 44.0327 10.4468 460 88.4935 1275.56 484.372
280 0 46.0336 12.2954 566 89.5442 1274.38 485.102
281 0 45.123 11.5905 523 91.3117 1275.95 485.245
282 0 49.1171 12.5007 614 87.1759 1276.27 484.866
283 0 49.1957 11.1595 549 90.2459 1276.24 485.175
284 0 52.1651 11.5211 601 88.7454 1274.88 486.29
285 0 54.1438 13.0948 709 88.5444 1274.75 482.013
286 0 53.2416 12.4339 662 90.9668 1273.95 480.153
287 0 55.2157 13.6012 751 88.9148 1273.19 479.321
288 0 56.2001 12.758 717 92.4728 1273.19 478.187
289 0 58.078 11.8806 690 93.1029 1273.04 477.219
290 0 61.2241 13.4098 821 90.1669 1273.22 474.208
291 0 64.2224 14.2941 918 88.2484 1273.51 472.876
292 0 65.0774 14.7517 960 86.5198 1273.81 471.548
293 0 65.0496 14.7887 962 121.286 1274.8 471.488
294 0 70.1871 14.5468 1021 86.7238 1275.36 472.092
295 0 71.102 15.2879 1087 86.2309 1276.38 469.936
296 0 76.0531 16.9224 1287 83.2821 1276.95 471.564
297 0 76.2114 14.9059 1136 88.2632 1277.89 468.805
298 0 76.2114 14.9584 1140 134.549 1277.9 468.698
299 0 83.2914 14.5873 1215 89.2313 1276.05 466.088
300 0 82.2911 14.7525 1214 139.826 1275.06 466.138
301 1 48.1918 11.7655 567 87.2469 1276.98 484.556
302 0 49.2494 12.8732 634 85.5978 1278.07 482.528
303 0 50.1065 12.9325 648 87.9784 1277.63 480.972
304 0 52.1663 12.6518 660 88.9455 1277.63 483.245
305 0 52.3719 12.7549 668 90.5749 1277.31 483.705
306 0 52.3719 12.8313 672 143.561 1276.3 483.72
307 0 55.1995 13.3878 739 91.6482 1276.59 482.085
308 0 60.2398 14.4257 869 88.84 1275.84 482.268
309 0 59.4301 13.5621 806 92.5521 1276.23 480.699
310 0 62.2979 14.7678 920 91.2543 1275.78 478.429
311 0 62.0991 13.9938 869 94.0817 1274.61 476.665
312 0 67.3858 19.5442 1317 82.8071 1274.54 471.578
313 0 69.3016 18.8019 1303 84.7145 1274.11 473.1
314 0 68.158 14.4224 983 94.4385 1274.23 471.811
315 0 71.2562 15.5635 1109 92.9062 1272.7 471.334
316 0 73.3233 17.8524 1309 90.2735 1272.99 468.78
317 0 75.2733 14.7994 1114 97.2846 1272.67 468.117
318 0 77.2507 13.0484 1008 100.221 1273.31 467.823
319 0 81.1586 15.02 1219 96.749 1273.11 464.518
320 0 82.0898 14.3623 1179 98.3393 1272.74 461.569
321 1 44.0582 10.1684 448 95.9263 1272.57 476.239
322 0 46.0954 8.8729 409 96.687 1273.02 476.641
323 0 50.017 12.8756 644 92.0311 1273.94 477.592
324 0 51.0705 10.9065 557 94.991 1276.35 479.124
325 0 54.1176 12.5837 681 94.5007 1276.81 479.336
326 0 54.2593 13.6566 741 91.6775 1278.39 479.943
327 0 55.2746 13.7495 760 92.8816 1279.03 479.375
328 0 57.2526 13.3968 767 93.3181 1278.83 477.588
329 0 57.1611 14.3454 820 92.5561 1277.35 476.307
330 0 61.1132 14.9395 913 90.5915 1278.34 475.888
331 0 61.1152 14.1209 863 92.9363 1277.13 474.16
332 0 63.1176 14.671 926 92.2041 1278.1 477.22
333 0 65.1146 14.605 951 92.2229 1277.86 477.156
334 0 68.2829 15.509 1059 91.4429 1279.01 474.991
335 0 70.1171 13.8768 973 95.2991 1277.35 475.014
336 0 72.1047 15.1724 1094 93.6481 1277.52 473.035
337 0 76.1161 17.8674 1360 90.8824 1277.23 472.975
338 0 79.1292 15.1651 1200 95.4008 1276.61 472.301
339 0 79.1292 15.2535 1207 133.814 1276.59 472.231
340 0 82.0811 13.0237 1069 101.519 1275.97 468.938
341 0 85.0583 14.7076 1251 98.0743 1275.61 467.982
342 0 88.0679 15.261 1344 98.2158 1274.61 462.984
343 0 88.07 15.3174 1349 130.679 1272.63 462.981
344 1 47.0621 10.1143 476 99.7185 1272.98 486.011
345 0 49.2276 11.3351 558 98.1004 1273.08 486.254
346 0 50.0568 9.92873 497 100.61 1272.36 485.712
347 0 51.1002 11.3111 578 99.9723 1272.42 482.069
348 0 53.0308 13.8033 732 96.1284 1272.67 480.189
349 0 54.1129 12.1598 658 99.269 1272.95 479.249
350 0 57.1548 12.6674 724 98.3191 1273.23 477.529
351 0 59.0519 13.9708 825 95.7661 1273.41 475.846
352 0 59.0608 11.9538 706 99.4972 1272.79 474.163
353 0 63.0483 12.8473 810 97.258 1274.03 472.683
354 0 65.0658 13.617 886 95.9921 1274.61 471.008
355 0 67.0728 14.9837 1005 94.6428 1275.58 470.527
356 0 69.0834 14.012 968 96.5744 1276 470.928
357 0 69.2238 13.0158 901 99.1587 1276.72 469.856
358 0 73.0825 14.8052 1082 96.8004 1277.1 467.714
359 0 77.1429 16.9556 1308 93.5787 1277.53 466.333
360 1 41.0708 9.88537 406 95.6108 1278.11 489.581
361 0 43.0809 11.9078 513 95.846 1278.7 486.756
362 0 46.0699 12.7849 589 92.5874 1279.31 488.27
363 0 45.1658 10.7825 487 98.2361 1279.15 487.793
364 0 49.2899 13.3902 660 95.0864 1279.07 486.377
365 0 49.1599 13.7307 675 96.6622 1279.09 487.233
366 0 50.2165 13.4219 674 96.7033 1278.94 487.435
367 0 51.1757 14.9485 765 96.1203 1278.15 486.945
368 0 54.1309 14.0955 763 97.8336 1277.85 484.747
369 0 55.2085 13.0596 721 99.6227 1276.79 484.098
370 0 61.1226 15.0517 920 94.1337 1276.53 483.584
371 0 61.1419 14.3437 877 97.6978 1275.78 480.441
372 0 65.1192 15.1568 987 94.9777 1276.02 481.104
373 0 66.1061 14.6583 969 97.4097 1275.34 479.948
374 0 69.1174 13.6434 943 99.3733 1274.74 478.543
375 0 72.099 14.2304 1026 99.9006 1274.11 475.645
376 0 71.1026 12.714 904 104.001 1273.98 472.633
377 0 75.0342 14.2468 1069 101.738 1273.31 469.738
378 1 40.0465 12.011 481 99.0665 1272 490.114
379 0 39.0115 11.5094 449 101.365 1271.57 488.706
380 0 41.0783 12.6344 519 99.3372 1273.15 486.792
381 0 42.1037 12.8017 539 98.8683 1272.59 487.046
382 0 42.1037 12.873 542 139.327 1271.6 487.013
383 0 46.0763 14.0636 648 96.5725 1273.15 483.284
384 0 46.0763 14.0202 646 134.483 1274.15 483.28
385 0 48.4636 13.6185 660 97.4758 1274.18 483.726
386 0 49.2443 12.042 593 99.9376 1274.79 483.892
387 0 50.2782 13.5645 682 98.0264 1276.07 483.069
388 0 52.2497 13.914 727 97.5131 1277.39 481.118
389 0 54.2802 14.2962 776 97.9768 1277.93 481.648
390 0 56.2791 14.2149 800 98.3838 1279.3 481.8
391 0 59.1796 14.8869 881 95.7855 1279.57 482.306
392 0 59.3214 15.2896 907 97.2955 1279.58 480.083
393 0 61.282 15.1431 928 98.2942 1279.56 480.703
394 0 65.1861 15.1566 988 97.4109 1279.59 480.102
395 0 64.1486 13.9364 894 102.907 1279.71 478.29
396 0 68.2671 13.4179 916 103.49 1279.62 478.7
397 1 36.0779 11.6692 421 101.052 1279.85 495.373
398 0 35.1574 10.7232 377 105.637 1278.52 495.721
399 0 40.0914 12.7708 512 100.477 1278.61 494.473
400 0 42.1147 12.4422 524 101.914 1278.89 492.351
401 0 41.2421 12.3903 511 101.46 1276.34 490.994
402 0 42.0882 12.5688 529 103.314 1276.47 489.682
403 0 46.1074 14.5096 669 99.142 1275.72 488.28
404 0 44.2397 14.105 624 101.647 1274.67 488.186
405 0 47.2241 13.1289 620 102.737 1275.26 488.434
406 0 49.1699 14.033 690 101.252 1274.23 486.741
407 0 50.1296 14.4625 725 102.299 1273.43 484.058
408 0 51.0508 14.3778 734 102.267 1273.27 483.902
409 0 55.0885 14.8488 818 100.576 1273.09 482.175
410 0 55.0442 15.097 831 102.755 1272.63 481.04
411 0 55.0442 15.0243 827 150.903 1271.63 480.96
412 0 61.0515 15.0692 920 100.992 1273.73 478.722
413 0 62.0456 15.1018 937 102.876 1273.99 475.654
414 0 63.1296 14.8425 937 104.625 1273.61 472.672
415 0 64.0563 15.2678 978 104.924 1275.01 475.197
416 0 67.1792 14.96 1005 105.276 1275.32 474.121
417 0 71.0497 16.4392 1168 103.584 1276.89 472.002
418 0 73.1648 14.8022 1083 107.148 1277.68 472.01
419 1 39.0171 13.3531 521 103.012 1278.7 488.676
420 0 39.0171 13.2762 518 151.355 1279.72 488.643
421 0 42.1134 11.659 491 109.536 1279.15 489.004
422 0 42.0438 12.8913 542 109.736 1280.29 486.994
423 0 43.1507 12.5838 543 109.622 1280.9 487.09
424 0 44.0626 13.1858 581 109.441 1280.78 488.833
425 0 47.1197 13.9644 658 108.147 1281.09 487.599
426 0 48.1006 14.137 680 108.093 1280.81 488.131
427 0 48.1006 14.0331 675 157.883 1280.8 488.059
428 0 52.1405 13.4061 699 109.924 1279.22 486.928
429 0 53.1493 14.5063 771 109.003 1278.55 485.958
430 0 58.23 15.954 929 103.206 1278.04 486.925
431 0 59.1185 14.8346 877 107.54 1276.97 483.239
432 0 61.219 14.244 872 109.052 1276.8 482.564
433 0 64.1337 15.2026 975 107.022 1276.32 479.666
434 1 32.0539 10.8879 349 108.711 1276.63 495.404
435 0 35.0143 11.0526 387 104.946 1277.3 494.917
436 0 36.0457 11.5409 416 104.964 1277.11 493.276
437 0 37.0562 9.55305 354 107.124 1275.63 493.367
438 0 39.0305 12.1956 476 103.689 1276.02 491.33
439 0 39.0245 11.0187 430 106.8 1275.9 489.912
440 0 39.0417 13.9082 543 103.23 1275.82 486.545
441 0 41.1068 13.2825 546 103.064 1273.73 487.152
442 0 42.2408 14.0385 593 102.948 1274.27 484.789
443 0 45.2574 14.053 636 101.873 1273.36 484.866
444 0 45.1561 14.5495 657 102.227 1274.33 484.131
445 0 47.299 13.7846 652 102.847 1275.48 483.377
446 0 47.1823 13.6492 644 105.307 1276.59 480.863
447 0 49.2889 13.8977 685 104.023 1277.47 481.968
448 0 49.2889 13.9382 687 147.482 1278.52 481.889
449 0 53.3381 14.7362 786 101.201 1279.68 482.597
450 0 54.1377 14.9988 812 101.432 1280.88 482.078
451 0 56.1819 15.1294 850 101.772 1280.7 482.112
452 0 59.18 16.3062 965 98.8705 1281.42 480.71
453 0 58.1935 14.5377 846 104.222 1281.68 479.502
454 0 62.244 15.4071 959 101.68 1281.43 479.827
455 0 63.2218 14.6152 924 103.65 1280.36 480.398
456 0 68.1903 13.3303 909 105.138 1280.53 480.07
457 0 68.4065 13.6098 931 107.612 1280.31 477.941
458 0 72.1212 14.1845 1023 105.548 1279.96 480.48
459 0 74.1427 16.5627 1228 103.143 1279.81 475.147
460 1 41.1763 11.5115 474 107.108 1280.19 493.154
461 0 42.0985 11.5681 487 107.657 1280.22 491.696
462 0 45.0628 11.9167 537 108.156 1278.69 490.598
463 0 48.0996 12.3494 594 104.879 1277.07 490.21
464 0 48.0861 13.8086 664 105.724 1276.95 487.398
465 0 51.0875 13.9369 712 105.247 1275.03 485.945
466 0 51.129 14.5123 742 104.806 1274.8 485.278
467 0 52.0813 13.1141 683 108.584 1274.3 485.029
468 0 54.1829 13.9896 758 107.683 1274.35 482.315
469 0 55.1471 13.0379 719 109.896 1274.33 482.152
470 0 57.1568 13.4542 769 110.007 1274.09 478.743
471 0 61.1127 13.9251 851 107.615 1272.65 479.006
472 0 62.2731 14.6773 914 107.008 1273.12 475.349
473 0 63.1454 13.2235 835 110.996 1272.87 474.265
474 0 65.1411 14.9982 977 150.098 1271.88 476.264
475 0 70.2215 16.035 1126 104.892 1274.25 471.309
476 0 72.1309 14.2241 1026 106.998 1275.9 470.673
477 0 74.2455 14.6675 1089 105.967 1276.74 470.311
478 1 41.0415 11.6711 479 102.683 1279.47 487.998
479 0 40.0522 12.8582 515 102.041 1281.18 488.373
480 0 44.0149 12.4503 548 101.536 1280.99 488.885
481 0 44.0831 12.1589 536 104.567 1281.55 488.713
482 0 43.1431 12.7715 551 104.962 1281.98 488.917
483 0 49.206 13.5349 666 103.122 1281.26 488.857
484 0 49.2282 14.0367 691 106.918 1280.83 488.093
485 0 49.2282 14.057 692 148.892 1280.85 487.919
486 0 52.1619 13.9757 729 104.564 1279.75 488.328
487 0 53.1232 14.2122 755 105.085 1279.08 487.35
488 0 56.1282 15.8031 887 101.157 1278.63 486.777
489 0 59.165 15.0089 888 101.959 1278.91 485.092
490 0 62.0523 15.0357 933 102.239 1278.4 483.338
491 0 63.0707 14.4758 913 103.473 1277.36 483.804
492 0 67.1761 16.4344 1104 99.087 1276.38 481.257
493 0 69.1072 15.0057 1037 103.911 1274.69 478.405
494 0 72.0941 15.7988 1139 102.653 1275.63 476.072
495 0 73.2276 13.4785 987 107.026 1274.75 475.979
496 1 38.053 10.5905 403 109.831 1274.63 490.754
497 0 40.1476 11.8064 474 108.114 1274.7 488.523
498 0 41.2604 11.8758 490 105.806 1274.17 489.188
499 0 43.2754 12.1085 524 108.101 1274.08 485.269
500 0 45.3731 13.5763 616 105.99 1274.26 481.38
501 0 44.2077 12.9163 571 108.665 1274.55 481.485
502 0 49.2539 13.2781 654 106.006 1275.8 482.846
503 0 50.048 15.4651 774 103.598 1274.99 480.373
504 0 50.0989 13.9125 697 107.108 1277.13 480.752
505 0 55.102 16.0974 887 101.193 1277.7 482.043
506 0 56.1187 16.5364 928 102.485 1277.68 479.837
507 0 58.1858 16.8082 978 100.973 1279.48 480.616
508 0 61.1516 18.1025 1107 98.4101 1282.52 479.547
509 0 62.0548 16.292 1011 103.603 1283.06 478.345
510 0 66.2467 16.2423 1076 102.252 1282.68 479.655
511 0 65.113 15.0507 980 106.568 1283.22 478.824
512 0 69.3229 16.0553 1113 105.165 1283.71 478.679
513 0 71.1225 15.635 1112 107.069 1283.19 477.955
514 0 75.1931 17.2755 1299 103.53 1281.43 477.45
515 0 76.1621 15.1782 1156 110.599 1280.66 477.619
516 0 78.0767 14.9212 1165 115.204 1279.64 478.164
517 0 83.1315 16.7325 1391 106.664 1278.42 475.613
518 0 85.2082 17.1345 1460 105.812 1277.22 474.695
519 0 88.1438 15.2024 1340 109.084 1276.57 472.706
520 0 93.0893 18.3157 1705 101.693 1274.72 471.487
521 1 46.0746 11.2209 517 107.921 1274.45 496.356
522 0 46.059 11.6155 535 108.394 1272.91 494.011
523 0 51.0355 13.4612 687 105.329 1271.97 491.655
524 0 49.0489 13.2113 648 155.677 1268.99 492.307
525 0 55.138 14.3096 789 104.319 1270.05 488.175
526 0 58.1843 15.8462 922 102.578 1269.29 484.389
527 0 60.0613 16.5664 995 100.647 1268.99 485.05
528 0 62.1559 15.9277 990 103.142 1267.98 481.169
529 0 64.1125 16.4554 1055 101.639 1267.59 481.132
530 0 67.0938 15.1877 1019 105.291 1268.82 478.273
531 0 69.196 17.0819 1182 101.542 1269.59 476.21
532 0 71.3647 16.5208 1179 103.878 1268.99 475.589
533 0 73.232 16.3726 1199 105.067 1269.27 473.699
534 0 77.2057 16.3719 1264 104.944 1270.47 474.921
535 0 81.1864 16.9363 1375 104.128 1271.71 472.148
536 0 84.2728 17.5027 1475 102.652 1274.15 471.207
537 0 89.0883 18.027 1606 101.415 1276.01 469.278
538 1 44.096 13.8561 611 107.571 1277.39 492.728
539 0 42.1763 11.8313 499 110.371 1278.22 495.291
540 0 46.0541 13.5493 624 108.282 1278.23 494.178
541 0 48.0393 14.4673 695 107.085 1277.91 495.542
542 0 52.151 15.1291 789 106.101 1277.37 495.929
543 0 54.1079 14.8222 802 106.736 1275.35 495.575
544 0 57.0479 16.7053 953 103.593 1275.27 493.28
545 0 59.1067 14.9391 883 107.134 1272.78 494.017
546 0 61.0414 16.1202 984 105.503 1271.27 491.53
547 0 63.1331 16.1088 1017 105.088 1270.29 490.23
548 0 65.0769 15.5201 1010 107.917 1269.29 488.524
549 0 68.1136 15.5622 1060 109.563 1268.03 485.546
550 0 72.1164 15.8771 1145 108.302 1266.69 483.53
551 1 37.0767 12.8922 478 111.481 1266.65 500.119
552 0 38.065 12.9515 493 113.01 1265.98 497.801
553 0 40.081 13.5725 544 112.66 1265.5 495.303
554 0 42.0576 15.9305 670 106.601 1265.2 494.548
555 0 42.0576 15.9305 670 159.19 1264.22 494.588
556 0 43.0539 14.2612 614 112.233 1264.35 490.357
557 0 44.0296 14.8537 654 112.687 1264.46 489.116
558 0 47.0609 14.7894 696 112.172 1265.28 486.825
559 0 49.085 15.5037 761 110.829 1266 485.988
560 0 49.136 14.8974 732 113.24 1267.17 484.776
561 0 52.0734 16.8224 876 109.307 1267.9 482.664
562 0 52.1005 16.2762 848 112.038 1269.83 482.295
563 0 57.1993 15.2974 875 111.063 1271.85 482.022
564 0 59.2862 16.1926 960 108.618 1273.42 481.49
565 1 31.0285 13.7938 428 109.998 1276.46 494.575
566 0 32.0273 14.8311 475 108.682 1278.93 495.347
567 0 34.1303 13.6243 465 110.301 1280.25 496.176
568 0 34.0154 12.7589 434 110.332 1281.47 497.541
569 0 36.0438 15.6476 564 107.337 1280.53 497.163
570 0 40.0628 16.9235 678 103.83 1280.05 497.889
571 0 39.0412 15.3172 598 111.246 1279.26 497.768
572 0 41.0494 16.1269 662 109.704 1277.16 497.207
573 0 42.1373 16.375 690 110.204 1275.98 497.112
574 0 46.1766 16.7617 774 108.067 1276.13 497.399
575 0 45.2194 17.3819 786 109.127 1274.28 498.518
576 0 48.2264 17.7082 854 110.588 1272.89 495.943
577 0 49.226 17.4908 861 111.69 1271.34 494.228
578 0 52.3407 16.9276 886 112.176 1270.06 492.718
579 0 54.2583 18.3382 995 108.773 1269.16 492.064
580 0 56.2732 17.8238 1003 110.941 1268.04 490.804
581 0 59.2983 17.6902 1049 110.903 1267.86 487.827
582 0 61.1962 17.4847 1070 111.688 1267.17 485.8
583 0 63.4478 18.4246 1169 108.35 1266.44 483.547
584 0 66.2213 17.3509 1149 111.927 1266.27 482.665
585 0 67.2524 16.9659 1141 113.756 1266.18 480.269
586 0 69.3726 16.4618 1142 115.481 1266.71 479.144
587 0 71.3084 16.2954 1162 115.647 1267.02 477.21
588 0 75.2608 17.4327 1312 113.767 1267.32 473.883
589 1 35.3529 14.1431 500 121.962 1269.07 493.354
590 0 40.3568 17.0231 687 113.464 1270.36 492.364
591 0 43.5833 16.5889 723 114.445 1270.73 490.773
592 0 42.2572 18.5294 783 112.976 1270.59 490.206
593 0 42.1801 18.3025 772 116.773 1273.27 489.763
594 0 46.516 18.7247 871 114.503 1275.57 490.038
595 0 46.3606 18.0757 838 116.319 1278 491.295
596 0 49.3169 18.4724 911 114.835 1279.69 490.555
597 0 51.4802 18.2595 940 117.262 1279.21 491.086
598 0 55.261 18.8741 1043 116.279 1279.58 491.584
599 0 57.7246 18.6576 1077 116.726 1279.25 490.972
600 0 61.425 18.2499 1121 117.742 1278.63 490.863
601 0 63.6652 18.8957 1203 119.544 1276.44 492.656
602 0 62.6637 18.6073 1166 172.613 1275.33 492.123
603 0 70.516 17.8399 1258 124.245 1274.41 492.013
604 1 34.5389 16.7637 579 126.853 1274.63 508.914
605 0 36.3727 16.9633 617 125.608 1272.35 510.4
606 0 37.4442 17.0921 640 128.797 1270.35 509.755
607 0 37.4442 17.0654 639 181.778 1269.32 509.7
608 0 40.2951 18.5134 746 128.296 1267.38 509.516
609 0 40.5034 17.159 695 134.622 1266.81 508.43
610 0 42.5487 19.1075 813 131.015 1266.68 507.533
611 0 45.5314 18.6465 849 131.211 1266 507.008
612 0 47.2941 18.9453 896 132.324 1265.08 504.876
613 0 48.3029 20.5164 991 131.914 1263.5 503.267
614 0 50.222 17.9403 901 138.407 1263.49 501.63
615 0 53.5236 18.1602 972 135.931 1262.82 499.369
616 0 53.3639 18.5893 992 136.815 1262.79 496.839
617 0 56.605 19.3446 1095 133.496 1263.62 496.754
618 0 58.4507 19.093 1116 135.523 1263.02 493.92
619 0 59.6855 19.9546 1191 135.712 1263.34 491.635
620 0 62.4985 19.0565 1191 135.288 1263.97 490.809
621 0 67.7632 20.2913 1375 130.894 1265.43 491
622 0 67.2887 19.3643 1303 135.208 1266.23 489.382
623 0 71.3908 20.6889 1477 132.128 1267.3 486.631
624 0 73.2104 19.724 1444 134.258 1269.12 487.263
625 0 78.1767 21.3363 1668 128.336 1269.97 485.67
626 0 80.1864 19.5295 1566 134.042 1270.18 485.85
627 0 85.1693 19.6785 1676 132.214 1270.41 483.292
628 1 46.156 16.4009 757 136.215 1270.04 502.896
629 0 46.1001 18.0477 832 133.924 1270.34 504.344
630 0 51.1211 18.9941 971 131.06 1268.53 504.277
631 0 51.0985 18.5133 946 134.347 1268.43 505.549
632 0 55.1515 18.422 1016 132.679 1268.12 505.439
633 0 56.1386 16.9046 949 136.964 1266.5 506.019
634 0 58.2682 18.1059 1055 134.697 1266.24 505.452
635 0 60.1287 17.8617 1074 137.926 1265.27 503.038
636 0 63.1717 17.6345 1114 136.4 1264.19 502.629
637 0 68.3108 18.4305 1259 133.818 1262.71 501.029
638 0 70.2711 18.6136 1308 136.329 1260.84 497.2
639 0 71.3033 18.3582 1309 137.859 1258.93 494.069
640 1 37.1737 14.3112 532 138.658 1259.16 510.977
641 0 38.203 14.1874 542 138.096 1258.37 510.061
642 0 42.1287 17.3753 732 131.749 1258.2 505.954
643 0 42.1706 15.8879 670 134.91 1257.83 505.733
644 0 46.2447 18.0345 834 130.373 1258.94 503.349
645 0 47.0399 17.517 824 133.136 1259.51 501.943
646 0 48.7015 18.2541 889 132.587 1260.37 501.72
647 0 50.223 16.8449 846 136.196 1260.76 500.987
648 0 50.223 16.8648 847 170.181 1261.74 501.011
649 0 55.363 16.6718 923 137.317 1263.51 498.927
650 0 57.366 17.9026 1027 135.71 1264.69 497.255
651 0 57.3329 16.6397 954 139.729 1266.84 497.954
652 0 61.1291 17.7166 1083 137.079 1268.1 497.204
653 0 62.1562 17.1664 1067 176.98 1270.06 497.02
654 1 30.3198 14.1822 430 139.088 1270.93 513.319
655 0 32.3547 13.352 432 140.275 1271.93 512.852
656 0 33.2321 15.7077 522 137.921 1271.87 512.701
657 0 33.1883 15.1258 502 139.98 1271.06 513.478
658 0 34.2306 15.6877 537 140.315 1270.47 514.181
659 0 38.2975 16.1368 618 137.832 1271.07 513.063
660 0 39.2788 16.0901 632 139.122 1270.89 511.296
661 0 41.3734 15.9039 658 139.682 1268.86 511.761
662 0 43.5044 16.4121 714 139.038 1268.83 510.56
663 0 44.2521 16.6546 737 139.094 1266.86 508.59
664 0 48.2515 15.7301 759 137.542 1266.05 507.406
665 0 48.342 15.3697 743 139.386 1264.66 505.131
666 0 50.5284 16.5254 835 134.532 1263.62 502.354
667 0 50.5671 15.959 807 138.201 1262.11 501.285
668 0 55.4963 16.6498 924 135.058 1262.34 497.301
669 0 58.4955 16.6167 972 133.395 1262.15 496.83
670 1 29.6566 13.218 392 132.615 1262.26 507.571
671 0 29.2429 14.1915 415 133.937 1262.27 506.371
672 0 29.4135 13.2252 389 134.285 1263.12 506.018
673 0 31.2962 15.4651 484 131.056 1263.2 504.019
674 0 29.5636 14.6464 433 134.843 1264.15 503.182
675 0 33.1579 14.2952 474 134.228 1265.64 500.534
676 0 34.2235 14.2884 489 135.399 1266.43 500.652
677 0 38.1951 15.1328 578 129.638 1268.18 499.161
678 0 39.3438 15.1994 598 129.028 1269 497.316
679 0 41.1083 15.9822 657 127.647 1271.03 496.412
680 0 41.1083 16.0308 659 154.445 1273.01 496.436
681 0 42.2659 14.4325 610 131.579 1275.51 497.685
682 0 44.2052 15.3149 677 132.705 1277.01 495.637
683 0 47.4593 14.7284 699 128.887 1277.2 497.908
684 0 47.1405 15.8675 748 131.54 1276.87 496.209
685 0 51.3567 15.6163 802 131.408 1278.68 495.35
686 0 54.3932 16.013 871 130.162 1277.25 497.044
687 0 54.4797 15.0515 820 135.684 1277.54 495.951
688 0 56.2235 16.4522 925 133.783 1276.6 495.015
689 1 34.4006 12.587 433 131.732 1275.24 506.73
690 0 35.2928 12.7222 449 131.325 1274.97 505.459
691 0 36.1343 13.6712 494 132.119 1272.7 504.381
692 0 38.0984 13.5964 518 130.556 1272.71 503.653
693 0 38.104 13.3057 507 133.154 1270.8 502.513
694 0 41.1122 14.3996 592 131.144 1269.03 499.297
695 0 41.219 14.0712 580 133.057 1266.84 498.336
696 0 43.1509 15.0634 650 130.532 1265.78 496.003
697 0 45.1399 15.5073 700 128.36 1265.28 493.913
698 0 45.1399 15.6402 706 155.833 1265.28 493.873
699 0 49.1673 14.4812 712 130.212 1266.31 490.879
700 0 49.1141 13.9675 686 134.144 1266.29 489.743
701 0 51.1421 14.7237 753 131.871 1266.73 487.629
702 0 51.1769 16.101 824 130.382 1267.55 486.233
703 0 56.1945 15.5709 875 128.693 1268.13 483.069
704 0 57.1501 14.8731 850 132.04 1269.5 483.494
705 0 60.1995 15.1829 914 131.012 1271.35 482.542
706 0 63.359 14.8677 942 130.153 1271.99 481.24
707 0 65.386 15.7526 1030 130.6 1273.94 479.369
708 1 37.2491 12.2419 456 133.351 1275.51 492.853
709 0 39.1599 13.33 522 128.094 1278.58 493.766
710 0 39.0763 13.0258 509 131.89 1279.26 494.796
711 0 43.0895 13.5996 586 128.157 1280.91 495.314
712 0 42.3526 14.3085 606 129.351 1283.45 495.186
713 0 42.2699 12.7041 537 135.981 1283.72 496.151
714 0 47.231 14.4185 681 129.423 1282.72 493.404
715 0 48.1827 15.9808 770 126.883 1282.12 493.627
716 0 50.1988 13.9246 699 131.399 1281.27 495.794
717 0 52.2483 14.8904 778 129.78 1279.66 494.54
718 0 55.1715 14.5909 805 130.291 1278.83 495.497
719 0 55.6344 14.3257 797 132.327 1278.6 494.578
720 0 57.5113 14.8493 854 132.383 1276.07 491.402
721 0 62.3571 14.9462 932 127.884 1275.73 489.482
722 0 65.4259 14.5967 955 128.578 1273.48 485.595
723 1 33.1126 10.9324 362 127.345 1272.52 501.704
724 0 37.1616 11.4635 426 124.81 1271.32 500.317
725 0 36.0601 10.6212 383 125.073 1270.65 500.896
726 0 38.1386 12.1662 464 122.881 1270.16 497.3
727 0 41.0414 12.0366 494 122.083 1269.57 495.332
728 0 41.2918 13.4167 554 118.726 1270.04 493.827
729 0 43.2877 13.907 602 119.787 1269.47 490.138
730 0 44.0895 12.7922 564 120.472 1268.17 488.379
731 0 47.2136 13.7672 650 115.935 1268.22 487.335
732 0 49.0939 13.6066 668 116.235 1268.82 487.481
733 0 51.1791 12.3097 630 117.275 1269.12 487.856
734 0 54.3974 13.8793 755 114.041 1270.54 485.707
735 0 56.3403 13.8799 782 113.152 1272.66 485.541
736 0 58.6339 14.6673 860 110.894 1274.89 484.88
737 0 60.4417 13.6991 828 112.306 1276.82 485.709
738 0 62.3276 14.1029 879 112.448 1278.18 487.312
739 1 29.2102 9.99651 292 113.065 1279.88 502.497
740 0 34.264 10.9152 374 111.452 1280.9 502.332
741 0 36.4006 13.791 502 105.596 1280.83 502.665
742 0 38.3322 12.1569 466 108.556 1280.23 502.706
743 0 41.703 13.6681 570 105.793 1279.05 498.416
744 0 43.454 13.4395 584 106.51 1277.52 503.368
745 0 45.5983 13.3119 607 107.667 1276.59 504.756
746 0 45.6831 13.4842 616 110.623 1274.33 502.709
747 0 50.8295 15.6405 795 103.223 1272.79 501.746
748 0 50.4761 14.2246 718 108.102 1269.89 499.072
749 0 53.5822 13.2507 710 108.486 1268.8 495.627
750 0 56.7384 15.1573 860 104.824 1266.82 493.048
751 0 57.6652 16.8559 972 100.788 1266.52 490.664
752 0 60.7383 14.8177 900 105.311 1263.79 486.778
753 0 60.807 14.916 907 104.789 1262.7 485.533
754 0 66.6712 16.6489 1110 100.005 1263.16 482.084
755 0 68.1489 16.0237 1092 101.083 1262.82 479.678
756 0 70.2486 14.9754 1052 103.162 1262.91 478.789
757 0 70.2486 14.9042 1047 151.612 1263.91 478.76
758 0 73.6458 15.7103 1157 101.048 1263.57 474.965
759 0 77.6612 16.1213 1252 100.193 1264.58 471.843
760 0 80.6959 14.6724 1184 103.679 1265.3 469.541
761 1 41.7202 11.4813 479 104.649 1266.63 487.733
762 0 43.7985 11.0734 485 103.641 1266.66 489.856
763 0 46.8105 12.4972 585 101.239 1268.52 487.419
764 0 47.4461 13.4257 637 100.878 1270.59 488.907
765 0 49.3007 13.4075 661 100.796 1272.4 489.033
766 0 49.2938 13.4297 662 140.89 1273.4 489.088
767 0 55.3856 14.9497 828 97.6437 1275.64 487.479
768 0 56.3711 13.624 768 101.096 1277.04 487.203
769 0 58.4409 13.9799 817 102.339 1276.47 485.815
770 0 63.6564 14.9396 951 97.8791 1277.34 487.502
771 0 66.7668 16.1457 1078 96.3794 1276.46 480.571
772 0 68.987 15.8436 1093 97.1208 1275.17 483.402
773 0 72.8848 16.5055 1203 95.9875 1274.31 483.638
774 0 74.5788 14.9372 1114 95.4982 1272.6 482.943
775 0 79.7907 15.2399 1216 87.764 1272.17 480.595
776 0 82.5449 17.5299 1447 83.9737 1270.59 477.446
777 0 89.7319 18.3547 1647 79.932 1269.66 472
778 0 89.8446 14.4249 1296 86.9776 1268.12 475.421
779 1 49.6631 12.766 634 85.6498 1266.6 491.626
780 0 50.4877 10.7749 544 86.5827 1265.63 494.607
781 0 52.3326 11.9046 623 85.2986 1265.79 491.657
782 0 55.1646 12.5805 694 84.0461 1265.62 490.643
783 0 55.26 12.7217 703 83.9516 1265.84 488.504
784 0 59.1716 13.0299 771 82.0013 1266.18 488.942
785 0 59.2385 13.0827 775 83.2129 1265.39 485.761
786 0 62.325 11.5684 721 86.423 1266.86 481.886
787 0 65.2108 13.0807 853 82.8453 1266.85 481.552
788 0 67.2914 13.761 926 82.4395 1267.69 480.025
789 0 66.1954 12.6897 840 85.0369 1268.89 479.746
790 0 71.2814 13.2293 943 83.193 1269.29 479.01
791 0 74.3961 14.5841 1085 81.2535 1271.05 478.213
792 0 77.3514 14.8931 1152 81.2509 1272.96 478.76
793 0 77.3188 13.5025 1044 83.7011 1274.45 477.647
794 0 83.3726 14.3812 1199 82.3761 1275.61 475.91
795 0 83.3726 14.3572 1197 146.818 1276.62 475.981
796 1 53.0793 11.7748 625 80.224 1277.5 497.422
797 0 52.2132 14.1727 740 77.8081 1277.2 496.328
798 0 53.1572 12.9804 690 77.4841 1274.4 498.568
799 0 57.2532 12.8028 733 78.5334 1273.27 497.754
800 0 58.1917 12.0636 702 81.6311 1271.45 495.225
801 0 63.3209 12.5235 793 80.9433 1269.49 496.062
802 0 63.1274 12.6094 796 81.0126 1267.51 493.822
803 0 67.219 12.9428 870 81.8356 1265.67 491.952
804 0 70.3244 14.4758 1018 80.2898 1265.48 487.532
805 1 37.088 10.6234 394 80.5 1261.8 505.642
806 0 38.1068 9.63082 367 83.267 1261.78 503.872
807 0 40.059 10.3597 415 82.7904 1261.07 502.472
808 0 43.0939 10.2103 440 84.7 1260.94 500.998
809 0 40.1218 9.44624 379 88.0686 1261.37 497.269
810 0 43.0644 11.0068 474 84.8755 1260.88 495.409
811 0 46.0275 12.536 577 82.2513 1261.54 492.539
812 0 47.1007 11.6346 548 84.292 1261.84 492.602
813 0 48.1946 12.4703 601 84.7837 1262.49 489.719
814 0 48.3681 9.71716 470 87.334 1264.63 490.466
815 0 51.3218 12.86 660 82.1727 1265.13 486.577
816 0 52.2122 11.2426 587 85.5792 1266.74 486.382
817 0 55.2908 12.2444 677 85.644 1268.99 486.774
818 0 58.3357 12.7195 742 84.1536 1270.75 486.318
819 0 58.2118 11.7158 682 86.846 1273.21 485.207
820 0 60.2638 12.1632 733 86.8499 1274.04 484.18
821 0 61.2116 11.207 686 88.9956 1275.07 482.092
822 0 65.1472 12.3566 805 86.8286 1276.6 482.483
823 0 68.1376 12.6362 861 87.3066 1276.27 481.966
824 0 71.1741 12.4483 886 87.7449 1276.58 480.964
825 0 74.4684 11.9111 887 88.407 1276.92 482.799
826 0 80.1992 14.4889 1162 85.0387 1275.45 480.17
827 0 83.2159 13.8555 1153 86.5212 1274.33 477.052
828 0 88.2652 14.2865 1261 84.7875 1273.02 476.898
829 0 93.2604 14.6364 1365 84.6659 1271.96 474.97
830 0 96.2131 15.1019 1453 85.0688 1270.17 474.978
831 1 51.0424 10.2856 525 86.9562 1270.34 494.872
832 0 53.0551 11.0074 584 86.0771 1269.35 493.671
833 0 55.0626 10.8604 598 85.3027 1265.2 492.216
834 0 57.1566 10.9873 628 86.5207 1265.09 487.987
835 0 60.0567 14.0867 846 82.2494 1264.61 485.921
836 0 62.1302 12.8279 797 83.5583 1265.31 484.715
837 0 64.0787 14.0608 901 81.4706 1264.16 483.559
838 0 66.1671 13.5717 898 80.902 1264.19 482.552
839 0 67.1985 12.917 868 83.6717 1264.94 480.052
840 0 68.1899 13.5504 924 84.0985 1265.17 477.552
841 0 72.2758 13.739 993 84.1994 1266.3 479.028
842 0 76.2058 14.1328 1077 84.481 1267.29 477.472
843 0 76.3195 11.7532 897 88.8952 1268.71 476.863
844 0 78.1588 13.0504 1020 89.0196 1270.3 475.088
845 0 83.2654 13.4029 1116 88.2186 1272.63 474.875
846 0 87.1146 13.9127 1212 87.7434 1273.76 473.687
847 1 45.2072 12.0114 543 85.4346 1275.14 495.401
848 0 46.0388 8.558 394 90.4594 1277.26 496.599
849 0 49.1745 11.7337 577 87.1127 1278.62 495.718
850 0 50.1729 11.3009 567 87.9453 1277.17 495.91
851 0 55.0547 13.8771 764 83.7448 1276.84 495.666
852 0 56.0985 13.4585 755 83.4305 1275.09 495.776
853 0 60.0557 14.8362 891 80.7306 1274.14 497.351
854 0 62.033 14.7663 916 82.5076 1272.43 495.228
855 0 63.202 13.3382 843 86.3701 1270.63 494.357
856 0 69.1688 15.1369 1047 80.2856 1268.63 493.182
857 0 73.1814 14.6349 1071 82.0616 1267.33 490.328
858 0 74.2082 14.4997 1076 84.4898 1265.15 487.265
859 0 76.1871 13.6244 1038 86.8786 1262.32 485.83
860 1 39.0354 10.5289 411 87.0706 1261.46 504.674
861 0 43.1586 10.612 458 87.6878 1261.31 501.603
862 0 43.0286 11.9688 515 86.1922 1260.49 499.274
863 0 45.1089 11.8602 535 87.3664 1260.18 498.613
864 0 45.1924 12.8561 581 87.2065 1260.39 496.04
865 0 47.2409 12.9125 610 88.5098 1260.67 494.615
866 0 49.1176 13.0707 642 90.31 1261.47 492.287
867 0 50.273 15.3164 770 84.9429 1261.77 491.774
868 0 50.273 15.3761 773 131.677 1260.77 491.788
869 0 53.2068 12.8367 683 88.4729 1263.77 489.644
870 0 55.299 13.6892 757 86.6724 1265.3 488.686
871 0 57.2185 14.4184 825 86.6994 1266.26 488.585
872 0 58.1631 14.6657 853 87.8077 1267.4 486.961
873 0 62.1967 15.3867 957 87.9498 1269.64 486.207
874 0 64.1753 13.5099 867 93.346 1271.28 486.585
875 0 68.2351 13.6 928 93.0356 1271.47 485.678
876 0 69.1287 14.2199 983 96.4161 1273.18 484.781
877 0 72.23 14.1492 1022 97.3581 1272.99 484.762
878 0 76.1726 14.8479 1131 96.6419 1273.09 485.833
879 0 79.2792 15.6031 1237 96.1584 1271.7 481.791
880 1 42.0708 10.6487 448 98.3549 1271.24 504.062
881 0 45.1515 12.2698 554 98.0939 1270.71 501.556
882 0 47.3099 12.0482 570 97.593 1270.18 501.509
883 0 49.2584 14.089 694 95.2406 1267.9 498.84
884 0 53.2239 13.8472 737 94.1398 1266.08 498.468
885 0 54.2209 15.0864 818 91.7408 1264.72 495.441
886 0 54.1774 12.6436 685 96.6686 1263.62 493.596
887 0 58.3932 14.6764 857 90.4026 1262.88 491.496
888 0 59.2412 15.1415 897 90.7458 1262.71 489.294
889 0 60.134 13.5531 815 94.7362 1261.18 487.017
890 0 63.1049 15.1018 953 92.5866 1261.96 484.756
891 0 63.207 14.1282 893 96.3718 1261.75 482.646
892 0 67.1088 14.3349 962 94.8981 1262.92 480.922
893 0 68.3282 14.9572 1022 94.8581 1262.9 477.419
894 0 71.3747 15.0894 1077 93.8969 1262.71 476.632
895 0 73.2009 14.8359 1086 95.163 1263.51 474.733
896 0 78.2274 16.8739 1320 91.197 1264.45 472.809
897 1 42.1869 11.1883 472 96.4979 1266.13 491.737
898 0 42.2272 10.8224 457 98.6105 1268.45 491.516
899 0 43.3374 12.2065 529 97.4064 1269.98 490.491
900 0 45.3227 12.4662 565 97.8071 1270.82 490.724
901 0 48.2077 13.5041 651 94.9846 1273.72 491.278
902 0 49.2091 13.6967 674 96.0119 1275.39 490.469
903 0 51.1372 13.7082 701 96.8802 1276.75 492.237
904 0 54.1736 15.3211 830 93.3108 1278.13 493.128
905 0 57.1626 13.8552 792 96.0568 1278.31 493.247
906 0 59.1808 14.8697 880 94.3648 1276.97 491.57
907 0 63.1923 15.0177 949 95.0432 1275.35 490.217
908 0 66.3471 15.1778 1007 98.2244 1273.9 490.88
909 0 71.2139 14.8567 1058 99.173 1271.88 490.611
910 0 73.3304 15.3824 1128 96.258 1269.61 489.176
911 0 76.5346 14.5947 1117 98.7216 1267.87 486.898
912 0 80.2792 16.891 1356 95.8142 1266.12 484.177
913 0 83.3094 16.1206 1343 98.7305 1264.97 484.436
914 0 86.3114 14.3666 1240 104.036 1264.02 478.743
915 1 48.162 10.2778 495 101.23 1262.88 498.362
916 0 48.1104 11.245 541 101.773 1261.91 496.348
917 0 50.1029 11.2568 564 100.213 1261.33 495.84
918 0 52.3028 12.0261 629 99.9412 1261.79 492.722
919 0 53.2482 12.5638 669 99.4006 1262.84 490.194
920 0 54.2537 13.0867 710 101.506 1263.15 488.424
921 0 58.2834 13.726 800 98.9538 1262.91 488.924
922 0 58.2474 12.4469 725 102.251 1262.89 487.476
923 0 59.2556 12.1676 721 102.275 1262.89 487.05
924 0 65.2981 13.5838 887 96.1139 1264.3 488.209
925 0 66.2466 13.4648 892 97.3509 1266.09 485.491
926 0 68.2179 13.9113 949 96.2013 1268.53 482.351
927 0 72.1654 14.2035 1025 94.9522 1269.96 484.702
928 0 74.1326 13.3545 990 94.8515 1271.34 485.293
929 0 75.309 11.6586 878 100.82 1273.41 483.893
930 0 81.2057 13.5951 1104 97.6594 1274.18 482.966
931 0 84.117 13.1483 1106 98.8101 1274.44 483.214
932 0 88.2476 14.176 1251 97.5867 1274.33 481.002
933 1 46.0929 10.5005 484 96.3182 1272.69 500.44
934 0 48.0657 11.5883 557 94.4668 1272.38 503.74
935 0 49.0509 11.8041 579 96.6528 1270.28 500.337
936 0 51.0509 11.3024 577 97.5078 1268.19 498.804
937 0 53.4153 12.3373 659 96.0789 1266.23 498.575
938 0 54.2019 11.697 634 100.852 1265.13 496.538
939 0 58.2923 13.0721 762 97.8727 1264.02 493.925
940 0 60.2624 13.9556 841 96.975 1262.99 491.315
941 0 63.1968 12.7696 807 98.7918 1262.34 489.217
942 0 65.2074 14.6456 955 95.9874 1262.09 486.606
943 0 67.2286 13.7293 923 98.5742 1261.27 484.413
944 0 69.1967 12.4717 863 99.9907 1261.24 483.538
945 0 70.269 13.6903 962 100.409 1261.74 477.199
946 0 71.249 12.7861 911 100.473 1261.73 476.876
947 0 76.2156 13.8685 1057 97.4939 1261.92 475.294
948 0 77.1711 12.8805 994 99.4014 1263.34 473.259
949 1 40.0263 10.7429 430 99.407 1265.22 490.277
950 0 46.0683 9.83323 453 99.4547 1266.06 488.088
951 0 45.0532 9.23353 416 99.4375 1265.84 489.293
952 0 45.026 9.66109 435 100.676 1268.51 488.545
953 0 50.0442 12.7687 639 95.4194 1270.3 486.742
954 0 50.1273 12.6279 633 96.6051 1273.11 488.145
955 0 53.1629 12.0197 639 98.0892 1275.62 487.537
956 0 54.3789 13.0565 710 96.2563 1277.66 488.248
957 0 55.3736 12.515 693 98.3564 1278.46 488.68
958 0 58.3454 13.2144 771 99.7328 1277.89 488.514
959 0 62.2125 13.1003 815 99.5043 1277.95 489.518
960 0 64.2634 13.1957 848 100.097 1277.61 489.892
961 0 64.238 12.4381 799 103.483 1277.35 486.705
962 0 69.2194 13.8401 958 100.764 1276.33 486.491
963 1 36.0179 9.46752 341 101.883 1275.7 505.985
964 0 38.1104 11.1256 424 97.7759 1274.47 506.285
965 0 40.1019 11.1217 446 98.3498 1271.92 505.496
966 0 40.0612 10.6088 425 101.555 1269.95 503.172
967 0 44.2936 12.9816 575 95.9548 1267.83 501.626
968 0 46.0864 14.2992 659 94.308 1266.97 499.739
969 0 46.2145 12.7666 590 97.7119 1265.74 498.842
970 0 47.1187 11.5241 543 101.193 1265.97 495.635
971 0 49.123 12.031 591 100.949 1265.37 494.902
972 0 52.1312 12.833 669 99.3229 1265.42 493.007
973 0 52.2082 13.6952 715 100.126 1265.08 490.79
974 0 53.1796 13.3698 711 102.651 1266.15 487.436
975 0 54.2188 13.2057 716 104.957 1266.7 486.721
976 0 56.1668 12.5519 705 105.889 1267.12 486.957
977 0 57.5031 13.5645 780 104.105 1267.96 485.536
978 0 63.4177 15.2323 966 98.9482 1267.99 485.554
979 0 63.2868 14.1578 896 102.818 1269.42 484.731
980 0 66.172 15.0819 998 101.468 1270.04 482.655
981 0 68.1978 14.4873 988 103.486 1272.71 483.357
982 0 71.1911 15.2688 1087 102.423 1274.83 480.426
983 0 75.4064 15.4894 1168 100.831 1277.37 481.467
984 1 42.2069 11.8464 500 102.276 1279.26 498.342
985 0 41.271 11.7274 484 103.911 1278.53 498.473
986 0 44.3452 12.4252 551 102.987 1278.3 500.156
987 0 46.2987 13.8881 643 100.331 1278.83 500.796
988 0 48.0982 13.3269 641 101.424 1277.75 500.607
989 0 50.1746 13.3932 672 100.315 1276.02 499.609
990 0 50.0897 12.8969 646 102.3 1274.4 500.933
991 0 54.2154 13.059 708 100.081 1271.76 498.775
992 0 53.132 14.0405 746 100.542 1270.93 497.855
993 0 57.1244 13.3043 760 100.372 1269.63 495.176
994 0 59.0717 14.3385 847 97.1617 1267.89 493.728
995 0 62.2161 13.8549 862 98.0835 1265.72 491.681
996 1 31.0582 10.271 319 100.357 1264.2 505.088
997 0 32.0877 9.78567 314 100.064 1263.71 503.096
998 0 34.1915 9.18357 314 98.2452 1264.78 502.685
999 0 35.1594 11.2345 395 95.8987 1265.18 499.992
1000 0 36.3667 10.5316 383 97.5849 1264.46 498.809
1001 0 36.3064 11.5407 419 97.506 1263.33 494.556
1002 0 39.2979 13.1559 517 92.2863 1263.57 494.621
1003 0 39.2397 12.0796 474 95.8819 1263.61 492.768
1004 0 42.1171 14.3647 605 90.876 1264.91 490.993
1005 0 44.1876 14.3479 634 91.4069 1265.83 492.082
1006 0 44.0955 13.947 615 94.2439 1267.61 491.348
1007 0 43.1943 13.1499 568 96.9947 1269.07 491.549
1008 0 45.2048 13.826 625 95.7808 1270.52 491.184
1009 0 48.1503 14.1432 681 95.5727 1272.85 490.956
1010 0 49.1007 14.399 707 96.7355 1275 491.219
1011 0 52.2205 14.6303 764 96.5497 1277.65 492.627
1012 0 54.2456 14.2869 775 96.2155 1278.12 492.432
1013 0 56.2054 14.6071 821 96.7089 1277.72 491.297
1014 0 61.2431 14.6302 896 96.4018 1277.39 491.984
1015 0 62.1688 16.7769 1043 93.7967 1276.97 492.125
1016 0 64.1264 15.8437 1016 96.0433 1275.94 491.584
1017 0 68.1872 14.3282 977 99.2446 1274.84 493.337
1018 0 70.0769 14.1987 995 99.1638 1273.37 492.269
1019 0 72.0885 14.829 1069 99.4659 1271.8 492.155
1020 0 75.1932 15.5732 1171 99.4125 1270.3 487.062
1021 0 85.1245 17.2101 1465 92.2491 1268.63 482.47
1022 0 85.2144 17.4266 1485 93.2498 1266.7 479.466
1023 0 87.3364 14.9995 1310 98.8542 1266.96 479.931
1024 1 46.0398 11.4032 525 100.158 1265.31 499.232
1025 0 49.1633 13.567 667 98.5262 1265.04 495.424
1026 0 51.1882 13.7922 706 98.7691 1265.33 492.95
1027 0 53.1359 13.6254 724 99.7721 1265.2 491.206
1028 0 55.1927 14.0961 778 98.8522 1264.79 489.658
1029 0 56.1864 13.9179 782 100.707 1264.74 486.564
1030 0 56.117 13.9886 785 102.524 1263.93 483.437
1031 0 59.0982 14.6028 863 100.826 1264.63 481.248
1032 0 64.1468 14.2642 915 98.8874 1265.7 483.505
1033 0 65.0982 13.4105 873 101.852 1265.51 479.595
1034 0 68.0669 16.4838 1122 95.2139 1268.07 481.373
1035 0 70.1539 13.5987 954 101.172 1270.27 480.807
1036 0 74.0786 14.8491 1100 99.1445 1271.95 479.762
1037 1 40.0466 9.91345 397 101.544 1273.28 498.511
1038 0 39.0529 9.85842 385 104.971 1274.75 498.712
1039 0 43.0478 11.6382 501 102.261 1275.82 497.725
1040 0 46.0656 13.0466 601 98.5374 1276.37 498.361
1041 0 48.1178 12.5733 605 100.403 1277.46 499.909
1042 0 51.1615 14.7767 756 97.6323 1276.22 497.827
1043 0 53.253 14.4217 768 99.082 1275.15 497.691
1044 0 54.2155 14.3501 778 100.449 1274.56 498.266
1045 0 57.2315 14.2754 817 100.652 1272.65 498.578
1046 0 59.2159 14.6751 869 100.838 1271.48 496.555
1047 0 62.1659 13.3514 830 103.14 1269.96 495.299
1048 0 62.2283 13.3541 831 103.635 1268.27 495.022
1049 0 68.0816 14.9233 1016 99.1949 1266.82 491.71
1050 1 38.0984 12.4677 475 101.552 1266.15 504.141
1051 0 38.132 11.5651 441 104.286 1263.9 501.222
1052 0 40.151 12.7021 510 101.047 1263.66 500.198
1053 0 41.0685 13.6114 559 100.154 1264.33 497.381
1054 0 42.0728 13.5717 571 99.7461 1263.34 495.399
1055 0 46.1842 14.204 656 95.779 1263.06 494.381
1056 0 47.3824 14.4991 687 95.0975 1264.39 491.362
1057 0 49.2569 15.3481 756 93.1177 1264.82 489.272
1058 0 48.154 14.1214 680 97.5147 1265.64 487.968
1059 0 49.0975 14.9295 733 96.4898 1266.92 488.083
1060 0 54.0929 15.1961 822 94.1934 1268.38 487.484
1061 0 55.0805 15.1415 834 94.0743 1269.03 487.613
1062 0 57.1726 15.6719 896 93.6272 1270.88 486.244
1063 0 60.0495 15.5538 934 92.6092 1272.87 485.883
1064 0 60.0842 15.1621 911 94.5829 1274.53 483.844
1065 0 63.1773 14.0715 889 94.6265 1276.47 484.839
1066 0 67.135 16.4743 1106 89.9458 1277.1 482.487
1067 0 68.0956 13.8482 943 94.7402 1277.2 483.315
1068 1 39.0293 11.9654 467 92.7687 1277.75 501.323
1069 0 38.0912 10.9474 417 96.3765 1277.84 500.47
1070 0 43.0712 11.6551 502 94.3446 1275.9 500.147
1071 0 43.1435 11.9369 515 95.5534 1276.44 500.874
1072 0 46.079 13.325 614 93.6368 1274.7 500.005
1073 0 49.0677 14.694 721 90.7171 1273.84 499.093
1074 0 51.3458 14.042 721 93.1179 1271.89 495.374
1075 0 54.1372 14.0015 758 92.095 1270.9 495.317
1076 0 55.1234 12.862 709 94.9111 1268.76 493.625
1077 0 56.1071 14.0624 789 94.3257 1267.9 491.594
1078 0 58.1908 14.7962 861 92.7387 1267.37 487.691
1079 0 61.1013 14.8442 907 93.2767 1266.32 484.976
1080 0 63.1137 14.7987 934 92.4261 1265.14 482.218
1081 0 65.1266 15.0016 977 91.6018 1265.89 481.957
1082 0 69.1692 15.0067 1038 91.1532 1265.39 477.264
1083 1 36.0639 11.7846 425 91.9294 1264.86 491.784
1084 0 38.1111 11.9913 457 93.2298 1264.82 489.586
1085 0 38.0949 12.6526 482 93.9751 1265.01 489.656
1086 0 39.0274 12.1966 476 93.3803 1266.04 490.908
1087 0 41.0304 12.2592 503 94.3161 1267.99 489.312
1088 0 44.1101 13.829 610 91.1033 1268.15 487.784
1089 0 45.0724 13.1566 593 91.9865 1272.1 489.723
1090 0 47.1175 13.2435 624 91.359 1273.43 489.631
1091 0 48.0773 12.9167 621 92.6135 1275.45 490.108
1092 0 50.1411 13.9806 701 91.1284 1277.7 489.74
1093 0 51.2093 14.2552 730 92.0397 1279.08 490.207
1094 0 55.1809 15.712 867 89.2134 1279.69 490.152
1095 0 58.1927 15.6033 908 89.3634 1279.85 489.671
1096 0 60.2908 14.3803 867 92.2526 1279 491.163
1097 0 63.2038 14.9358 944 92.7934 1278.22 489.923
1098 0 67.0687 14.6864 985 94.7482 1277.11 489.877
1099 0 70.1996 16.0542 1127 92.3904 1275.83 489.328
1100 0 74.3157 16.9816 1262 91.9723 1275.29 489.353
1101 0 79.393 17.5456 1393 90.4494 1273.48 487.392
1102 1 40.1798 12.7676 513 98.1949 1273.06 503.639
1103 0 43.1827 13.1766 569 97.6626 1270.68 501.146
1104 0 45.4982 13.8467 630 96.8 1268.76 497.954
1105 0 48.4218 14.0846 682 97.0367 1267.73 495.022
1106 0 51.3026 17.0557 875 90.4663 1267.11 494.526
1107 0 53.3221 16.0534 856 92.4136 1267.08 492.423
1108 0 53.2148 13.8307 736 98.0938 1266.87 489.455
1109 0 56.2897 15.8111 890 92.5404 1266.67 489.102
1110 0 59.2504 14.5316 861 94.4065 1266.61 487.117
1111 0 60.2265 15.01 904 94.4757 1267.35 484.388
1112 0 61.1716 14.8598 909 94.6799 1267.65 483.433
1113 0 63.3632 14.6457 928 95.2403 1268.12 483.448
1114 0 66.3019 15.3842 1020 93.6049 1269.9 481.678
1115 0 69.3915 15.8089 1097 93.6418 1271.04 480.113
1116 0 72.439 16.7451 1213 91.9662 1272.17 478.884
1117 0 75.1907 16.6244 1250 92.6336 1274.16 475.954
1118 0 77.2459 15.4183 1191 96.0856 1275.23 477.293
1119 0 81.2255 16.8174 1366 94.6252 1277.45 475.467
1120 0 85.2509 16.2931 1389 95.9273 1279.27 476.269
1121 1 45.0978 14.1914 640 98.7766 1280.01 496.389
1122 0 50.2012 14.0236 704 98.0426 1280.18 496.895
1123 0 51.2243 13.8801 711 98.8608 1279.41 498.252
1124 0 56.0953 15.135 849 96.9482 1277.8 497.816
1125 0 58.1876 15.5875 907 96.8137 1276.26 497.355
1126 0 61.1317 15.9819 977 97.3132 1274.86 496.169
1127 0 63.1688 15.8306 1000 98.578 1272.99 495.201
1128 0 67.4969 14.9933 1012 101.343 1272.11 492.197
1129 0 71.2655 16.2772 1160 98.7121 1270.44 490.778
1130 0 73.2506 16.3275 1196 100.524 1269.19 487.789
1131 0 77.1331 16.9966 1311 98.8268 1267.93 486.03
1132 0 80.3925 14.989 1205 101.715 1267.11 482.913
1133 1 43.0986 11.8101 509 104.778 1267 499.401
1134 0 45.1023 12.394 559 104.413 1266.39 496.784
1135 0 45.0231 12.5935 567 104.919 1265.75 494.448
1136 0 49.0489 14.4958 711 102.502 1266.81 493.228
1137 0 51.1679 16.2407 831 98.142 1266.65 491.013
1138 0 52.1812 14.8712 776 101.814 1266.5 488.278
1139 0 56.1812 15.2898 859 100.556 1265.15 486.919
1140 0 58.0946 15.4403 897 101.719 1266.13 487.117
1141 0 61.1909 15.0349 920 102.447 1267.58 484.889
1142 0 62.1245 15.6138 970 103.19 1269.05 484.277
1143 0 64.2923 14.9007 958 104.228 1269.24 484.355
1144 0 67.0927 15.9928 1073 103.346 1271.34 481.926
1145 0 71.165 16.0051 1139 102.724 1273.22 483.363
1146 0 75.1365 15.7181 1181 104.003 1275.49 481.499
1147 0 76.3269 14.6475 1118 106.656 1276.99 481.629
1148 0 80.2878 13.8751 1114 109.765 1277.75 480.662
1149 1 44.0877 13.1102 578 104.201 1278.74 499.619
1150 0 44.2126 12.8923 570 104.161 1278.51 499.572
1151 0 49.0497 14.9237 732 100.895 1277.89 498.04
1152 0 50.0861 13.2172 662 104.872 1276.13 498.766
1153 0 54.1071 13.2885 719 104.291 1275.66 498.712
1154 0 56.1253 15.0734 846 101.918 1272.74 496.69
1155 0 59.1027 14.534 859 103.745 1270.66 495.315
1156 0 63.2439 16.1122 1019 100.026 1269.49 496.788
1157 0 64.1309 15.3592 985 104.943 1268.27 492.888
1158 0 67.1404 16.9049 1135 100.403 1266.76 490.678
1159 0 70.1493 16.2653 1141 100.989 1265.85 490.145
1160 0 73.2459 16.2603 1191 102.419 1265.13 485.312
1161 0 73.1306 15.1373 1107 106.011 1264.08 482.463
1162 0 77.3005 15.3557 1187 106.229 1263.98 478.901
1163 0 79.2178 15.1102 1197 106.607 1263.88 476.018
1164 0 83.2968 15.7389 1311 105.185 1264.48 471.452
1165 0 88.1397 16.2242 1430 102.486 1264.12 471.411
1166 0 91.3459 17.264 1577 101.124 1264.64 466.856
1167 1 51.0498 10.3624 529 104.127 1264.84 490.465
1168 0 49.0499 12.0693 592 103.443 1265.77 489.378
1169 0 50.2008 11.2946 567 106.362 1266.77 486.46
1170 0 54.1051 14.0283 759 101.783 1267.57 484.681
1171 0 56.1238 13.1673 739 101.23 1269.04 485.279
1172 0 58.1292 14.4506 840 102.245 1272.08 485.256
1173 0 60.0948 14.2774 858 101.994 1273.61 483.385
1174 0 65.3858 15.2633 998 97.6122 1275.3 484.787
1175 0 67.2688 14.0927 948 99.6814 1276.44 482.194
1176 0 69.215 15.3146 1060 98.3151 1277.24 482.133
1177 0 74.4359 14.8987 1109 97.6519 1278.29 483.74
1178 0 77.4069 15.5671 1205 97.6017 1278.04 481.872
1179 0 82.3147 17.1415 1411 94.6095 1277.01 481.528
1180 0 84.4153 15.3171 1293 99.1748 1275.85 479.388
1181 1 47.2014 11.1014 524 102.563 1275.85 498.218
1182 0 50.222 11.3894 572 98.6836 1274.24 501.245
1183 0 51.1536 13.7625 704 96.9801 1272.87 498.641
1184 0 51.4679 12.2212 629 100.485 1271.75 496.971
1185 0 56.0797 14.9965 841 94.1367 1270.31 494.768
1186 0 57.2544 13.5536 776 97.9149 1269.78 492.371
1187 0 60.191 13.7728 829 96.9928 1268.07 489.338
1188 0 63.2117 15.1238 956 94.9697 1267.76 487.109
1189 0 65.2112 14.6601 956 96.4895 1266.33 484.447
1190 0 67.2838 15.234 1025 95.7678 1265.12 481.927
1191 0 69.4351 15.4533 1073 95.8127 1264.86 480.233
1192 0 71.2636 15.2111 1084 96.4336 1264.6 478.006
1193 0 74.274 15.6448 1162 96.4656 1264.7 475.213
1194 0 77.3195 15.132 1170 98.9581 1264.91 473.595
1195 0 79.4249 15.436 1226 97.0049 1267.14 472.471
1196 0 83.4582 16.8228 1404 93.8704 1267.55 470.268
1197 0 85.5154 15.9036 1360 96.2779 1268.02 469.696
1198 1 43.2301 12.5838 544 99.4467 1267.93 489.344
1199 0 45.2629 12.5931 570 100.351 1269.8 488.579
1200 0 46.1678 12.3679 571 99.5937 1272.19 490.128
1201 0 50.2611 14.3252 720 95.85 1275.02 489.429
1202 0 51.0371 15.2046 776 94.9278 1276.98 488.548
1203 0 54.0901 16.0843 870 92.7218 1277.53 488.657
1204 0 54.2493 14.0463 762 97.8871 1278.58 487.667
1205 0 58.1904 16.1539 940 92.5787 1279.8 488.429
1206 0 60.1497 15.2952 920 95.3174 1279.62 486.025
1207 0 63.3377 16.262 1030 94.5515 1278.75 487.378
1208 0 65.2765 15.3041 999 96.975 1277.27 487.613
1209 0 69.2729 15.7926 1094 96.7212 1276.2 486.143
1210 0 70.4117 14.7703 1040 99.574 1274.98 487.644
1211 0 72.2562 15.2513 1102 99.7024 1274.25 484.742
1212 0 75.3233 15.9579 1202 99.322 1273.03 483.123
1213 0 80.3764 16.9204 1360 97.1765 1271.99 476.086
1214 0 85.5684 18.2077 1558 93.8967 1269.93 472.501
1215 0 86.2511 17.0896 1474 98.517 1268.06 472.657
1216 1 49.2297 13.0003 640 102.973 1267.87 491.027
1217 0 49.2226 12.5755 619 104.729 1267.21 491.1
1218 0 53.1309 14.2855 759 103.124 1267.6 486.29
1219 0 54.0501 13.4135 725 103.574 1267.08 485.559
1220 0 59.3072 15.1752 900 100.209 1267.47 484.08
1221 0 61.1133 16.0194 979 98.9949 1267.47 481.102
1222 0 63.1397 15.6478 988 99.1144 1267.4 480.159
1223 0 64.2432 15.8305 1017 98.9076 1267.96 476.715
1224 0 67.2687 17.2591 1161 95.6081 1268.78 475.879
1225 0 69.2015 16.0401 1110 98.5748 1269.65 475.49
1226 0 72.3261 15.9832 1156 98.7318 1271.96 474.525
1227 0 75.4758 16.9458 1279 97.3667 1274.15 473.213
1228 0 78.2644 17.0959 1338 96.852 1275.73 474.481
1229 0 82.2772 17.7449 1460 95.7911 1277.09 471.843
1230 1 40.1826 12.3686 497 101.41 1277.83 495.378
1231 0 42.0738 12.4543 524 104.916 1278.19 494.861
1232 0 46.1228 14.5048 669 101.003 1279.38 494.411
1233 0 46.081 14.6047 673 102.704 1279.17 494.19
1234 0 51.0551 16.7466 855 97.5719 1278.74 495.351
1235 0 54.1327 16.866 913 98.0613 1277.64 493.014
1236 0 57.1426 16.1351 922 99.2267 1277.14 491.62
1237 0 60.2901 16.4538 992 98.6804 1275.67 491.557
1238 0 62.4656 15.7367 983 99.8993 1274.57 490.351
1239 0 67.1677 17.1213 1150 97.3304 1272.46 488.686
1240 0 69.2995 16.6956 1157 99.0562 1270.61 484.941
1241 0 71.3148 17.0512 1216 98.7854 1268.67 483.155
1242 0 76.3766 15.9604 1219 101.418 1267.63 480.842
1243 0 80.4434 17.8386 1435 98.9247 1266.83 476.971
1244 0 84.5814 18.3728 1554 96.5418 1266.23 477.194
1245 0 87.286 16.5089 1441 101.772 1265.78 472.516
1246 0 87.2163 16.9578 1479 102.807 1265.6 471.608
1247 0 91.4753 16.3541 1496 105.225 1265.61 467.247
1248 0 97.4381 18.5554 1808 100.637 1266.52 465.2
1249 1 48.537 13.5361 657 108.388 1267.71 488.049
1250 0 50.4012 14.8806 750 106.521 1268.3 486.281
1251 0 50.2895 16.0868 809 106.855 1268.89 485.135
1252 0 52.1899 15.6927 819 107.1 1269.12 484.212
1253 0 56.2892 16.4685 927 104.428 1270.55 482.999
1254 0 59.4342 14.8063 880 107.134 1272.16 483.706
1255 0 61.4688 15.2435 937 107.524 1274.08 482.586
1256 0 64.2955 16.6575 1071 104.356 1275.35 483.255
1257 0 69.4105 16.5681 1150 104.483 1277.8 482.67
1258 0 72.2254 16.4208 1186 106.298 1278.69 481.072
1259 0 76.2764 17.1744 1310 104.466 1279.02 481.431
1260 0 80.2126 17.3414 1391 104.865 1277.48 480.21
1261 0 84.1937 17.2222 1450 104.647 1276.88 479.803
1262 0 88.2743 17.2644 1524 105.07 1275.94 476.533
1263 0 90.2471 16.2997 1471 108.109 1274.7 476.627
1264 1 48.1318 12.7774 615 105.633 1273.91 500.215
1265 0 49.3714 12.3958 612 108.567 1272.18 496.242
1266 0 53.3403 14.2856 762 106.427 1269.68 493.521
1267 0 54.1749 13.7333 744 108.435 1268.16 490.601
1268 0 59.1845 15.7474 932 103.075 1266.87 488.833
1269 0 61.1034 15.5638 951 103.573 1265.45 487.013
1270 0 61.1115 15.5617 951 158.035 1264.44 487.061
1271 0 67.0469 16.2274 1088 103.167 1264 479.91
1272 0 69.2564 14.7712 1023 107.245 1263.89 477.887
1273 0 68.2621 14.708 1004 108.804 1263.95 475.401
1274 0 73.4645 14.8643 1092 108.256 1264.12 472.701
1275 0 77.1513 17.3037 1335 103.515 1264.48 470.416
1276 0 79.2332 16.748 1327 104.614 1265.28 469.241
1277 0 81.186 16.1481 1311 107.121 1265.89 466.342
1278 0 85.3325 16.3712 1397 107.167 1266.55 466.339
1279 0 89.3585 15.1413 1353 109.56 1268.9 465.941
1280 0 91.1557 15.6545 1427 111.214 1270.66 462.762
1281 0 96.345 17.1363 1651 107.995 1273.34 461.683
1282 0 100.303 16.4003 1645 109.131 1275.35 461.524
1283 0 107.408 16.6374 1787 108.222 1275.73 460.702
1284 0 110.464 16.8743 1864 109.841 1277.16 456.037
1285 0 113.216 16.6408 1884 111.68 1279.13 452.005
1286 0 121.444 17.9424 2179 107.859 1278.09 453.447
1287 1 69.2184 12.5545 869 108.306 1278.2 479.665
1288 0 72.3008 11.8256 855 109.782 1277.47 480.237
1289 0 75.2986 14.0773 1060 109.527 1275.57 481.042
1290 0 77.1967 12.4617 962 112.032 1273.15 479.322
1291 0 79.355 12.4504 988 114.2 1272.14 477.325
1292 0 85.2819 13.8482 1181 112.09 1271.3 475.256
1293 0 92.4167 13.9044 1285 108.927 1270.72 475.039
1294 0 92.4167 13.8395 1279 159.456 1270.73 474.996
1295 0 92.4607 13.8005 1276 159.197 1270.74 474.889
1296 1 57.1366 9.87108 564 101.004 1266.59 491.876
1297 0 56.0868 9.53878 535 97.9794 1266.19 493.35
1298 0 57.1958 10.1756 582 99.0515 1265.16 486.564
1299 0 59.3673 11.0499 656 95.2485 1265.63 487.325
1300 0 62.2052 11.7675 732 92.5232 1265.7 485.429
1301 0 61.5437 10.2691 632 95.9351 1265.2 481.854
1302 0 66.4569 10.1871 677 98.1241 1265.14 476.688
1303 0 67.3502 11.3288 763 97.0131 1266.24 473.609
1304 0 71.3953 10.5889 756 96.5476 1268.35 475.753
1305 0 73.3472 10.9752 805 96.6795 1268.47 473.778
1306 0 72.4894 10.1256 734 98.6458 1270.56 473.853
1307 0 77.4294 10.9648 849 97.0412 1272.62 473.252
1308 0 81.4274 10.5124 856 96.7185 1275.29 470.43
1309 0 84.7481 11.5519 979 96.1175 1276.81 468.612
1310 0 87.3886 11.672 1020 96.2176 1279.17 469.142
1311 0 90.5841 10.4654 948 97.9947 1279.45 466.656
1312 0 93.5303 10.2534 959 98.1533 1279.49 470.136
1313 1 55.1281 8.18095 451 91.714 1280.47 492.373
1314 1 32.2345 7.07316 228 90.9079 1280.81 502.487
1315 0 27.1598 7.58474 206 89.0728 1280.08 506.937
1316 0 33.1705 9.16477 304 88.7237 1279.28 504.26
1317 0 34.0235 6.55429 223 92.6368 1277.88 505.713
1318 0 32.1134 7.13098 229 93.0087 1277.02 507.537
1319 0 39.3771 8.30433 327 93.7951 1275.67 502.284
1320 0 39.1294 9.32803 365 93.0055 1273.39 501.844
1321 0 43.1906 9.74748 421 93.3872 1272.06 500.482
1322 0 39.1894 7.1448 280 99.6536 1270.66 499.136
1323 0 52.3522 7.50684 393 96.9924 1269.81 497.985
1324 0 48.244 8.29119 400 99.1 1269.53 494.425
1325 0 47.3034 7.18765 340 97.05 1270.16 495.85
1326 0 49.2014 9.47128 466 98.0515 1270.37 491.62
1327 0 49.2797 10.0244 494 100.19 1269.5 485.13
1328 0 51.2036 10.3508 530 102.645 1270.45 484.16
1329 0 54.1473 9.64037 522 102.046 1269.72 485.548
1330 0 53.2517 10.272 547 103.049 1270.23 484.355
1331 0 54.9951 10.2555 564 104.55 1270.26 483.096
1332 0 54.6504 8.8197 482 105.245 1272.5 487.61
1333 0 55.4936 8.1631 453 108.634 1273.03 487.596
1334 0 61.4553 8.38007 515 108.035 1275.37 488.45
1335 0 63.8509 8.75476 559 108.492 1277.44 487.943
1336 0 64.0501 11.288 723 106.545 1278.85 483.188
1337 0 68.8128 13.3987 922 101.956 1280.31 481.782
1338 0 70.8339 11.7176 830 106.376 1281.27 480.811
1339 1 39.2465 9.73336 382 104.183 1282.43 498.869
1340 0 41.2051 9.29496 383 104.666 1282.69 498.104
1341 0 47.1422 11.7517 554 98.5036 1281.21 499.928
1342 0 46.2844 11.1701 517 103.159 1280.49 497.781
1343 0 52.2003 13.7739 719 95.7065 1279.86 499.045
1344 0 53.252 13.4455 716 97.0545 1277.18 498.151
1345 0 53.2453 12.5081 666 99.1231 1275.21 496.803
1346 0 55.2991 13.9785 773 96.6184 1274.11 494.171
1347 0 56.25 13.5645 763 96.2202 1272.69 493.322
1348 0 59.1919 13.4647 797 93.9887 1271.35 492.07
1349 0 61.2216 13.149 805 93.6174 1269.41 488.394
1350 0 63.3703 12.3402 782 94.6176 1267.92 487.326
1351 0 63.2096 12.1817 770 95.2377 1267.7 486.139
1352 0 65.2057 11.3334 739 96.6103 1267.47 484.019
1353 0 67.3567 12.4858 841 93.629 1267.48 479.319
1354 0 70.2605 13.4642 946 90.1829 1267.55 477.614
1355 0 70.2047 12.5775 883 92.1438 1268.15 475.138
1356 0 75.1444 13.6803 1028 89.1975 1267.7 475.013
1357 0 75.2605 11.8123 889 92.4173 1268.66 473.291
1358 0 78.2099 12.8372 1004 90.6803 1270.31 472.489
1359 0 81.215 13.3842 1087 90.7672 1271.35 467.491
1360 0 85.3447 12.1624 1038 91.238 1273.64 469.754
1361 1 45.2138 9.42191 426 89.5 1275.13 491.69
1362 0 44.2334 10.309 456 90.1206 1277.46 490.754
1363 0 45.248 11.5585 523 88.652 1278.84 489.793
1364 0 49.1243 11.8475 582 88.7096 1279.39 492.911
1365 0 53.3604 13.6993 731 86.3926 1281.22 492.36
1366 0 53.4071 12.3579 660 90.2758 1281.3 493.97
1367 0 55.1992 12.464 688 92.2224 1280.97 491.603
1368 0 57.1696 12.769 730 93.1014 1279.51 491.764
1369 0 62.4442 13.7243 857 91.7235 1278.28 489.662
1370 0 64.4461 13.2204 852 94.4765 1277.35 490.768
1371 0 67.5448 14.2276 961 94.2373 1275.58 489.039
1372 0 69.6939 14.7789 1030 93.8864 1273.85 487.605
1373 0 72.3799 13.139 951 98.387 1271.73 485.047
1374 0 76.5494 14.409 1103 96.3073 1270.29 483.224
1375 1 41.1977 10.5588 435 98.3793 1270.09 501.913
1376 0 44.1974 10.6341 470 100.547 1267.48 497.138
1377 0 46.2803 12.0137 556 97.6529 1266.19 495.601
1378 0 49.3844 13.0811 646 94.5402 1265.86 493.478
1379 0 48.2417 12.4996 603 97.6667 1265.83 491.706
1380 0 52.1403 13.3294 695 95.0201 1265.46 489.652
1381 0 54.2263 14.9743 812 92.7685 1266.08 487.962
1382 0 57.5307 14.5487 837 92.0932 1266.42 486.115
1383 0 57.2034 13.9327 797 95.8821 1267.39 484.011
1384 0 60.2256 13.6819 824 95.3532 1268.1 484.938
1385 0 63.2022 14.8887 941 93.1456 1269.2 484.774
1386 0 65.2547 14.8495 969 94.1207 1270.12 482.561
1387 0 66.3524 14.7696 980 95.8051 1271.9 481.347
1388 0 72.2819 13.4335 971 95.7755 1274.05 483.611
1389 0 74.2534 13.9657 1037 96.9277 1276.16 480.621
1390 0 77.1313 14.4299 1113 96.3513 1277.03 480.328
1391 1 41.084 11.3426 466 97.088 1276.53 499.483
1392 0 43.1355 10.9191 471 99.3015 1277.25 499.134
1393 0 47.0923 12.2313 576 97.4809 1278.84 498.804
1394 0 49.0963 13.667 671 96.1997 1278.44 497.653
1395 0 52.0981 14.0888 734 95.4823 1276.5 498.364
1396 0 56.2206 13.5004 759 95.1462 1275.79 501.144
1397 0 56.3286 14.1491 797 96.4542 1274.7 498.163
1398 0 58.1169 13.9891 813 96.0123 1272.22 497.129
1399 0 59.1962 14.3084 847 96.2963 1271.58 495.635
1400 0 63.2673 15.6795 992 93.3619 1270.2 494.366
1401 0 64.2743 14.4381 928 97.1584 1268.79 491.3
1402 0 66.2583 13.7341 910 98.5703 1267.57 489.651
1403 0 70.2072 15.0127 1054 97.6101 1266.47 486.016
1404 0 73.334 14.4544 1060 98.3877 1265.98 485.286
1405 0 74.3197 14.4511 1074 100.018 1265 482.337
1406 0 78.2703 14.5905 1142 100.446 1265.97 478.803
1407 0 83.3212 15.7943 1316 96.9506 1266.55 477.834
1408 1 45.2633 12.8139 580 102.645 1266.02 492.703
1409 0 49.1417 12.8608 632 101.796 1265.69 491.017
1410 0 50.1057 15.0282 753 98.0159 1266.22 490.114
1411 0 51.0982 15.1669 775 97.72 1266.62 489.435
1412 0 55.2089 15.233 841 97.7955 1268.5 487.577
1413 0 57.1578 13.8739 793 99.6557 1269.72 488.527
1414 0 59.2184 14.4381 855 99.3754 1271.1 486.656
1415 0 60.2227 14.5626 877 98.4778 1273.99 487.922
1416 0 63.2838 14.8221 938 98.2281 1275.1 484.622
1417 0 66.2927 14.3455 951 99.4248 1275.98 485.565
1418 0 72.4122 15.6189 1131 96.0539 1277.17 485.708
1419 0 74.5433 15.4675 1153 97.4319 1277.8 485.927
1420 0 79.4096 14.1041 1120 101.205 1277.45 485.67
1421 0 83.4531 15.6495 1306 99.1531 1276.43 482.466
1422 0 86.5987 14.9771 1297 103.186 1274.88 482.594
1423 0 91.5558 15.2475 1396 104.246 1273.05 481.85
1424 0 95.4192 14.2005 1355 107.408 1272.36 481.449
1425 0 100.633 16.1875 1629 104.614 1270.38 474.721
1426 0 104.565 18.1705 1900 101.078 1268.6 475.085
1427 0 108.504 17.5386 1903 102.422 1268.78 473.169
1428 0 111.39 16.357 1822 106.912 1265.83 470.335
1429 0 117.589 16.2175 1907 107.115 1264.9 466.429
1430 0 121.381 16.0981 1954 108.476 1265.19 459.52
1431 0 118.341 13.2415 1567 115.923 1264.9 460.322
1432 1 67.2802 11.7568 791 111.04 1264.04 488.975
1433 0 68.1843 13.4195 915 110.925 1264.15 483.45
1434 0 72.1901 13.783 995 110.773 1263.75 481.169
1435 0 73.1201 13.3889 979 114.281 1264.75 479.753
1436 0 74.2334 13.8886 1031 114.995 1264.16 477.421
1437 0 79.2055 14.0773 1115 113.903 1264.92 477.129
1438 0 80.2126 14.5239 1165 115.205 1266.31 475.137
1439 0 82.2007 14.4646 1189 115.884 1267.6 475.741
1440 0 86.1491 15.9027 1370 113.594 1268.97 473.918
1441 0 88.2402 15.1972 1341 116.583 1270.33 473.88
1442 0 88.1513 14.407 1270 120.86 1272.72 472.027
1443 0 93.1975 16.7279 1559 111.907 1273.94 473.218
1444 0 89.1804 15.9116 1419 122.603 1275.37 476.909
1445 0 91.2162 14.3176 1306 130.165 1276.81 476.817
1446 0 93.2579 15.8378 1477 127.294 1275.74 476.909
1447 0 97.309 17.5523 1708 121.406 1275.37 479.997
1448 0 98.271 15.7218 1545 129.093 1275.7 476.961
1449 0 102.158 15.6326 1597 128.608 1273.45 478.424
1450 0 104.308 16.8443 1757 127.105 1272.92 474.698
1451 0 108.26 17.5135 1896 123.554 1271.44 475.972
1452 0 108.244 16.6845 1806 127.681 1270.61 472.825
1453 0 110.22 16.703 1841 128.216 1269.27 471.202
1454 0 113.155 19.0888 2160 122.17 1266.9 467.635
1455 0 117.198 17.3637 2035 124.729 1265.58 467.169
1456 0 119.394 18.5771 2218 121.434 1266.01 463.253
1457 0 121.356 19.6858 2389 118.786 1264.67 461.147
1458 0 121.189 16.561 2007 128.962 1263.1 461.966
1459 0 119.227 15.2482 1818 132.618 1264.35 460.861
1460 1 204.603 16.3292 3341 112.791 1263.18 428.902
1461 0 207.425 16.8784 3501 109.435 1263.57 425.077
1462 0 210.576 16.6971 3516 108.099 1263.81 425.949
1463 0 209.343 16.633 3482 107.117 1264.09 425.416
1464 0 206.439 16.7362 3455 106.001 1264.89 425.973
1465 0 211.24 14.8977 3147 109.559 1266.27 443.822
1466 0 202.729 23.1985 4703 89.5869 1266.9 419.734
1467 0 202.461 19.1346 3874 99.8227 1269.3 434.059
1468 0 211.858 17.2333 3651 102.823 1270.56 435.852
1469 0 209.256 19.7509 4133 97.0748 1272.78 429.974
1470 0 194.626 19.9203 3877 102.095 1275.69 435.861
1471 0 197.998 27.1922 5384 87.0533 1275.55 421.827
1472 0 194.853 24.5621 4786 91.9329 1275.96 423.72
1473 0 196.323 18.9331 3717 107.475 1276.47 438.697
1474 0 201.633 23.3047 4699 97.0392 1275.43 434.088
1475 0 202.161 22.6749 4584 98.7066 1274.26 433.643
1476 0 202.6 25.2468 5115 92.833 1274.05 425.912
1477 0 208.123 20.0507 4173 104.651 1272.99 430.967
1478 0 203.856 20.6715 4214 105.373 1273.09 439.492
1479 0 205.686 18.9901 3906 108.822 1271.65 441.348
1480 0 209.752 21.7114 4554 100.453 1269.71 429.767
1481 0 210.745 26.9805 5686 89.319 1266.85 415.879
1482 0 218.055 22.9346 5001 95.8836 1266.09 420.11
1483 0 218.917 23.0727 5051 97.5165 1265.42 419.843
1484 0 212.468 18.1062 3847 112.642 1265.54 433.127
