time division length width area intensity CMx CMy
0 0 33.0082 11.694 386 131.816 362.645 487.598
1 0 33.0466 11.741 388 133.881 362.389 486.943
2 0 35.0784 13.4841 473 129.199 362.715 486.171
3 0 36.0153 12.9945 468 127.91 362.848 486.197
4 0 37.0403 12.5539 465 128.075 363.37 487.4
5 0 37.0408 13.9846 518 124.734 361.998 485.098
6 0 39.1105 13.9605 546 123.088 360.965 486.441
7 0 37.2166 12.8169 477 134.01 360.79 484.553
8 0 40.1239 12.7356 511 131.558 360.955 484.933
9 0 39.1657 16.111 631 121.859 360.751 482.189
10 0 41.241 14.8153 611 122.39 359.949 481.548
11 0 41.1946 14.4194 594 126.16 360.323 481.433
12 0 41.159 14.116 581 127.632 361.933 482.694
13 0 43.1491 14.6005 630 123.184 361.735 482.233
14 0 43.0979 13.8986 599 127.915 361.222 481.873
15 0 44.2086 14.1149 624 127.412 361.128 481.361
16 0 45.1417 15.0415 679 124.669 361.62 481.044
17 0 45.1993 14.2923 646 128.235 360.423 479.941
18 0 45.0951 14.3696 648 129.034 360.312 480.289
19 0 49.1637 15.6009 767 123.24 360.531 480.819
20 0 48.182 14.9226 719 127.36 360.039 479.278
21 0 50.239 15.0481 756 125.885 360.433 479.552
22 0 51.0426 14.9483 763 125.038 361.11 479.048
23 0 52.1379 15.6892 818 123.487 362.029 477.342
24 0 52.1503 16.0689 838 124.589 361.916 476.648
25 0 53.1616 14.898 792 127.857 362.035 476.278
26 0 56.1167 16.1093 904 123.35 364.248 476.097
27 0 57.0761 15.7159 897 124.387 364.585 476.511
28 0 59.0958 15.9741 944 123.464 364.296 475.148
29 0 62.2097 17.0392 1060 118.332 363.473 474.422
30 0 62.083 16.188 1005 121.221 364.646 471.97
31 0 65.1331 16.3511 1065 120.315 364.337 471.531
32 0 66.127 15.9995 1058 121.738 364.776 470.56
33 0 70.252 17.5653 1234 115.394 365.176 469.076
34 0 71.1424 16.3897 1166 119.507 365.1 467.766
35 0 72.087 16.8824 1217 119.474 366.015 467.983
36 0 73.117 16.2343 1187 122.357 364.477 466.705
37 0 77.2014 17.2924 1335 118.775 364.695 464.784
38 0 80.2233 18.5856 1491 114.129 364.907 463.907
39 0 84.3316 17.4075 1468 114.762 364.783 463.844
40 0 85.2363 16.6713 1421 117.819 366.148 462.803
41 0 87.3938 17.1751 1501 116.69 365.871 460.511
42 1 47.041 12.8611 605 120.559 367.445 480.823
43 0 46.0289 12.4052 571 120.588 367.657 481.401
44 0 48.1096 13.0327 627 118.823 367.856 481.668
45 0 48.0164 12.3708 594 119.801 366.835 481.335
46 0 52.0362 14.3554 747 114.991 366.826 480.203
47 0 53.1562 13.3192 708 117.681 366.507 477.599
48 0 55.111 15.2238 839 113.909 366.25 476.26
49 0 56.0662 14.9823 840 114.989 365.269 474.579
50 0 60.0555 14.4533 868 112.06 366.513 474.474
51 0 62.0742 15.0626 935 110.587 366.793 474.779
52 0 64.0689 14.9526 958 110.375 366.416 472.676
53 0 66.0612 13.6994 905 112.134 366.202 472.959
54 0 69.1066 15.382 1063 109.635 365.92 470.416
55 0 69.1066 15.4544 1068 156.879 364.924 470.383
56 0 73.1609 15.4044 1127 110.957 365.929 467.61
57 0 77.2929 16.5992 1283 107.128 366.838 466.107
58 0 78.0775 15.5615 1215 111.277 366.431 464.147
59 0 81.3031 16.1863 1316 109.711 367.106 465.196
60 0 86.1378 16.6245 1432 107.736 367.294 462.09
61 0 88.0935 16.5166 1455 107.696 367.676 460.568
62 0 89.1287 16.4818 1469 109.838 368.21 457.764
63 0 92.2611 16.8327 1553 109.821 368.661 458.205
64 0 94.2647 15.414 1453 112.187 367.778 459.467
65 0 97.3065 16.5251 1608 110.217 367.861 456.3
66 0 101.104 17.0616 1725 107.606 368.364 453.999
67 0 105.303 17.7963 1874 106.055 369.512 452.94
68 0 111.176 17.126 1904 104.67 368.913 451.109
69 0 116.22 17.4583 2029 103.673 369.312 449.409
70 0 117.504 15.4038 1810 110.548 368.05 445.339
71 0 117.504 15.3442 1803 166.357 367.048 445.403
72 1 68.2554 13.303 908 110.656 367.013 468.487
73 0 70.0845 14.4682 1014 109.271 367.641 467.186
74 0 74.1544 14.7125 1091 108.068 367.91 466.787
75 0 75.0817 15.6496 1175 108.174 368.463 464.105
76 0 80.1116 14.6795 1176 108.097 367.864 464.229
77 0 82.186 14.6132 1201 109.104 368.091 459.685
78 0 85.2151 15.4785 1319 106.019 368.092 459.679
79 0 87.1477 15.9729 1392 106.573 368.716 458.999
80 0 91.2417 16.5385 1509 105.554 367.962 456.997
81 0 94.1901 16.3074 1536 106.354 367.359 456.275
82 0 95.0927 15.4586 1470 109.305 366.805 454.733
83 0 99.3172 14.5393 1444 111.614 367.846 454.337
84 0 102.13 15.774 1611 108.606 368.879 450.713
85 0 107.144 16.0158 1716 107.115 368.87 450.981
86 0 111.154 15.7439 1750 107.806 368.115 448.165
87 1 64.1621 13.2009 847 107.994 368.538 471
88 0 67.0604 12.6751 850 106.787 368.509 470.62
89 0 71.0697 15.4356 1097 101.037 368.134 468.184
90 0 72.1614 13.7885 995 104.12 367.613 468.994
91 0 77.0813 15.9831 1232 99.9919 367.939 465.005
92 0 77.1077 13.7989 1064 106.74 368.339 461.273
93 0 81.2592 14.0415 1141 105.66 367.998 463.64
94 0 85.1066 14.006 1192 106.996 369.18 459.171
95 0 88.1825 15.2751 1347 103.89 369.022 458.904
96 0 92.1001 14.5385 1339 105.594 368.213 455.954
97 0 95.1349 15.6199 1486 102.361 368.123 455.629
98 0 98.189 15.7248 1544 101.793 369.289 453.034
99 0 100.178 15.9018 1593 102.829 368.492 450.515
100 0 104.332 15.4123 1608 102.489 367.83 451.452
101 0 106.408 13.8712 1476 106.162 369.297 449.425
102 0 111.18 13.9144 1547 105.576 367.681 445.355
103 0 114.305 14.96 1710 103.388 368.378 447.561
104 0 119.417 14.8387 1772 103.21 368.303 441.689
105 0 122.499 12.9308 1584 107.568 368.725 439.484
106 0 128.769 15.0037 1932 104.266 369.05 437.889
107 0 131.517 12.4014 1631 107.41 369.205 435.853
108 1 69.2825 11.2583 780 105.033 369.401 465.477
109 0 73.3034 11.3501 832 103.983 369.272 466.48
110 0 73.41 10.6253 780 103.792 369.197 467.345
111 0 78.271 12.9805 1016 100.394 369.271 464.266
112 0 79.3696 13.1159 1041 101.161 369.266 460.002
113 0 82.5108 12.6892 1047 102.557 369.281 459.853
114 0 85.4262 14.375 1228 99.7386 369.598 458.529
115 0 88.3404 12.9499 1144 103.096 369.367 455.908
116 0 92.2863 14.1083 1302 100.808 368.1 457.157
117 0 95.2226 13.3267 1269 102.738 368.551 457.333
118 0 98.3221 13.7202 1349 101.517 368.569 455.481
119 1 45.2153 9.68698 438 100.801 369.03 481.071
120 0 46.1911 10.0452 464 100.468 368.821 480.627
121 0 48.0578 10.633 511 100.405 368.636 480.658
122 0 50.1378 13.064 655 96.2412 368.89 479.075
123 0 51.1402 12.5342 641 97.0827 368.12 477.594
124 0 54.0746 12.9821 702 95.9544 367.607 477.343
125 0 53.089 11.961 635 101.028 368.898 475.581
126 0 57.1308 12.1126 692 99.4451 368.788 474.958
127 0 60.1288 14.0698 846 96.3924 367.896 472.851
128 0 60.1162 12.1431 730 102.921 367.523 472.101
129 0 62.1141 12.1229 753 102.94 368.44 471.599
130 0 63.1177 12.1836 769 103.464 369.178 470.879
131 0 67.2362 12.5974 847 103.39 368.714 467.89
132 0 67.1977 12.6344 849 103.836 369.283 469.184
133 0 69.3534 13.3807 928 103.922 368.249 467.114
134 0 70.1732 11.9846 841 104.816 369.669 467.216
135 0 74.3154 14.4115 1071 100.32 369.531 465.846
136 0 75.2182 14.5178 1092 101.342 369.671 465.908
137 0 77.1768 12.0503 930 106.218 369.71 464.198
138 1 42.0996 9.21623 388 103.961 370.183 484.253
139 0 43.0904 12.0909 521 101.232 369.858 481.697
140 0 46.0884 10.0025 461 101.508 369.139 485.69
141 0 46.0884 10.0025 461 148.692 367.139 485.655
142 0 47.2109 9.78587 462 106.517 368.446 483.63
143 0 49.2192 12.0075 591 102.36 367.651 481.841
144 0 48.3511 13.0297 630 101.727 366.962 477.338
145 0 49.2154 12.1913 600 103.94 367.827 477.887
146 0 53.2261 13.0011 692 100.118 367.749 476.473
147 0 55.2292 13.5979 751 99.5752 368.542 477.818
148 0 58.4064 14.5018 847 98.4002 367.654 476.685
149 0 59.2917 14.1335 838 96.9845 367.748 478.743
150 0 60.229 13.2328 797 99.808 367.3 476.418
151 0 62.305 14.092 878 97.5296 366.823 474.568
152 0 63.3008 13.5227 856 99.229 366.953 473.496
153 0 63.1692 14.0733 889 98.1609 366.179 470.884
154 0 67.2037 14.3891 967 96.6774 367.651 470.756
155 0 68.1486 14.4684 986 96.8185 367.025 470.948
156 0 72.2863 13.7785 996 97.3645 367.055 469.381
157 0 73.4199 14.9142 1095 95.2201 366.136 468.264
158 0 75.2725 13.9626 1051 97.4719 366.609 466.347
159 0 76.2629 14.6729 1119 96.5612 366.562 463.357
160 0 80.2484 14.7293 1182 95.7107 367.346 462.772
161 0 84.3544 14.2968 1206 96.4046 367.808 462.72
162 0 85.4265 13.9535 1192 98.2005 367.978 459.023
163 1 43.1148 10.9475 472 99.3114 368.051 481.907
164 0 45.1435 11.0979 501 100.679 367.046 480.573
165 0 45.0537 11.8303 533 100.368 367.313 478.752
166 0 47.0259 12.7589 600 98.5417 367.767 477.982
167 0 49.0656 12.1062 594 98.8519 368.842 478.305
168 0 51.0825 14.8387 758 94.3694 368.474 477.875
169 0 53.0769 14.2623 757 95.3606 369.081 478.413
170 0 54.0959 14.2709 772 96.2953 368.039 476.903
171 0 54.0464 13.2294 715 98.7245 368.453 477.531
172 0 56.0698 13.6972 768 98.1081 368.382 475.77
173 0 59.0375 14.8042 874 94.8101 367.064 476.491
174 0 61.0886 15.5021 947 93.3168 367.308 476.316
175 0 59.0721 12.9841 767 99.3233 368.746 474.812
176 0 63.1108 15.449 975 94.1641 368.33 475.516
177 0 63.086 14.4723 913 97.9858 368.618 473.246
178 0 67.042 14.6774 984 97.3892 368.321 473.33
179 0 69.065 13.842 956 99.6768 368.091 471.471
180 0 70.0846 15.3814 1078 98.1735 367.353 471.865
181 0 76.0953 15.8486 1206 96.0763 366.692 470.233
182 0 76.0953 15.8091 1203 147.324 366.669 470.211
183 0 80.1785 16.114 1292 97.332 366.677 467.026
184 1 38.0576 11.0622 421 101.872 365.836 487.128
185 0 37.0426 10.2314 379 104.887 365.694 486.625
186 0 41.0978 12.7258 523 99.9981 365.084 485.859
187 0 44.0481 14.0528 619 96.8142 365.166 484.974
188 0 44.1212 13.055 576 100.026 364.891 484.342
189 0 47.0421 13.4348 632 99.2089 365.72 482.506
190 0 46.1426 13.4366 620 101.502 365.582 482.661
191 0 47.1339 14.0239 661 101.613 365.188 481.952
192 0 47.2935 13.9131 658 103.962 366.714 478.755
193 0 48.2815 14.519 701 102.782 366.582 479.444
194 0 49.2108 13.6555 672 104.631 366.323 478.336
195 0 52.2074 14.6531 765 102.711 366.609 478.135
196 0 51.3623 15.4977 796 102.938 366.996 477.494
197 0 54.1173 15.6697 848 101.736 367.471 477.715
198 0 56.1391 16.0316 900 100.731 366.488 476.258
199 0 58.0406 15.4719 898 102.46 367.174 475.129
200 0 57.0892 15.7998 902 103.724 366.529 474.975
201 0 59.0564 16.679 985 102.07 366.65 473.979
202 0 59.1241 16.0679 950 103.476 366.553 475.445
203 0 62.1467 17.3943 1081 101.2 366.057 474.018
204 0 64.0766 15.7468 1009 105.112 366.576 476.199
205 0 63.1275 17.0766 1078 104.472 366.761 474.864
206 0 63.1972 16.3931 1036 107.632 367.452 473.655
207 0 65.0935 17.3443 1129 104.313 367.315 475.698
208 0 64.4015 17.5927 1133 105.305 367.636 474.567
209 0 66.1003 18.9712 1254 100.867 367.362 476.347
210 0 64.1661 16.9248 1086 107.595 367.419 475.494
211 0 67.163 16.7354 1124 106.648 367.101 475.34
212 0 66.1374 16.8437 1114 108.048 366.558 473.934
213 0 67.1679 17.9997 1209 104.934 365.477 472.557
214 0 67.0917 16.947 1137 107.006 365.662 473.921
215 0 69.1049 16.7861 1160 106.496 366.207 473.541
216 0 69.1421 16.806 1162 106.87 366.263 472.527
217 0 69.1004 18.4659 1276 102.592 366.155 472.502
218 0 70.1041 16.447 1153 106.267 365.015 471.909
219 0 71.1599 16.1327 1148 106.575 364.989 472.686
220 0 69.0569 17.2756 1193 105.411 366.261 469.445
221 0 71.2047 17.1056 1218 104.258 366.1 470.35
222 0 71.1508 16.8937 1202 104.597 366.037 470.898
223 0 70.1084 17.1877 1205 104.791 366.078 468.605
224 0 72.1435 19.8077 1429 97.7719 366.498 470.153
225 0 72.1815 16.7771 1211 103.365 366.355 469.533
226 0 71.0534 16.748 1190 104.508 366.182 468.982
227 0 72.0717 17.2745 1245 102.133 367.431 469.428
228 0 72.0617 16.2361 1170 104.243 366.99 467.49
229 0 71.0951 16.274 1157 104.346 367.007 465.574
230 0 73.1426 18.0469 1320 101.186 367.092 467.83
231 0 71.084 17.3035 1230 103.354 367.254 466.82
