time division length width area intensity CMx CMy
0 0 51.3025 14.5022 744 117.542 1194.05 477.672
1 0 54.1478 15.4392 836 113.563 1192.75 478.628
2 0 54.1251 15.5011 839 113.191 1193.96 476.133
3 0 57.2133 15.2237 871 112.994 1194.48 475.87
4 0 58.2447 17.1174 997 107.718 1194.9 475.359
5 0 58.3188 15.3981 898 112.196 1193.75 474.704
6 0 59.062 16.1695 955 109.25 1194.22 472.708
7 0 61.1769 14.7605 903 114.166 1193.88 471.495
8 1 32.0721 11.5365 370 114.073 1194.16 487.641
9 0 32.0945 11.3727 365 115.375 1194.28 486.142
10 0 31.0302 12.0528 374 112.369 1193.66 487.166
11 0 35.0957 12.3377 433 112.94 1193.07 486.309
12 0 34.0431 12.7485 434 113.247 1194.32 486.157
13 0 35.0449 12.0988 424 109.21 1194.91 486.693
14 0 35.0633 12.6913 445 111.622 1194.58 484.425
15 0 35.0434 11.5856 406 113.121 1194.25 484.714
16 0 36.0908 11.9421 431 112.371 1194.41 484.629
17 0 39.0186 13.9677 545 107.813 1194.11 482.732
18 0 40.061 14.8274 594 104.311 1193.49 484.098
19 0 39.1874 13.831 542 109.71 1193.98 482.24
20 0 41.1496 13.0256 536 111.701 1192.65 482.114
21 0 43.2763 16.4293 711 106.505 1193.56 481.925
22 0 42.2736 14.9266 631 111.263 1194.35 480.956
23 0 45.0989 16.0093 722 106.392 1195.42 481.519
24 0 47.1352 14.8085 698 108.736 1195.17 481.199
25 0 46.1505 15.3628 709 110.701 1195 479.41
26 0 48.1876 14.7963 713 112.219 1197.08 478.958
27 0 51.1327 17.4253 891 104.705 1197.56 479.428
28 0 53.0917 16.5939 881 107.157 1197.08 478.341
29 0 52.1299 15.4038 803 111.879 1196.18 477.951
30 0 54.1808 14.6362 793 113.248 1197.49 476.207
31 0 54.355 14.7549 802 114.252 1197.14 474.92
32 0 56.27 16.0299 902 111.723 1197.56 474.654
33 0 59.3027 16.8964 1002 107.522 1197.87 473.966
34 0 61.2533 19.2643 1180 102.807 1197.95 473.675
35 0 64.3078 19.6244 1262 101.973 1198.95 472.25
36 0 65.2016 17.2082 1122 107.238 1197.41 471.66
37 0 65.1317 15.4303 1005 112.458 1197.54 470.284
38 0 66.1479 15.1328 1001 113.861 1197.32 469.203
39 0 70.2795 16.9466 1191 108.988 1197.02 467.755
40 0 71.1809 14.6668 1044 114.723 1198.52 467.708
41 0 75.2277 16.9884 1278 109.203 1198.24 466.237
42 0 79.17 19.7423 1563 102.985 1199.79 465.048
43 0 80.3664 17.8433 1434 106.758 1199.65 464.238
44 1 41.0802 12.6095 518 111.236 1200.41 482.739
45 0 42.0719 11.8844 500 114.074 1199.39 482.532
46 0 45.041 12.8771 580 109.307 1199.78 483.088
47 0 46.1094 12.3402 569 110.787 1199.74 482.271
48 0 45.0388 12.8778 580 111.117 1199.66 482.517
49 0 48.0197 13.3903 643 110.275 1198.45 481.331
50 0 51.0805 14.9959 766 104.879 1199.66 480.424
51 0 51.0485 15.0445 768 106.109 1199.96 479.156
52 0 52.0885 15.2049 792 106.383 1199.35 476.639
53 0 51.0904 14.5037 741 107.991 1198.95 477.381
54 0 56.1114 15.3445 861 105.099 1198.62 475.588
55 0 59.1175 17.1354 1013 100.791 1198.98 475.806
56 0 60.1289 16.132 970 103.351 1198.51 475.328
57 0 64.1611 15.4611 992 103.286 1199.53 473.907
58 0 66.0538 16.2898 1076 103.32 1199.11 471.565
59 0 68.1313 17.158 1169 101.382 1199.87 471.006
60 0 69.2346 16.5669 1147 102.585 1200.02 468.163
61 0 73.117 16.0154 1171 101.892 1200.56 468.28
62 0 75.2633 15.8245 1191 102.885 1200.91 466.458
63 0 77.3179 16.1929 1252 103.369 1201.45 463.909
64 0 78.2486 16.3581 1280 103.459 1200.58 464.533
65 0 81.3038 18.3509 1492 99.5483 1200.72 462.084
66 0 84.2311 16.9059 1424 100.927 1201.04 461.4
67 0 85.6883 15.8131 1355 102.738 1202.14 461.298
68 0 88.2333 15.7424 1389 102.48 1201.62 457.398
69 0 92.2739 15.9092 1468 100.665 1202.07 459.037
70 0 94.2376 16.4372 1549 103.058 1200.73 455.195
71 0 99.1594 16.5592 1642 103.223 1201.55 453.909
72 0 101.316 16.6903 1691 103.814 1199.88 449.574
73 0 105.125 16.3044 1714 105.146 1200.39 447.897
74 1 53.2339 12.1351 646 104.404 1200.87 476.071
75 0 55.1406 13.5835 749 102.688 1201.07 475.174
76 0 55.0919 13.9222 767 103.6 1200.76 472.721
77 0 58.0428 13.1627 764 105.49 1201.05 471.482
78 0 61.2109 14.7686 904 100.045 1200.93 472.95
79 0 62.107 15.9402 990 101.373 1201.74 471.269
80 0 65.1599 16.5132 1076 99.8392 1200.94 471.275
81 0 68.2084 15.262 1041 102.429 1200.57 470.044
82 0 69.0816 15.8798 1097 102.953 1200.28 469.801
83 0 69.0826 15.8651 1096 154.814 1199.3 469.706
84 0 76.2417 15.4246 1176 102.797 1202.11 466.298
85 0 77.216 14.3493 1108 105.027 1202 466.26
86 0 79.1745 15.9774 1265 103.324 1201.38 463.432
87 0 83.0997 16.6667 1385 101.54 1201.86 461.449
88 0 85.157 15.6065 1329 101.975 1202.05 461.607
89 1 47.083 10.7257 505 102.653 1201.91 480.119
90 0 47.0863 12.1904 574 100.606 1201.86 479.274
91 0 48.2171 12.4022 598 100.326 1202.1 478.495
92 0 50.0393 11.7508 588 100.199 1202.73 478.243
93 0 53.017 13.0713 693 99.4589 1202.27 475.879
94 0 55.1098 13.2826 732 99.541 1203.39 474.721
95 0 58.0618 16.2585 944 94.4608 1202.93 473.64
96 0 57.0681 13.9132 794 100.185 1202.13 473.501
97 0 60.0526 14.0377 843 99.5658 1201.91 472.202
98 0 61.1907 14.0708 861 99.3403 1202.83 471.93
99 0 65.1483 14.5668 949 98.0411 1202.05 471.497
100 0 66.4218 15.1155 1004 98.0239 1201.44 468.304
101 0 68.2491 15.3555 1048 97.7128 1202.82 467.663
102 0 70.1231 14.6457 1027 99.2123 1201.25 467.316
103 0 73.2977 14.4616 1060 99.7764 1201.9 466.335
104 0 74.2475 15.2328 1131 98.2246 1201.94 464.279
105 1 38.0723 10.5326 401 97.4963 1203.45 485.8
106 0 39.1947 11.4046 447 97.7696 1203.37 484.391
107 0 41.1591 11.3219 466 95.2747 1203.81 484.107
108 0 42.1538 11.8139 498 95.1586 1203.65 483.629
109 0 44.0667 12.5945 555 92.636 1203.61 484.418
110 0 45.0248 12.8152 577 93.4159 1203.18 482.44
111 0 47.1139 12.9261 609 94.1084 1203.46 481.749
112 0 48.0193 13.9111 668 93.3473 1203.61 480.93
113 0 49.1133 12.2777 603 96.3499 1203.34 479.425
114 0 51.0365 13.8332 706 92.9603 1203.67 479.884
115 0 53.0449 12.6874 673 94.1352 1203.4 479.954
116 0 54.0415 13.8782 750 92.8747 1202.09 478.665
117 0 55.218 13.7274 758 94.3549 1202.35 477.416
118 0 57.0618 14.0024 799 92.4994 1202.35 478.682
119 0 60.1691 14.8415 893 92.0045 1201.36 475.467
120 0 60.1117 13.6579 821 95.2168 1201.23 474.962
121 0 63.0787 15.7581 994 92.2968 1200.85 473.027
122 0 64.288 13.0351 838 95.8043 1200.81 474.382
123 0 67.1366 14.4184 968 94.0424 1200.07 471.628
124 0 71.1525 16.57 1179 90.564 1199.67 470.719
125 0 72.4386 15.1439 1097 94.6044 1200.55 469.474
126 0 75.2909 16.7484 1261 92.1055 1200.61 467.841
127 0 75.1939 13.9772 1051 98.5766 1199.66 466.437
128 0 79.3241 18.1408 1439 93.3051 1199.56 464.06
129 0 79.361 14.0623 1116 102.118 1200.33 463.051
130 0 83.1959 14.7123 1224 100.88 1201.34 462.9
131 0 84.3004 14.0331 1183 103.878 1200.73 461.67
132 0 89.3102 15.4182 1377 101.764 1201.45 459.299
133 0 90.3857 15.8543 1433 102.14 1201.29 458.343
134 0 94.558 16.0008 1513 99.31 1202.75 459.326
135 0 98.3997 16.2094 1595 99.6364 1202.73 457.423
136 0 100.558 15.6129 1570 101.993 1202.8 456.859
137 0 101.212 14.8006 1498 104.87 1202.88 454.585
138 0 106.52 16.0346 1708 103.105 1202.71 453.698
139 0 107.366 16.5882 1781 102.74 1202.41 452.674
140 0 110.325 15.5812 1719 105.789 1201.83 450.859
141 0 114.321 16.1213 1843 105.285 1202.1 449.265
142 0 119.484 17.3747 2076 102.481 1201.06 450.011
143 0 121.389 15.8252 1921 106.175 1200.62 447.823
144 0 127.361 15.7426 2005 106.811 1200.16 444
145 0 129.388 15.4419 1998 108.291 1201 439.849
146 0 134.34 15.7437 2115 108.113 1200.67 438.949
147 0 139.438 15.5338 2166 109.093 1201.27 437.085
148 0 144.369 16.1669 2334 107.305 1200.47 436.728
149 0 148.539 15.915 2364 108.582 1200.27 432.283
150 1 74.3667 11.766 875 106.91 1200.83 468.705
151 0 78.3398 12.0245 942 104.587 1200.41 468.436
152 0 81.2896 11.7604 956 106.43 1200.26 466.028
153 0 84.3248 12.7602 1076 104.738 1199.47 463.894
154 0 87.3236 13.8222 1207 102.723 1200.86 463.159
155 0 92.2663 15.6612 1445 99.0567 1199.98 461.244
156 0 94.4481 14.1347 1335 102.369 1199.95 458.557
157 0 97.3289 12.9663 1262 104.092 1198.93 457.246
158 1 50.6507 9.39769 476 100.147 1200.36 480.095
159 0 53.2452 10.0103 533 99.5553 1200.4 476.85
160 0 55.2454 11.6752 645 96.2357 1200.91 475.873
161 0 55.7623 11.5849 646 97.5031 1201.36 475.881
162 0 60.475 13.427 812 94.7451 1201.49 473.916
163 0 60.2333 13.7466 828 95.7621 1201.29 472.209
164 0 62.5412 13.9908 875 95.2914 1200.47 472.009
165 0 61.7085 11.133 687 100.378 1200.7 472.795
166 0 65.5187 14.0265 919 96.3188 1200.63 468.366
167 0 70.9789 14.2859 1014 93.6331 1201.78 469.498
168 0 70.7745 14.2565 1009 95.1506 1201.12 467.001
169 0 72.5003 14.7172 1067 94.9709 1201.38 467.485
170 0 75.8401 12.6582 960 98.3375 1200.46 465.792
171 0 78.6815 13.3449 1050 95.9867 1200.77 466.251
172 0 80.598 13.4743 1086 97.3738 1200.81 462.055
173 1 41.4378 8.90492 369 95.1762 1199.42 486.257
174 0 44.4078 10.2234 454 95.4824 1199.73 482.855
175 0 43.26 10.1248 438 95.1621 1201.15 482.267
176 0 46.4346 10.6817 496 95.5282 1201.29 482.617
177 0 46.0808 12.1092 558 95.2867 1202.51 482.231
178 0 51.2181 13.4523 689 92.2322 1202.05 482.556
179 0 51.3059 12.4742 640 96.9922 1200.37 479.517
180 0 52.3599 13.3881 701 95.806 1199.92 481.262
181 0 53.2838 12.3677 659 98.3429 1199.58 479.428
182 0 58.3452 12.7003 741 96.1808 1199.7 478.827
183 0 58.5735 13.1288 769 98.091 1199.92 475.155
184 0 61.3085 13.5381 830 94.894 1199.83 476.633
185 0 62.3921 14.6493 914 94.8982 1199.54 473.333
186 0 62.3941 12.9339 807 99.3891 1198.91 473.976
187 0 64.2456 13.9776 898 96.7661 1198.77 473.695
188 0 68.443 15.3558 1051 94.6546 1198.18 470.492
189 0 68.3425 13.6079 930 99.4645 1198.55 467.894
190 0 72.435 14.5648 1055 97.7886 1198.35 466.52
191 0 73.31 13.5179 991 100.785 1198.12 466.245
192 0 77.5885 14.5511 1129 98.7068 1199.17 464.665
193 1 42.1544 9.86849 416 101.284 1199.14 481.478
194 0 45.1472 12.6254 570 96.8105 1198.96 479.804
195 0 45.1021 11.5737 522 98.1839 1199.41 481.096
196 0 47.0511 11.6257 547 97.7879 1200.32 480.201
197 0 46.1627 11.0479 510 100.631 1199.5 477.147
198 0 49.1256 12.4172 610 96.3869 1198.34 479.956
199 0 50.3054 12.603 634 97.7839 1198.9 477.569
200 0 52.2843 12.1069 633 98.9368 1198.43 479.327
201 0 54.3068 13.2212 718 96.1922 1198.54 479.389
202 0 54.225 12.5219 679 98.5538 1198.71 477.244
203 0 57.1446 13.7546 786 95.1628 1198.23 478.003
204 0 57.3526 13.6698 784 97.2589 1199.05 477.55
205 0 59.0331 15.0085 886 94.5813 1199.99 477.421
206 0 60.1314 14.3519 863 96.5307 1200.51 476.233
207 0 63.1013 13.5813 857 97.0315 1200.61 476.548
208 0 61.1195 13.1218 802 100.052 1200.76 474.158
209 0 63.1741 13.075 826 100.133 1200.35 474.608
210 0 66.1966 13.475 892 98.5594 1200.75 474.438
211 0 69.2004 14.6675 1015 95.1852 1200.47 474.547
212 0 70.1498 14.3122 1004 97.8865 1199.94 471.125
213 0 73.0997 14.706 1075 96.5591 1198.81 470.129
214 0 76.0992 15.2038 1157 95.5635 1199.18 469.191
215 0 78.1981 13.8622 1084 98.3137 1199.69 466.038
216 0 80.1412 13.314 1067 100.711 1199.45 465.486
217 0 82.1412 16.1551 1327 95.0226 1199.37 463.523
218 0 86.2834 14.5683 1257 98.3667 1198.2 463.125
219 0 89.3896 15.5387 1389 97.0086 1197.94 459.462
220 1 48.2633 11.0021 531 96.6196 1199.07 482.394
221 0 47.2549 10.4328 493 97.501 1199.1 482.426
222 0 48.2669 11.2707 544 98.4007 1198.92 479.642
223 0 52.3261 13.263 694 92.6412 1199.06 479.736
224 0 53.3709 14.2587 761 91.2326 1199.2 479.351
225 0 54.3062 13.0556 709 94.1326 1199.21 477.547
226 0 55.3082 13.3434 738 96.0664 1198.76 475.026
227 0 55.2043 12.8975 712 96.5815 1200 474.92
228 0 59.3192 13.5875 806 94.9355 1199.76 473.891
229 0 58.3122 13.3591 779 96.3094 1199.74 473.08
230 0 63.3609 13.1943 836 94.7069 1199.78 473.078
231 0 63.3374 13.3255 844 95.6351 1200.04 471.936
232 0 65.2502 13.931 909 94.3773 1201.72 468.716
233 0 69.2769 14.738 1021 93.1303 1201.95 470.142
234 0 69.3866 13.5617 941 96.1211 1200.87 467.825
235 0 72.715 13.9174 1012 95.1047 1201.45 468.469
236 0 74.3755 13.1764 980 98.2816 1200.95 466.759
237 0 75.4577 12.1525 917 100.122 1200.74 467.031
238 0 79.4136 13.7508 1092 97.3233 1201.02 465.335
239 0 83.4709 14.4002 1202 96.7887 1201.58 466.358
240 0 82.384 13.959 1150 99.3113 1201.49 463.299
241 0 87.3953 15.8704 1387 95.4304 1201.11 463.363
242 0 88.4799 12.6808 1122 101.184 1200.56 463.288
243 1 49.294 9.87951 487 99.4825 1201.28 482.497
244 0 51.2302 10.7554 551 95.9927 1201.89 483.8
245 0 52.2382 11.7539 614 96.2964 1201.55 481.855
246 0 52.3771 12.1618 637 97.19 1200.23 479.369
247 0 54.2934 13.2244 718 94.688 1200.09 478.801
248 0 57.3212 12.9795 744 93.5349 1199.47 478.052
249 0 59.2793 12.4158 736 94.8207 1198.41 479.027
250 0 61.4027 13.9245 855 91.7977 1199.32 476.792
251 0 61.2848 13.9676 856 92.6834 1199.07 473.968
252 0 60.1869 13.0427 785 94.8892 1199.59 474.791
253 0 65.2511 13.8542 904 93.9137 1199.11 470.69
254 0 64.2161 12.9874 834 96.5036 1198.15 470.908
255 0 67.2975 13.002 875 96.4023 1199.39 468.958
256 0 70.1892 12.9507 909 96.4378 1199.58 467.641
257 0 73.2169 14.1088 1033 94.2314 1199.22 465.186
258 0 74.2591 13.3721 993 95.0987 1198.92 465.668
259 0 76.1897 13.5451 1032 94.9264 1200.51 463.589
260 0 78.2423 13.9055 1088 94.4494 1200.87 463.168
261 0 83.2568 13.2362 1102 94.8612 1199.94 460.992
262 0 83.2099 13.7003 1140 95.114 1200.92 458.275
263 0 87.2363 15.0855 1316 92.2774 1201.63 458.872
264 0 88.1455 14.045 1238 95.0202 1202.3 456.191
265 0 88.3501 12.2354 1081 98.4524 1202.4 455.442
266 0 96.3426 14.7702 1423 93.4434 1202.72 454.257
267 1 50.1769 7.87215 395 96.7013 1204.49 477.038
268 0 54.2046 10.0176 543 94.1031 1204.35 475.821
269 0 55.2764 12.2114 675 90.6919 1204.75 476.553
270 0 57.2375 11.5658 662 90.6828 1204.49 478.716
271 0 59.1738 12.2352 724 90.7348 1204.3 475.978
272 0 59.1909 12.1809 721 91.9626 1203.35 473.379
273 0 65.0948 13.7799 897 88.4392 1202.72 476.019
274 0 64.1389 12.9718 832 89.9315 1201.9 477.843
275 0 66.1777 12.3758 819 90.8364 1202.14 475.46
276 0 67.1647 13.4743 905 91.1823 1200.4 474.581
277 0 71.1898 13.6396 971 90.4902 1201.67 474.664
278 0 72.1183 13.977 1008 90.1964 1201.77 472.644
279 0 75.4037 13.9516 1052 90.3365 1201.26 470.379
280 0 75.2622 14.4827 1090 90.9101 1200.5 468.855
281 0 79.2173 11.9923 950 92.8116 1201.57 469.573
282 0 80.2808 13.3033 1068 93.471 1200.99 465.335
283 0 83.1828 13.8971 1156 93.4135 1201.04 465.119
284 0 86.138 14.5929 1257 92.9332 1200.05 467.02
285 0 87.3645 14.8802 1300 94.2977 1199.49 462.838
286 0 91.4435 14.8835 1361 95.2726 1198.62 460.813
287 0 92.4195 14.748 1363 96.5708 1197.89 458.176
288 0 95.1802 15.0451 1432 96.4239 1198.07 458.796
289 0 98.2048 14.8974 1463 97.3021 1198.45 455.883
290 0 100.173 15.9025 1593 96.678 1198.89 454.066
291 0 104.245 16.0199 1670 96.1868 1199.24 453.33
292 0 108.221 15.7548 1705 96.9355 1199.66 450.845
293 0 112.237 17.0621 1915 95.4021 1201.14 449.094
294 0 116.33 17.1581 1996 94.6748 1201.08 448.594
295 0 119.316 16.2175 1935 97.431 1201.87 445.387
296 0 124.348 17.4751 2173 95.5624 1202.23 444.884
297 0 128.433 16.9427 2176 97.9665 1203.07 442.123
298 0 133.497 16.345 2182 98.8621 1202.71 440.195
299 0 137.364 16.3725 2249 99.1663 1201.06 439.749
300 0 143.721 15.9894 2298 99.2141 1202.13 436.027
301 0 147.358 17.4745 2575 97.6924 1201.53 433.106
302 0 153.691 15.7654 2423 100.554 1201.98 431.253
303 0 160.766 18.3994 2958 95.6643 1202.21 428.094
304 1 78.5809 12.9421 1017 92.7945 1202.34 471.85
305 0 81.4741 12.7525 1039 94.667 1202.04 471.139
306 0 83.263 13.9918 1165 95.1845 1202.1 467.949
307 0 85.406 12.3293 1053 98.8509 1201.11 468.387
308 0 88.2645 12.4965 1103 99.4606 1200.29 465.694
309 0 90.3737 14.086 1273 98.5389 1200.13 463.191
310 0 94.5513 12.7021 1201 101.576 1199.81 463.157
311 0 97.4965 12.5133 1220 102.353 1199.2 462.777
312 0 102.41 12.5281 1283 103.63 1198.88 459.876
313 0 104.431 14.4689 1511 101.607 1198.48 455.972
314 0 108.581 13.4831 1464 103.098 1199.11 455.317
315 0 112.524 14.1659 1594 103.868 1197.74 451.008
316 0 116.379 14.3669 1672 103.41 1198.03 450.316
317 0 119.472 14.1958 1696 105.4 1197.96 448.075
318 0 124.489 13.6237 1696 106.246 1198.62 446.751
319 1 70.3376 12.2836 864 100.233 1199.11 470.55
320 0 71.3184 11.5819 826 100.446 1198.57 471.214
321 0 73.2589 12.5036 916 99.0448 1198.66 470.37
322 0 77.2258 13.8037 1066 98.1745 1198.82 466.417
323 0 79.4217 13.5353 1075 99.36 1199.46 466.409
324 0 81.273 13.7192 1115 99.4296 1201.31 463.75
325 0 82.3291 12.0614 993 103.003 1202.06 464.315
326 0 85.4268 13.3096 1137 100.216 1203.05 463.196
327 0 90.5795 13.0162 1179 101.074 1203.27 460.535
328 0 91.4473 12.1709 1113 102.373 1203.24 460.252
329 0 95.3909 14.0894 1344 98.9241 1201.66 456.548
330 0 100.447 15.2319 1530 94.6542 1202.62 458.612
331 0 101.477 12.8403 1303 100.612 1201.44 453.945
332 0 105.547 13.1032 1383 100.401 1202.03 452.481
333 0 110.46 14.666 1620 97.0494 1201.91 450.059
334 0 112.657 13.7763 1552 100.7 1203.05 448.74
335 0 116.65 13.7505 1604 101.772 1201.38 446.25
336 0 123.6 14.5793 1802 99.2153 1201.6 444.839
337 0 127.587 13.8808 1771 101.874 1201.15 442.974
338 0 132.889 14.7116 1955 100.021 1200.73 439.439
339 1 72.4622 11.3852 825 99.9345 1201.25 469.672
340 0 77.4882 11.9889 929 96.3617 1201.11 472.955
341 0 78.2853 12.48 977 93.6622 1200.87 469.667
342 0 82.1716 13.63 1120 92.4116 1199.9 468.274
343 0 84.3185 14.6824 1238 91.9459 1199.43 464.314
344 0 83.2381 11.2689 938 98.1258 1198.41 466.184
345 0 89.3356 14.7198 1315 91.7749 1197.99 465.169
346 0 89.279 12.825 1145 96.407 1197.2 463.246
347 0 92.444 13.7813 1274 93.9623 1197.1 460.285
348 0 95.2395 13.3978 1276 94.7375 1197.53 458.284
349 0 96.4096 14.2724 1376 93.6788 1197.93 456.837
350 0 102.327 15.4994 1586 90.8115 1198.01 454.883
351 0 106.314 14.4007 1531 91.9001 1197.95 453.065
352 0 108.312 14.2736 1546 92.0142 1197.74 449.342
353 0 111.458 14.9653 1668 90.7452 1199.07 445.228
354 0 114.623 13.3917 1535 93.7368 1199.29 444.593
355 0 118.43 14.5065 1718 91.9098 1200.26 444.621
356 0 121.509 13.9496 1695 93.1835 1200.5 443.214
357 0 127.493 14.793 1886 91.2147 1201.28 438.675
358 0 131.53 13.1681 1732 94.3337 1201.56 436.902
359 0 133.44 12.3276 1645 96.0067 1201.74 435.951
360 0 139.404 13.4645 1877 94.0416 1202.44 432.539
361 1 76.3353 11.5543 882 93.1576 1202.78 467.008
362 0 74.2929 9.65099 717 97.1283 1203.14 462.439
363 0 80.1003 11.4981 921 92.0076 1203.37 462.749
364 0 85.1279 14.8952 1268 88.3226 1203.32 463.329
365 0 87.1371 13.8632 1208 90.7376 1203.54 465.022
366 0 90.2115 17.7139 1598 83.9549 1203.63 466.031
367 0 91.3082 13.7227 1253 92.6616 1202.62 459.825
368 0 96.216 15.4548 1487 89.4062 1202.33 457.426
369 0 100.305 14.3761 1442 92.111 1201.2 456.356
370 0 103.307 14.5585 1504 91.8684 1200.48 453.513
371 0 106.209 14.2738 1516 92.3839 1199.97 455.21
372 0 112.236 14.1399 1587 92.896 1199.91 450.523
373 0 115.385 14.0746 1624 94.1355 1199.16 448.778
374 0 119.411 15.7021 1875 91.5723 1198.5 445.523
375 0 123.714 16.53 2045 91.1575 1197.98 443.833
376 0 125.577 15.4965 1946 93.1593 1197.84 442.328
377 0 131.402 15.6542 2057 93.5644 1197.6 437.463
378 0 137.328 15.9472 2190 93.6553 1197.12 442.173
379 1 74.0916 10.6625 790 97.1203 1196.35 469.477
380 0 79.0819 11.937 944 94.6102 1197.68 466.146
381 0 81.2474 11.4958 934 95.3084 1197 466.746
382 0 85.1684 14.9116 1270 88.8614 1196.91 461.933
383 0 89.2121 13.877 1238 90.546 1197.56 462.121
384 0 89.1743 14.3203 1277 91.2349 1197.51 458.861
385 0 93.2402 14.2321 1327 91.0505 1198.34 457.653
386 0 96.166 14.6413 1408 89.1996 1198.83 459.32
387 0 98.2311 13.7024 1346 91.8819 1200.17 455.074
388 0 103.274 14.9312 1542 88.8294 1202.14 452.468
389 0 107.383 15.8125 1698 86.9658 1202.49 452.986
390 0 111.26 14.5785 1622 88.1282 1203.59 454.553
391 0 115.275 15.0683 1737 87.7467 1203.64 448.612
392 0 118.436 13.9654 1654 88.9655 1204.23 448.719
393 0 123.436 13.4159 1656 90.5731 1204.04 446.743
394 0 128.342 13.8225 1774 90.2018 1204.29 445.218
395 0 134.338 15.6174 2098 87.9881 1204.56 442.821
396 0 139.424 15.0261 2095 89.1174 1204.69 439.837
397 0 146.452 14.6123 2140 89.8486 1204.56 441.39
398 0 151.569 15.6826 2377 90.9495 1203.15 434.586
399 0 157.458 14.6007 2299 92.8295 1202.96 432.701
400 1 83.2344 12.9874 1081 90.1323 1203.84 469.093
401 0 87.148 13.8959 1211 88.0446 1201.15 466.703
402 0 88.0602 14.3084 1260 88.8484 1201.21 465.416
403 0 91.1102 14.927 1360 88.9147 1200.6 462.874
404 0 95.1607 14.9116 1419 89.1268 1199.36 461.818
405 0 96.2899 13.179 1269 92.5083 1199.91 458.827
406 0 100.229 14.0877 1412 91.495 1199.25 455.55
407 0 101.254 12.0884 1224 95.5474 1198.71 454.258
408 0 109.232 14.6386 1599 91.142 1199.05 452.926
409 0 112.3 14.8174 1664 91.4934 1198.8 450.419
410 0 115.169 13.9968 1612 93.8176 1198.03 448.898
411 1 54.0646 10.7649 582 88.3093 1199.66 479.804
412 0 58.0862 12.9979 755 83.6238 1199.79 478.645
413 0 59.0952 10.1531 600 89.5633 1200.27 477.272
414 0 60.1303 12.1237 729 87.7023 1200.28 472.805
415 0 62.0987 12.7539 792 88.6629 1201.51 475.6
416 0 65.0785 14.9819 975 85.7231 1201.9 473.105
417 0 67.154 12.9553 870 90.7897 1203.39 471.697
418 0 69.2351 13.3314 923 90.0119 1204.24 471.388
419 0 71.1203 13.4139 954 90.9382 1205.41 469.187
420 0 72.0658 12.1001 872 93.2626 1205.24 472.015
421 0 75.1301 13.7894 1036 92.418 1205.57 470.24
422 0 78.12 14.2345 1112 91.5081 1206.48 468.871
423 0 80.1051 13.0454 1045 94.1885 1206.83 470.225
424 0 84.1717 15.8723 1336 88.2425 1206.33 469.03
425 1 41.0859 10.6119 436 92.867 1206.39 488.998
426 0 42.1445 10.5826 446 94.5987 1205.67 488.639
427 0 44.0672 12.2086 538 89.7658 1204.91 490.704
428 0 46.0945 12.2357 564 89.5443 1204.48 490.775
429 0 49.2028 13.0684 643 90.6501 1202.63 486.465
430 0 48.2242 13.375 645 89.7597 1203.04 489.746
431 0 51.3672 12.654 650 91.8615 1201.75 488.106
432 0 50.3001 12.0079 604 94.1573 1201.46 487.831
433 0 54.3543 13.9639 759 90.8854 1200.59 485.175
434 0 55.3242 13.8999 769 92.5345 1198.95 482.741
435 0 57.2734 12.6935 727 94.132 1199.78 482.985
436 0 58.0912 13.2206 768 93.3112 1200.88 481.805
437 0 60.0486 13.8221 830 92.9554 1199.44 479.149
438 0 60.0977 13.4281 807 95.4647 1199.87 478.264
439 0 62.1161 13.4104 833 95.7887 1199.73 475.415
440 0 64.144 13.9997 898 94.5624 1199.61 475.399
441 0 67.1434 13.0765 878 95.5626 1198.43 473.091
442 0 68.1394 13.4577 917 96.3566 1199.5 470.64
443 1 38.1954 10.1321 387 98.5866 1198.8 485.217
444 0 38.1102 10.6796 407 96.769 1199.37 485.69
445 0 42.2737 10.7395 454 95.0286 1200.52 485.258
446 0 44.2086 11.1743 494 95.666 1201.17 483.164
447 0 41.1498 11.0086 453 97.3046 1202.58 483.4
448 0 45.1061 14.3218 646 89.743 1203.62 484.065
449 0 45.1061 14.2553 643 142.112 1204.63 484.159
450 0 48.0751 15.455 743 88.1036 1204.92 484.764
451 0 51.2127 15.0939 773 88.2484 1205.23 483.928
452 0 52.2001 13.2184 690 91.7739 1205.9 483.645
453 0 56.3299 14.4328 813 88.5338 1206.45 484.351
454 0 57.3329 15.6804 899 86.4583 1205.83 485.343
455 0 58.1057 14.5941 848 90.9198 1204.52 482.199
456 0 58.1835 14.8152 862 91.5197 1204.77 480.602
457 0 59.2571 13.5511 803 94.5529 1204.83 482.507
458 0 62.2751 13.9382 868 94.5829 1204.32 482.138
459 0 62.1992 13.2799 826 96.4722 1204.29 481.387
460 0 67.2955 14.5329 978 93.0051 1203.75 479.917
461 0 67.2906 14.2368 958 94.666 1203.98 477.692
462 0 71.1923 15.5635 1108 92.9404 1202.9 476.532
463 0 71.1414 12.5665 894 98.4083 1201.73 476.176
464 0 75.3184 15.6403 1178 92.3073 1201.52 473.872
465 0 77.2175 13.4814 1041 96.3842 1198.91 470.243
466 0 81.1991 15.9731 1297 90.9769 1198.68 471.347
467 1 42.0367 11.9657 503 95.4791 1200.05 488.694
468 0 42.0579 9.34425 393 97.8524 1199.13 488.827
469 0 43.0822 10.538 454 100.137 1198.27 484.267
470 0 45.0918 12.53 565 95.485 1197.4 483.31
471 0 47.1535 12.9365 610 93.2951 1195.92 482.285
472 0 50.0669 13.442 673 91.8217 1196.31 481.204
473 0 50.2126 12.4272 624 95.5208 1197.86 480.255
474 0 52.3013 13.1546 688 96.6235 1198.01 479.823
475 0 52.1851 13.6054 710 97.3423 1198.74 478.175
476 0 53.3395 15.4295 823 92.13 1200.48 477.893
477 0 57.1807 14.2706 816 92.7561 1201.41 477.108
478 0 59.1783 15.9518 944 88.2818 1203.55 476.108
479 0 59.3078 13.8768 823 92.6136 1205.17 476.337
480 0 62.2105 14.885 926 90.1922 1205.43 477.119
481 0 63.3199 13.7398 870 92.8034 1206.68 475.339
482 0 65.2182 14.5818 951 91.4511 1207.19 474.801
483 0 68.3328 14.4147 985 91.2152 1206.38 475.36
484 0 70.2448 14.122 992 92.9516 1205.99 475.924
485 0 72.1866 13.8945 1003 94.662 1205.64 472.102
486 0 75.1871 14.3376 1078 92.8052 1204.73 472.387
487 0 79.1833 14.1949 1124 92.7278 1204.2 472.486
488 0 83.2185 16.6309 1384 89.198 1203.31 471.208
489 1 40.076 10.2306 410 94.8634 1204.3 491.173
490 0 45.0968 11.176 504 92.0337 1204.06 490.639
491 0 47.0543 10.5623 497 94.0946 1203.03 489.072
492 0 47.0223 11.2712 530 93.683 1201.98 487.702
493 0 51.0913 12.4091 634 92.7492 1199.96 485.021
494 0 53.0493 13.0822 694 92.5994 1201.36 483.378
495 0 53.2427 13.5418 721 93.5534 1199.26 480.931
496 0 55.2256 14.6852 811 92.7139 1198.84 480.11
497 0 58.2137 14.9106 868 90.9942 1198.89 479.076
498 0 59.4052 13.248 787 94.9479 1198.19 477.586
499 0 60.2874 13.9001 838 94.457 1198.09 474.661
500 0 63.1893 13.6732 864 94.6817 1197.85 473.27
501 0 63.5147 13.241 841 95.5862 1198.73 470.465
502 0 67.1783 14.0373 943 94.0477 1199.81 470.424
503 0 67.1823 12.8754 865 97.8277 1200.2 468.792
504 0 73.3909 15.6695 1150 91.8696 1201.55 468.717
505 0 76.29 14.1827 1082 94.6349 1201.94 467.48
506 0 77.5114 14.2173 1102 94.6552 1202.25 468.416
507 0 80.3283 15.2748 1227 94.0383 1204.23 464.821
508 1 43.3205 11.2418 487 93.3142 1207.65 486.209
509 0 46.3889 10.9293 507 95.359 1208.42 485.211
510 0 48.1224 11.4084 549 94.9016 1207.59 485.339
511 0 49.164 11.7159 576 94.3611 1208.48 485.688
512 0 53.1697 12.9209 687 93.4483 1208.72 484.814
513 0 52.328 14.562 762 92.7192 1207.91 485.143
514 0 55.1196 13.7701 759 95.6364 1207.2 483.37
515 0 58.0969 15.0783 876 93.8642 1206.5 485.545
516 0 58.1568 14.4609 841 99.3389 1205.41 484.222
517 0 62.0639 15.3713 954 94.3679 1203.93 481.893
518 0 64.0877 14.4177 924 96.6342 1202.69 483.392
519 0 68.036 14.4776 985 95.4142 1201.91 480.333
520 0 71.3028 14.9784 1068 93.6292 1200.08 480.388
521 0 73.1962 14.2904 1046 94.9417 1200 480.469
522 1 39.1519 11.1361 436 94.6651 1199 495.688
523 0 41.034 10.4304 428 96.6916 1197.88 493.376
524 0 42.0315 11.2297 472 95.5678 1196.23 492.356
525 0 43.0183 10.8094 465 97.2624 1196.03 491.89
526 0 47.0517 11.838 557 95.1741 1194.96 489.363
527 0 46.0745 12.8922 594 94.638 1194.82 486.613
528 0 49.2684 13.2336 652 93.5184 1193.74 485.152
529 0 48.0459 13.9242 669 92.7907 1193.37 484.025
530 0 50.1576 12.1816 611 95.5434 1194.63 484.227
531 0 51.0314 11.9534 610 95.9033 1195.5 484.156
532 0 53.0634 12.7395 676 95.2633 1194.88 482.713
533 0 54.1072 12.0502 652 97.3129 1194.3 479.854
534 0 57.2014 13.9507 798 94.1316 1195.17 481.337
535 0 59.1337 14.0529 831 94.9495 1196.28 479.795
536 0 61.2371 12.4108 760 97.9684 1198.67 480.683
537 0 64.2249 14.0288 901 96.1876 1200.8 481.221
538 0 64.2835 12.5538 807 100.446 1201.86 477.499
539 1 37.016 8.72596 323 96.6904 1204.08 498.508
540 0 39.1856 10.2078 400 96.575 1204.04 498.072
541 0 40.0718 8.45981 339 100.254 1203.91 499.451
542 0 45.2316 11.9165 539 96.6568 1202.57 497.095
543 0 44.0398 11.921 525 99.4171 1200.59 496.678
544 0 47.0589 13.6425 642 96.7103 1200.48 495.517
545 0 49.295 13.9771 689 97.0058 1198.08 495.544
546 0 47.2783 12.9446 612 102.665 1196.14 494.402
547 0 51.2155 13.3553 684 100.744 1195 492.715
548 0 54.2392 14.4914 786 98.383 1194.29 490.612
549 0 53.1619 13.0168 692 103.986 1193.09 488.147
550 0 54.3652 12.7103 691 105.994 1191.65 486.46
551 0 58.1693 14.4062 838 103.419 1191.16 486.551
552 0 60.1092 15.0393 904 102.521 1190.38 484.455
553 0 62.318 15.3567 957 102.739 1189.57 480.391
554 0 64.3419 16.4279 1057 100.733 1188.76 477.46
555 0 67.4306 15.3936 1038 102.54 1188.13 476.942
556 0 70.3954 15.3419 1080 101.99 1188.41 473.09
557 0 73.4019 16.2666 1194 99.6851 1188.26 472.188
558 0 74.5548 15.5188 1157 102.709 1189.22 468.225
559 0 77.5334 14.11 1094 106.25 1189.83 466.012
560 1 39.1426 11.3942 446 104.462 1190.49 484.825
561 0 42.2147 11.8916 502 101.552 1191.62 484.803
562 0 44.1873 12.017 531 102.71 1193.96 484.194
563 0 44.0287 11.8332 521 104.38 1197.34 483.029
564 0 47.0745 14.2965 673 99.0074 1198.62 482.459
565 0 47.2955 13.0879 619 100.024 1200.23 483.494
566 0 49.2631 11.5299 568 102.43 1202.36 484.722
567 0 53.2023 14.6046 777 96.1699 1204 484.663
568 0 54.2215 13.3895 726 98.6185 1204.84 483.753
569 0 55.1366 12.8046 706 101.17 1204.15 483.268
570 0 58.1832 12.8216 746 100.44 1203.82 484.353
571 0 61.2417 14.0101 858 98.1364 1202.71 482.875
572 0 63.2104 13.8268 874 98.8833 1200.81 480.767
573 0 66.2653 14.3816 953 97.7261 1200 482.166
574 0 68.3383 12.7893 874 101.207 1200.23 481.125
575 0 71.2648 13.3306 950 99.6884 1198.91 482.254
576 0 75.2452 13.8614 1043 99.4525 1197.42 480.316
577 1 41.0791 11.3683 467 98.6296 1196.99 496.223
578 0 42.0263 10.3507 435 100.492 1195.81 495.232
579 0 45.0407 11.5451 520 97.7635 1195.33 494.606
580 0 44.0728 11.3902 502 100.185 1193.92 492.835
581 0 47.0443 11.4148 537 97.6927 1193.96 491.983
582 0 46.0319 12.361 569 98.1424 1192.8 488.494
583 0 48.068 11.671 561 97.1105 1191.99 487.786
584 0 49.1653 12.3868 609 94.7833 1190.36 487.376
585 0 50.2501 13.5323 680 93.7676 1190.22 484.209
586 0 51.2336 12.4528 638 95.4828 1190.77 484.05
587 0 55.2608 13.7168 758 93.0343 1191.14 482.03
588 0 54.1409 13.2986 720 95.0403 1191.54 480.088
589 0 56.3433 13.1693 742 95.531 1192.54 480.139
590 0 61.221 13.6881 838 93.389 1193.82 479.925
591 0 61.1799 13.9098 851 94.3948 1194.18 478.02
592 0 65.14 14.3537 935 93.3187 1194.31 476.498
593 0 67.3536 14.1937 956 95.0418 1196.85 476.449
594 0 69.3159 14.47 1003 96.8036 1199.04 475.279
595 0 70.228 14.097 990 98.199 1201.48 476.242
596 0 76.3594 14.4187 1101 96.8347 1203.27 474.7
597 0 77.1744 13.6703 1055 100.863 1202.84 476.008
598 0 82.1819 14.5653 1197 98.8095 1203.05 476.005
599 0 83.1632 13.0827 1088 102.274 1202.53 474.953
600 1 48.1379 11.0308 531 101.04 1202.67 492.753
601 0 53.2039 11.3714 605 99.7124 1200.23 495.547
602 0 54.2005 11.5497 626 99.3834 1200.37 495.198
603 0 56.1045 13.3145 747 97.577 1198.26 496.631
604 0 58.0464 12.111 703 97.6558 1198.47 496.549
605 0 59.3201 13.1659 781 95.8054 1195.25 495.969
606 0 64.1205 13.8021 885 94.8113 1193.42 495.016
607 0 66.2511 16.0148 1061 92.4232 1191.55 492.893
608 0 67.2686 14.1671 953 96.8395 1190.42 493.081
609 0 68.3475 13.8118 944 98.6631 1189.77 490.289
610 0 72.2762 15.0257 1086 97.337 1189.78 488.789
611 0 75.3824 17.0066 1282 94.4314 1189.13 487.158
612 0 79.1239 16.0761 1272 97.3097 1188.99 485.142
613 0 82.3792 14.0327 1156 102.63 1187.46 484.779
614 0 83.3569 14.192 1183 103.759 1187.43 480.522
615 1 43.2601 11.3037 489 103.699 1186.72 500.035
616 0 45.2535 11.5792 524 103.916 1186.77 496.601
617 0 49.4708 12.6741 627 101.856 1187.5 495.191
618 0 50.3371 13.1513 662 101.326 1186.72 493.556
619 0 51.2788 13.3584 685 100.342 1187.1 493.139
620 0 53.1167 13.0656 694 99.4078 1187.82 491.782
621 0 53.1841 14.4968 771 101.41 1190.03 490.599
622 0 57.1032 13.9747 798 100.158 1191.02 490.49
623 0 60.2543 14.0737 848 99.5177 1191.98 490.172
624 0 61.1454 14.1466 865 100.182 1193.71 488.77
625 0 64.3591 14.7143 947 98.1552 1194.43 488.787
626 0 65.2252 14.6722 957 99.4075 1194.39 487.951
627 0 70.3486 13.9733 983 99.4822 1194.7 487.06
628 0 70.3111 14.5496 1023 100.454 1194.05 486.03
629 0 74.6786 14.944 1116 100.178 1194.71 486.019
630 0 77.5578 14.428 1119 101.384 1193.16 489.155
631 0 80.2907 14.8959 1196 102.652 1193.18 488.2
632 0 84.3441 15.4723 1305 102.604 1192.79 486.11
633 0 87.3458 15.4901 1353 102.694 1191.26 487.724
634 0 90.4477 16.7832 1518 102.132 1190.84 485.356
635 1 45.1134 11.5708 522 103.544 1191.12 509.617
636 0 46.1457 12.6556 584 104.579 1189.78 505.729
637 0 49.1278 11.8263 581 105.196 1188.47 507.095
638 0 50.0534 13.9651 699 103.565 1186.43 504.569
639 0 52.0891 13.2657 691 105.596 1184.45 501.139
640 0 53.0234 15.182 805 102.945 1184.61 499.599
641 0 54.2362 13.6256 739 105.286 1182.72 498.464
642 0 58.1557 15.9744 929 99.4004 1182.59 497.326
643 0 58.1697 14.0279 816 105.05 1182.06 492.812
644 0 61.1792 14.5801 892 103.313 1183.29 493.288
645 0 63.2017 14.0344 887 105.912 1183.79 490.822
646 0 64.1979 14.3151 919 106.211 1184.83 490.701
647 0 66.1994 14.5621 964 106.121 1185.26 488.485
648 0 67.1332 13.868 931 108.987 1186.7 488.546
649 0 72.3554 14.2353 1030 106.896 1188.09 486.205
650 0 75.2762 13.5235 1018 108.603 1189.36 485.911
651 0 77.3506 14.9837 1159 106.51 1191.33 482.424
652 0 79.1734 13.982 1107 108.89 1192.81 481.713
653 0 82.2075 14.1471 1163 107.151 1194.66 482.319
654 0 88.127 14.7855 1303 104.457 1195.38 482.111
655 0 91.1882 15.4187 1406 103.814 1196.27 479.095
656 1 49.0225 9.64862 473 105.666 1196.94 501.609
657 0 52.0579 11.9098 620 101.482 1196.14 501.092
658 0 55.242 12.8344 709 100.561 1195.4 500.821
659 0 58.2105 13.726 799 99.4318 1195.95 499.402
660 0 60.3672 12.2252 738 101.245 1195.03 498.117
661 0 63.3392 13.2146 837 99.8554 1193.42 496.139
662 0 65.4746 13.5778 889 100.066 1193.17 493.919
663 0 70.2095 13.6734 960 98.7083 1191.37 491.875
664 0 70.297 12.9166 908 99.0209 1190.47 489.122
665 0 75.2883 13.8667 1044 96.5862 1189.26 485.966
666 0 79.4727 13.5141 1074 94.3464 1188.24 483.795
667 0 83.393 14.5216 1211 93.2444 1186.87 481.986
668 0 84.429 12.4602 1052 97.5447 1187.16 478.833
669 1 43.0782 8.47296 365 95.0219 1187.28 499.995
670 0 46.0253 9.5165 438 92.9224 1187.41 497.174
671 0 48.1039 10.0408 483 95.2402 1187.47 492.689
672 0 49.0417 10.6848 524 94.8225 1188.42 491.966
673 0 51.0608 11.2219 573 95.8464 1188.44 491.194
674 0 53.1509 13.678 727 93.1761 1189.28 489.322
675 0 53.3012 14.2773 761 94.9014 1189.1 485.175
676 0 57.3223 13.1362 753 94.9867 1190.13 488.725
677 0 59.2172 13.3914 793 96.3632 1191.7 484.672
678 0 60.2151 13.2525 798 96.5639 1192.48 484.674
679 0 63.1631 13.6314 861 95.8304 1194.42 483.174
680 0 65.1887 13.8981 906 95.5839 1197.48 480.611
681 0 70.2188 15.4375 1084 91.4225 1199.19 480.94
682 0 71.1553 13.7586 979 95.1307 1200.64 480.099
683 0 74.3417 13.7742 1024 94.5293 1200.82 481.094
684 0 75.3148 12.8793 970 97.3103 1200.92 479.362
685 1 39.1275 8.94511 350 96.5257 1204.54 501.194
686 0 41.0517 12.1798 500 95.15 1202.8 499.566
687 0 43.0174 11.2978 486 95.5412 1202.74 500.967
688 0 43.0673 10.2862 443 100.165 1201.81 499.214
689 0 47.107 11.442 539 97.8738 1199.52 499.67
690 0 50.1406 15.1574 760 90.2539 1199.23 498.964
691 0 50.0202 13.3946 670 96.5104 1197.76 497.184
692 0 52.2033 13.8497 723 98.2351 1196.63 495.232
693 0 51.3378 13.6547 701 99.505 1195.13 494.347
694 0 56.2552 14.3276 806 97.3164 1193.37 490.422
695 0 57.1886 14.391 823 98.3062 1191.37 489.244
696 0 58.1257 14.6751 853 99.5557 1190.34 485.551
697 0 61.1406 14.6711 897 99.146 1189.86 484.45
698 0 62.2054 13.9698 869 101.64 1190.13 481.483
699 0 67.2164 14.0144 942 98.9904 1191.08 480.988
700 0 68.1786 15.5474 1060 98.1406 1191.02 478.098
701 0 71.1733 16.509 1175 95.2936 1191.44 477.466
702 1 38.0467 12.0115 457 99.6543 1193.45 492.519
703 0 39.0371 11.2713 440 101.627 1194.02 490.686
704 0 40.0174 12.2946 492 100.459 1195.33 491.283
705 0 42.0712 11.5043 484 101.411 1197.36 490.754
706 0 45.0435 12.6322 569 98.1775 1198.26 490.374
707 0 44.055 13.1427 579 100.941 1199.94 489.477
708 0 45.0207 13.0162 586 103.422 1201.24 487.164
709 0 47.0468 14.2411 670 100.601 1204.22 488.507
710 0 47.0212 13.3557 628 104.699 1204.84 489.919
711 0 50.1127 13.33 668 105.007 1206.26 489.635
712 0 52.0618 14.8862 775 102.258 1208.01 489.912
713 0 54.0508 14.6344 791 103.747 1208.16 490.712
714 0 56.0809 15.3885 863 103.48 1207.85 489.185
715 0 59.062 16.5081 975 100.93 1207.29 490.829
716 0 59.062 16.5758 979 154.755 1206.3 490.886
717 0 61.084 14.0626 859 110.858 1204.65 488.542
718 0 65.1319 16.2747 1060 106.599 1203.79 488.653
719 0 69.1249 15.8843 1098 108.332 1203.4 486.167
720 0 72.1122 15.9058 1147 107.667 1201.05 487.116
721 0 74.112 14.9503 1108 110.99 1200.97 482.44
722 0 77.2062 17.8742 1380 104.399 1198.6 480.424
723 1 42.0203 11.4231 480 113.744 1198 498.398
724 0 44.0542 12.6435 557 110.44 1196.32 496.677
725 0 47.2343 13.5283 639 108.617 1195.28 494.59
726 0 48.1407 13.7306 661 110.172 1194.27 490.254
727 0 51.1992 13.633 698 108.564 1194.12 489.441
728 0 51.1539 14.6225 748 107.076 1194.09 486.612
729 0 52.231 13.8806 725 109.263 1193.47 485.713
730 0 56.1591 15.4739 869 105.392 1192.95 482.858
731 0 58.1403 16.2366 944 103.034 1193.16 481.151
732 0 60.1964 15.7152 946 103.986 1193.62 481.298
733 0 61.0895 14.7816 903 105.38 1193.6 481.144
734 0 64.1392 15.7782 1012 103.758 1194.8 479.135
735 0 66.1831 15.3514 1016 104.514 1196.91 478.112
736 0 68.1973 14.546 992 105.385 1199.27 478.305
737 0 73.1866 16.8883 1236 99.8131 1201.38 477.405
738 0 74.1313 14.7711 1095 105.47 1202.7 478.75
739 0 78.128 13.9643 1091 106.4 1203.53 478.505
740 0 83.2208 15.1044 1257 103.776 1204.62 476.679
741 1 44.1403 12.9587 572 104.287 1204.41 496.902
742 0 46.273 11.8644 549 104.658 1204.01 498.834
743 0 49.1254 13.6793 672 100.001 1203.35 499.284
744 0 49.0751 14.0601 690 102.593 1202.14 498.283
745 0 52.0293 14.2035 739 101.095 1201.18 499.842
746 0 56.0782 15.621 876 98.8619 1199 499.082
747 0 58.1552 15.8541 922 98.4284 1197.08 497.024
748 0 61.0594 14.9526 913 100.984 1194.38 495.551
749 0 62.0609 14.0346 871 103.002 1193.65 495.132
750 0 64.1056 15.0689 966 102.481 1191.8 492.155
751 0 70.3356 15.6535 1101 100.045 1191.4 489.525
752 0 71.1478 15.5451 1106 103.101 1188.65 487.249
753 0 72.1681 15.159 1094 104.726 1187.61 482.91
754 0 75.2042 15.93 1198 104.395 1188.11 479.669
755 0 78.2889 15.6983 1229 103.122 1187.69 477.12
756 0 81.3055 15.5955 1268 103.742 1187.79 474.819
757 0 85.2151 16.1239 1374 102.448 1188.69 473.41
758 1 42.0923 12.2825 517 105.95 1188.59 491.246
759 0 46.0994 12.6032 581 104.117 1189.49 490.656
760 0 47.1463 12.6627 597 105.918 1190.03 489.258
761 0 48.1539 12.5224 603 106.489 1191.38 487.587
762 0 50.0338 13.4909 675 105.356 1191.96 487.148
763 0 53.0707 14.1321 750 103.425 1193.53 486.145
764 0 56.1485 14.6576 823 102.554 1195.25 486.089
765 0 57.1486 14.7335 842 103.399 1197.19 485.614
766 0 58.0505 14.9869 870 105.856 1200.34 485.63
767 0 65.0682 15.6605 1019 101.224 1201.14 486.011
768 0 66.0615 17.1053 1130 100.153 1202.49 483.958
769 0 69.1525 15.1694 1049 105.04 1201.99 484.585
770 0 72.1675 16.6973 1205 102.593 1202.57 482.705
771 0 77.0931 17.2259 1328 101.358 1201.75 483.242
772 0 78.1943 15.4487 1208 106.094 1200.48 483.745
773 0 82.2127 16.1532 1328 105.587 1199.72 482.114
774 1 47.0531 12.029 566 103.454 1198.51 500.959
775 0 49.0427 11.9488 586 97.5171 1198.06 499.258
776 0 49.1151 12.6234 620 95.6871 1196.37 499.379
777 0 51.1371 12.2612 627 94.4625 1195.4 498.405
778 0 52.1762 13.3777 698 93.5487 1193.96 495.036
779 0 53.1796 14.6297 778 92.7095 1192.71 493.348
780 0 58.2208 13.8782 808 92.4876 1191.27 492.161
781 0 59.2151 14.878 881 91.4472 1190.81 489.051
782 0 61.137 15.5225 949 91.0527 1190.33 486.672
783 0 63.1109 15.243 962 91.7006 1190.81 485.941
784 0 66.1187 16.6065 1098 89.5902 1191.16 484.091
785 0 69.1997 14.5665 1008 93.245 1190.28 480.883
786 0 73.1493 18.5374 1356 86.4631 1191.6 480.437
787 0 73.2131 14.8607 1088 92.8051 1191.88 479.326
788 0 77.1812 15.7292 1214 91.1557 1192.66 477.143
789 1 41.1077 13.0389 536 91.9328 1194.38 495.287
790 0 43.0994 12.2972 530 91.3283 1194.73 495.787
791 0 43.0522 12.3106 530 92.3925 1196.39 494.934
792 0 46.0756 14.3243 660 89.4091 1198.2 495.018
793 0 49.1778 14.1527 696 89.6638 1200.06 494.149
794 0 51.0919 13.7791 704 90.3935 1201.19 494.848
795 0 51.0851 14.4661 739 90.4168 1201.35 495.204
796 0 55.065 14.837 817 90.0012 1201.8 496.529
797 0 57.2206 15.449 884 88.3337 1201.01 496.562
798 0 60.2658 14.4195 869 90.9885 1198.99 496.084
799 0 62.1007 15.4427 959 91.7091 1197.93 496.521
800 0 64.1508 14.8712 954 94.7925 1196 495.971
801 0 67.1581 15.739 1057 94.0927 1193.91 494.327
802 0 70.1328 15.8699 1113 94.018 1192.05 492.594
803 0 72.0743 15.1788 1094 98.1252 1190 490.626
804 0 75.0817 14.9171 1120 100.467 1189.5 488.295
805 0 80.0689 16.5982 1329 96.8804 1187.4 488.127
806 0 80.1436 14.8234 1188 104.37 1187.04 483.423
807 1 44.054 12.3031 542 105.314 1186.72 502.011
808 0 44.0394 12.5796 554 109.276 1186.71 500.91
809 0 49.1344 13.1476 646 108.259 1187.02 496.293
810 0 51.1785 13.9903 716 106.978 1186.94 493.867
811 0 54.0594 16.2044 876 101.239 1186.78 491.999
812 0 54.2086 14.7762 801 107.184 1187.31 490.833
813 0 55.1469 14.144 780 110.819 1187.96 489.69
814 0 58.141 15.1356 880 107.065 1189.24 486.69
815 0 59.2341 15.4303 914 105.838 1189.95 485.492
816 0 62.2572 15.5805 970 105.959 1191.58 484.634
817 0 65.2574 16.5192 1078 105.089 1193.62 484.045
818 0 67.2245 14.7863 994 108.607 1195.36 481.967
819 0 69.1603 15.4569 1069 107.264 1197.75 481.608
820 0 72.1342 15.5405 1121 107.119 1198.4 480.48
821 0 78.264 15.9971 1252 105.474 1199.65 479.581
822 0 81.3639 16.6413 1354 104.184 1201.05 479.698
823 1 40.2328 11.3589 457 108.357 1200.34 499.818
824 0 43.0889 11.3486 489 108.153 1200.47 499.914
825 0 46.0911 12.6489 583 107.503 1200.34 498.213
826 0 49.1281 13.7192 674 106.039 1199.06 497.739
827 0 52.1046 14.5093 756 104.09 1198.15 497.779
828 0 55.1344 15.7433 868 101.409 1196.47 496.503
829 0 56.2 14.0391 789 105.512 1195.55 495.322
830 0 58.0728 16.1866 940 102.603 1193.91 490.927
831 0 62.3478 15.8787 990 99.6545 1193.42 492.235
832 0 63.1828 15.9221 1006 102.027 1192.35 489.317
833 0 66.1923 14.7902 979 103.385 1190.78 486.443
834 0 68.253 15.2228 1039 102.843 1190.6 484.734
835 0 71.1547 14.602 1039 103.635 1190.12 482.962
836 1 37.1637 11.9471 444 101.448 1190.66 498.491
837 0 40.2012 10.4475 420 103.671 1189.38 495.629
838 0 43.2003 11.2268 485 98.0062 1189.54 496.491
839 0 45.2209 13.4672 609 96.4039 1189.76 494.7
840 0 44.2015 12.0584 533 100.038 1189.63 494.578
841 0 46.1217 10.5373 486 105.401 1190.14 492.607
842 0 49.2201 13.0028 640 101.055 1191.43 492.855
843 0 51.1827 12.7582 653 103.789 1192.61 489.077
844 0 53.1214 13.1774 700 101.333 1194.65 489.766
845 0 55.3671 14.4309 799 99.1977 1196.73 489.932
846 0 57.2401 13.1551 753 102.843 1197.67 488.721
847 0 60.2468 14.839 894 99.613 1199.53 488.719
848 0 63.2203 13.9196 880 100.653 1200.08 489.991
849 0 66.2696 14.2901 947 100.484 1201.44 488.452
850 0 69.5241 13.9808 972 100.377 1201.15 489.094
851 0 74.1901 15.2177 1129 98.8246 1200.77 487.711
852 0 75.3155 13.7687 1037 102.843 1199.84 487.902
853 0 79.3685 14.4012 1143 101.656 1198.73 486.158
854 0 84.36 14.5922 1231 102.205 1196.92 484.845
855 0 88.2721 16.5284 1459 99.4606 1196.14 483.089
856 0 92.2802 14.6294 1350 100.561 1194.15 480.229
857 0 95.3908 14.9176 1423 100.378 1192.9 479.903
858 0 98.3966 14.2078 1398 102.853 1190.8 474.913
859 0 103.345 15.0564 1556 101.111 1187.93 472.271
860 0 109.445 15.7613 1725 98.3629 1187.16 469.558
861 1 56.3756 11.1396 628 97.6895 1187.39 497.454
862 0 56.3061 10.8869 613 99.5285 1186.51 493.954
863 0 60.6302 11.6444 706 98.2394 1186.1 491.48
864 0 60.2862 13.1705 794 97.7821 1186.27 487.096
865 0 65.447 14.0725 921 96.2877 1186.51 484.304
866 0 67.4345 14.1916 957 97.6813 1187.15 484.11
867 0 69.5063 15.1785 1055 94.6104 1187.12 481.517
868 0 71.6345 13.2199 947 96.5153 1187.22 479.751
869 0 74.5973 13.526 1009 95.9772 1188.83 477.605
870 0 75.4744 13.9783 1055 95.7962 1190.34 476.004
871 0 80.4812 14.6991 1183 94.1817 1191.43 475.675
872 0 85.7305 15.992 1371 91.9949 1192.65 474.842
873 0 87.5271 14.9211 1306 95.7534 1194.42 472.724
874 0 90.6088 15.4952 1404 95.2642 1196.19 472.488
875 0 95.4755 15.3024 1461 94.1061 1196.27 469.092
876 0 100.385 16.1478 1621 92.8408 1197.9 468.733
877 1 53.373 11.6351 621 95.9758 1197.97 493.205
878 0 54.2968 11.3451 616 97.2744 1198.24 494.685
879 0 57.2782 15.5731 892 91.2164 1196.6 492.93
880 0 62.4556 13.8498 865 93.822 1196.71 492.188
881 0 64.1033 15.0538 965 92.2508 1196.1 489.508
882 0 67.351 14.3428 966 93.1046 1193.84 489.038
883 0 72.2914 14.5661 1053 92.3789 1192.43 487.544
884 0 74.3749 13.8891 1033 93.2178 1190.56 486.739
885 0 76.3175 15.1866 1159 90.1821 1189.29 483.187
886 0 80.452 15.1146 1216 89.639 1188.12 479.853
887 0 81.5408 14.6062 1191 89.3963 1187.29 478.332
888 0 85.4172 14.9501 1277 89.0266 1187.3 475.714
889 0 88.5066 15.0836 1335 90.1213 1185.9 470.509
890 0 90.3635 14.2314 1286 92.2162 1186.87 468.182
891 0 97.27 16.2743 1583 88.2761 1186.9 467.063
892 1 47.5125 11.0076 523 90.1721 1188.12 486.95
893 0 49.2701 10.1481 500 90.04 1188.38 486.892
894 0 52.1846 12.7049 663 86.3891 1188.18 484.22
895 0 53.1911 12.1073 644 87.986 1188.77 482.366
896 0 56.2087 13.8413 778 84.3946 1189.71 483.294
897 0 60.3097 13.4804 813 85.4047 1191.19 480.252
898 0 63.2034 14.5087 917 83.3621 1193.25 480.743
899 0 63.1781 14.3404 906 84.9603 1194.82 478.334
900 0 67.2048 14.374 966 84.6625 1195.73 481.409
901 0 69.1703 14.2691 987 84.3333 1198.85 480.409
902 0 73.2519 14.7163 1078 83.744 1200.44 479.566
903 0 73.1461 12.7553 933 87.7921 1201.96 480.068
904 0 78.2705 14.5777 1141 84.936 1203.46 477.954
905 0 82.2809 13.3324 1097 87.4458 1203.34 476.714
906 0 86.3826 15.8713 1371 83.5478 1202.04 476.564
907 1 50.1605 10.4664 525 84.4438 1201.62 498.853
908 0 49.0931 10.3273 507 87.3787 1200.15 500.237
909 0 50.0751 10.8437 543 86.593 1198.01 499.939
910 0 53.0712 12.0404 639 83.7277 1196.11 496.898
911 0 55.2892 13.2756 734 81.3733 1193.89 495.899
912 0 58.4746 12.7577 746 83.3029 1192.01 492.755
913 0 60.2952 12.1403 732 85.3811 1190.93 492.84
914 0 63.2402 12.919 817 84.9131 1189.83 490.264
915 0 65.366 13.2179 864 84.5521 1189.29 485.841
916 0 69.1731 12.9241 894 84.3781 1188.32 486.088
917 0 69.1973 12.7173 880 85.6557 1187.74 483.453
918 0 73.2638 12.0523 883 87.0872 1187.94 481.49
919 0 76.1918 14.936 1138 82.4895 1188.37 477.926
920 0 77.2456 12.8292 991 86.3744 1188.41 476.474
921 0 80.4414 12.9784 1044 86.6169 1188.24 476.304
922 1 46.0959 11.2374 518 85.388 1188.87 492.346
923 0 45.1393 10.9661 495 83.7556 1188.4 495.339
924 0 47.0736 9.28333 437 87.5332 1189.67 492.696
925 0 50.0709 12.5622 629 82.6518 1191.51 493.137
926 0 51.0984 12.0943 618 85.4871 1194.19 490.916
927 0 54.0708 14.3885 778 82.0398 1194.56 493.871
928 0 53.116 12.9716 689 87.061 1195.99 491.935
929 0 55.2826 12.8431 710 90.162 1197.95 492.475
930 0 56.2126 13.1109 737 91.9905 1198.95 492.82
931 0 60.1552 14.6288 880 90.2455 1199.62 493.233
932 0 60.1861 12.1623 732 96.1079 1199.5 494.615
933 0 63.1622 13.0458 824 95.6638 1198.29 490.235
934 0 68.2178 13.8234 943 94.491 1197.88 492.144
935 0 72.275 14.6247 1057 93.8354 1195.48 490.632
936 0 72.1844 13.9227 1005 98.2368 1193.81 487.187
937 1 42.0731 11.7652 495 95.0444 1191.91 503.966
938 0 44.0431 11.8974 524 98.979 1190.26 501.721
939 0 46.0118 12.7141 585 97.1829 1189.24 500.889
940 0 47.0151 11.6133 546 101.919 1188.36 498.26
941 0 48.1812 11.2492 542 103.227 1187.59 496.258
942 0 50.1373 13.4231 673 98.8158 1187.11 496.089
943 0 51.0764 13.9595 713 99.0463 1185.15 492.913
944 0 53.1911 13.9309 741 99.7045 1184.87 490.331
945 0 54.2106 13.5582 735 101.388 1185.81 488.211
946 0 54.1352 13.3185 721 101.368 1185.72 486.921
947 0 58.1701 14.9218 868 97.8733 1185.99 484.376
948 0 59.1728 13.5197 800 100.51 1187.61 483.548
949 0 60.2881 13.4023 808 102.099 1188.46 481.012
950 0 64.2201 14.6527 941 98.0553 1189.52 481.52
951 0 66.2694 13.8224 916 100.607 1189.62 478.242
952 0 68.27 13.7835 941 100.356 1192.63 479.595
953 0 74.3122 16.0135 1190 94.9622 1194.41 477.589
954 0 73.1732 14.3632 1051 100.906 1196.56 475.39
955 0 78.1974 14.3483 1122 100.228 1199.08 475.45
956 1 46.0983 11.9093 549 100.561 1202.82 494.091
957 0 45.138 10.3904 469 104.294 1203.86 494.868
958 0 47.0686 12.4287 585 101.579 1203.44 495.795
959 0 49.2081 13.6157 670 98.1254 1203.33 496.739
960 0 51.1866 13.148 673 98.2987 1202.36 497.019
961 0 54.1656 12.4064 672 102.225 1202.09 495.073
962 0 56.2893 13.9814 787 96.3545 1200.94 497.137
963 0 58.2448 14.6279 852 96.4038 1198.37 493.323
964 0 61.3161 13.7974 846 97.5118 1197.41 494.716
965 0 64.3931 12.7964 824 102.275 1195.09 492.91
966 0 64.3202 13.7748 886 99.895 1193.64 491.315
967 0 69.2069 15.0274 1040 96.5413 1191.08 489.142
968 0 70.2281 15.3215 1076 97.4173 1190 484.187
969 0 74.1973 15.0005 1113 97.7296 1188.93 483.069
970 0 75.2575 14.6564 1103 98.5594 1189 481.109
971 0 80.3475 15.4828 1244 97.1994 1188.5 478.203
972 0 79.2191 13.4816 1068 103.757 1188.49 474.856
973 0 85.2623 15.3995 1313 99.8286 1188.17 471.856
974 1 45.235 10.7881 488 104.816 1190.03 490.191
975 0 48.1868 9.31791 449 107.735 1191.09 489.238
976 0 50.1609 11.2837 566 103.072 1191.59 489.852
977 0 51.1176 11.8159 604 106.705 1191.8 487.536
978 0 53.2223 12.5887 670 102.569 1191.46 486.387
979 0 57.1617 14.6077 835 97.7234 1193.89 485.196
980 0 57.1437 13.7548 786 101.271 1193.68 483.907
981 0 60.319 14.0586 848 100.134 1196.28 484.748
982 0 63.3488 13.5914 861 100.489 1198.67 483.245
983 0 64.3958 13.5568 873 100.821 1201.16 483.844
984 0 69.3442 14.7092 1020 97.8539 1202.86 482.788
985 0 71.1921 15.6057 1111 96.3501 1202.28 482.927
986 0 75.3609 14.0524 1059 99.0387 1202.35 484.102
987 0 79.3886 14.4731 1149 99.1332 1202.99 482.891
988 0 82.3433 15.0589 1240 98.2185 1201.76 481.369
989 0 88.3322 15.9512 1409 96.3918 1200.48 479.815
990 0 91.3762 14.9601 1367 98.2655 1199.15 479.587
991 1 52.2944 11.5309 603 96.8126 1196.82 499.609
992 0 53.3103 9.17271 489 98.092 1196.33 502.133
993 0 56.378 11.6889 659 96.5175 1194.54 495.944
994 0 59.3253 12.8444 762 94.7874 1192.9 493.755
995 0 62.2968 12.7776 796 94.9598 1190.26 491.641
996 0 64.097 13.62 873 94.2692 1189.02 490.468
997 0 66.2194 14.7389 976 92.0113 1188.6 487.254
998 0 67.1284 14.6436 983 91.9156 1189.61 484.466
999 0 69.2162 14.4475 1000 93.2 1189.87 480.974
1000 0 74.2099 15.1058 1121 91.7226 1188.98 479.246
1001 0 76.2166 14.918 1137 92.1979 1188.24 475.582
1002 0 78.3396 14.3733 1126 92.7496 1188.01 474.791
1003 0 83.1546 14.7316 1225 92.351 1188.56 471.984
1004 1 46.1287 11.6197 536 93.0821 1190.12 489.448
1005 0 47.0901 11.1701 526 94.846 1190.86 488.392
1006 0 50.1471 12.0246 603 93.0498 1192.66 488.778
1007 0 53.0762 11.1161 590 93.922 1194.23 488.68
1008 0 53.0778 12.7737 678 90.7743 1195.93 488.63
1009 0 56.0864 14.4598 811 90.4032 1198.1 487.408
1010 0 58.121 13.9537 811 92.4069 1200.4 488.305
1011 0 59.1047 14.8888 880 93.0773 1203.02 487.362
1012 0 62.0731 14.8374 921 92.304 1203.68 486.65
1013 0 63.1023 14.2943 902 94.1175 1203.5 488.496
1014 0 65.2707 14.0339 916 96.3461 1202 486.021
1015 0 68.1717 14.7275 1004 95.3964 1201.78 485.706
1016 0 71.2139 13.0452 929 98.5587 1200.69 486.897
1017 0 74.3505 15.4 1145 95.7493 1199.72 486.15
1018 0 78.1334 15.1408 1183 96.4091 1198.01 484.848
1019 0 79.2359 15.4728 1226 98.3336 1196.19 483.404
1020 0 85.1691 14.935 1272 98.8035 1194.95 480.778
1021 0 86.3112 14.1581 1222 101.274 1193.01 478.382
1022 0 90.164 14.6289 1319 99.652 1191.42 476.252
1023 1 51.0804 10.6499 544 97.3162 1193.31 497.871
1024 0 49.0295 10.0552 493 100.521 1192.13 494.724
1025 0 54.1189 9.81173 531 100.239 1191.56 492.759
1026 0 54.1794 11.628 630 100.225 1191.16 489.087
1027 0 57.1077 11.0668 632 100.305 1190.02 485.978
1028 0 59.1396 13.0708 773 96.8823 1190.23 481.948
1029 0 60.2009 13.3387 803 97.2055 1191.21 483.948
1030 0 64.1063 13.696 878 95.9784 1190.27 483.347
1031 0 66.0863 12.8166 847 98.5643 1191.04 479.579
1032 0 69.1439 14.3613 993 95.4129 1192.14 478.864
1033 0 70.0886 13.5257 948 97.6319 1191.74 476.865
1034 0 75.1148 15.1634 1139 92.9464 1194.01 479.156
1035 0 77.1361 14.0531 1084 96.0028 1196.08 476.631
1036 0 82.445 15.0767 1243 93.6299 1197.65 474.85
1037 1 41.0617 10.8374 445 95.9191 1199.7 497.813
1038 0 42.1876 10.7615 454 99.9097 1201.01 496.511
1039 0 47.1996 13.1781 622 93.6656 1201.59 497.164
1040 0 48.2995 12.6088 609 96.0378 1202.01 496.417
1041 0 50.1942 12.2723 616 95.8052 1202.09 498.086
1042 0 53.1469 13.8296 735 93.2408 1201.44 498.419
1043 0 52.3835 12.5612 658 99.3845 1199.03 496.859
1044 0 54.1703 12.2761 665 100.884 1198.43 496.955
1045 0 58.1408 14.6369 851 95.7767 1197.3 497.085
1046 0 59.214 13.2063 782 98.6931 1195.98 495.618
1047 0 64.1204 15.0654 966 94.2422 1194.43 492.952
1048 0 65.2968 13.5841 887 97.4284 1192.74 492.079
1049 0 69.2963 14.7483 1022 94.9609 1191.28 489.267
1050 0 72.2158 15.1213 1092 94.5009 1190.22 485.971
1051 0 74.2247 15.1836 1127 94.5067 1188.2 483.475
1052 0 76.1522 13.9326 1061 97.7747 1187.7 480.479
1053 0 81.2674 14.9014 1211 94.8951 1188.49 477.675
1054 1 44.0628 9.96304 439 97.0661 1188.91 495.784
1055 0 45.0361 11.3243 510 95.049 1188.29 494.516
1056 0 45.1387 11.4757 518 96.7375 1188.93 490.367
1057 0 44.0254 12.1294 534 97.882 1189.71 488.386
1058 0 50.0603 13.244 663 94.1885 1190.81 487.205
1059 0 50.2443 13.6931 688 93.9622 1191.71 487.24
1060 0 52.4454 12.9849 681 93.7357 1191.84 487.505
1061 0 53.1352 13.174 700 95.8371 1192.63 483.627
1062 0 57.2228 14.5571 833 91.5918 1194.6 484.002
1063 0 57.3247 13.6416 782 94.1982 1196.49 482.454
1064 0 62.3313 14.7919 922 91.5575 1198.03 481.575
1065 0 64.2131 13.5642 871 94.3812 1200.17 480.726
1066 0 66.2189 13.9688 925 94.1957 1200.78 480.681
1067 0 69.3077 14.1398 980 93.4673 1200.91 481.772
1068 0 73.2798 15.0928 1106 92.0995 1202.35 480.592
1069 0 77.2513 15.2619 1179 91.8244 1202.14 479.717
1070 0 77.1983 14.2879 1103 95.4624 1200.03 475.547
1071 1 41.2584 8.94364 369 97.7995 1200.62 500.062
1072 0 45.2234 10.3486 468 93.4466 1198.89 498.756
1073 0 45.2745 10.8229 490 93.4653 1197.78 496.949
1074 0 48.2864 11.3282 547 90.6234 1195.8 496.585
1075 0 49.2657 12.869 634 92.623 1195.35 491.027
1076 0 52.2813 14.0586 735 89.3388 1193.76 491.676
1077 0 54.1928 14.5591 789 90.3574 1192.3 490.338
1078 0 55.2985 14.1053 780 91.9679 1191.77 486.079
1079 0 57.2411 13.8187 791 93.5777 1190.86 486.097
1080 0 59.2269 14.588 864 89.5243 1189.62 485.509
1081 0 60.1561 13.731 826 92.2809 1190.37 480.972
1082 0 63.212 14.5858 922 90.4826 1190.18 477.734
1083 0 63.2486 12.8699 814 94.0012 1190.38 477.145
1084 0 67.4157 14.1213 952 91.4044 1190.11 475.185
1085 0 71.1923 14.6785 1045 91.3148 1190.56 472.426
1086 0 73.4466 15.4534 1135 91.3771 1191.53 470.357
1087 1 39.0351 10.2984 402 93.4801 1194.44 490.331
1088 0 41.0568 11.8373 486 91.463 1194.65 488.144
1089 0 41.0658 10.6171 436 94.5321 1197.25 488.989
1090 0 42.0714 12.2649 516 90.2016 1199.76 490.39
1091 0 42.0387 11.4418 481 94.6008 1201.77 486.705
1092 0 44.1538 13.068 577 91.4645 1203.42 488.783
1093 0 47.066 14.4053 678 89.2434 1204.62 489.367
1094 0 48.0676 12.3576 594 94.1532 1205.19 489.295
1095 0 50.0408 13.2492 663 92.6833 1205.49 489.279
1096 0 52.0329 12.838 668 93.9072 1204.63 492.048
1097 0 53.0504 14.0621 746 93.437 1203.63 489.777
1098 0 56.0645 13.859 777 94.9022 1201.87 490.704
1099 0 58.2704 14.3469 836 93.6734 1200.34 490.126
1100 0 62.0746 14.112 876 95.2797 1199.77 487.379
1101 0 65.0891 15.1177 984 93.5081 1198.02 488.13
1102 0 68.1639 14.7732 1007 94.0487 1197.45 484.913
1103 0 70.1223 14.6173 1025 95.2146 1194.96 482.184
1104 1 38.0639 9.9832 380 98.2263 1193.85 499.992
1105 0 36.0229 7.35642 265 101.977 1192.83 499.404
1106 0 40.16 10.6823 429 97.9138 1192.25 497.191
1107 0 44.1097 11.5167 508 94.874 1192.24 494.902
1108 0 45.1451 11.3191 511 96.407 1191.99 494.008
1109 0 45.0198 13.3053 599 93.8898 1191.72 492.311
1110 0 46.1081 13.8587 639 94.0626 1191.26 489.391
1111 0 47.2068 12.943 611 96.8412 1191.88 487.011
1112 0 50.1512 12.6418 634 97.0315 1192.12 486.945
1113 0 50.125 14.384 721 94.7545 1192.73 486.295
1114 0 52.2358 13.5348 707 95.7072 1194.49 486.082
1115 0 56.227 14.2458 801 94.1311 1195.64 484.488
1116 0 59.2374 13.3868 793 94.5889 1196.68 484.145
1117 0 59.108 14.9218 882 93.034 1198.81 484.37
1118 0 63.3363 13.973 885 96.096 1200.01 482.678
1119 0 65.1478 15.0734 982 94.833 1202.05 482.668
1120 0 69.2616 13.8461 959 97.0083 1203.91 483.496
1121 0 72.1582 14.6761 1059 96.6242 1204.42 482.165
1122 0 76.1784 15.805 1204 95.2367 1204.01 481.755
1123 1 38.0421 9.12148 347 99.4899 1204.2 503.052
1124 0 43.0575 11.4963 495 96.4465 1202.97 502.768
1125 0 45.0598 11.9175 537 97.4618 1201.66 501.274
1126 0 45.0912 11.0886 500 100.212 1200.02 500.658
1127 0 50.0675 12.5431 628 96.2229 1198.32 501.084
1128 0 52.1943 15.4423 806 94.3015 1196.02 497.418
1129 0 55.2304 13.8149 763 95.5269 1194.39 497.018
1130 0 55.1819 13.8089 762 98.1732 1193.17 493.197
1131 0 58.0797 13.1543 764 98.3613 1191.85 491.775
1132 0 62.1655 15.0888 938 92.3209 1191.22 489.625
1133 0 64.1717 15.1001 969 93.4045 1190.49 486.064
1134 0 66.1781 15.1259 1001 93.3267 1190.15 484.361
1135 0 67.1422 14.0001 940 95.6372 1189.65 482.91
1136 0 68.235 13.8639 946 98.0243 1190.52 478.313
1137 0 71.2638 14.1306 1007 95.6961 1190.49 477.743
1138 0 76.2406 13.7591 1049 95.3908 1190.38 476.283
1139 1 40.0159 9.74612 390 95.2718 1190.25 493.482
1140 0 40.0674 8.0115 321 94.7913 1191.78 495.984
1141 0 43.054 11.3578 489 92.5685 1193.2 492.292
1142 0 44.0299 12.1508 535 92.615 1194.17 491.058
1143 0 44.0787 10.6854 471 95.7006 1193.84 491.384
1144 0 49.0362 13.5206 663 90.4676 1196.99 491.54
1145 0 49.1024 13.1358 645 93.7008 1198.67 492.029
1146 0 51.0924 12.4872 638 95.884 1200.81 490.652
1147 0 52.0948 11.863 618 96.8301 1202.33 491.178
1148 0 54.135 12.5612 680 97.4412 1203.09 491.551
1149 0 58.234 15.1115 880 91.2386 1203.68 491.139
1150 0 61.0288 14.5505 888 92.2207 1203.49 490.033
1151 0 63.202 13.4015 847 94.7816 1202.7 488.792
1152 0 67.0955 14.3378 962 93.1455 1200.96 489.839
1153 0 70.1047 13.5226 948 95.6181 1200.63 487.905
1154 0 75.1074 14.406 1082 93.7301 1197.91 487.588
1155 0 79.1709 13.5656 1074 95.1993 1196.28 485.788
1156 1 44.0787 9.86872 435 95.4161 1195.58 505.402
1157 0 48.1127 11.0366 531 95.0414 1194.23 502.426
1158 0 47.2151 10.2086 482 96.5726 1192.74 500.774
1159 0 49.0942 10.0419 493 97.4118 1191.42 498.586
1160 0 52.2381 11.371 594 95.3788 1190.52 497.007
1161 0 54.1479 12.8537 696 93.1897 1189.71 491.889
1162 0 54.1937 13.0642 708 94.4831 1188.87 489.442
1163 0 57.3172 13.94 799 91.8185 1188.85 486.906
1164 0 58.0379 12.1989 708 94.7542 1190.25 485.524
1165 0 60.0839 12.8653 773 93.5201 1189.85 484.194
1166 0 63.0697 12.9856 819 93.2357 1190.34 481.629
1167 0 66.0171 13.6783 903 91.9989 1190.58 481.286
1168 0 66.0911 13.9504 922 93.9978 1191.6 478.004
1169 0 70.0323 14.9788 1049 91.6273 1192.78 477.558
1170 0 71.0707 13.9439 991 95.0081 1193.53 478.793
1171 0 74.1336 14.0152 1039 95.6429 1194.86 476.119
1172 0 79.1202 15.5712 1232 93.2565 1197.45 475.891
1173 0 79.1133 14.7383 1166 96.2933 1199.36 474.503
1174 0 82.162 14.228 1169 97.5902 1200.76 476.096
1175 0 86.0872 15.4146 1327 95.4356 1201.55 472.875
1176 0 89.1919 14.1381 1261 97.9136 1202.16 475.846
1177 1 50.0584 9.96835 499 97.3808 1203.49 496.018
1178 0 51.0509 11.7138 598 96.1856 1202.96 496.079
1179 0 53.2144 13.2483 705 96.1603 1201.15 494.01
1180 0 59.2661 14.6964 871 92.0344 1201 494.269
1181 0 57.2076 14.0541 804 97.7774 1200.87 492.4
1182 0 61.2108 13.4127 821 97.7235 1198.88 492.111
1183 0 63.2641 13.8309 875 98.6686 1197.69 489.406
1184 0 67.2258 13.6555 918 99.0686 1196.75 489.759
1185 0 69.2761 14.204 984 98.3161 1195.29 486.987
1186 0 72.2789 14.4302 1043 98.2541 1194.45 484.053
1187 0 75.2358 14.1555 1065 97.7014 1192.88 482.286
1188 1 39.0318 9.01829 352 99.7443 1193.67 498.179
1189 0 40.0419 9.76478 391 95.2046 1191.98 499.327
1190 0 42.0631 9.29556 391 98.445 1190.76 495.077
1191 0 44.0356 11.1501 491 95.4705 1190.57 493.165
1192 0 46.1081 12.5574 579 92.8307 1190.32 490.969
1193 0 46.0562 12.0939 557 95.4542 1190.53 488.494
1194 0 47.03 12.205 574 97.2108 1190.64 487.836
1195 0 49.0573 13.1071 643 94.8725 1192.91 485.885
1196 0 48.0804 11.7095 563 98.3446 1193.14 485.46
1197 0 49.0736 12.6545 621 98.9452 1193.61 483.213
1198 0 53.0599 12.2691 651 99.212 1193.71 483.252
1199 0 56.151 13.624 765 96.0614 1195.62 483.59
1200 0 56.0374 12.9378 725 98.2566 1198.16 482.942
1201 0 58.0471 14.3504 833 96.5078 1200.63 482.776
1202 0 59.1353 11.9218 705 104.887 1202.82 484.413
1203 0 63.0632 13.1138 827 102.226 1202.86 483.745
1204 0 65.0979 13.0112 847 102.155 1203.94 482.514
1205 1 36.0127 9.99646 360 99.85 1205.02 499.753
1206 0 38.0619 11.6127 442 99.1833 1204.7 497.704
1207 0 39.0192 9.76443 381 102.501 1203.78 500.01
1208 0 40.029 11.3918 456 101.066 1202.23 499.272
1209 0 44.1724 12.0211 531 97.7778 1200.25 501.808
1210 0 45.1824 11.8852 537 100.615 1198.73 498.838
1211 0 47.2929 12.6657 599 98.3306 1198.31 499.022
1212 0 49.2542 14.0902 694 96.7219 1198.29 497.086
1213 0 51.0276 14.3256 731 96.6088 1197.17 494.315
1214 0 51.0276 14.306 730 132.47 1196.18 494.296
1215 0 54.0716 12.206 660 100.476 1193.04 494.164
1216 0 58.0451 13.5412 786 97.9453 1193.09 489.29
1217 0 59.0503 13.6494 806 98.9591 1192.45 486.917
1218 0 60.1315 14.7177 885 97.3164 1193.07 483.192
1219 0 63.1256 13.6236 860 98.4953 1192.35 481.183
1220 0 64.1005 13.7597 882 99.9535 1192.38 480.188
1221 0 67.0702 14.865 997 97.2508 1192.33 477.099
1222 0 71.145 13.845 985 98.597 1192.24 475.768
1223 1 39.0906 9.51636 372 103.04 1192.76 490.583
1224 0 38.0559 10.5897 403 100.742 1193.63 490.844
1225 0 42.0309 9.99264 420 100.486 1194.39 490.864
1226 0 42.0707 9.48403 399 101.591 1196.62 492.288
1227 0 44.0547 11.9624 527 98.926 1198.79 490.805
1228 0 45.0555 11.6745 526 100.074 1199.86 490.416
1229 0 46.0903 12.6274 582 97.6203 1201.21 491.924
1230 0 50.1693 13.7335 689 96.8055 1201.94 490.041
1231 0 52.1779 13.6264 711 97.8762 1202.25 490.024
1232 0 52.0158 13.9957 728 98.0124 1204.93 490.845
1233 0 57.0465 13.7081 782 98.3811 1204.22 490.279
1234 0 59.1066 13.8732 820 97.9805 1203.77 492.068
1235 0 62.0439 13.7806 855 98.6936 1202.56 492.878
1236 0 63.1284 14.8111 935 98.8717 1201.85 488.532
1237 0 68.0907 15.4793 1054 96.704 1200.48 491.44
1238 0 72.086 16.1058 1161 95.5263 1199.44 488.248
1239 0 75.0812 14.3312 1076 99.0957 1197.38 488.067
1240 0 80.0914 15.7695 1263 95.6587 1195.39 485.007
1241 0 82.0997 14.1292 1160 99.8483 1193.34 480.242
1242 1 41.0298 10.6752 438 100.393 1192.09 499.888
1243 0 43.0187 12.2272 526 97.5684 1191.56 498.466
1244 0 46.016 14.0169 645 93.1938 1190.15 495.533
1245 0 47.2224 14.2729 674 93.1884 1189.51 493.307
1246 0 49.2881 13.1878 650 95.6154 1189.85 491.777
1247 0 48.1624 13.4337 647 96.8764 1189.89 489.785
1248 0 51.2393 13.7199 703 95.9787 1190.74 488.866
1249 0 52.214 12.6403 660 97.6015 1191.7 487.559
1250 0 55.3313 14.133 782 94.2199 1192.05 486.824
1251 0 57.2136 16.989 972 89.1152 1193.01 486.53
1252 0 57.2011 13.6536 781 95.4776 1193.07 485.284
1253 0 61.2978 14.9924 919 91.0566 1194.78 483.725
1254 0 62.3112 12.919 805 95.1963 1196.27 484.888
1255 0 66.3167 14.8077 982 91.9409 1198.39 484.471
1256 0 68.3945 15.1913 1039 92.5967 1199.39 483.321
1257 0 70.2108 15.2256 1069 93.7343 1201.85 482.354
1258 0 74.1904 14.4223 1070 96.1215 1202.84 481.828
1259 0 78.3427 15.1897 1190 95.5849 1202.93 482.702
1260 1 46.1554 11.0496 510 96.0745 1202.03 500.186
1261 0 46.0901 12.9095 595 95.1059 1201.16 499.58
1262 0 47.1133 10.825 510 100.61 1200.73 498.669
1263 0 50.16 13.0981 657 95.8432 1199.71 500.26
1264 0 53.1957 14.3057 761 94.2155 1198.51 497.961
1265 0 54.1169 13.5817 735 99.2871 1196.55 496.518
1266 0 56.0801 14.3545 805 97.3429 1194.03 497.081
1267 0 57.1736 13.3628 764 100.835 1192.51 493.134
1268 0 62.1445 14.6433 910 95.7912 1191.21 491.192
1269 0 63.1898 13.1667 832 99.5974 1189.83 489.642
1270 0 65.273 13.0988 855 100.676 1189.37 485.549
1271 0 68.0954 13.5986 926 100.364 1188.32 484.289
1272 0 68.1101 13.8159 941 101.344 1188.22 481.701
1273 0 71.1256 14.622 1040 99.776 1188.14 478.32
1274 0 75.1574 14.0505 1056 100.308 1188.22 477.507
1275 0 78.2364 15.9644 1249 97.4916 1188.73 473.332
1276 0 81.1878 15.6181 1268 96.903 1189.31 471.379
1277 0 83.5008 13.1137 1095 102.016 1189.72 470.158
1278 0 87.3574 14.4006 1258 100.61 1190.59 468.57
1279 1 50.2159 10.5544 530 100.243 1192.5 489.643
1280 0 52.2016 10.6702 557 102.153 1194.44 488.693
1281 0 54.1896 11.8842 644 99.8075 1197.33 488.632
1282 0 55.3413 12.5042 692 101.189 1199.28 486.801
1283 0 56.288 13.5375 762 99.6483 1200.01 487.529
1284 0 59.3839 14.1958 843 98.8007 1201.38 485.312
1285 0 61.0378 14.3682 877 99.6899 1204.02 486.216
1286 0 61.0639 13.4285 820 104.809 1202.95 485.117
1287 0 67.1007 15.0967 1013 99.5291 1202.61 485.597
1288 0 69.1278 14.7119 1017 100.467 1201.94 487.301
1289 0 73.1267 14.933 1092 101.571 1200.24 485.31
1290 0 75.3293 15.0008 1130 102.707 1198.62 483.787
1291 0 80.145 15.1226 1212 102.487 1197.41 483.515
1292 0 83.3232 15.3499 1279 103.768 1196.58 483.375
1293 0 85.439 14.6186 1249 106.576 1195.73 480.151
1294 0 90.4306 16.0123 1448 103.8 1193.63 476.929
1295 1 46.2231 11.531 533 107.036 1193.03 497.992
1296 0 51.2811 12.1682 624 104.651 1192.86 495.215
1297 0 51.2505 11.0048 564 108.424 1192.11 492.509
1298 0 54.2118 12.9308 701 104.823 1190.55 487.652
1299 0 57.1854 12.8529 735 103.816 1190.28 487.707
1300 0 59.1417 13.9496 825 101.818 1190.04 484.093
1301 0 62.2451 14.1859 883 99.3681 1189.35 481.17
1302 0 65.2364 15.6048 1018 96.001 1188.57 477.866
1303 0 66.1068 15.7472 1041 96.0961 1190.54 477.18
1304 0 68.1297 16.8355 1147 94.2441 1192.16 473.793
1305 0 71.1314 16.7437 1191 94.1898 1192.75 474.106
1306 0 71.1754 14.682 1045 99.2086 1194.47 473.143
1307 0 75.2525 16.2652 1224 95.2835 1196.69 472.994
1308 0 81.2984 16.2734 1323 93.3545 1198.54 472.777
1309 0 82.1856 14.8201 1218 98.0452 1200.3 469.489
1310 1 44.2622 12.313 545 96.3266 1202.52 491.053
1311 0 48.1892 13.613 656 95.7546 1202.66 490.739
1312 0 48.305 12.773 617 98.6645 1202.98 489.935
1313 0 52.1876 13.5664 708 96.9788 1202.88 491.75
1314 0 51.0724 14.2934 730 99.8027 1204.29 490.993
1315 0 54.1256 15.0206 813 97.5609 1202.53 488.951
1316 0 58.1988 14.0381 817 98.9988 1201.76 491.443
1317 0 60.1014 16.0895 967 96.3878 1200.03 489.873
1318 0 63.1073 15.3231 967 98.9328 1199.17 489.231
1319 0 64.1658 14.2132 912 102.137 1198.04 489.022
1320 0 68.2321 17.1473 1170 96.4838 1196.02 487.284
1321 0 68.3659 14.6564 1002 103.861 1194.65 484.551
1322 0 72.2151 16.0908 1162 101.517 1193.28 482.1
1323 0 75.3608 15.4988 1168 103.36 1192.6 478.919
1324 0 80.2928 16.801 1349 99.8984 1192.19 476.209
1325 1 44.1226 13.1452 580 101.509 1192.95 493.321
1326 0 45.0696 11.5155 519 105.258 1192.75 492.468
1327 0 45.0116 12.5079 563 106.277 1192.03 489.996
1328 0 46.0651 10.7239 494 110.277 1193.09 487.856
1329 0 50.097 13.7533 689 102.723 1192.74 487.026
1330 0 52.155 14.1118 736 103.482 1193.47 485.887
1331 0 54.1119 15.9854 865 98.5873 1193.81 486.028
1332 0 56.0551 15.2885 857 101.641 1196.01 484.756
1333 0 58.2329 16.2623 947 99.7075 1196.76 484.771
1334 0 62.1431 16.3333 1015 99.3882 1199.17 483.052
1335 0 65.1326 16.3052 1062 99.7712 1201.46 481.518
1336 0 67.2161 15.9188 1070 100.268 1203.16 482.261
1337 0 70.0791 15.825 1109 100.424 1204.79 482.143
1338 0 73.2256 16.1009 1179 100.777 1205.73 481.219
1339 0 77.1624 16.083 1241 99.7969 1205.93 480.396
1340 0 82.2428 16.4513 1353 98.8803 1206.35 480.663
1341 1 42.1573 13.7343 579 104.34 1204.99 499.725
1342 0 44.1948 13.1916 583 106.046 1203.89 499.302
1343 0 47.0881 13.9738 658 105.193 1203.27 499.837
1344 0 49.2011 15.3655 756 103.525 1200.56 498.005
1345 0 52.2211 15.5301 811 102.52 1198.89 497.159
1346 0 55.1255 15.3287 845 103.157 1197.73 495.624
1347 0 57.1519 15.8 903 102.499 1196.54 493.894
1348 0 59.0823 17.1625 1014 99.6765 1195.32 491.286
1349 0 62.1346 16.255 1010 101.513 1193.36 489.079
1350 0 64.0925 18.4577 1183 97.59 1191.93 487.697
1351 0 66.1187 16.6973 1104 102.331 1191.81 484.895
1352 0 69.1016 16.2659 1124 105.041 1191.74 481.466
1353 0 71.1758 17.0283 1212 102.958 1191.76 480.372
1354 0 75.1588 16.9109 1271 103.104 1192.64 477.028
1355 0 77.221 16.278 1257 105.203 1192.86 474.83
1356 0 80.0739 16.7845 1344 105.178 1192.67 472.585
1357 0 84.1377 16.4255 1382 105.351 1193.29 472.335
1358 0 83.0472 15.0637 1251 111.354 1194.61 468.959
1359 0 90.2206 16.1604 1458 108.038 1195.42 471.023
1360 1 46.0598 14.1121 650 112.386 1197.92 490.011
1361 0 48.0346 15.0308 722 110.583 1199.64 491.054
1362 0 52.1516 16.4137 856 106.682 1202.45 491.263
1363 0 53.0854 16.3887 870 105.036 1203.31 489.128
1364 0 54.0957 16.9329 916 111.437 1204.77 490.874
1365 0 55.0575 15.2386 839 116.025 1205.77 490.671
1366 0 60.0395 16.3226 980 110.743 1205.89 492.384
1367 0 62.1516 16.0253 996 113.923 1205.49 490.402
1368 0 64.1113 15.5355 996 116.595 1203.97 490.463
1369 0 69.1643 15.1379 1047 116.841 1202.83 489.915
1370 0 72.1018 15.7416 1135 116.863 1202.03 487.828
1371 0 76.0839 16.863 1283 114.776 1200.26 487.501
1372 0 79.1039 17.8879 1415 112.468 1198.61 485.645
1373 0 82.1308 15.2196 1250 120.481 1196.31 482.714
1374 0 86.1739 16.9657 1462 115.763 1194.92 482.568
1375 0 88.1145 17.9199 1579 115.281 1194.71 479.13
1376 0 90.1518 19.0013 1713 113.643 1191.98 476.264
1377 0 93.1145 17.1402 1596 117.953 1190.61 475.294
1378 1 49.0655 12.8604 631 123.545 1190.74 495.187
1379 0 50.1029 13.1529 659 123.569 1190.29 493.135
1380 0 50.1029 13.612 682 124.378 1190.06 491.609
1381 0 50.1832 13.2913 667 126.558 1190.64 490.189
1382 0 52.0518 15.523 808 120.58 1191.31 488.697
1383 0 54.0919 15.0854 816 122.801 1192.18 488.007
1384 0 52.1458 14.4786 755 125.927 1192.88 487.966
1385 0 53.0468 14.4778 768 125.018 1193.87 487.766
1386 0 56.0756 16.9236 949 118.427 1194.67 486.74
1387 0 56.0672 16.6943 936 119.037 1196.46 487.407
1388 0 56.0946 16.3652 918 119.391 1198.42 488.164
1389 0 58.0484 16.2106 941 119.136 1200.57 488.657
1390 0 58.0707 15.6705 910 120.687 1201.68 489.625
1391 0 58.1402 14.9638 870 121.123 1201.46 492.056
1392 0 59.0857 16.6707 985 117.922 1202.32 491.79
1393 0 60.0578 17.2001 1033 115.155 1203.63 493.335
1394 0 58.0284 15.6131 906 121.806 1202.61 493.977
1395 0 61.0775 15.6195 954 119.779 1201.54 495.744
1396 0 60.0591 17.5494 1054 116.448 1200.59 496.389
1397 0 60.0335 14.8084 889 123.848 1199.14 497.17
