time division length width area intensity CMx CMy
0 0 27.0017 11.2215 303 132.677 1266.76 491.182
1 0 29.0471 9.98377 290 132.214 1268.78 493.255
2 0 29.0531 11.5994 337 129.92 1269.2 491.303
3 0 29.0491 11.2224 326 129.031 1268.43 491.147
4 0 28.0667 11.9715 336 128.116 1269.19 491.914
5 0 31.0374 11.5989 360 127.469 1268.18 491.894
6 0 29.0146 11.6493 338 128.678 1268.48 491.899
7 0 31.205 11.9212 372 128.704 1267.44 489.624
8 0 36.1614 12.3336 446 123.249 1267.91 490.256
9 0 34.0348 13.9857 476 122.582 1268.18 489.021
10 0 33.108 12.867 426 123.521 1267.39 488.93
11 0 36.1339 14.0035 506 121.496 1266.75 488.04
12 0 38.1279 14.7399 562 117.582 1267.52 488.612
13 0 37.1542 13.8612 515 120.159 1266.95 487.318
14 0 41.1297 14.0531 578 118.74 1267.44 485.574
15 0 42.141 15.3058 645 116.329 1266.94 485.02
16 0 42.0633 15.0725 634 117.126 1267.55 484.934
17 0 44.0559 16.411 723 113.08 1268.25 483.874
18 0 45.1042 15.6527 706 115.717 1267.91 483.79
19 0 45.0744 14.3762 648 119.377 1268.61 483.975
20 0 47.0405 15.9862 752 115.402 1267.91 482.267
21 0 50.1855 15.3232 769 114.401 1267.79 482.096
22 0 49.2126 15.8496 780 114.451 1267.99 481.374
23 0 52.0223 15.4357 803 113.497 1268.24 480.934
24 0 53.0989 16.1209 856 111.522 1268.21 480.303
25 0 54.1309 14.6497 793 114.82 1269.07 479.257
26 0 56.0293 15.7061 880 112.177 1270.76 478.593
27 0 58.1492 15.529 903 111.381 1271.3 477.591
28 0 58.1524 14.8403 863 114.506 1271.34 474.961
29 0 63.0368 16.5776 1045 107.656 1269.71 474.697
30 0 64.2453 17.0285 1094 106.744 1269.9 471.143
31 0 67.1878 15.5088 1042 108.71 1269.58 471.9
32 0 69.1668 14.9783 1036 109.574 1269.23 470.229
33 0 73.2101 15.6809 1148 106.153 1270.58 468.699
34 0 76.1567 18.1468 1382 100.042 1270.82 468.281
35 0 76.3676 15.0064 1146 108.122 1270.33 465.436
36 0 76.3676 14.9016 1138 147.511 1271.33 465.401
37 0 82.3541 15.3969 1268 105.288 1271.33 463.73
38 0 87.2531 17.3404 1513 100.017 1271.09 462.515
39 0 87.2531 17.2372 1504 132.42 1271.07 462.537
40 1 44.2378 12.4102 549 104.743 1271.58 484.069
41 0 45.3319 12.243 555 105.236 1270.74 481.915
42 0 48.1166 14.3609 691 100.275 1272.28 481.527
43 0 49.224 12.5345 617 102.131 1271.41 483.049
44 0 51.2766 13.5149 693 100.287 1271.07 480.706
45 0 52.1901 13.7191 716 100.697 1270.84 480.589
46 0 56.1779 15.0949 848 97.2394 1271.71 478.316
47 0 56.0915 13.5671 761 100.265 1271.55 476.924
48 0 60.054 15.2862 918 96.3235 1271.39 478.571
49 0 59.1329 15.3045 905 98.0939 1271.18 476.213
50 0 62.2189 14.3686 894 96.8098 1272.35 476.757
51 0 63.0821 14.4732 913 97.885 1271.67 473.667
52 0 68.3114 16.1027 1100 94.1027 1272.04 473.811
53 0 69.41 14.6665 1018 96.9862 1272.26 472.858
54 0 72.1816 17.0542 1231 93.3818 1272.09 471.992
55 0 74.5814 16.492 1230 95.3325 1272.7 470.776
56 0 76.2177 16.7284 1275 96.1827 1271.85 469.062
57 0 80.3207 17.0566 1370 96.308 1272.58 466.026
58 0 81.3959 16.6347 1354 98.6108 1271.98 465.69
59 0 82.2907 15.7612 1297 101.786 1272.44 461.875
60 0 87.3297 16.5694 1447 99.8874 1272.48 462.328
61 0 88.3509 17.0796 1509 99.3671 1272.86 461.657
62 0 94.568 17.4689 1652 98.4982 1273.42 456.999
63 1 49.3097 8.86235 437 102.181 1274.93 484.469
64 0 51.219 11.4215 585 101.703 1274.94 480.602
65 0 51.1122 10.9367 559 102.213 1275.58 479.276
66 0 56.1858 13.1172 737 96.2727 1276.04 479.033
67 0 56.1228 12.9181 725 97.1021 1276.42 477.748
68 0 58.1139 13.4047 779 96.3338 1276.64 476.425
69 0 58.1139 13.3703 777 142.952 1276.64 476.435
70 0 60.4803 14.1864 858 97.0023 1275.36 474.794
71 0 65.304 14.8077 967 95.8604 1275.96 473.94
72 0 65.2192 14.8576 969 97.2694 1274.15 471.239
73 0 67.3644 14.1024 950 96.9326 1275 473.948
74 0 70.2156 14.2561 1001 99.2478 1275.42 469.141
75 0 73.2346 15.0748 1104 97.1096 1275.46 469.257
76 0 74.196 15.4725 1148 98.4887 1273.58 467.388
77 0 77.2447 16.027 1238 97.4871 1273.54 468.03
78 0 82.2015 16.3622 1345 95.1375 1273.78 468.955
79 0 81.1786 13.6612 1109 102.072 1275.46 465.34
80 0 85.2599 15.0364 1282 100.315 1274.44 464.961
81 1 43.0262 11.1327 479 99.2651 1275.43 486.029
82 0 44.08 9.77768 431 100.81 1274.54 487.274
83 0 46.0655 10.5936 488 97.875 1274.98 487.025
84 0 46.1392 10.685 493 99.9777 1274.81 483.925
85 0 50.1866 12.3938 622 95.9357 1274.89 482.752
86 0 50.2582 13.3511 671 95.8003 1274.87 481.642
87 0 51.1503 14.7213 753 95.0226 1273.88 479.244
88 0 53.0746 14.7151 781 93.735 1273.91 480.958
89 0 53.1364 13.8888 738 96.4851 1273.62 479.741
90 0 55.0743 13.6724 753 97.9841 1273.03 479.005
91 0 56.0986 13.708 769 100.15 1273.74 476.847
92 0 60.1329 16.0644 966 94.8571 1273.61 475.328
93 0 58.1635 13.7371 799 101.235 1274.2 476.72
94 0 62.1593 15.7177 977 97.1955 1274.56 476.025
95 0 61.2056 14.9333 914 101.105 1275.61 473.896
96 0 64.0978 16.0536 1029 100.115 1275.27 472.842
97 0 68.133 17.0842 1164 96.8969 1276.25 472.574
98 0 67.1422 14.9831 1006 102.312 1276.26 473.336
99 0 69.1679 15.1226 1046 103.519 1276 471.178
100 0 71.1564 14.4049 1025 104.905 1275.44 471.349
101 0 75.1309 14.6943 1104 105.729 1275.94 469.508
102 0 77.2089 17.5498 1355 101.737 1275.66 466.003
103 0 78.1598 14.368 1123 108.057 1275.98 468.535
104 0 81.068 15.9989 1297 104.342 1275.7 466.807
105 0 83.1228 16.8065 1397 103.85 1275.69 465.208
106 0 86.1436 16.9252 1458 103.636 1275.8 465.578
107 0 89.1001 15.9147 1418 105.652 1275.55 463.365
108 1 48.0217 10.6619 512 109.211 1276.47 483.66
109 0 48.0217 10.7243 515 159.355 1276.46 483.639
110 0 51.0838 10.7471 549 108.042 1275.83 483.656
111 0 51.0881 12.3316 630 106.257 1275.69 483.529
112 0 53.0966 13.2965 706 106.229 1275.99 480.888
113 0 54.0933 13.2549 717 106.502 1275.97 479.962
114 0 56.0812 13.1417 737 107.396 1275.7 479.388
115 0 59.0707 14.6943 868 104.142 1275.95 478.835
116 0 62.0578 15.0344 933 102.72 1274.16 477.751
117 0 62.068 14.4197 895 106.223 1275.42 476.821
118 0 66.12 15.124 1000 103.459 1275.37 475.571
119 0 67.0567 14.9277 1001 105.028 1274.54 475.213
120 0 70.1185 15.6735 1099 104.258 1274.18 472.821
121 0 71.1544 14.3772 1023 107.718 1273.38 472.67
122 0 75.093 15.3676 1154 105.867 1273.3 470.315
123 0 79.1196 16.3171 1291 103.197 1272.95 469.959
124 0 78.0594 16.8333 1314 105.145 1272.46 468.052
125 0 82.0716 15.1088 1240 108.683 1272.98 467.023
126 0 85.0857 15.7253 1338 107.627 1272.9 465.648
127 0 86.1377 14.3723 1238 110.375 1272.41 464.771
128 1 45.0715 11.9588 539 107.224 1273.82 483.584
129 0 47.0678 12.0465 567 105.979 1273.94 484.531
130 0 48.0967 11.4353 550 108.535 1274.82 482.929
131 0 51.03 12.0909 617 106.629 1275.79 482.548
132 0 53.1091 13.4252 713 104.346 1275.98 482.021
133 0 55.0404 14.2441 784 102.696 1276.43 480.985
134 0 55.0727 13.4731 742 106.385 1276.21 478.864
135 0 58.1409 14.2069 826 103.368 1275.6 478.766
136 0 59.1053 13.9074 822 104.944 1275.71 478.046
137 0 62.1034 15.3776 955 103.387 1275.4 475.839
138 0 64.0954 14.3224 918 105.298 1275.49 475.174
139 0 64.0954 14.3536 920 143.872 1273.47 475.216
140 0 64.0954 14.3536 920 143.371 1271.47 475.216
141 0 69.1022 14.4858 1001 105.898 1275.66 476.237
142 0 71.1415 13.5926 967 109.185 1274.55 473.408
143 0 73.2409 13.6263 998 109.136 1275.56 472.933
144 1 41.1549 11.0315 454 106.167 1274.93 490.121
145 0 42.1904 10.026 423 108.525 1275.01 489.147
146 0 43.1877 11.4384 494 151.846 1274.79 487.563
147 0 46.2317 12.2643 567 103.392 1274.17 487.279
148 0 45.2321 12.469 564 105.204 1272.86 485.317
149 0 46.3104 12.589 583 103.463 1272.95 486.23
150 0 50.1239 13.6861 686 100.214 1273.02 483.956
151 0 50.1974 14.4031 723 99.834 1273.18 481.907
152 0 52.2992 14.7612 772 98.3549 1273.12 482.706
153 0 52.202 13.4669 703 101.826 1272.16 480.824
154 0 52.202 13.352 697 140.973 1271.14 480.892
155 0 56.1874 13.7041 770 100.425 1273.43 480.268
156 0 57.1731 14.4648 827 100.319 1272.94 476.243
157 0 59.1479 13.052 772 102.14 1272.71 477.403
158 0 60.1732 13.1288 790 103.218 1273.31 474.801
159 0 62.1631 14.7193 915 100.315 1273.99 472.219
160 0 65.2104 14.3229 934 99.7045 1274.16 472.549
161 0 68.1845 15.1061 1030 97.4107 1274.47 473.716
162 0 70.2967 13.7844 969 100.82 1274.37 470.529
163 0 74.1999 14.4475 1072 99.3442 1274.44 470.166
164 0 75.1162 14.9502 1123 99.0944 1274.19 467.616
165 0 77.1241 14.3794 1109 100.195 1274.74 466.462
166 1 41.0491 8.74563 359 101.248 1275.55 485.295
167 0 42.0886 10.8343 456 98.4803 1276.67 484.643
168 0 46.062 10.7898 497 97.0724 1277.45 483.903
169 0 45.1261 8.35437 377 99.1432 1277.41 484.984
170 0 47.0412 12.117 570 96.107 1276.53 482.819
171 0 49.0376 11.2974 554 95.7599 1276.4 484.022
172 0 50.037 12.8505 643 94.7589 1276.15 481.537
173 0 52.035 12.0688 628 95.3806 1276.26 482.69
174 0 54.078 12.4265 672 94.3482 1274.74 482.199
175 0 54.2158 12.1367 658 94.9863 1274.29 481.359
176 0 56.2511 12.3198 693 95.013 1273.79 481.433
177 0 58.2282 13.1551 766 93.3238 1274.05 480.488
178 0 61.21 13.903 851 91.7333 1273.67 480.2
179 0 61.1474 13.1322 803 94.99 1273.41 477.715
180 0 64.1228 14.0356 900 93.0856 1272.81 477.842
181 0 67.1269 14.4651 971 92.4737 1272.55 477.511
182 0 69.2279 15.3551 1063 91.1872 1272.97 476.205
183 0 68.0895 13.5263 921 96.4962 1272.38 475.005
184 0 70.1592 13.7117 962 96.184 1272.75 470.913
185 0 73.1733 12.1766 891 99.8732 1272.84 470.735
186 0 75.0497 15.6829 1177 94.6432 1271.96 468.938
187 0 79.0554 14.9642 1183 99.9603 1272.61 467.09
188 0 80.1914 15.2884 1226 95.7659 1272.8 464.165
189 0 85.058 16.4006 1395 92.9283 1272.7 464.465
190 0 86.2592 14.3289 1236 97.2314 1273.06 461.827
191 1 46.0336 10.5575 486 94.2963 1272.92 482.895
192 0 47.0674 11.218 528 94.8163 1272.48 481.864
193 0 47.1543 9.58555 452 98.2655 1272.54 479.993
194 0 50.0946 11.3186 567 97.2681 1271.74 479.245
195 0 52.1796 11.7671 614 96.1417 1272.52 479.169
196 0 55.173 14.2098 784 92.6148 1272.91 479.329
197 0 56.0563 14.2179 797 93.5822 1272.5 477.562
198 0 58.065 14.5526 845 92.8473 1273.08 479.004
199 0 60.2063 13.9686 841 93.1439 1273.41 477.993
200 0 60.0989 13.0285 783 94.4866 1272.24 477.315
201 0 63.2963 14.4242 913 92.7722 1273.74 475.067
202 0 63.2591 13.0258 824 94.5874 1273.3 474.538
203 0 66.3005 12.6998 842 94.3349 1272.64 474.525
204 0 70.352 14.5127 1021 91.8932 1273.22 473.053
205 0 71.2285 13.2812 946 94.9049 1273.08 472.272
206 0 73.2241 14.9951 1098 92.5 1272.98 469.658
207 0 77.2112 14.3502 1108 91.3195 1273.43 471.966
208 0 78.2377 13.5612 1061 93.8454 1272.94 470.949
209 0 81.1481 13.8635 1125 94.0507 1272.26 469.164
210 0 83.2494 12.5767 1047 96.2732 1272.66 467.709
211 0 86.1523 13.6386 1175 95.0145 1272.24 463.794
212 1 46.0724 11.5253 531 91.0904 1273.05 485.972
213 0 46.0826 8.50646 392 94.9643 1272.45 485.85
214 0 48.0577 11.8816 571 91.5534 1272.16 483.205
215 0 52.1347 12.3334 643 89.8616 1272.4 480.774
216 0 52.1347 12.4677 650 118.578 1273.43 480.712
217 0 55.105 13.81 761 88.8857 1270.74 478.97
218 0 55.105 13.81 761 120.456 1266.78 478.99
219 0 58.1312 12.1793 708 92.0452 1269.15 478.374
220 0 60.1743 11.5165 693 92.6811 1269.65 477.986
221 0 63.0768 13.1269 828 90.6691 1270.07 474.892
222 0 65.2118 11.9457 779 92.7394 1270.13 475.822
223 0 66.3082 12.7888 848 93.2335 1270.04 472.646
224 0 69.4138 13.5564 941 91.7152 1270.14 472.034
225 0 72.4068 13.7142 993 91.6083 1270.89 471.347
226 1 37.0814 8.11728 301 93.1894 1270.77 489.272
227 0 42.2692 12.5387 530 85.8 1271.74 487.925
228 0 39.1371 11.5236 451 90.2328 1271.74 486.825
229 0 41.1116 10.8485 446 91.0359 1271.91 486.877
230 0 43.2579 11.9053 515 89.4621 1271.88 485.889
231 0 43.191 12.2016 527 92.5085 1272.77 483.808
232 0 46.1431 13.9566 644 87.6056 1272.98 484.491
233 0 48.1724 12.8497 619 87.3086 1272.91 483.354
234 0 47.3846 12.5146 593 88.2968 1272.81 483.32
235 0 49.2281 13.2038 650 87.8862 1273.57 481.86
236 0 51.3078 12.3373 633 88.0553 1273.63 483.496
237 0 53.2046 13.1943 702 87.4886 1273.36 482.05
238 0 52.2485 11.4836 600 91.1233 1273.43 480.678
239 0 55.2 12.7717 705 88.0979 1273.6 482.444
240 0 57.3603 12.9881 745 88.8524 1273.6 480.651
241 0 58.2429 13.0316 759 90.1054 1273.23 479.253
242 0 63.2482 14.704 930 86.1409 1272.05 478.488
243 0 62.2887 12.9719 808 90.4022 1272.23 478.212
244 0 65.2784 13.6952 894 88.2371 1272.42 478.173
245 0 68.3535 13.7667 941 89.1498 1271.76 474.869
246 0 69.2896 14.5765 1010 89.1089 1270.9 473.241
247 0 71.2638 14.0464 1001 90.1469 1270.74 473.065
248 0 74.2599 13.8567 1029 91.6288 1270.33 470.239
249 0 77.4007 13.7983 1068 90.8961 1269.55 472.525
250 1 38.0932 12.0756 460 89.9391 1271.15 488.517
251 0 40.1237 11.3399 455 91.3868 1271.74 488.343
252 0 41.2223 11.4259 471 91.8344 1271.84 487.34
253 0 44.3405 12.5168 555 90.4613 1271.38 485.508
254 0 47.2862 13.302 629 88.3704 1271.02 486.343
255 0 45.2566 11.2249 508 93.876 1270.43 484.018
256 0 47.0515 13.1133 617 90.7958 1272.08 481.875
257 0 49.0792 14.3645 705 87.8667 1271.51 482.901
258 0 49.0792 14.3238 703 123.262 1271.51 482.883
259 0 51.0594 11.8294 604 93.9387 1272.63 482.036
260 0 52.0812 12.1925 635 94.0158 1272.91 480.192
261 0 54.1437 13.1317 711 93.7722 1273.21 478.281
262 0 56.0491 12.8459 720 94.0556 1273.84 479.588
263 0 58.0489 13.8159 802 93.8229 1274.81 476.778
264 0 58.0768 13.155 764 97.2461 1274.86 476.882
265 0 61.1446 14.8173 906 94.1645 1275.17 474.889
266 0 63.0955 14.2165 897 95.2865 1275.26 474.754
267 0 63.0955 14.1848 895 143.339 1274.25 474.743
268 0 67.1901 13.9753 939 97.8999 1274.87 472.331
269 0 70.1772 14.3351 1006 96.4264 1275.19 474.238
270 1 39.0562 12.3668 483 95.648 1275.52 489.534
271 0 38.0626 9.09029 346 100.41 1275.48 490.743
272 0 40.0562 11.3091 453 98.3996 1275.06 489.773
273 0 44.2904 11.2891 500 94.888 1276.08 492.44
274 0 43.3039 12.0543 522 98.6992 1275.82 487.5
275 0 45.3516 13.8474 628 92.5717 1275.41 489.492
276 0 46.3805 13.7127 636 94.9481 1274.66 487.217
277 0 47.2588 13.1192 620 94.679 1274.33 486.953
278 0 48.3973 12.6247 611 96.401 1273.89 486.571
279 0 49.392 15.1644 749 92.3471 1272.69 483.676
280 0 49.3719 13.3882 661 95.6036 1272.08 484.729
281 0 53.3164 13.8419 738 93.3848 1273.04 483.004
282 0 53.3545 13.6071 726 94.5923 1272.64 482.731
283 0 54.3086 13.4785 732 95.7008 1272.07 481.831
284 0 54.3086 13.368 726 147.518 1272.1 481.843
285 0 58.1972 12.3717 720 98.9208 1271.25 477.2
286 0 60.3528 14.5147 876 95.1039 1271.06 477.639
287 0 60.3528 14.4484 872 142.028 1271.07 477.643
288 0 65.2616 14.3883 939 95.2109 1272.39 474.986
289 0 65.2568 12.6577 826 99.2869 1272.74 473.427
290 0 69.2981 14.6324 1014 95.145 1273.3 473.14
291 0 71.2957 13.9419 994 96.8803 1273.97 471.778
292 1 37.0923 10.1908 378 98.5106 1275.24 488.029
293 0 40.0833 11.9751 480 92.7292 1276.15 489.75
294 0 39.0983 9.94928 389 99.2648 1275.8 487.085
295 0 41.1321 12.9096 531 94.1224 1276.33 487.363
296 0 41.0897 11.6087 477 97.8239 1277.5 485.786
297 0 43.0571 13.9118 599 92.2087 1277.74 485.29
298 0 44.279 12.5568 556 97.6457 1275.37 484.13
299 0 46.4753 13.6847 636 93.6682 1275.96 484.151
300 0 48.5411 15.698 762 88.5367 1277.83 484.94
301 0 48.3022 13.5397 654 94.4083 1276.34 484.136
302 0 50.5428 14.8389 750 91.848 1276.46 483.319
303 0 50.4134 13.9249 702 94.3661 1277.17 482.301
304 0 50.4134 13.9447 703 149.442 1277.16 482.306
305 0 56.4094 14.1288 797 92.1242 1274.62 483.57
306 0 55.5982 13.6335 758 95.3615 1274.6 483.545
307 0 57.2604 13.8141 791 96.5272 1273.78 481.659
308 0 61.2483 14.3024 876 94.1872 1273.66 481.445
309 0 62.3752 16.0961 1004 92.7639 1273.27 478.775
310 0 65.4985 14.3362 939 96.1661 1273.42 479.122
311 0 66.2997 14.5853 967 96.7311 1272.82 477.408
312 0 70.2204 15.0099 1054 98.3529 1271.96 477.058
313 1 39.1571 11.9774 469 98.4179 1272.56 492.006
314 0 39.1144 11.1212 435 100.851 1272.43 491.067
315 0 39.124 10.6584 417 101.885 1271.59 491.868
316 0 43.0907 11.8123 509 101.075 1271.47 490.035
317 0 46.0774 12.5658 579 99.5561 1271.45 490.076
318 0 46.0774 12.5875 580 156.372 1271.46 490.079
319 0 46.1701 14.5332 671 101.92 1270.75 483.851
320 0 48.1016 15.197 731 97.6443 1271.06 485.115
321 0 48.1441 13.1272 632 103.259 1271.3 484.013
322 0 49.1008 13.401 658 102.886 1271.48 482.035
323 0 51.1879 14.0854 721 103.355 1272.37 483.035
324 0 51.1196 13.9477 713 106.229 1272.74 481.182
325 0 53.091 14.5034 770 104.843 1273.85 480.953
326 0 53.091 14.5599 773 150.916 1274.83 480.955
327 0 57.0839 14.1021 805 106.029 1274.85 481.304
328 0 58.064 14.7251 855 106.775 1275.16 479.883
329 0 59.1229 14.4952 857 107.089 1273.59 480.236
330 0 61.048 14.4968 885 107.134 1274.02 479.541
331 0 64.0462 17.4405 1117 100.474 1273.49 479.562
332 0 65.0357 15.3147 996 105.764 1273.57 479.943
333 0 66.099 14.0698 930 108.37 1274.77 479.082
334 0 70.2037 16.039 1126 103.266 1275.89 478.774
335 1 38.0997 8.84522 337 106.187 1276.47 496.81
336 0 37.0796 11.8124 438 109.037 1276.44 492.393
337 0 41.0879 13.897 571 105.457 1276.44 493.03
338 0 41.0396 12.1346 498 107.95 1276.28 493.661
339 0 45.0455 12.0323 542 107.804 1275.47 492.031
340 0 44.0411 13.2149 582 108.082 1275.5 489.857
341 0 44.0292 12.8778 567 107.206 1273.86 489.314
342 0 44.0292 12.9005 568 159.766 1271.87 489.403
343 0 47.1628 14.1637 668 105.515 1270.05 487.371
344 0 49.1248 13.0891 643 106.526 1269.83 487.829
345 0 49.1248 13.1502 646 158.407 1268.85 487.873
346 0 52.1292 13.5625 707 106.199 1270.55 485.928
347 0 53.1504 14.299 760 104.416 1270.28 485.263
348 0 56.0929 14.886 835 102.975 1271.01 482.721
349 0 56.1687 14.2428 800 105.486 1270.64 481.724
350 0 59.1438 14.7268 871 103.913 1270.47 480.344
351 0 60.1131 15.2878 919 102.055 1270.44 478.481
352 0 61.1619 13.9793 855 107.388 1270.79 476.24
353 0 65.117 15.8484 1032 102.395 1270.85 475.158
354 0 66.2009 14.7128 974 105.588 1271.38 473.818
355 0 68.1277 14.3847 980 106.158 1272.03 474.696
356 0 68.1229 14.327 976 149.153 1271.05 474.685
357 0 72.2212 14.5525 1051 105.576 1272.71 470.679
358 1 41.0632 11.5432 474 103.869 1273.26 488.5
359 0 41.0469 11.8401 486 103.198 1274.06 488.469
360 0 41.0469 11.9132 489 148.368 1276.06 488.47
361 0 45.2573 13.2575 600 100.37 1276.86 486.882
362 0 47.2086 13.0696 617 100.553 1276.94 486.462
363 0 50.2578 13.0925 658 100.435 1276.52 485.922
364 0 50.2964 13.5994 684 100.25 1276.16 485.425
365 0 50.2964 13.5 679 132.845 1276.19 485.392
366 0 55.2821 14.218 786 98.9249 1275.32 484.33
367 0 55.1142 13.6626 753 100.936 1275.08 485.316
368 0 56.137 14.0727 790 102.261 1274.96 483.79
369 0 59.2021 14.6954 870 101.297 1274.26 482.706
370 0 59.0681 13.4421 794 104.023 1275.14 482.307
371 0 59.068 13.4083 792 144.021 1274.16 482.045
372 0 64.1284 14.9232 957 102.266 1275.05 478.418
373 0 66.0534 14.3218 946 103.684 1274.5 478.04
374 0 69.2198 14.5768 1009 102.945 1273.41 476.587
375 0 72.1366 15.7063 1133 101.712 1272.55 475.417
376 0 75.1573 14.8888 1119 102.275 1272.18 473.692
377 1 38.0709 10.7956 411 105.849 1271.41 487.993
378 0 39.0404 11.2192 438 104.934 1271.23 488.728
379 0 41.0505 11.0352 453 105.642 1269.58 487.671
380 0 43.1046 11.9477 515 104.373 1270.63 486.101
381 0 46.2529 12.1722 563 103.471 1270.84 485.544
382 0 46.1625 13.8857 641 102.204 1271.14 482.889
383 0 48.0685 15.4363 742 98.8612 1272.18 483.164
384 0 49.0918 14.6053 717 101.667 1272.72 481.298
385 0 53.1115 15.6087 829 98.0084 1273.54 482.402
386 0 54.118 14.6716 794 100.321 1273.65 480.929
387 0 55.0943 14.3027 788 100.826 1274.28 479.929
388 0 56.1021 13.8319 776 101.871 1275.35 479.126
389 0 59.02 15.4185 910 98.6736 1275.77 478.071
390 0 59.316 15.7799 936 97.5908 1276.27 478.628
391 0 59.316 15.763 935 148.689 1277.24 478.575
392 0 64.2086 14.7332 946 99.1808 1276.5 477.965
393 0 64.0843 14.2156 911 101.116 1276.68 477.716
394 0 68.3101 14.9758 1023 99.4409 1276.53 476.564
395 0 70.1804 15.0897 1059 100.071 1277.07 475.85
396 0 72.3185 13.7033 991 102.553 1277.51 476.615
397 0 72.3185 13.7448 994 160.857 1277.49 476.742
398 0 77.3254 14.7041 1137 102.303 1275.88 471.738
399 1 44.1426 12.1878 538 99.2175 1276.32 489.621
400 0 45.1624 13.3518 603 96.7678 1275.78 489.67
401 0 46.2925 12.0754 559 100.968 1274.64 487.569
402 0 49.2152 13.1667 648 99.659 1273.67 486.432
403 0 51.1406 14.0593 719 96.7455 1273.23 485.396
404 0 52.1906 14.0255 732 97.5697 1271.91 483.735
405 0 53.1121 13.7822 732 98.9235 1272.37 482.544
406 0 56.2097 13.8944 781 97.7414 1271.75 481.972
407 0 58.1676 15.3006 890 95.7798 1271.5 480.421
408 0 60.1561 13.3154 801 99.4607 1271.42 478.735
409 0 62.1803 13.9272 866 98.9654 1271.52 477.054
410 0 64.1097 14.834 951 98.55 1270.86 475.102
411 0 63.1778 12.7893 808 103.72 1271 473.397
412 0 68.1619 14.2308 970 97.5629 1271.43 474.548
413 0 70.1405 14.3426 1006 100.038 1271.5 470.287
414 0 72.1559 15.8684 1145 97.9319 1272.18 466.838
415 0 74.1785 15.4088 1143 99.5704 1274.21 466.721
416 0 78.2055 14.0271 1097 101.68 1274.1 466.606
417 1 39.0561 9.24312 361 100.612 1275.61 486.637
418 0 41.082 9.98004 410 99.422 1276.38 485.007
419 0 43.0475 11.1505 480 97.6146 1277.94 485.292
420 0 45.1121 12.613 569 96.2267 1277.76 482.158
421 0 47.0675 12.7477 600 96.9133 1277.2 483.078
422 0 49.0992 12.5053 614 95.4544 1277.93 486.303
423 0 52.1593 12.596 657 95.9726 1278.2 485.068
424 0 53.2368 14.088 750 93.812 1277.89 484.904
425 0 54.1348 13.2817 719 95.4298 1277.79 483.65
426 0 55.1612 13.1614 726 95.4242 1277.32 483.583
427 0 59.2488 13.6712 810 93.942 1276.61 483.19
428 0 60.2753 12.7747 770 94.9636 1276.73 484.361
429 0 62.1434 13.0344 810 94.037 1276.23 484.085
430 0 63.179 13.2164 835 94.2455 1275.51 481.727
431 0 67.2368 13.4599 905 94.4718 1275.28 479.333
432 0 69.2835 14.0438 973 93.0946 1275.56 477.376
433 0 71.1363 13.8748 987 94.1662 1273.24 477.092
434 1 40.0697 7.58678 304 95.7664 1273.47 493.336
435 0 41.0767 10.1517 417 94.2926 1272.65 489.729
436 0 42.117 11.1119 468 93.062 1271.59 489.295
437 0 46.088 11.5648 533 90.8462 1270.7 488.46
438 0 44.1824 9.68712 428 95.6799 1272.14 487.841
439 0 46.1648 11.3073 522 93.1169 1270.08 486.335
440 0 48.1414 11.9232 574 92.385 1270.65 484.237
441 0 51.1598 12.4316 636 91.8349 1270.01 482.734
442 0 51.3072 12.279 630 95.4175 1270.46 480.73
443 0 55.5372 14.1347 785 90.5172 1270.45 480.27
444 0 55.5303 14.0644 781 92.1946 1271.7 480.484
445 0 57.4227 14.0537 807 92.4064 1272.22 477.716
446 0 59.3415 14.0711 835 93.2898 1272.35 477.448
447 0 61.3434 15.0138 921 92.3518 1273.43 477.692
448 0 62.2322 13.0158 810 96.9642 1275 475.485
449 0 65.5045 13.3121 872 97.3934 1275.87 475.849
450 0 68.3827 13.6731 935 97.3914 1277.16 474.779
451 0 70.1995 12.5642 882 100.257 1277.05 473.823
452 0 74.3481 14.6608 1090 97.3028 1277.67 471.815
453 1 40.3755 9.48596 383 101.974 1278.43 490.658
454 0 42.2914 9.15079 387 102.649 1278.18 492.532
455 0 44.3067 11.2173 497 101.575 1277.01 489.161
456 0 45.3131 13.0205 590 95.5441 1276.99 491.471
457 0 47.1353 14.172 668 96.8054 1276.6 487.843
458 0 49.2674 13.173 649 99.4807 1276.12 488.254
459 0 51.3286 13.6376 700 97.7314 1275.47 487.444
460 0 52.3203 14.9464 782 95.991 1274.93 487.509
461 0 55.2434 13.9383 770 98.2299 1274.4 486.377
462 0 57.2525 13.2571 759 99.1199 1272.87 486.444
463 0 57.2774 13.0069 745 100.358 1272.18 484.313
464 0 60.2528 14.2234 857 97.6791 1271.88 481.491
465 0 62.1964 14.2773 888 97.3896 1270.33 479.55
466 0 61.296 13.9813 857 100.489 1271.29 479.294
467 0 65.4392 14.395 942 100.014 1271.2 476.788
468 0 68.3105 14.112 964 100.078 1271.87 474.262
469 0 70.188 14.8316 1041 99.8857 1270.36 471.349
470 0 70.2724 15.8953 1117 99.4987 1269.96 469.49
471 0 73.3886 14.0485 1031 102.299 1269.84 469.566
472 0 75.7879 14.6857 1113 101.634 1269.83 467.842
473 0 78.2687 15.1785 1188 100.71 1270.74 466.549
474 0 81.1653 15.1666 1231 100.325 1271.92 464.513
475 0 85.1447 15.2211 1296 100.208 1272.69 461.873
476 1 44.0303 10.3111 454 93.8811 1273.69 487.055
477 0 44.0134 11.1557 491 97.3381 1274.62 482.982
478 0 46.0407 11.8591 546 100.568 1276.16 482.372
479 0 47.1438 13.024 614 98.9984 1280.19 482.083
480 0 49.0677 13.1451 645 98.3721 1279.57 481.922
481 0 51.2072 13.6114 697 98.3386 1280.07 484.198
482 0 52.1253 13.6594 712 98.7472 1280.56 484.817
483 0 53.2193 14.1114 751 98.5712 1279.82 483.122
484 0 57.1792 13.9212 796 97.3568 1279.69 483.887
485 0 59.11 14.8368 877 96.5143 1278.3 482.015
486 0 59.1657 13.0143 770 100.101 1277.95 483.112
487 0 63.2093 14.8712 940 95.7021 1277.28 483.298
488 0 65.2 12.7454 831 99.9687 1276.61 480.894
489 0 68.2232 14.4086 983 96.6216 1276.05 478.393
490 0 72.1831 16.2226 1171 92.5414 1275.34 477.488
491 0 75.3235 14.8294 1117 94.692 1274.05 477.42
492 0 77.137 15.5697 1201 93.4588 1273 471.746
493 0 80.1979 15.5116 1244 93.6005 1271.72 469.369
494 0 82.167 14.5436 1195 94.723 1271.97 470.129
495 1 42.0107 10.7592 452 94.5863 1272.36 489.239
496 0 42.0795 10.6465 448 92.6161 1271.96 490.404
497 0 47.1554 12.2573 578 91.4516 1271.53 486.061
498 0 47.0824 11.5542 544 93.2482 1270.32 482.011
499 0 47.1639 12.0855 570 93.1649 1269.73 481.111
500 0 48.0972 13.9093 669 92.157 1269.93 480.913
501 0 50.0736 13.2805 665 92.3083 1270.26 481.053
502 0 52.1142 13.0867 682 93.0674 1271.48 479.658
503 0 55.2306 13.4708 744 91.1653 1271.78 480.476
504 0 58.164 14.6138 850 89.7871 1273.22 478.468
505 0 59.0206 15.6217 922 89.3373 1273.86 477.389
506 0 60.086 14.8454 892 91.4978 1274.7 477.081
507 0 62.0427 15.5377 964 90.9876 1276.87 476.249
508 0 65.0638 15.431 1004 91.9412 1278.4 475.848
509 0 67.1029 15.4539 1037 92.6905 1279.75 475.945
510 0 71.0756 14.4494 1027 94.6621 1279.94 476.57
511 0 73.2323 14.9797 1097 94.1914 1279.62 476.059
512 0 74.2325 15.0473 1117 96.8765 1280.34 474.795
513 1 42.2149 11.1098 469 98.678 1280.28 493.947
514 0 40.0191 10.3201 413 101.215 1279.12 494.508
515 0 44.1137 11.9917 529 97.6881 1278.02 495.724
516 0 47.0186 11.8677 558 102.385 1277.06 495.222
517 0 48.2028 13.9826 674 94.5682 1276.05 494.822
518 0 50.0612 14.722 737 93.1981 1274.64 494.153
519 0 50.0435 14.0678 704 94.9446 1273.15 492.097
520 0 51.1189 14.2413 728 94.4753 1271.12 491.941
521 0 54.1033 14.9159 807 92.2553 1269.66 491.887
522 0 56.1961 14.6985 826 93.5303 1268.17 486.212
523 0 57.0486 13.7953 787 95.7014 1267.6 484.155
524 0 57.0486 13.8654 791 143.561 1267.6 484.243
525 0 64.1525 17.6143 1130 87.9894 1266.58 485.241
526 0 65.119 15.4947 1009 93.6987 1265.68 481.502
527 0 66.1908 15.6819 1038 94.9904 1265.51 479.049
528 0 69.3841 15.8826 1102 94.9909 1264.57 477.751
529 0 69.2858 15.1546 1050 98.301 1264.12 475.383
530 0 71.2143 13.8736 988 101.36 1265.04 473.971
531 0 73.2003 14.7677 1081 100.821 1264.91 472.159
532 0 76.1935 15.1719 1156 100.259 1265.45 472.308
533 0 78.1464 15.6757 1225 100.913 1267.29 470.491
534 0 83.2553 15.7588 1312 100.78 1268.97 470.48
535 0 85.2139 15.068 1284 102.866 1270.86 468.837
536 0 88.2935 15.7203 1388 103.298 1273.12 467.952
537 0 91.2321 15.9922 1459 104.444 1274.9 468.8
538 0 93.3216 15.3019 1428 107.204 1276.2 468.186
539 0 97.1688 14.9842 1456 109.069 1277.41 467.979
540 0 103.235 16.3704 1690 105.502 1277.48 469.179
541 1 56.2093 12.8271 721 106.974 1277.8 493.225
542 0 56.0978 12.0504 676 109.333 1274.44 490.944
543 0 60.1769 14.1749 853 105.862 1272.93 489.064
544 0 65.1935 14.7407 961 102.703 1271.65 490.034
545 0 66.1113 14.5663 963 103.924 1269.27 489.26
546 0 70.1524 14.7251 1033 103.26 1267.62 486.685
547 0 74.0943 14.2926 1059 104.062 1266.51 484.732
548 0 74.0943 14.2386 1055 149.117 1265.51 484.801
549 0 81.2456 14.8685 1208 102.985 1263.81 478.222
550 0 85.2753 15.0688 1285 101.155 1262.97 477.519
551 0 89.4209 15.9582 1427 99.9411 1262.85 473.28
552 1 46.0654 11.0278 508 100.884 1262.78 495.146
553 0 49.1669 13.383 658 98.19 1263.24 491.953
554 0 47.2459 11.4084 539 101.985 1263.19 489.898
555 0 52.1402 12.2938 641 100.949 1263.11 487.97
556 0 53.0461 15.2509 809 96.5587 1262.48 483.675
557 0 56.0752 15.3365 860 95.8988 1262.65 483.946
558 0 56.1006 13.9927 785 99.3197 1263.19 480.985
559 0 58.1523 14.0493 817 99.5532 1263.3 478.164
560 0 60.1126 14.1401 850 98.4976 1264.02 477.918
561 0 63.0668 14.7146 928 97.0657 1264.48 476.384
562 0 64.313 13.9008 894 99.5906 1266.48 475.361
563 0 65.1751 14.8216 966 99.0041 1268.32 474.744
564 0 69.189 14.8868 1030 98.5456 1270.43 474.333
565 0 71.1001 13.4177 954 100.961 1273.05 474.385
566 0 74.2317 14.4413 1072 98.9534 1275.11 473.653
567 0 76.1787 15.6343 1191 97.2586 1276.42 474.066
568 0 80.3193 15.4508 1241 97.087 1277.14 475.3
569 0 83.2255 13.902 1157 100.838 1276.55 473.944
570 0 85.2361 13.6679 1165 101.621 1276.17 474.058
571 1 45.1418 12.4275 561 100.027 1275.28 492.627
572 0 47.2177 11.1187 525 99.2571 1272.86 495.741
573 0 49.2765 12.0341 593 99.973 1273.53 494.314
574 0 53.1207 13.4599 715 97.4154 1273.1 492.641
575 0 54.0697 14.0374 759 96.2872 1271.88 492.153
576 0 55.1299 14.6382 807 97.5043 1270.15 490.603
577 0 59.1166 14.6998 869 95.214 1268.05 491.31
578 0 62.1136 14.7472 916 95.4509 1266.55 487.644
579 0 64.0987 17.6291 1130 91.2186 1265.82 484.926
580 0 64.1309 14.1118 905 99.6 1264.3 484.779
581 0 65.1372 13.8477 902 101.365 1264.02 482.131
582 0 68.137 13.9131 948 101.897 1264.04 479.649
583 0 72.1335 15.2634 1101 97.8292 1263.07 477.508
584 0 73.0356 14.2533 1041 101.788 1262.87 476.1
585 0 77.2764 14.364 1110 101.282 1263.2 475.414
586 0 80.0965 15.0568 1206 101.697 1263.3 472.392
587 0 82.184 15.1733 1247 101.86 1263.67 470.106
588 0 86.3274 16.4953 1424 98.5534 1264.9 468.981
589 0 89.302 15.0836 1347 101.148 1265.44 469.172
590 1 44.0744 12.5243 552 103.703 1267.36 486.453
591 0 47.1233 12.9023 608 103.668 1267.97 484.969
592 0 49.1062 13.2977 653 103.309 1268.84 485.845
593 0 52.298 14.8763 778 99.3843 1271.52 486.806
594 0 53.1263 14.4938 770 102.903 1273.95 486.434
595 0 55.0704 15.2532 840 101.529 1276.34 484.79
596 0 58.2264 14.8386 864 102.478 1277.87 485.392
597 0 60.1495 13.9818 841 104.856 1276.78 486.095
598 0 63.1742 14.6579 926 104.409 1277.59 486.866
599 0 66.2706 16.1157 1068 100.772 1276.85 485.852
600 0 69.411 15.1561 1052 103.58 1276.09 484.963
601 0 72.5853 14.6586 1064 105.817 1273.12 485.653
602 0 74.6524 14.5742 1088 106.07 1273.46 484.39
603 0 78.5488 15.8628 1246 104.142 1272.31 484.821
604 1 41.545 13.2146 549 102.86 1270.76 501.827
605 0 42.4521 12.9793 551 102.998 1268.91 503.526
606 0 44.4102 13.2852 590 103.532 1267.61 503.685
607 0 46.3032 13.3036 616 103.437 1266.54 503.339
608 0 48.1355 14.2514 686 101.56 1265.4 504.287
609 0 48.3279 14.3809 695 102.422 1263.8 502.868
610 0 49.3419 13.3963 661 105.663 1263.81 501.383
611 0 53.1925 15.0773 802 102.026 1262.7 499.18
612 0 54.2949 15.4526 839 101.725 1262.26 497.709
613 0 58.2737 16.3539 953 100.478 1261.51 496.317
614 0 59.4722 16.3438 972 101.236 1261.42 494.82
615 0 61.5704 15.4945 954 102.866 1261.05 491.652
616 0 64.3435 14.9044 959 104.4 1260.69 488.838
617 0 65.3714 14.8077 968 105.559 1261.85 488.776
618 0 66.4291 15.3698 1021 105.886 1261.33 485.856
619 0 71.5226 17.1834 1229 101.893 1262.06 484.315
620 0 74.5952 16.3415 1219 102.07 1262.15 482.448
621 0 75.6623 16.2168 1227 103.937 1263.1 480.566
622 0 80.2576 17.9298 1439 99.9041 1264.35 480.165
623 0 83.3201 17.3668 1447 100.326 1265.09 481.5
624 1 42.302 9.81042 415 105.843 1267.53 502.549
625 0 43.1964 11.5982 501 102.13 1268.21 502.966
626 0 45.0611 13.2265 596 102.282 1267.51 499.228
627 0 49.0489 14.2103 697 98.6958 1267.73 499.603
628 0 50.1638 15.1902 762 98.8399 1267.07 497.579
629 0 52.1229 13.4682 702 101.16 1267.09 501.199
630 0 53.083 14.9389 793 100.087 1265.03 500.448
631 0 58.2748 14.4831 844 99.9597 1265.16 501.585
632 0 61.2419 16.3287 1000 96.202 1264.14 500.922
633 0 61.3918 13.6826 840 102.948 1262.91 501.3
634 0 64.4176 13.9558 899 104.423 1262.96 497.788
635 0 69.1854 16.3618 1132 99.3481 1262.87 498.479
636 0 69.2114 13.8128 956 106.227 1259.78 496.255
637 1 37.1321 13.0345 484 102.275 1259.31 511.736
638 0 38.2044 12.1975 466 104.193 1256.46 509.841
639 0 40.1418 12.6053 506 103.119 1255.97 508.419
640 0 41.2462 13.0679 539 104.265 1256.24 506.577
641 0 41.2462 13.0436 538 151.273 1256.24 506.545
642 0 43.134 15.6953 677 100.524 1256.23 503.578
643 0 44.0719 14.4083 635 102.865 1256.15 501.518
644 0 47.1242 15.3212 722 101.878 1256.47 500.882
645 0 46.1927 14.3096 661 105.893 1257.17 500.014
646 0 48.3675 13.6455 660 107.22 1257.82 498.923
647 0 49.0973 15.3369 753 104.575 1258.92 496.56
648 0 50.2563 14.1276 710 107.187 1259.51 497.901
649 0 53.2153 15.0145 799 105.002 1260.25 495.927
650 0 54.0921 13.9022 752 108.069 1261.82 496.154
651 0 57.3688 15.0256 862 105.411 1264.2 495.155
652 0 58.2983 15.678 914 104.554 1265.25 494.399
653 0 59.2765 15.3855 912 104.954 1266.76 494.322
654 0 60.192 15.5336 935 106.004 1268.01 492.64
655 0 65.131 14.2482 928 106.718 1269.37 494.298
656 0 66.2186 15.9925 1059 104.874 1269.46 493.103
657 0 67.5242 14.6318 988 106.746 1269.52 494.891
658 0 68.2961 15.6964 1072 107.117 1269.12 492.665
659 0 71.359 15.6252 1115 106.633 1268.66 492.336
660 0 76.3586 15.7546 1203 104.322 1266.79 492.207
661 0 77.2335 16.7932 1297 103.616 1264.6 489.389
662 0 80.1753 15.2042 1219 106.329 1264.27 487.032
663 1 37.0484 10.8777 403 107.675 1262.27 507.34
664 0 39.06 11.7 457 100.407 1261.51 509.057
665 0 42.1004 14.798 623 98.9326 1260.37 503.846
666 0 42.1436 12.9082 544 100.59 1259.25 502.785
667 0 43.076 12.1645 524 102.254 1258.37 499.66
668 0 45.0315 12.7466 574 100.357 1258.86 499.338
669 0 46.1341 14.783 682 96.3651 1258.63 496.588
670 0 48.0902 15.1174 727 94.8349 1258.67 494.431
671 0 49.0891 16.2154 796 95.049 1258.33 491.215
672 0 51.0344 16.2439 829 94.3703 1258.91 490.2
673 0 50.1508 15.0745 756 97.1997 1260.22 487.467
674 0 51.1285 16.5074 844 95.5995 1260.91 488.694
675 0 52.0523 15.7534 820 96.422 1261.79 485.126
676 0 54.2432 16.1495 876 95.919 1262.67 484.558
677 0 57.0651 14.72 840 97.4476 1263.92 485.17
678 0 58.0645 15.9822 928 95.3804 1264.31 483.594
679 0 60.0897 16.9913 1021 93.3996 1266.54 484.511
680 0 62.1493 15.6558 973 94.3813 1269.12 485.497
681 0 62.1493 15.6076 970 138.134 1270.14 485.436
682 0 67.0558 18.85 1264 89.9612 1272.87 484.397
683 0 65.1242 17.6279 1148 92.9669 1272.75 483.013
684 0 65.0862 15.272 994 96.8582 1272.62 483.69
685 0 69.2406 17.042 1180 91.9305 1274.29 484.833
686 0 71.1017 16.61 1181 93.713 1272.84 483.085
687 0 72.1009 16.047 1157 94.1884 1274.31 484.942
688 0 74.1632 16.9087 1254 92.3892 1273.26 483.506
689 0 75.1671 17.9334 1348 90.7767 1271.01 484.783
690 0 78.1784 18.9311 1480 88.2824 1271.05 482.77
691 0 78.3399 17.0539 1336 90.5254 1268.63 481.346
692 0 81.1125 17.9997 1460 88.5445 1268.2 478.275
693 0 83.0853 16.6816 1386 89.3088 1267.09 479.436
694 0 85.0823 16.6897 1420 89.8803 1265.28 473.935
695 0 85.1185 17.8105 1516 88.3094 1263.27 471.747
696 0 88.0591 19.0894 1681 86.2635 1262.77 473.036
697 0 90.1804 17.8642 1611 87.6257 1262.43 471.7
698 0 90.4052 18.4613 1669 87.3002 1262.73 469.248
699 0 90.4052 18.3839 1662 138.103 1263.73 469.289
700 0 92.1857 17.3671 1601 88.2523 1264.23 466.343
701 0 94.4249 17.686 1670 87.4084 1263.72 464.523
702 0 94.1644 17.6819 1665 87.8679 1264.77 462.067
703 0 96.2406 17.9134 1724 86.8022 1265.65 462.115
704 0 97.3136 17.6029 1713 86.8447 1266.42 461.886
705 0 96.1746 16.6988 1606 88.5405 1268.14 461.828
706 0 99.1745 17.1415 1700 87.8359 1268.34 459.288
707 0 100.149 17.2843 1731 88.1144 1270.47 460.523
708 0 100.181 17.8376 1787 87.9172 1271.76 459.859
709 0 102.21 17.963 1836 87.726 1274.34 461.066
710 0 102.307 16.6265 1701 89.9118 1276.35 462.165
711 0 105.266 18.705 1969 86.6699 1277.62 462.76
712 0 105.277 18.5131 1949 87.4561 1280.2 463.855
713 0 106.194 17.2796 1835 89.6316 1280.52 461.614
714 1 49.055 14.5551 714 87.1765 1280.34 493.608
715 0 48.059 12.3598 594 90.4108 1279.24 494.603
716 0 51.2274 14.6797 752 87 1278.22 494.677
717 0 53.0833 14.336 761 87.0657 1276.32 494.766
718 0 51.1204 13.7127 701 88.4123 1275.02 495.161
719 0 53.1073 15.4028 818 87.3949 1274.65 493.462
720 0 52.1311 14.6554 764 88.1885 1273.73 493.128
721 0 53.0554 14.4943 769 87.8934 1272.02 491.958
