time division length width area intensity CMx CMy
0 0 47.0409 13.6264 641 114.223 1270.68 489.014
1 0 47.0381 13.4359 632 114.559 1270.72 490.323
2 0 48.0299 13.6165 654 114.185 1271.58 489.222
3 0 51.0521 13.261 677 111.058 1270.14 489.685
4 0 51.0585 13.2593 677 135.05 1268.14 489.733
5 0 50.0276 13.9123 696 112.522 1273.04 486.902
6 1 26.0777 10.6605 278 120.367 1273 499.439
7 0 27.0167 11.3263 306 115.801 1272.82 499.029
8 0 26.0228 10.9904 286 120.07 1273.22 497.64
9 0 28.0465 11.4096 320 117.072 1273.31 497.081
10 0 31.0218 11.8626 368 111.584 1273.32 497.88
11 0 29.002 9.75796 283 118.424 1272.94 498.095
12 0 31.0274 12.4084 385 112.909 1272.42 495.564
13 0 29.0942 10.4488 304 116.52 1272.9 496.707
14 0 34.0071 12.9679 441 108.576 1273.18 495.327
15 0 34.0378 12.2511 417 110.938 1273.43 495.194
16 0 36.2113 13.2831 481 111.104 1273.24 493.879
17 0 36.197 13.5646 491 110.758 1273.28 493.291
18 0 34.1023 12.6678 432 114.944 1273.6 496.03
19 0 37.1711 13.5858 505 111.954 1274.24 494.43
20 0 37.1229 14.6809 545 111.881 1273.59 493.413
21 0 40.2738 15.3201 617 108.614 1274.4 493.209
22 0 41.2718 14.3682 593 111.324 1275.86 493.351
23 0 41.2718 14.3439 592 137.498 1277.84 493.363
24 0 42.1991 15.2847 645 111.378 1276.69 492.395
25 0 42.1952 15.2624 644 144.158 1274.69 492.337
26 0 44.3974 16.8253 747 110.345 1276.07 490.387
27 0 45.1728 15.5846 704 112.347 1276.28 490.727
28 0 46.3074 16.1961 750 112.652 1276.74 489.659
29 0 47.179 14.9643 706 115.579 1276.92 489.428
30 0 49.2301 16.8799 831 110.35 1277.33 488.3
31 0 50.1383 16.275 816 112.583 1277.65 487.147
32 0 50.2757 14.4205 725 117.406 1277.47 487.499
33 0 54.1333 15.9421 863 112.168 1277.7 485.285
34 0 55.2544 17.1932 950 110.103 1277.89 483.976
35 0 55.263 15.4896 856 116.237 1278.2 483.446
36 0 58.1897 15.0026 873 116.236 1278.57 484.112
37 0 60.1915 15.1849 914 115.99 1278.42 483.205
38 0 63.1227 16.7452 1057 111.938 1278.88 481.998
39 0 62.2495 16.0483 999 114.825 1278.02 480.575
40 0 64.2668 15.3423 986 115.551 1278.53 480.832
41 0 69.3397 17.1475 1189 111.521 1278.4 480.64
42 0 70.283 17.5434 1233 110.958 1278.49 480.263
43 0 73.2538 16.9821 1244 112.959 1279.06 477.128
44 0 76.3181 17.1257 1307 111.967 1278.8 478.592
45 0 78.2762 17.9493 1405 111.504 1279.38 475.496
46 0 78.2762 18.0387 1412 155.508 1280.4 475.484
47 1 44.2303 14.8315 656 117.155 1279.76 492.503
48 0 44.2303 14.741 652 157.931 1278.74 492.402
49 0 46.2321 12.5887 582 120.029 1279.12 492.789
50 0 48.2621 13.2609 640 116.061 1278.51 491.686
51 0 48.2621 13.178 636 173.494 1276.47 491.697
52 0 53.2685 14.0233 747 113.333 1278.99 489.932
53 0 54.0668 15.7583 852 110.572 1279.52 488.539
54 0 54.0668 15.7213 850 161.559 1281.5 488.587
55 0 54.0668 15.7953 854 160.706 1283.49 488.698
56 0 61.1712 16.6582 1019 108.487 1278.43 485.23
57 0 63.1167 16.7784 1059 108.565 1279.45 483.757
58 0 62.3446 15.8634 989 112.556 1278.41 483
59 0 65.1054 17.3104 1127 109.112 1278.62 480.639
60 0 68.1551 15.7435 1073 111.777 1278.66 478.859
61 0 72.113 15.9195 1148 110.477 1278.53 476.699
62 0 73.2004 15.8742 1162 110.759 1278.47 476.857
63 1 39.1617 12.8697 504 110.226 1278.33 493.405
64 0 42.0549 13.197 555 108.133 1277.02 493.301
65 0 40.0856 12.3236 494 112.237 1277.48 491.848
66 0 43.0599 13.5393 583 107.437 1277.4 492.197
67 0 43.0463 14.6819 632 109.196 1277.27 489.597
68 0 44.0106 15.4736 681 105.859 1277.25 490.222
69 0 45.1711 14.5226 656 107.655 1277.79 490.473
70 0 47.203 16.5032 779 105.988 1276.99 488.208
71 0 50.1809 15.2847 767 106.568 1277.74 489.106
72 0 49.1725 15.1914 747 109.28 1276.25 486.93
73 0 53.1141 16.0598 853 105.952 1276.94 486.443
74 0 53.093 15.0114 797 110.31 1277.5 485.055
75 0 54.0895 13.9214 753 156.05 1276.54 485.454
76 0 57.1181 14.8814 850 111.261 1280.32 484.728
77 0 58.1796 15.9162 926 109.867 1280.38 482.819
78 0 62.1206 15.3894 956 110.259 1280.63 481.379
79 0 65.1389 15.4593 1007 109.659 1281.13 481.488
80 0 67.3241 14.5713 981 111.461 1281.9 480.823
81 0 69.1041 14.934 1032 109.968 1281.82 479.404
82 0 73.2126 16.1448 1182 108.638 1280.94 478.081
83 1 39.0113 11.7402 458 110.74 1280.83 494.644
84 0 41.0576 12.2754 504 112.004 1280.54 492.601
85 0 43.0967 13.2957 573 108.946 1280.12 492.244
86 0 44.2399 11.4829 508 112.4 1280.56 493.248
87 0 45.1102 13.2342 597 111.055 1280.52 490.662
88 0 46.2301 14.3197 662 108.618 1280.42 490.302
89 0 47.0952 12.8675 606 110.649 1280.05 489.272
90 0 50.1737 13.4931 677 108.23 1280.45 488.223
91 0 52.213 14.1919 741 106.211 1281.28 487.722
92 0 55.1612 15.4275 851 104.66 1281.76 485.643
93 0 58.1662 15.4901 901 105.45 1280.66 485.181
94 0 59.1692 13.9093 823 110.426 1280.6 482.714
95 0 59.1557 14.166 838 110.189 1280.74 483.291
96 0 62.2434 15.6643 975 109.269 1281.29 480.275
97 0 66.1736 14.7944 979 109.173 1281.59 480.457
98 0 66.1852 14.4443 956 110.818 1281.19 480.461
99 0 70.2231 14.2546 1001 111.463 1281.25 480.137
100 0 72.2001 14.0581 1015 114.657 1282.35 477.173
101 0 75.1348 14.2544 1071 115.285 1283.04 476.115
102 0 78.1551 14.9702 1170 113.747 1283.6 475.141
103 1 44.1536 11.3694 502 115.108 1281.94 491.661
104 0 44.0196 12.5853 554 113.5 1282.44 491.375
105 0 44.0196 12.6307 556 148.881 1282.46 491.392
106 0 45.0471 10.5889 477 119.48 1282.46 492.738
107 0 45.0471 10.5001 473 149.937 1282.45 492.645
108 0 50.0764 14.0585 704 113.982 1283.54 487.415
109 0 52.1506 12.9624 676 115.311 1283.93 489.296
110 0 54.0733 13.2598 717 112.95 1284.26 487.946
111 0 57.0524 15.3368 875 106.546 1283.17 488.461
112 0 59.051 16.1725 955 106.226 1283.08 485.621
113 0 60.0981 15.5412 934 108.97 1282.42 483.346
114 0 63.1425 14.1109 891 110.955 1282.39 484.3
115 0 66.2217 15.0102 994 109.256 1282 484.679
116 0 67.2581 14.4964 975 111.652 1281.47 481.805
117 0 68.234 12.6477 863 115.711 1281.46 481.409
118 0 73.3443 14.6024 1071 110.757 1280.38 478.62
119 0 72.3274 14.7247 1065 148.81 1278.39 478.823
120 0 72.3218 14.8779 1076 147.761 1276.4 478.793
121 1 39.1076 11.43 447 112.389 1280.27 495.06
122 0 42.2916 11.9173 504 109.988 1279.86 494.937
123 0 42.3387 10.8411 459 113.022 1280.05 494.061
124 0 44.21 11.6263 514 110.632 1279.66 495.465
125 0 45.2779 12.5006 566 110.837 1280.07 493.936
126 0 47.3751 12.2638 581 111.086 1279.98 492.833
127 0 48.3367 14.668 709 108.042 1280.36 490.144
128 0 49.4208 13.4963 667 109.663 1280.97 491.157
129 0 49.417 12.8296 634 114.364 1281.15 489.446
130 0 51.4566 13.4094 690 111.51 1281.08 489.478
131 0 55.4818 14.6715 814 109.167 1280.87 487.652
132 0 54.4016 13.4003 729 112.801 1280.91 486.716
133 0 58.4322 15.1457 885 106.173 1281.3 486.276
134 0 58.2789 14.6194 852 105.496 1282.53 486.158
135 0 60.219 14.0487 846 106.869 1282.35 484.057
136 0 62.1698 14.2513 886 107.229 1282.6 484.157
137 0 62.2328 13.9316 867 108.997 1283.09 482.956
138 0 66.2697 14.1845 940 106.765 1282.83 484.205
139 0 69.1618 14.6179 1011 107.15 1283.63 480.255
140 0 69.1918 15.0162 1039 107.788 1283.98 479.616
141 0 73.1874 14.661 1073 106.774 1283.7 480.217
142 0 74.1605 15.5878 1156 106.112 1282.89 480.196
143 0 77.047 15.4581 1191 106.324 1282.14 477.647
144 0 80.134 17.2711 1384 103.952 1281.17 477.16
145 0 81.087 15.1812 1231 109.453 1280.7 477.081
146 1 43.0615 10.0322 432 113.794 1281.58 495.856
147 0 45.0855 10.0476 453 115.996 1281.43 494.007
148 0 45.0759 13.1112 591 111.255 1282.52 492.262
149 0 50.1006 12.934 648 106.48 1282 493.789
150 0 50.1006 13.0138 652 151.44 1282.99 493.704
151 0 52.0379 12.7984 666 106.812 1281.21 490.128
152 0 52.0763 13.6146 709 103.906 1281.11 489.333
153 0 52.0683 13.6744 712 141.346 1281.1 489.382
154 0 55.3383 15.4143 853 102.145 1279 488.55
155 0 58.248 14.7816 861 102.877 1279.07 486.374
156 0 60.235 15.4893 933 101.265 1279.42 485.914
157 0 60.2211 14.015 844 104.752 1278.6 484.258
158 0 63.2587 15.3022 968 100.929 1279.45 483.56
159 0 63.1411 14.523 917 103.125 1278.91 480.853
160 0 68.1258 18.3044 1247 95.1315 1280.28 480.036
161 0 68.1016 14.8014 1008 102.855 1279.74 479.218
162 0 73.2864 15.5691 1141 100.89 1280.58 479.621
163 0 73.2452 14.117 1034 104.393 1280.68 476.702
164 0 74.1351 14.8782 1103 102.428 1281.56 476.024
165 0 78.286 14.4726 1133 103.111 1281.87 475.021
166 0 79.2529 15.4064 1221 101.957 1281.17 474.29
167 1 44.1923 11.7668 520 103.973 1280.55 490.615
168 0 44.0565 11.3945 502 103.237 1281.29 491.498
169 0 45.1424 10.8545 490 104.565 1281.66 491.708
170 0 48.1146 11.0361 531 100.949 1283.05 493.589
171 0 49.0885 12.0802 593 100.803 1282.05 491.782
172 0 51.2016 13.3394 683 98.0015 1282.6 491.608
173 0 53.0613 13.9273 739 98.6915 1283.74 488.122
174 0 53.0793 11.6241 617 100.571 1282.89 489.812
175 0 55.141 13.7466 758 97.1372 1282.59 488.728
176 0 57.0814 13.6297 778 97.2481 1282.62 488.524
177 0 56.0475 13.4886 756 99.0661 1282.47 487.673
178 0 62.1857 14.3281 891 95.5095 1282.33 487.865
179 0 63.109 14.2135 897 97.2542 1281.81 486.262
180 0 64.1108 15.0365 964 96.1359 1281.81 484.719
181 0 66.0317 14.0387 927 98.0572 1280.88 484.41
182 0 67.0575 12.959 869 99.6985 1280.85 484.528
183 0 69.0587 13.2206 913 100.848 1280.58 480.51
184 0 71.1365 14.0013 996 99.2038 1280.39 480.229
185 1 37.0091 11.3756 421 98.304 1280.58 496.862
186 0 43.0722 10.819 466 95.3326 1280.21 497.427
187 0 41.0699 11.4195 469 96.9382 1280.03 495.367
188 0 42.0476 11.2729 474 97.3312 1279.66 494.996
189 0 42.0198 11.9468 502 97.5797 1279.48 492.137
190 0 46.0166 11.6262 535 97.8598 1279.31 492.157
191 0 47.0482 10.6487 501 98.1018 1279.39 493.186
192 0 49.2202 13.145 647 95.2303 1278.15 490.428
193 0 52.2459 12.6134 659 95.3778 1278.82 489.528
194 0 52.2116 13.6177 711 93.7932 1278.65 485.84
195 0 54.2374 15.3215 831 90.3538 1279.31 486.178
196 0 54.2374 15.3215 831 136.632 1279.31 486.04
197 0 58.0639 14.174 823 91.9368 1280.75 485.29
198 0 59.1715 13.3172 788 93.3617 1281.19 484.66
199 0 61.088 16.91 1033 87.8916 1281.07 484.645
200 0 62.1782 13.7186 853 92.9555 1282.1 484.563
201 0 64.0698 13.5633 869 94.5201 1282.7 481.222
202 0 66.0883 13.5122 893 94.5722 1281.76 481.625
203 0 71.0403 16.0895 1143 89.769 1281.44 481.422
204 0 71.0964 14.7265 1047 93.5702 1282.28 480.818
205 0 73.1539 14.572 1066 94.4587 1282.38 480.722
206 1 39.0205 10.7123 418 96.8158 1282.89 498.278
207 0 40.0303 11.3914 456 97.8114 1281.76 496.971
208 0 42.0414 11.2746 474 98 1281.95 496.485
209 0 43.0329 11.5493 497 98.1509 1280.89 497.171
210 0 45.0792 12.711 573 95.6771 1280.28 497.113
211 0 47.1131 13.7329 647 95.1252 1280.57 495.405
212 0 47.0994 13.4609 634 98.2571 1278.49 492.584
213 0 51.0612 14.4533 738 94.9038 1277.88 493.653
214 0 51.2444 13.9918 717 97.1325 1278.43 491.965
215 0 51.2444 13.582 696 155.224 1278.36 491.57
216 0 52.2532 13.913 727 152.763 1278.4 491.083
217 0 54.1532 14.7544 799 95.7159 1278.31 487.416
218 0 58.2227 14.5991 850 94.7647 1277.53 488.94
219 0 59.236 15.0753 893 95.4558 1277.76 487.348
220 0 58.2598 13.7659 802 98.3603 1278.37 485.603
221 0 61.2057 15.5541 952 95.9359 1278.3 483.288
222 0 64.183 15.8297 1016 94.9636 1278.64 482.222
223 0 66.1439 15.6628 1036 95.0386 1278.45 481.416
224 0 69.322 15.8536 1099 93.9691 1278.28 479.812
225 0 68.1568 14.5253 990 97.0232 1278.33 480.286
226 0 73.2319 15.6899 1149 93.9069 1279.19 477.356
227 0 74.2783 14.338 1065 97.6319 1279.59 475.854
228 1 37.125 11.3131 420 96.3881 1280.41 495.371
229 0 41.0605 12.4938 513 94.1949 1280.17 493.827
230 0 39.0607 10.7781 421 96.9216 1281.52 494.325
231 0 41.0581 11.2523 462 97.3571 1280.81 491.165
232 0 43.0704 10.7034 461 97.269 1281.38 491.486
233 0 45.0518 12.4967 563 95.1705 1281.93 490.844
234 0 47.1264 12.9863 612 94.2974 1282.18 489.038
235 0 47.2223 12.8329 606 95.4059 1280.76 489.587
236 0 49.2063 15.5671 766 90.2533 1280.88 489.465
237 0 50.3244 13.2341 666 94.3138 1280.27 489.806
238 0 53.1997 13.8535 737 92.194 1280.06 489.414
239 0 54.1746 13.8257 749 93.1469 1280.3 488.754
240 0 54.2205 13.482 731 94.7209 1280.32 488.092
241 0 58.1737 14.027 816 92.8211 1279.59 488.379
242 0 61.1859 15.1179 925 91.4659 1279.53 487.41
243 0 62.1424 13.1472 817 96.5679 1279.3 485.037
244 0 64.1227 15.5951 1000 91.189 1279.47 485.167
245 0 66.1861 14.3988 953 92.9297 1279.91 483.998
246 0 68.0678 13.3543 909 96.2882 1280.16 480.959
247 0 68.0678 13.4131 913 144.729 1281.16 481.028
248 0 72.0852 15.1487 1092 93.7106 1279.72 479.431
249 0 76.0958 16.0456 1221 92.7281 1278.71 477.492
250 0 79.0546 16.1407 1276 91.9718 1278.01 476.589
251 0 85.3723 17.0196 1453 88.2485 1278.51 479.164
252 0 85.3723 17.2421 1472 147.825 1278.53 479.196
253 0 84.1494 14.5693 1226 98.2529 1278.73 473.242
254 1 43.0523 11.2654 485 98.4165 1278.17 493.913
255 0 48.0244 13.3682 642 94.6449 1278.33 492.291
256 0 47.0791 11.8949 560 98.1268 1278.07 491.971
257 0 50.0695 12.1631 609 96.3399 1278.58 491.824
258 0 52.0178 13.5531 705 94.8142 1279.41 489.898
259 0 52.0735 11.6758 608 98.4145 1279.91 489.702
260 0 55.1773 14.0275 774 95.2106 1279.04 487.827
261 0 56.1241 14.0047 786 95.9122 1278.67 486.812
262 0 56.1148 15.2188 854 96.3724 1279.5 483.438
263 0 59.1527 14.0991 834 96.8801 1279.92 483.553
264 0 59.1527 14.1836 839 153.968 1280.93 483.586
265 0 64.173 15.1777 974 95.5441 1280.37 483.399
266 0 63.1548 15.9924 1010 96.1525 1280.6 482.779
267 0 68.3046 16.0311 1095 96.2932 1281.16 482.197
268 0 72.1663 15.5336 1121 97.5593 1281.48 481.898
269 0 71.1993 16.1378 1149 99.0696 1281.89 479.99
270 0 72.2122 15.2052 1098 102.727 1281.53 478.874
271 0 75.1866 14.3909 1082 104.159 1281.2 480.368
272 0 78.1617 16.4787 1288 101.009 1281.06 479.547
273 0 79.2027 13.7243 1087 108.206 1280.43 478.113
274 0 83.128 15.831 1316 105.283 1280.77 474.53
275 0 84.1527 14.034 1181 109.979 1280.63 473.888
276 0 89.1003 15.6116 1391 105.777 1280.33 473.98
277 1 51.1357 12.5157 640 103.511 1281.44 493.069
278 0 55.0471 11.8626 653 102.072 1280.33 494.095
279 0 56.0865 10.9652 615 105.673 1279.83 490.837
280 0 56.1135 13.2767 745 100.705 1279.16 489.893
281 0 59.09 12.5402 741 100.491 1279.03 488.291
282 0 61.1855 14.7747 904 98.0265 1277.93 484.327
283 0 63.2874 12.9252 818 101.528 1277.64 484.512
284 0 66.2208 13.757 911 99.09 1276.11 483.461
285 0 69.2131 14.4626 1001 96.97 1276.71 481.787
286 0 71.1747 14.0218 998 99.6473 1277.34 480.051
287 0 75.0962 15.6999 1179 96.1578 1277.58 479.388
288 0 76.1609 14.1805 1080 100.783 1278.15 475.513
289 0 78.13 14.8727 1162 99.9303 1278.37 473.793
290 0 82.2079 15.5459 1278 98.4554 1279.04 473.361
291 0 85.1918 15.3301 1306 98.8032 1279.01 474.166
292 1 48.2349 11.983 578 99.3183 1279.24 491.01
293 0 48.1778 12.2671 591 98.5296 1278.95 492.411
294 0 49.2488 9.92918 489 100.556 1279.45 493.444
295 0 50.1748 11.5197 578 100.756 1280.17 491.28
296 0 51.1265 11.9508 611 101.861 1280.13 489.162
297 0 53.22 12.5893 670 101.118 1280.55 488.384
298 0 57.3059 14.3441 822 97.5669 1281.46 486.363
299 0 56.1775 15.0238 844 97.2488 1281.84 486.718
300 0 58.1529 15.6484 910 96.4297 1281.36 486.577
301 0 60.2173 16.0917 969 96.516 1281.82 485.929
302 0 61.2388 15.1375 927 98.2524 1281.49 486.728
303 0 63.2015 15.8541 1002 98.024 1280.68 484.552
304 0 65.1712 13.5029 880 101.92 1280.93 485.047
305 0 69.1658 16.9448 1172 94.3584 1280.27 484.65
306 0 69.1216 14.6553 1013 100.559 1279.85 483.66
307 0 72.1937 14.4888 1046 100.715 1279.94 483.202
308 0 72.1937 14.5027 1047 155.804 1279.95 483.222
309 0 76.1775 14.8075 1128 100.807 1279.61 481.177
310 0 78.1369 15.0889 1179 100.561 1278.1 480.557
311 1 41.0703 9.73941 400 101.842 1276.52 499.635
312 0 44.1325 11.8733 524 99.5344 1276.37 497.04
313 0 44.111 10.7229 473 99.1734 1276.85 497.636
314 0 43.1614 11.5381 498 99.6867 1276.67 495.516
315 0 43.1614 11.6308 502 144.823 1276.66 495.622
316 0 50.0709 12.6021 631 95.8304 1277.08 493.77
317 0 50.1651 12.7977 642 95.9766 1277.01 493.475
318 0 50.134 13.2245 663 95.7466 1276.57 490.834
319 0 51.2895 13.1996 677 96.4239 1277.45 488.532
320 0 53.1019 13.0127 691 96.178 1277.14 489.26
321 0 54.0746 13.8512 749 94.7891 1277.58 488.784
322 0 55.1158 13.0816 721 95.8932 1277.5 486.455
323 0 57.1203 12.57 718 97.266 1277.97 486.905
324 0 60.209 14.4497 870 93.9632 1278.69 484.37
325 0 64.1198 16.3288 1047 90.7154 1279.98 483.391
326 0 67.1851 14.6014 981 94.1366 1280.07 483.072
327 0 67.1076 13.4411 902 98.4368 1280.73 479.9
328 0 70.1876 15.1309 1062 95.0056 1281.02 480.319
329 0 74.1871 15.1509 1124 93.4155 1281.15 481.544
330 0 76.1549 14.0766 1072 95.6418 1281.64 478.254
331 0 76.0876 13.2479 1008 97.877 1282.26 477.089
332 0 80.2281 13.1999 1059 96.8631 1281.78 477.91
333 0 84.2093 13.7277 1156 95.6462 1281.62 476.249
334 0 88.1645 14.4276 1272 95.3648 1281.28 473.936
335 0 91.4219 16.2653 1487 92.3228 1281.26 471.799
336 1 49.066 11.026 541 92.2255 1280.27 496.436
337 0 50.1157 10.9147 547 93.0073 1279.72 495.687
338 0 53.049 11.3857 604 91.3642 1279.71 496.483
339 0 54.2503 14.9308 810 77.5741 1279.58 492.883
340 0 55.1499 12.3844 683 90.0542 1279.79 491.413
341 0 59.0722 13.8813 820 86.6756 1280.21 490.115
342 0 59.0722 13.9152 822 134.136 1281.24 490.252
343 0 61.0947 12.9962 794 85.5806 1279.7 487.38
344 0 63.0832 12.7768 806 85.66 1279.21 485.356
345 0 66.0795 13.4384 888 84.4527 1279.05 484.473
346 0 66.0795 13.4686 890 128.799 1278.04 484.555
347 0 71.2099 14.1553 1008 84.6528 1278.36 480.631
348 0 73.2056 16.119 1180 82.0195 1277.65 478.059
349 0 76.1324 15.1709 1155 83.6978 1277.77 477.023
350 0 79.133 14.899 1179 83.0611 1278 477.377
351 0 80.2206 15.2081 1220 83.5566 1278.3 473.089
352 0 83.1086 15.4858 1287 83.5377 1278.38 473.03
353 1 44.0611 9.64569 425 86.3906 1278.72 494.172
354 0 43.0201 9.90236 426 87.8404 1280.24 493.542
355 0 49.1635 10.0684 495 86.5414 1280 492.743
356 0 48.1875 11.7873 568 86.706 1281.15 490.467
357 0 50.2485 12.0004 603 84.4096 1281.35 491.745
358 0 51.3266 11.1443 572 85.6556 1281.65 489.161
359 0 52.3798 12.4094 650 83.9677 1281.58 489.063
360 0 52.1566 11.8489 618 83.4207 1281.06 487.914
361 0 52.1566 11.8681 619 123.817 1281.03 487.816
362 0 59.2266 13.8958 823 79.5383 1281.67 489.48
363 0 60.1636 13.0976 788 82.2881 1281.89 487.354
364 0 63.2341 13.537 856 81.368 1281.88 487.693
365 0 65.3162 16.1828 1057 79.0104 1282.01 485.05
366 0 67.2055 14.6417 984 81.4644 1282.03 486.931
367 0 68.2518 15.7505 1075 81.546 1280.73 483.913
368 0 72.2277 14.0251 1013 84.7315 1280.54 483.683
369 0 75.2852 16.0589 1209 82.2151 1280.19 482.786
370 0 76.3588 15.8724 1212 83.6642 1279.99 478.257
371 0 77.208 14.8301 1145 87.4952 1279.57 480.253
372 0 80.3093 14.2947 1148 89.0122 1278.39 478.068
373 0 84.1967 16.5921 1397 85.9735 1278.41 474.933
374 0 86.2881 15.6105 1347 88.1678 1277.51 474.471
375 0 88.1774 15.0492 1327 90.6285 1277.19 472.606
376 0 92.2911 17.5206 1617 85.7056 1277.21 469.11
377 0 93.3308 17.079 1594 86.9391 1277.08 469.336
378 0 97.3666 16.4533 1602 89.2672 1275.83 466.645
379 0 99.309 16.7256 1661 89.245 1276.84 464.331
380 0 102.491 17.221 1765 88.4969 1277.3 463.518
381 0 105.562 15.0339 1587 91.4486 1277 466.054
382 0 109.55 17.0516 1868 88.811 1277.53 459.124
383 0 114.46 16.4074 1878 90.377 1277.98 458.252
384 0 117.316 16.1445 1894 91.0665 1279.44 460.653
385 1 62.196 11.6245 723 91.0318 1279.91 485.719
386 0 64.1896 12.5877 808 90.8082 1280.4 483.109
387 0 66.1203 13.6872 905 88.9779 1280.78 483.887
388 0 67.2351 14.0254 943 89.9417 1281.4 481.617
389 0 71.1768 14.5694 1037 88.8428 1282.12 482.591
390 0 72.1214 15.4185 1112 89.8642 1282.09 480.263
391 0 77.2002 14.0544 1085 91.4765 1282.81 481.621
392 0 77.2491 14.5115 1121 92.6236 1281.18 479.15
393 0 80.1486 14.3733 1152 92.9427 1281.55 479.056
394 0 83.3231 14.8698 1239 93.9944 1281.52 477.691
395 0 86.2551 14.9209 1287 95.2494 1281.14 477.31
396 0 87.1715 15.567 1357 94.7237 1281.41 478.382
397 1 48.0863 9.81569 472 94.7564 1280.55 498.222
398 0 50.1116 12.1329 608 93.324 1280.5 498.296
399 0 50.1253 10.8129 542 95.4428 1281.27 498.29
400 0 53.1779 10.794 574 95.0801 1281.37 497.413
401 0 56.2044 12.2055 686 93.8499 1280.53 494.625
402 0 57.1444 13.2296 756 93.7989 1280.47 493.63
403 0 60.1605 14.1455 851 91.8848 1280.49 492.476
404 0 61.0818 11.7547 718 96.2591 1280.17 492.138
405 0 65.2071 14.0475 916 93.7566 1279.46 488.81
406 0 66.1223 14.1405 935 97.0118 1279.23 485.69
407 0 66.2173 13.0026 861 100.214 1278.48 483.398
408 0 68.0997 12.8635 876 99.8527 1278.42 482.844
409 0 73.1311 14.3851 1052 96.249 1278.51 481.471
410 0 76.2258 12.5286 955 100.462 1277.53 478.582
411 0 80.2708 14.8373 1191 95.3191 1277.77 475.426
412 1 45.0421 9.39121 423 94.1158 1275.84 493.09
413 0 43.0916 9.86271 425 93.7741 1275.67 494.094
414 0 48.0224 12.2235 587 89.1687 1276.4 492.152
415 0 46.0739 10.2444 472 90.661 1276.69 493.299
416 0 49.2406 13.1193 646 87.4551 1279.25 490.607
417 0 49.3268 11.7178 578 89.6834 1279.81 489.779
418 0 50.312 14.4101 725 85.3972 1280.93 488.29
419 0 51.3654 11.9341 613 89.0604 1281.34 490.122
420 0 52.0637 10.6792 556 92.5432 1283.76 491.854
421 0 53.117 12.0865 642 90.6324 1283.95 490.188
422 0 55.1933 11.9036 657 89.5205 1283.9 490.799
423 0 57.1713 12.2789 702 89.4373 1284.26 489.702
424 0 59.086 11.5594 683 90.4861 1283.55 489.231
425 0 62.1336 12.956 805 87.5975 1283.88 489.308
426 0 62.2602 11.9177 742 89.7466 1283.33 488.106
427 0 66.2052 11.7967 781 89.2945 1282.07 488.666
428 0 67.3783 13.5058 910 87.6659 1281.74 486.432
429 0 68.521 11.4709 786 90.4835 1280.7 487.071
430 0 73.4977 13.0344 958 88.3622 1280.25 484.683
431 1 40.3164 10.7897 435 89.177 1278.87 500.223
432 0 40.289 10.0524 405 90.6593 1278.37 499.748
433 0 43.1662 10.1005 436 88.578 1278.62 498.697
434 0 42.2597 10.7904 456 87.636 1278.04 498.831
435 0 47.2657 12.2499 579 85.715 1276.91 496.566
436 0 47.3276 11.5789 548 86.0931 1276.86 494.748
437 0 47.2794 11.2946 534 87.2715 1276.88 494.376
438 0 52.2678 14.4448 755 82.9921 1275.83 491.181
439 0 52.3631 11.9359 625 87.832 1276.4 490.242
440 0 54.511 13.5385 738 84.9919 1275.97 487.364
441 0 55.4053 15.2152 843 82.2954 1276.74 488.746
442 0 55.4053 15.0347 833 125.084 1277.69 488.694
443 0 58.4531 14.1139 825 86.7236 1276.88 485.514
444 0 60.341 14.6004 881 86.1328 1277.75 484.054
445 0 60.2643 12.5281 755 90.7245 1278.02 481.568
446 0 61.1619 14.1591 866 87.6674 1280.34 481.816
447 0 64.0672 13.4858 864 88.2789 1280.84 482.985
448 0 67.0748 13.7906 925 86.9395 1282.33 484.655
449 0 67.2952 13.4334 904 89.9104 1284.08 482.903
450 0 69.039 12.8768 889 90.7064 1283.97 481.925
451 0 73.1851 15.1397 1108 86.8691 1284.1 479.69
452 0 75.1966 13.6176 1024 87.8887 1284.29 483.132
453 1 42.1016 9.69084 408 87.2966 1284.23 500.498
454 0 43.103 11.1361 480 86.3542 1283.54 500.06
455 0 43.103 11.1129 479 133.939 1282.53 500.079
456 0 47.2826 12.5205 592 83.0439 1282.15 497.664
457 0 49.3022 12.5147 617 84.611 1281.61 499.572
458 0 51.2939 13.4129 688 84.4259 1281.35 496.074
459 0 53.3677 12.8542 686 84.465 1280.47 495.198
460 0 53.2882 14.4873 772 82.9987 1280.45 494.742
461 0 56.0453 13.1322 736 84.7554 1281.62 493.963
462 0 59.1852 14.6996 870 81.7724 1280.66 492.578
463 0 60.0269 13.8938 834 83.5791 1279.53 488.914
464 0 60.0269 13.9271 836 129.093 1277.54 489.016
465 0 65.0871 13.5511 882 83.7234 1278.27 487.079
466 0 65.0871 13.6279 887 131.461 1280.27 487.046
467 0 65.126 13.4355 875 85.8091 1277.33 483.367
468 0 68.1173 13.374 911 85.8847 1276.71 481.434
469 0 72.1554 12.972 936 86.781 1276.31 480.319
470 0 71.0599 12.7639 907 89.2624 1276.09 477.087
471 0 75.1043 13.6077 1022 87.9511 1277.54 475.705
472 0 79.1405 13.078 1035 88.8715 1277.94 474.176
473 0 79.1458 12.9381 1024 89.8203 1277.81 473.854
474 0 83.1675 14.3085 1190 88.0571 1278.36 471.589
475 0 87.2613 14.9551 1305 87.0352 1278.4 470.568
476 0 90.2372 14.0186 1265 88.3921 1278.77 469.577
477 1 46.0459 10.1203 466 90.4528 1279.99 488.627
478 0 51.1493 10.0686 515 88.0893 1281.79 491.509
479 0 54.0498 12.655 684 86.5526 1283.6 489.617
480 0 55.0878 11.3818 627 88.5439 1283.67 490.319
481 0 57.1201 12.2374 699 88.4707 1283.92 489.114
482 0 60.1276 13.5379 814 87.7912 1284.55 489.198
483 0 62.1367 13.0197 809 88.7281 1284.88 490.435
484 0 65.194 15.0321 980 86.6235 1284.89 488.262
485 0 66.0706 14.545 961 88.9209 1285.61 487.913
486 0 69.0634 14.2188 982 88.666 1285.5 488.927
487 0 70.1622 13.5115 948 91.6751 1284.47 484.865
488 0 73.0581 14.947 1092 88.8388 1283.98 486.327
489 0 77.2033 14.5719 1125 90.0676 1282.8 484.052
490 0 81.1548 15.2302 1236 89.5049 1281.41 481.676
491 0 84.2023 15.154 1276 90.0784 1280.29 480.315
492 0 87.1862 16.2182 1414 89.1436 1279.47 477.222
493 0 91.2507 15.2108 1388 91.4222 1278.73 475.699
494 0 94.3299 15.997 1509 90.5315 1278.68 474.669
495 1 50.1471 10.3894 521 92.1958 1277.41 496.125
496 0 55.1684 12.6703 699 90.5708 1276.49 492.371
497 0 54.1068 10.8674 588 92.2568 1275.4 493.344
498 0 56.127 12.6142 708 90.3446 1275.05 491.105
499 0 59.1033 13.9078 822 88.8881 1275.4 488.321
500 0 61.1125 12.8288 784 91.3329 1275.48 486.573
501 0 61.2873 13.8038 846 90.909 1276.05 484.226
502 0 64.2212 14.6992 944 89.6314 1276.77 483.147
503 0 65.1693 13.2271 862 93.2494 1277.21 483.916
504 0 69.1445 14.6794 1015 94.1281 1278.14 480.36
505 0 70.2739 13.9881 983 93.7996 1279.93 481.805
506 0 73.3424 14.7527 1082 92.805 1281.85 477.543
507 0 78.3378 14.8587 1164 91.1924 1281.7 477.688
508 0 80.2157 14.4984 1163 92.0447 1283.81 476.477
509 0 83.3042 13.5647 1130 93.4336 1286.01 474.402
510 0 83.3042 13.4807 1123 153.314 1287.98 474.307
511 1 49.0485 10.0717 494 88.915 1288.17 499
512 0 49.1299 9.60718 472 90.1123 1287.23 499.078
513 0 51.3438 7.84905 403 92.1985 1285.2 495.792
514 0 53.2563 10.9846 585 89.3726 1285.03 493.385
515 0 56.3004 13.4457 757 85.5694 1284.39 492.791
516 0 58.1375 13.5713 789 86.6654 1282.76 495.374
517 0 58.1375 13.5541 788 136.484 1281.77 495.543
518 0 63.1161 12.1522 767 86.1017 1279.8 495.536
519 0 64.1669 13.7454 882 83.5556 1279.14 492.325
520 0 67.3535 14.5353 979 81.093 1277.33 491.014
521 0 68.4417 13.2083 904 82.573 1276.87 489.876
522 0 69.4358 12.3279 856 83.8388 1275.34 487.769
523 0 71.3869 14.0782 1005 81.8368 1274.74 486.902
524 0 74.6967 13.7222 1025 82.5902 1273.9 483.098
525 0 76.8221 13.3295 1024 81.9014 1273.4 479.588
526 0 78.5457 14.3738 1129 80.4296 1272.72 479.043
527 0 80.472 14.3155 1152 80.8976 1272.09 479.628
528 0 83.7077 14.3953 1205 81.644 1271.18 474.428
529 0 78.3239 14.6826 1150 79.4417 1270.78 470.916
530 0 77.3027 12.6645 979 90.7324 1272.6 471.02
531 0 86.8154 18.0728 1569 75.6342 1272.53 472.391
532 0 89.8973 18.0094 1619 76.9839 1273.42 475.211
533 0 93.776 16.9446 1589 77.854 1274.41 472.092
534 0 96.8179 20.048 1941 75.4008 1276.04 471.878
535 0 97.6983 18.6185 1819 75.9346 1278.01 469.483
536 0 97.6983 18.6185 1819 110.594 1280.01 469.483
537 1 54.5747 10.7193 585 82.6154 1280.64 495.352
538 0 57.9122 11.293 654 81.1101 1281.86 494.214
539 0 62.9508 12.5336 789 78.4968 1281.95 495.08
540 0 62.6316 12.9008 808 78.0755 1281.9 497.604
541 0 64.3155 13.3716 860 82.0733 1279.97 493.493
542 0 66.3295 13.4932 895 80.3263 1281.69 495.17
543 0 71.4222 15.0093 1072 79.4851 1280.38 494.605
544 0 71.4222 14.9953 1071 133.62 1279.39 494.683
545 0 77.4314 15.433 1195 81.39 1277.73 490.217
546 0 81.5985 14.5101 1184 83.3471 1275.9 488.935
547 0 82.4797 14.1853 1170 86.7393 1275.27 485.521
548 0 88.96 16.5692 1474 83.5142 1274.73 484.361
549 0 90.5356 14.4915 1312 88.6898 1273.28 481.932
550 0 94.5809 14.9819 1417 89.2463 1271.72 480.468
551 0 96.5151 16.1011 1554 89.6345 1270.84 475.97
552 0 100.401 16.5237 1659 89.6799 1270.47 472.915
553 0 103.545 15.6357 1619 92.3823 1269.55 470.251
554 0 106.561 15.4747 1649 93.3717 1269.36 470.845
555 0 112.561 16.5599 1864 91.8879 1269.54 467.293
556 0 113.758 16.7813 1909 92.6983 1268.79 463.03
557 0 117.609 17.2436 2028 92.7199 1269.17 458.801
558 1 49.2388 11.4341 563 93.54 1270.81 493.829
559 0 49.2388 11.4747 565 157.396 1270.79 493.853
560 0 55.1438 12.4765 688 92.6003 1272.6 489.673
561 0 57.038 12.8861 735 93.0748 1273.87 488.671
562 0 57.038 12.7459 727 155.785 1274.87 488.669
563 0 60.0438 14.2896 858 89.8613 1276.7 488.262
564 0 62.0654 13.373 830 91.9193 1278.44 488.739
565 0 65.1497 15.0116 978 89.2178 1278.84 486.617
566 0 66.0715 14.227 940 91.8138 1280.81 485.787
567 0 68.2383 13.8485 945 93.7831 1281.81 486.521
568 0 69.2087 13.4665 932 94.2414 1282.15 486.799
569 0 75.1232 13.804 1037 93.2478 1281.99 486.479
570 1 44.0974 12.291 542 91.9982 1284.35 503.21
571 0 44.0705 11.8674 523 91.4187 1282.59 503.956
572 0 45.1827 11.7744 532 91.203 1281.38 505.233
573 0 45.1827 11.7523 531 155.109 1280.37 505.218
574 0 49.456 14.0933 697 91.7661 1278.14 505.499
575 0 49.456 14.0529 695 156.875 1276.14 505.616
576 0 53.4894 11.9276 638 97.0063 1275.34 503.98
577 0 56.5436 13.494 763 94.9738 1274.54 502.341
578 0 57.4445 12.4294 714 95.9664 1273.1 500.162
579 0 60.3515 13.1397 793 95.4061 1272.15 498.072
580 0 62.3758 13.4668 840 95.8964 1270.81 495.787
581 0 63.2819 14.3801 910 93.4593 1270.44 493.737
582 0 66.2814 12.9146 856 94.632 1270.21 492.279
583 0 67.2925 12.3342 830 94.1711 1269.54 489.848
584 0 73.1853 13.0764 957 92.931 1269.2 484.621
585 1 39.2641 11.9193 468 87.7137 1269.43 501.716
586 0 38.1546 9.51393 363 89.4766 1270.04 502.11
587 0 41.1503 9.84196 405 89.4716 1270.44 499.047
588 0 42.1319 11.2267 473 87.7188 1270.95 497.586
589 0 44.2924 11.537 511 85.5695 1271.86 498.368
590 0 46.1778 13.1665 608 85.4309 1274.15 493.875
591 0 45.168 11.2248 507 90.1677 1275.74 494.037
592 0 48.5309 13.4141 651 88.2596 1276.53 493.367
593 0 50.6592 13.2059 669 89.1435 1279.16 494.042
594 0 52.5732 14.4941 762 87.6286 1280.94 493.854
595 0 54.3461 13.5428 736 90.2391 1282.08 494.461
596 0 55.4458 14.1219 783 90.9017 1283.44 494.484
597 0 58.3447 13.9001 811 92.6572 1284.68 494.457
598 0 60.1844 14.2728 859 93.7113 1284.57 494.518
599 0 63.2945 13.7295 869 93.9965 1284.38 495.52
600 0 64.3043 14.6491 942 95.0722 1282.84 494.749
601 0 68.3369 16.404 1121 92.6798 1280.23 493.922
602 0 71.6148 14.8992 1067 94.6045 1279.78 494.71
603 0 76.5286 15.1447 1159 94.2286 1278.07 493.906
604 0 79.7613 15.935 1271 92.0685 1276.97 491.93
605 1 43.2523 10.4734 453 96.6424 1275.14 512.457
606 0 44.2265 10.4914 464 98.1121 1273.44 512.938
607 0 49.2706 10.7366 529 98.4423 1273.24 510.887
608 0 49.3971 11.3367 560 99.8018 1271.54 509.15
609 0 49.3971 11.4379 565 157.791 1270.57 509.191
610 0 53.4371 11.6586 623 100.809 1268.73 505.263
611 0 55.4502 12.0288 667 100.727 1268.59 504.792
612 0 58.2593 12.5817 733 97.0682 1267.95 506.945
613 0 60.1197 13.9721 840 97.0464 1267.55 503.06
614 0 62.1731 14.5883 907 95.4862 1266.7 502.159
615 0 64.1759 14.6317 939 95.41 1265.81 498.658
616 0 65.1466 14.475 943 96.5292 1265.35 495.388
617 0 67.0402 14.096 945 97.7566 1266.32 493.956
618 0 70.1887 15.8288 1111 93.7867 1266.49 493.536
619 0 72.0904 13.5524 977 98.433 1267.43 491.73
620 0 75.2056 15.3978 1158 93.3066 1268.55 490.465
621 0 78.1672 14.6353 1144 95.0323 1269.82 489.457
622 0 82.3977 15.0611 1241 94.2482 1270.63 488.086
623 0 84.1815 14.7776 1244 95.5394 1272.84 486.301
624 0 88.3253 15.5561 1374 93.9862 1273.95 483.017
625 0 91.2762 13.8371 1263 97.1093 1274.76 481.622
626 1 50.0845 10.4224 522 95.0077 1275.45 504.722
627 0 47.0431 9.52318 448 98.6451 1275.38 503.44
628 0 52.1578 11.772 614 95.9609 1273.54 502.091
629 0 57.0608 13.8799 792 91.3876 1274.13 503.764
630 0 58.0493 12.9201 750 92.8347 1273.2 505.332
631 0 59.144 13.4418 795 91.8252 1271.83 507.644
632 0 63.2122 12.9722 820 90.7085 1271.01 507.017
633 0 68.2641 14.6343 999 87.8919 1270.19 506.15
634 0 69.1798 13.3565 924 91.1277 1269.82 504.774
635 0 70.2063 13.0615 917 92.0872 1268.37 500.676
636 0 75.24 13.756 1035 90.2048 1266.78 501.662
637 0 76.1589 13.6557 1040 91.0048 1266.18 500.564
638 0 80.1614 13.3481 1070 91.972 1263.35 497.21
639 0 84.2234 14.9365 1258 88.8983 1263.35 494.649
640 1 44.1534 10.1691 449 86.4855 1261.97 513.958
641 0 45.3204 9.92931 450 85.1156 1262.56 513.664
642 0 44.144 10.1939 450 87.1933 1262.47 509.258
643 0 49.1256 11.9286 586 82.5887 1262.89 508.618
644 0 49.1621 12.1638 598 83.4515 1263.53 507.065
645 0 48.2864 10.707 517 87.0251 1264.5 506.362
646 0 50.1505 12.6619 635 84.4929 1265.24 504.291
647 0 52.205 12.2594 640 83.925 1266.39 504.978
648 0 54.1507 13.9241 754 81.6538 1267.3 504.452
649 0 57.2116 13.3539 764 82.3298 1268.16 501.781
650 0 60.2845 14.5975 880 80.3011 1269.73 502.245
651 0 59.2169 13.5434 802 82.9825 1270.8 499.666
652 0 64.1437 13.8283 887 84.1206 1271.74 499.979
653 0 66.2203 13.9081 921 83.519 1272.56 498.747
654 0 68.2527 13.3035 908 84.5936 1273.47 498.574
655 0 69.127 13.9019 961 84.5036 1273.04 495.823
656 0 74.4747 12.1518 905 86.5304 1273.21 496.064
657 0 75.2189 12.8824 969 85.6842 1272.52 496.614
658 0 79.327 14.2701 1132 85.9594 1273.16 496.021
659 0 81.4764 12.654 1031 88.0223 1272.68 493.945
660 0 82.5163 13.0277 1075 88.7488 1272.19 492.468
661 0 90.3599 12.7711 1154 88.5563 1271.66 490.159
662 0 91.5253 13.0565 1195 89.3481 1270.2 489.442
663 1 50.3143 10.017 504 84.6964 1269.31 512.2
664 0 53.364 10.9062 582 83.6306 1268.75 510.679
665 0 56.2826 11.3001 636 83.9355 1268.29 506.535
666 0 57.3659 12.7253 730 81.6137 1267.61 505.468
667 0 59.1598 11.4774 679 85.4065 1266.09 501.605
668 0 63.1099 14.4351 911 79.7794 1265.55 499.098
669 0 64.1185 15.0503 965 79.485 1266.05 495.818
670 0 67.153 15.6359 1050 78.219 1267.59 494.192
671 0 68.1479 13.4854 919 83.0098 1267.48 490.569
672 0 70.1231 14.8596 1042 81.9443 1267.38 489.766
673 0 72.1813 13.0089 939 86.181 1267.82 485.997
674 0 75.1156 13.4859 1013 86.0918 1267.44 485.319
675 0 76.2211 14.3923 1097 85.8387 1268.65 483.82
676 0 79.2082 16.8038 1331 83.3358 1269.52 480.886
677 0 83.4964 15.8809 1326 85.3982 1270.61 479.29
678 0 87.2928 15.385 1343 86.3708 1271.6 478.067
679 0 89.3 14.5129 1296 88.4907 1274.38 477.512
680 0 94.4087 15.1045 1426 88.0849 1276.59 476.298
681 0 99.861 16.3227 1630 85.6712 1278.04 478.317
682 0 99.7038 16.0174 1597 88.3863 1279.69 475.592
683 1 52.3145 11.7176 613 87.6966 1280.34 499.53
684 0 55.4303 12.1775 675 87.8193 1280.28 498.923
685 0 57.354 12.17 698 87.7794 1280.89 500.208
686 0 59.1513 12.3074 728 88.7445 1279.84 500.762
687 0 62.152 12.6625 787 89.8653 1279.42 498.319
688 0 63.35 11.3023 716 91.6969 1279.14 498.944
689 0 67.2204 12.3326 829 90.5428 1278.82 497.283
690 0 68.3086 13.1169 896 89.9955 1277.46 495.658
691 0 74.1687 14.7636 1095 86.6384 1276.67 493.889
692 0 75.4121 15.4485 1165 87.1691 1274.64 487.99
693 0 77.3118 14.642 1132 88.621 1273.91 486.038
694 0 81.478 13.3778 1090 91.1394 1272.59 484.149
695 0 83.4282 13.8203 1153 91.4848 1271.21 481.626
696 1 45.2523 10.3641 469 92.6695 1270.98 500.299
697 0 48.2381 9.84699 475 92.6232 1270.1 499.537
698 0 50.2478 12.0801 607 91.6244 1270.37 494.967
699 0 50.4359 11.4403 577 94.1802 1271.13 492.352
700 0 52.1883 11.3627 593 93.1366 1271.62 493.005
701 0 54.2547 11.7778 639 92.4444 1272.34 490.847
702 0 57.193 14.285 817 85.3072 1273.41 488.502
703 0 58.3609 14.873 868 83.5023 1272.45 487.35
704 0 60.2292 13.5814 818 84.4034 1271.81 488.949
705 0 62.1857 14.2316 885 84.7186 1273.52 486.423
706 0 63.0974 14.5806 920 84.7598 1274.09 485.805
707 0 66.089 14.4351 954 85.13 1275.82 484.503
708 0 69.1355 14.5511 1006 85.4871 1279.07 483.689
709 0 69.2379 14.8907 1031 86.4471 1281.17 483.081
710 0 73.217 13.5488 992 91.0645 1284.26 482.51
711 0 78.143 13.6033 1063 89.7215 1285.41 483.629
712 1 45.144 9.74659 440 89.2318 1287.86 502.325
713 0 42.0733 8.96054 377 94.7135 1287.38 500.541
714 0 46.0501 10.5537 486 91.4095 1287.7 500.823
715 0 47.2306 11.6238 549 91.9909 1286.24 500.723
716 0 51.3623 13.2393 680 89.2132 1285.48 499.031
717 0 54.1655 12.6833 687 91.7875 1283.93 500.467
718 0 55.1477 13.2372 730 92.2192 1282.81 498.299
719 0 55.2124 12.2255 675 93.3807 1281.03 500.361
720 0 60.1562 12.667 762 92.1667 1279.1 497.563
721 0 62.2426 14.5881 908 89.2687 1277.65 495.388
722 0 62.1159 12.6377 785 93.2561 1275.78 493.474
723 0 67.1949 13.2004 887 91.6471 1274.46 491.038
724 0 67.2297 12.2416 823 92.955 1272.34 491.104
725 0 69.2424 14.8753 1030 90.1524 1271.9 486.506
726 1 35.1022 11.3383 398 88.5578 1271.58 506.844
727 0 34.2348 8.1496 279 94.7491 1272.12 504.308
728 0 37.4896 9.54932 358 92.2263 1271.68 501.827
729 0 41.557 11.8392 492 88.5894 1272.65 498.476
730 0 41.7883 12.2044 510 88.9667 1273.23 495.427
731 0 43.4151 12.7145 552 88.2681 1272.87 493.96
732 0 44.5303 12.3511 550 88.5855 1272.57 494.182
733 0 47.361 12.0352 570 88.3965 1274.55 493.467
734 0 48.2808 13.5872 656 88.3354 1274.34 494.155
735 0 50.2437 14.6287 735 89.0503 1276.02 494.174
736 0 48.2886 13.8749 670 89.6015 1277 493.658
737 0 53.2089 14.6404 779 86.2837 1278.53 497.703
738 0 53.2129 14.4326 768 88.8763 1280.14 495.247
739 0 55.254 14.4786 800 89.4225 1281.04 497.678
740 0 57.194 14.5295 831 90.1649 1281.88 497.868
741 0 60.1983 14.2529 858 90.0047 1282.4 499.103
742 0 63.1567 13.2844 839 92.466 1281.6 499.832
743 0 65.1396 14.2156 926 92.0259 1280.54 498.302
744 0 70.2547 15.5008 1089 89.0744 1279.11 499.165
745 0 74.1749 16.7846 1245 87.6353 1278.35 495.778
746 0 76.0938 15.9803 1216 89.8701 1276.9 496.468
747 1 45.1276 12.232 552 89.2428 1274.94 513.531
748 0 45.4083 10.9231 496 92.8468 1273.13 512.046
749 0 46.1008 11.6267 536 93.778 1271 508.709
750 0 50.0767 13.02 652 90.816 1268.61 507.598
751 0 52.1103 14.5845 760 87.8895 1269.7 506.304
752 0 52.1445 13.3667 697 91.4835 1268.84 503.278
753 0 54.3424 14.1878 771 90.7056 1267.06 500.479
754 0 56.1763 14.1697 796 91.2048 1268.01 499.997
755 0 59.2096 14.9638 886 89.8589 1268.34 497.365
756 0 61.238 14.4355 884 90.4491 1267.86 498.463
757 0 62.1291 15.162 942 91.3195 1267.47 492.745
758 0 65.1292 15.7533 1026 91.1764 1268.01 490.919
759 0 67.1442 16.0848 1080 91.6843 1268.15 488.843
760 0 69.1634 15.0802 1043 93.3413 1269.17 488.313
761 0 71.1983 14.4526 1029 94.6132 1270.53 486.626
762 0 77.1349 16.7758 1294 89.9699 1271.38 484.835
763 0 78.1801 15.7841 1234 93.4368 1272.86 483.55
764 1 40.0906 11.025 442 96.6697 1275.36 502.674
765 0 41.1838 9.39691 387 100.385 1276.44 504.088
766 0 45.0641 11.8942 536 98.2724 1278.61 503.823
767 0 47.1959 11.6112 548 99.8303 1281.04 502.049
768 0 50.2193 13.9986 703 95.0185 1282.5 501.794
769 0 54.2251 14.864 806 95.5484 1282.28 500.151
770 0 56.2959 15.6317 880 95.1023 1280.72 500.081
771 0 56.1762 15.042 845 97.5846 1280.07 499.196
772 0 59.3313 15.4556 917 96.6609 1279.86 499.528
773 0 61.2134 14.3269 877 100.143 1278.72 499.929
774 0 66.243 14.8695 985 95.0721 1277.61 498.62
775 0 67.2538 16.356 1100 87.1009 1276.26 495.446
776 0 70.1741 13.9368 978 88.7812 1274.83 496.735
777 0 74.1894 15.4065 1143 86.6387 1272.49 492.834
778 0 79.1976 17.0838 1353 82.3636 1270.55 493.766
779 0 80.2605 16.9822 1363 83.2362 1269.93 489.206
780 0 83.1919 13.8956 1156 87.9256 1268.72 483.658
781 0 85.1315 14.1663 1206 86.9677 1268.57 483.198
782 1 46.1574 12.1757 562 85.5107 1269.14 501.534
783 0 46.0653 11.7008 539 84.5065 1269.48 503.158
784 0 48.1138 11.3897 548 85.4124 1267.94 500.79
785 0 51.1339 14.022 717 82.901 1268.04 498.194
786 0 55.1703 12.8511 709 84.0395 1268.04 494.901
787 0 52.151 10.9681 572 86.3252 1269.14 495.582
788 0 58.2202 14.1703 825 83.0958 1269.96 492.953
789 0 58.1355 13.9502 811 84.783 1271.27 492.875
790 0 61.1795 14.0897 862 82.7575 1273.65 494.014
791 0 62.1866 15.5821 969 81.4623 1275.04 493.591
792 0 64.1984 14.6265 939 84.1097 1276.9 493.137
793 0 65.1671 12.2915 801 88.5306 1278.14 493.866
794 0 71.1927 15.9005 1132 82.8878 1279.43 493.726
795 0 72.2014 13.8363 999 88.2573 1280.1 492.591
796 0 76.1565 15.9934 1218 86.8514 1279.99 493.028
797 0 81.2185 16.2648 1321 85.3278 1279.81 492.543
798 0 84.0973 12.985 1092 92.6493 1278.85 493.464
799 0 87.1485 14.4237 1257 92.4901 1277.97 490.456
800 0 93.1017 15.177 1413 92.0021 1275.99 489.708
801 0 97.1248 15.372 1493 92.4307 1273.96 486.101
802 1 51.082 11.7654 601 89.4542 1271.87 511.413
803 0 50.0186 12.9752 649 89.8798 1269.93 508.757
804 0 53.1091 14.1972 754 87.4377 1268.23 508.71
805 0 54.1729 12.6078 683 92.4305 1267.38 505.744
806 0 55.1962 13.9502 770 90.5688 1266.37 503.257
807 0 56.1932 13.7917 775 89.5768 1265.32 501.075
808 0 60.1596 14.927 898 90.1982 1265.88 499.223
809 0 61.1022 14.173 866 91.4226 1266.26 497.242
810 0 64.1562 14.1062 905 91.6906 1265.88 494.062
811 0 67.0972 15.485 1039 90.2647 1266.59 489.472
812 0 70.1842 13.6925 961 93.7919 1266.61 489.702
813 0 73.1316 14.344 1049 91.0057 1267.1 488.673
814 1 36.0725 10.5066 379 93.3272 1268.47 503.235
815 0 41.0219 12.2617 503 89.7316 1269.21 502.934
816 0 40.0271 11.4922 460 91.8957 1269.27 502.091
817 0 44.1936 13.4635 595 88.395 1271.59 501.296
818 0 45.0991 13.1045 591 89.9459 1272.59 501.602
819 0 45.1955 12.28 555 93.6649 1276.26 501.575
820 0 49.221 13.4495 662 90.3097 1277.19 502.041
821 0 52.128 12.8146 668 92.8293 1279.01 500.961
822 0 51.2447 13.6209 698 94.2464 1279.77 501.91
823 0 55.1489 14.6331 807 93.2292 1280.21 500.164
824 0 56.3726 13.872 782 93.8286 1279.22 502.058
825 0 61.2271 15.6467 958 93.8779 1277.94 499.078
826 0 62.1256 14.8892 925 95.0022 1277.24 498.864
827 0 63.1547 14.5516 919 96.2655 1276.68 498.357
828 0 66.3315 13.327 884 99.1629 1275.54 495.864
829 0 69.2997 15.5123 1075 95.1619 1275.53 496.933
830 0 72.2457 15.5026 1120 97.2589 1274.46 494.068
831 0 75.2127 15.3033 1151 96.4996 1273.36 492.103
832 1 41.1105 11.384 468 100.688 1273.41 506.588
833 0 44.0138 11.7009 515 96.6 1271.82 506.831
834 0 46.0387 13.9882 644 93.4969 1270.66 504.075
835 0 44.0645 11.0747 488 97.6045 1269.6 503.678
836 0 47.07 11.8334 557 94.5099 1269.08 503.564
837 0 50.171 12.5172 628 92.9586 1269.91 500.619
838 0 52.118 15.2155 793 87.4741 1269.63 497.324
839 0 53.2824 13.8132 736 91.2242 1270.44 495.253
840 0 54.0582 13.1895 713 92.6087 1270.6 495.986
841 0 57.1986 15.5598 890 88.391 1271.53 495.31
842 0 58.2655 14.1078 822 92.5414 1272.03 493.597
843 0 61.2329 14.355 879 91.62 1273.95 492.538
844 0 62.1648 13.6573 849 93.7208 1276.16 492.773
845 0 66.2064 15.2251 1008 90.6786 1278.2 492.272
846 0 69.1534 14.7498 1020 91.8951 1279.57 493.394
847 0 71.2329 15.9056 1133 90.7811 1281.33 492.836
848 0 72.1325 14.1129 1018 95.5727 1281.65 490.356
849 0 79.2451 15.7738 1250 92.2184 1282.44 488.994
850 0 83.1706 15.1736 1262 94.588 1283.09 489.115
851 0 87.1892 14.6807 1280 95.4805 1282.82 487.843
852 0 90.2813 14.4437 1304 96.6112 1280.78 487.592
853 0 95.3846 14.5831 1391 95.8605 1279.5 485.358
854 0 100.476 14.8693 1494 94.1292 1277.25 484.47
855 0 107.546 14.6263 1573 94.3586 1275.36 481.551
856 0 111.354 15.9401 1775 89.1521 1272.7 479.934
857 0 115.55 15.2835 1766 91.6597 1271.79 475.822
858 0 119.405 13.7097 1637 93.0031 1269.81 472.239
859 0 126.279 15.5133 1959 90.4502 1267.83 466.731
860 0 130.547 14.7686 1928 91.3174 1266.94 466.533
861 0 137.378 17.1133 2351 87.2548 1266.32 462.009
862 0 142.509 17.3463 2472 86.3422 1266.13 455.731
863 0 145.432 15.3268 2229 90.1983 1266.21 453.244
864 0 150.761 14.2743 2152 91.605 1266.32 444.934
865 1 72.1491 12.3356 890 88.6978 1265.97 486.993
866 0 76.1622 13.4975 1028 87.6313 1266.96 486.753
867 0 78.1818 13.1616 1029 83.585 1267.79 486.647
868 0 79.1214 13.7637 1089 84.315 1268.4 480.175
869 0 83.3975 13.4177 1119 83.8239 1270.34 479.014
870 0 88.3432 15.5869 1377 81.4655 1270.23 478.763
871 0 89.3316 13.4667 1203 85.1679 1271.55 476.36
872 0 95.2505 15.1285 1441 82.567 1273.58 477.877
873 0 100.408 15.4769 1554 83.119 1274.76 474.027
874 0 106.238 15.4464 1641 81.2547 1275.67 474.592
875 0 110.355 16.2566 1794 80.563 1277.16 471.51
876 1 69.2683 12.1989 845 80.8521 1278.87 494.76
877 0 73.2157 13.6173 997 79.9398 1279.77 492.531
878 0 78.1427 15.2797 1194 78.3467 1279.44 492.934
879 0 79.1402 13.217 1046 84.2658 1279.2 491.367
880 0 83.1182 13.3424 1109 84.532 1276.47 487.768
881 0 88.2399 14.9819 1322 81.3253 1274.93 486.531
882 0 93.2797 14.4297 1346 80.6434 1273.06 487.724
883 0 95.3224 14.5296 1385 81.4614 1272.44 485.158
884 0 96.2445 14.1618 1363 81.661 1271.82 482.537
885 0 102.278 13.258 1356 80.5546 1270.17 478.878
886 0 104.35 13.2152 1379 80.3553 1268.7 470.328
887 0 109.524 13.8143 1513 77.8863 1267.66 468.518
888 1 60.1735 10.0044 602 75.6279 1267.21 496.281
889 0 65.1721 12.2752 800 74.055 1267.01 492.421
890 0 65.2269 9.73524 635 77.1811 1266.82 492.803
891 0 69.1271 11.6742 807 77.6109 1266.18 489.413
892 0 71.2774 13.7351 979 75.8315 1266.24 481.968
893 0 74.1773 12.2949 912 76.9726 1267.48 481.922
894 0 77.2389 14.4357 1115 73.983 1267.65 483.112
895 0 82.2475 15.502 1275 73.2322 1268.8 476.995
896 0 82.2533 15.975 1314 72.5487 1269.39 480.97
897 0 85.1504 14.1045 1201 75.3447 1271.5 477.461
898 0 87.2498 14.6247 1276 75.9114 1271.95 476.4
899 0 92.3079 15.0041 1385 76.2253 1273.97 476.26
900 0 94.6423 13.3239 1261 79.8327 1276.51 475.338
901 0 98.4536 15.8349 1559 77.0718 1279.5 474.841
902 0 101.413 13.874 1407 80.666 1280.45 474.426
903 0 105.558 16.7586 1769 76.8705 1282.71 474.708
904 0 108.465 14.2535 1546 81.1113 1283.02 474.148
905 0 113.424 14.8117 1680 81.9274 1282.25 470.173
906 0 119.342 14.714 1756 82.2967 1281.05 471.41
907 1 68.6087 13.5989 933 79.1758 1279.72 498.259
908 0 68.7206 11.6122 798 84.8496 1278.35 498.345
909 0 70.3542 11.5274 811 86.344 1276.03 495.617
910 0 76.9071 15.3432 1180 79.1415 1274.16 492.891
911 0 79.6894 14.0671 1121 82.0027 1271.99 487.816
912 0 84.0722 15.2012 1278 82.7363 1270.53 488.443
913 0 86.7372 15.9447 1383 83.2082 1269.71 484.697
914 0 89.6376 14.6925 1317 85.7008 1268.66 480.788
915 0 92.7425 15.3112 1420 84.8352 1267.84 479.213
916 0 96.8803 16.5668 1605 82.843 1267.3 474.726
917 0 99.624 15.428 1537 84.8783 1266.65 471.591
918 0 101.779 15.1308 1540 86.4071 1266.2 471.416
919 0 105.467 15.6447 1650 86.2861 1266.24 468.426
920 0 107.7 14.7539 1589 88.4172 1266.41 467.651
921 1 55.8749 12.188 681 87.8443 1268.33 492.731
922 0 60.808 12.9095 785 86.6382 1269.01 491.403
923 0 62.5616 12.4677 780 88.509 1269.48 489.362
924 0 65.6351 14.1235 927 87.069 1270.71 488.357
925 0 69.9091 15.3771 1075 84.1684 1271.85 489.923
926 0 71.994 14.9735 1078 85.6317 1273.59 490.897
927 0 73.6537 14.6089 1076 88.0167 1275.41 489.561
928 0 77.556 14.8151 1149 88.2315 1277.25 486.558
929 0 80.2233 13.9112 1116 92.2661 1279.39 489.542
930 0 82.7078 14.7507 1220 93.9508 1279.81 488.682
931 0 87.6086 14.0854 1234 96.6945 1279.86 485.098
932 0 91.8255 13.9613 1282 97.4134 1279.43 485.182
933 0 96.7421 15.9083 1539 93.527 1278.37 481.316
934 1 50.242 10.8873 547 95.3949 1276.28 507.196
935 0 50.242 10.8873 547 156.358 1275.28 507.157
936 0 55.419 12.4325 689 93.0943 1272.74 505.929
937 0 61.3095 14.6959 901 88.9023 1271.72 504.105
938 0 61.2741 12.9582 794 95.9181 1269.8 502.709
939 0 63.438 14.2186 902 94.0477 1268.49 499.907
940 0 67.4262 13.5111 911 96.9671 1267.39 495.759
941 0 68.4664 14.6495 1003 95.8405 1266.73 491.817
942 0 71.4961 14.0287 1003 97.5264 1265.8 490.052
943 0 73.6707 15.1213 1114 96.8402 1264.85 484.804
944 0 77.6514 14.9257 1159 96.7688 1265.69 482.55
945 0 80.9249 16.954 1372 92.2187 1265.65 481.479
946 0 82.805 14.6489 1213 96.4938 1264.99 476.838
947 1 45.5192 12.1927 555 94.573 1265.08 495.16
948 0 47.436 11.9951 569 94.5852 1266.44 493.675
949 0 47.3781 10.7222 508 98.5079 1267.64 491.12
950 0 48.6915 10.8849 530 97.3075 1268.19 491.938
951 0 50.6445 11.9263 604 95.0215 1270.02 486.293
952 0 52.3958 12.501 655 93.913 1272.89 486.663
953 0 55.6407 12.3111 685 93.8686 1275.2 486.028
954 0 54.0678 12.8542 695 93.3424 1277.94 489.859
955 0 60.2327 14.3444 864 89.7049 1279.57 490.512
956 0 60.1225 13.6887 823 91.7278 1281.22 489.567
957 0 63.6029 12.9239 822 93.6861 1281.88 492.072
958 0 67.3386 14.6276 985 90.8081 1282.95 493.511
959 0 70.4232 15.1797 1069 89.7334 1282.33 494.083
960 0 74.538 14.5429 1084 91.7149 1281.85 492.997
961 0 74.341 12.2812 913 97.8335 1281.48 490.742
962 0 79.6254 13.6514 1087 94.6661 1280.01 492.742
963 0 83.4003 16.2469 1355 91.8649 1278.21 487.93
964 0 88.434 14.508 1283 94.6578 1276.24 487.575
965 0 91.3373 12.0323 1099 98.9518 1275 486.322
966 1 49.1111 10.4661 514 95.1907 1272.95 505.667
967 0 51.1042 12.3669 632 91.7706 1271.69 503.562
968 0 54.1533 10.9873 595 92.6504 1270.94 503.923
969 0 58.1922 13.2492 771 91.3294 1270.49 498.831
970 0 58.0321 12.4586 723 93.5823 1267.99 496.541
971 0 60.0644 13.2524 796 92.3693 1268 495.572
972 0 61.0727 13.4921 824 93.0158 1268.09 490.559
973 0 64.141 13.408 860 93.7477 1268.08 488.155
974 0 68.2211 12.9872 886 93.8928 1268.45 487.867
975 0 68.2826 13.1805 900 95.0478 1268.84 485.303
976 0 72.0847 13.3454 962 94.8971 1269.91 482.692
977 0 75.1682 14.1549 1064 93.9972 1270.43 481.663
978 0 78.1205 15.2713 1193 91.8407 1270.66 480.898
979 0 79.1139 13.9672 1105 95.0136 1272.32 477.854
980 0 83.305 13.6366 1136 95.228 1274.19 478.763
981 0 85.0956 13.6435 1161 97.124 1276.17 477.835
982 0 91.2062 15.0099 1369 95.0022 1278.73 477.665
983 1 50.0925 10.3608 519 96.6224 1280.62 498.26
984 0 50.0925 10.261 514 126.375 1283.63 498.449
985 0 56.119 11.9567 671 94.8465 1284.31 499.137
986 0 57.07 14.1405 807 92.1859 1284.64 498.114
987 0 60.1783 12.9116 777 92.982 1283.18 498.974
988 0 62.0623 12.7936 794 93.3602 1280.98 497.635
989 0 65.0674 12.6638 824 94.0789 1278.65 496.441
990 0 70.1633 13.1978 926 92.1717 1279.23 497.964
991 0 75.2137 14.1995 1068 88.9466 1278.03 495.49
992 1 42.2142 9.87819 417 89.4077 1277.81 513.499
993 0 43.1275 10.4574 451 90.2594 1274.76 510.962
994 0 44.0857 11.1601 492 90.1606 1272.35 508.22
995 0 48.0307 12.4504 598 86.5702 1271.81 508.085
996 0 50.1003 11.1576 559 88.7567 1270.93 505.594
997 0 48.1185 11.9705 576 88.3611 1269.58 503.01
998 0 50.2226 12.4247 624 86.617 1268.48 498.261
999 0 52.2894 12.2778 642 85.7336 1268.28 498.115
1000 0 54.1803 12.2369 663 84.7692 1267.66 497.688
1001 0 55.1648 12.8343 708 84.5593 1268.36 492.415
1002 0 59.3344 13.6852 812 82.3596 1268.72 491.108
1003 0 59.1856 13.6689 809 86.2188 1270.8 489.684
1004 0 60.0977 13.4281 807 86.1871 1270.82 490.1
1005 0 62.1374 13.9851 869 85.9551 1272.09 487.985
1006 0 66.1555 14.6624 970 83.0887 1272.25 486.562
1007 0 68.1463 11.8422 807 86.3978 1273.89 487.667
1008 0 72.1271 13.9337 1005 83.4239 1275.8 488.189
1009 0 72.1495 14.2898 1031 84.1794 1278.4 486.403
1010 0 75.2217 14.876 1119 83.9401 1280.55 485.734
1011 0 79.152 14.7059 1164 84.2165 1282.25 486.515
1012 0 82.1695 14.1902 1166 85.4837 1283.23 486.704
1013 0 86.0819 14.8115 1275 85.0486 1284.09 484.351
1014 1 48.1312 10.139 488 86.2971 1283.66 507.48
1015 0 47.0582 10.1364 477 88.0587 1282.62 504.933
1016 0 51.0623 11.5349 589 85.2699 1281.35 506.715
1017 0 51.0644 12.3569 631 84.4612 1280.55 505.613
1018 0 56.1065 11.7455 659 84.2564 1278.9 506.662
1019 0 58.1866 14.1613 824 83.2852 1276.5 503.432
1020 0 60.2096 12.2572 738 85.6667 1274.67 500.492
1021 0 63.1761 15.0532 951 80.5521 1273.08 499.038
1022 0 65.1756 15.0977 984 80.4217 1272.27 496.473
1023 0 69.1477 14.6932 1016 80.2323 1270.94 493.336
1024 0 72.1208 14.2816 1030 81.1359 1269.5 492.642
1025 0 75.4718 14.3365 1082 81.6118 1268.36 488.524
1026 1 40.2839 11.4438 461 80.3319 1267.51 506.193
1027 0 42.1421 9.68152 408 82.5588 1268.2 504.189
1028 0 41.061 12.5667 516 79.6938 1268.42 503.231
1029 0 44.0722 11.9804 528 80.9792 1268.98 501.557
1030 0 44.1739 12.6998 561 82.1943 1269.38 497.146
1031 0 48.2363 12.8741 621 81.8422 1271.35 495.72
1032 0 48.0732 10.068 484 86.6653 1272.97 497.331
1033 0 51.0199 13.1125 669 84.1046 1274.01 496.546
1034 0 53.0528 13.6845 726 84.3251 1273.81 494.483
1035 0 54.1839 13.528 733 86.1119 1274.98 495.095
1036 0 56.1483 14.4083 809 85.1384 1277.5 494.046
1037 0 56.1673 13.1037 736 90.212 1279.99 494.738
1038 0 62.0973 15.0731 936 87.5545 1282.14 495.437
1039 0 64.1709 14.6951 943 89.3828 1282.28 496.801
1040 0 66.4162 14.1532 940 92.134 1282.65 497.106
1041 0 69.4094 14.7098 1021 93.4368 1282.47 495.254
1042 1 42.1631 11.4792 484 95.4298 1282.25 510.905
1043 0 41.197 10.1949 420 98.2167 1281.28 513.676
1044 0 45.2025 12.5214 566 96.1608 1279.52 512.138
1045 0 46.2632 11.694 541 97.9482 1277.4 512.95
1046 0 49.4464 13.9141 688 94.5291 1276.16 509.802
1047 0 50.2049 13.2457 665 98.7098 1276.13 508.812
1048 0 51.0385 13.7739 703 96.9531 1272.06 506.657
1049 0 52.1097 13.8938 724 97.5704 1270.37 505.026
1050 0 54.1311 13.2271 716 99.3408 1268.97 503.898
1051 0 56.032 13.5101 757 99.9339 1268.23 499.415
1052 0 59.1753 14.4993 858 97.8706 1268.35 497.809
1053 0 61.1024 15.4986 947 96.2239 1267.66 494.988
1054 0 62.132 14.3082 889 98.6445 1268.18 492.791
1055 0 63.2238 12.8749 814 101.842 1268.34 489.861
1056 0 68.1432 15.35 1046 96.3853 1268.04 488.551
1057 0 68.1924 15.4123 1051 97.687 1268.32 485.79
1058 0 71.0466 14.6101 1038 99.4971 1269.28 484.389
1059 0 75.2117 16.5267 1243 95.2518 1269.97 484.438
1060 0 78.1807 15.72 1229 96.3165 1272.74 482.775
1061 0 80.1153 13.7427 1101 100.738 1273.51 481.32
1062 0 82.212 15.4235 1268 98.7934 1275.99 479.547
1063 0 86.2835 15.4954 1337 99.0539 1278.06 478.022
1064 0 88.0921 16.1195 1420 99.0761 1279.65 478.154
1065 0 92.2045 16.4092 1513 98.7759 1280.88 475.31
1066 0 95.2412 15.6445 1490 101.411 1283.3 474.868
1067 0 99.3092 15.6682 1556 101.502 1283.84 475.233
1068 0 103.219 15.7529 1626 102.051 1283.53 474.961
1069 0 107.256 16.2602 1744 100.907 1282.83 471.078
1070 0 114.13 15.7977 1803 101.662 1281.17 468.811
1071 0 120.253 15.6337 1880 101.629 1280.28 469.619
1072 0 126.191 15.2626 1926 102.746 1279.15 465.673
1073 1 70.1494 10.2495 719 102.924 1277.68 495.278
1074 0 77.1593 12.6751 978 100.272 1276.76 490.526
1075 0 80.1824 13.0577 1047 99.7412 1275.71 487.911
1076 0 82.1608 13.644 1121 99.0205 1273.96 485.454
1077 0 85.207 13.4261 1144 98.5297 1272.84 483.595
1078 0 89.1842 13.5338 1207 97.4258 1271.17 478.94
1079 0 93.2209 13.5056 1259 97.8856 1269.63 477.563
1080 0 98.151 15.2113 1493 94.3423 1268.96 472.906
1081 0 100.176 14.9336 1496 96.1925 1269.55 469.083
1082 0 103.262 13.4609 1390 98.295 1269.7 468.512
1083 0 109.286 15.5281 1697 95.1821 1270.53 465.062
1084 1 62.1233 9.75479 606 99.1007 1269.79 486.566
1085 0 64.0515 12.6149 808 94.0297 1271.07 487.619
1086 0 65.0723 11.4642 746 95.9638 1270.8 486.428
1087 0 67.0976 12.3104 826 95.04 1274.41 485.171
1088 0 68.1603 13.0575 890 96.7393 1275.82 481.601
1089 0 71.2918 13.8445 987 95.08 1278.42 483.359
1090 0 72.2401 12.763 922 98.538 1279.78 482.38
1091 0 78.2347 14.2648 1116 95.0403 1281.96 480.968
1092 0 81.2189 13.6914 1112 95.696 1283.89 481.464
1093 0 85.1317 13.6025 1158 96.2815 1286 481.086
1094 0 89.2584 13.3209 1189 96.6072 1286.81 480.694
1095 0 93.1229 14.2285 1325 94.2709 1286.01 478.611
1096 1 52.0821 8.44819 440 95.7159 1286.53 502.173
1097 0 54.0794 9.06075 490 94.249 1285.35 502.953
1098 0 54.1355 9.0329 489 96.2045 1283.34 499.706
1099 0 57.0418 9.30896 531 95.1318 1282.42 501.023
1100 0 62.1224 12.1373 754 90.6777 1281.42 500.078
1101 0 63.0417 11.8334 746 88.8405 1280.12 499.562
1102 0 65.265 12.9012 842 87.6223 1277.96 494.99
1103 0 68.1077 11.8929 810 88.2667 1276.76 492.542
1104 0 71.0663 14.1417 1005 84.6985 1275.5 490.555
1105 0 72.1609 12.0564 870 89.5391 1274.92 488.125
1106 0 78.1404 14.9987 1172 83.8276 1273.06 486.214
1107 0 77.0671 13.326 1027 88.5755 1272.91 481.211
1108 0 79.1623 12.367 979 90.1502 1272.58 477.496
1109 0 82.1173 13.5538 1113 87.9524 1273.19 476.464
1110 0 88.2735 14.7609 1303 85.9133 1272.04 474.724
1111 0 89.2506 16.0559 1433 84.7271 1272.16 470.662
1112 0 92.087 14.0628 1295 88.2834 1273.24 468.683
1113 0 94.2062 12.4939 1177 91.8097 1273.55 465.513
1114 0 94.136 13.1193 1235 91.9514 1275.23 462.432
1115 0 102.225 13.1573 1345 91.7346 1275.41 462.019
1116 1 59.1653 11.8144 699 85.2289 1277.63 487.089
1117 0 62.0816 11.8554 736 87.0367 1278.65 487.865
1118 0 65.1387 12.1126 789 86.5792 1281.47 488.265
1119 0 67.1314 11.9914 805 86.4422 1281.81 487.658
1120 0 67.1993 11.9198 801 87.7378 1282.63 489.115
1121 0 72.1231 13.1581 949 86.0485 1284.53 490.473
1122 0 76.1654 14.0352 1069 86.2011 1284.37 488.792
1123 0 80.1256 13.7035 1098 87.8315 1284.62 487.895
1124 0 85.2918 13.4128 1144 89.3593 1283.58 487.377
1125 0 89.2405 14.2648 1273 88.8013 1282.47 488.926
1126 1 48.0344 9.99284 480 91.6458 1282.47 508.188
1127 0 50.0279 9.99442 500 89.508 1281.09 510.576
1128 0 54.0256 11.1799 604 91.0712 1279.44 506.007
1129 0 54.0255 11.6612 630 91.5524 1277.38 502.908
1130 0 57.0822 13.2441 756 90.4669 1275.9 500.948
1131 0 57.0822 13.2265 755 138.049 1274.87 500.872
1132 0 60.0343 11.8432 711 89.7342 1272.52 496.519
1133 0 62.0924 13.3189 827 87.9383 1271.53 494.757
1134 0 66.2013 13.5043 894 87.7472 1271.14 491.685
1135 0 65.1024 12.6109 821 90.2168 1271.21 491.568
1136 0 67.2237 12.9567 871 90.5947 1270.01 487.642
1137 0 70.2534 11.8286 831 91.0253 1271.3 487.574
1138 0 73.2003 12.8961 944 89.9068 1271.76 484.001
1139 0 75.2733 13.4311 1011 89.7319 1272.62 482.41
1140 0 79.2158 13.3559 1058 89.3904 1273.93 483.644
1141 0 81.1135 13.3023 1079 89.7943 1274.67 481.065
1142 1 45.047 11.6767 526 89.9106 1277.03 498.73
1143 0 44.0413 9.62733 424 93.6934 1278.74 499.007
1144 0 47.0504 10.0743 474 91.5865 1279.69 500.977
1145 0 51.0295 10.8369 553 92.3128 1280.94 499.703
1146 0 51.1592 10.5162 538 94.145 1283.04 498.305
1147 0 55.1078 11.7588 648 91.7361 1283.04 499.867
1148 0 58.1253 13.4193 780 89.8769 1283.54 499.113
1149 0 61.1762 12.0635 738 91.5244 1282.44 501.675
1150 0 61.2556 13.9906 857 90.287 1281.64 498.974
1151 0 61.239 11.3653 696 95.7802 1281.76 499.928
1152 0 64.1604 13.6377 875 91.9097 1281.47 498.943
1153 0 70.2204 14.2266 999 89.5045 1280.4 498.919
1154 0 73.2256 15.2542 1117 87.7395 1278.52 497.111
1155 0 75.2131 15.4228 1160 88.7457 1277 495.792
1156 0 79.3348 14.8989 1182 90.3054 1275.62 493.087
1157 0 83.2908 15.3678 1280 88.9148 1273.6 489.342
1158 0 84.3046 15.4677 1304 90.2071 1272.58 489.311
1159 0 86.2328 15.0523 1298 91.7227 1271.4 485.52
1160 1 45.0215 10.9503 493 98.0345 1269.49 504.227
1161 0 48.1913 11.9731 577 95.6568 1269.44 503.747
1162 0 51.0909 12.1548 621 94.2979 1268.79 502.01
1163 0 50.1387 12.3458 619 95.8918 1268.89 499.721
1164 0 55.0749 14.217 783 92.1201 1269.17 497.382
1165 0 57.1678 13.7665 787 92.155 1269.21 492.736
1166 0 57.1678 14.1513 809 92.0964 1271.11 491.356
1167 0 58.1642 13.9949 814 93.6167 1272.02 488.802
1168 0 62.258 16.1264 1004 90.4452 1272.46 490.304
1169 0 63.3995 15.1894 963 91.6366 1273.39 486.864
1170 0 64.1834 15.3778 987 93.5907 1274.92 489.015
1171 0 67.3193 15.4933 1043 93.0163 1276.34 487.131
1172 0 68.3451 16.124 1102 93.5944 1278.96 487.182
1173 0 71.1618 15.4296 1098 94.7714 1280.37 487.993
1174 0 74.1933 16.6996 1239 92.3995 1282.36 486.678
1175 0 77.3697 17.5779 1360 91.4816 1283.73 488.038
1176 0 80.3247 17.6907 1421 92.9071 1284.33 486.209
1177 0 84.3155 16.0825 1356 96.6726 1285.01 485.451
1178 0 87.4252 17.2948 1512 96.0536 1285.48 484.976
1179 0 88.3667 16.092 1422 100.633 1284.45 483.46
1180 0 93.3967 16.4032 1532 99.2258 1283.83 484.939
1181 1 51.3497 10.6914 549 104.894 1282.53 505.743
1182 0 52.3483 11.1178 582 103.806 1280.57 506.172
1183 0 53.2265 14.7295 784 98.9541 1279.46 505.608
1184 0 56.1029 13.6713 767 101.687 1278.74 502.335
1185 0 58.4316 14.7009 859 99.6321 1277.93 499.071
1186 0 63.3671 16.3018 1033 96.5653 1275.79 497.403
1187 0 64.1215 15.7046 1007 97.0348 1274.39 494.928
1188 0 64.128 14.5646 934 100.792 1273.43 492.488
1189 0 67.2567 15.0914 1015 99.7665 1273 490.744
1190 0 71.2903 15.4018 1098 98.4399 1271.88 487.665
1191 0 72.2715 15.3587 1110 100.09 1271.52 483.659
1192 0 75.3133 16.8231 1267 97.4223 1271.78 481.763
1193 0 79.5344 14.6478 1165 103.051 1271.92 480.003
1194 0 80.4569 14.5668 1172 104.452 1272.33 476.709
1195 0 84.2452 16.4164 1383 100.561 1272.91 475.251
1196 0 86.2894 16.7344 1444 100.028 1273.11 474.299
1197 0 90.3797 16.0213 1448 102.512 1275.1 472.157
1198 0 92.3798 15.4579 1428 104.059 1276.18 470.548
1199 0 99.3579 17.9352 1782 97.8322 1276.77 470.352
1200 0 100.407 16.1044 1617 102.472 1278.99 468.799
1201 1 57.2205 12.88 737 104.237 1281.13 490.469
1202 0 56.1744 11.1795 628 106.503 1282.6 492.298
1203 0 63.1689 11.0497 698 108.391 1283.54 491.097
1204 0 67.1203 15.1668 1018 100.086 1283.71 489.865
1205 0 69.1362 14.9126 1031 101.582 1284.87 488.689
1206 0 73.0309 15.0484 1099 101.547 1283.99 488.335
1207 0 76.0682 13.0146 990 108.008 1283.96 487.32
1208 0 81.1098 14.6222 1186 104.684 1283.92 486.675
1209 0 84.1435 14.606 1229 105.615 1283.39 486.999
1210 0 89.1366 15.1004 1346 105.195 1282 483.796
1211 0 90.1521 13.81 1245 109.439 1280.82 479.719
1212 0 98.1191 15.5525 1526 104.573 1279.31 480.318
1213 1 51.1274 9.62302 492 104.915 1277.77 503.1
1214 0 55.1548 11.8575 654 102.228 1276.79 500.829
1215 0 57.0489 12.1475 693 103.212 1274.78 497.525
1216 0 60.3166 12.9484 781 101.129 1273.68 494.05
1217 0 63.3917 13.8346 877 99.4846 1273.41 491.737
1218 0 64.0955 13.7451 881 101.082 1272.21 487.821
1219 0 67.2117 13.4649 905 99.8442 1272.22 488.11
1220 0 72.108 14.3119 1032 98.1996 1271.51 484.836
1221 0 71.1703 12.716 905 103.31 1272 482.261
1222 0 78.26 14.9118 1167 99.0848 1273.23 479.93
1223 0 82.2573 14.0778 1158 99.7098 1275.72 479.87
1224 0 82.3843 14.1532 1166 101.746 1276.62 476.184
1225 1 45.1809 11.5093 520 98.0404 1277.66 497.179
1226 0 44.2341 9.9923 442 103.98 1277.79 496.285
1227 0 47.2385 10.7751 509 102.098 1280.22 497.629
1228 0 50.2238 11.2895 567 102.884 1282.49 496.801
1229 0 52.3464 12.8949 675 100.75 1283.85 497.726
1230 0 53.225 12.9826 691 100.852 1285.81 498.702
1231 0 56.1598 13.2479 744 102.905 1287.46 497.16
1232 0 59.3295 12.4559 739 104.008 1286.33 498.708
1233 0 60.3692 13.6328 823 102.665 1286.01 498.04
1234 0 63.1401 13.5096 853 102.931 1285.17 497.551
1235 0 66.151 13.6959 906 101.46 1282.83 498.494
1236 0 67.2676 13.5132 909 102.898 1281.53 495.017
1237 0 73.3011 14.6655 1075 99.4428 1280.73 497.146
1238 0 76.3199 15.1206 1154 97.6872 1277.87 492.277
1239 1 42.0901 11.1665 470 97.8809 1278.05 510.343
1240 0 44.0797 12.4774 550 96.02 1275.77 508.611
1241 0 46.1139 10.9945 507 97.7002 1273.81 506.73
1242 0 47.2381 12.13 573 97.7888 1272.67 503.881
1243 0 49.1575 12.6532 622 95.4582 1272.22 502.013
1244 0 49.0822 13.0597 641 95.4399 1270.29 499.304
1245 0 55.3022 13.9416 771 93.5045 1270.06 497.947
1246 0 53.3798 13.3571 713 96.8752 1270.1 496.541
1247 0 55.4352 14.0705 780 96.7013 1270.17 493.965
1248 0 58.2277 13.2755 773 97.7283 1270.79 491.855
1249 0 57.2693 13.5849 778 98.8136 1271.08 491.672
1250 0 61.2744 15.0634 923 95.4085 1272.82 488.948
1251 0 64.3255 12.9653 834 98.5635 1273.15 488.553
1252 0 67.241 14.1134 949 94.3109 1274.43 488.393
1253 0 69.287 14.8657 1030 94.6369 1276.1 485.933
1254 0 70.2976 13.0588 918 95.6993 1278.25 487.491
1255 0 74.3154 13.6042 1011 94.3571 1280.63 485.522
1256 0 77.2937 14.3091 1106 94.7278 1282.41 483.777
1257 0 81.6233 13.6603 1115 97.3022 1284.75 485.187
1258 1 41.3718 10.3936 430 99.5791 1283.92 503.226
1259 0 44.3909 10.2498 455 96.9648 1283.9 505.857
1260 0 45.2996 10.1325 459 98.8519 1283.41 505.331
1261 0 49.4165 11.2715 557 97.9013 1281.55 505.189
1262 0 51.1365 12.7502 652 94.2025 1280.16 504.952
1263 0 54.2621 14.3378 778 93.0347 1278.42 503.978
1264 0 57.2177 14.6283 837 92.1243 1277.04 504.215
1265 0 57.2031 11.9399 683 97.6105 1275.86 503.66
1266 0 63.2062 15.0776 953 89.7901 1274.46 500.636
1267 0 63.2328 14.8183 937 90.8741 1272.2 497.504
1268 0 65.2775 15.0128 980 89.6061 1270.78 494.589
1269 0 68.1303 15.1034 1029 87.4694 1271.63 492.738
1270 1 39.0896 10.898 426 88.4014 1271.73 508.228
1271 0 41.0228 12.1396 498 87.01 1270.51 504.805
1272 0 41.0228 12.1396 498 149.016 1269.51 504.805
1273 0 44.0261 11.6295 512 87.3008 1270.04 499.873
1274 0 49.0317 12.3797 607 84.5338 1269.93 499.514
1275 0 46.0649 13.2205 609 86.9015 1270.7 495.813
1276 0 49.1739 13.7268 675 83.1778 1272.02 497.265
1277 0 50.3601 14.6942 740 84.2419 1271.58 494.354
1278 0 53.2713 15.0738 803 82.9054 1273.35 494.197
1279 0 54.2098 13.5584 735 86.1184 1273.18 493.927
1280 0 56.3336 15.2307 858 83.5688 1275.58 492.939
1281 0 58.3112 14.234 830 86.2675 1278.16 493.927
1282 0 58.1596 14.8213 862 86.8747 1280.03 491.295
1283 0 63.1789 14.5777 921 86.5559 1281.44 492.885
1284 0 66.3879 14.1893 942 86.242 1282.6 494.241
1285 0 68.4964 15.0811 1033 87.0813 1283.97 491.498
1286 0 68.2799 14.1916 969 89.8297 1284.2 491.8
1287 0 73.4621 15.9946 1175 86.7719 1284.3 489.936
1288 0 78.3978 15.0387 1179 88 1283.02 490.947
1289 0 80.3594 16.0156 1287 87.4716 1282.08 488.291
1290 0 84.4397 16.2364 1371 88.0314 1280.61 489.491
1291 0 86.772 14.8089 1285 90.2031 1279.12 486.419
1292 1 47.3246 11.5585 547 93.426 1278.31 507.329
1293 0 48.4756 12.0473 584 91.5428 1276.52 505.007
1294 0 51.46 14.3995 741 88.3495 1275.77 500.457
1295 0 55.5751 14.5389 808 85.3589 1274.27 499.017
1296 0 57.1527 15.5548 889 83.3251 1272.54 497.162
1297 0 58.2434 14.7828 861 84.6005 1271.57 495.957
1298 0 59.212 13.4432 796 87.1319 1270.17 490.907
1299 0 60.2997 13.6817 825 87.4206 1270.85 489.53
1300 0 60.4473 13.3339 806 87.2432 1270.67 488.247
1301 0 64.3382 15.0766 970 83.0454 1272.4 486.075
1302 0 65.3034 14.7619 964 82.9907 1271.84 485.537
1303 0 68.4472 15.8809 1087 81.1444 1272.77 483.788
1304 0 67.3909 14.3491 967 83.8397 1273.96 482.645
1305 0 71.4874 15.2474 1090 81.067 1274.42 480.094
1306 0 74.4682 15.5906 1161 80.4539 1275.23 480.766
1307 0 78.9946 15.7099 1241 78.56 1277.14 478.457
1308 0 78.5511 14.602 1147 79.9189 1279.52 479.737
1309 1 40.3418 10.2127 412 81.5364 1282.37 498.124
1310 0 41.3192 11.2297 464 80.5496 1284.23 498.744
1311 0 42.2789 10.5726 447 79.8345 1285.32 501.407
1312 0 44.3843 11.3554 504 78.1865 1286.86 501.163
1313 0 44.1404 11.8486 523 78.2772 1285.37 500.101
1314 0 48.1368 15.082 726 73.0427 1284.66 500.938
1315 0 50.0549 14.9036 746 73.7668 1284.21 499.42
1316 0 48.1239 14.712 708 74.4548 1282.88 500.239
1317 0 51.1411 15.4279 789 72.9886 1281.84 501.079
1318 0 51.0617 14.6685 749 73.9146 1280.43 499.888
1319 0 53.1583 14.391 765 72.7438 1279.59 499.058
1320 0 50.0918 13.8745 695 76.1597 1278.38 498.868
1321 0 52.0881 15.1666 790 73.6975 1276.66 496.561
1322 0 52.0896 14.2639 743 74.1104 1275.18 498.234
1323 0 53.103 15.2534 810 73.1123 1274.71 492.956
1324 0 53.0382 12.2365 649 75.7072 1274.37 491.601
1325 0 53.0382 12.0668 640 117.306 1273.38 491.661
1326 0 56.1125 15.7184 882 71.2132 1274.14 491.592
1327 0 55.0769 13.7626 758 73.9129 1274.03 489.522
1328 0 57.2036 15.069 862 71.9269 1274.56 489.508
1329 0 54.1074 13.4732 729 73.2401 1274.93 489.471
