time division length width area intensity CMx CMy
0 0 41.307 15.1548 626 139.958 1348.32 492.981
1 0 41.3624 14.5059 600 144.2 1348.16 491.832
2 0 43.3589 14.0456 609 144.81 1349.03 492.046
3 0 44.4495 14.5558 647 142.136 1347.81 491.085
4 0 44.3233 14.7552 654 143.226 1348.96 491.583
5 0 45.3167 15.2924 693 141.453 1350.77 490.642
6 0 46.4681 15.2793 710 142.261 1350.5 490.349
7 0 48.4277 15.8794 769 136.996 1350.46 490.057
8 0 48.265 16.2437 784 138.963 1350.4 488.251
9 0 48.2724 16.2619 785 139.005 1350.56 488.916
10 0 50.3683 16.5183 832 135.506 1350 488.6
11 0 51.198 17.9108 917 130.505 1350.29 488.816
12 0 51.1983 16.4459 842 138.036 1349.48 486.533
13 0 52.1595 16.8713 880 134.406 1350.1 487.338
14 0 54.2919 16.0429 871 137.232 1350.13 485.923
15 0 55.1999 17.1921 949 133.82 1350.06 485.006
16 0 56.1513 16.2775 914 136.761 1349.65 484.328
17 0 59.2888 17.5244 1039 130.784 1349.51 483.568
18 0 59.1855 17.2846 1023 132.962 1350.04 483.452
19 0 61.4564 17.1829 1056 131.461 1350.34 483.249
20 0 64.3146 17.3522 1116 130.389 1349.37 481.599
21 0 67.1593 18.002 1209 126.682 1350.43 481.909
22 0 68.2572 15.9251 1087 132.474 1351.65 479.364
23 0 67.2612 16.0865 1082 173.184 1352.61 479.323
24 0 72.2174 17.7658 1283 127.64 1352.25 477.474
25 0 74.2433 17.2137 1278 129.326 1352.6 476.143
26 1 41.0664 12.9059 530 133.923 1352.44 494.157
27 0 42.0495 13.1512 553 131.573 1352.69 493.58
28 0 44.031 13.218 582 131.9 1353.05 492.49
29 0 45.0679 13.8458 624 129.663 1353.16 492.051
30 0 45.1801 13.6343 616 128.781 1353.01 490.968
31 0 44.057 13.1648 580 130.553 1353.88 488.276
32 0 49.0613 15.552 763 123.953 1353.89 487.474
33 0 49.0622 14.5122 712 126.517 1354.19 484.874
34 0 52.2847 16.7544 876 118.865 1353.52 487.858
35 0 53.3147 14.4238 769 127.033 1353.94 486.213
36 0 54.218 16.1017 873 122.803 1354.29 485.863
37 0 57.164 15.9891 914 121.402 1354.16 485.832
38 0 58.1172 16.2947 947 121.094 1354.48 485.334
39 0 60.3174 15.7168 948 121.461 1353.25 483.78
40 0 63.2383 15.5286 982 120.422 1353.81 482.39
41 0 65.1568 15.4397 1006 121.751 1353.72 482.019
42 0 67.1736 17.3133 1163 117.163 1353.9 480.881
43 0 69.3292 16.9337 1174 119.088 1354.4 476.934
44 0 73.2561 17.7187 1298 116.002 1354.17 478.261
45 0 75.2037 16.1827 1217 119.776 1354.83 477.265
46 0 75.2037 16.2625 1223 155.996 1356.81 477.293
47 1 40.0628 12.8298 514 120.42 1355.98 494.815
48 0 40.0628 12.8298 514 159.724 1353 494.903
49 0 41.2267 12.4191 512 121.236 1355.9 495.439
50 0 43.1483 13.3957 578 116.289 1355.26 494.46
51 0 42.1536 13.095 552 164.958 1354.21 494.098
52 0 47.0816 15.0802 710 112.628 1355.68 493.048
53 0 48.0819 14.7457 709 113.398 1356.35 493.244
54 0 48.0819 14.7873 711 159.416 1357.37 493.377
55 0 48.0819 14.7457 709 159.006 1358.39 493.44
56 0 51.2968 15.6345 802 114.662 1354.7 490.904
57 0 54.1543 15.8251 857 115.025 1355.56 488.937
58 0 55.2702 15.7047 868 116.601 1354.52 487.137
59 0 58.2449 15.4863 902 115.639 1354.7 487.387
60 0 59.3403 16.8182 998 114.195 1354.78 484.428
61 0 62.2509 15.5821 970 115.064 1354.79 484.437
62 0 62.1626 14.639 910 118.81 1354.94 481.982
63 0 65.2085 16.0102 1044 117.052 1355.14 482.374
64 0 67.2419 16.4927 1109 117.173 1354.03 479.624
65 0 67.2587 14.8085 996 123.12 1354.46 477.376
66 0 72.3137 16.622 1202 115.027 1354.37 479.41
67 0 74.1854 17.3619 1288 115.965 1353.95 475.737
68 0 77.2156 17.0691 1318 115.249 1353.66 474.593
69 0 79.2312 16.5718 1313 116.302 1353.73 473.489
70 0 82.2064 16.9573 1394 116.997 1352.96 470.059
71 0 85.2061 16.0083 1364 119.227 1353.89 470.166
72 0 87.2413 15.9787 1394 120.341 1352.3 466.473
73 0 91.3724 15.7378 1438 119.899 1353.18 467.476
74 1 47.0181 12.761 600 117.073 1354.9 489.617
75 0 47.0181 12.6547 595 150.42 1355.93 489.603
76 0 50.0143 12.5564 628 118.317 1357.22 487.833
77 0 51.0654 13.7862 704 114.479 1356.94 487.412
78 0 55.0481 13.57 747 111.889 1356.75 487.071
79 0 55.0623 13.3303 734 113.876 1357.44 486.557
80 0 57.1777 12.9421 740 113.911 1358.31 487.155
81 0 57.1624 12.9456 740 151.024 1359.31 487.155
82 0 62.0463 14.7954 918 107.858 1357.09 484.306
83 0 61.0851 12.8837 787 114.393 1357.03 481.236
84 0 66.0663 14.4249 953 109.712 1356.88 482.342
85 0 67.1162 14.1695 951 110.942 1357.15 480.517
86 0 71.2229 15.1215 1077 110.663 1357.81 479.417
87 0 71.1507 14.6731 1044 112.837 1357.79 477.771
88 0 76.1898 14.7264 1122 111.037 1357.68 476.476
89 0 77.2025 14.9089 1151 110.294 1356.92 476.254
90 0 80.1389 14.974 1200 111.121 1356.78 473.322
91 0 83.1761 13.8862 1155 113.089 1357.56 471.248
92 0 85.2432 14.8164 1263 112.814 1357.28 470.292
93 1 44.1363 11.2152 495 114.022 1355.47 491.313
94 0 46.1403 12.5703 580 111.398 1355.99 490.35
95 0 47.2045 11.5455 545 113.105 1356.49 490.117
96 0 48.3028 13.5603 655 110.879 1356.91 487.525
97 0 50.1115 13.011 652 110.456 1357.38 487.873
98 0 52.1735 13.5893 709 108.743 1356.88 486.505
99 0 54.1493 13.629 738 107.069 1357.44 486.843
100 0 54.2379 14.4733 785 107.354 1358.57 485.89
101 0 56.2571 14.0249 789 109.023 1359.29 485.341
102 0 58.2686 14.6219 852 106.651 1359.93 484.432
103 0 59.2684 14.9152 884 107.209 1359.12 484.791
104 0 62.3093 15.8564 988 104.705 1359.7 482.83
105 0 62.3093 15.8564 988 149.579 1359.7 482.713
106 0 64.3695 14.4323 929 111.353 1359.28 480.149
107 0 69.1529 15.8923 1099 106.575 1359.83 479.261
108 0 70.2548 16.7533 1177 106.239 1359.65 478.935
109 0 74.1937 16.4974 1224 105.98 1360.01 480.285
110 0 75.1857 15.3886 1157 109.886 1359.7 477.889
111 0 76.2157 16.7813 1279 106.692 1358.88 475.891
112 0 79.1794 15.8753 1257 108.279 1358.76 476.091
113 0 81.4125 15.5259 1264 109.587 1358.16 474.074
114 1 44.1097 10.8366 478 111.115 1359.31 494.008
115 0 46.1984 11.4939 531 110.017 1358.98 493.719
116 0 46.0785 11.3068 521 109.639 1358.34 494.775
117 0 49.0529 12.7413 625 108.595 1358.51 491.733
118 0 49.0451 14.2318 698 106.019 1357.4 490.999
119 0 49.0451 14.2726 700 145.163 1357.41 490.94
120 0 49.0407 14.3146 702 144.547 1357.42 490.903
121 0 55.2487 13.5207 747 106.573 1356.74 488.739
122 0 57.3095 14.9888 859 104.511 1356.24 485.644
123 0 59.2665 14.3083 848 105.462 1356.41 486.108
124 0 61.1814 15.9035 973 102.847 1355.67 485.62
125 0 61.1351 14.7706 903 107.682 1356.5 483.106
126 0 64.2515 15.1903 976 106.897 1356.74 481.158
127 0 66.2579 15.2586 1011 106.656 1357.18 481.885
128 0 69.2969 15.9747 1107 105.23 1357.34 479.044
129 0 70.6542 15.866 1121 107.236 1357.55 478.032
130 0 73.4394 16.3672 1202 105.505 1357.48 477.439
131 1 38.1914 9.55713 365 107.888 1357.93 497.896
132 0 40.3633 11.9911 484 107.24 1357.66 494.19
133 0 39.2638 11.0025 432 108.514 1357.76 493.949
134 0 41.2385 12.4883 515 105.592 1358.65 492.983
135 0 45.2334 13.4856 610 101.148 1358.56 492.923
136 0 46.2888 14.5607 674 98.9184 1358.59 492.822
137 0 48.1545 14.1835 683 99.612 1359.63 491.777
138 0 48.2737 14.7285 711 99.9944 1358.52 491.53
139 0 48.2051 14.4798 698 101.619 1359.56 490.706
140 0 50.1731 14.8685 746 100.257 1360.07 490.123
141 0 51.2143 15.6206 800 99.2325 1359.65 489.3
142 0 53.2864 14.5441 775 100.721 1358.83 490.138
143 0 55.1632 15.8802 876 97.621 1358.93 489.168
144 0 57.2873 14.2964 819 100.923 1358.04 489.12
145 0 57.2217 13.7011 784 102.529 1357.66 487.121
146 0 59.3527 15.3658 912 99.8399 1357.59 484.842
147 0 62.32 13.7195 855 102.454 1357.76 484.098
148 0 65.4527 14.7893 968 99.7056 1358.07 482.558
149 0 68.3707 14.8017 1012 99.2757 1357.19 482.46
150 0 68.3707 14.6993 1005 145.746 1356.19 482.527
151 1 36.0679 10.4802 378 99.1746 1358.03 496.526
152 0 38.022 10.3887 395 96.8582 1357.51 498.177
153 0 38.022 10.3361 393 143.005 1358.5 498.14
154 0 41.0219 11.2135 460 95.7457 1356.21 495.739
155 0 43.0748 12.072 520 92.8654 1356.04 495.067
156 0 43.0333 13.1758 567 92.8395 1356.04 492.026
157 0 45.3673 13.0931 594 90.0354 1355.52 492.311
158 0 44.2616 12.3583 547 92.3327 1355.92 491.282
159 0 47.2771 12.6488 598 90.2759 1355.79 490.769
160 0 50.3567 13.9803 704 87.3366 1356.83 490.716
161 0 51.3695 15.4956 796 85.7915 1356.39 490.068
162 0 52.1534 14.2848 745 88.8322 1357.13 489.099
163 0 53.2173 12.759 679 90.6613 1357.6 489.825
164 0 54.4041 14.7048 800 88.5338 1357.94 485.661
165 0 55.2071 14.0018 773 90.4204 1358.43 484.709
166 0 58.2283 14.3573 836 88.7081 1357.12 486.134
167 0 59.2846 13.7304 814 90.2801 1356.83 485.301
168 0 61.3184 14.3187 878 90.3531 1357.12 482.749
169 0 65.2586 13.5001 881 91.7117 1357.57 483.388
170 0 68.3873 16.3188 1116 88.1183 1358.25 482.964
171 0 68.3629 14.306 978 92.681 1357.72 483.758
172 0 72.2934 14.7316 1065 92.0883 1357.79 480.812
173 0 73.3215 14.3341 1051 93.2036 1357.92 480.906
174 0 76.2428 13.8505 1056 94.3475 1357.08 479.797
175 1 39.0992 12.4299 486 91.1893 1358.42 499.372
176 0 40.1255 12.6353 507 92.2998 1358.38 498.199
177 0 41.0326 13.1359 539 93.4694 1358.41 497.256
178 0 44.3496 12.8975 572 93.0909 1357.15 497.598
179 0 42.2684 14.6208 618 93.4401 1356.39 495.11
180 0 48.4128 14.459 700 90.5786 1356.67 497.34
181 0 46.1492 14.6481 676 92.3447 1355.56 494.96
182 0 49.2922 15.1545 747 90.9411 1355.53 494.922
183 0 49.3629 13.6945 676 94.7426 1355.06 493.797
184 0 51.2762 14.8022 759 93.2543 1354.91 491.468
185 0 52.2159 14.6316 764 94.1348 1354.72 490.827
186 0 52.1784 14.9679 781 93.516 1354.33 491.305
187 0 55.2333 14.4478 798 94.5163 1354.09 489.817
188 0 54.2537 13.7686 747 97.4806 1354.18 488.578
189 0 55.2012 13.2787 733 98.8963 1353.94 486.663
190 0 60.1934 15.2675 919 95.5114 1353.61 485.049
191 0 61.2483 15.7066 962 94.5655 1353.86 483.69
192 0 63.2345 14.47 915 97.1082 1354.09 482.556
193 0 63.2495 13.9922 885 98.6 1355.01 481.945
194 0 66.2528 14.173 939 97.0426 1355.27 481.121
195 0 68.2973 14.349 980 96.3 1355.6 479.296
196 0 68.2929 14.3207 978 145.311 1356.58 479.291
197 1 39.1083 12.4526 487 93.0924 1356.51 495.901
198 0 40.1475 10.9596 440 94.4568 1356.92 496.791
199 0 40.0976 13.1429 527 91.685 1357.02 495.808
200 0 39.0493 11.3446 443 96.0316 1358.02 494.323
201 0 45.0389 13.2996 599 91.4574 1357.96 494.053
202 0 46.1334 15.8453 731 86.9261 1356.92 494.257
203 0 45.4174 14.0695 639 92.374 1355.98 493.823
204 0 47.2115 14.0432 663 92.7104 1356.71 493.08
205 0 46.3999 13.0388 605 96.4331 1357.07 492.317
206 0 50.4547 15.3801 776 92.8003 1357.49 490.133
207 0 50.2074 13.0857 657 96.8843 1356.4 491.119
208 0 55.3814 14.03 777 93.1068 1356.85 492.575
209 0 53.2879 13.474 718 96.6128 1355.64 491.302
210 0 56.3161 14.2943 805 95.9826 1355.1 489.641
211 0 57.154 14.3122 818 97.3741 1355.5 487.034
212 0 59.2055 14.1372 837 97.7539 1355.09 487.048
213 0 59.2055 14.171 839 130.765 1355.1 487.131
214 0 62.1955 14.2454 886 98.7731 1354.66 483.81
215 0 62.1955 14.2454 886 133.52 1354.65 483.816
216 0 62.1899 14.1341 879 133.321 1354.66 483.742
217 0 72.2127 15.4959 1119 95.9151 1354.55 482.16
218 0 73.1773 15.0183 1099 98.7616 1353.66 480.01
219 1 38.2481 12.4189 475 96.5432 1355.19 496.88
220 0 39.2784 10.3619 407 97.742 1355.85 498.415
221 0 41.1244 11.7692 484 95.6736 1355.71 498.006
222 0 40.0932 11.4733 460 100.287 1355.89 495.185
223 0 42.0653 12.3617 520 99.0519 1355.53 495.16
224 0 44.1085 11.4037 503 98.3181 1355.33 496.235
225 0 46.0366 14.3581 661 95.1831 1355.38 491.814
226 0 47.0397 13.3292 627 96.8262 1356.07 492.065
227 0 49.1083 12.727 625 97.8752 1356.31 491.458
228 0 50.0492 13.3469 668 95.771 1355.91 489.731
229 0 51.0697 13.648 697 95.6284 1355.67 489.704
230 0 53.0338 13.5762 720 96.2903 1356.7 487.964
231 0 57.04 15.3752 877 91.862 1356.15 488.547
232 0 56.0863 13.8893 779 95.0064 1356.57 488.768
233 0 58.1589 16.2486 945 92.763 1356.6 486.083
234 0 59.0989 13.8581 819 97.6081 1356.93 486.652
235 0 62.1068 14.1208 877 97.1311 1356.55 485.133
236 0 64.211 14.5147 932 97.6974 1356.38 483.416
237 0 65.4342 14.656 959 97.8561 1356.37 483.576
238 0 69.3404 15.3302 1063 95.6143 1356.23 482.436
239 0 70.1689 14.3368 1006 98.1352 1356.64 481.693
240 0 75.2352 14.7138 1107 96.57 1356.49 479.395
241 1 38.1081 11.4936 438 95.3128 1357.31 500.002
242 0 39.0628 12.1343 474 96.1793 1356.96 498.39
243 0 40.0313 11.6409 466 94.8927 1357.06 499.227
244 0 40.0304 12.3656 495 94.7253 1357.06 497.105
245 0 41.0252 11.5051 472 95.0424 1357.31 496.28
246 0 45.0464 15.3841 693 86.6811 1356.63 495.823
247 0 45.0464 15.3841 693 124.485 1355.61 495.831
248 0 46.2443 15.0937 698 87.0272 1354.65 495.265
249 0 47.5496 13.7541 654 89.078 1353.52 494.121
250 0 47.3507 13.2627 628 90.4682 1352.97 492.782
251 0 50.2222 14.2766 717 88.4282 1353.35 491.056
252 0 50.2222 14.2367 715 137.248 1352.35 490.952
253 0 53.3057 13.0755 697 91.5997 1353.71 490.874
254 0 54.2077 13.725 744 91.7675 1353.48 488.784
255 0 56.2185 14.1946 798 91.302 1353.84 487.209
256 0 60.2816 16.4229 990 87.3293 1354.04 485.927
257 0 61.2433 16.165 990 88.8384 1353.72 484.682
258 0 61.3605 13.7385 843 93.2539 1354.38 484.336
259 0 63.2027 15.3949 973 90.5036 1354.92 481.634
260 0 66.3241 16.7209 1109 87.5437 1355.25 481.146
261 0 67.2756 14.9088 1003 91.9262 1354.82 481.447
262 0 71.2813 14.576 1039 91.8826 1354.91 478.219
263 0 74.1733 16.6097 1232 88.3044 1355.29 478.043
264 0 74.1733 16.2457 1205 154.246 1355.31 477.685
265 1 40.2216 12.0085 483 91.4803 1357.17 495.079
266 0 42.2038 11.4208 482 89.5 1357.58 496.888
267 0 44.0571 13.7776 607 89.3904 1358.6 494.488
268 0 45.095 12.5291 565 90.7929 1358.84 494.742
269 0 47.0463 13.2635 624 92.0929 1358.18 492.71
270 0 48.3472 13.0721 632 91.5285 1356.24 493.228
271 0 49.1062 14.6621 720 88.8014 1357.49 493.608
272 0 53.1379 15.5068 824 86.7257 1357.39 492.716
273 0 53.0902 14.7485 783 89.7944 1356.63 491.897
274 0 55.0928 15.2289 839 89.0608 1357.09 492.409
275 0 57.1789 16.3347 934 86.7184 1356.95 491.59
276 0 56.0592 14.4312 809 91.7404 1356.67 489.957
277 0 61.1236 14.0699 860 90.1233 1356.6 489.415
278 0 61.0781 14.2604 871 90.9816 1355.92 489.534
279 0 61.0781 14.3914 879 140.641 1354.89 489.538
280 0 67.0832 15.6075 1047 87.361 1355.07 487.602
281 0 67.3719 13.9673 941 92.6748 1353.94 483.01
282 0 72.2941 16.2531 1175 87.063 1353.65 483.604
283 0 73.2686 15.0132 1100 90.9391 1352.91 480.351
284 0 74.2317 15.7749 1171 90.5687 1352.52 479.496
285 1 38.2007 12.382 473 90.0486 1353.67 497.729
286 0 40.0915 11.6733 468 92.5107 1353.44 496.628
287 0 38.1526 8.57084 327 96.211 1353.98 497.829
288 0 40.1722 11.0773 445 92.7191 1354.63 496.978
289 0 43.218 12.9807 561 92.0927 1354.06 493.884
290 0 44.3511 13.4157 595 89.7345 1354.27 494.551
291 0 47.3643 15.2435 722 84.856 1354.39 494.485
292 0 49.2827 15.6039 769 85.8752 1354.94 490.585
293 0 48.3608 14.6193 707 89.2716 1354.69 490.829
294 0 50.1725 14.2708 716 88.9623 1355.08 491.149
295 0 54.2492 14.9127 809 88.3968 1355.49 489.443
296 0 55.2521 15.2935 845 89.4071 1355.12 487.321
297 0 55.2459 14.1549 782 92.1419 1355.57 489.184
298 0 58.2278 16.3324 951 89.2723 1357.24 487.312
299 0 60.0963 15.1923 913 91.3987 1357.55 487.411
300 0 60.1161 15.1706 912 93.1009 1356.97 487.07
301 0 66.5649 16.9609 1129 88.2143 1357.62 489.052
302 0 67.1742 15.5417 1044 92.3209 1357.4 486.801
303 0 70.3386 16.2358 1142 91.444 1356.64 486.7
304 0 73.3224 16.4479 1206 91.4851 1356.87 484.007
305 0 74.4516 16.0373 1194 93.5369 1356.21 482.238
306 1 35.1942 10.4563 368 97.0435 1356.25 502.378
307 0 38.3456 11.5267 442 96.7624 1356.41 500.921
308 0 38.3456 11.4485 439 155.437 1356.43 500.977
309 0 42.4052 13.7247 582 92.7612 1356.12 499.498
310 0 43.2424 13.0659 565 94.1381 1354.61 499.834
311 0 43.2599 13.2686 574 94.7439 1353.89 498.78
312 0 46.2971 12.9166 598 95.1756 1353.75 497.283
313 0 48.1956 14.0469 677 92.6027 1353.87 497.459
314 0 50.2995 13.7576 692 92.646 1353.36 495.897
315 0 50.2974 13.7582 692 154.184 1353.38 496.036
316 0 53.201 15.2253 810 89.4753 1353.7 494.436
317 0 52.3592 15.852 830 91.6446 1353.02 490.945
318 0 56.2791 15.1566 853 92.8581 1352.51 489.261
319 0 56.2045 14.892 837 93.2067 1353.45 490.078
320 0 58.3841 15.1582 885 93.3616 1353.07 486.859
321 0 60.2309 14.1124 850 94.7224 1353.7 486.841
322 0 61.2396 14.6474 897 93.7191 1353.6 485.368
323 0 66.3653 16.4845 1094 90.8154 1354.3 483.264
324 0 68.2095 14.822 1011 93.3986 1355.03 482.699
325 0 68.4473 15.0188 1028 94.607 1356.32 481.853
326 0 73.4591 15.9 1168 92.0214 1356.47 481.245
327 0 76.184 15.0163 1144 94.6311 1356.86 480.386
328 1 40.2341 13.0984 527 92.3454 1358.16 497.875
329 0 43.173 14.4998 626 91.0974 1357.5 497.565
330 0 44.3283 12.43 551 95.6261 1357.82 497.138
331 0 46.2272 14.0826 651 93.0507 1358.4 495.853
332 0 47.2592 14.2829 675 93.5141 1357.78 495.973
333 0 46.3505 14.3472 665 94.1534 1357.76 494.598
334 0 49.2972 15.3761 758 92.8562 1357.59 494.711
335 0 49.3701 13.0646 645 97.1209 1357.96 495.766
336 0 52.3454 12.7614 668 97.1332 1357.85 494.669
337 0 55.4921 15.1733 842 93.2708 1357.39 494.876
338 0 55.1437 13.6008 750 97.896 1356.37 494.46
339 0 59.1838 12.4696 738 89.9011 1355.77 490.822
340 0 59.1321 14.6621 867 98.0588 1354.35 488.87
341 0 62.313 15.3419 956 95.9351 1354.44 487.617
342 0 62.313 15.3098 954 144.656 1353.46 487.534
343 0 65.4563 16.0871 1053 96.301 1354.59 485.128
344 0 66.2366 14.6596 971 99.4243 1353.98 484.346
345 0 71.3497 15.3049 1092 97.8095 1353.65 481.8
346 1 34.1188 10.5221 359 100.337 1354.43 500.181
347 0 36.3092 11.2919 410 100.715 1353.62 499.066
348 0 40.2202 11.8348 476 98.3004 1352.66 498.128
349 0 38.3818 11.8806 456 102.294 1352.92 496.502
350 0 41.3879 13.7721 570 97.1123 1353.27 496.782
351 0 42.0883 13.4004 564 94.6879 1353.95 497.52
352 0 43.0971 13.5044 582 97.2526 1353.35 494.053
353 0 43.2935 14.5056 628 95.9538 1353.6 494.325
354 0 44.3736 14.0849 625 97.5424 1355.09 494.712
355 0 45.2323 14.5029 656 97.6098 1355.12 493.625
356 0 48.1711 14.3239 690 99.0348 1356.63 492.004
357 0 50.3149 14.608 735 97.5184 1357.05 492.713
358 0 50.2119 15.335 770 97.2883 1357.11 490.799
359 0 52.2671 14.9425 781 97.3649 1357.3 492.488
360 0 54.3394 15.0535 818 98.055 1357.27 491.344
361 0 54.3394 15.1455 823 152.796 1356.26 491.309
362 0 59.1668 15.8873 940 95.6521 1357.86 489.944
363 0 58.1704 15.042 875 99.3337 1358.08 489.343
364 0 62.2344 15.2006 946 97.8467 1358.06 488.942
365 0 62.2308 14.3337 892 101.436 1358.09 487.77
366 0 67.2064 15.6384 1051 97.2103 1358.03 488.286
367 0 68.1796 16.2219 1106 97.8101 1356.91 485.448
368 0 69.1686 14.761 1021 102.332 1356.38 485.633
369 0 73.2277 14.7622 1081 101.54 1355.93 486.027
370 0 73.2372 16.1803 1185 100.336 1355.57 483.679
371 1 40.0485 11.3113 453 105.503 1355.99 499.362
372 0 43.1045 12.7829 551 101.574 1354.87 500.08
373 0 44.142 11.7575 519 103.083 1354.51 498.586
374 0 44.1019 12.7432 562 103.865 1353.59 496.635
375 0 48.1374 14.9156 718 99.961 1353.12 495.214
376 0 49.0694 16.0996 790 96.9759 1352.95 492.995
377 0 51.0667 14.3734 734 99.9223 1352.54 492.707
378 0 52.1446 15.1693 791 101.005 1351.7 490.654
379 0 53.0362 15.0086 796 101.176 1353.06 490.474
380 0 56.0328 16.0977 902 98.5455 1353.49 489.578
381 0 56.2581 14.2913 804 102.336 1353.09 488.757
382 0 58.2345 15.6608 912 98.8695 1353.4 486.76
383 0 60.1928 15.4005 927 100.279 1353.81 485.924
384 0 64.15 14.9026 956 100.84 1355.35 486.052
385 0 64.1931 15.8272 1016 99.8543 1355.36 485.039
386 0 65.13 15.707 1023 101.426 1355.9 481.637
387 1 37.06 12.3314 457 100.05 1356.96 498.74
388 0 37.083 12.1349 450 101.089 1357.52 499.269
389 0 36.0217 9.99398 360 107.178 1358 498.978
390 0 37.0761 10.9504 406 106.308 1357.52 498.323
391 0 41.0409 14.0104 575 101.332 1358.12 496.816
392 0 43.073 14.3477 618 100.511 1357.77 497.405
393 0 44.1485 13.749 607 102.145 1358.43 496.142
394 0 46.167 14.1876 655 102.012 1358.06 496.602
395 0 47.2964 15.8575 750 100.743 1357.66 496.16
396 0 49.1481 14.3851 707 103.233 1357.72 496.079
397 0 51.1194 16.2365 830 100.057 1357.24 495.34
398 0 54.2401 15.7817 856 100.543 1356.76 496.513
399 0 54.1484 16.1224 873 101.887 1356.08 493.702
400 0 57.169 16.7573 958 99.9875 1356.4 493.239
401 0 57.2593 15.0543 862 104.466 1355.55 492.113
402 0 59.2361 16.0544 951 137.474 1354.56 490.717
403 0 64.1705 16.8925 1084 101.368 1355.02 487.064
404 0 67.2055 15.5791 1047 103.881 1354.83 486.783
405 0 70.2328 16.4026 1152 103.016 1354.43 485.042
406 0 72.174 16.0169 1156 104.702 1354.34 484.17
407 1 37.111 11.9102 442 107.593 1354.59 500.002
408 0 38.0663 11.9791 456 108.884 1354.59 498.281
409 0 40.0516 13.158 527 105.118 1354.81 497.977
410 0 41.0241 12.5048 513 108.417 1354.12 496.975
411 0 44.132 14.0714 621 104.29 1353.72 495.528
412 0 43.2306 13.2776 574 107.629 1353.47 492.974
413 0 45.118 14.1407 638 107.987 1353.64 492.208
414 0 47.0256 14.9068 701 106.455 1354.39 490.332
415 0 50.0731 15.5373 778 104.501 1354.76 490.701
416 0 50.054 15.3834 770 106.108 1355.85 490.739
417 0 49.0544 14.2902 701 110.769 1356 490.187
418 0 54.0466 16.5783 896 103.846 1357.31 489.192
419 0 54.1261 15.741 852 107.295 1358.29 488.365
420 0 56.1573 15.4744 869 109.25 1359.47 487.925
421 0 59.0332 15.703 927 108.102 1359.74 487.923
422 0 61.0478 17.1014 1044 106.165 1359.71 487.308
423 0 63.0737 15.6483 987 110.931 1360.17 485.978
424 0 65.1031 16.374 1066 109.568 1359.66 486.38
425 0 68.0403 15.6819 1067 111.598 1360.1 485.273
426 0 72.0547 16.0017 1153 110.376 1359.99 484.807
427 0 73.1604 15.1448 1108 112.926 1358.7 483.78
428 0 77.0812 16.9691 1308 108.101 1358.04 483.661
429 0 80.3406 15.733 1264 111.057 1357.04 482.541
430 0 82.2192 16.8574 1386 110.063 1356.33 479.602
431 1 44.0857 13.1335 579 109.931 1355.34 499.29
432 0 43.2027 11.8048 510 114.086 1354.89 498.125
433 0 47.2972 12.9817 614 111.953 1354.86 496.461
434 0 48.194 14.5661 702 110.607 1353.93 493.369
435 0 49.218 16.0917 792 106.922 1352.92 492.229
436 0 53.1638 16.3081 867 103.932 1352.83 492.333
437 0 54.3713 15.8172 860 105.58 1352.47 491.95
438 0 56.2532 16.6746 938 105.614 1351.62 489.599
439 0 58.1604 15.7324 915 107.364 1352.16 488.831
440 0 60.1064 15.9384 958 106.051 1351.73 487.404
441 0 61.158 14.7487 902 108.97 1352.19 486.551
442 0 61.158 14.6833 898 163.111 1353.19 486.528
443 0 66.2254 15.568 1031 110.314 1352.33 481.949
444 0 70.2187 16.6195 1167 108.547 1353.07 480.273
445 0 74.198 16.1595 1199 107.481 1353.56 481.469
446 0 73.0485 14.9627 1093 113.128 1354.93 479.113
447 0 79.1862 16.0129 1268 108.566 1355.62 479.703
448 1 39.3302 13.018 512 106.982 1357.59 498.158
449 0 39.1496 13.2058 517 109.544 1359.1 497.911
450 0 39.1295 14.7715 578 107.363 1359.3 496.848
451 0 44.2331 14.4236 638 103.632 1360.02 498.586
452 0 42.2005 13.5543 572 107.016 1360.69 499.283
453 0 45.2167 13.9329 630 104.752 1360.99 498.452
454 0 46.1907 14.0721 650 104.845 1360.16 497.563
455 0 46.1907 13.9855 646 148.918 1360.16 497.667
456 0 49.2102 14.0621 692 104.85 1359.08 498.227
457 0 52.1925 14.3316 748 105.481 1358.4 496.701
458 0 52.3093 15.3892 805 103.108 1358.19 496.319
459 0 54.1964 14.8349 804 103.357 1357.26 495.642
460 0 56.1037 14.2771 801 104.135 1357.09 495.017
461 0 60.2098 15.2799 920 101.905 1356.37 493.473
462 0 59.1374 13.9844 827 106.36 1355.5 492.231
463 0 62.2389 15.1834 945 103.85 1354.38 489.048
464 0 62.2389 15.2156 947 147.898 1352.39 488.978
465 0 67.1445 15.8315 1063 102.584 1352.97 484.846
466 0 68.1474 14.6594 999 143.844 1355.02 485.992
467 0 71.1934 14.9592 1065 104.844 1352.17 483.653
468 0 75.344 15.6748 1181 103.577 1351.46 479.639
469 0 77.3634 16.4419 1272 103.88 1351.01 477.266
470 0 80.2053 14.6998 1179 106.577 1350.88 477.018
471 0 83.3258 14.9054 1242 105.816 1352.07 473.88
472 1 42.0815 12.7372 536 104.351 1352.98 494.179
473 0 45.2309 13.8843 628 101.244 1353.21 493.947
474 0 44.1392 12.0528 532 107.635 1354.44 492.953
475 0 46.0359 13.0116 599 105.533 1354.89 492.649
476 0 51.1478 14.9762 766 99.5222 1355.38 491.876
477 0 50.0728 13.9796 700 101.89 1356.88 490.314
478 0 53.1557 15.8026 840 96.7893 1358.3 490.631
479 0 56.1218 15.3951 864 98.5185 1359.68 489.466
480 0 57.161 15.3076 875 100.041 1360.01 490.546
481 0 59.2279 16.3099 966 99.0093 1360.58 488.816
482 0 63.0965 14.9929 946 101.829 1361.29 489.077
483 0 66.2756 15.2243 1009 101.931 1361.38 489.457
484 0 67.4662 16.2896 1099 100.555 1361.37 489.164
485 0 69.1225 15.6534 1082 103.17 1360.42 488.726
486 0 73.4785 15.5556 1143 101.822 1360.16 488.27
487 0 75.1994 16.9416 1274 99.9082 1359.03 485.868
488 0 78.1519 17.4788 1366 97.3616 1358.47 486.641
489 0 80.2301 15.4182 1237 101.289 1357.28 486.214
490 0 83.2553 15.3984 1282 101.6 1356.25 481.404
491 1 44.0824 12.4313 548 99.3431 1356.01 502.168
492 0 43.1779 11.0936 479 102.173 1355.41 500.09
493 0 48.0985 13.2852 639 97.4116 1354.7 497.679
494 0 51.2844 12.5769 645 98.2016 1354.56 496.653
495 0 51.1895 14.0849 721 95.215 1353.83 494.114
496 0 54.4498 14.0864 767 95.6193 1353.2 492.677
497 0 57.3884 16.3622 939 92.3046 1352.09 488.69
498 0 56.2103 14.5881 820 96.8146 1351.51 487.968
499 0 60.2756 15.7941 952 94.3655 1351.49 486.264
500 0 62.1145 14.9402 928 95.8534 1351.36 485.485
501 0 65.1313 17.0886 1113 92.92 1352.18 481.893
502 0 65.0587 15.9395 1037 95.7175 1353.15 482.365
503 0 69.332 15.8368 1098 95.8743 1353.48 480.737
504 0 72.4757 15.5638 1128 97.2677 1354.61 477.72
505 0 74.3531 15.8433 1178 96.7513 1356.19 477.351
506 0 77.2191 16.2395 1254 95.8397 1358.11 476.599
507 1 41.2588 13.888 573 94.7435 1358.36 497.065
508 0 40.1642 10.4073 418 101.1 1360.49 497.988
509 0 42.2676 12.1369 513 99.1326 1361.96 497.193
510 0 41.2101 12.4241 512 139.953 1362.97 497.154
511 0 47.2681 14.0052 662 96.5302 1363.25 498.453
512 0 48.134 15.5815 750 96.3747 1363.26 496.196
513 0 51.3148 14.4208 740 97.6635 1362.43 497.397
514 0 52.2283 14.9153 779 98.0603 1361.8 496.987
515 0 54.4001 14.7978 805 100.098 1360.74 496.743
516 0 57.3218 14.8111 849 101.706 1359.45 497.206
517 0 57.3218 14.9332 856 142.771 1357.47 497.21
518 0 60.3127 14.5575 878 100.059 1356.13 494.39
519 0 67.3103 18.3627 1236 90.7387 1355.38 493.731
520 0 68.5216 16.6809 1143 94.6912 1353.5 491.98
521 1 35.392 12.7995 453 99.1479 1352.51 503.914
522 0 35.3813 12.7468 451 98.7871 1351.49 504.541
523 0 37.4566 12.0673 452 98.2013 1350.44 505.051
524 0 38.6298 12.8398 496 99.1048 1349.07 503.22
525 0 41.3473 14.8982 616 95.1997 1348.65 501.894
526 0 43.2933 14.1361 612 97.0033 1347.83 501.261
527 0 44.0991 15.2384 672 96.8899 1347.17 500.079
528 0 47.1428 16.3758 772 93.8705 1346.34 498.918
529 0 47.3402 15.4625 732 97.1872 1346.16 496.693
530 0 47.1585 15.6281 737 98.4735 1346.7 493.859
531 0 50.3823 15.6206 787 96.6391 1347.35 493.052
532 0 54.2665 16.7138 907 93.1191 1348.3 493.033
533 0 53.4137 15.5391 830 98.4229 1349.32 490.417
534 0 54.4748 17.8982 975 95.0215 1350.82 489.984
535 0 56.3461 17.0908 963 97.1412 1352.33 489.936
536 0 56.3461 17.1263 965 158.495 1354.34 489.969
537 0 61.7301 16.1348 996 99.0512 1354.58 492.164
538 0 65.5611 16.0766 1054 99.4905 1355.99 492.34
539 0 65.2484 16.7207 1091 101.38 1356.42 490.856
540 0 69.6066 16.2485 1131 102.18 1356.59 491.452
541 0 72.5277 17.4002 1262 100.867 1355.86 491.614
542 0 73.7452 16.0146 1181 104.82 1356.7 491.49
543 0 78.8415 16.4507 1297 103.978 1355.52 489.675
544 0 78.8415 16.4507 1297 156.243 1353.52 489.595
545 0 85.5123 16.6994 1428 103.2 1352.52 485.855
546 0 89.5878 15.616 1399 104.658 1350.66 483.535
547 0 92.5137 17.2083 1592 101.582 1350.28 481.573
548 0 95.6114 16.4416 1572 102.501 1349.64 479.887
549 0 98.7412 16.0926 1589 102.957 1348.33 477.092
550 1 55.5279 12.12 673 102.092 1346.65 498.373
551 0 56.2781 12.6692 713 101.391 1346.18 496.95
552 0 58.1764 13.9919 814 99.5688 1345.93 493.206
553 0 61.264 15.3434 940 95.6734 1345.24 491.75
554 0 61.2015 13.8886 850 100.12 1345.24 489.226
555 0 65.1588 14.9788 976 97.376 1345.27 487.498
556 0 69.2466 15.0043 1039 97.2512 1344.53 484.156
557 0 69.2897 14.6486 1015 99.1153 1345.1 482.007
558 0 73.3478 14.5608 1068 99.2191 1345.17 480.586
559 0 73.3478 14.5335 1066 149.538 1345.17 480.598
560 0 78.575 15.2084 1195 99.7983 1346.89 476.422
561 0 80.2537 15.5382 1247 100.46 1348.11 472.094
562 0 80.2537 15.5632 1249 145.984 1349.08 472
563 0 88.5631 15.3789 1362 100.362 1351.74 472.164
564 1 44.3459 10.5083 466 99.1245 1354.03 494.938
565 0 45.2337 9.97044 451 97.5543 1355.92 496.608
566 0 48.1022 10.7895 519 96.7399 1357.96 495.2
567 0 49.2731 10.1881 502 97.01 1358.89 497.153
568 0 50.2968 11.5912 583 95.9091 1359.02 495.674
569 0 55.6262 13.4109 746 92.6957 1358.48 495.202
570 0 57.2796 14.3507 822 94.0219 1360 495.724
571 0 59.3734 15.832 940 92.4649 1358.79 495.18
572 0 62.2179 15.7672 981 92.6381 1357.78 496.333
573 0 62.2179 15.7672 981 146.341 1355.76 496.268
574 0 66.6871 13.9907 933 98.6785 1354.79 494.923
575 0 66.6871 14.0657 938 152.71 1353.82 494.967
576 0 74.426 15.3441 1142 97.1821 1351.88 491.215
577 0 74.2875 13.6901 1017 102.172 1351.18 489.383
578 0 78.6028 14.5542 1144 100.474 1349.69 486.965
579 0 81.4234 15.8308 1289 97.7564 1348.82 486.661
580 0 85.7411 16.5382 1418 96.9937 1347.49 483.212
581 0 88.5582 15.583 1380 98.9457 1346.91 480.183
582 1 43.4752 11.7078 509 100.503 1347.42 500.758
583 0 46.4799 12.3064 572 98.8024 1346.74 497.939
584 0 46.3698 12.0984 561 99.5971 1346.56 497.057
585 0 49.472 11.6227 575 98.5878 1345.93 496.431
586 0 50.3107 12.7011 639 97.9546 1346.47 494.541
587 0 51.2624 12.2312 627 97.7368 1346.81 492.329
588 0 52.3438 12.9528 678 97.1136 1347.44 490.659
589 0 55.4517 12.3351 684 96.5556 1347.29 490.159
590 0 57.1819 13.221 756 95.2209 1348.24 486.78
591 0 60.2052 14.1682 853 92.959 1348.83 487.688
592 0 63.1991 13.9084 879 92.6462 1351.12 485.853
593 0 66.5683 13.55 902 93.1319 1353.61 487.267
594 0 69.6322 14.8494 1034 91.7292 1355.55 484.713
595 0 71.4499 14.0938 1007 92.6862 1356.82 485.575
596 0 73.5522 13.4462 989 94.5814 1358.54 484.606
597 1 41.2201 11.2566 464 94.2457 1360.58 502.571
598 0 43.2788 11.5992 502 92.2928 1360.51 504.498
599 0 44.4335 10.3976 462 93.6645 1360.25 504.907
600 0 46.2366 10.3814 480 94.1125 1358.5 505.867
601 0 48.2123 13.3369 643 91.8118 1356.16 505.61
602 0 50.059 13.7837 690 89.271 1356.44 506.212
603 0 53.1817 13.8205 735 88.8884 1354.74 508.042
604 0 55.1915 13.8065 762 87.8517 1353.76 504.795
605 0 57.1357 13.8792 793 88.8752 1351.64 505.546
606 0 59.1906 13.0764 774 90.6047 1349.99 504.983
607 0 62.4606 13.9928 874 88.9794 1349.3 502.251
608 0 63.278 12.9271 818 91.1858 1347.9 503.551
609 0 63.278 12.8323 812 135.346 1346.9 503.568
610 0 69.3476 14.4634 1003 89.1675 1344.51 499.718
611 0 72.2185 14.9408 1079 88.7257 1344.04 498.911
612 0 73.3457 13.4977 990 91.798 1342.69 495.168
613 1 41.1491 9.55064 393 90.9389 1341.14 513.356
614 0 38.1481 9.51555 363 136.179 1340.15 514.083
615 0 41.0899 11.3166 465 87.7828 1339.93 510.097
616 0 44.1361 10.7848 476 88.6534 1339.32 507.168
617 0 44.1511 11.37 502 87.2908 1339.87 506.827
618 0 46.0455 12.379 570 87.4035 1339.98 502.444
619 0 47.3412 12.4838 591 83.7394 1341.87 503.736
620 0 47.3412 12.4838 591 123.475 1343.87 503.736
621 0 50.3194 13.4143 675 83.2681 1344.89 503.791
622 0 53.1874 13.3302 709 83.5515 1345.87 503.138
623 0 54.3015 14.0512 763 83.5269 1347.97 502.228
624 0 56.4625 14.6823 829 83.1568 1349.69 502.951
625 0 56.3058 14.4035 811 84.9642 1350.37 501.39
626 0 59.1975 15.0851 893 84.4972 1350.42 501.004
627 0 62.2724 14.2439 887 86.3596 1350.69 501.912
628 0 66.2137 13.7736 912 87.9002 1349.8 501.036
629 0 67.1713 15.2595 1025 87.2946 1350 501.667
630 0 69.2448 14.1671 981 91.6922 1349.17 500.712
631 0 74.0813 14.2006 1052 91.8165 1348.94 501.484
632 0 78.1978 15.1283 1183 90.5816 1347.85 501.478
633 0 82.1635 14.9336 1227 91.6308 1347.02 501.601
634 1 42.0282 12.0395 506 96.2055 1345.68 519.66
635 0 43.1484 13.4883 582 93.921 1344.23 518.01
636 0 44.2378 14.0378 621 94.0419 1342.53 517.23
637 0 46.1995 13.5932 628 94.4076 1342.19 517.099
638 0 50.2718 15.6947 789 90.6831 1339.35 515.01
639 0 51.1962 13.8487 709 95.7419 1339.35 512.88
640 0 53.1543 14.9753 796 92.9221 1339.05 511.116
641 0 55.3361 15.1077 836 93.384 1338.54 509.334
642 0 56.1228 15.6086 876 92.9692 1338.08 507.36
643 0 57.2617 14.0408 804 96.3582 1338.09 505.259
644 0 61.4011 15.5046 952 95.459 1338.67 503.567
645 0 63.2862 15.8328 1002 97.023 1339.78 501.981
646 0 66.2566 17.5982 1166 92.9005 1340.85 501.702
647 0 68.3051 18.4174 1258 91.7615 1342.11 499.367
648 0 68.3051 18.3881 1256 155.24 1344.12 499.303
649 1 40.0874 11.7493 471 98.4777 1345.11 516.257
650 0 36.022 10.7434 387 103.641 1347.26 516.121
651 0 41.0591 14.7592 606 98.1419 1348.2 512.305
652 0 42.0221 14.6113 614 98.4609 1349.06 513.218
653 0 42.1236 14.0539 592 100.943 1349.93 513.209
654 0 45.2786 15.0844 683 100.122 1349.82 512.277
655 0 48.1336 15.2492 734 100.192 1350 512.514
656 0 48.3119 14.7376 712 106.006 1349.29 512.801
657 0 49.2934 16.5742 817 102.994 1348.93 513.862
658 0 50.2043 15.2576 766 109.431 1349.35 512.91
659 0 53.3511 16.0634 857 108.739 1348.81 511.608
660 0 55.2941 15.4085 852 109.478 1348.52 513.806
661 0 58.2663 16.2873 949 109.107 1347.92 510.856
662 0 60.1519 16.8407 1013 109.658 1346.35 507.41
663 0 62.2092 15.8497 986 113.001 1345.56 506.424
664 0 65.2216 15.7616 1028 112.322 1344.87 505.771
665 1 33.1338 12.9475 429 117.45 1345.94 519.35
666 0 36.042 13.0126 469 113.296 1345.33 518.079
667 0 36.1523 12.9452 468 117.925 1343.92 515.694
668 0 37.0582 13.0066 482 118.241 1342.99 513.539
669 0 39.3905 13.8866 547 115.901 1343.03 511.718
670 0 40.1932 13.4351 540 118.541 1342.71 509.404
671 0 42.1394 15.1165 637 116.177 1342.73 507.765
672 0 41.083 14.5559 598 120.816 1343.07 504.908
673 0 46.1285 15.7386 726 115.466 1344.09 502.81
674 0 44.1331 15.0001 662 121.402 1343.14 503.213
675 0 46.2794 15.2552 706 119.656 1343.9 502.208
676 0 48.2809 16.4454 794 117.62 1344.87 500.016
677 0 48.3816 15.6671 758 119.648 1346.01 500.268
678 0 51.2698 15.9743 819 118.232 1346.91 498.891
679 0 52.2413 16.2898 851 116.278 1349.86 499.523
680 0 53.2027 16.0706 855 117.451 1351.9 497.915
681 0 55.3037 16.4546 910 115.992 1353.33 499.232
682 0 59.1636 17.4263 1031 112.895 1355.27 499.492
683 0 62.1147 17.5643 1091 111.875 1356.23 498.435
684 0 64.228 16.1767 1039 115.558 1356.37 496.89
685 0 68.2005 16.2902 1111 114.11 1356.88 498.425
686 0 71.1091 17.2833 1229 113.937 1356.92 496.368
687 0 71.1496 16.4583 1171 118.184 1355.46 496.061
688 1 37.0268 13.7468 509 118.635 1354.81 514.426
689 0 40.1112 14.2105 570 119.867 1354.01 513.025
690 0 39.0932 14.734 576 120.762 1352.88 511.924
691 0 42.2784 14.3335 606 121.734 1351.99 509.668
692 0 46.0868 16.5557 763 114.412 1350.36 507.547
693 0 46.1468 16.4692 760 113.754 1349.69 507.286
694 0 50.1676 15.508 778 114.414 1348.72 504.108
695 0 50.2761 16.3696 823 113.245 1347.48 500.836
696 0 52.214 15.9344 832 113.559 1346.5 498.647
697 0 55.1155 18.1981 1003 108.187 1345.95 494.628
698 0 57.1687 16.6875 954 110.96 1346.09 493.923
699 0 59.248 17.3508 1028 109.005 1346.66 490.41
700 0 62.1939 16.8988 1051 108.978 1347.2 488.635
701 0 66.1585 16.4907 1091 107.852 1347.63 487.81
702 0 67.1974 16.7566 1126 107.625 1348.8 485.29
703 0 68.8485 15.6576 1078 109.935 1349.3 482.861
704 0 70.2853 18.5387 1303 104.61 1348.75 480.499
705 0 74.2873 18.4554 1371 103.376 1350.23 480.551
706 0 77.5024 17.8188 1381 103.484 1351.07 479.29
707 0 81.2967 17.5653 1428 103.754 1352.73 478.81
708 1 39.2926 13.6921 538 111.649 1355.91 496.855
709 0 39.1811 13.4504 527 111.655 1357.93 498.668
710 0 42.1 15.962 672 109.202 1360.01 496.874
711 0 44.1233 16.8392 743 106.077 1361.34 498.182
712 0 46.1134 16.8931 779 106.062 1362.22 497.719
713 0 50.1027 17.0051 852 104.56 1361.81 497.417
714 0 53.2351 18.5404 987 100.831 1362.37 497
715 0 55.2744 18.381 1016 102.575 1360.96 496.606
716 0 57.2724 17.3556 994 105.115 1360.26 496.666
717 0 61.1115 17.9835 1099 103.944 1359.26 496.079
718 0 61.3853 17.496 1074 107.009 1358 494.818
719 0 67.3448 18.4276 1241 103.528 1356.59 493.707
720 0 70.2719 17.4465 1226 105.379 1354.63 491.905
721 1 36.1299 16.3576 591 106.758 1353.61 506.958
722 0 39.1902 14.3148 561 106.203 1351.98 506.733
723 0 39.3636 14.4804 570 107.439 1350.81 505.351
724 0 39.3641 14.5818 574 105.716 1349.16 505.491
725 0 40.0822 16.8903 677 105.448 1348.24 502.188
726 0 42.1686 17.7146 747 104.621 1347.43 499.447
727 0 44.1022 17.9129 790 102.22 1347.38 498.622
728 0 45.1409 17.3457 783 104.628 1346.17 495.789
729 0 47.5512 17.1604 816 103.319 1346.93 495.134
730 0 51.2897 19.3801 994 97.8189 1347.53 493.518
731 0 53.159 18.1719 966 99.8178 1346.9 490.214
732 0 54.3414 18.715 1017 99.0059 1346.62 490.675
733 0 57.1791 16.8593 964 102.399 1348.45 489.868
734 0 59.2115 17.6655 1046 101.874 1349.42 488.732
735 0 63.1312 18.216 1150 100.935 1351.57 488.516
736 0 63.3355 19.2309 1218 100.235 1353.18 489.36
737 0 67.2383 18.2485 1227 101.457 1355.06 489.688
738 0 70.1741 17.1288 1202 104.906 1356.7 488.65
739 1 33.0601 16.4851 545 107.576 1357.97 506.572
740 0 37.1382 15.7789 586 107.903 1358.9 508.271
741 0 38.4214 17.1519 659 106.785 1359.21 508.642
742 0 40.0719 19.2155 770 104.409 1358.55 509.818
743 0 41.1732 18.5072 762 108.169 1357 508.399
744 0 45.4235 18.4046 836 106.855 1355.63 508.744
745 0 46.1971 18.5077 855 109.413 1354.49 509.961
746 0 49.207 20.4036 1004 106.834 1352.75 507.558
747 0 51.5831 17.622 909 113.485 1351.35 507.803
748 0 53.5828 18.3641 984 114.125 1349.93 506.477
749 0 58.2784 19.6642 1146 110.826 1347.57 505.144
750 0 60.2105 18.6014 1120 115.494 1345.44 502.461
751 0 61.2865 17.7364 1087 119.758 1344.78 500.426
752 0 65.5107 19.3251 1266 116.25 1344.35 498.06
753 0 65.2352 18.2724 1192 121.499 1343.25 496.33
754 1 34.3325 16.4567 565 120.611 1344.35 512.037
755 0 33.1775 16.3364 542 122.057 1344.67 510.507
756 0 35.1498 17.1551 603 122.72 1344.28 508.408
757 0 33.2691 17.9145 596 125.089 1343.52 507.525
758 0 35.4069 18.0191 638 122.611 1344.46 505.368
759 0 37.0381 18.9804 703 121.528 1344.41 504.876
760 0 39.5378 17.3252 685 124.347 1345.54 504.22
761 0 39.2816 18.1765 714 123.265 1346.95 503.906
762 0 41.2139 18.1977 750 123.215 1347.56 503.384
763 0 42.2473 19.1728 810 122.295 1349.22 503.18
764 0 44.2883 19.3731 858 123.112 1352.33 501.682
765 0 46.2554 18.2249 843 126.244 1353.23 503.075
766 0 47.1129 20.5464 968 123.926 1355.46 502.938
767 0 49.1639 18.8553 927 128.211 1356.97 503.227
768 0 53.3922 20.6023 1100 121.486 1357.7 503.329
769 0 53.3863 20.361 1087 126.46 1357.62 502.592
770 0 55.2931 18.845 1042 131.047 1356.93 503.524
771 0 57.1694 19.381 1108 130.275 1356.47 502.702
772 0 59.4147 18.8842 1122 132.56 1356.05 502.345
773 0 63.309 21.0713 1334 127.307 1354.93 502.783
774 0 65.3363 19.0399 1244 127.212 1353.61 501.17
775 0 67.2127 19.2821 1296 116.144 1352.24 502.032
776 0 73.3969 20.6276 1514 109.901 1350.87 498.18
777 0 76.5307 19.2733 1475 112.562 1348.54 493.637
778 1 36.3936 17.4207 634 113.647 1346.44 512.257
779 0 38.4961 17.2225 663 111.992 1345.86 511.968
780 0 38.2965 18.9574 726 110.253 1344.38 509.448
781 0 43.5047 19.4921 848 106.36 1343.86 507.236
782 0 45.6003 19.8683 906 104.916 1343.88 505.99
783 0 45.3062 18.9378 858 108.978 1344.33 504.186
784 0 48.7052 20.1621 982 104.176 1344.07 503.87
785 0 50.656 19.2475 975 105.934 1343.79 502.558
786 0 48.4572 19.316 936 109.996 1343.59 499.488
787 0 52.4886 19.3185 1014 106.73 1344.25 499.612
788 0 52.4065 19.5777 1026 108.711 1345.33 499.055
789 0 55.4451 18.7393 1039 109.373 1346.94 498.871
790 0 56.7132 20.1717 1144 106.83 1349.63 498.719
791 0 58.3907 20.4142 1192 107.216 1350.91 497.512
792 0 60.4383 20.1031 1215 108.732 1352.81 498.2
793 0 62.4776 19.9271 1245 108.788 1354.14 498.258
794 0 66.3311 20.7293 1375 106.593 1355.36 499.131
795 0 67.4109 19.6111 1322 109.029 1356.08 499.6
796 0 71.4521 19.4536 1390 111.48 1356.04 497.953
797 0 75.4862 18.4934 1396 110.948 1355.62 497.691
798 0 79.5546 19.7349 1570 110.078 1354.82 495.539
799 1 47.523 15.7397 748 113.575 1354.06 513.989
800 0 47.6296 17.2162 820 114.665 1351.94 513.098
801 0 49.3172 16.5459 816 114.49 1350.14 512.569
802 0 52.563 18.6253 979 110.527 1348.88 509.056
803 0 54.5568 19.0627 1040 110.093 1346.92 508.373
804 0 58.8343 19.4614 1145 108.321 1345.17 506.418
805 0 60.4793 18.866 1141 110.798 1343.69 503.273
806 0 62.515 20.1711 1261 107.872 1342.87 501.891
807 0 64.2676 18.9209 1216 109.85 1341.8 500.384
808 0 65.5061 18.5021 1212 115.577 1342.09 496.639
809 0 70.2636 18.7579 1318 112.626 1342.29 495.404
810 0 69.5912 18.2351 1269 114.861 1342.09 493.387
811 0 73.2998 18.9905 1392 113.565 1342.72 488.923
812 0 76.3289 19.678 1502 113.075 1342.69 488.349
813 0 77.4322 19.4234 1504 112.019 1343.15 487.894
814 0 81.4532 18.5014 1507 112.657 1344.05 483.192
815 0 82.6055 17.7954 1470 114.029 1344.88 481.854
816 0 86.5655 18.2521 1580 111.586 1346.36 481.799
817 1 46.3005 14.2763 661 107.921 1348.84 498.442
818 0 46.1717 14.9875 692 105.955 1349.89 499.659
819 0 44.0578 13.6866 603 109.307 1352.78 498.604
820 1 28.1123 10.1379 285 92.3404 1353.47 512.295
821 0 29.0439 10.7768 313 95.4313 1355.49 511.978
822 0 31.0481 10.1777 316 97.1392 1356.47 513.864
823 0 30.0916 10.0692 303 98.8119 1356.78 514.168
824 0 29.0148 9.96043 289 99.5156 1355.57 514.813
825 0 31.0705 11.6831 363 98.8457 1354.26 514.35
826 0 35.0809 11.2027 393 97.3817 1353.87 515.934
827 0 35.0652 12.1203 425 99.3388 1353.14 513.965
828 0 37.0308 11.6389 431 99.2506 1351.67 515.543
829 0 36.2628 12.7403 462 102.288 1350.02 515.169
830 0 34.1832 11.4676 392 108.788 1348.46 513.656
831 0 40.4804 13.5374 548 101.217 1347.5 509.555
832 0 43.2678 13.0813 566 102.569 1346.86 508.198
833 0 42.194 14.5281 613 102.034 1346.49 507.55
834 0 44.3496 14.4759 642 101.509 1345.53 504.321
835 0 44.2045 13.7769 609 102.639 1345.53 504.778
836 0 45.2332 13.8836 628 101.71 1345.01 504.758
837 0 47.3146 14.3085 677 99.2688 1345.75 501.056
838 0 49.3262 12.914 637 99.0502 1345.19 501.584
839 0 48.4361 12.6558 613 100.946 1345.63 499.142
840 1 26.1309 11.4424 299 94.5351 1345.7 512.856
841 0 25.2199 10.9834 277 96.8303 1346.52 511.827
842 0 27.0971 12.9903 352 94.892 1347.11 511.466
843 0 27.4459 9.9104 272 98.7316 1348.84 512.842
844 0 29.5032 11.4564 338 96.8669 1350.98 513.062
845 0 31.5299 13.6379 430 91.5907 1352.95 511.842
846 0 31.4038 11.4954 361 97.2964 1354.52 514.003
847 0 29.3267 11.7299 344 99.7645 1356.17 514.884
848 0 31.2356 11.6214 363 102.449 1356.74 516.234
849 0 33.1093 11.2657 373 104.185 1357.4 517.584
850 0 33.1515 12.2166 405 105.18 1357.53 517.225
851 0 36.3106 13.4947 490 100.282 1357.44 516.92
852 0 34.3278 11.3902 391 107.841 1355.23 518.286
853 0 37.3599 12.2324 457 104.136 1354.11 518.315
854 0 40.4625 12.5054 506 101.802 1352.36 517.852
855 0 40.3424 11.9973 484 105.89 1350.67 517.667
856 0 44.3638 12.1721 540 100.78 1348.21 516.098
857 0 45.6011 13.3111 607 101.293 1347.37 512.786
858 0 45.3774 12.7156 577 100.711 1345.66 514.045
859 0 46.4325 12.1897 566 102.345 1343.97 511.617
860 0 47.5995 12.185 580 101.678 1343.06 508.483
861 0 48.6945 12.0753 588 101.622 1342.03 508.214
862 0 57.7642 13.7455 794 95.8275 1342.35 499.963
863 0 57.452 13.7506 790 97.0089 1342.7 498.966
864 0 60.7539 14.6822 892 95.4002 1342.87 495.466
865 0 63.6129 13.928 886 97.2709 1342.45 493.183
866 1 30.4542 7.45381 227 103.304 1344.35 509.947
867 0 34.4607 12.6811 437 91.7918 1344.14 507.057
868 0 34.478 10.9925 379 96.1979 1343.65 505.077
869 0 36.1918 12.8482 465 91.0796 1345.56 506.632
870 0 36.21 12.5656 455 94.556 1346.3 505.774
871 0 39.1743 13.8356 542 93.738 1347.92 504.646
872 0 41.098 14.5992 600 93.6333 1349.94 504.013
873 0 43.1112 13.6855 590 97.2153 1351.06 503.769
874 0 47.4269 14.5276 689 92.611 1352.6 502.556
875 0 48.7056 14.7006 716 93.2989 1354.01 501.317
876 0 50.4234 15.7268 793 91.0038 1355.77 500.863
877 0 49.324 13.8067 681 96.699 1356.34 498.658
878 0 55.7583 14.3476 800 94.5738 1356.3 499.965
879 0 59.182 14.8863 881 93.899 1354.84 497.707
880 0 61.9958 15.4365 957 93.0063 1352.92 496.575
881 0 65.0602 14.6941 956 93.5795 1351.24 495.799
882 1 35.2272 10.8155 381 94.5984 1350.25 510.593
883 0 38.2349 12.2924 470 93.0468 1349.32 509.162
884 0 36.6744 10.9886 403 94.3896 1348.07 508.164
885 0 38.8654 13.328 518 90.027 1346.42 505.411
886 0 40.7022 11.5719 471 90.465 1344.99 504.163
887 0 43.4895 14.8312 645 84.4729 1343.9 502.363
888 0 45.2961 13.6215 617 86.7083 1342.94 501.802
889 0 44.3069 13.4742 597 89.5159 1342.58 498.554
890 0 48.2363 15.0924 728 86.1648 1342.96 497.745
891 0 50.3087 14.57 733 87.6262 1343.12 496.281
892 0 51.589 15.0226 775 86.3174 1342.74 494.043
893 0 52.4315 13.5987 713 89.4123 1343.76 492.421
894 0 54.4466 15.0606 820 86.822 1343.84 491.359
895 0 55.3131 14.2462 788 88.6497 1344.93 489.607
896 0 57.339 14.9811 859 88.3667 1345.5 487.146
897 0 58.4669 12.8107 749 92.223 1346.86 487.383
898 0 63.4939 15.2456 968 88.2128 1347.84 487.243
899 0 65.6126 16.7956 1102 86.6751 1350.02 487.648
900 0 67.8205 15.6885 1064 90.4436 1352.67 486.206
901 0 70.815 13.5847 962 93.894 1355.64 486.992
902 0 74.4061 15.4826 1152 90.8472 1356.55 486.272
903 1 42.4053 10.6355 451 92.3392 1359.04 505.503
904 0 43.3909 12.0993 525 90.6724 1359.31 507.19
905 0 44.3465 13.0112 577 91.8406 1358.26 506.277
906 0 46.2517 13.0374 603 91.1609 1356.98 505.619
907 0 48.3172 12.6663 612 92.0114 1355.95 507.286
908 0 51.3443 13.4192 689 93.8795 1353.61 508.357
909 0 54.33 13.5836 738 92.8753 1351.17 508.14
910 0 56.3078 15.0246 846 87.0059 1349.65 507.483
911 0 59.5258 15.1027 899 86.9299 1347.58 505.216
912 0 62.3087 14.7331 918 89.5022 1346.4 502.461
913 0 63.2871 15.0742 954 89.0461 1345.49 502.749
914 0 65.2669 14.1419 923 92.6912 1344.5 497.606
915 0 68.3115 14.1997 970 91.6619 1343.89 495.91
916 0 71.4239 14.673 1048 90.5115 1343.36 492.297
917 0 75.4647 14.9871 1131 89.3404 1342.66 492.368
918 0 75.3892 14.5512 1097 92.5679 1341.97 488.798
919 0 80.3692 16.2998 1310 89.3504 1342.51 485.946
920 0 80.3517 14.7726 1187 94.0927 1342.55 483.299
921 0 85.3853 15.8107 1350 91.5519 1343.53 482.959
922 0 86.2454 14.5631 1256 94.8479 1344 481.784
923 0 92.3671 16.9433 1565 89.7808 1344.87 480.562
924 0 93.4131 15.03 1404 94.2699 1346.12 473.196
925 0 98.3926 16.0886 1583 92.0347 1347.74 477.771
926 0 101.6 15.2264 1547 94.5268 1349.61 474.514
927 0 103.6 15.7529 1632 93.7819 1351.4 475.826
928 1 51.4623 9.61869 495 96.1717 1354.2 504.689
929 0 56.3932 11.012 621 94.81 1356.16 505.601
930 0 54.4182 10.9522 596 99.406 1356.31 503.529
931 0 58.1476 13.2078 768 96.9831 1355.86 503.488
932 0 61.1576 13.3916 819 97.8437 1355.46 501.927
933 0 64.0848 13.8566 888 96.8041 1354.23 501.037
934 0 66.1041 13.8872 918 97.4129 1351.6 498.995
935 0 66.0906 13.9203 920 145.871 1348.6 499.018
936 0 72.0438 14.6994 1059 96.3135 1348.32 500.347
937 0 73.1911 14.7832 1082 97.4593 1347.26 493.516
938 0 76.1695 15.1767 1156 100.715 1345.56 494.096
939 0 80.1673 15.6173 1252 98.5599 1344.13 492.139
940 0 81.1301 15.8757 1288 101.255 1343.03 487.936
941 0 83.2281 14.7546 1228 103.467 1342.5 484.292
942 0 85.1594 15.289 1302 103.548 1341.64 482.841
943 0 87.2204 15.3634 1340 104.299 1340.84 481.4
944 0 91.1376 17.8631 1628 98.3335 1341.5 480.431
945 0 92.1869 16.3581 1508 101.345 1341.41 478.04
946 0 94.3245 16.475 1554 101.777 1341.06 475.174
947 0 97.2988 16.0742 1564 102.824 1341.25 474.162
948 0 98.2385 17.4168 1711 100.856 1342.9 470.825
949 0 102.189 17.497 1788 100.618 1343.45 470.489
950 0 102.314 16.7523 1714 103.764 1343.77 466.012
951 0 105.251 17.2254 1813 103.842 1345.27 464.385
952 0 107.281 16.7877 1801 105.668 1348.05 466.609
953 0 108.459 16.6238 1803 107.927 1350.36 464.601
954 0 112.288 18.221 2046 104.663 1352.58 464.136
955 0 113.191 17.3865 1968 107.785 1354.21 466.806
956 0 117.403 16.5157 1939 110.208 1356.38 464.589
957 0 119.443 17.029 2034 109.364 1357.31 465.688
958 0 122.305 17.1947 2103 109.568 1358.24 464.034
959 0 124.379 17.5431 2182 109.497 1358.13 463.932
960 0 127.486 17.9235 2285 108.537 1357.61 466.257
961 0 130.33 17.4173 2270 110.48 1357.07 464.279
962 0 132.414 17.3471 2297 110.391 1355.75 463.677
963 0 132.27 16.0959 2129 115.252 1353.85 461.858
964 0 136.437 16.8722 2302 112.726 1351.96 459.911
965 0 140.334 17.5082 2457 109.762 1350.75 459.943
966 0 142.566 16.6309 2371 111.979 1348.61 457.276
967 0 143.166 16.9943 2433 110.49 1347.11 454.125
968 0 146.328 16.9414 2479 109.421 1346.18 454.395
969 0 147.351 17.1156 2522 109.828 1345.24 452.636
970 0 150.331 18.4061 2767 106.626 1344.46 448.984
971 0 152.479 18.5928 2835 105.996 1344.67 444.547
972 0 154.259 18.5986 2869 105.984 1344.55 446.252
973 0 154.275 17.1772 2650 109.61 1344.58 443.634
974 0 156.379 18.0267 2819 107.838 1344.62 437.777
975 0 159.261 18.5733 2958 105.693 1344.91 438.854
976 0 160.324 17.1715 2753 107.832 1345.58 437.768
977 0 160.388 17.6136 2825 107.676 1346.3 434.65
978 0 161.3 17.7123 2857 106.465 1346.57 433.275
979 0 163.368 16.9678 2772 107.88 1348.2 436.33
980 0 166.175 17.7162 2944 105.841 1350.33 434.198
981 0 168.343 18.1059 3048 104.74 1352.2 433.536
982 0 168.343 18.0227 3034 163.017 1354.2 433.422
983 0 173.262 17.1994 2980 105.376 1356.43 435.422
984 0 172.266 17.0667 2940 163.544 1358.44 434.711
985 0 174.295 17.2983 3015 105.164 1358.88 434.278
986 0 180.405 18.331 3307 101.89 1359.25 434.777
987 0 178.337 16.8669 3008 105.787 1358.19 436.984
988 0 181.393 16.7537 3039 104.95 1357.61 435.785
989 0 184.145 17.4211 3208 102.868 1355.4 437.348
990 0 188.265 17.8791 3366 100.797 1354.25 434.769
991 0 189.325 18.624 3526 97.39 1353.07 434.819
992 0 192.424 16.9885 3269 100.062 1351.5 431.997
993 0 190.287 17.5788 3345 98.9196 1348.74 428.319
994 0 194.325 18.2169 3540 96.3568 1346.91 430.503
995 0 198.362 19.0208 3773 94.1468 1346.51 429.385
996 0 198.425 18.7628 3723 95.0682 1345.99 427.421
997 0 197.43 17.2061 3397 97.9137 1345.37 421.539
998 0 201.551 19.335 3897 92.497 1343.94 420.823
999 0 203.37 17.3625 3531 94.9827 1343.99 419.965
1000 0 204.536 17.3906 3557 95.0149 1343.73 413.504
1001 0 204.503 16.0193 3276 97.0748 1344.25 414.146
1002 0 208.316 20.6994 4312 88.4599 1344.57 412.46
1003 0 209.389 18.3343 3839 92.4306 1345.62 411.248
1004 0 212.43 17.94 3811 92.3939 1345.85 412.208
1005 0 213.462 18.5466 3959 91.4531 1346.94 407.11
1006 0 213.409 17.3845 3710 92.3774 1347.01 413.706
