time division length width area intensity CMx CMy
0 0 44.1088 12.8999 569 129.998 963.61 479.592
1 0 45.2189 12.915 584 130.195 963.647 479.358
2 0 47.1427 14.7637 696 124.649 964.445 478.356
3 0 49.1182 15.6357 768 120.897 963.992 478.622
4 0 50.1275 13.346 669 128.088 965.013 479.801
5 0 51.1296 15.0989 772 127.491 964.889 477.86
6 0 49.1021 14.7041 722 129.684 964.291 478.047
7 0 49.1021 14.7652 725 148.041 963.298 478.057
8 0 54.1617 15.2322 825 126.137 964.149 475.332
9 0 54.0675 13.964 755 127.848 963.938 476.734
10 0 55.3184 14.2991 791 128.386 963.196 475.545
11 1 29.1044 10.8918 317 130.334 962.95 488.221
12 0 29.0681 12.7631 371 130.372 962.655 487.404
13 0 31.0855 12.0957 376 128.46 963.705 487.431
14 0 30.2106 11.9825 362 132.79 963.453 486.047
15 0 32.1635 12.1255 390 131.505 964.331 485.364
16 0 32.1241 12.763 410 130.573 964.937 483.556
17 0 35.392 12.3192 436 129.073 964.335 484.018
18 0 34.1694 11.1796 382 133.743 964.105 483.508
19 0 36.307 11.568 420 133.424 963.907 482.305
20 0 38.1562 12.5799 480 127.448 963.471 483.142
21 0 38.1677 13.5193 516 128.182 963.165 480.591
22 0 41.2832 15.5269 641 120.228 964.956 481.34
23 0 43.2155 14.0922 609 123.363 964.662 480.673
24 0 42.1634 15.1553 639 122.914 964.787 481.667
25 0 46.2078 15.8848 734 119.23 964.815 480.493
26 0 46.1147 15.7867 728 119.827 963.621 480.607
27 0 46.1709 16.6772 770 119.313 964.943 478.892
28 0 47.0451 15.3895 724 122.845 965.095 479.486
29 0 47.0451 15.4108 725 150.989 965.084 479.466
30 0 50.1528 16.1307 809 120.464 966.686 477.639
31 0 53.1283 17.5989 935 116.272 967.22 476.26
32 0 54.1626 15.3981 834 121.078 966.645 475.843
33 0 57.074 17.5386 1001 114.511 967.442 474.768
34 0 59.1024 17.2243 1018 114.421 967.846 475.15
35 0 61.1727 17.001 1040 117.336 967.456 472.449
36 0 61.1288 15.8518 969 120.879 967.802 472.361
37 0 64.2333 16.1754 1039 120.271 968.058 471.48
38 0 67.2112 18.1964 1223 115.35 967.971 469.684
39 0 71.0349 17.9348 1274 115.405 967.552 468.474
40 0 71.1377 17.6559 1256 116.678 967.553 468.11
41 0 72.2505 16.6504 1203 121.757 967.62 467.401
42 0 76.2575 19.303 1472 115.065 967.826 466.474
43 0 79.3338 17.1428 1360 121.038 967.921 464.531
44 0 83.1153 18.2036 1513 118.367 967.618 464.226
45 0 85.2988 17.4446 1488 120.407 968.226 462.603
46 0 87.3828 17.8296 1558 120.951 968.473 462.418
47 0 89.2741 16.5669 1479 125.245 968.43 460.46
48 0 94.3019 17.8999 1688 122.497 968.65 458.032
49 0 96.3381 17.0753 1645 125.16 967.771 457.976
50 0 99.1735 17.0711 1693 123.037 968.027 455.928
51 0 102.463 17.2551 1768 122.825 967.796 455.347
52 0 107.447 18.2601 1962 118.91 967.687 454.222
53 0 111.373 17.5626 1956 119.887 967.844 452.811
54 1 65.2569 14.3433 936 125.083 967.206 472.756
55 0 67.48 15.1008 1019 123.492 967.091 470.928
56 0 70.27 16.2516 1142 120.8 966.788 471.588
57 0 72.4329 15.932 1154 123.191 967.628 468.597
58 0 74.3496 16.6107 1235 121.241 967.44 468.79
59 0 78.2152 16.3907 1282 120.807 967.702 465.867
60 0 80.3045 17.0725 1371 119.972 967.624 463.859
61 0 83.1038 15.4145 1281 123.361 967.956 462.866
62 0 87.2463 17.2844 1508 118.11 967.95 460.343
63 0 90.2363 16.2906 1470 123.628 968.474 459
64 0 92.2004 16.475 1519 123.902 968.109 457.371
65 0 96.148 16.0898 1547 124.371 968.064 455.474
66 0 99.1789 15.3359 1521 126.149 968.577 452.606
67 0 102.265 16.5746 1695 122.088 968.758 452.65
68 0 107.329 15.1125 1622 126.514 968.874 449.121
69 0 112.262 16.8268 1889 122.9 968.671 447.813
70 0 114.162 16.7919 1917 125.196 968.278 443.838
71 0 119.358 15.7509 1880 126.627 968.658 444.494
72 0 122.41 15.8729 1943 126.589 966.05 442.45
73 0 126.361 16.3658 2068 126.469 967.079 438.684
74 0 131.273 16.7818 2203 125.721 967.527 438.346
75 0 136.315 16.7626 2285 125.348 967.581 436.004
76 0 140.296 17.5415 2461 123.694 968.786 430.973
77 0 147.24 17.6175 2594 122.112 967.965 431.792
78 0 152.44 16.0982 2454 125.162 967.498 430.377
79 0 157.33 17.3521 2730 123.997 967.837 425.288
80 0 162.323 16.3624 2656 126.844 968.142 423.012
81 0 168.27 17.2996 2911 123.722 968.872 420.632
82 0 175.329 16.8826 2960 126.183 968.804 417.859
83 1 37.091 11.3505 421 116.789 970.449 485.069
84 0 38.0526 11.5629 440 112.777 970.448 486.809
85 0 39.1523 11.5957 454 113.835 969.722 484.859
86 0 41.086 13.6786 562 110.692 970.187 484.315
87 0 42.1094 12.8475 541 111.852 970.227 482.124
88 0 43.0356 13.2216 569 111.803 969.963 481.271
89 0 47.0423 13.541 637 108.396 969.06 481.661
90 0 48.0666 14.4591 695 107.427 969.953 480.298
91 0 46.0442 12.4011 571 113.73 970.088 479.538
92 0 51.0363 12.4225 634 111.64 970.905 479.845
93 0 52.0657 13.5214 704 111.19 970.136 476.996
94 1 25.0666 10.2926 258 111.946 970.729 490.349
95 0 26.0645 9.55321 249 111.305 970.072 491
96 0 28.0145 11.9581 335 107.149 970.287 489.328
97 0 29.0282 10.6448 309 109.324 971.065 488.955
98 0 31.0211 10.7024 332 106.398 971.373 489.401
99 0 31.058 11.2693 350 108.109 971.214 487.989
100 0 32.1004 12.8036 411 106.981 971.518 487.465
101 0 34.0187 12.0522 410 107.193 972.346 487.034
102 0 35.1474 13.856 487 103.158 971.513 486.111
103 0 36.1566 13.7181 496 103.843 970.365 485.573
104 0 37.0836 12.8898 478 105.937 971.232 484.967
105 0 39.1424 13.3615 523 104.811 972.094 485.268
106 0 39.2383 11.9016 467 109.152 972.291 484.919
107 0 42.2091 14.2623 602 103.827 972.561 484.153
108 0 41.0902 13.4339 552 107.714 971.46 483.504
109 0 46.0939 13.9715 644 105.741 972.171 483.23
110 0 46.1737 15.615 721 103.448 972.417 482.595
111 0 48.26 14.8985 719 104.858 971.576 482.257
112 0 49.2522 13.0552 643 108.796 971.832 483.272
113 0 49.2674 13.5181 666 111.435 970.489 480.198
114 0 50.2639 15.0406 756 108.587 970.91 480.939
115 0 52.087 14.5526 758 109.273 970.106 480.942
116 0 53.1611 14.9545 795 108.394 970.313 481.088
117 0 56.123 15.6086 876 106.646 969.764 479.934
118 0 56.0407 15.8635 889 106.924 969.354 477.246
119 0 59.2245 14.3522 850 109.2 970.004 477.731
120 0 59.201 14.1552 838 111.325 969.469 475.78
121 0 61.2109 14.3112 876 110.839 969.049 476.582
122 1 31.0592 10.3995 323 115.012 970.514 489.458
123 0 33.0219 11.78 389 110.92 970.738 489.589
124 0 34.0425 11.6325 396 112.689 970.652 488.833
125 0 34.0425 11.6031 395 161.362 971.699 488.863
126 0 34.0153 11.3184 385 112.694 971.429 487.935
127 0 37.2311 13.4028 499 109.88 971.222 486.271
128 0 37.0706 13.8115 512 110.045 971.234 485.145
129 0 41.0953 13.0672 537 109.899 970.343 484.639
130 0 43.0755 13.7201 591 107.452 970.316 483.443
131 0 41.0822 14.118 580 109.112 970.424 483.319
132 0 43.1845 13.9865 604 108.985 970.182 482.104
133 0 46.0561 13.527 623 105.819 971.308 483.018
134 0 47.109 13.7553 648 105.438 971.424 482.406
135 0 48.1311 13.2555 638 107.069 971.334 481.354
136 0 50.1883 13.9873 702 105.504 971.308 479.748
137 0 51.1466 14.6833 751 105.119 971.017 479.173
138 0 52.1609 13.7651 718 107.361 970.705 480.305
139 0 53.1545 14.9564 795 106.719 971.094 477.56
140 0 55.1678 14.7369 813 108.351 970.556 479.636
141 0 56.2575 15.2513 858 108.263 970.861 477.223
142 0 60.1066 15.3561 923 106.135 970.011 478.628
143 0 61.0985 15.4505 944 106.677 969.35 477.269
144 0 62.1414 13.7268 853 111.906 968.992 476.174
145 0 64.0477 14.2082 910 111.351 968.831 475.705
146 0 67.0708 14.9245 1001 109.767 968.88 473.602
147 0 68.0976 16.3148 1111 105.967 969.639 476.618
148 0 71.326 15.9549 1138 108.431 969.22 472.886
149 0 72.3594 16.2107 1173 109.391 969.243 471.01
150 0 77.3309 14.7677 1142 111.253 969.264 470.218
151 0 79.4164 14.7325 1170 112.056 968.828 467.523
152 1 43.2522 11.93 516 110.669 969.211 486.246
153 0 43.2643 11.9729 518 112.232 969.039 484.973
154 0 44.2621 12.4034 549 111.679 968.725 483.477
155 0 48.2427 14.3442 692 105.699 968.854 483.733
156 0 48.146 12.4205 598 109.965 968.649 482.652
157 0 50.1636 15.3896 772 104.509 967.718 479.934
158 0 50.1258 12.9873 651 111.896 968.897 480.077
159 0 52.1406 14.7486 769 106.73 969.255 479.163
160 0 55.3768 14.3743 796 107.372 969.614 477.898
161 0 55.2982 13.2916 735 112.114 969.469 476.235
162 0 56.333 14.6096 823 109.357 969.753 474.627
163 0 59.1631 13.9445 825 109.233 969.467 475.245
164 0 61.4472 15.0536 925 107.334 969.769 471.421
165 0 63.6997 13.4537 857 110.44 969.797 471.399
166 0 63.6997 13.391 853 152.039 969.777 471.502
167 0 67.56 15.9118 1075 104.767 968.778 467.85
168 0 70.0432 15.7902 1106 103.744 970.081 468.942
169 0 69.5266 14.3686 999 108.701 969.744 466.53
170 0 73.6917 15.0899 1112 106.103 969.825 466.05
171 0 77.8714 16.3346 1272 103.593 969.545 461.586
172 0 79.6049 15.0116 1195 105.764 968.736 461.936
173 0 79.6049 14.9488 1190 150.199 967.751 461.852
174 0 84.7716 16.1611 1370 103.546 968.577 460.904
175 1 46.6488 11.9832 559 105.002 969.021 480.925
176 0 48.6354 12.7273 619 104.042 969.874 481.691
177 0 46.53 10.8532 505 108.62 969.642 481.16
178 0 48.3758 12.899 624 105.643 969.609 479.74
179 0 51.1857 12.484 639 106.208 969.379 481.335
180 0 51.1942 12.56 643 156.375 969.397 481.25
181 0 53.4373 13.8854 742 105.919 969.069 478.991
182 0 55.5561 14.9399 830 103.71 968.781 478.146
183 0 58.4721 13.9383 815 104.621 968.055 477.141
184 0 57.5251 13.7679 792 105.826 967.025 475.043
185 0 59.3441 14.1884 842 104.619 966.856 474.336
186 0 63.3541 14.2532 903 102.409 967.123 474.471
187 0 65.4593 14.7878 968 102.344 966.589 471.343
188 0 66.1918 14.745 976 103.408 966.164 469.875
189 0 69.5607 14.9797 1042 101.696 966.141 469.998
190 0 69.5607 14.9654 1041 150.08 967.15 469.989
191 0 75.4475 15.3484 1158 100.615 966.475 466.201
192 0 77.6586 14.5766 1132 102.359 966.596 462.944
193 0 79.5073 13.4579 1070 103.939 966.747 462.584
194 0 82.4407 15.126 1247 99.9551 966.945 461.472
195 0 86.3585 13.0502 1127 104.731 967.571 459.952
196 0 91.4131 15.6761 1433 98.5583 967.181 460.105
197 0 92.3816 14.7324 1361 101.849 967.696 457.552
198 0 94.4266 15.2923 1444 100.362 968.869 457.783
199 0 99.3521 14.9368 1484 101.729 968.645 454.1
200 1 50.1717 9.44756 474 102.441 969.892 479.262
201 0 52.1794 11.9204 622 100.36 969.952 477.077
202 0 52.3067 12.1399 635 100.69 969.307 477.331
203 0 57.0923 13.4869 770 98.7221 968.349 477.242
204 0 56.1905 11.6568 655 106.069 968.195 473.791
205 0 60.2028 13.0891 788 101.962 968.236 476.315
206 0 62.1889 12.5264 779 103.751 968.286 472.249
207 0 65.3044 14.1797 926 100.098 968.322 472.997
208 0 68.1224 15.2079 1036 98.1033 966.599 472.253
209 0 68.2843 14.1614 967 101.249 967.404 472.697
210 0 73.1422 15.3263 1121 98.7145 967.4 470.152
211 0 74.1696 14.2646 1058 102.03 967.112 470.496
212 0 76.3869 14.5968 1115 101.161 966.996 469.061
213 0 81.2265 14.675 1192 100.852 966.757 467.044
214 0 84.3126 15.7865 1331 98.8858 965.98 464.734
215 0 84.4317 14.2245 1201 103.088 965.263 461.606
216 0 87.3742 15.6682 1369 101.216 964.321 458.996
217 0 89.267 13.7117 1224 104.441 964.486 459.586
218 0 92.2971 14.085 1300 104.387 964.035 456.088
219 0 97.2117 15.6566 1522 100.77 964.097 455.386
220 0 98.2604 15.1231 1486 103.005 964.875 452.176
221 0 102.299 15.1419 1549 102.326 964.945 451.454
222 0 105.735 14.8674 1572 101.646 964.969 449.327
223 0 108.28 13.6498 1478 104.254 964.705 449.894
224 0 113.222 14.5202 1644 102.714 965.802 446.805
225 1 60.1924 11.2473 677 100.86 966.238 472.3
226 0 62.1424 11.2805 701 98.3937 966.358 473.175
227 0 63.1784 11.7603 743 99.0821 965.988 469.801
228 0 63.1743 11.8086 746 137.845 965.977 469.74
229 0 68.1268 13.2253 901 96.1398 966.902 468.762
230 0 71.1934 13.653 972 95.9156 967.777 467.219
231 0 73.0527 13.3739 977 97.0368 967.471 463.547
232 0 76.0962 13.9954 1065 95.2263 967.947 464.853
233 0 78.0821 14.0877 1100 96.5082 967.311 464.611
234 0 79.2921 14.6421 1161 96.1869 968.389 463.535
235 0 83.3012 12.857 1071 100.037 968.31 460.502
236 0 86.2527 15.756 1359 95.5063 968.495 458.538
237 0 89.4002 13.6018 1216 99.9383 969.057 456.538
238 0 90.3819 13.6532 1234 91.6321 968.905 456.614
239 1 58.4205 8.49017 496 102.046 970.083 478.083
240 0 52.3455 9.36089 490 101.21 969.482 482.363
241 0 55.297 11.7909 652 101.241 968.552 476.35
242 0 56.2665 9.77491 550 105.613 967.638 476.622
243 0 60.1548 11.3374 682 102.705 966.68 476.496
244 0 62.1006 13.4298 834 98.8897 966.416 474.5
245 0 63.1397 14.0957 890 97.2865 966.488 476.239
246 0 64.1607 12.9518 831 97.9663 966.986 473.43
247 0 66.3015 14.1324 937 96.4397 967.327 473.321
248 0 69.2329 13.8807 961 97.3881 966.519 472.066
249 0 69.1907 13.3399 923 99.9718 965.671 471.83
250 0 71.189 13.12 934 101.03 966.177 469.835
251 0 74.2731 14.1639 1052 99.9886 966.438 469.166
252 0 76.2427 12.9061 984 104.514 966.604 468.225
253 0 77.3418 14.5588 1126 103.107 965.993 466.884
254 0 80.2874 12.8663 1033 106.761 966.24 466.408
255 0 81.2318 13.7262 1115 107.925 965.751 463.962
256 0 83.2583 14.2929 1190 106.466 965.817 463.865
257 0 87.1469 13.6895 1193 107.954 965.738 461.564
258 0 90.1321 15.322 1381 104.86 966.369 460.369
259 0 89.1159 14.9917 1336 155.988 967.329 459.792
260 0 94.33 15.2019 1434 106.222 967.632 458.52
261 1 54.1437 11.3771 616 106.701 968.2 479.578
262 0 56.1813 12.7445 716 102.789 968.73 478.846
263 0 57.0778 11.5456 659 106.047 967.906 478.463
264 0 59.0842 12.7276 752 104.741 968.91 476.979
265 0 59.0982 11.8447 700 108.111 968.493 475.919
266 0 63.0431 13.4511 848 103.346 968.922 475.888
267 0 65.0627 12.803 833 105.697 969.334 474.43
268 0 66.1066 14.643 968 102.883 969.471 473.711
269 0 68.2347 13.6441 931 105.305 969.559 471.537
270 0 69.1363 14.0592 972 105.809 969.337 471.779
271 0 73.1383 13.1258 960 106.414 969.538 471.659
272 0 75.1715 15.2052 1143 103.002 969.2 470.909
273 0 75.1715 15.2451 1146 145.839 968.209 470.916
274 0 80.1288 14.4392 1157 106.611 968.758 468.234
275 0 82.1244 14.8799 1222 106.381 968.052 467.506
276 0 82.2109 13.514 1111 110.221 967.146 468.201
277 0 86.1974 14.2464 1228 108.815 966.297 465.893
278 0 88.424 14.6001 1291 108.103 965.423 465.404
279 0 91.2203 15.0296 1371 107.912 965.112 462.303
280 0 93.26 13.843 1291 109.806 964.648 462.401
281 1 48.1519 8.63933 416 106.387 964.772 486.841
282 0 48.2561 10.5893 511 106.243 964.705 482.626
283 0 50.215 12.1079 608 104.799 964.53 481.133
284 0 53.1936 11.9187 634 105.345 964.79 480.317
285 0 54.1754 14.3054 775 99.5652 964.925 479.57
286 0 58.2841 14.498 845 98.8355 964.37 478.052
287 0 57.2607 12.4344 712 104.195 964.211 477.287
288 0 59.2764 13.3105 789 103.09 963.943 474.655
289 0 62.2158 13.3728 832 101.281 964.162 475.351
290 0 64.1867 14.0528 902 101.358 964.329 472.528
291 0 66.2854 12.3858 821 104.106 964.245 471.627
292 0 69.328 13.602 943 102.331 965.387 469.871
293 0 72.2928 13.5283 978 102.367 966.123 468.454
294 0 75.2813 16.0066 1205 95.7909 966.921 468.538
295 0 75.1443 12.7754 960 102.416 967.196 466.156
296 0 78.2546 12.9705 1015 102.702 968.14 464.994
297 0 82.2207 14.2421 1171 100.226 968.401 465.444
298 1 41.2426 10.2079 421 100.658 968.306 483.622
299 0 46.3584 12.2955 570 96.8421 968.533 483.068
300 0 46.1294 12.1398 560 97.4411 969.63 484.041
301 0 47.3704 11.3995 540 99.4093 969.1 483.504
302 0 48.2857 12.571 607 96.4514 968.61 484.601
303 0 49.3249 12.5089 617 98.4571 968.3 482.807
304 0 52.2315 12.5978 658 97.1094 967.938 482.006
305 0 53.3972 12.0793 645 98.3597 967.51 482.364
306 0 54.564 13.9652 762 96.2651 967.78 479.87
307 0 54.5833 11.5786 632 100.915 968.014 480.193
308 0 60.318 14.3904 868 94.735 967.545 480.34
309 0 60.3628 12.7065 767 98.8631 967.541 479.102
310 0 62.2284 12.5666 782 98.9092 966.826 479.533
311 0 65.3271 15.277 998 95.6112 965.898 475.525
312 0 67.2783 14.0164 943 98.1909 965.663 474.77
313 0 69.2566 12.8219 888 99.1633 965.033 474.788
314 0 72.316 13.5378 979 98.43 964.642 471.996
315 0 74.2735 14.487 1076 96.8169 964.212 471.808
316 0 77.4117 14.9848 1160 95.8095 964.434 469.377
317 1 38.1596 10.0892 385 102.977 963.694 485.743
318 0 41.314 10.868 449 99.4633 964.889 486.851
319 0 41.3469 11.5365 477 97.9602 965.53 485.04
320 0 43.3385 12.8754 558 96.138 966.052 483.751
321 0 45.3716 12.6511 574 95.6429 965.836 483.204
322 0 46.4174 11.6767 542 97.4041 965.974 480.902
323 0 48.4438 12.3648 599 95.4057 966.76 481.232
324 0 48.343 10.8185 523 97.0899 967.149 479.067
325 0 50.3726 12.3083 620 93.3919 968.256 481.8
326 0 51.2051 13.2213 677 92.6529 968.238 480.855
327 0 52.2291 13.6323 712 93.5534 968.23 477.987
328 0 54.1846 14.063 762 92.3346 968.773 477.61
329 0 56.1586 12.1442 682 94.9208 968.702 478.6
330 0 58.3535 13.4868 787 93.6417 969.159 477.16
331 0 61.124 14.2334 870 92.0276 969.798 477.469
332 0 61.124 14.2006 868 139.993 968.793 477.52
333 0 65.1437 13.4472 876 93.1016 970.256 477.608
334 0 68.0804 14.6004 994 92.6398 970.009 475.437
335 0 70.1543 14.6249 1026 92.4815 969.554 475.65
336 1 40.0491 10.8367 434 93.5691 968.742 492.306
337 0 40.0296 12.0661 483 96.3602 969.213 489.091
338 0 40.0548 11.2596 451 97.2239 968.585 490.222
339 0 42.089 12.236 515 98.6932 968.812 487.59
340 0 44.1157 12.3312 544 100.713 968.017 488.513
341 0 47.1714 14.4367 681 95.793 968.445 487.231
342 0 47.2443 14.5203 686 95.2055 967.345 485.752
343 0 48.1963 14.1297 681 97.4802 967.167 484.938
344 0 49.2041 13.0477 642 99.824 965.374 485.092
345 0 52.5323 15.6094 820 93.4573 965.682 484.982
346 0 53.3935 13.8781 741 99.6707 965.734 481.517
347 0 54.2728 14.335 778 100.289 965.012 480.414
348 0 53.1803 13.2192 703 104.831 965.578 479.148
349 0 56.3353 14.9995 845 101.68 965.2 476.922
350 0 57.2305 15.2192 871 101.529 964.994 478.598
351 0 61.3181 16.2595 997 99.3671 964.92 476.352
352 0 61.2446 14.091 863 104.651 965.554 475.754
353 0 63.1152 14.1329 892 105.561 965.751 473.308
354 0 63.1152 14.1329 892 159.257 965.739 473.221
355 0 66.1908 14.6697 971 105.745 967.838 470.551
356 0 70.0637 16.0711 1126 101.081 968.745 472.258
357 0 73.1329 15.2326 1114 102.195 969.076 470.104
358 0 74.1836 15.529 1152 103.452 969.289 468.067
359 0 74.1836 15.529 1152 152.191 969.294 468.189
360 0 80.2644 14.8634 1193 104.61 970.056 468.513
361 0 82.2404 14.6886 1208 105.326 970.116 465.318
362 0 86.2607 14.375 1240 104.362 969.567 466.413
363 0 87.1608 13.8594 1208 106.577 971.055 461.833
364 1 44.0346 11.1049 489 103.812 971.845 484.843
365 0 48.2017 11.1822 539 102.484 971.722 485.358
366 0 51.2417 12.3727 634 98.2114 971.257 485.353
367 0 51.2319 12.9607 664 100.291 970.357 480.084
368 0 53.2131 13.0795 696 98.8922 970.305 481.409
369 0 56.1561 12.9283 726 98.4656 970.198 480.806
370 0 57.2263 13.3505 764 97.4856 969.071 481.007
371 0 60.1417 13.8839 835 96.5186 967.889 480.022
372 0 62.44 14.0615 878 96.8747 966.705 477.854
373 0 65.2632 14.8323 968 94.3244 966.159 475.619
374 0 63.2865 11.8825 752 102.65 965.416 474.557
375 0 69.2658 14.2494 987 97.612 964.403 473.494
376 0 69.4425 14.5588 1011 98.0841 964.474 468.488
377 0 72.3674 14.7995 1071 97.5444 964.176 469.223
378 0 75.3009 14.0636 1059 99.6289 964.491 469.25
379 0 77.5062 14.6956 1139 99.9763 964.806 466.027
380 0 81.2413 15.0047 1219 99.3675 964.595 464.584
381 0 81.4008 13.6608 1112 103.415 964.223 463.675
382 0 84.5379 14.3486 1213 102.359 963.488 461.304
383 0 86.3287 14.8618 1283 102.755 963.783 458.47
384 0 91.4384 15.628 1429 100.994 965.146 460.16
385 0 92.4352 16.2059 1498 101.314 965.382 457.267
386 0 96.4712 14.4499 1394 104.343 966.052 454.897
387 0 99.2162 15.0076 1489 100.457 967.294 456.727
388 0 103.274 15.3862 1589 102.17 968.452 450.478
389 0 107.623 14.5043 1561 103.446 968.5 449.828
390 0 110.388 15.2462 1683 101.935 968.969 450.408
391 0 115.374 16.1388 1862 100.743 970.015 445.485
392 0 118.574 15.2478 1808 103.27 969.677 445.452
393 0 124.686 16.2649 2028 102.185 970.366 442.434
394 0 128.501 15.7586 2025 103.651 969.909 440.273
395 0 130.393 14.717 1919 107.017 969.55 438.972
396 0 137.38 16.6181 2283 103.303 969.767 435.785
397 0 144.468 18.2463 2636 100.248 969.388 434.992
398 0 147.55 16.6452 2456 104.665 968.145 432.232
399 0 151.991 15.6852 2384 106.161 967.997 431.504
400 0 160.613 17.8068 2860 101.893 967.556 429.795
401 0 163.808 15.7257 2576 107.497 967.444 423.851
402 0 169.709 15.9567 2708 107.455 966.794 421.24
403 0 173.712 15.4566 2685 109.193 966.726 417.14
404 0 181.592 16.124 2928 107.081 966.349 417.999
405 0 187.989 16.735 3146 106.666 964.764 410.429
406 0 187.989 16.8148 3161 156.37 963.778 410.271
407 1 199.594 16.0676 3207 108.154 963.449 404.118
408 0 207.021 16.2979 3374 108.166 963.946 401.235
409 0 214.761 17.708 3803 104.923 964.4 394.739
410 0 219.684 14.9715 3289 112.363 963.692 394.006
411 0 229.642 16.6085 3814 107.817 964.783 389.88
412 0 239.042 16.4616 3935 106.945 964.603 384.412
413 0 247.051 17.0289 4207 106.681 965.507 374.924
414 1 187.715 12.9345 2428 112.012 966.257 410.221
415 0 195.754 14.3241 2804 110.935 967.006 401.84
416 0 202.665 15.8932 3221 107.647 967.206 400.609
417 0 207.787 14.6448 3043 111.061 967.578 393.836
418 0 219.688 18.2987 4020 101.987 968.181 393.365
419 0 227.051 16.3532 3713 106.429 969.563 382.001
420 0 236.916 17.6054 4171 104.547 970.114 380.488
421 0 242.822 16.2012 3934 107.759 970.037 377.387
422 0 252.931 16.1507 4085 107.917 971.29 370.651
423 1 229.866 11.0891 2549 112.133 971.212 399.077
424 0 230.95 9.90689 2288 112.866 971.094 401.087
425 0 231.654 12.3762 2867 107.92 971.018 399.174
426 1 72.3711 10.0316 726 94.8264 971.423 471.809
427 0 74.2569 11.2851 838 94.4785 970.894 470.332
428 0 73.5343 12.1168 891 91.8507 969.978 470.147
429 0 79.3069 14.9798 1188 85.8931 969.673 466.942
430 0 81.613 12.0079 980 91.9571 968.263 465.829
431 0 83.7364 12.8857 1079 91.2827 967.247 461.984
432 0 85.4865 12.7272 1088 90.148 966.56 465.874
433 0 88.4703 12.9874 1149 90.8616 965.862 459.983
434 0 89.248 12.0675 1077 93.5729 965.452 456.053
435 0 93.587 12.9933 1216 90.9112 965.155 454.917
436 0 97.3458 13.1798 1283 90.6399 964.864 453.247
437 0 100.33 13.5154 1356 90.4897 963.782 449.311
438 0 105.657 13.8088 1459 90.9431 964.354 448.301
439 0 108.556 13.5875 1475 91.04 963.875 443.235
440 0 111.54 12.6861 1415 91.3887 963.766 446.301
441 0 114.7 13.313 1527 92.0655 964.253 441.009
442 0 120.526 13.5738 1636 91.1632 964.377 440.178
443 0 125.796 13.5537 1705 90.929 964.552 434.303
444 0 125.765 12.8176 1612 93.4435 964.551 437.39
445 0 133.863 13.1552 1761 92.029 966.352 434.367
446 0 135.931 14.0807 1914 91.1761 966.285 430.435
447 1 71.5832 12.028 861 88.3508 967.871 464.245
448 0 74.6853 9.84129 735 88.1823 969.82 469.294
449 0 77.7417 12.027 935 86.2428 971.405 469.604
450 0 78.8973 12.2564 967 87.3578 971.282 467.102
451 0 82.7037 13.5786 1123 87.8575 972.2 464.189
452 0 85.5624 13.8846 1188 87.7113 973.776 463.926
453 0 88.4739 12.4782 1104 90.769 973.287 461.982
454 0 94.5584 15.0066 1419 85.6159 972.97 464.901
455 0 96.4324 15.2127 1467 85.7478 971.741 462.526
456 0 98.403 14.3593 1413 87.2392 971.129 460.778
457 0 101.629 13.1951 1341 89.6518 970.228 457.413
458 0 101.629 13.1656 1338 144.647 969.238 457.226
459 0 109.576 15.0306 1647 85.7347 969.469 454.881
460 0 114.473 14.9205 1708 85.6189 968.902 454.678
461 0 114.473 14.8506 1700 150.918 967.907 454.729
462 0 120.642 14.3731 1734 87.5525 967.225 448.186
463 0 123.329 14.66 1808 87.6128 966.129 441.558
464 0 129.678 14.7519 1913 86.8113 965.632 443.777
465 0 132.582 14.0969 1869 87.8705 965.221 441.536
466 0 136.442 14.1452 1930 88.7233 964.561 438.932
467 0 141.429 14.6717 2075 88.0824 964.223 439.867
468 0 145.65 15.9767 2327 88.1569 963.905 434.366
469 0 149.578 16.2257 2427 89.4318 963.668 428.94
470 0 150.51 14.0987 2122 94.3351 963.35 423.427
471 0 156.591 15.3393 2402 92.6128 963.548 419.568
472 0 162.467 15.5847 2532 92.6469 963.88 417.566
473 0 165.513 15.0744 2495 94.7042 964.212 414.93
474 0 171.46 16.0212 2747 93.1969 964.654 412.969
475 0 176.619 15.1909 2683 95.1405 966.072 410.48
476 0 182.478 15.443 2818 94.9198 967.205 409.108
477 0 187.586 15.6089 2928 93.0205 968.335 406.191
478 0 187.586 15.6249 2931 159.176 969.321 406.077
479 1 113.393 11.4822 1302 90.6943 970.411 449.756
480 0 113.257 11.5755 1311 92.1701 970.867 447.632
481 0 120.374 13.3667 1609 90.2809 971.991 444.772
482 0 124.253 14.0278 1743 90.7057 971.843 442.822
483 0 131.303 13.5184 1775 91.1611 971.499 442.236
484 0 138.349 15.2296 2107 88.2345 971.418 440.95
485 0 142.422 14.8222 2111 89.7196 970.844 438.155
486 1 75.2444 11.2965 850 83.8365 970.229 474.731
487 0 76.1893 13.0202 992 80.9466 970.192 477.243
488 0 78.2136 12.2741 960 83.6083 969.776 474.878
489 0 81.3957 11.1062 904 87.7976 968.204 471.492
490 0 85.3418 12.8659 1098 85.0838 967.655 471.554
491 0 86.2975 12.9436 1117 86.2686 966.419 469.969
492 0 87.3425 12.0674 1054 89.7448 965.65 465.304
493 0 91.2746 12.4679 1138 90.0062 964.754 464.734
494 0 93.3349 13.1569 1228 90.8086 965.058 463.09
495 0 95.4666 12.8212 1224 91.8292 964.206 461.663
496 0 100.344 14.6895 1474 90.3392 963.807 459.168
497 0 102.399 14.8634 1522 90.7516 963.785 457.611
498 0 104.411 14.4621 1510 90.957 964.132 456.313
499 0 106.333 15.3573 1633 91.2186 963.483 453.639
500 0 110.297 14.3612 1584 94.5177 963.244 451.66
501 0 110.324 13.841 1527 97.0354 964.458 449.955
502 0 114.453 15.1153 1730 96.663 964.095 447.362
503 0 114.451 14.3293 1640 100.111 964.848 447.482
504 0 119.329 16.1151 1923 97.5829 965.865 445.357
505 0 121.351 16.1762 1963 99.6842 967.181 444.001
506 0 121.351 16.1762 1963 166.096 968.186 443.92
507 0 125.55 15.213 1910 104.243 969.134 444.497
508 0 128.335 15.8959 2040 104.667 971.775 442.986
509 0 129.316 17.144 2217 102.954 973.547 443.089
510 0 130.214 17.0182 2216 104.802 973.993 444.944
511 0 133.202 16.3962 2184 107.007 974.439 440.98
512 0 134.216 16.1009 2161 109.536 974.304 445.299
513 0 137.236 16.9051 2320 108.75 973.421 444.248
514 0 139.291 16.7779 2337 110.827 972.979 443.715
515 0 141.335 16.9597 2397 113.097 972.114 443.798
516 0 144.265 16.442 2372 118.016 970.922 444.156
517 0 144.394 17.6808 2553 112.857 969.615 443.976
518 0 144.241 15.9594 2302 117.642 969.043 442.673
519 0 146.408 16.8296 2464 115.76 967.635 440.929
520 0 148.185 16.2567 2409 116.729 966.202 439.776
521 0 150.368 16.9052 2542 114.453 965.105 436.834
522 0 152.395 17.1922 2620 114.199 964.395 438.865
523 0 152.345 16.0163 2440 117.599 963.16 431.659
524 0 156.28 17.7054 2767 113.278 962.263 434.41
525 0 154.274 16.3281 2519 116.731 961.226 434.272
526 0 154.231 17.7396 2736 114.278 960.189 429.393
527 0 154.262 16.8414 2598 116.199 959.445 429.457
528 0 158.361 18.2431 2889 111.989 958.948 430.066
529 0 158.382 17.3631 2750 114.394 958.835 428.926
530 0 157.288 17.6936 2783 113.679 959.446 426.204
531 0 159.563 18.0117 2874 111.965 959.218 427.104
