time division length width area intensity CMx CMy
0 0 39.0733 14.7415 576 108.167 359.644 480.306
1 0 40.0228 14.6916 588 111.063 358.335 477.908
2 0 40.038 15.76 631 109.242 359.436 478.236
3 0 42.0963 14.7044 619 106.905 360.192 476.987
4 0 42.0517 18.2395 767 104.119 360.253 479.966
5 0 42.1692 17.0741 720 105.825 361.015 478.807
6 0 45.143 18.6519 842 102.217 359.743 478.688
7 0 45.0203 16.6814 751 107.666 360.389 477.325
8 0 46.0883 16.9457 781 107.47 360.634 475.932
9 0 47.0965 17.6234 830 100.492 359.741 478.553
10 0 48.071 16.8501 810 106.54 359.799 476.374
11 0 49.0305 17.3565 851 104.042 358.954 475.92
12 0 49.2606 16.3213 804 109.537 359.057 475.4
13 0 51.1146 16.688 853 105.489 359.879 475.402
14 0 55.1161 19.5043 1075 97.9907 359.869 475.247
15 0 55.1129 18.453 1017 100.91 359.689 475.334
16 0 56.1124 20.1916 1133 95.5172 361.326 475.665
17 0 59.0732 20.2461 1196 94.9983 359.288 472.066
18 0 59.1922 19.9351 1180 97.4593 358.958 471.767
19 0 62.5425 23.4561 1467 87.9434 359.639 469.505
20 0 62.237 20.0684 1249 96.1962 358.592 470.228
21 0 66.1122 22.4316 1483 89.7964 358.568 470.004
22 0 66.1 18.4569 1220 97.6066 360.363 468.017
23 1 33.0293 13.8362 457 105.972 359.479 485.125
24 0 36.056 12.5083 451 107.386 360.439 485.57
25 0 34.0222 12.1097 412 110.039 359.587 484.053
26 0 36.0604 12.1186 437 107.371 358.767 485.7
27 0 35.0478 11.6698 409 111.721 359.924 483.425
28 0 39.0946 12.5337 490 108.794 360.008 483.273
29 0 40.2088 12.5097 503 108.101 360.849 482.712
30 0 41.067 13.6606 561 107.294 361.419 481.594
31 0 39.0559 13.3911 523 110.092 362.419 478.314
32 0 46.1086 15.0948 696 102.297 362.323 476.753
33 0 45.2204 15.8114 715 100.807 363.039 480.761
34 0 46.1878 14.8524 686 104.246 363.44 478.181
35 0 49.0574 15.8386 777 102.192 362.888 478.284
36 0 49.165 15.3565 755 104.234 363.375 477.84
37 0 50.0809 15.3951 771 105.093 363.292 477.071
38 0 49.1507 15.4627 760 105.639 363.25 477.526
39 0 51.1171 13.9484 713 107.439 362.935 477.259
40 0 53.061 16.2831 864 102.212 363.065 475.845
41 0 54.1106 14.5258 786 106.712 363.396 477.303
42 0 56.107 15.4348 866 103.833 363.604 476.551
43 0 58.2336 16.6914 972 100.829 363.907 475.328
44 0 59.0852 15.5707 920 103.367 363.847 474.755
45 0 59.0626 15.1704 896 105.046 364.438 473.487
46 0 63.0933 16.7213 1055 100.386 364.63 473.337
47 0 65.1618 15.5306 1012 102.166 364.692 472.731
48 0 63.1797 14.1501 894 105.905 364.677 471.917
49 0 67.2405 16.2848 1095 100.208 363.974 471.615
50 0 70.2164 16.1786 1136 97.7526 364.24 471.21
51 0 71.1712 17.6757 1258 95.8506 364.046 469.1
52 0 73.2608 15.9157 1166 97.3422 363.979 467.93
53 0 74.2763 15.0519 1118 99.1002 364.238 467.644
54 0 76.2148 15.8631 1209 98.6584 363.289 464.863
55 0 79.2845 16.1822 1283 98.1021 363.279 464.68
56 0 82.3541 15.6276 1287 100.286 362.926 463.226
57 0 85.1861 17.8668 1522 97.1104 363.965 460.881
58 0 87.2358 17.3667 1515 98.8937 363.608 459.962
59 0 89.2255 16.1949 1445 100.612 363.688 459.365
60 0 92.2425 17.1613 1583 98.9457 363.687 458.537
61 0 95.506 15.6325 1493 101.216 364.011 455.289
62 0 98.2974 16.1245 1585 99.3628 363.957 454.789
63 1 51.089 13.7211 701 103.077 364.967 476.551
64 0 53.1006 12.9754 689 103.935 364.871 475.536
65 0 54.0855 14.0333 759 103.004 364.693 472.863
66 0 55.0475 14.7509 812 100.447 365.282 473.762
67 0 58.1379 15.3256 891 97.826 365.428 472.534
68 0 61.1181 15.56 951 97.0368 365.714 472.946
69 0 61.0846 14.8646 908 100.352 365.327 469.376
70 0 63.1355 14.651 925 99.8281 364.897 470.669
71 0 63.0493 14.0684 887 102.913 365.207 466.762
72 0 67.1173 15.0632 1011 100.03 362.694 465.072
73 0 71.1169 14.9894 1066 98.9371 363.685 463.905
74 0 73.1616 15.4179 1128 98.625 364.113 462.236
75 0 75.1459 15.41 1158 97.7012 364.186 464.216
76 0 78.0677 15.6915 1225 97.0914 365.296 461.167
77 0 82.1659 14.8358 1219 97.0312 364.549 462.013
78 0 81.3646 13.925 1133 99.0371 364.03 458.959
79 0 85.1738 15.8147 1347 95.7483 364.255 459.853
80 0 87.1694 14.9479 1303 97.5549 364.705 454.768
81 0 89.2135 14.9417 1333 96.904 365.407 456.199
82 0 94.44 16.889 1595 93.8263 365.355 452.666
83 0 98.4117 15.3234 1508 95.5782 365.341 453.094
84 1 47.0514 10.5417 496 96.127 365.651 477.093
85 0 50.1649 13.8942 697 89.7145 365.686 478.413
86 0 50.0995 12.9343 648 92.8241 366.745 475.98
87 0 52.1992 15.7474 822 88.6314 366.718 474.03
88 0 54.1497 13.1487 712 91.7626 365.701 475.493
89 0 54.1442 13.3717 724 90.924 364.975 474.432
90 0 56.1517 15.0307 844 88.8294 365.615 473.583
91 0 57.0411 14.8139 845 89.3325 365.818 473.904
92 0 57.0818 14.5055 828 90.5628 366.537 471.81
93 0 59.1242 14.3596 849 90.1955 365.9 472.045
94 0 58.1166 12.3545 718 94.2521 366.882 471.298
95 0 61.1091 14.9241 912 89.4035 366.895 471.959
96 0 60.1429 13.8337 832 91.9615 366.887 469.093
97 0 62.1266 14.1807 881 90.6969 367.77 468.596
98 0 62.0996 14.6861 912 90.1294 367.498 468.427
99 0 61.118 14.9547 914 91.1937 367.57 468.91
100 0 63.2387 14.469 915 91.0295 367.987 469.707
101 0 63.113 14.9256 942 91.0945 368.394 469.242
102 0 64.0787 13.858 888 91.8953 367.858 467.927
103 0 64.1038 14.5233 931 91.0054 366.684 469.555
104 0 66.1073 16.095 1064 88.3957 367.31 466.77
105 0 66.1343 14.1681 937 90.4418 368.301 468.117
106 0 63.0557 12.7665 805 93.713 368.713 467.814
107 0 66.0801 14.9667 989 89.548 368.734 467.653
108 0 64.1684 13.5581 870 92.9609 368.046 465.64
109 0 66.3021 15.2333 1010 90.2515 368.761 466.874
110 0 67.0665 13.7625 923 90.9653 368.869 467.425
111 0 68.1336 13.8551 944 89.7722 368.142 468.146
112 0 69.0345 15.1953 1049 87.8837 367.924 467.745
113 0 67.0456 14.2739 957 89.5455 366.703 466.423
114 0 68.0869 15.1571 1032 88.0659 367.103 467.418
115 0 68.0859 14.1733 965 88.6415 366.817 470.204
116 0 66.0791 13.9681 923 90.5688 366.735 466.424
