time division length width area intensity CMx CMy
0 0 51.2801 15.6201 801 106.79 1268.09 476.934
1 0 50.1925 13.4881 677 114.885 1266.78 477.151
2 0 52.3246 14.2763 747 114.743 1268.14 477.133
3 0 54.2448 14.2502 773 113.661 1268.65 475.561
4 0 55.3904 15.3817 852 110.196 1269.74 476.604
5 0 53.3311 12.5255 668 118.683 1269.1 474.91
6 0 57.2113 15.4515 884 112.038 1268.82 474.854
7 0 59.1505 14.6913 869 111.144 1269.14 472.82
8 1 28.0849 9.6137 270 118.37 1269.82 486.956
9 0 30.1092 10.6612 321 113.452 1270.08 486.732
10 0 31.0356 10.6329 330 111.388 1270.15 487.97
11 0 32.2399 9.83255 317 114.666 1268.96 486.379
12 0 32.1748 11.0646 356 110.742 1269.7 487.135
13 0 33.163 11.3078 375 110.779 1268.54 486.699
14 0 35.251 12.2266 431 109.708 1268.66 484.529
15 0 35.3016 11.9541 422 110.379 1270.41 484.82
16 0 36.2499 12.5518 455 108.358 1270.12 483.679
17 0 40.3776 12.2841 496 108.458 1269.36 483.256
18 0 39.2447 12.9189 507 108.947 1268.76 482.239
19 0 41.2207 14.58 601 106.27 1268.69 482.012
20 0 43.083 15.1336 652 103.508 1268.08 482.018
21 0 44.1273 13.9143 614 106.347 1267.3 481.92
22 0 42.0639 14.5255 611 106.16 1269 481.663
23 0 43.0538 13.5877 585 108.942 1268.85 479.024
24 0 47.0596 14.8323 698 104.284 1269.02 479.656
25 0 48.1769 14.3014 689 105.094 1269.27 480.531
26 0 49.2122 15.0572 741 103.29 1271.58 480.88
27 0 51.0736 15.9769 816 102.127 1271.63 478.892
28 0 52.084 15.9166 829 103.059 1271.89 477.733
29 0 52.1494 13.9024 725 106.433 1270.13 477.83
30 0 54.0789 14.9596 809 105.363 1270.09 474.511
31 0 55.0969 14.1932 782 105.841 1269.87 474.872
32 0 58.0819 14.7895 859 104.932 1269.98 472.928
33 0 59.2003 14.983 887 104.003 1270.79 472.324
34 0 61.1603 15.3367 938 103.33 1270.55 471.65
35 0 61.1872 15.3463 939 105.099 1270.87 470.285
36 0 64.1059 15.3028 981 104.274 1270.93 470.34
37 0 65.1567 16.7136 1089 103.517 1271.48 468.086
38 0 68.343 16.4903 1127 102.242 1271.55 469.972
39 0 69.3113 14.7451 1022 107.477 1271.26 467.871
40 0 72.2827 16.1726 1169 103.808 1271.43 466.965
41 0 74.3379 17.0841 1270 102.654 1271.7 465.592
42 0 76.2257 14.7457 1124 107.362 1271.75 465.518
43 0 79.2306 14.4136 1142 107.08 1272.56 465.518
44 0 80.3547 15.8671 1275 106.346 1272.4 462.997
45 0 84.423 15.8843 1341 105.718 1273.2 461.451
46 0 87.3962 15.3554 1342 107.008 1274.09 459.958
47 0 92.2907 16.8273 1553 103.89 1273.9 459.909
48 0 95.5454 17.7507 1696 102.982 1273.86 458.357
49 1 46.4507 11.2377 522 108.527 1273.6 482.084
50 0 49.5186 11.7532 582 107.07 1273.88 480.328
51 0 51.3962 12.5885 647 107.128 1273.85 479.27
52 0 54.1483 14.4049 780 102.515 1273.67 480.183
53 0 55.1321 14.9096 822 103.214 1273.42 478.006
54 0 55.1415 14.7439 813 104.245 1271.42 477.677
55 0 59.1326 14.4421 854 105.362 1272.24 476.222
56 0 61.1699 15.6286 956 103.971 1272.23 473.987
57 0 64.0902 14.9633 959 104.414 1273.58 474.918
58 0 65.1417 17.6692 1151 101.263 1273.34 472.333
59 0 67.1698 15.9596 1072 104.144 1273.64 471.666
60 0 69.1305 15.8685 1097 104.572 1273.27 470.681
61 0 69.2688 15.5192 1075 106.657 1272.8 467.707
62 0 74.1611 15.8574 1176 104.043 1273.26 467.005
63 0 76.081 15.5755 1185 106.203 1273.95 465.809
64 1 41.0234 12.4319 510 105.429 1274.44 482.112
65 0 41.0258 11.9193 489 105.505 1275.06 482.16
66 0 41.0158 10.3375 424 104.175 1275.55 483.189
67 0 45.0549 12.851 579 101.703 1275.92 480.447
68 0 44.0611 11.3933 502 105.402 1275.74 480.902
69 0 45.071 12.3583 557 105.456 1275.19 480.023
70 0 48.0733 14.2075 683 102.802 1275.43 478.845
71 0 49.1716 13.4427 661 105.746 1275.44 477.192
72 0 51.1223 14.8859 761 104.106 1273.25 475.783
73 0 53.2051 15.2241 810 103.479 1273.87 475.502
74 0 54.2271 15.1954 824 103.961 1274.24 475.557
75 0 56.2376 14.6877 826 103.119 1274.48 476.172
76 0 58.2921 14.7704 861 102.963 1273.34 475.067
77 0 59.0912 15.3661 908 103.613 1273.25 473.555
78 0 62.2174 16.2173 1009 101.154 1273.72 473.078
79 0 64.1132 15.5974 1000 102.619 1274.54 472.311
80 0 67.1466 17.4841 1174 98.7283 1274.38 472.596
81 0 67.0636 15.6866 1052 101.716 1274.68 473.255
82 0 70.2084 15.8243 1111 103.459 1274.42 470.262
83 0 71.1975 14.537 1035 106.429 1273.91 469.824
84 0 76.1398 17.1789 1308 101.125 1275.24 467.916
85 0 77.1481 16.3452 1261 103.097 1274.66 467.518
86 0 80.0858 15.5209 1243 106.113 1275.28 466.639
87 0 80.0832 15.6213 1251 108.132 1274.91 463.948
88 0 85.105 16.1918 1378 106.501 1274.76 463.713
89 1 41.03 11.3332 465 105.875 1274.61 483.981
90 0 42.0522 12.4131 522 105.121 1274.79 483.534
91 0 47.0867 12.1478 572 106.343 1275.45 481.434
92 0 49.162 12.0825 594 106.066 1276.45 481.525
93 0 48.0872 12.7269 612 109.93 1275.64 478.954
94 0 49.0816 13.2433 650 107.806 1276.7 478.546
95 0 52.0844 14.4189 751 105.172 1276.89 477.626
96 0 52.0389 15.0272 782 104.671 1276.51 477.095
97 0 57.1182 14.3562 820 104.69 1277.05 476.139
98 0 55.0441 13.4983 743 107.35 1277.55 476.595
99 0 59.0898 13.7926 815 107.714 1277.39 474.869
100 0 61.0914 15.0594 920 105.255 1277.98 473.832
101 0 64.0669 15.2029 974 104.097 1278.04 474.079
102 0 65.0501 14.927 971 105.305 1276.66 473.658
103 0 66.074 15.6491 1034 105.576 1276.37 472.363
104 0 66.0708 14.7266 973 108.328 1276.14 470.438
105 0 71.0895 15.4313 1097 106.229 1276.93 468.381
106 0 73.1224 15.9048 1163 106.708 1277.06 468.549
107 0 74.1304 15.6211 1158 107.393 1277.39 467.223
108 0 77.0739 14.3888 1109 110 1276.74 467.003
109 0 78.0935 14.6363 1143 110.943 1277.02 466.326
110 0 81.0761 14.0855 1142 112.836 1277.27 462.507
111 0 84.0546 15.2996 1286 109.309 1277.2 464.296
112 0 86.1049 14.6449 1261 111.875 1277.03 462.497
113 0 88.0602 15.0352 1324 111.983 1276.8 461.316
114 0 92.3429 16.103 1487 109.739 1276.3 460.077
115 0 94.1581 14.8367 1397 112.838 1276.04 459.061
116 0 98.1189 15.5729 1528 111.508 1274.86 456.829
117 0 100.182 14.1643 1419 114.452 1275.82 455.082
118 1 54.0526 11.9143 644 107.699 1275.3 479.657
119 0 55.0141 13.0512 718 105.482 1274.96 478.325
120 0 58.0958 13.6326 792 103.225 1274.1 477.596
121 0 60.0571 14.8359 891 101.701 1274.37 475.99
122 0 59.291 12.0423 714 108.325 1274.12 474.943
123 0 63.1447 14.0946 890 104.739 1274.81 474.871
124 0 66.1456 13.9087 920 105.397 1274.48 473.112
125 0 68.1769 13.465 918 107.981 1274.51 470.756
126 0 69.1818 13.7608 952 107.439 1275.36 469.722
127 0 73.1529 14.3535 1050 106.578 1274.94 469.173
128 0 74.2406 14.9244 1108 107.951 1275.31 465.693
129 0 77.1446 14.233 1098 108.153 1275.61 466.411
130 0 79.2325 14.5269 1151 108.429 1276.29 463.834
131 1 44.0342 10.242 451 107.925 1277.84 482.838
132 0 44.0352 10.4008 458 108.085 1276.65 481.934
133 0 45.0112 10.6196 478 107.272 1277.53 481.41
134 0 50.04 12.45 623 102.364 1277.97 480.111
135 0 51.0205 13.818 705 99.9901 1277.35 480.477
136 0 51.0371 13.3628 682 102.689 1276.99 478.79
137 0 54.1852 14.0998 764 100.855 1276.52 478.643
138 0 55.0333 13.7553 757 102.156 1276.31 478.719
139 0 57.0834 13.5416 773 101.856 1276.77 477.225
140 0 58.0244 13.1669 764 103.28 1276.43 476.285
141 0 61.0616 15.8037 965 97.2176 1276.47 477.316
142 0 62.1006 14.2994 888 100.815 1275.98 475.863
143 0 65.0886 13.3971 872 101.1 1276.26 475.576
144 0 68.1657 14.7582 1006 99.1282 1275.96 475.038
145 0 69.1554 14.3011 989 100.978 1276.53 472.217
146 0 71.1178 14.6658 1043 101.36 1275.61 472.389
147 0 73.1108 15.1277 1106 100.672 1276.61 469.325
148 1 39.1146 9.35713 366 103.366 1276.46 488.107
149 0 42.1075 11.8269 498 99.7028 1275.84 487.416
150 0 42.0889 12.4974 526 97.1616 1275.2 488.122
151 0 44.2458 12.7922 566 96.3993 1274.29 485.772
152 0 46.207 12.7037 587 97.3748 1274.14 485.431
153 0 46.2225 12.8076 592 99.4493 1274.46 482.794
154 0 47.2643 12.4407 588 100.087 1274.29 483.794
155 0 48.1838 11.892 573 103.658 1273.84 482.302
156 0 49.0322 12.0329 590 103.471 1275.68 481.32
157 0 50.0526 14.225 712 101.556 1275.73 477.712
158 0 53.0899 12.7143 675 104.431 1275.47 478.376
159 0 54.0991 12.7914 692 104.799 1276.03 476.116
160 0 57.041 13.2887 758 102.931 1275.66 477.794
161 0 59.05 14.039 829 103.069 1276.04 476.813
162 0 59.1132 14.3792 850 104.282 1276.01 474.927
163 0 59.1018 12.7915 756 106.824 1274.55 475.164
164 0 62.0833 13.1597 817 105.942 1274.88 472.464
165 0 65.071 13.5852 884 105.175 1274.61 471.939
166 0 66.0529 13.4892 891 104.636 1275.37 472.56
167 0 69.2059 13.4237 929 104.292 1276.24 471.898
168 0 70.1832 13.2368 929 104.962 1275.61 470.544
169 0 72.125 13.5182 975 106.392 1276.36 467.581
170 1 39.013 10.2274 399 102.985 1276.64 487.847
171 0 37.0473 8.69159 322 107.252 1276.07 488
172 0 41.0471 11.2797 463 102.41 1275.98 486.659
173 0 44.0156 11.7458 517 100.451 1275.46 487.485
174 0 44.0905 12.7692 563 99.659 1274.08 485.197
175 0 46.2646 12.515 579 101.642 1275.09 485.636
176 0 46.1754 12.0627 557 103.716 1274.63 485.359
177 0 49.1229 13.4968 663 100.261 1274.15 484.226
178 0 47.1947 11.442 540 107.12 1274.49 482.587
179 0 52.2475 14.6993 768 99.0677 1274.16 482.095
180 0 53.0308 13.4262 712 102.388 1275.51 481.985
181 0 53.1109 13.613 723 103.122 1275.23 480.539
182 0 55.0601 13.0403 718 104.568 1275.34 479.939
183 0 55.0567 12.4054 683 106.583 1274.82 478.635
184 0 57.1227 13.1822 753 104.963 1274.85 477.888
185 0 59.1115 13.2462 783 105.457 1274.91 475.599
186 0 61.1122 13.6797 836 104.239 1274.56 475.565
187 0 63.0779 13.4595 849 104.572 1273.47 474.33
188 0 65.1097 13.101 853 105.403 1273.79 474.426
189 0 65.1281 13.1894 859 105.487 1274 472.647
190 0 69.2041 14.8835 1030 102.93 1274.4 469.736
191 0 70.085 14.2541 999 105.613 1272.95 469.392
192 0 73.178 14.8542 1087 104.546 1271.79 467.856
193 0 75.2593 15.0812 1135 105.02 1272.58 464.481
194 0 77.216 14.971 1156 105.079 1273.31 464.253
195 0 78.1985 13.632 1066 143.446 1274.44 465.444
196 1 44.0679 10.3704 457 109.926 1274.76 481.908
197 0 43.075 10.1219 436 110.344 1275.11 482.677
198 0 44.0697 11.3911 502 106.888 1275.63 482.711
199 0 46.0654 11.0929 511 108.372 1274.93 481.757
200 0 47.042 12.1593 572 108.43 1275.58 478.467
201 0 52.0682 12.6949 661 104.53 1275.59 480.828
202 0 51.033 11.8943 607 107.657 1275.13 481.127
203 0 52.1376 13.3877 698 106.937 1273.5 480.14
204 0 54.1003 13.6968 741 105.883 1273.93 479.97
205 0 57.2149 14.297 818 104.73 1273.38 479.15
206 0 58.1343 12.4883 726 109.084 1273.87 479.091
207 0 58.1402 14.0866 819 105.608 1274 479.155
208 0 62.1804 14.86 924 103.413 1273.45 477.054
209 0 65.1964 13.9578 910 105.431 1273.95 477.231
210 0 64.2014 14.0028 899 106.634 1273.36 475.99
211 0 66.1767 14.8844 985 106.198 1273 474.675
212 0 70.2383 15.903 1117 103.219 1272.89 473.413
213 0 73.2734 14.6028 1070 105.322 1272.66 472.104
214 0 73.1226 13.9492 1020 107.396 1272.66 470.829
215 1 39.1685 10.3655 406 108.458 1272.77 487.833
216 0 41.0898 10.5622 434 107.189 1272.38 487.908
217 0 42.0902 11.2615 474 105.574 1272.78 487.348
218 0 44.2437 10.2161 452 109.476 1272.14 485.763
219 0 45.2243 11.1223 503 107.4 1272.2 484.344
220 0 47.162 12.3193 581 105.015 1271.99 482.608
221 0 47.3788 12.8539 609 104.878 1273 479.882
222 0 49.1462 13.3683 657 103.368 1272.35 480.102
223 0 49.1269 13.3532 656 103.066 1272.11 479.845
224 0 49.1143 13.8045 678 145.006 1271.11 480.263
225 0 51.3033 13.4884 692 102.798 1272.9 478.195
226 0 54.2339 14.4744 785 99.7236 1273.05 477.805
227 0 54.1961 13.2666 719 102.99 1273.43 475.663
228 0 58.2398 14.9898 873 97.6254 1273.26 476.592
229 0 61.1319 16.2926 996 95.6004 1274.01 474.618
230 0 61.1497 13.0009 795 101.122 1274.4 475.279
231 0 63.1642 14.6919 928 98.4062 1274.77 472.863
232 0 63.243 13.962 883 100.698 1275.11 471.755
233 0 67.1226 14.5406 976 99.7029 1275.06 470.607
234 0 69.0701 15.4046 1064 98.0771 1275.33 469.824
235 0 72.0839 15.6207 1126 97.738 1275.32 470.319
236 0 73.1468 14.3137 1047 100.953 1275.05 469.187
237 1 40.0365 11.1898 448 100.779 1276.79 487.15
238 0 40.0591 10.5344 422 103.289 1276.6 486.697
239 0 43.0404 12.5696 541 99.6747 1276.55 486.824
240 0 43.083 11.6287 501 101.798 1276.06 486.347
241 0 42.1138 10.9228 460 105.702 1275.32 484.996
242 0 47.0973 14.056 662 99.364 1274.66 484.557
243 0 49.1975 14.208 699 99.5522 1274.61 482.989
244 0 48.1821 12.7848 616 104.291 1274.59 483.417
245 0 51.1612 14.7768 756 101.083 1274.26 482.224
246 0 52.2389 13.668 714 103.646 1273.81 481.497
247 0 53.295 13.5848 724 103.243 1273.46 481.185
248 0 55.1391 14.9984 827 101.285 1272.95 478.674
249 0 55.1656 12.8885 711 105.547 1272.21 478.835
250 0 57.1425 13.5276 773 104.115 1272.79 476.109
251 0 59.1219 15.3412 907 101.032 1273.08 474.869
252 0 61.1489 14.4402 883 102.143 1273.08 474.935
253 0 64.2581 14.5818 937 101.181 1273.26 474.387
254 0 66.1814 15.8957 1052 98.1245 1273.05 473.784
255 0 68.3162 15.6039 1066 98.9887 1273.28 471.465
256 0 70.1191 14.5895 1023 100.35 1272.77 471.066
257 0 71.2234 13.928 992 102.708 1272.69 469.848
258 0 74.375 15.6639 1165 98.9665 1272.89 467.454
259 1 38.1751 10.3209 394 102.325 1273.81 483.635
260 0 42.2597 11.382 481 101.067 1273.58 482.345
261 0 44.1226 12.284 542 98.1125 1274.04 483.469
262 0 44.1481 11.4161 504 100.653 1274.28 482.081
263 0 43.2059 11.4336 494 102.921 1274.63 481.273
264 0 48.1264 11.9893 577 99.364 1275.5 481.645
265 0 48.073 13.0011 625 99.9536 1275.19 481.632
266 0 49.1395 13.9806 687 97.7001 1276.34 480.937
267 0 53.2103 13.3433 710 97.9634 1276.34 481.463
268 0 54.0892 13.5332 732 98.418 1276.48 480.672
269 0 55.132 13.6037 750 99.8253 1276.28 479.415
270 0 56.1154 14.5236 815 97.7264 1276.07 480.854
271 0 57.084 12.9108 737 102.707 1276.02 478.198
272 0 62.2048 14.7577 918 96.9096 1275.69 479.319
273 0 62.2294 14.3019 890 99.5011 1275.22 479.008
274 0 65.2114 14.8594 969 99.4892 1275.66 477.58
275 0 66.1978 14.3358 949 101.021 1275.35 475.828
276 0 68.1501 14.5708 993 100.293 1274.61 475.694
277 0 70.1904 14.5319 1020 100.417 1274.69 473.179
278 0 74.0882 14.8607 1101 100.245 1274.23 472.432
279 0 77.1922 14.3149 1105 100.752 1273.68 470.418
280 1 45.1323 11.2558 508 95.126 1274.18 490.199
281 0 45.0405 11.5008 518 97.8822 1273.95 486.824
282 0 45.0772 10.8259 488 100.166 1273.72 485.68
283 0 47.0355 12.7988 602 97.6611 1272.82 484.578
284 0 48.114 14.2578 686 96.605 1271.73 482.79
285 0 48.1275 12.3214 593 101.654 1272.12 481.234
286 0 48.0917 12.7881 615 100.621 1271.26 481.148
287 0 50.0603 12.8645 644 101.432 1270.43 479.995
288 0 53.1157 12.3127 654 100.821 1270.46 479.557
289 0 56.1477 14.2303 799 97.9374 1271.47 476.041
290 0 58.1692 14.4406 840 96.675 1271.81 477.073
291 0 59.1827 14.5144 859 97.2491 1272.36 476.547
292 0 59.1549 13.2702 785 100.986 1272.13 475.004
293 0 62.0822 15.3184 951 88.6172 1272.76 472.712
294 0 66.0858 14.2693 943 97.5069 1273 473.532
295 0 65.1587 15.1323 986 97.5416 1273.22 471.786
296 0 69.1062 13.8193 955 99.3099 1274.94 470.526
297 0 70.2285 15.1078 1061 98.2385 1275.15 469.032
298 1 38.0963 9.81723 374 100.799 1275.01 487.163
299 0 40.0493 11.6357 466 99.7039 1275.4 485.307
300 0 41.0721 11.565 475 99.6147 1276.44 487.215
301 0 42.0247 11.2315 472 98.7775 1275.15 487.672
302 0 45.1059 12.6813 572 96.8217 1276.23 487.453
303 0 46.0928 12.9738 598 98.0619 1275.13 486.375
304 0 47.1656 13.336 629 98.9873 1274.01 483.049
305 0 49.0923 14.5848 716 96.2193 1274.62 484.454
306 0 51.0509 16.2387 829 93.6236 1275.05 484.351
307 0 52.097 15.2024 792 95.5505 1274.73 483.169
308 0 52.1293 13.3131 694 100.084 1273.51 482.414
309 0 53.0851 12.9415 687 101.263 1272.74 481.854
310 0 57.0557 14.109 805 98.2634 1272.45 480.913
311 0 57.2581 15.4389 884 97.7602 1272.06 480.85
312 0 58.1361 13.9672 812 99.2475 1271.83 479.683
313 0 61.2821 14.0987 864 98.7685 1272.07 476.051
314 0 63.1876 13.9268 880 98.6318 1272.45 476.201
315 0 66.4364 16.1207 1071 95.1755 1271.68 473.337
316 0 68.31 13.9658 954 97.7809 1272.24 474.579
317 1 36.0531 11.3167 408 97.4657 1271.91 488.855
318 0 38.2256 12.0861 462 96.6905 1271.54 486.403
319 0 38.2681 9.90382 379 97.5989 1272.56 487.704
320 0 42.3661 12.2976 521 95.6641 1272.26 483.61
321 0 42.2224 12.8131 541 93.8558 1272.93 483.963
322 0 44.2477 12.3396 546 93.6648 1272.9 483.916
323 0 47.2473 13.6939 647 91.7883 1273.19 483.019
324 0 47.2473 13.6939 647 143.096 1273.18 482.934
325 0 48.1847 13.6143 656 93.8918 1274.55 481.851
326 0 51.1583 15.0318 769 91.6957 1274.87 479.546
327 0 54.1185 13.9878 757 93.2497 1275.97 480.524
328 0 55.0726 13.8 760 93.7487 1276.3 479.587
329 0 56.167 14.4925 814 92.8268 1275.5 480.059
330 0 56.119 14.0059 786 95.3321 1276.49 477.931
331 0 60.1069 13.6257 819 94.2259 1276.9 479.769
332 0 64.158 15.1969 975 91.6667 1276.73 478.119
333 0 66.1099 15.8978 1051 91.3406 1277.16 476.753
334 0 67.203 13.5559 911 95.9594 1276.62 475.806
335 0 70.1837 14.2911 1003 93.6002 1275.33 477.411
336 0 73.2842 14.7508 1081 94.0361 1275.36 474.388
337 0 76.4536 15.8397 1211 92.474 1274.86 473.597
338 1 38.072 10.3488 394 91.6447 1274.83 494.312
339 0 40.0564 10.3105 413 94.4576 1275 490.712
340 0 41.1113 10.5324 433 93.5058 1274.17 492.037
341 0 43.1562 10.4041 449 94.2428 1273.72 490.561
342 0 44.1042 11.7903 520 92.5923 1273.19 488.542
343 0 44.1042 11.7222 517 132.025 1273.22 488.505
344 0 48.0504 12.8615 618 92.1958 1271.95 483.793
345 0 48.0611 12.0055 577 93.948 1272.23 483.3
346 0 51.1371 13.5127 691 91.8263 1271.69 480.974
347 0 52.0926 12.0363 627 93.134 1271.14 481.818
348 0 55.0549 14.0224 772 90.5324 1271.73 478.775
349 0 55.0614 12.368 681 93.8781 1272.08 475.583
350 0 57.0244 12.5911 718 94.8036 1271.61 476.553
351 0 60.0449 14.0728 845 91.7101 1271.83 474.742
352 0 63.1468 13.0965 827 93.6167 1272.21 472.926
353 0 65.0822 13.6596 889 93.0416 1272.4 472.386
354 0 67.0838 15.0558 1010 91.2168 1273.32 472.335
355 0 69.0869 14.1127 975 93.2277 1274.01 471.326
356 0 71.152 13.1128 933 95.1061 1274.89 470.06
357 0 74.1213 14.3144 1061 93.2828 1275.53 468.439
358 0 76.1013 14.0733 1071 94.2325 1274.99 467.731
359 0 78.2769 13.1456 1029 96.5112 1275.09 465.735
360 0 79.225 13.0893 1037 97.4609 1275.9 465.957
361 0 79.225 13.001 1030 146.371 1275.89 465.891
362 1 46.1622 11.4163 527 93.2505 1276.46 487.055
363 0 49.1151 9.6508 474 96.6287 1276.1 485.245
364 0 50.0764 11.8419 593 91.6627 1275.49 487.31
365 0 53.2086 12.0657 642 95.0078 1275.31 483.813
366 0 53.2086 11.953 636 139.319 1276.29 483.73
367 0 57.1241 13.0068 743 93.3445 1274.97 482.351
368 0 57.1021 13.8173 789 93.4588 1274.81 480.763
369 0 59.2337 14.2824 846 91.5697 1275.2 480.982
370 0 62.108 13.4443 835 91.2503 1274.96 482.195
371 0 63.0968 13.6457 861 93.1672 1273.8 477.884
372 0 67.1466 15.1907 1020 90.5275 1273.69 476.868
373 0 68.2032 14.2662 973 92.4728 1272.7 474.493
374 0 71.119 14.8765 1058 92.1597 1272.25 475.22
375 0 72.0891 15.7167 1133 92.5384 1271.06 473.843
376 0 75.2675 16.2753 1225 90.6914 1271.66 469.264
377 0 78.2064 15.702 1228 90.7842 1270.75 469.677
378 0 80.4148 14.6366 1177 93.8088 1270.42 467.504
379 1 45.3645 12.146 551 93.7913 1270.77 485.058
380 0 43.1749 11.1639 482 96.6286 1270.62 483.929
381 0 47.1562 12.2571 578 94.1055 1270.54 483.898
382 0 50.0769 14.4777 725 90.8428 1270.21 482.508
383 0 49.1256 12.3561 607 96.5091 1271.13 482.061
384 0 51.1589 13.6438 698 95.2479 1271.63 481.656
385 0 53.232 15.4418 822 92.8528 1271.73 479.618
386 0 54.1011 14.2326 770 95.1532 1272.39 478.225
387 0 55.0536 13.0237 717 95.3947 1274.09 480.524
388 0 56.0243 14.2617 799 94.8936 1275.46 478.546
389 0 59.1126 15.6989 928 91.8588 1276.07 478.329
390 0 59.0502 13.5309 799 96.6846 1276.11 478.233
391 0 62.0698 13.5171 839 96.0989 1277.01 476.17
392 0 66.1014 17.8816 1182 88.0059 1277.21 476.339
393 0 68.12 15.9131 1084 92.5683 1277.41 475.085
394 0 71.1575 16.3581 1164 91.2998 1277.45 475.628
395 0 74.1242 15.6359 1159 92.0569 1277.81 474.528
396 0 75.2421 14.1543 1065 95.538 1277.72 473.047
397 0 78.1031 16.5294 1291 91.8459 1276.76 471.504
398 0 81.1993 15.4189 1252 93.5615 1275.73 471.042
399 1 46.0141 11.9529 550 90.4855 1275.94 490.744
400 0 46.0141 11.9963 552 145.105 1275.97 490.605
401 0 47.0658 11.2183 528 93.9148 1274.5 488.18
402 0 47.0589 12.3462 581 93.1188 1274.21 486.518
403 0 52.0519 14.7737 769 87.0182 1273.79 485.525
404 0 51.0493 12.6544 646 92.0851 1272.99 483.652
405 0 51.0493 12.772 652 140.531 1272.98 483.638
406 0 54.0471 14.3579 776 89.1173 1271.92 479.936
407 0 58.0519 15.6412 908 87.348 1271.17 480.416
408 0 58.0898 13.9956 813 91.2337 1271.83 477.589
409 0 58.0898 13.9439 810 137.672 1272.84 477.527
410 0 58.0835 13.9282 809 137.221 1273.83 477.528
411 0 63.0324 13.9611 880 92.2364 1270.6 474.074
412 0 67.0674 16.4163 1101 87.1353 1271.82 472.166
413 0 67.1326 13.7787 925 92.6962 1272.3 471.272
414 0 71.111 14.5969 1038 90.8555 1272.67 470.001
415 0 74.1274 14.7719 1095 91.9516 1273.87 468.311
416 0 75.1975 12.8462 966 95.0466 1273.7 467.558
417 0 77.1194 14.5359 1121 91.6878 1275.59 467.321
418 0 81.1173 13.9428 1131 92.8851 1276.56 464.239
419 1 42.0327 9.39744 395 94.2532 1276.99 483.942
420 0 45.0592 12.1618 548 91.135 1276.88 484.438
421 0 46.0469 9.85952 454 93.3877 1277.26 486.117
422 0 45.0334 12.524 564 91.6773 1277.96 483.957
423 0 52.0628 13.6566 711 89.6934 1278.38 483.402
424 0 51.0422 11.6178 593 94.5767 1277.48 482.373
425 0 55.0963 12.3965 683 92.8551 1277.75 482.48
426 0 55.0963 12.2694 676 133.704 1276.75 482.345
427 0 57.0652 14.1417 807 91.2243 1275.23 481.354
428 0 61.1179 15.6255 955 88.0597 1276.03 480.472
429 0 64.1773 13.7276 881 90.6402 1275.05 480.41
430 0 66.1298 14.6984 972 90.0947 1274.41 478.929
431 0 66.1298 14.8042 979 131.617 1275.44 479.012
432 0 71.1385 14.9427 1063 90.3161 1272.77 474.442
433 0 72.0926 14.6617 1057 91.7881 1271.96 472.893
434 0 74.1557 15.5079 1150 91.2087 1271.61 471.665
435 0 78.0991 15.0962 1179 90.9304 1271.6 470.507
436 0 82.2178 18.6943 1537 84.7899 1271.45 469.006
437 0 84.2681 15.9728 1346 89.6798 1270.5 468.244
438 1 46.13 11.9662 552 90.913 1271.52 486.513
439 0 48.0238 11.2028 538 93.3104 1271.17 483.784
440 0 49.0632 12.2495 601 92.3361 1270.58 482.369
441 0 50.1042 13.2723 665 92.1368 1270.15 481.609
442 0 52.0609 14.387 749 92.6208 1269.57 478.203
443 0 54.0554 14.9476 808 91.7698 1270.83 478.582
444 0 55.0994 14.864 819 92.9573 1271.84 479.538
445 0 59.0469 16.9526 1001 90.0879 1272.61 477.428
446 0 58.1158 14.5227 844 97.8555 1272.98 475.095
447 0 60.025 16.2599 976 95.4877 1274.32 476.269
448 0 60.0547 15.1862 912 99.3531 1275.04 475.254
449 0 64.0372 15.1787 972 98.0926 1276.26 476.788
450 0 68.1846 16.8366 1148 95.2395 1276.16 475.723
451 0 69.2175 16.4554 1139 96.482 1277.71 476.764
452 0 74.2493 17.5221 1301 95.0054 1278.2 475.118
453 0 74.1219 15.8927 1178 101.178 1278.13 472.486
454 1 40.0218 13.6676 547 99.426 1278.55 492.435
455 0 42.054 11.9132 501 104.281 1277.81 490.782
456 0 45.0841 11.8889 536 103.909 1276.96 491.386
457 0 44.0475 13.7352 605 102.033 1277.5 491.111
458 0 46.0495 13.442 619 103.36 1276.38 490.045
459 0 47.0899 14.2918 673 100.568 1275.76 489.201
460 0 50.1129 15.6846 786 98.2481 1275.96 488.21
461 0 51.0191 15.7784 805 99.5578 1274.66 487.124
462 0 54.154 14.0525 761 101.577 1273.51 486.716
463 0 56.0815 14.8177 831 100.32 1272.46 484.369
464 0 57.0528 16.4935 941 97.8438 1272.25 482.213
465 0 58.0465 14.3333 832 102.048 1270.72 481.484
466 0 60.0774 14.6478 880 102.05 1270.97 478.057
467 0 63.0709 16.8224 1061 97.263 1270.79 476.927
468 0 66.129 15.379 1017 97.9331 1271.25 475.377
469 0 66.2851 15.3126 1015 99.466 1270.61 473.198
470 0 71.1139 15.8056 1124 96.3763 1269.6 472.782
471 0 73.1822 17.1353 1254 94.0263 1270.62 472.553
472 0 73.163 14.8982 1090 99.3972 1271.16 469.362
473 1 41.2214 13.4154 553 96.0561 1272.3 485.28
474 0 39.2059 11.2228 440 99.825 1273.12 485.589
475 0 42.3896 11.8897 504 95.7679 1273.5 484.093
476 0 45.2803 13.1183 594 93.3771 1274.96 482.109
477 0 43.263 12.4356 538 94.7268 1275.51 482.554
478 0 47.141 14.7006 693 90.6652 1276.41 484.82
479 0 48.2719 14.7705 713 92.5694 1277.95 484.161
480 0 51.2767 15.2311 781 91.4776 1278.43 483.845
481 0 52.1744 16.7323 873 90.11 1278.84 483.464
482 0 53.3113 15.3438 818 92.7628 1278.88 484.616
483 0 56.1833 14.0255 788 94.1789 1278.27 485.976
484 0 57.155 14.6094 835 94.8096 1277.55 482.953
485 0 62.2157 16.1374 1004 91.0966 1277.22 482.587
486 0 61.2117 15.1768 929 94.2078 1276.79 482.505
487 0 64.2849 15.7113 1010 93.7683 1276.18 480.978
488 0 67.0927 16.4847 1106 91.9638 1276.18 479.97
489 0 71.1294 15.9849 1137 92.409 1275.1 479.431
490 1 34.0148 10.4072 354 95.661 1275.34 498.28
491 0 39.1572 12.2583 480 95.5583 1273.87 493.269
492 0 41.1309 12.4967 514 95.3521 1272.87 492.918
493 0 39.1277 11.4752 449 99.5234 1271.72 491.067
494 0 45.1514 14.3296 647 94.5997 1271.01 487.355
495 0 44.1986 12.1723 538 98.9257 1270.11 487.173
496 0 47.1101 14.2432 671 96.5022 1269.77 484.383
497 0 49.2033 15.1819 747 95.3199 1269.34 482.436
498 0 49.1217 14.515 713 97.798 1269.34 482.83
499 0 50.1546 16.6884 837 94.7073 1268.91 482.54
500 0 52.3502 14.021 734 100.905 1268.74 478.981
501 0 55.1236 14.4766 798 99.8596 1269.89 479.34
502 0 58.2334 16.3308 951 96.6456 1270.31 477.612
503 0 58.2399 15.5392 905 99.7326 1270.97 476.89
504 0 60.1643 14.2609 858 103.521 1271.76 474.674
505 0 63.1935 14.8433 938 102.257 1272.44 474.276
506 0 65.1684 15.4983 1010 101.593 1273.67 473.392
507 0 67.3547 16.9105 1139 99.5426 1276.18 473.724
508 0 69.4743 16.1067 1119 102.795 1278.18 472.964
509 0 70.3511 15.38 1082 106.367 1279.21 470.603
510 1 38.3488 12.4384 477 104.767 1279.08 490.042
511 0 38.3187 11.3 433 107.533 1280.01 491.069
512 0 39.2418 11.3145 444 111.595 1279.71 491.671
513 0 42.2934 13.43 568 108.653 1279.11 491.778
514 0 44.2462 13.6057 602 111.203 1278.26 491.757
515 0 48.1068 13.5947 654 112.466 1276.36 490.728
516 0 48.2087 13.7527 663 115.627 1275.28 491.804
517 0 50.1489 14.8956 747 110.594 1274.29 491.238
518 0 52.4296 14.5528 763 110.19 1273.91 489.465
519 0 53.3447 13.872 740 111.536 1272.41 488.58
520 0 55.1403 14.055 775 110.822 1271.61 487.001
521 0 60.3511 15.9069 960 106.005 1270.32 484.879
522 0 60.2664 15.5476 937 109.186 1269.63 482.157
523 0 63.4466 15.9819 1014 107.255 1268.62 480.809
524 0 66.3617 15.0087 996 110.005 1268.15 479.316
525 0 67.5815 15.448 1044 110.022 1267.16 477.616
526 0 70.4936 15.3489 1082 111.211 1266.63 476.3
527 0 72.446 15.1837 1100 112.997 1266.15 473.092
528 0 74.3817 15.6625 1165 113.275 1265.29 472.518
529 0 76.3293 15.5641 1188 114.104 1265.1 470.678
530 0 81.4355 15.3987 1254 113.608 1265.36 468.729
531 0 85.2656 17.1347 1461 110.198 1265.53 468.175
532 1 46.181 11.1734 516 115.928 1265.72 487.11
533 0 45.071 11.2933 509 116.65 1266.69 486.892
534 0 47.0976 12.2511 577 112.104 1268.47 488.711
535 0 51.0479 13.3208 680 110.588 1270.98 487.374
536 0 50.1155 13.6884 686 109.838 1273.79 488.267
537 0 53.1139 15.7209 835 106.085 1274.31 485.315
538 0 56.0693 14.8923 835 108.127 1275.59 485.523
539 0 59.1092 15.5813 921 106.081 1276.26 487.838
540 0 62.3663 14.976 934 108.026 1277.39 488.163
541 0 65.1535 15.4405 1006 107.453 1276.49 488.04
542 0 68.2003 15.6011 1064 106.813 1275.32 486.858
543 0 70.3013 14.2245 1000 111.27 1273.14 483.836
544 0 74.1289 16.4848 1222 106.117 1272.05 483.75
545 0 74.2328 14.2659 1059 112.539 1270.51 482.358
546 0 78.0831 16.5209 1290 107.626 1268.91 478.889
547 0 80.1483 14.3858 1153 112.072 1267.26 478.205
548 0 84.1631 14.662 1234 111.472 1266.4 475.217
549 0 88.4014 15.5201 1372 108.944 1265.16 471.107
550 0 88.319 14.5382 1284 112.025 1263.93 469.19
551 0 93.5112 15.1212 1414 109.578 1263.51 466.568
552 1 51.1716 9.61471 492 105.543 1262.93 489.813
553 0 53.2397 9.48541 505 105.172 1261.66 488.905
554 0 54.2901 11.5306 626 105.123 1262.03 484.11
555 0 59.357 12.6691 752 101.894 1262.05 480.807
556 0 59.2446 11.6466 690 104.107 1262.5 480.077
557 0 61.3351 12.5866 772 105.477 1262.97 477.547
558 0 64.2121 14.0316 901 103.253 1263.29 473.762
559 0 65.1988 12.5923 821 104.962 1264.3 474
560 0 67.2915 14.2663 960 101.607 1265.76 471.776
561 0 69.3464 13.5119 937 103.838 1266.74 469.716
562 0 71.3313 13.5284 965 103.99 1268.65 470.031
563 0 73.3361 12.8313 941 105.61 1269.97 469.588
564 0 76.4096 12.9303 988 106.76 1272.06 468.732
565 0 79.3578 13.5462 1075 105.546 1274.65 467.477
566 0 84.3824 14.1854 1197 104.723 1276.67 465.812
567 0 88.2909 14.3276 1265 104.42 1277.01 466.429
568 1 46.2911 9.02982 418 102.084 1277.63 490.522
569 0 47.2284 10.8833 514 101.004 1277.35 490.551
570 0 50.4079 10.7523 542 100.991 1277.67 490.413
571 0 52.3924 10.3641 543 104.431 1276.22 487.915
572 0 55.1531 13.2359 730 100.777 1273.05 486.488
573 0 57.1297 14.1958 811 100.891 1272.83 486.21
574 0 60.1668 13.9778 841 102.373 1273.25 486.873
575 0 64.3038 14.8047 952 101.632 1272.02 485.934
576 0 67.395 13.7399 926 104.423 1271.57 483.624
577 0 69.2757 13.3958 928 106.006 1269.84 483.107
578 0 71.3745 13.6884 977 106.045 1268.95 480.168
579 0 74.4244 13.9605 1039 106.073 1267.37 480.199
580 0 74.4244 14.0545 1046 143.773 1266.39 480.189
581 0 78.4326 14.5858 1144 107.508 1266.08 474.272
582 0 82.2677 15.6197 1285 105.851 1264.89 472.192
583 1 44.2065 11.4689 507 104.002 1265.23 493.349
584 0 44.0937 10.6591 470 109.723 1265.12 489.562
585 0 47.157 11.5359 544 106.965 1264.23 489.428
586 0 49.1122 12.5427 616 106.213 1264.37 485.813
587 0 51.136 12.7503 652 105.752 1265.08 484.333
588 0 53.0943 12.6944 674 107.42 1265.72 482.469
589 0 54.1904 14.9104 808 103.28 1266.81 480.649
590 0 58.2279 15.3535 894 100.648 1267.48 479.609
591 0 58.2109 13.9665 813 104.678 1267.53 477.79
592 0 58.1587 13.4632 783 106.238 1269.79 479.054
593 0 60.1478 13.7993 830 106.239 1272.29 480.34
594 0 62.1228 13.6987 851 107.431 1274.43 479.92
595 0 64.0624 15.5005 993 104.665 1275.58 478.91
596 0 68.1964 15.3674 1048 105.47 1275.91 478.102
597 0 69.1603 14.4158 997 108.434 1275.95 478.983
598 0 74.2438 15.2605 1133 106.156 1277.05 478.775
599 1 39.0874 10.5149 411 104.168 1276.44 499.212
600 0 38.0596 9.90551 377 153.944 1275.39 498.361
601 0 41.1508 11.2999 465 106.284 1272.99 499.29
602 0 43.1366 11.5679 499 106.084 1272.49 499.15
603 0 44.1984 12.2403 541 103.756 1270.78 499.726
604 0 48.2038 12.6131 608 98.7664 1269.69 500.266
605 0 48.243 14.0953 680 95.9956 1267.01 497.582
606 0 50.1791 13.4319 674 96.9139 1265.29 499.3
607 0 54.201 14.151 767 93.6089 1264.48 499.055
608 0 55.1492 14.1978 783 94.6411 1262.54 496.835
609 0 56.0835 13.5869 762 96.2152 1262.83 494.759
610 0 60.1562 15.8255 952 92.0284 1262.19 494.099
611 0 61.1699 14.239 871 96.5821 1261.25 492.799
612 0 63.2493 13.7235 868 98.5 1260.55 491.843
613 0 66.1736 14.6433 969 98.2828 1260.46 490.574
614 0 68.1813 13.2001 900 100.983 1260.43 487.341
615 0 71.1425 13.6627 972 99.2819 1260.5 484.951
616 0 74.2488 14.1012 1047 99.6351 1259.51 482.143
617 1 40.3226 10.6144 428 100.009 1260.89 498.322
618 0 40.1841 9.05831 364 99.4368 1261.31 499.907
619 0 44.2634 11.0249 488 100.592 1261.36 493.518
620 0 46.33 11.267 522 98.3812 1262.64 495.444
621 0 47.0857 10.1305 477 102.495 1263.74 494.843
622 0 50.1424 12.9232 648 97.3302 1264.03 493.383
623 0 52.1415 13.0223 679 97.729 1266.55 493.433
624 0 54.0675 12.8913 697 98.3544 1268.27 494.103
625 0 57.1426 11.7776 673 100.507 1268.48 493.548
626 0 58.1386 13.1582 765 97.0614 1269.46 493.671
627 0 60.0945 14.4106 866 97.4434 1268.98 489.48
628 0 62.1664 14.5577 905 97.1392 1268.96 490.822
629 0 65.1352 13.234 862 99.7935 1268 492.169
630 0 69.2058 13.915 963 97.9948 1267.35 492.867
631 0 71.0711 13.8172 982 98.7811 1267.19 493.183
632 0 75.1054 15.7113 1180 93.5949 1267.23 491.259
633 0 77.1668 14.0864 1087 95.8675 1266.12 492.799
634 0 80.1191 14.3911 1153 96.0009 1264.25 490.059
635 0 83.0775 13.8064 1147 96.8099 1263.69 488.472
636 0 84.1049 13.5902 1143 97.7585 1261.88 484.127
637 1 42.0471 9.39423 395 94.1063 1261.53 507.949
638 0 46.0311 11.5791 533 90.6735 1259 505.105
639 0 47.0615 11.0919 522 90.9157 1257.75 502.78
640 0 49.0143 13.0982 642 86.4798 1257.21 499.508
641 0 48.0455 11.6972 562 89.9769 1256.48 498.931
642 0 51.101 13.8745 709 85.244 1256.58 497.701
643 0 51.0258 13.503 689 86.3033 1256.8 497.186
644 0 52.2634 14.5417 760 85.7395 1256.23 495.079
645 0 52.0911 13.3804 697 87.9125 1257.12 495.297
646 0 54.1232 15.3723 832 85.1202 1258.22 493.855
647 0 55.1254 14.0044 772 86.1775 1259.75 493.675
648 0 53.1015 13.5213 718 88.3259 1260.79 491.231
649 0 53.1262 14.7761 785 86.4777 1261.59 492.257
650 0 55.1188 13.9335 768 86.6797 1263.35 490.917
651 0 57.1241 14.8274 847 84.3979 1265.11 491.178
652 0 58.1129 15.1946 883 82.4689 1266.02 492.396
653 0 57.0266 13.292 758 85.033 1267.8 492.916
654 0 57.1405 13.3005 760 84.9355 1268.23 490.799
655 0 60.1293 14.9677 900 81.0578 1269.73 493.529
656 0 59.0328 14.6529 865 82.4855 1268.99 492.599
657 0 60.1338 14.817 891 81.7744 1268.95 492.929
658 0 58.2584 13.6289 794 84.1763 1268.54 493.228
659 0 62.0825 15.576 967 80.5522 1268.1 494.952
660 0 59.1802 14.346 849 83.2014 1267.1 493.164
