time division length width area intensity CMx CMy
0 0 34.0581 14.5634 496 110.454 1119.99 502.238
1 0 33.3297 13.5615 452 116.009 1120.51 502.425
2 0 34.3046 12.6222 433 118.522 1121.54 502.236
3 0 35.2724 13.9486 492 114.108 1121.57 500.549
4 0 35.2279 14.534 512 112.408 1121.96 500.945
5 0 35.1165 14.1244 496 114.226 1120.75 500.516
6 0 35.1154 12.9288 454 117.54 1120.53 501.553
7 0 38.1156 13.8526 528 110.034 1121.27 500.765
8 0 38.1901 13.8256 528 112.968 1120.09 499.4
9 0 37.3098 15.4651 577 108.633 1120.92 499.856
10 0 38.2256 13.8912 531 114.386 1120.48 498.527
11 0 38.1784 14.5632 556 113.876 1120.77 498.417
12 0 39.2924 14.4303 567 112.748 1121.61 499.531
13 0 41.2003 14.6358 603 110.244 1121.47 498.638
14 0 42.2979 14.5161 614 112.389 1121.79 497.295
15 0 44.2568 16.2461 719 106.469 1120.75 497.839
16 0 42.1648 13.7081 578 113.753 1120.86 497.789
17 0 44.1263 14.7078 649 112.602 1120.74 497.042
18 0 47.1212 14.4733 682 112.387 1120.77 496.421
19 0 47.258 14.9181 705 111.128 1120.97 497.458
20 0 48.2913 16.1313 779 110.026 1120.35 494.386
21 0 49.356 16.4317 811 109.909 1121.1 493.99
22 0 49.0584 13.7183 673 116.704 1122.71 493.886
23 0 51.1203 14.9647 765 115.022 1122.46 493.153
24 0 51.1893 13.9092 712 117.407 1122.71 493.567
25 0 52.1645 14.7993 772 115.865 1122.84 493.119
26 0 55.2599 15.0742 833 114.968 1123.61 491.525
27 0 56.1504 14.8352 833 115.379 1123.98 490.52
28 0 60.4141 15.6917 948 112.199 1123.97 489.004
29 0 60.1343 16.2802 979 110.651 1122.92 488.124
30 0 63.1041 16.8927 1066 107.974 1122.71 489.324
31 0 62.1696 14.8465 923 113.779 1122.77 487.515
32 0 67.0806 15.5634 1044 111.275 1122.47 485.957
33 0 69.1878 16.9683 1174 108.256 1123.21 483.437
34 0 71.172 15.1605 1079 112.283 1123.09 483.522
35 0 74.1568 16.4112 1217 109.814 1123.03 482.805
36 0 76.3226 15.5917 1190 112.896 1123.24 481.681
37 0 79.1102 17.128 1355 109.415 1123.36 481.081
38 1 41.0561 12.008 493 116.462 1123.78 497.998
39 0 40.1014 10.2989 413 118.855 1124.01 500.015
40 0 43.021 13.598 585 113.732 1124.48 497.373
41 0 44.0225 11.9939 528 115.358 1124.3 499.633
42 0 45.0231 13.3709 602 115.073 1124.72 497.553
43 0 48.1551 14.7232 709 111.571 1124.58 497.788
44 0 49.1293 14.1463 695 113.999 1124.56 496.983
45 0 52.3686 16.2311 850 108.546 1125.12 496.796
46 0 51.1156 14.5161 742 114.787 1125.56 496.177
47 0 55.2332 16.0592 887 111.135 1125.74 495.469
48 0 54.1266 14.9464 809 115.983 1125.57 495.22
49 0 57.1755 15.3737 879 115.676 1125.38 493.725
50 0 60.1112 14.9556 899 115.127 1124.58 493.274
51 0 61.2532 14.5135 889 118.048 1125.33 493.093
52 0 64.2074 14.3909 924 116.663 1125.02 493.531
53 0 67.0698 15.4615 1037 114.957 1125.2 493.035
54 0 67.1103 15.3032 1027 117.179 1125.53 491.497
55 0 69.128 15.6087 1079 117.874 1125.6 491.399
56 0 69.2664 15.4332 1069 122.027 1125.41 488.661
57 0 73.0572 15.7274 1149 120.478 1125.57 489.624
58 0 74.1408 15.4571 1146 124.13 1124.97 487.951
59 0 76.2225 16.0451 1223 124.359 1125.2 485.052
60 0 77.2013 14.7407 1138 126.746 1125.9 487.168
61 0 81.1818 15.4468 1254 124.323 1125.86 484.752
62 0 83.122 13.6787 1137 125.818 1126.01 483.961
63 0 83.1961 14.2675 1187 128.156 1126.86 484.114
64 1 46.0399 12.9887 598 122.853 1126.16 500.05
65 0 45.0604 12.2058 550 126.551 1126.52 499.689
66 0 48.2138 13.212 637 120.722 1126.79 499.669
67 0 49.1259 14.3916 707 120.7 1126.99 498.344
68 0 51.0319 13.9912 714 123.234 1127.04 497.535
69 0 50.139 13.5224 678 126.54 1126.12 498.333
70 0 52.1054 13.0313 679 128.673 1126.33 495.809
71 0 55.1677 13.0874 722 127.359 1127.03 496.655
72 0 57.1511 14.138 808 126.176 1124.76 495.519
73 0 57.1219 13.3049 760 131.346 1125.8 494.2
74 0 59.298 13.9465 827 129.048 1125.8 494.509
75 0 62.1818 13.2354 823 130.25 1126.84 493.835
76 0 65.0434 14.7901 962 127.709 1127.24 491.354
77 0 70.0343 14.7499 1033 122.973 1127.6 491.634
78 0 70.1276 14.6447 1027 125.441 1127.67 491.087
79 0 73.0923 14.1328 1033 127.348 1128.67 490.514
80 1 40.0633 11.7314 470 116.713 1128.71 505.411
81 0 41.0363 13.9876 574 115.805 1127.57 502.228
82 0 43.0307 14.5942 628 113.943 1127.08 502.787
83 0 45.0496 14.2066 640 115.8 1128.05 501.619
84 0 45.0539 12.6293 569 119.629 1128.56 501.227
85 0 46.0878 13.4743 621 120.193 1127.68 499.815
86 0 48.0799 13.8311 665 118.776 1127.26 500.063
87 0 49.1962 13.6596 672 120.586 1127.16 498.814
88 0 51.0958 13.4062 685 121.67 1127.14 497.46
89 0 52.0332 13.0109 677 122.332 1126.97 495.864
90 0 52.102 13.3968 698 122.428 1127.77 494.686
91 0 55.0796 14.6515 807 118.68 1127.73 492.779
92 0 55.0796 14.6334 806 158.67 1127.71 492.738
93 0 57.3597 13.1626 755 121.183 1127.33 492.099
94 0 60.1723 13.3783 805 120.92 1128.02 489.032
95 0 63.2443 14.1198 893 117.365 1128.16 489.009
96 0 65.2127 14.0003 913 115.917 1128.41 488.579
97 1 33.1323 9.8997 328 114.988 1128.45 504.939
98 0 35.0121 12.2529 429 112.34 1128.52 501.83
99 0 34.0802 9.44829 322 116.531 1127.48 503.991
100 0 37.0465 10.4193 386 114.093 1127.22 503.212
101 0 39.1179 11.8872 465 111.583 1127.77 501
102 0 39.0754 10.6973 418 112.51 1127.48 502.435
103 0 43.049 13.9376 600 106.35 1128.62 499.852
104 0 41.0241 12.0173 493 111.221 1128.82 499.404
105 0 43.0719 12.5604 541 112.224 1128.2 498.174
106 0 43.0955 12.8088 552 113.464 1128.58 498.672
107 0 47.1089 12.9063 608 109.91 1127.59 499.41
108 0 48.1314 12.3204 593 112.354 1127.34 498.293
109 0 49.0887 12.8339 630 112.283 1127.83 498.949
110 0 52.1266 13.4288 700 111.401 1127.29 497.361
111 0 52.1128 14.3343 747 110.013 1127.17 495.98
112 0 55.0989 13.4485 741 110.405 1127.35 495.966
113 0 57.1081 13.886 793 110.021 1127.43 494.675
114 0 58.1031 13.3556 776 111.378 1127.74 494.421
115 0 58.236 12.7413 742 114.278 1128.88 492.154
116 1 33.038 9.59502 317 112.088 1127.31 507.186
117 0 31.0106 10.5448 327 114.939 1127.66 505.217
118 0 33.0458 10.4098 344 111.323 1126.74 506.416
119 0 33.0075 9.99774 330 112.691 1126.85 505.573
120 0 35.0112 12.9101 452 106.936 1128.35 504.073
121 0 36.0385 11.5987 418 109.242 1126.73 503.84
122 0 38.015 12.5477 477 106.084 1126.69 503.321
123 0 40.0336 13.7135 549 102.73 1127.24 502.989
124 0 39.1174 11.8362 463 108.596 1127.46 502.933
125 0 39.0481 11.6779 456 110.191 1126.96 502.314
126 0 41.0862 12.9484 532 107.836 1126.89 500.414
127 0 43.0556 14.911 642 103.989 1126.82 499.998
128 0 44.0709 14.6355 645 106.767 1126.71 498.34
129 0 45.1055 14.1003 636 108.198 1127.97 498.965
130 0 46.0749 14.802 682 107.065 1128.02 498.642
131 0 49.1661 14.5425 715 106.606 1128.92 497.648
132 0 49.0356 13.8879 681 108.211 1128.28 497.991
133 0 52.0893 14.7823 770 105.887 1128.76 495.408
134 0 54.1441 16.1791 876 101.739 1129.14 495.817
135 0 55.0529 15.2944 842 104.685 1129.61 494.523
136 0 57.0277 13.6776 780 108.341 1129.17 494.413
137 0 59.1375 15.354 908 104.536 1128.54 493.101
138 0 60.2051 13.8526 834 108.293 1128.19 492.188
139 0 64.0726 14.468 927 106.197 1128.23 491.947
140 0 65.0571 14.6179 951 108.203 1127.93 490.559
141 0 68.112 14.1532 964 109.154 1128.88 491.663
142 0 70.2485 16.1142 1132 105.406 1128.88 490.147
143 1 38.043 10.4355 397 108.788 1129.88 507.101
144 0 37.125 11.5825 430 109.7 1129.15 506.079
145 0 40.154 12.1781 489 108.391 1129.24 505.098
146 0 42.0438 11.488 483 109.665 1128.88 504.019
147 0 40.029 13.6651 547 107.34 1127.87 503.419
148 0 44.1305 13.596 600 105.587 1127.28 503.045
149 0 44.1527 13.0456 576 107.872 1126.86 502.969
150 0 48.1454 13.2515 638 105.121 1126.59 501.931
151 0 47.1567 13.2113 623 107.112 1126.21 500.583
152 0 49.0851 14.1183 693 106.004 1126.22 498.924
153 0 49.1717 13.1986 649 109.005 1126.17 498.892
154 0 50.1274 13.7051 687 108.905 1125.98 497.108
155 0 52.1529 13.4796 703 109.06 1125.72 496.058
156 0 53.0895 13.1099 696 109.884 1125.99 495.121
157 0 56.2322 13.6043 765 107.754 1125.96 493.357
158 0 58.12 14.4012 837 105.638 1126.27 493.823
159 0 59.1883 14.8002 876 104.647 1126.73 491.481
160 0 61.1283 13.1363 803 108.386 1127.05 491.09
161 0 64.1157 13.3353 855 109.364 1127 489.506
162 1 35.1801 10.3468 364 110.893 1127.74 502.53
163 0 35.0776 10.8331 380 109.282 1128.06 503.65
164 0 37.0888 11.2702 418 109.151 1129.48 502.565
165 0 38.0824 11.6064 442 105.948 1129.27 503.532
166 0 40.0313 11.9906 480 107.367 1130.34 501.062
167 0 41.2363 12.7073 524 106.042 1130.06 501.739
168 0 41.0849 13.1192 539 106.644 1129.51 500.909
169 0 45.1462 14.0433 634 102.836 1129.5 499.899
170 0 46.059 13.0051 599 103.808 1128.22 499.292
171 0 47.1233 14.4302 680 101.721 1128.86 499.096
172 0 49.2084 12.0508 593 105.339 1129.03 499.858
173 0 51.1191 13.9674 714 101.235 1129.11 499.312
174 0 52.1162 12.1076 631 105.853 1128.65 499.227
175 0 54.1072 13.3809 724 104.867 1128.45 497.952
176 0 57.1783 13.4492 769 103.508 1127.95 497.385
177 0 57.3056 14.2569 817 102.782 1127.77 494.597
178 0 59.2144 13.5609 803 102.842 1128.24 495.093
179 0 62.4103 13.219 825 102.861 1127.39 494.199
180 0 62.348 13.4247 837 104.736 1126.95 493.388
181 0 67.2213 14.058 945 101.272 1126.19 492.465
182 0 68.2223 14.2622 973 102.938 1126.34 491.341
183 1 38.1306 11.0148 420 101.364 1125.57 506.102
184 0 37.1142 9.8884 367 104.975 1125.94 505.414
185 0 38.0665 10.5342 401 105.339 1126.06 505.501
186 0 39.1313 12.2408 479 102.662 1125.72 505.1
187 0 42.017 13.9468 586 100.945 1125.96 502.565
188 0 43.0428 13.3356 574 102.817 1125.73 501.577
189 0 46.2035 14.4145 666 100.86 1125.69 499.287
190 0 47.0999 13.7155 646 101.101 1126.34 499.359
191 0 47.1002 12.3566 582 105.292 1127.06 497.313
192 0 49.1638 14.2788 702 100.312 1126.76 497.493
193 0 51.0567 13.299 679 102.059 1126.66 495.947
194 0 50.2734 12.074 607 105.45 1126.84 496.359
195 0 54.1296 13.948 755 101.829 1128.15 493.332
196 0 54.1491 12.9457 701 104.631 1127.33 492.93
197 0 56.1192 14.3623 806 101.225 1127.34 492.442
198 0 59.0612 13.7823 814 102.053 1128.37 492.644
199 0 60.3091 14.3594 866 101.293 1127.63 491.334
200 0 60.1473 13.7496 827 102.976 1127.83 491.839
201 0 63.2493 13.6286 862 102.977 1127.09 489.639
202 0 65.1576 12.4007 808 103.514 1127.03 491.702
203 0 67.0708 12.6881 851 104.347 1126.99 490.549
204 0 69.1171 14.0342 970 101.109 1127.59 490.069
205 0 71.2158 16.2885 1160 96.7491 1127.64 488.616
206 0 74.1187 15.5831 1155 97.6442 1127.71 488.645
207 0 74.2797 13.4626 1000 102.049 1127.68 487.282
208 0 79.3101 14.6514 1162 98.5439 1126.95 485.958
209 1 40.1859 10.5261 423 100.459 1127.3 505.773
210 0 43.1222 11.0848 478 98.7866 1127.37 504.59
211 0 44.1487 11.1668 493 100.621 1126.2 503.284
212 0 43.1069 10.5784 456 100.568 1125.72 504.502
213 0 45.1372 11.2989 510 99.8451 1125.21 501.984
214 0 47.0784 11.5339 543 99.2726 1125.19 501.225
215 0 48.1036 11.9534 575 100.621 1124.78 499.553
216 0 50.175 13.6522 685 97.5358 1124.23 498.371
217 0 52.1909 13.0866 683 97.776 1124.09 498.464
218 0 55.2246 13.3093 735 98.0612 1123.45 496.178
219 0 55.2496 14.8417 820 96.1195 1124.04 495.434
220 0 56.1301 12.863 722 100.566 1124.59 493.848
221 0 58.2262 13.5678 790 99.9848 1125.23 492.338
222 0 59.2335 15.0928 894 97.8512 1124.94 492.12
223 0 64.3421 13.5059 869 99.1369 1124.77 492.053
224 0 64.3148 14.7556 949 97.2898 1125.17 490.812
225 0 66.239 14.4326 956 99.5387 1125.11 487.744
226 0 68.1329 15.1175 1030 98.2485 1124.95 486.905
227 0 71.2541 15.4237 1099 98.2966 1125.28 486.597
228 0 70.1816 14.0493 986 102.941 1125.38 484.34
229 0 75.3686 15.1522 1142 98.627 1125.49 484.332
230 0 78.5337 15.331 1204 98.7633 1126.24 481.862
231 0 79.3812 13.58 1078 102.07 1126.26 481.914
232 0 81.2963 14.2319 1157 101.026 1126.44 479.207
233 0 85.4804 15.3135 1309 99.5921 1126.59 476.354
234 0 89.4517 15.5503 1391 97.3724 1126.85 478.239
235 0 91.354 17.0545 1558 96.4313 1126.95 473.015
236 0 95.4974 15.0266 1435 99.7561 1126.9 474.914
237 1 46.4894 12.4114 577 102.759 1127.09 498.756
238 0 49.2394 14.8052 729 98.4225 1127.27 496.248
239 0 52.5165 13.9004 730 100.581 1127.55 497.538
240 0 53.2279 14.6728 781 99.854 1127.37 494.909
241 0 55.7706 14.9541 834 99.2134 1126.43 495.975
242 0 53.3703 12.7599 681 105.85 1126.25 494.587
243 0 57.6117 15.1879 875 100.883 1126.42 492.064
244 0 60.4698 15.2307 921 98.164 1126.86 494.686
245 0 62.4844 16.116 1007 97.4727 1126.66 491.884
246 0 63.6651 14.8904 948 100.368 1125.99 490.036
247 0 64.263 14.9853 963 101.477 1126.02 488.357
248 0 65.6465 14.3953 945 102.485 1125.02 489.64
249 0 69.5391 14.5242 1010 95.1069 1124.42 488.498
250 0 71.443 16.2647 1162 99.1377 1124.41 486.232
251 0 74.4066 16.4233 1222 99.1792 1124.82 486.993
252 0 74.4066 16.4636 1225 148.051 1124.78 486.858
253 0 75.719 15.0161 1137 105.498 1124.24 484.062
254 0 79.4648 16.2588 1292 102.717 1124.22 482.769
255 0 81.2983 15.7568 1281 104.797 1124.57 480.272
256 0 84.3649 16.0256 1352 103.937 1124.8 480.166
257 0 87.3975 15.8128 1382 104.616 1124.43 477.412
258 0 90.3641 15.847 1432 103.96 1125.44 475.493
259 1 48.3255 11.3398 548 105.334 1126.04 498.544
260 0 48.2476 11.3373 547 107.724 1125.66 497.558
261 0 51.3151 12.5694 645 107.037 1125.93 495.881
262 0 53.2103 13.5688 722 106.285 1126.62 494.463
263 0 54.144 13.7042 742 106.581 1125.9 494.534
264 0 56.3253 14.434 813 105.022 1127.34 492.982
265 0 57.1171 13.8838 793 108.289 1126.67 492.787
266 0 59.1483 13.5422 801 108.212 1127.33 491.647
267 0 58.1361 13.7436 799 157.379 1128.34 491.622
268 0 62.2694 12.9116 804 110.774 1128.24 491.052
269 0 66.2115 13.6834 906 110.124 1128.21 488.714
270 0 68.3332 13.8732 948 108.324 1128.2 490.576
271 0 70.3575 14.341 1009 109.952 1127.97 487.028
272 0 75.1171 14.7902 1111 107.892 1128.06 487.04
273 0 76.1855 13.6378 1039 110.139 1128.43 487.007
274 1 41.1943 10.7539 443 106.935 1129.05 503.937
275 0 44.101 12.29 542 104.459 1128.63 502.935
276 0 44.1206 10.7659 475 105.975 1127.96 502.636
277 0 47.2182 11.1398 526 103.892 1127.77 502.029
278 0 50.1706 13.8926 697 97.1492 1127.07 501.779
279 0 50.1601 12.7392 639 101.488 1126.29 498.875
280 0 54.2829 12.6743 688 99.6904 1125.49 499.27
281 0 53.3675 12.442 664 101.399 1125.26 496.858
282 0 55.2412 13.0519 721 100.76 1125.13 495.014
283 0 58.2214 14.1185 822 98 1124.71 494.961
284 0 58.3931 12.1932 712 103.01 1124.33 493.032
285 0 61.3127 12.8848 790 100.596 1125.34 491.995
286 0 60.3077 11.4413 690 105.083 1125.5 489.478
287 0 63.2033 12.0405 761 102.771 1125.84 489.359
288 0 67.226 13.2389 890 101.181 1124.94 484.772
289 0 69.3252 13.6458 946 99.7199 1125.69 485.296
290 0 73.2094 14.4107 1055 97.89 1126.24 484.485
291 0 76.1945 13.4787 1027 100.796 1126.69 482.701
292 0 78.2443 14.4292 1129 99.6218 1126.43 479.69
293 1 37.0244 9.02107 334 100.716 1127.26 500.32
294 0 40.0743 9.38256 376 99.8777 1128.27 500.872
295 0 44.0622 11.4157 503 96.4612 1128.02 498.968
296 0 42.093 10.0017 421 100.893 1129.22 498.615
297 0 45.0644 11.1618 503 100.105 1129.67 497.95
298 0 46.0231 12.1895 561 98.0054 1128.39 495.87
299 0 48.0327 13.4284 645 95.5116 1128.68 496.36
300 0 48.1579 10.5694 509 100.576 1128.41 498.609
301 0 48.1579 10.424 502 132.456 1129.36 498.58
302 0 52.0918 12.3436 643 97.0871 1127.17 497
303 0 56.0578 14.0926 790 93.3785 1128.28 498.737
304 0 56.0629 12.5038 701 97.3552 1126.39 496.315
305 0 57.0734 13.4564 768 95.4362 1127.04 496.444
306 0 59.0292 12.7564 753 97.4515 1127.04 494.968
307 0 61.2392 13.0309 798 95.114 1126.54 494.678
308 0 63.0538 12.4814 787 95.9898 1125.9 494.052
309 0 63.1062 12.3918 782 97.39 1126.04 491.962
310 0 66.0724 13.122 867 96.7036 1125.75 492.301
311 0 67.2187 12.928 869 98.4891 1124.7 490.527
312 0 67.2187 12.9726 872 130.389 1123.7 490.389
313 0 73.1403 14.5884 1067 96.4948 1124.36 485.63
314 0 74.079 13.1346 973 99.666 1124.17 484.837
315 1 39.1069 8.66855 339 96.3304 1123.49 507.867
316 0 41.09 10.7569 442 134.891 1122.31 504.722
317 0 41.09 10.7325 441 134.424 1121.31 504.766
318 0 45.0796 12.5778 567 96.1023 1124.51 501.208
319 0 44.0822 11.6827 515 99.6544 1124.39 499.386
320 0 47.0762 12.8515 605 98.0364 1125.02 499.337
321 0 48.0387 12.1777 585 98.7162 1125.77 500.53
322 0 48.1391 10.6151 511 89.4638 1126.25 499.317
323 0 49.0652 11.821 580 102.884 1126.15 496.983
324 0 50.0723 13.0611 654 99.8135 1126.76 495.347
325 0 53.0999 13.8042 733 97.9782 1126.49 497.825
326 0 55.1272 13.9314 768 99.405 1127.34 494.328
327 0 57.1366 14.6316 836 97.5778 1127.07 495.374
328 0 59.1769 13.4681 797 99.5935 1127.65 493.35
329 0 62.1474 14.1599 880 98.1239 1127.39 493.817
330 0 64.2175 13.2986 854 100.019 1127.86 494.547
331 0 66.2112 13.4267 889 102.351 1127.7 490.874
332 0 69.1954 14.5819 1009 99.9891 1127.8 492.321
333 0 69.2079 14.0591 973 102.484 1127.34 491.453
334 0 72.0631 12.8915 929 105.8 1127.99 488.911
335 0 76.1642 16.1493 1230 99.4366 1128.89 488.205
336 0 76.1848 15.0686 1148 104.442 1128.89 488.735
337 0 81.1099 14.881 1207 105.505 1127.99 486.476
338 0 85.1317 14.7654 1257 104.82 1127.72 487.228
339 1 44.0258 11.0617 487 107.53 1126.6 504.723
340 0 45.0297 11.3703 512 106.68 1127 505.303
341 0 45.0297 11.3703 512 144.279 1125.98 505.256
342 0 49.1095 12.1769 598 105.814 1124.04 501.405
343 0 52.0604 13.7533 716 103.311 1124.02 501.165
344 0 52.103 14.1643 738 103.209 1123.81 499.209
345 0 53.2064 12.9496 689 105.287 1124.22 499.398
346 0 54.1152 14.0626 761 104.083 1123.93 497.622
347 0 56.1495 13.5353 760 103.845 1124.59 496.901
348 0 56.1495 13.4819 757 148.041 1125.58 496.871
349 0 60.1515 13.8151 831 104.516 1123.42 493.262
350 0 61.1631 14.6003 893 104.49 1123.67 491.04
351 0 62.0962 13.8978 863 106.167 1124.37 491.021
352 0 65.1454 15.0433 980 103.626 1124.26 489.335
353 0 68.1668 15.0513 1026 103.186 1124.37 488.935
354 0 69.1434 14.2602 986 105.552 1124.97 488.588
355 0 73.0969 15.24 1114 104.702 1125.65 485.74
356 0 76.1136 14.8725 1132 104.666 1127.11 484.643
357 1 40.0807 11.2274 450 103.869 1127.11 503.564
358 0 41.1557 12.0032 494 101.945 1127.9 504.004
359 0 43.3127 11.821 512 103.502 1128.86 503.795
360 0 45.1691 13.1063 592 102.309 1129.33 502.698
361 0 44.2408 10.6463 471 109.125 1128.96 501.637
362 0 47.5356 11.5282 548 105.416 1129.61 501.887
363 0 49.3133 13.0999 646 102.427 1129.53 501.455
364 0 52.2891 14.5728 762 97.7402 1129.62 501.113
365 0 52.2721 12.7602 667 103.354 1129.46 499.153
366 0 54.3024 13.8852 754 101.349 1129 498.123
367 0 57.4044 14.4937 832 99.274 1128.66 498.817
368 0 58.3514 13.7786 804 102.281 1128.03 498.141
369 0 61.3958 15.8968 976 97.375 1127.87 497.39
370 0 63.3448 13.7501 871 102.583 1126.86 495.305
371 0 64.5301 12.8467 829 104.314 1126.38 495.7
372 0 67.274 13.8389 931 102.745 1126.32 492.611
373 0 69.3337 13.8461 960 102.12 1125.68 491.211
374 0 71.3153 13.6436 973 102.826 1125.62 489.76
375 1 35.2726 7.88148 278 105.331 1125.99 508.522
376 0 36.2707 10.0908 366 102.71 1126.25 504.437
377 0 40.1617 11.2545 452 99.9757 1125.73 503.814
378 0 40.3817 11.3665 459 99.5817 1125.1 503.791
379 0 43.2664 12.5039 541 96.8503 1123.41 503.569
380 0 43.4545 13.2092 574 97.3171 1123 500.456
381 0 44.284 11.4488 507 100.655 1123.81 500.98
382 0 46.3586 11.7993 547 97.3035 1124.86 500.857
383 0 48.4154 11.484 556 98.5737 1124.7 499.633
384 0 47.2657 12.3134 582 98.5584 1125.66 499.155
385 0 50.4137 14.1231 712 95.1952 1126.84 497.879
386 0 52.321 14.6213 765 94.264 1127.11 497.374
387 0 52.3775 12.4672 653 98.6478 1127.47 497.159
388 0 55.2455 13.0508 721 97.5478 1127.99 496.352
389 0 57.3739 12.5493 720 99.1708 1128.63 495.333
390 0 59.2136 14.0846 834 97.3465 1128.38 495.259
391 0 60.3222 13.3284 804 99.949 1129.02 493.847
392 0 63.4852 13.9245 884 98.1663 1129.05 494.905
393 0 63.4852 13.8773 881 148.513 1130.01 494.799
394 0 67.3317 14.2132 957 99.5058 1129.03 493.172
395 1 36.1185 12.1821 440 101.623 1129.75 507.777
396 0 35.2179 9.82455 346 103.497 1130.14 509.882
397 0 39.2881 11.6829 459 98.9717 1129.29 510.309
398 0 37.1229 10.4248 387 103.377 1129.53 511.096
399 0 39.0804 11.3868 445 101.283 1129.32 509.175
400 0 41.0491 11.1817 459 102.416 1129.14 507.669
401 0 43.2077 12.1043 523 100.543 1129.72 508.029
402 0 44.1348 12.8923 569 100.197 1128.74 504.917
403 0 46.3404 12.6671 587 100.678 1127.11 503.847
404 0 46.3021 12.1377 562 103.447 1126.55 502.943
405 0 50.335 13.0923 659 100.086 1125.76 502.134
406 0 49.1899 12.2383 602 102.12 1125.5 499.415
407 0 54.1622 14.752 799 95.7384 1125.46 499.259
408 0 53.2857 14.5442 775 97.5303 1125.31 496.077
409 0 57.1716 14.2728 816 96.576 1125.11 495.589
410 0 55.1691 13.7033 756 100.209 1124.72 494.554
411 0 56.2222 12.8597 723 100.983 1124.21 491.726
412 0 61.1928 12.9917 795 99.2667 1124.43 489.72
413 0 64.2371 13.6526 877 96.9293 1124.84 490.219
414 0 65.1437 13.3397 869 98.9045 1125.52 487.238
415 0 66.2623 12.7674 846 101.488 1126.59 487.583
416 0 70.1322 12.7616 895 101.199 1126.29 483.416
417 1 39.023 9.81474 383 98.9269 1128.54 503.18
418 0 41.0681 9.59382 394 96.4366 1129.24 503.891
419 0 40.0151 9.22152 369 98.9648 1130.33 503.851
420 0 45.0541 12.2519 552 96.7246 1130.85 500.683
421 0 47.1071 11.1873 527 98.0019 1130.94 501.279
422 0 47.0847 12.5094 589 97.7284 1131.49 499.431
423 0 47.0452 11.5208 542 100.354 1131.33 500.354
424 0 50.0566 13.265 664 97.631 1129.99 499.545
425 0 51.12 13.302 680 96.7206 1130.61 501.394
426 0 55.069 13.7646 758 95.6227 1129.86 501.314
427 0 57.1557 13.8569 792 96.3346 1128.74 500.169
428 0 58.2063 14.8266 863 95.0707 1128.56 499.742
429 0 62.1178 14.714 914 94.1138 1128.68 497.906
430 0 63.0574 13.4322 847 97.4002 1127.49 496.47
431 0 66.1084 15.4292 1020 94.148 1126.9 494.493
432 0 68.2661 13.5206 923 98.2633 1126.95 493.989
433 0 69.2951 12.252 849 102.198 1125.76 491.088
434 1 35.0538 11.4396 401 98.5062 1125.81 508.439
435 0 39.0192 11.9172 465 98.8215 1125.69 505.503
436 0 41.1229 9.43512 388 100.028 1125.53 506.139
437 0 42.0869 11.2624 474 98.7637 1124.24 504.447
438 0 45.122 11.2805 509 97.5226 1124.65 504.34
439 0 47.039 12.3089 579 94.6511 1124.04 503.672
440 0 46.0992 12.3863 571 98.7898 1123.01 499.398
441 0 50.0906 13.4956 676 96.6731 1122.59 498.043
442 0 51.1023 13.9328 712 96.1601 1122.66 497.456
443 0 51.2389 13.5054 692 97.3526 1123.78 496.295
444 0 53.1081 13.6137 723 98.5864 1124.32 495.871
445 0 53.2122 13.6999 729 100.517 1125.13 494.41
446 0 55.0674 13.8739 764 101.137 1126.85 492.747
447 0 56.1612 13.5681 762 101.722 1127.92 494.815
448 0 60.2656 13.9881 843 100.183 1128.92 493.378
449 0 62.1959 14.4704 900 99.5222 1130.49 492.272
450 0 63.1938 14.2894 903 99.3245 1130.73 492.406
451 0 65.2648 13.4988 881 101.675 1131.12 492.98
452 0 69.1702 13.7342 950 101.123 1131.44 491.16
453 0 71.2561 15.2969 1090 98.8312 1130.88 490.666
454 0 74.2307 14.6705 1089 100.726 1130.3 490.418
455 0 78.3149 15.4249 1208 99.433 1129.88 489.1
456 0 80.2072 14.6371 1174 101.885 1128.69 488.79
457 0 82.2317 14.6172 1202 103.209 1128.67 486.428
458 0 87.1442 14.4014 1255 102.644 1128.41 485.307
459 0 89.223 14.6151 1304 101.587 1128.13 484.436
460 0 91.2954 14.4805 1322 102.884 1127.5 481.935
461 0 95.2633 14.4022 1372 104.166 1126.73 478.193
462 0 100.21 15.2679 1530 102.887 1125.82 476.115
463 1 50.1345 11.8082 592 100.262 1125.5 502.633
464 0 53.0998 12.5236 665 99.0226 1125.52 501.97
465 0 53.1133 11.0142 585 103.116 1125.76 499.232
466 0 55.0556 13.6044 749 98.1335 1124.31 499.644
467 0 57.148 13.7888 788 104.197 1124.05 496.344
468 0 58.11 13.0614 759 101.743 1123.1 494.358
469 0 60.3257 13.941 841 101.03 1122.99 493.273
470 0 64.1405 14.2811 916 98.8624 1123.75 493.222
471 0 67.3381 15.0583 1014 97.8166 1123.6 490.353
472 0 67.2055 12.9007 867 103.191 1124 489.34
473 0 71.129 14.4807 1030 100.622 1124.45 486.777
474 0 72.1206 15.1552 1093 99.8225 1124.99 487.048
475 0 74.2909 14.7528 1096 102.395 1125.66 483.94
476 0 76.1953 14.5941 1112 102.583 1126.69 483.4
477 0 81.2966 14.7854 1202 99.0682 1127.74 482.856
478 0 84.3104 14.4822 1221 99.5897 1130.13 483.016
479 0 86.206 16.681 1438 97.605 1131.81 480.074
480 1 45.1292 10.7913 487 104.064 1132.3 503.713
481 0 48.1441 11.6941 563 102.908 1132.89 503.591
482 0 47.0791 11.1302 524 105.309 1133.37 502.468
483 0 49.1468 12.2897 604 102.747 1132.57 503.909
484 0 53.162 12.9792 690 102.062 1132.07 502.281
485 0 55.1913 14.1327 780 98.5718 1130.98 503.737
486 0 57.1955 14.1794 811 99.9112 1129.26 502.16
487 0 62.2956 15.0572 938 98.3891 1128.6 501.78
488 0 62.2051 14.4361 898 99.8307 1128.44 500.116
489 0 63.166 13.5358 855 103.372 1127.99 498.27
490 0 67.1906 14.4663 972 100.998 1126.63 497.663
491 0 69.1107 14.1078 975 101.294 1125.39 496.59
492 0 71.3162 13.6294 972 102.603 1125.1 493.211
493 0 75.2434 15.297 1151 98.7489 1124.61 492.788
494 0 79.2193 15.4129 1221 97.6077 1124.01 490.644
495 0 81.243 14.5982 1186 100.743 1123.58 486.906
496 0 81.3712 14.0222 1141 102.763 1123.39 485.349
497 0 86.257 15.6277 1348 99.474 1122.68 481.549
498 0 90.1897 15.0793 1360 100.219 1121.93 478.781
499 1 45.1577 11.7367 530 101.508 1122.3 498.464
500 0 51.1951 14.2201 728 95.353 1122.08 497.83
501 0 49.2421 11.3115 557 101.745 1122.76 496.943
502 0 53.2357 13.3181 709 96.5134 1124.04 496.519
503 0 54.2166 13.4276 728 97.7363 1124.48 494.225
504 0 57.1293 15.2986 874 94.5458 1125.67 492.736
505 0 57.0934 12.9087 737 99.5834 1127.61 494.669
506 0 59.1565 12.7966 757 100.081 1129.71 493.166
507 0 62.1967 13.2965 827 99.5659 1131.41 493.549
508 0 65.2635 14.158 924 97.789 1132.84 491.553
509 0 67.1253 14.4953 973 98.7646 1132.98 491.39
510 0 70.2169 15.2955 1074 96.5447 1133.1 492.538
511 1 36.1242 11.3497 410 99.1659 1132.89 510.412
512 0 36.2932 10.7183 389 101.653 1132.48 511.329
513 0 38.2135 9.91797 379 104.032 1131.49 511.319
514 0 41.2338 9.57951 395 104.911 1130.71 510.777
515 0 43.2765 12.1313 525 101.373 1130.88 510.478
516 0 45.4198 11.0304 501 104.976 1129.93 511.293
517 0 45.4492 13.0475 593 100.661 1128.09 508.703
518 0 47.1776 13.2266 624 99.9038 1126.33 509.569
519 0 50.2165 12.944 650 100.572 1125.67 507.462
520 0 50.096 13.5141 677 99.9232 1123.84 506.866
521 0 52.1227 13.5258 705 99.6383 1122.84 506.031
522 0 54.0928 14.9003 806 96.5335 1122.22 506.014
523 0 56.0893 12.391 695 101.302 1121.44 503.085
524 0 59.1303 14.764 873 97.3242 1120.44 501.532
525 0 61.2199 14.8971 912 96.3936 1118.85 502.216
526 0 60.0926 13.7122 824 100.782 1118.18 498.578
527 0 62.1022 14.7016 913 99.4009 1118.02 496.857
528 0 65.27 13.2067 862 100.532 1117.27 496.358
529 0 67.2406 14.1581 952 99.3771 1117.14 493.149
530 0 70.1771 14.5917 1024 97.9316 1117.56 492.081
531 0 71.1371 13.0452 928 100.527 1118.2 491.553
532 1 38.0855 9.92504 378 98.4048 1118.92 509.005
533 0 39.1099 10.202 399 98.6592 1121.62 508.055
534 0 40.0807 11.5767 464 98.0453 1123.11 506.319
535 0 43.0175 10.9723 472 95.0403 1124.58 509.1
536 0 44.1085 12.9453 571 93.324 1126.67 508.655
537 0 44.0563 11.8031 520 95.4096 1127.55 509.202
538 0 46.0454 12.7483 587 94.4395 1129.45 509.32
539 0 48.0726 14.2285 684 94.2895 1130.4 509.942
540 0 48.1453 12.3169 593 98.3862 1130.69 510.266
541 0 51.1446 13.4129 686 95.9432 1129.89 510.271
542 0 54.19 12.8068 694 96.0432 1126.86 510.666
543 0 56.0871 15.1193 848 92.9163 1126.38 509.901
544 0 58.1281 13.0057 756 97 1124.43 508.639
545 0 60.1582 12.6167 759 98.6192 1122.76 507.667
546 0 62.301 13.0656 814 98.0823 1121.76 506.907
547 0 65.3476 12.5789 822 100.075 1120.69 504.14
548 0 70.3421 13.7187 965 97.3202 1119.78 502.182
549 0 70.3609 13.2886 935 99.4695 1118.23 498.965
550 1 38.306 11.9824 459 96.0174 1118.13 515.492
551 0 39.2944 12.3427 485 97.1959 1117.44 513.15
552 0 42.2054 12.4155 524 96.0229 1117.18 512.256
553 0 42.1926 12.917 545 97.3505 1116.86 508.822
554 0 42.1306 12.4375 524 99.7424 1116.11 506.109
555 0 45.2103 13.6695 618 97.6618 1115.97 504.853
556 0 48.1988 13.9215 671 97.4993 1116.3 502.452
557 0 48.3215 12.8514 621 100.795 1116.24 500.528
558 0 49.0811 12.3877 608 102.204 1116.74 498.865
559 0 51.2338 13.1359 673 101.025 1117.26 498.532
560 0 52.0329 13.4338 699 100.767 1118.37 497.658
561 0 53.1026 13.5398 719 101.935 1119.94 495.202
562 0 56.2968 14.6367 824 99.6092 1121.52 495.765
563 0 57.3229 14.2875 819 101.162 1123.3 496.245
564 0 59.2211 13.762 815 102.865 1124.73 495.351
565 0 61.2177 13.8685 849 103.231 1127.49 493.824
566 0 64.1746 13.6503 876 102.47 1128.96 495.373
567 0 67.0802 12.9695 870 104.499 1129.47 493.736
568 1 35.1531 11.0374 388 101.745 1129.53 511.374
569 0 38.1355 9.20402 351 103.236 1129.68 512.826
570 0 40.1691 12.5719 505 99.4119 1129.78 511.96
571 0 42.3223 12.1685 515 100.715 1128.88 511.961
572 0 44.1068 15.4625 682 95.0337 1128.45 511.848
573 0 44.118 12.9199 570 100.219 1127.84 512.861
574 0 48.2041 13.1524 634 100.609 1126.88 512.76
575 0 49.2657 12.5645 619 102.661 1124.93 511.271
576 0 52.2326 14.1865 741 100.525 1123.3 508.57
577 0 55.1231 13.6785 754 101.792 1122.18 506.932
578 0 56.3091 14.5447 819 100.072 1120.99 507.619
579 0 57.2106 13.9485 798 103.243 1119.71 504.523
580 0 61.3959 14.3984 884 103.63 1119.28 501.67
581 0 63.5702 14.2362 905 102.463 1119.14 500.733
582 0 65.4409 13.9821 915 104.54 1117.73 497.784
583 1 33.2866 11.2658 375 102.632 1118.09 512.189
584 0 35.2627 11.2867 398 102.593 1117.93 510.492
585 0 36.314 12.4194 451 101.743 1117.54 508.838
586 0 38.3557 10.6894 410 102.985 1117.75 509.576
587 0 39.2372 11.6726 458 101.891 1118.19 507.004
588 0 40.2583 12.1962 491 103.265 1118.75 505.157
589 0 40.0857 13.1967 529 102.681 1119.5 503.798
590 0 43.1588 12.3729 534 102.283 1121.04 503.994
591 0 44.2527 13.4003 593 103.632 1121.65 502.582
592 0 45.2107 12.8509 581 105.01 1124.57 502.756
593 0 48.1457 14.5392 700 102.079 1126.92 503.46
594 0 49.16 13.812 679 105.387 1128.59 502.943
595 0 51.2862 14.5068 744 101.332 1130.36 506.133
596 0 52.1533 15.186 792 102.843 1131.39 503.687
597 0 57.176 13.9919 800 104.519 1132.05 505.712
598 0 56.1353 14.3404 805 105.852 1131.41 505.344
599 0 58.099 13.6147 791 105.899 1130.61 507.522
600 0 60.1608 14.4945 872 106.171 1128.36 505.886
601 0 64.2159 13.9529 896 106.222 1127.58 509.642
602 0 65.2522 14.5129 947 105.125 1125.45 508.763
603 0 69.12 15.3067 1058 102.596 1124.13 506.754
604 0 70.3605 13.5445 953 104.558 1121.69 505.532
605 1 39.0276 11.0691 432 100.715 1119.97 524.493
606 0 41.0768 12.9027 530 96.083 1119.95 525.117
607 0 42.0369 12.2987 517 97.1954 1119.43 524.832
608 0 41.0933 10.537 433 103.834 1117.79 523.039
609 0 44.1584 13.5875 600 98.125 1118.41 520.853
610 0 46.4508 13.5843 631 97.954 1117.38 520.006
611 0 47.2356 13.3162 629 100.382 1116.29 517.541
612 0 49.1713 14.5207 714 99.5434 1114.65 514.804
613 0 51.1982 14.981 767 97.5398 1114.18 514.007
614 0 52.12 13.6032 709 99.9633 1114.57 513.001
615 0 54.1794 13.3446 723 99.213 1114.39 510.903
616 0 55.0986 14.6102 805 98.9242 1113.82 506.125
617 0 60.2258 14.9272 899 96.9533 1115.08 507.537
618 0 62.1428 14.3862 894 98.9027 1114.41 504.129
619 0 63.0784 14.157 893 100.035 1115.45 503.739
620 0 67.1193 15.3011 1027 98.1178 1116.8 501.742
621 0 69.0847 14.6197 1010 100.998 1118.23 500.535
622 0 71.0787 15.7994 1123 99.9314 1118.95 499.772
623 1 42.0252 10.4223 438 101.874 1120.61 518.349
624 0 42.0457 10.8691 457 103.188 1122.39 517.204
625 0 44.0628 13.095 577 99.7747 1122.65 516.997
626 0 46.0907 12.4537 574 101.894 1123.1 516.732
627 0 49.0632 14.0431 689 101.186 1122.47 514.113
628 0 50.1381 14.7393 739 100.555 1122.59 516.415
629 0 51.1185 14.437 738 103.243 1120.48 517.196
630 0 56.1678 14.0116 787 101.402 1120.03 518.302
631 0 57.0791 14.1383 807 101.886 1119.25 518.086
632 0 61.0703 14.2786 872 100.603 1118.54 518.04
633 0 62.095 14.0269 871 102.805 1117.38 516.382
634 0 64.1399 14.1254 906 103.443 1117.81 512.69
635 0 68.0779 14.0574 957 103.211 1116.24 513.764
636 1 34.0998 9.76545 333 103.895 1114.49 530.414
637 0 37.1224 11.5564 429 101.534 1114.21 527.305
638 0 38.2492 11.0591 423 102.676 1113.07 526.407
639 0 41.2732 10.4184 430 103.619 1112.22 524.644
640 0 41.1902 11.6532 480 104.246 1111.22 521.804
641 0 44.3375 14.4347 640 98.9703 1110.3 519.131
642 0 45.2182 13.7555 622 100.992 1109.65 518.267
643 0 46.3563 14.3885 667 101.064 1110.45 516.846
644 0 48.3165 14.7982 715 101.818 1110.64 515.215
645 0 48.2992 13.1886 637 107.953 1111.11 513.386
646 0 48.3337 13.1585 636 108.791 1112.8 514.286
647 0 53.2434 13.4477 716 105.644 1114.26 513.561
648 0 54.3508 14.7192 800 103.944 1115.22 512.169
649 0 55.1768 14.9701 826 103.362 1116.61 514.082
650 0 58.1703 15.1108 879 104.068 1118.2 510.365
651 0 58.226 13.6022 792 108.437 1119.67 510.729
652 0 61.1521 13.6054 832 108.484 1120.86 509.865
653 0 65.2197 13.3702 872 108.519 1122.32 510.271
654 0 67.202 14.5978 981 105.517 1121.67 508.479
655 0 69.2355 14.9345 1034 106.059 1121.83 506.491
656 0 72.4589 14.6566 1062 105.231 1122.26 508.073
657 0 77.1968 15.5317 1199 103.936 1122.17 506.108
658 1 39.3158 11.166 439 106.991 1122.58 524.346
659 0 41.2476 10.0127 413 108.475 1122.34 525.828
660 0 43.1872 12.2027 527 105.784 1120.62 524.797
661 0 44.3505 12.1306 538 107.734 1119.85 523.507
662 0 47.2585 13.0982 619 106.116 1118.37 521.299
663 0 49.1208 13.4363 660 106.633 1116.74 517.545
664 0 50.1975 14.2836 717 104.082 1115.05 517.965
665 0 51.2278 14.3672 736 105.511 1114.05 514.842
666 0 54.2808 13.6881 743 105.215 1113.52 513.429
667 0 55.2115 14.2362 786 105.673 1113.14 511.427
668 0 59.4165 14.7939 879 103.931 1112.91 509.28
669 0 58.1826 14.5576 847 105.015 1112.72 507.804
670 0 60.108 14.6403 880 105.412 1111.87 504.893
671 0 64.2773 14.1107 907 107.806 1112.24 502.688
672 0 67.4447 15.168 1023 106.704 1112.74 499.303
673 0 68.2892 13.9847 955 112.274 1114.2 497.601
674 0 71.3976 14.4263 1030 110.986 1115.08 496.271
675 0 72.3407 14.2244 1029 114.411 1116.05 494.837
676 0 75.4363 15.2844 1153 112.397 1116.93 491.747
677 0 78.5399 14.8714 1168 112.092 1118.23 493.565
678 0 82.5546 15.3353 1266 111.076 1119.25 491.29
679 1 39.351 11.156 439 112.954 1122.03 511.371
680 0 41.2797 12.5485 518 110.792 1123.29 511.504
681 0 44.1601 13.5643 599 108.795 1125.08 510.017
682 0 45.2669 13.321 603 110.715 1126.36 509.06
683 0 48.1879 14.1322 681 107.852 1127.57 510.571
684 0 49.2377 13.0185 641 111.54 1127.79 510.568
685 0 52.2712 14.1569 740 108.415 1128.2 511.709
686 0 53.1577 12.9238 687 112.946 1128.19 510.799
687 0 54.2918 14.0168 761 111.869 1127.09 508.42
688 0 56.143 13.3944 752 112.82 1126.41 508.895
689 0 60.3299 13.6417 823 110.603 1125.65 509.118
690 0 64.4719 14.7196 949 105.664 1124.84 507.324
691 0 66.3511 14.9357 991 106.696 1123.8 504.711
692 0 67.352 13.9862 942 109.136 1122.34 502.276
693 0 68.2549 15.2956 1044 107.513 1121.93 499.782
694 0 72.3314 14.876 1076 107.76 1119.67 495.544
695 0 75.3728 13.745 1036 109.115 1118.66 494.81
696 1 39.1583 10.0872 395 108.886 1118.31 510.557
697 0 42.138 10.3944 438 110.176 1117.9 507.269
698 0 44.0817 11.4333 504 106.264 1119.13 507.518
699 0 43.1511 11.1469 481 106.728 1118.99 505.062
700 0 46.1055 12.3196 568 102.815 1119.35 504.174
701 0 47.1671 12.9539 611 102.255 1120.36 501.931
702 0 49.1308 13.0468 641 101.746 1121.17 500.758
703 0 50.0978 13.4936 676 101.652 1121.71 496.945
704 0 52.053 14.0818 733 99.6671 1122.53 498.186
705 0 55.0864 13.8691 764 98.9516 1124.61 497.445
706 0 56.2315 15.0272 845 97.8343 1123.63 497.488
707 0 57.0615 13.7921 787 102.911 1125.24 495.216
708 0 59.12 14.293 845 100.101 1127.47 497.141
709 0 62.1482 14.739 916 98.9007 1129.66 496.079
710 0 64.1254 15.5165 995 99.1709 1130.74 494.942
711 0 66.1083 14.6578 969 100.889 1132.45 494.762
712 0 68.0818 15.1876 1034 99.8037 1133.31 497.032
713 0 71.0777 15.265 1085 101.057 1133.82 494.282
714 0 75.0603 15.1079 1134 101.944 1133.98 495.466
715 1 37.037 8.85601 328 107.006 1131.59 514.101
716 0 41.0385 11.7694 483 104.443 1130.76 512.957
717 0 43.0606 10.9381 471 104.854 1128.94 513.947
718 0 45.0366 12.2345 551 104.448 1127.89 512.973
719 0 47.0864 13.3159 627 102.86 1127.09 511.295
720 0 50.0829 15.1948 761 99.9553 1125.8 509.612
721 0 52.0641 13.4066 698 104.248 1124.2 507.758
722 0 54.0856 13.8854 751 103.103 1122.04 506.06
723 0 56.0452 15.3448 860 99.493 1121.32 505.656
724 0 58.1345 15.1029 878 101.498 1120.52 501.059
725 0 61.1394 14.9004 911 101.984 1119.85 500.172
726 0 63.1179 15.1463 956 102.982 1120.32 497.349
727 0 66.0427 15.3991 1017 102.257 1119.91 495.142
728 0 68.0484 15.3567 1045 103.078 1119.14 493.4
729 0 70.1162 14.4189 1011 104.961 1118.43 492.222
730 0 74.0665 14.8515 1100 104.506 1117.85 490.705
731 0 76.0808 14.9184 1135 105.204 1117.95 487.261
732 1 39.0951 13.2497 518 103.971 1118.78 505.259
733 0 41.0101 11.3387 465 106.918 1121.09 506.017
734 0 44.0648 13.1624 580 105.652 1121.56 504.395
735 0 45.0619 13.7367 619 105.187 1122.96 504.116
736 0 45.0413 12.7883 576 109.101 1125.58 505.665
737 0 49.0377 14.5602 714 103.832 1126.61 506.038
738 0 50.0637 13.7026 686 107.509 1128.34 506.087
739 0 51.0323 12.8154 654 109.758 1129.2 507.593
740 0 54.1474 14.5713 789 107.221 1129.77 507.185
741 0 56.0852 14.7454 827 107.351 1130.38 507.839
742 0 57.0514 14.075 803 111.814 1129.76 507.752
743 0 62.041 14.2486 884 110.931 1128.11 507.842
744 0 66.2783 15.284 1013 108.561 1127.22 506.5
745 0 69.1177 15.5387 1074 109.218 1125.83 505.959
746 0 73.0699 17.3806 1270 105.68 1124.52 504.926
747 0 77.0886 16.734 1290 106.222 1122.08 502.119
748 1 40.1538 11.9291 479 112.048 1120.54 518.656
749 0 43.0186 11.5996 499 111.98 1119.23 518.389
750 0 43.0692 11.795 508 113.116 1118.19 515.911
751 0 46.0295 13.5782 625 109.33 1117.64 513.534
752 0 48.054 15.0456 723 105.544 1115.36 513.185
753 0 48.1294 13.1105 631 110.78 1114.41 510.523
754 0 50.0314 13.5715 679 111.508 1114.99 509.764
755 0 53.0673 14.2084 754 108.377 1115.62 507.129
756 0 55.036 14.9175 821 106.342 1114.68 506.303
757 0 57.0422 16.7069 953 102.549 1115.17 503.422
758 0 59.0448 15.3274 905 105.973 1115.25 500.903
759 0 60.1448 14.6979 884 108.587 1115.08 499.678
760 0 63.0439 16.1316 1017 103.624 1116.29 498.326
761 0 63.0836 14.3777 907 109.06 1117.17 498.722
762 0 69.1135 16.7985 1161 102.399 1119.31 497.507
763 0 68.0757 13.7935 939 111.688 1121.08 495.939
764 0 71.1306 13.4541 957 111.062 1122.51 496.403
765 1 41.1475 11.7869 485 106.819 1124.15 513.534
766 0 42.0986 12.9221 544 106.77 1125.95 512.305
767 0 43.0216 11.7615 506 109.057 1127.28 513.273
768 0 46.1139 13.1414 606 106.059 1126.77 512.959
769 0 46.1402 13.8924 641 107.075 1127.08 512.462
770 0 50.1317 14.5018 727 106.481 1125.85 510.523
771 0 48.2058 12.8408 619 111.365 1125.09 511.184
772 0 54.0928 13.4953 730 106.807 1124.98 513.189
773 0 57.069 14.2634 814 102.574 1123.37 511.623
774 0 58.175 15.1784 883 100.851 1122.4 508.678
775 0 61.2518 14.2526 873 93.3482 1121.02 508.493
776 0 63.126 13.7503 868 94.2281 1118.87 506.904
777 0 67.1321 16.0281 1076 89.9368 1118.66 502.571
778 0 69.114 14.7003 1016 92.0827 1117.31 499.877
779 0 71.0989 13.6148 968 93.3667 1116.22 500.486
780 0 75.1874 14.3774 1081 91.7558 1115.5 497.657
781 0 79.2194 13.936 1104 91.8777 1114.64 494.363
782 1 39.0652 10.7768 421 92.9264 1113.48 512.838
783 0 38.094 11.0516 421 92.1496 1114.28 512.249
784 0 41.063 11.3971 468 92.7906 1115.17 509.893
785 0 43.0846 12.7656 550 88.8364 1115.61 507.947
786 0 43.3408 11.6749 506 91.9447 1115.76 507.03
787 0 42.1258 10.4449 440 94.9614 1116.84 506.125
788 0 45.1037 11.3516 512 94.1133 1117.35 504.908
789 0 46.0932 9.36464 338 102.953 1118.73 463.633
790 0 47.1037 11.3516 512 94.1133 1117.35 504.908
791 0 47.1037 11.3516 512 94.1133 1117.35 504.908
792 0 47.031 8.715 192 95.6354 1124.47 519.135
793 0 48.0626 8.80215 203 96.3103 1126.21 520.153
794 0 49.258 11.7616 1238 126.268 1126.43 288.039
795 0 50.281 3.38481 881 119.376 1127.78 402.597
796 0 52.534 11.943 1344 129.195 1127.65 267.923
797 0 54.977 26.6542 3651 83.6423 1126.46 233.256
798 0 56.46 3.05746 1044 119.026 1125.5 446.168
799 1 37.1051 10.861 403 93.8511 1124.42 526.087
800 0 39.2008 13.3416 523 91.5258 1122.38 524.637
801 0 41.29 12.4728 515 92.6641 1120.44 523.398
802 0 43.1885 13.5453 585 92.0034 1119.51 520.938
803 0 46.369 15.7864 732 87.2527 1117.02 521.284
804 0 48.3238 14.5684 704 90.8622 1115.18 519.259
805 0 48.1612 14.3892 693 93.3521 1114.26 514.834
806 0 49.441 13.1268 649 95.2758 1112.95 514.77
807 0 50.4206 13.9229 702 94.7707 1112.68 512.701
808 0 51.4103 15.0553 774 96.5168 1112.45 508.756
809 0 53.2964 13.6032 725 98.8441 1112.06 507.979
810 0 55.4167 15.0857 836 96.6304 1112.47 504.202
811 0 58.2903 14.6336 853 96.3998 1112.92 501.839
812 0 59.2519 14.1261 837 98.8507 1112.86 502.323
813 0 61.3066 14.9739 918 96.317 1114.39 500.011
814 0 65.3656 14.5948 954 96.1614 1116.09 497.38
815 0 67.7845 13.9707 947 97.7973 1116.4 494.43
816 1 35.3542 12.4172 439 98.7517 1117.86 508.891
817 0 38.235 11.6385 445 98.627 1120.34 509.393
818 0 40.4533 12.6319 511 95.092 1122.59 510.894
819 0 40.2691 12.3668 498 99.2209 1124.2 509.614
820 0 43.2934 14.9907 649 94.2419 1124.86 509.79
821 0 46.1314 13.8084 637 95.1068 1125.73 511.115
822 0 46.174 14.7702 682 95.6158 1126.88 509.729
823 0 48.2686 14.9165 720 95.3042 1127.59 509.485
824 0 49.2474 12.9144 636 97.4544 1127.3 510.899
825 0 52.5168 14.4716 760 96.2355 1127.05 509.228
826 0 55.1968 15.7256 868 92.9032 1127.28 509.44
827 0 56.4117 14.6424 826 95.1864 1125.12 509.654
828 0 59.2084 14.6432 867 94.8316 1123.13 508.8
829 0 62.2614 14.7282 917 94.2388 1122.17 506.183
830 0 63.2963 14.44 914 94.1433 1120.47 504.869
831 0 66.2475 14.2043 941 95.1424 1119.09 502.184
832 0 69.3244 14.8577 1030 93.3476 1118.43 496.799
833 0 71.1017 14.1347 1005 94.9114 1117.45 498.506
834 0 74.1253 15.7166 1165 91.17 1117.12 497.379
835 0 76.1465 15.2732 1163 91.8487 1116.9 493.681
836 0 80.1864 14.9527 1199 91.0992 1116.31 491.769
837 0 82.2208 13.7678 1132 92.2465 1115.86 488.766
838 0 87.3018 15.2803 1334 87.9783 1116.9 486.521
839 1 44.1657 10.687 472 90.8898 1118.11 506.267
840 0 45.1533 11.4056 515 89.2369 1118.5 506.41
841 0 48.2597 11.0859 535 90.0897 1118.84 505.303
842 0 49.1944 12.8876 634 89.0363 1119.69 504.279
843 0 51.362 11.8375 608 90.2862 1121.75 503.776
844 0 52.0749 13.2502 690 88.3391 1122.65 504.164
845 0 54.0803 13.1471 711 88.2293 1123.07 503.99
846 0 58.0837 14.3586 834 86.0576 1124.92 504.594
847 0 60.2037 14.6336 881 85.0238 1126.26 504.566
848 0 61.1391 13.6737 836 88.6423 1126.47 503.041
849 0 63.1682 13.5036 853 88.4724 1127.11 503.737
850 0 67.064 13.584 911 89.0154 1126.84 504.835
851 0 73.0417 14.745 1077 87.0446 1127.51 505.54
852 0 75.0634 12.4428 934 91.2098 1127.02 503.602
853 1 39.0324 10.1967 398 86.2085 1124.62 523.204
854 0 42.0368 9.65821 406 85.6182 1122.37 522.8
855 0 43.0268 10.3424 445 87.8337 1121.03 519.018
856 0 47.0361 12.99 611 82.4223 1120.1 517.093
857 0 44.0335 9.5609 421 89.2993 1117.48 516.694
858 0 47.0589 11.5812 545 85.6606 1117.35 515.921
859 0 50.1201 12.4301 623 83.5281 1115.35 514.661
860 0 50.0874 12.1587 609 85.6026 1114.14 513.59
861 0 54.0941 12.5892 681 84.9148 1113.83 510.025
862 0 53.0548 10.7436 570 88.0579 1113.04 509.381
863 0 56.0701 13.0908 734 85.0164 1112.67 506.516
864 0 58.2436 13.0143 758 85.6029 1112.65 505.307
865 0 59.183 12.1825 721 89.6671 1112.96 502.006
866 0 62.2059 12.4908 777 88.9202 1113.44 500.902
867 0 65.1493 13.2004 860 85.45 1113.6 499.145
868 0 68.2024 12.3603 843 86.1839 1114.34 498.541
869 0 69.1173 12.4137 858 88.1865 1116.13 496.878
870 0 71.1594 11.945 850 89.3612 1116.66 496.875
871 0 75.1759 13.6214 1024 87.4473 1118.11 496.263
872 0 77.3314 13.2934 1028 91.109 1120.39 490.907
873 1 41.0587 7.81808 321 91.1464 1120.92 514.274
874 0 42.0358 9.11128 383 90.47 1121.42 514.07
875 0 43.0331 10.0388 432 88.5324 1122 514.581
876 0 46.0522 10.3578 477 89.1866 1123.05 513.006
877 0 48.0384 10.3459 497 89.1851 1123.46 514.429
878 0 50.0689 9.96626 499 90.7475 1122.81 514.874
879 0 52.115 11.0525 576 89.4948 1123.33 511.802
880 0 56.0205 12.3348 691 87.3227 1123.01 511.829
881 0 57.0582 11.2166 640 88.8719 1121.67 511.375
882 0 59.1169 10.234 605 90.2397 1120.34 510.217
883 0 64.1818 12.6204 810 86.3235 1118.93 508.065
884 0 66.2568 14.1872 940 83.7926 1116.89 504.437
885 0 70.2776 13.8166 971 81.6128 1115.54 503.084
886 1 36.2836 10.914 396 82.0758 1114.11 515.856
887 0 38.3139 10.2835 394 83.4213 1113.52 512.048
888 0 39.2987 9.10972 358 84.6955 1113.29 511.684
889 0 42.267 12.492 528 79.4489 1112.73 511.295
890 0 42.2127 10.6603 450 84.0356 1113.05 509.247
891 0 45.3713 11.8357 537 81.4302 1114.32 508.078
892 0 44.3789 12.6862 563 80.7549 1114.74 505.094
893 0 47.5078 11.7665 559 81.5349 1115.66 504.401
894 0 48.3209 11.7961 570 81.6807 1116.68 504.098
895 0 50.2218 13.6594 686 80.1079 1117.7 500.278
896 0 50.2908 11.0159 554 85.0235 1118.69 501.576
897 0 53.4919 12.9178 691 82.5572 1120.91 499.673
898 0 54.3274 11.6332 632 84.5649 1121.68 500.847
899 0 56.2985 12.487 703 84.9118 1123.01 500.856
900 0 55.3314 12.5968 697 86.3931 1125.32 500.049
901 0 58.207 13.263 772 85.1516 1127.36 502.449
902 0 60.2376 12.8989 777 86.6448 1128.83 500.646
903 1 34.2873 8.98292 308 81.8701 1131.03 520.685
904 0 31.1764 11.034 344 83.6337 1131.03 520.244
905 0 36.3345 9.41253 342 85.2866 1129.99 520.102
906 0 36.1964 11.5757 419 83.7112 1129.69 519.933
907 0 38.2156 12.4033 474 82.3038 1127.84 520.92
908 0 39.2578 12.2778 482 84.5975 1124.77 522.448
909 0 40.28 14.8212 597 80.5745 1122.89 521.139
910 0 42.4906 13.2264 562 82.1334 1121.3 520.292
911 0 42.4807 12.3585 525 84.2952 1119.59 519.979
912 0 45.3979 12.9301 587 84.3322 1118.28 518.146
913 0 45.3665 12.5423 569 86.3954 1117.05 517.682
914 0 45.3773 12.958 588 87.9762 1115.96 514.571
915 0 47.434 13.5557 643 85.7434 1114.89 513.953
916 0 47.4108 12.8452 609 87.8309 1114.96 510.521
917 0 50.4649 12.7217 642 89.514 1115.02 510.83
918 0 52.2804 14.1927 742 87.845 1115.8 508.817
919 0 53.3487 13.14 701 88.8302 1116.01 509.046
920 0 55.276 13.8577 766 89.6802 1115.81 505.333
921 0 57.2482 15.459 885 87.1164 1115.87 505.086
922 0 59.3606 13.7802 818 90.5134 1116.65 503.785
923 0 60.2918 14.264 860 90.3698 1116.13 503.977
924 0 63.2702 16.0265 1014 86.4467 1117.46 503.36
925 0 63.1268 13.2432 836 93.3278 1118.85 502.925
926 0 65.3247 12.8282 838 93.926 1121.06 502.749
927 0 70.1576 13.1846 925 93.8173 1122.74 501.875
928 0 70.081 13.9125 975 94.6226 1124.15 502.747
929 1 39.0424 11.7565 459 96.8497 1126.5 517.71
930 0 41.1373 12.3246 507 95.5641 1126.38 521.308
931 0 44.055 13.6874 603 94.9834 1126.66 520.181
932 0 43.2632 13.9379 603 95.1012 1125.64 521.745
933 0 46.1347 13.4172 619 96.7803 1123.63 520.588
934 0 49.1074 14.8247 728 94.4478 1122.35 519.555
935 0 48.1249 13.7143 660 101.217 1120.89 518.859
936 0 52.1024 13.3391 695 99.2532 1118.93 516.869
937 0 54.045 14.4879 783 98.2261 1117.28 516.012
938 0 57.0995 15.0439 859 97.8219 1115.54 513.406
939 0 59.1061 13.2643 784 102.161 1114.46 510.834
940 0 58.1263 15.191 883 100.713 1113.09 509.489
941 0 62.0806 14.4006 894 100.624 1112.48 506.161
942 0 63.1932 15.3023 967 99.5957 1111.54 504.574
943 0 66.1467 15.1028 999 100.027 1111.13 501.176
944 0 68.076 12.912 879 103.502 1111.2 500.047
945 1 33.0337 9.95953 329 105.529 1110.61 512.775
946 0 38.0948 11.2089 427 102.899 1110.57 510.494
947 0 41.1099 12.868 529 98.3554 1111.5 509.399
948 0 41.0261 13.0649 536 98.8526 1112.99 508.17
949 0 40.0759 12.0521 483 102.907 1114.12 507.056
950 0 43.2677 11.556 500 103.804 1115.57 507.158
951 0 45.3733 12.4302 564 102.016 1116.87 506.362
952 0 47.2534 13.3324 630 101.321 1120.18 505.764
953 0 49.2275 14.4838 713 100.171 1121.3 505.443
954 0 50.1596 13.9554 700 101.763 1123.43 504.703
955 0 53.1473 15.2218 809 99.4734 1125.59 504.729
956 0 56.1414 14.2675 801 99.9638 1127.02 505.79
957 0 57.1054 14.0967 805 101.917 1128.24 505.421
958 0 59.167 15.2112 900 100.004 1128.45 505.934
959 0 63.1135 15.5117 979 99.9857 1127.58 505.664
960 0 66.1373 14.5304 961 102.443 1127.31 505.668
961 0 69.2175 15.2563 1056 100.863 1126.66 507.139
962 0 72.1451 15.4134 1112 101.926 1125.32 505.933
963 0 76.1302 15.7231 1197 101.576 1123.58 504.822
964 0 79.154 14.4276 1142 105.995 1122.03 502.425
965 0 81.2326 14.7601 1199 105.608 1120.35 498.977
966 1 42.2364 11.1515 471 103.966 1118.73 520.261
967 0 46.1027 12.6891 585 102.627 1117.88 517.104
968 0 47.0886 12.8269 604 102.851 1117.01 515.267
969 0 48.1321 13.2552 638 104.277 1115.93 511.661
970 0 50.13 13.2256 663 102.917 1114.22 511.935
971 0 52.0852 13.4203 699 104.054 1114.36 508.562
972 0 54.1601 13.7555 745 104.208 1114.83 505.957
973 0 54.0679 13.2056 714 105.968 1114.57 502.99
974 0 57.1048 13.1688 752 105.846 1116.02 502.299
975 0 61.0968 14.3215 875 103.744 1116.22 500.777
976 0 62.0824 13.5626 842 105.33 1117 498.511
977 0 64.1108 14.7557 946 102.687 1117.6 497.278
978 0 66.0404 13.5372 894 104.696 1118.99 497.725
979 0 70.1078 15.519 1088 100.61 1120.54 496.551
980 0 71.2235 14.5317 1035 104.535 1121.84 496.065
981 1 39.0653 11.724 458 103.485 1124.12 511.79
982 0 40.1282 12.1112 486 101.438 1125.66 513.418
983 0 43.1838 11.6016 501 104.703 1127.25 511.629
984 0 45.1823 11.2876 510 103.42 1128.66 513.149
985 0 48.0837 12.8734 619 101.666 1129.37 513.228
986 0 48.2306 12.2536 591 103.472 1129.57 514.496
987 0 50.0664 12.2038 611 105.635 1128.11 512.686
988 0 55.0861 14.4501 796 99.3555 1127.15 511.407
989 0 57.1167 13.3236 761 101.916 1126.03 513.041
990 0 60.1088 14.9895 901 97.4562 1124.55 513.041
991 0 63.0332 14.0402 885 100.103 1123.33 510.05
992 0 67.1246 14.853 997 98.7182 1122.37 508.083
993 0 70.1249 14.517 1018 98.391 1119.6 503.255
994 0 74.2401 13.6315 1012 99.2085 1118.78 503.061
995 1 39.1278 9.8651 386 100.412 1117.1 518.86
996 0 41.1046 10.9477 450 99.6044 1116.52 516.536
997 0 44.1058 11.291 498 100.906 1116.78 512.749
998 0 45.0756 12.712 573 97.7749 1116.46 510.227
999 0 49.195 13.4567 662 94.429 1116.42 509.992
1000 0 48.079 12.417 597 99.0486 1115.88 507.829
1001 0 50.1406 13.0832 656 97.7058 1115.62 504.406
1002 0 52.1342 13.2926 693 97.3189 1115.16 503.641
1003 0 52.1683 12.2297 638 100.234 1115.22 503.934
1004 0 54.1224 12.0468 652 102 1115.75 502.544
1005 0 56.1226 13.9872 785 100.141 1116.86 500.68
1006 0 59.1921 14.8669 880 98.475 1119.07 499.551
1007 0 62.0791 14.5782 905 99.3105 1120.46 498.05
1008 0 64.1631 14.7125 944 98.7436 1122.54 500.67
1009 0 65.1544 13.3682 871 102.292 1123.65 500.889
1010 0 67.1078 13.7838 925 106.751 1126.89 498.955
1011 0 71.2469 13.2497 944 107.971 1127.56 500.216
1012 0 75.0919 13.3303 1001 108.498 1127.84 499.037
1013 0 75.1601 12.7461 958 112.16 1128.65 500.141
1014 1 44.0296 10.9245 481 106.306 1127.57 518.173
1015 0 46.0212 10.6473 490 105.747 1126.36 519.171
1016 0 45.1255 11.2132 506 108.024 1126.21 518.472
1017 0 48.3667 12.3225 596 107.475 1125.91 516.795
1018 0 51.3902 12.6094 648 105.076 1123.37 516.128
1019 0 53.3523 11.9395 637 109.078 1121.99 514.02
1020 0 55.2399 13.6134 752 106.852 1120.06 513.379
1021 0 57.3485 13.5139 775 107.563 1118.8 509.888
1022 0 58.2447 12.705 740 108.945 1118.52 509.453
1023 0 61.2004 13.5947 832 107.478 1117.77 506.895
1024 0 61.2933 14.3409 879 111.107 1116.57 504.664
1025 0 63.3651 13.7142 869 109.35 1116.06 501.625
1026 0 65.3355 13.7751 900 108.781 1116.68 499.649
1027 0 69.544 13.7179 954 108.254 1116.69 497.716
1028 0 71.3178 12.9701 925 110.999 1116.88 494.8
1029 0 74.2857 13.8923 1032 108.953 1117.38 492.515
1030 0 76.3892 14.4261 1102 108.515 1117.42 491.811
1031 1 41.1373 11.7655 484 108.742 1118.31 508.103
1032 0 42.3525 11.1209 471 108.18 1119.49 508.422
1033 0 42.1081 9.99808 421 110.378 1120.87 509.99
1034 0 44.0979 11.8146 521 107.319 1122.65 508.735
1035 0 46.0915 13.2345 610 105.346 1124.76 507.807
1036 0 47.2357 12.173 575 106.311 1124.88 508.513
1037 0 49.2361 12.6533 623 106.414 1126.7 507.774
1038 0 50.2489 12.6769 637 107.243 1128.08 508.504
1039 0 52.437 13.0633 685 107.235 1129.01 507.019
1040 0 56.2297 12.9291 727 106.686 1129.11 508.663
1041 0 58.2208 13.9469 812 104.979 1128.86 508.991
1042 0 62.1554 12.7905 795 107.718 1127.93 509.468
1043 0 63.2938 14.1404 895 106.018 1127.33 507.64
1044 0 66.2461 13.9933 927 106 1127.19 508.354
1045 0 68.2127 14.2202 970 105.431 1125.5 505.397
1046 0 70.2007 13.9172 977 106.802 1123.31 506.658
1047 0 74.2745 14.0694 1045 107.851 1121.32 502.434
1048 1 40.1554 10.1605 408 111.681 1121.14 519.113
1049 0 41.1771 10.4913 432 112.919 1119.15 515.664
1050 0 43.4481 10.15 441 113.227 1117 515.556
1051 0 44.2623 9.98592 442 114.468 1115.71 513.459
1052 0 48.1754 12.3092 593 110.179 1115.48 510.008
1053 0 49.2983 12.1302 598 111.411 1115.7 507.839
1054 0 53.2145 13.3422 710 107.439 1115.62 505.723
1055 0 52.2153 13.0421 681 110.824 1116.02 503.018
1056 0 54.2785 12.9886 705 110.054 1116.43 501.694
1057 0 56.2413 12.6242 710 112 1116.47 498.945
1058 0 58.2772 13.7446 801 107.607 1117.53 499.828
1059 0 61.2631 15.0662 923 104.633 1119.42 497.649
1060 0 62.2031 15.0314 935 105.973 1120.9 495.18
1061 0 65.1863 13.7452 896 107.786 1122.78 496.172
1062 0 67.1867 14.0355 943 107.858 1123.99 494.846
1063 0 70.2968 15.2354 1071 104.733 1125.48 494.629
1064 0 71.2702 14.5503 1037 105.912 1127.13 495.454
1065 0 74.2273 14.9945 1113 106.749 1128.66 493.402
1066 0 77.4024 14.8962 1153 106.692 1130.95 492.207
1067 0 78.4279 15.1859 1191 106.971 1131.62 492.989
1068 1 42.1799 9.81511 414 108.983 1132.05 514.601
1069 0 46.2108 10.7334 496 107.732 1130.48 512.181
1070 0 43.2814 9.9812 432 108.134 1129.28 516.12
1071 0 49.0883 10.9598 538 108.283 1127.64 513.647
1072 0 51.0352 11.9329 609 107.222 1126.47 512.1
1073 0 54.1076 14.6005 790 102.322 1124.09 510.408
1074 0 55.1302 13.3865 738 105.837 1122.97 507.78
1075 0 56.0378 12.6879 711 107.122 1121.04 506.25
1076 0 60.0494 14.0884 846 103.628 1120.21 504.638
1077 0 62.1611 15.6207 971 99.8857 1118.92 504.027
1078 0 64.0734 14.2805 915 102.596 1117.95 500.61
1079 0 67.166 13.5783 912 102.973 1117.73 496.667
1080 0 68.0786 14.4833 986 101.734 1118.12 492.059
1081 0 72.133 13.281 958 102.642 1117.45 492.299
1082 0 75.2019 15.5448 1169 98.592 1118.13 488.435
1083 0 78.071 14.4356 1127 100.72 1118.81 488.078
1084 0 81.0846 14.824 1202 100.008 1118.65 484.378
1085 1 40.055 10.2859 412 101.711 1119.79 505.056
1086 0 44.0471 11.7601 518 98.695 1120.94 503.707
1087 0 45.0437 11.2113 505 101.23 1121.94 501.954
1088 0 48.059 12.7968 615 97.7154 1124.19 503.075
1089 0 48.069 12.274 590 99.517 1126.22 502.914
1090 0 49.1784 12.3225 606 99.5 1127.66 503.389
1091 0 51.0659 12.2978 628 100.447 1129.1 503.978
1092 0 53.058 12.7785 678 99.9513 1130.44 504.115
1093 0 54.1061 12.9745 702 99.6182 1131.16 506.493
1094 0 55.1062 13.5012 744 100.534 1130.72 504.278
1095 0 58.0545 13.0395 757 101.318 1131.18 504.803
1096 0 63.0992 15.436 974 97.8224 1130.56 504.873
1097 0 64.0477 15.0981 967 99.9473 1131 505.678
1098 0 68.0994 14.0236 955 102.217 1128.87 504.03
1099 0 72.1312 14.1964 1024 104.076 1127.01 503.963
1100 0 74.2576 15.1769 1127 104.106 1125.4 503.404
1101 0 79.1468 17.1833 1360 99.0529 1124.3 500.651
1102 0 81.0866 15.7239 1275 104.662 1122.22 497.042
1103 1 47.1507 11.7283 553 107.913 1121.29 514.172
1104 0 49.0507 12.8235 629 104.884 1120.02 512.828
1105 0 50.0401 13.1494 658 106.88 1119.15 509.514
1106 0 53.1734 14.3493 763 103.988 1119.53 506.621
1107 0 54.0924 14.882 805 103.058 1119.07 503.954
1108 0 55.0762 13.7264 756 106.115 1118.55 501.692
1109 0 59.0347 14.0087 827 104.047 1118.8 498.843
1110 0 61.0526 16.1336 985 99.9127 1118.55 496.542
1111 0 62.0707 14.564 904 102.7 1118.94 497.022
1112 0 64.1001 13.8221 886 104.549 1119.88 496.249
1113 0 68.0654 15.8965 1082 100.721 1120.51 494.824
1114 0 68.0841 13.9533 950 105.879 1122.74 493.444
1115 0 72.2955 14.4684 1046 104.927 1123.36 492.619
1116 0 75.1247 14.9751 1125 102.883 1125 491.877
1117 0 80.1722 14.9428 1198 103.627 1125.95 491.191
1118 1 43.1655 12.4637 538 102.957 1128.15 510.73
1119 0 44.0812 10.526 464 106.06 1129.18 510.81
1120 0 49.1057 11.5465 567 104.446 1130.71 510.855
1121 0 49.0735 12.8786 632 104.998 1131.22 510.123
1122 0 52.0742 13.5384 705 104.301 1131.97 509.475
1123 0 54.0603 13.8734 750 105.359 1131.71 509.497
1124 0 59.0808 14.5733 861 102.734 1130.07 510.767
1125 0 60.0582 14.2861 858 106.183 1128.39 510.246
1126 0 61.0321 13.796 842 109.549 1126.02 509.363
1127 0 64.0735 13.3753 857 111.985 1124.51 507.629
1128 0 69.0967 14.5159 1003 108.893 1123.28 505.233
1129 0 72.0468 14.907 1074 109.547 1121.2 501.11
1130 0 75.0548 14.2163 1067 110.454 1119.89 500.271
1131 1 42.0272 10.517 442 110.491 1119.27 516.742
1132 0 45.0594 12.0064 541 107.828 1118.6 514.076
1133 0 44.0273 10.4254 459 110.708 1117.49 513.161
1134 0 45.0943 10.9327 493 113.387 1117.68 509.203
1135 0 49.0208 12.7905 627 106.767 1118 507.718
1136 0 52.0576 12.7551 664 106.878 1119.15 505.797
1137 0 52.0673 13.3865 697 105.714 1118.06 503.644
1138 0 53.0424 12.3486 655 108.663 1118.12 502.997
1139 0 55.0356 12.2648 675 107.314 1118.56 503.379
1140 0 57.0676 13.3351 761 106.607 1119.33 501.3
1141 0 58.021 12.5472 728 109.07 1119.7 500.014
1142 0 62.0645 12.9704 805 106.491 1121.19 499.287
1143 0 62.1068 13.348 829 105.893 1123.31 498.805
1144 0 65.0768 13.7069 892 105.316 1124.76 497.452
1145 0 66.2414 14.0848 933 104.946 1127.06 497.497
1146 1 36.0105 8.99737 324 101.704 1128.46 517.352
1147 0 37.04 9.15227 339 103.088 1128.85 517.407
1148 0 38.0906 10.6325 405 104.222 1130.21 516.578
1149 0 41.0271 12.5527 515 99.7223 1130.57 515.361
1150 0 41.0594 10.8136 444 104.178 1129.17 515.486
1151 0 45.0105 10.4642 471 104.259 1127.9 517.106
1152 0 46.1229 11.2959 521 103.737 1126.5 516.564
1153 0 50.1643 12.7581 640 100.303 1126.65 515.466
1154 0 52.0708 13.981 728 99.1676 1126.02 515.565
1155 0 53.1635 12.6214 671 101.969 1124.14 515.159
1156 0 55.1077 13.5553 747 102.26 1122.54 511.296
1157 0 58.0737 12.398 720 104.507 1121.11 510.046
1158 0 59.0879 13.1668 778 103.757 1120.18 507.694
1159 0 61.0457 12.9411 790 105 1119.26 505.291
1160 0 64.118 13.21 847 105.481 1118.54 503.152
1161 0 67.0628 14.1211 947 105.664 1117.95 499.224
1162 0 69.1263 13.6272 942 107.012 1117.53 498.411
1163 0 72.1344 13.766 993 105.602 1117.81 496.467
1164 0 74.17 12.741 945 109.57 1117.84 492.342
1165 1 40.1857 10.6257 427 108.614 1117.98 507.183
1166 0 42.075 10.2198 430 107.053 1118.21 509.572
1167 0 43.0948 10.1869 439 109 1118.42 507.743
1168 0 46.0675 13.3934 617 102.874 1119.33 506.062
1169 0 46.0698 12.9586 597 105.107 1120.35 503.766
1170 0 48.1666 13.3495 643 105.558 1121.16 502.171
1171 0 49.2568 12.2014 601 107.882 1123.73 502.905
1172 0 52.198 11.4564 598 109.343 1126.53 502.834
1173 0 55.1015 13.3209 734 105.614 1128 502.471
1174 0 55.2216 13.1108 724 106.287 1129.86 502.988
1175 0 59.0839 13.7939 815 103.077 1130.73 502.521
1176 0 63.1296 14.3197 904 102.353 1131.1 502.341
1177 0 65.2061 13.2656 865 105.782 1131.77 502.178
1178 0 69.2256 14.4022 997 102.326 1131.97 502.531
1179 0 72.1573 14.1774 1023 105.121 1131.55 501.657
1180 0 75.178 14.7916 1112 103.949 1130.23 500.238
1181 0 79.3829 14.7009 1167 105.16 1129.44 500.011
1182 1 42.0299 10.9208 459 109.135 1126.59 516.954
1183 0 42.059 11.151 469 107.09 1125.95 517.542
1184 0 45.0399 11.9227 537 106.054 1124.25 515.516
1185 0 47.0261 12.3974 583 106.593 1122.66 513.645
1186 0 48.015 12.1212 582 108.311 1120.78 511.701
1187 0 49.0304 12.9715 636 105.755 1119.96 507.796
1188 0 53.0261 14.3514 761 104.163 1118.48 505.302
1189 0 54.0341 13.2324 715 106.116 1117.9 503.601
1190 0 55.0136 12.4878 687 107.75 1117.54 502.089
1191 0 58.0533 14.6417 850 102.779 1117.19 499.779
1192 0 59.0667 13.2731 784 107.048 1117.71 497.11
1193 0 61.1481 12.9685 793 108.24 1118.5 496.016
1194 0 63.0682 13.414 846 106.544 1119.08 496.362
1195 0 64.1185 13.4751 864 107.419 1119.89 492.201
1196 0 64.0333 13.2587 849 108.001 1120.61 493.353
1197 0 69.0456 14.9611 1033 102.814 1122.85 492.253
1198 0 71.0977 15.6404 1112 102.491 1123.82 488.502
1199 0 71.0483 14.5535 1034 105.863 1125.08 487.849
1200 1 39.0958 12.1752 476 105.137 1127.5 506.49
1201 0 39.0459 10.6797 417 108.561 1130.32 508.329
1202 0 41.1233 10.8698 447 110.353 1130.91 506.792
1203 0 45.0506 11.2318 506 108.125 1131.11 508.026
1204 0 44.0437 11.7838 519 109.189 1132.38 508.644
1205 0 48.0933 13.1619 633 107.393 1132.63 507.774
1206 0 48.0275 12.7843 614 111.029 1132.21 508.389
1207 0 51.2503 14.0292 719 110.028 1132.29 507.95
1208 0 52.1683 13.2839 693 114.291 1131.2 509.811
1209 0 56.2154 14.5512 818 110.218 1129.94 509.145
1210 0 58.1556 13.8078 803 111.406 1128.69 510.061
1211 0 60.1938 14.6693 883 111.931 1126.54 506.223
1212 0 61.1092 14.6786 897 112.194 1125.59 505.396
1213 0 65.1808 14.6362 954 111.172 1123.65 502.389
1214 0 67.1633 13.7426 923 113.494 1122.5 501.494
1215 0 71.1581 14.517 1033 111.175 1121.55 499.315
1216 1 37.0276 10.8027 400 111.315 1121.63 513.94
1217 0 36.0217 10.105 364 113.146 1121.59 513.242
1218 0 39.0175 11.9946 468 109.226 1121.02 510.556
1219 0 39.0683 11.9534 467 110.407 1120.1 509.246
1220 0 40.0202 11.7691 471 111.798 1119.58 506.212
1221 0 44.0749 12.8872 568 107.076 1120.49 506.056
1222 0 45.0857 13.308 600 106.577 1120.38 504.608
1223 0 46.0362 13.6632 629 104.676 1121.47 503.275
1224 0 47.0408 13.754 647 104.297 1122.74 502.711
1225 0 50.0494 13.5066 676 102.043 1125.34 503.821
1226 0 50.0821 13.9371 698 102.6 1126.68 501.335
1227 0 54.0278 14.5666 787 99.9288 1128.39 501.304
1228 0 58.0828 13.0848 760 99.8066 1130.3 503.099
1229 0 58.2014 14.3124 833 99.2965 1131.72 502.349
1230 0 60.1732 13.3614 804 100.857 1132.73 503.194
1231 0 65.1734 13.7172 894 100.763 1133.55 502.296
1232 1 37.0818 10.0588 373 97.5067 1133.62 521.3
1233 0 38.0744 10.5057 400 101.042 1133.24 518.01
1234 0 39.1615 10.9291 428 100.222 1132.25 519.217
1235 0 40.0112 11.3968 456 99.9561 1130.16 519.511
1236 0 42.0888 11.9272 502 98.7888 1129.37 518.687
1237 0 45.0747 12.446 561 99.2959 1127.5 516.456
1238 0 47.0643 12.5148 589 97.5382 1125.49 516.153
1239 0 48.127 12.467 600 98.8833 1124.66 513.938
1240 0 48.0493 13.9856 672 97.0179 1122.51 511.47
1241 0 53.0896 15.6528 831 92.2948 1121.58 510.335
1242 0 54.1155 14.5799 789 94.8428 1120.5 507.854
1243 0 55.2937 13.9256 770 97.0857 1119.7 504.132
1244 0 58.0787 13.2923 772 97.3886 1118.85 501.591
1245 0 59.2001 14.1892 840 96.8726 1119.01 499.73
1246 0 63.0679 14.7777 932 96.309 1118.43 499.03
1247 0 64.1093 13.4926 865 99.6497 1118.33 496.225
1248 0 67.1631 14.9338 1003 95.5872 1120.36 495.941
1249 1 38.079 11.0822 422 99.9621 1120.2 508.22
1250 0 38.0923 12.1547 463 98.0864 1120.99 509.011
1251 0 39.0883 11.3845 445 98.3596 1121.33 508.975
1252 0 40.1075 10.6962 429 100.131 1121.53 508.667
1253 0 41.1737 11.8279 487 98.846 1124.71 508.762
1254 0 43.0495 12.776 550 96.6109 1126.33 509.376
1255 0 45.0432 13.0319 587 98.2027 1128.74 507.647
1256 0 47.2068 14.1081 666 96.2447 1130.48 507.653
1257 0 50.0666 14.261 714 95.9034 1130.8 510.567
1258 0 52.0416 13.4508 700 99.2 1130.75 510.521
1259 0 55.1209 13.806 761 97.6426 1131.03 509.883
1260 0 57.1537 14.8547 849 97.7244 1130.09 509.014
1261 0 58.064 13.5196 785 100.943 1129.78 508.772
1262 0 63.0614 13.8754 875 99.8651 1128.48 507.638
1263 0 66.1317 14.7735 977 98.2774 1127.33 506.342
1264 0 70.1259 15.4437 1083 97.2308 1125.45 504.395
1265 1 36.0932 12.1076 437 99.5721 1123.21 521.194
1266 0 36.0738 9.61916 347 103.02 1121.56 519.873
1267 0 37.1242 10.3975 386 102.065 1119.92 517.189
1268 0 42.1512 12.123 511 100.659 1119.27 513.726
1269 0 43.1179 11.7121 505 101.075 1118.19 512.954
1270 0 45.3851 12.6473 574 98.9164 1118.99 509.718
1271 0 48.3463 14.4996 701 94.9615 1118.91 506.853
1272 0 49.2218 14.2823 703 95.973 1116.7 503.916
1273 0 49.1061 13.5014 663 98.7677 1117.75 503.297
1274 0 54.1054 13.9358 754 96.7374 1116.55 500.63
1275 0 55.069 13.5103 744 98.3011 1117.04 498.237
1276 0 58.1883 14.075 819 95.8474 1118.45 498.915
1277 0 59.0742 13.9316 823 97.2807 1119.17 496.651
1278 0 63.233 15.7987 999 92.8278 1120.07 496.088
1279 0 64.1227 13.3494 856 98.743 1122.28 495.396
1280 0 67.1102 14.6624 984 96.0844 1123.9 494.879
1281 0 71.1147 16.5788 1179 92.676 1126.42 494.912
1282 1 34.0258 10.639 362 103.511 1127.4 510.657
1283 0 39.1166 9.99575 391 104.32 1128.99 511.688
1284 0 42.0746 12.8819 542 99.2638 1130.58 512.535
1285 0 42.0825 12.7369 536 103.33 1130.58 512.56
1286 0 46.1069 13.9892 645 100.868 1130.35 510.94
1287 0 49.0566 14.0654 690 101.851 1129.93 512.036
1288 0 50.0432 14.0878 705 103.56 1128.86 510.435
1289 0 55.1167 14.8594 819 101.034 1127.95 511.103
1290 0 57.1318 15.543 888 100.903 1127.17 511.767
1291 0 58.2252 14.1691 825 106.076 1125.96 509.162
1292 0 61.2426 13.5853 832 107.742 1125.11 507.081
1293 0 66.274 15.1794 1006 103.5 1123.97 504.705
1294 0 68.2261 14.8037 1010 104.722 1123.14 503.195
1295 1 36.1522 11.3963 412 108.687 1122.14 516.354
1296 0 39.2289 11.3437 445 107.771 1121.45 514.67
1297 0 41.211 11.3077 466 106.571 1121.19 513.26
1298 0 43.1488 12.9552 559 106.193 1120.31 509.084
1299 0 44.2715 13.8012 611 105.589 1118.51 506.928
1300 0 46.2628 14.2447 659 102.815 1117.86 504.822
1301 0 47.2756 13.0511 617 106.272 1118.51 503.081
1302 0 47.2444 13.5889 642 105.287 1120.09 502.509
1303 0 51.1628 13.7796 705 105.013 1121.13 501.709
1304 0 53.1376 13.5309 719 106.214 1122.23 500.992
1305 0 53.1684 13.429 714 108.069 1124.63 500.08
1306 0 56.1183 13.8279 776 106.579 1125.95 500.161
1307 0 59.166 13.9438 825 106.404 1128.47 498.919
1308 0 60.1633 15.0091 903 105.258 1130.17 497.728
1309 0 62.248 14.4583 900 107.303 1130.51 498.222
1310 0 66.0977 14.2516 942 107.89 1131.49 497.66
1311 0 68.3041 14.5379 993 106.847 1132.69 497.211
1312 1 34.1841 10.736 367 107.033 1132.33 514.992
1313 0 36.2604 9.2939 337 108.57 1132.61 515.878
1314 0 37.3473 9.88024 369 104.61 1132.37 517.919
1315 0 39.1546 11.212 439 104.569 1131.99 516.754
1316 0 43.1081 12.4571 537 101.112 1130.11 515.806
1317 0 44.2259 12.9562 573 100.764 1129.45 515.705
1318 0 45.1648 12.7311 575 101.252 1128.81 513.823
1319 0 47.0971 13.1218 618 100.762 1126.82 512.623
1320 0 50.1257 13.3664 670 100.828 1125.13 510.316
1321 0 49.1455 12.3511 607 103.707 1123.91 508.659
1322 0 51.1271 13.574 694 103.901 1123.12 505.916
1323 0 55.1576 13.4161 740 102.714 1121.71 504.836
1324 0 55.1168 14.1336 779 101.992 1121.32 500.279
1325 0 59.2091 13.5452 802 102.176 1120.77 500.369
1326 0 58.2092 12.0771 703 106.733 1120.92 497.774
1327 0 61.2221 12.8385 786 104.565 1120.88 497.294
1328 0 66.3003 13.1221 870 102.132 1121.43 494.13
1329 0 69.0666 13.277 917 100.158 1123.51 493.186
1330 1 35.1282 9.93503 349 100.201 1124.43 510.02
1331 0 37.1122 11.4248 424 98.1769 1124.72 508.045
1332 0 38.1074 11.6513 444 97.8401 1125.65 508.065
1333 0 40.1944 11.8673 477 98.1363 1127.68 507.43
1334 0 43.1217 13.6822 590 95.722 1128.82 507.61
1335 0 43.2748 13.6569 591 96.9171 1131.44 506.365
1336 0 44.2857 11.9677 530 99.9698 1133.88 508.617
1337 0 47.2672 11.7206 554 99.7563 1134.17 509.635
1338 0 49.3742 14.0559 694 98.2277 1135.08 506.363
1339 0 50.3715 13.2218 666 100.673 1135.53 506.815
1340 0 52.2681 13.2203 691 101.239 1134.91 507.398
1341 0 56.3812 14.2069 801 99.2247 1133.83 509.192
1342 0 57.2718 13.7764 789 102.492 1132.49 506.905
1343 0 62.3785 14.9891 935 98.7989 1131.24 506.446
1344 0 65.5503 16.0945 1055 97.2919 1130.7 505.402
1345 0 66.4135 14.9066 990 101.29 1128.8 504.84
1346 1 37.1739 11.5404 429 101.338 1127.88 519.988
1347 0 38.2623 10.2973 394 104.47 1126.32 517.178
1348 0 41.2137 13.0782 539 99.8386 1125 515.933
1349 0 41.2779 11.8465 489 103.863 1124.03 514.843
1350 0 44.0956 12.6316 557 104.255 1121.65 511.655
1351 0 46.3092 14.9646 693 101.016 1121.14 508.758
1352 0 47.2076 13.6207 643 105.541 1120.71 506.708
1353 0 51.1866 13.7536 704 104.781 1120.47 502.572
1354 0 52.139 15.5929 813 101.007 1121.51 501.72
1355 0 54.104 15.1006 817 101.346 1122.21 501.486
1356 0 55.2253 14.1602 782 104.674 1122.58 499.925
1357 0 58.2894 14.3251 835 103.389 1123.97 498.81
1358 0 60.3264 14.8194 894 103.239 1124.37 497.432
1359 0 60.2618 14.3706 866 106.115 1124.73 495.132
1360 0 64.218 14.5131 932 104.682 1127.36 496.511
1361 0 65.4829 14.416 944 106.445 1128.91 495.278
1362 0 70.3272 14.8022 1041 104.47 1131.28 497.524
1363 0 72.3244 14.435 1044 107.515 1133.22 495.251
1364 1 37.3273 10.9035 407 105.115 1134.37 516.536
1365 0 38.2341 10.6972 409 108.474 1134.3 516.968
1366 0 39.1692 12.5609 492 109.22 1134.9 515.703
1367 0 43.259 11.5814 501 110.19 1133.98 517.158
1368 0 46.4028 13.2319 614 106.694 1133.12 517.125
1369 0 51.1675 12.0975 619 108.158 1131.46 516.564
1370 0 51.18 12.9347 662 108.909 1129.72 515.157
1371 0 53.075 12.8309 681 110.392 1128.08 513.659
1372 0 55.1232 13.8236 762 109.738 1126.93 511.636
1373 0 58.3263 14.7789 862 107.188 1125.56 509.186
1374 0 59.3973 13.0646 776 112.046 1124.12 506.845
1375 0 63.2755 14.8083 937 106.415 1122.77 506.594
1376 0 64.2138 16.336 1049 104.074 1121.38 504.86
1377 0 68.4214 13.8261 946 108.934 1120.69 500.855
1378 0 71.3537 14.5893 1041 107.507 1119.91 497.451
1379 0 74.4321 14.5233 1081 107.864 1119.97 495.373
1380 0 75.4163 13.9227 1050 109.858 1120.35 492.462
1381 0 80.3335 14.9626 1202 106.4 1120.76 490.733
1382 0 82.2205 15.0449 1237 107.195 1121.26 486.66
1383 0 85.3066 15.1336 1291 107.779 1122.2 487.074
1384 0 89.6169 13.8367 1240 108.89 1123.02 485.306
1385 1 45.1583 9.47776 428 110.36 1124.35 507.449
1386 0 47.3634 10.5778 501 111.517 1125.6 504.838
1387 0 50.1528 12.0233 603 107.323 1127.54 505.619
1388 0 53.3101 12.6805 676 107.675 1130.62 503.254
1389 0 57.2433 12.8574 736 105.678 1132.41 503.905
1390 0 59.1921 12.7551 755 106.714 1133 503.609
1391 0 61.2557 13.6804 838 105.561 1133.87 502.629
1392 0 67.2094 13.9415 937 102.68 1133.86 504.649
1393 0 67.3488 13.7196 924 105.119 1133.49 503.36
1394 0 73.245 13.5026 989 105.941 1132.22 500.813
1395 0 75.3026 14.0101 1055 106.029 1131.4 500.351
1396 0 78.198 13.0438 1020 108.438 1129.78 501.154
1397 0 84.4181 15.4943 1308 103.694 1127.69 497.609
1398 1 45.0874 9.60357 433 106.568 1127.88 519.042
1399 0 47.0265 11.1427 524 102.844 1125.75 518.177
1400 0 48.0377 10.6791 513 106.986 1124.05 514.99
1401 0 49.2118 13.0457 642 105.436 1122.66 513.47
1402 0 51.1828 12.8363 657 106.837 1120.78 512.511
1403 0 51.1106 12.0719 617 107.438 1120.25 510.376
1404 0 57.1721 12.9434 740 103.505 1119.7 508.069
1405 0 58.126 12.8342 746 105.575 1119.13 505.35
1406 0 60.1303 14.2856 859 102.566 1118.88 503.191
1407 0 62.1007 13.462 836 104.657 1118.93 501.281
1408 0 61.1646 12.7361 779 107.85 1119.94 498.895
1409 0 65.2236 14.09 919 104.663 1120.61 497.408
1410 0 67.2612 14.0646 946 105.518 1121.97 495.515
1411 0 69.202 13.1066 907 108.036 1121.9 495.142
1412 0 72.3674 14.15 1024 105.425 1122.81 494.043
1413 1 38.186 10.9202 417 105.909 1123.45 511.748
1414 0 41.2561 10.1318 418 107.744 1125.73 511.794
1415 0 41.1825 8.98439 370 107.462 1127.92 514.911
1416 0 42.2085 9.45307 399 111.09 1129.85 513.747
1417 0 43.1964 11.5519 499 108.142 1130.43 512.699
1418 0 46.2222 11.2067 518 110.052 1131.41 513.344
1419 0 48.1816 12.3076 593 107.192 1131.47 514.676
1420 0 49.1882 11.8728 584 110.022 1130.93 513.339
1421 0 54.2992 12.7258 691 106.56 1129.78 514.446
1422 0 54.2328 13.4236 728 106.449 1128.9 512.35
1423 0 57.0734 13.4038 765 106.656 1127.5 512.248
1424 0 61.1182 13.8093 844 103.585 1125.62 510.318
1425 0 61.2311 12.1017 741 109.897 1124.5 510.229
1426 0 65.2892 13.7542 898 104.716 1122.89 507.57
1427 0 66.1712 13.1477 870 108.995 1121.79 505.08
1428 0 68.2218 12.6939 866 111.747 1121.48 503.462
1429 0 72.1775 14.6029 1054 107.68 1120.34 502.931
1430 0 74.317 14.1825 1054 108.85 1119.88 497.677
1431 1 37.0792 8.84594 328 109.966 1119.37 517.543
1432 0 40.1653 10.4568 420 106.098 1118.79 515.464
1433 0 40.1243 9.79456 393 109.646 1119.15 513.214
1434 0 43.234 11.1486 482 106.51 1119.3 511.081
1435 0 41.0115 11.1676 458 109.917 1118.62 508.762
1436 0 45.0739 11.8472 534 108.058 1118.6 507.62
1437 0 46.0769 11.8715 547 105.729 1121.02 508.112
1438 0 47.1728 13.1644 621 104.177 1121.9 505.694
1439 0 48.1172 13.7581 662 103.036 1122.82 505.272
1440 0 50.1473 13.9589 700 102.771 1124.47 504.63
1441 0 51.1017 12.4262 635 106.302 1126.28 504.265
1442 0 53.0834 13.1868 700 105.304 1127.97 506.33
1443 0 55.0789 13.1993 727 105.396 1129.32 507.941
1444 0 56.2283 12.8405 722 107.248 1129.99 505.089
1445 0 59.1267 12.9552 766 107.112 1131.93 507.546
1446 0 63.1106 12.5969 795 107.706 1130.99 507.825
1447 0 64.1628 12.6709 813 112.843 1130.5 506.62
1448 0 67.3079 12.896 868 112.846 1129.53 505.301
1449 0 70.2605 11.4004 801 115.969 1128.2 507.459
1450 0 75.1833 14.2585 1072 108.459 1127.14 505.122
1451 1 41.1321 9.67615 398 112.779 1124.87 521.613
1452 0 41.2501 9.57574 395 112.529 1123.51 523.329
1453 0 43.2063 10.7623 465 113.944 1122.46 519.783
1454 0 44.2319 11.9823 530 112.487 1122.13 519.983
1455 0 47.2167 13.3851 632 111.392 1121.38 515.47
1456 0 48.3079 13.3726 646 109.967 1119.07 513.545
1457 0 50.1496 12.8416 644 112.099 1118.51 512.444
1458 0 49.166 12.3663 608 115.722 1116.83 511.336
1459 0 53.1147 13.7815 732 111.604 1116.65 508.389
1460 0 54.2038 14.0581 762 111.685 1116.54 505.325
1461 0 55.1084 12.8111 706 114.65 1117.45 504.2
1462 0 58.1582 14.5121 844 109.537 1117.68 504.013
1463 0 60.1608 13.7631 828 111.402 1118.26 502.604
1464 0 60.2139 13.4853 812 112.424 1119.5 500.25
1465 0 63.3214 13.6762 866 112.299 1120.41 499.851
1466 0 67.1425 14.432 969 109.85 1121.33 498.497
1467 0 69.1527 14.4897 1002 110.39 1123 498.405
1468 0 72.1956 13.7405 992 112.827 1124.82 497.323
1469 0 74.1854 13.2371 982 113.619 1126.77 497.555
1470 1 41.0456 11.7918 484 111.275 1129.58 515.215
1471 0 41.1418 10.5246 433 115.182 1131.56 517.125
1472 0 43.1396 10.4313 450 117.784 1132.07 516.704
1473 0 44.1857 11.859 524 115.053 1133.15 518.227
1474 0 47.1135 12.2683 578 116.149 1133.3 517.251
1475 0 50.1741 13.0944 657 113.804 1132.51 516.942
1476 0 51.044 11.4803 586 116.637 1131.42 517.085
1477 0 54.0681 13.6679 739 109.17 1127.82 516.355
1478 0 55.1122 12.9917 716 109.795 1126.99 516.468
1479 0 56.0928 12.9785 728 110.144 1125.68 513.01
1480 0 60.1061 14.9902 901 104.972 1123.33 509.933
1481 0 62.0759 13.709 851 108.529 1121.7 507.209
1482 0 65.0872 14.8877 969 105.724 1120.32 505.772
1483 0 67.0651 14.7916 992 105.511 1120.17 501.877
1484 0 71.0765 14.7025 1045 105.049 1120.09 501.709
1485 0 70.0682 12.916 905 111.108 1119.48 497.656
1486 0 75.1122 16.269 1222 101.84 1119.81 495.435
1487 0 78.126 14.8094 1157 105.145 1119.88 493.266
1488 1 41.1034 10.4858 431 106.413 1120.13 509.872
1489 0 42.0457 9.8702 415 105.318 1120.14 510.687
1490 0 44.1095 10.7233 473 106.994 1120.59 506.729
1491 0 46.1002 11.3665 524 103.584 1121.88 507.134
1492 0 48.0991 12.7237 612 101.422 1123.11 506.149
1493 0 51.1646 12.5477 642 101.042 1124.4 505.838
1494 0 53.1191 13.385 711 98.3361 1125.7 507.127
1495 0 54.0972 13.1245 710 100.666 1127.86 505.834
1496 0 56.0724 15.052 844 97.545 1129.66 504.323
1497 0 57.2047 13.0409 746 102.13 1130.29 504.741
1498 0 59.0694 13.3741 790 102.343 1131.15 504.586
1499 0 63.1216 15.0345 949 98.1328 1131.3 505.387
1500 0 63.0703 13.7624 868 101.613 1131.18 507.129
1501 0 69.0812 14.2152 982 100.285 1130.58 504.651
1502 0 71.1916 13.7516 979 101.885 1129.54 502.859
1503 1 38.1667 11.1354 425 99.7553 1129 522.478
1504 0 38.1211 10.4142 397 100.929 1127.45 523.078
1505 0 41.2815 10.3921 429 103.653 1125.73 519.077
1506 0 43.2032 10.9251 472 100.341 1124.62 521.061
1507 0 46.2497 10.8325 501 102.355 1123.24 518.455
1508 0 46.3385 13.0777 606 99.1155 1121.4 513.667
1509 0 49.218 13.5723 668 97.5764 1120.41 511.913
1510 0 51.303 12.4944 641 99.5569 1119.77 510.621
1511 0 52.308 14.2808 747 96.7403 1118.86 509.181
1512 0 52.2181 13.0798 683 99.4876 1119.44 505.776
1513 0 56.2186 12.4514 700 99.82 1118.53 503.137
1514 0 56.1654 12.6946 713 100.007 1118.78 502.618
1515 0 58.2052 13.1603 766 99.9856 1118.43 499.685
1516 0 62.3382 13.6192 849 98.6867 1118.71 499.78
1517 1 32.1828 9.60141 309 101.922 1119.95 512.521
1518 0 32.1925 9.28789 299 102.749 1121.18 512.288
1519 0 33.146 9.47324 314 99.3248 1121.7 513.455
1520 0 35.0534 9.81359 344 102.041 1122.94 511.235
1521 0 38.2055 10.6267 406 98.3276 1124.98 511.889
1522 0 40.1012 11.6705 468 97.0876 1127.08 511.346
1523 0 42.0614 12.5769 529 95.4234 1129.08 510.703
1524 0 44.1726 14.2622 630 89.3444 1130.23 512.436
1525 0 44.2723 15.0884 668 90.2096 1130.63 511.922
1526 0 48.1704 12.8502 619 92.5283 1132.02 513.291
1527 0 50.1853 13.9882 702 91.5954 1132.06 512.839
1528 0 52.169 15.4689 807 91.7051 1131.59 512.502
1529 0 53.2459 12.7521 679 97.754 1131.25 512.175
1530 0 54.2524 13.1607 714 97.8936 1130.46 512.126
1531 0 60.2233 15.5089 934 91.3994 1128.77 510.902
1532 0 59.2586 14.1076 836 95.4342 1127.3 511.273
1533 0 63.1278 13.4014 846 96.3865 1125.66 510.306
1534 0 67.2006 15.61 1049 93.0438 1124.05 506.284
1535 0 69.2126 14.8239 1026 94.962 1122.32 504.501
1536 0 71.1059 13.9229 990 97.0535 1121.28 504.154
1537 1 38.1343 9.78122 373 99.445 1120.69 519.828
1538 0 39.1777 9.92912 389 101.075 1120.48 515.686
1539 0 40.0826 10.7029 429 100.72 1118.45 512.245
1540 0 40.215 12.1596 489 100.665 1117.93 509.468
1541 0 42.1975 9.9532 420 104.436 1118.12 507.998
1542 0 45.1965 11.9478 540 100.841 1119.03 505.996
1543 0 46.0623 11.7884 543 100.284 1119.48 505.956
1544 0 50.0494 15.1051 756 92.9643 1120.32 504.415
1545 0 51.2441 12.8405 658 97.8404 1120.06 504.239
1546 0 50.1008 12.4549 624 100.579 1120.89 503.308
1547 0 55.129 14.8742 820 94.2134 1122.64 502.699
1548 0 56.1446 13.483 757 96.2008 1123.78 502.363
1549 0 58.1552 14.1002 820 94.4073 1125.73 503.627
1550 0 60.1198 13.4398 808 96.5792 1127.65 503.915
1551 0 60.0994 13.9602 839 97.7342 1129.38 500.572
1552 0 65.2047 14.3855 938 95.6802 1130 503.588
1553 0 69.0465 13.4547 929 98.1905 1131.51 503.062
1554 0 72.0914 14.2458 1027 96.3496 1132.49 504.19
1555 0 75.2785 15.7681 1187 94.5131 1132.41 502.647
1556 1 42.1503 11.6488 491 96.0143 1132.09 518.454
1557 0 42.1165 9.68742 408 95.7843 1131.4 521.593
1558 0 45.0698 11.8039 532 94.5639 1129.91 519.1
1559 0 47.0338 10.9496 515 97.732 1128.83 517.975
1560 0 51.0382 13.0686 667 94.904 1127.57 516.397
1561 0 52.1186 13.9873 729 93.7147 1124.77 515.018
1562 0 54.0894 13.0525 706 94.7238 1121.93 510.133
1563 0 56.1282 14.36 806 92.4107 1121.83 510.36
1564 0 57.1897 14.8803 851 91.5899 1121.53 508.184
1565 0 59.1738 13.8237 818 95.5 1119.84 505.511
1566 0 60.2302 15.0589 907 93.5645 1119.45 502.273
1567 0 63.172 13.8511 875 94.9497 1119.61 499.577
1568 0 66.1323 16.8753 1116 90.8835 1119.73 498.309
1569 0 68.134 14.9411 1018 94.3438 1119.45 496.928
1570 0 69.1974 14.4225 998 94.1754 1119.75 496.424
1571 0 73.2036 14.9993 1098 94.1129 1119.83 493.143
1572 0 74.1948 14.9471 1109 93.3445 1120.81 492.481
1573 0 80.3401 15.9945 1285 89.9338 1123.34 493.558
1574 0 81.4449 15.446 1258 92.4428 1123.85 489.787
1575 0 83.3382 15.5871 1299 93.8822 1124.79 487.459
1576 1 46.2275 12.2871 568 93.4789 1125.47 509.259
1577 0 48.3846 11.946 578 93.8408 1127.48 509.796
1578 0 50.2312 12.761 641 94.1934 1128.36 509.413
1579 0 53.519 12.4442 666 94.6697 1130.11 509.246
1580 0 55.2507 13.3754 739 93.8308 1132.58 510.223
1581 0 58.2742 14.4833 844 91.5379 1132.54 510.639
1582 0 59.2008 14.4762 857 93.8611 1132.06 509.644
1583 0 60.1008 13.2444 796 95.9749 1130.85 511.211
1584 0 64.1985 14.0657 903 95.2126 1130.08 508.714
1585 0 68.2903 15.1705 1036 93.0261 1129.31 509.007
1586 0 72.2789 13.8353 1000 95.252 1127.83 507.336
1587 0 72.4037 14.0186 1015 95.8837 1126.71 507.123
1588 0 77.29 14.672 1134 94.4012 1125.33 503.2
1589 0 80.3175 15.8372 1272 93.0472 1123.09 500.948
1590 0 85.2505 15.9999 1364 93.074 1121.57 497.764
1591 1 42.2053 10.9702 463 95.635 1120.51 518.307
1592 0 46.1662 13.2348 611 93.3617 1119.83 513.609
1593 0 48.106 14.1354 680 91.7147 1119.77 512.028
1594 0 50.138 13.8418 694 94.1282 1119.1 509.366
1595 0 52.0894 13.7456 716 93.9162 1119.16 508.613
1596 0 50.1554 12.7404 639 99.5462 1119.94 504.881
1597 0 54.1858 13.8597 751 95.4487 1120.87 504.55
1598 0 57.2236 14.3297 820 95.5354 1122.01 501.59
1599 0 58.1608 14.0645 818 95.2873 1123.29 502.01
1600 0 60.1481 16.0604 966 93.0673 1123.11 499.837
1601 0 61.1652 13.9785 855 98.5357 1123.03 499.526
1602 0 65.1778 16.2939 1062 93.0631 1124.29 498.865
1603 0 67.1878 14.4372 970 97.2031 1125.03 497.594
1604 0 70.2022 14.7716 1037 95.7936 1127.45 497.629
1605 0 70.1685 14.4794 1016 98.4882 1129.4 494.792
1606 0 76.1864 14.8452 1131 96.3183 1131.4 497.255
1607 0 80.1985 14.9629 1200 96.9183 1131.8 495.298
1608 0 80.1949 14.4772 1161 100.333 1132.26 495.632
1609 0 87.2129 14.9978 1308 98.5436 1132.78 497.235
1610 0 88.2042 15.9063 1403 99.9679 1132.46 494.163
1611 0 92.1709 15.7642 1453 100.401 1131.35 495.314
1612 1 49.1439 12.3311 606 104.561 1131.8 515.568
1613 0 51.2086 11.2676 577 105.702 1130.78 516.672
1614 0 54.1588 13.5343 733 103.357 1128.66 514.39
1615 0 56.1026 14.1526 794 103.186 1127.72 511.453
1616 0 60.1099 12.9263 777 104.299 1124.91 511.667
1617 0 61.0929 13.7659 841 105.866 1123.06 507.58
1618 0 64.0574 15.892 1018 101.527 1121.7 505.274
1619 0 67.0965 15.1126 1014 103.343 1120.67 502.74
1620 0 69.0465 13.7588 950 108.7 1119.66 501.127
1621 0 72.1533 15.3285 1106 104.976 1119.5 498.312
1622 0 76.1814 15.8831 1210 101.964 1119.15 496.168
1623 0 77.0864 15.2297 1174 105.31 1119.94 493.386
1624 0 81.0997 15.1172 1226 106.024 1120.78 490.663
1625 0 82.0855 13.9367 1144 109.075 1121.08 488.734
1626 1 46.0309 11.9051 548 108.907 1120.81 506.031
1627 0 46.0714 12.0248 554 108.664 1121.45 505.958
1628 0 47.098 11.7202 552 111.629 1121.68 503.75
1629 0 50.0291 11.8331 592 108.655 1122.26 505.476
1630 0 50.1481 12.7223 638 107.262 1125.92 505.154
1631 0 53.0399 14.4608 767 104.85 1126.92 504.051
1632 0 55.0637 13.9112 766 105.556 1129.17 504.839
1633 0 57.0881 13.9784 798 105.028 1129.16 504.459
1634 0 59.1713 14.6186 865 104.498 1130.96 505.569
1635 0 61.1144 13.7611 841 107.463 1131.69 504.609
1636 0 64.0776 15.3564 984 103.568 1132.27 505.609
1637 0 68.1536 13.1908 899 109.681 1131.44 505.195
1638 0 72.1539 13.8177 997 108.966 1130.48 504.096
1639 0 76.0699 14.8811 1132 105.269 1129.48 502.701
1640 1 41.0442 9.67251 397 109.166 1129.17 522.839
1641 0 43.0363 11.5019 495 109.273 1126.69 518.606
1642 0 47.091 10.7452 506 106.522 1126.18 521.591
1643 0 48.0202 12.9112 620 104.744 1123.95 518.295
1644 0 49.1166 11.4625 563 109.066 1122.69 516.957
1645 0 54.0829 12.9616 701 104.93 1122.44 514.565
1646 0 54.1456 14.8119 802 103.413 1121.5 510.017
1647 0 56.0496 12.8993 723 102.596 1119.1 510.539
1648 0 57.0368 12.8513 733 105.048 1117.8 506.45
1649 0 60.034 13.6256 818 102.209 1117.74 505.302
1650 0 61.0961 13.6179 832 102.495 1117.89 502.794
1651 0 64.0343 13.1023 839 102.775 1117.64 501.479
1652 0 66.1307 13.428 888 101.139 1118.2 499.676
1653 0 68.046 12.7708 869 103.483 1118.38 496.182
1654 0 72.0526 15.114 1089 98.0964 1118.74 494.556
1655 0 75.1653 13.8894 1044 101.932 1119.68 493.683
1656 0 78.1179 13.9021 1086 100.136 1120.87 493.493
1657 1 38.0301 10.0973 384 100.924 1122.04 512.466
1658 0 39.0542 11.164 436 100.257 1124.09 511.617
1659 0 42.0617 9.4385 397 100.685 1125.85 512.849
1660 0 43.0362 11.2696 485 98.7938 1128.39 513.862
1661 0 45.1007 10.9311 493 104.252 1129.81 511.746
1662 0 48.0442 12.9256 621 97.0338 1130.7 513.874
1663 0 48.0676 12.8569 618 98.8172 1131.58 514.042
1664 0 53.1172 12.9148 686 98.4679 1132.33 514.971
1665 0 52.0876 12.4598 649 100.857 1131.79 514.908
1666 0 55.1261 12.3898 683 102.142 1131.54 515.086
1667 0 56.1475 13.2864 746 100.804 1130.84 514.21
1668 0 59.1384 12.9358 765 101.23 1129.89 514.693
1669 0 63.1226 14.3372 905 97.7967 1128.69 513.199
1670 0 65.3484 14.2314 930 97.7387 1126.73 510.938
1671 0 67.0629 14.2553 956 98.3054 1124.42 509.355
1672 0 71.1093 13.5425 963 100.594 1122.6 506.529
1673 0 70.0943 13.9098 975 102.102 1121.53 504.018
1674 0 77.3321 15.2718 1181 97.5504 1120.23 501.696
1675 0 77.3333 14.2888 1105 100.814 1120.13 498.949
1676 0 82.1585 13.7539 1130 101.152 1118.97 494.042
1677 0 85.3324 13.3712 1141 100.415 1118.57 493.885
1678 1 40.1224 9.84487 395 100.235 1118.35 514.066
1679 0 42.1205 9.75772 411 101.589 1118.85 510.742
1680 0 47.0706 11.4509 539 97.1076 1118.91 509.143
1681 0 48.1519 11.4222 550 97.8655 1119.32 506.575
1682 0 50.2099 12.6668 636 95.4292 1119.98 505.039
1683 0 53.3033 14.0517 749 93.5821 1119.86 503.299
1684 0 52.1132 13.4899 703 96.4637 1121.02 502.165
1685 0 57.325 13.3798 767 94.1369 1121.41 502.632
1686 0 57.1291 12.8831 736 96.8342 1123.23 501.337
1687 0 60.1361 13.536 814 94.6978 1124.93 500.257
1688 0 62.131 13.375 831 94.9531 1127.18 499.285
1689 0 64.1073 14.5849 935 92.6524 1128.47 499.522
1690 0 65.3967 13.2423 866 96.0785 1129.73 497.813
1691 0 71.0925 14.7273 1047 91.7526 1130.29 498.575
1692 0 72.3256 14.0891 1019 94.0059 1130.77 497.008
1693 0 77.3512 14.4923 1121 93.1534 1130.51 497.424
1694 0 80.4899 14.4987 1167 93.3093 1130.05 496.803
1695 0 84.4547 13.8417 1169 94.4713 1128.47 494.479
1696 1 41.1395 10.3064 424 97.8113 1128.14 516.361
1697 0 44.1863 11.6099 513 95.4425 1127.35 515.938
1698 0 43.1801 11.0699 478 98.4059 1125.52 512.759
1699 0 45.2682 11.708 530 94.1057 1124.68 514.742
1700 0 47.1866 12.1433 573 94.1344 1123.76 510.522
1701 0 50.2723 13.6855 688 91.4724 1122.5 507.983
1702 0 52.1217 15.5597 811 88.6079 1122.2 506.769
1703 0 51.1493 12.6297 646 95.1625 1121.7 504.981
1704 0 55.2857 15.5194 858 87.7448 1121.04 503.161
1705 0 55.2807 13.1511 727 93.3934 1119.55 499.882
1706 0 56.2088 12.1511 683 95.5403 1119.51 497.499
1707 0 60.3409 14.4181 870 90.4138 1120.28 493.479
1708 0 61.3578 14.994 920 90.2033 1121.2 491.538
1709 0 61.2782 14.0507 861 91.856 1121.88 492.252
1710 0 67.2595 16.4884 1109 86.4518 1121.97 488.874
1711 0 68.2166 14.9817 1022 89.455 1123.24 488.367
1712 0 71.2469 14.9901 1068 88.559 1123.99 488.092
1713 1 36.2239 8.00575 290 94.5172 1124.16 507.024
1714 0 40.2062 11.3913 458 91.2424 1126.74 503.679
1715 0 38.1808 10.8955 416 91.4207 1128.64 505.974
1716 0 40.1861 10.9242 439 90.3462 1130.25 505.79
1717 0 45.1335 12.1861 550 87.7418 1132.04 506.742
1718 0 46.0216 12.4941 575 86.2278 1133.19 509.301
1719 0 48.2686 14.8751 718 83.3593 1133.47 509.065
1720 0 48.219 12.7958 617 87.6791 1133.55 508.533
1721 0 49.1023 13.7672 676 70.4527 1132.63 506.856
1722 0 49.0852 14.5054 712 94.7584 1131.57 454.813
1723 0 52.0826 15.4754 806 92.9206 1131.43 455.748
1724 0 52.3706 13.5572 710 69.2155 1129.07 509.946
1725 0 51.2582 14.6123 749 68.514 1128.18 507.328
1726 0 49.1537 12.7152 625 72.016 1127.32 510.594
1727 1 23.0167 10.1231 233 73.4378 1125.9 522.279
1728 0 27.0652 9.86507 267 74.7828 1125.21 519.712
1729 0 27.0279 10.9517 296 73.6689 1124.19 519.591
1730 0 23.0317 9.63891 222 74.5405 1123.26 518.671
1731 0 28.043 10.27 288 73.1042 1121.86 516.819
1732 0 26.0115 8.80381 229 74.4716 1121.32 517.672
1733 0 22.0848 8.1957 181 73.105 1121.09 518.122
1734 0 25.0219 7.7532 194 74.3866 1120.42 513.314
1735 1 44.0194 12.6081 555 94.9802 1120.9 453.681
1736 0 47.1361 13.3231 628 91.8551 1121.79 452.92
