time division length width area intensity CMx CMy
0 0 27.0067 12.3673 334 105.554 1346.69 505.204
1 0 26.0176 10.4929 273 112.978 1345.86 504.623
2 0 26.004 11.652 303 109.508 1348.62 504.934
3 0 28.0265 12.6309 354 103.359 1347.8 503.401
4 0 28.0071 11.8541 332 106.289 1347.39 503.066
5 0 27.1957 12.4284 338 104.524 1348.12 505.334
6 0 27.1159 11.4693 311 107.701 1347.61 505.672
7 0 28.2666 11.6038 328 105.317 1348.22 503.771
8 0 28.2577 11.4305 323 107.362 1347.31 504.978
9 0 29.1263 12.0853 352 104.33 1348.24 504.239
10 0 29.0572 12.4926 363 105.223 1347.36 502.598
11 0 32.1027 11.8993 382 103.647 1347.56 503.694
12 0 32.1138 11.9886 385 104.275 1348.21 502.795
13 0 34.1842 12.7837 437 100.3 1348.28 502.256
14 0 33.1761 12.9008 428 102.668 1348.55 501.005
15 0 33.2259 14.5369 483 99.0476 1347.42 500.441
16 0 35.1483 12.3477 434 100.385 1347.82 501.843
17 0 35.2357 12.9698 457 99.4858 1347.95 501.182
18 0 34.1805 12.1414 415 103.918 1347.94 500.393
19 0 36.3626 13.1454 478 100.715 1348.1 499.795
20 0 39.2931 13.6411 536 98.069 1347.57 499.562
21 0 38.1655 13.8607 529 100.147 1348.14 498.382
22 0 38.1694 12.6017 481 103.351 1349.61 498.973
23 0 41.1114 13.962 574 100.876 1349.32 498.301
24 0 42.1071 14.3681 605 99.9752 1349.58 497.281
25 0 43.0909 14.2722 615 99.7594 1349.67 495.777
26 0 46.083 14.8428 684 98.2734 1350.66 496.896
27 0 45.1758 13.7463 621 101.221 1351.03 496.969
28 0 46.2448 13.5366 626 101.834 1351.03 495.992
29 0 48.1438 13.3766 644 100.557 1349.99 495.416
30 0 48.0888 13.2463 637 102.333 1349.69 495.056
31 0 50.2885 14.3572 722 99.3504 1349.75 492.661
32 0 49.1289 14.1465 695 100.36 1349.53 493.645
33 0 52.1171 14.6593 764 97.5602 1350.06 491.855
34 0 53.1462 14.9023 792 98.005 1350.09 493.29
35 0 53.1174 13.8938 738 102.438 1350.05 490.168
36 0 55.1065 14.2451 785 101.931 1350.21 491.46
37 0 56.1573 13.4978 758 104.087 1350.38 490.621
38 0 57.1516 14.3653 821 103.447 1350.73 489.665
39 0 61.1537 14.0956 862 102.738 1350.9 490.929
40 0 63.4186 14.8064 939 100.764 1351.3 490.358
41 0 64.1469 14.6071 937 103.266 1351.11 487.783
42 0 64.1708 14.5081 931 104.563 1351.3 485.406
43 0 66.0648 15.4697 1022 103.031 1351.22 487.346
44 0 71.2046 14.999 1068 103.653 1351.04 486.381
45 0 70.2409 15.1621 1065 104.396 1351.68 486.35
46 0 75.1116 15.1508 1138 103.797 1352.01 485.957
47 0 76.1521 15.6135 1189 104.778 1352.23 484.053
48 1 39.0243 13.1969 515 107.416 1352.34 501.346
49 0 40.0517 10.2118 409 109.897 1352.48 502.66
50 0 43.13 12.4044 535 107.508 1351.46 499.589
51 0 46.0561 11.7031 539 108.315 1352.17 500.28
52 0 47.1561 13.0206 614 107.156 1351.86 497.938
53 0 48.1496 13.1673 634 106.927 1352.06 498.158
54 0 50.0425 13.2887 665 106.469 1352.37 498.2
55 0 51.0453 14.83 757 104.963 1352.5 495.884
56 0 55.0708 14.7991 815 104.222 1352.28 494.877
57 0 56.0844 15.3162 859 103.321 1352.22 495.248
58 0 58.0753 15.876 922 104.213 1351.69 491.574
59 0 61.1001 15.9247 973 103.857 1352.01 490.115
60 0 62.108 15.1188 939 105.473 1352.52 487.586
61 0 64.1626 15.4919 994 103.21 1352.69 490.516
62 0 66.0604 16.0005 1057 101.898 1352.73 488.018
63 0 67.1645 14.6804 986 107.855 1353.55 485.221
64 0 71.0407 15.1603 1077 106.045 1352.95 486.929
65 0 73.0637 15.3154 1119 107.26 1353.2 484.142
66 0 74.0322 15.9795 1183 104.875 1353.52 482.877
67 0 78.1014 16.7475 1308 103.906 1353.72 481.904
68 0 80.2446 15.8391 1271 107.503 1353.69 480.361
69 0 82.1276 16.8031 1380 107.264 1352.89 480.475
70 0 85.1534 16.4057 1397 108.283 1353.07 478.246
71 0 87.1099 15.9569 1390 110.409 1353.57 478.237
72 0 90.1419 15.875 1431 111.517 1351.29 474.845
73 0 92.2944 16.4149 1515 110.61 1352.45 474.577
74 0 97.2664 16.717 1626 110.433 1352.38 473.21
75 1 54.0243 10.7174 579 112.375 1353.99 497.263
76 0 56.0754 14.4805 812 109.432 1354.21 493
77 0 58.0537 14.0387 815 108.761 1354.51 492.401
78 0 61.0883 14.8146 905 106.065 1354.52 492.853
79 0 62.0968 15.1538 941 106.877 1355.37 492.937
80 0 61.1285 13.6761 836 112.14 1355.5 490.644
81 0 65.1027 14.2544 928 110.212 1354.31 489.481
82 0 68.1039 15.2561 1039 109.835 1353.74 488.494
83 0 71.1329 14.7892 1052 110.475 1354.64 488.074
84 0 72.0658 15.5414 1120 109.929 1354.9 486.273
85 0 74.075 14.9038 1104 112.814 1354.51 483.762
86 0 78.1193 15.5659 1216 111.946 1353.96 483.716
87 0 81.1552 15.7353 1277 112.102 1353.71 480.978
88 0 84.1683 16.0393 1350 112.022 1353.64 478.062
89 0 86.2737 16.9692 1464 108.51 1353.53 479.296
90 0 90.2213 15.6504 1412 112.28 1354.21 475.03
91 0 95.2019 16.7118 1591 108.358 1354.26 473.786
92 0 95.2029 16.7747 1597 156.116 1354.24 473.813
93 1 53.1059 12.9741 689 106.274 1354.59 494.634
94 0 54.0612 11.6535 630 110.717 1355.31 491.595
95 0 55.2294 12.5658 694 107.906 1355.45 492.37
96 0 55.1529 11.5135 635 109.063 1355.78 491.902
97 0 60.0499 14.1882 852 103.313 1355.99 491.362
98 0 60.0689 13.0517 784 104.286 1356.28 490.335
99 0 59.1211 11.9923 709 108.701 1355.16 487.849
100 0 65.0508 12.7746 831 106.207 1354.98 487.767
101 0 68.1021 13.3036 906 104.309 1355.22 486.982
102 0 72.1707 14.4657 1044 100.657 1355.04 486.37
103 0 72.1879 12.6752 915 104.826 1356.28 485.55
104 0 74.1684 14.2648 1058 103.126 1356.44 482.129
105 1 40.0254 11.5427 462 100.729 1356.9 501.723
106 0 41.007 11.2664 462 102.32 1357.14 501.167
107 0 43.0582 10.6135 457 102.775 1355.95 500.61
108 0 45.0335 11.2361 506 102.769 1355.66 498.751
109 0 47.045 9.58656 451 106.969 1356.38 498.96
110 0 47.1254 10.4402 492 104.39 1355.62 500.156
111 0 49.0843 11.8572 582 101.778 1355.36 498.619
112 0 50.0476 11.7688 589 103.044 1355.55 496.008
113 0 53.0227 13.1453 697 100.419 1355.58 493.727
114 0 55.1122 13.8626 764 98.2513 1355.62 494.936
115 0 56.1242 12.704 713 101.365 1356.56 493.271
116 0 58.0486 12.8858 748 100.362 1355.64 492.997
117 0 61.0465 13.3505 815 97.7252 1355.71 493.415
118 0 60.0858 12.2658 737 100.319 1354.64 491.384
119 0 62.1148 12.4608 774 96.9897 1354.45 490.837
120 0 64.0476 12.9123 827 97.1125 1355.59 488.202
121 0 64.0938 11.7016 750 98.936 1353.89 488.213
122 0 68.1304 13.1806 898 95.6893 1353.69 487.216
123 0 70.2095 12.7476 895 95.9966 1354.42 487.556
124 0 72.1661 13.6075 982 96.3371 1353.99 484.068
125 0 75.1724 12.2784 923 97.6793 1353.5 484.75
126 0 78.3032 13.4733 1055 96.509 1353.34 480.952
127 0 79.1646 11.2677 892 100.668 1353.33 479.085
128 1 43.1934 10.6729 461 96.5098 1352.77 497.393
129 0 45.1003 10.0886 455 94.8945 1354.07 499.738
130 0 45.213 9.13455 413 96.5303 1354.36 499.676
131 0 47.1215 11.7144 552 92.8025 1355.11 498.322
132 0 49.1369 10.8676 534 93.4719 1354.6 497.099
133 0 49.1747 11.571 569 92.522 1354.89 495.919
134 0 50.0609 11.4461 573 92.0297 1355.18 494.131
135 0 51.0967 11.625 594 91.3889 1355.82 493.146
136 0 55.1272 13.2058 728 88.5948 1355.09 492.015
137 0 58.2146 12.6772 738 90.2547 1355.14 492.217
138 0 60.4256 12.7264 769 88.788 1354.89 492.026
139 0 61.0827 13.5063 825 87.663 1354.81 491.64
140 0 62.113 10.9478 680 91.3176 1354.49 489.649
141 0 68.1633 14.1572 965 85.2943 1355.52 490.042
142 0 68.1302 13.8118 941 86.2859 1355.19 488.529
143 0 68.1228 12.5509 855 87.9146 1356.08 485.626
144 0 71.1434 12.763 908 87.7566 1355.27 487.514
145 0 73.2176 13.0706 957 86.8704 1355.69 485.839
146 0 73.213 11.8148 865 89.4659 1355.31 483.029
147 0 76.2454 11.7909 899 89.5862 1354.41 479.279
148 0 79.182 12.2503 970 88.3206 1353.94 482.462
149 0 82.2131 13.538 1113 86.9443 1353.55 480.783
150 0 86.2138 12.875 1110 87.2847 1353.73 479.268
151 0 90.1985 12.8384 1158 87.3851 1353.39 477.571
152 0 91.1463 12.8365 1170 87.7521 1353.17 476.153
153 0 93.192 12.0826 1126 90.1554 1352.67 471.709
154 1 53.047 11.6312 617 84.7472 1352.86 494.838
155 0 55.0687 12.0758 665 84.5218 1351.8 493.683
156 0 54.1129 10.8477 587 85.1175 1351.69 495.956
157 0 56.0476 11.4545 642 85.7617 1352.34 491.97
158 0 58.142 12.1255 705 86.4922 1352.95 490.448
159 0 58.1208 13.0418 758 85.4499 1353.62 488.714
160 0 60.0489 14.1551 850 83.4506 1353.77 488.869
161 0 62.1796 11.2416 699 87.8083 1353.85 490.073
162 0 65.0763 12.7235 828 85.8394 1354.09 486.899
163 0 67.1364 12.5714 844 86.2725 1354.42 485.073
164 0 69.2419 13.7922 955 84.2147 1355.7 484.253
165 0 69.1556 13.2889 919 85.6855 1355.41 483.793
166 0 74.2179 14.673 1089 82.3967 1356.52 483.937
167 0 77.3277 13.1777 1019 84.9166 1356.01 481.981
168 0 77.2051 12.7453 984 85.8679 1355.47 483.358
169 0 82.1872 15.2335 1252 82.2756 1355.69 479.888
170 1 42.1508 11.364 479 82.8935 1355.88 500.891
171 0 45.2522 11.4912 520 83.4788 1356.26 500.392
172 0 47.134 11.0112 519 84.4277 1356.46 500.017
173 0 48.2088 10.8901 525 85.1467 1356.43 499.928
174 0 48.0851 12.2283 588 84.9133 1355.55 498.793
175 0 50.15 10.7876 541 86.7616 1355.58 499.433
176 0 53.0549 12.1949 647 85.0711 1355.03 498.189
177 0 56.1422 14.5345 816 81.4387 1354.77 496.821
178 0 58.0762 13.9472 810 82.3086 1355.44 496.102
179 0 58.0993 13.6491 793 83.7301 1354.48 495.987
180 0 60.168 15.8224 952 80.9758 1354.05 495.391
181 0 63.0807 14.9333 942 81.8524 1353.16 493.694
182 0 64.087 12.7171 815 86.5607 1353.1 491.968
183 0 64.1377 12.1613 780 87.1538 1352.47 490.567
184 0 67.1106 13.7981 926 85.0616 1352.71 487.293
185 0 70.1208 14.5749 1022 84.2446 1352.75 487.933
186 0 72.0994 13.4398 969 86.3694 1352.32 486.552
187 0 73.2198 13.958 1022 86.0763 1352.12 486.506
188 0 78.0999 16.1204 1259 82.3392 1352.19 484.629
189 0 80.1773 14.2185 1140 86.664 1352.15 481.694
190 0 83.2305 14.4298 1201 87.2698 1352.36 480.694
191 1 41.0763 10.1518 417 87.4652 1353.55 502.254
192 0 45.1064 12.4816 563 86.794 1353.27 499.007
193 0 45.1254 10.6149 479 90.714 1353.6 498.823
194 0 48.0271 12.5346 602 90.0183 1354.2 496.063
195 0 47.0901 12.0832 569 90.5132 1355.5 496.568
196 0 51.2886 13.1218 673 89.1991 1354.72 495.869
197 0 51.1819 13.032 667 90.9775 1354.43 493.196
198 0 53.0646 14.3976 764 88.8312 1355.31 494.14
199 0 55.2193 13.7995 762 90.9423 1354.38 493.01
200 0 56.0772 15.3895 863 89.3395 1354.64 490.217
201 0 58.1505 14.4281 839 91.1752 1353.85 491.026
202 0 61.0639 15.3446 937 88.873 1353.86 490.712
203 0 61.062 13.6091 831 92.8821 1353.62 491.432
204 0 63.0495 14.8772 938 91.4382 1354.01 491.949
205 0 65.1182 14.2356 927 92.4088 1353.85 491.399
206 0 67.2038 15.7729 1060 90.9962 1353.84 489.742
207 0 69.2997 13.8673 961 93.8221 1353.74 491.406
208 0 71.2614 14.9871 1068 93.0094 1352.85 488.738
209 0 71.2642 14.4673 1031 96.1513 1353.38 487.46
210 0 75.2425 15.882 1195 93.1347 1353.51 487.614
211 0 77.3189 15.6236 1208 95.8369 1352.47 486.263
212 0 80.1185 15.3148 1227 96.599 1352.03 484.176
213 0 83.355 16.2798 1357 94.7089 1351.76 482.323
214 0 87.1642 15.9354 1389 95.1483 1351.69 481.266
215 0 89.4298 15.1404 1354 96.2319 1351.09 481.19
216 0 91.4153 14.1661 1295 98.0402 1350.63 478.653
217 1 48.0615 11.8182 568 98.6092 1350.95 498.09
218 0 48.134 12.2367 589 97.708 1350.25 498.341
219 0 54.1514 13.0375 706 94.6289 1350.79 496.373
220 0 54.0902 13.0338 705 94.3886 1350.95 495.851
221 0 56.1078 13.9375 782 94.0345 1351.64 492.434
222 0 59.1577 15.9235 942 89.7803 1351.25 492.527
223 0 60.1932 13.2905 800 94.0962 1350.79 490.62
224 0 63.2165 13.9521 882 91.2041 1351.37 490.406
225 0 64.0966 14.1661 908 91.609 1351.5 489.403
226 0 67.2022 14.8507 998 90.6703 1351.24 486.3
227 0 68.2471 13.583 927 93.6828 1351.54 484.661
228 0 72.1954 14.2391 1028 92.1274 1351.68 484.611
229 0 73.2145 14.2595 1044 92.069 1351.77 483.656
230 0 76.3003 13.9711 1066 93.0413 1352.42 480.933
231 0 78.1146 14.5299 1135 92.8476 1352.62 479.884
232 0 81.1521 13.678 1110 93.0865 1352.74 480.836
233 0 84.2575 15.239 1284 92.1698 1352.82 476.903
234 0 87.1474 14.1255 1231 94.4119 1353.13 477.153
235 1 45.172 11.8879 537 92.2775 1353.26 498.05
236 0 47.193 12.1204 572 92.7028 1353.34 497.941
237 0 49.1747 11.2456 553 93.6582 1353.49 499.004
238 0 49.0866 11.6325 571 94.0613 1353.68 497.797
239 0 51.1097 11.0351 564 94.1862 1354.02 498.442
240 0 52.0997 12.073 629 93.9841 1353.9 496.534
241 0 56.0401 13.3833 750 90.804 1353.09 496.209
242 0 57.1085 13.0278 744 92.0941 1352.61 495.448
243 0 60.1154 13.3244 801 92.206 1352.85 493.624
244 0 61.202 12.4669 763 92.6435 1353.28 493.118
245 0 63.1 14.3265 904 90.9734 1353.13 490.345
246 0 66.1444 14.3776 951 90.1661 1352.59 491.954
247 0 68.2977 12.4748 852 94.7676 1352.63 489.455
248 0 71.0962 15.2891 1087 90.7912 1351.55 488.597
249 0 73.1013 15.0203 1098 85.5592 1350.99 488.533
250 0 76.1915 14.9886 1142 92.0149 1351.05 485.752
251 0 78.3674 14.0747 1103 94.7588 1351.18 482.426
252 0 78.3674 14.1003 1105 156.086 1351.18 482.47
253 0 82.1757 14.4812 1190 96.4983 1350.75 479.924
254 0 85.1286 13.7087 1167 98.0583 1350.78 480.544
255 1 49.0409 10.583 519 96.501 1351.91 499.341
256 0 49.084 10.8997 535 96.5907 1352.13 498.645
257 0 48.0588 9.77969 470 98.2808 1351.79 499.128
258 0 48.0527 11.6539 560 96.4161 1352.71 496.957
259 0 51.109 12.757 652 92.5261 1352.86 497.942
260 0 54.0508 13.3023 719 94.0528 1352.66 494.623
261 0 54.0246 12.4018 670 95.7896 1353.15 494.458
262 0 56.1135 14.0608 789 93.4753 1353.54 494.555
263 0 57.2078 13.3723 765 96.9582 1352.51 492.763
264 0 58.0696 12.485 725 97.4897 1353.93 492.337
265 0 62.1622 14.0117 871 94.93 1353.29 491.312
266 0 64.1559 14.1219 906 94.4801 1353.95 489.68
267 0 64.1559 14.231 913 150.966 1354.98 489.662
268 0 68.2335 13.9374 951 94.8391 1354.91 489.016
269 0 69.2059 13.9005 962 94.8929 1355.02 488.65
270 0 72.1198 14.1154 1018 94.0334 1354.79 487.52
271 0 74.2207 13.8775 1030 94.4864 1354.54 487.028
272 0 78.0824 14.6896 1147 93.0968 1354.38 485.968
273 0 79.1177 15.9509 1262 91.3178 1354.62 486.105
274 0 81.2415 13.983 1136 94.1259 1354.76 486.299
275 0 84.3462 15.0807 1272 93.6219 1354.38 481.8
276 0 86.2192 13.5237 1166 96.0472 1353.67 480.992
277 1 45.0686 11.3605 512 95.3223 1353.49 502.031
278 0 47.0448 10.9683 516 95.7306 1352.92 501.192
279 0 48.066 11.7339 564 93.2039 1351.94 500.484
280 0 50.067 14.6404 733 89.4598 1351.64 499.112
281 0 52.2876 13.1197 686 91.8717 1352.02 497.634
282 0 53.1566 13.5637 721 92.663 1352.17 496.33
283 0 56.1795 14.8097 832 89.5661 1351.69 496.194
284 0 57.1498 13.7008 783 93.6181 1351.36 493.931
285 0 58.1991 13.1274 764 94.9725 1351.93 493.651
286 0 60.211 13.8181 832 93.9663 1352.16 493.452
287 0 63.1434 13.8415 874 94.0423 1352.26 490.299
288 0 66.2465 15.2159 1008 90.8184 1351.53 490.038
289 0 64.1883 13.4448 863 96.3082 1352.19 486.914
290 0 69.1209 14.5253 1004 93.5847 1352.73 487.73
291 0 70.0938 14.2951 1002 95.7675 1353.2 484.118
292 0 73.0869 14.3801 1051 95.5186 1353.26 484.159
293 0 75.1265 13.3907 1006 97.8022 1353.93 483.104
294 0 77.0725 14.8562 1145 96.5747 1354.91 480.398
295 0 81.1547 15.6491 1270 94.8654 1354.85 479.32
296 0 85.2118 15.1153 1288 96.0575 1356.54 478.722
297 0 88.1289 16.6461 1467 93.1527 1356.96 478.09
298 1 45.1305 12.2977 555 95.3604 1356.76 499.386
299 0 47.2315 12.4917 590 94.1373 1357.25 500.666
300 0 47.0351 11.8847 559 96.6208 1356.74 500.222
301 0 47.0351 11.9273 561 154.775 1357.74 500.283
302 0 51.0685 12.5713 642 95.634 1354.85 499.713
303 0 52.097 14.2043 740 91.8946 1355.46 499.643
304 0 53.0883 14.7113 781 92.1831 1353.57 498.723
305 0 52.0475 13.9872 728 95.4437 1353.96 499.409
306 0 55.0993 13.394 738 96.6748 1354.05 499.458
307 0 57.1328 14.2475 814 95.5295 1353.63 495.763
308 0 58.0624 13.1755 765 97.5817 1352.99 498.092
309 0 59.0671 14.1026 833 96.9196 1353.09 497.624
310 0 63.0601 15.0967 952 95.7122 1352.77 496.401
311 0 65.1208 15.4636 1007 96.864 1351.64 495.521
312 0 65.1208 15.4021 1003 152.456 1350.65 495.52
313 0 66.1654 14.63 968 100.268 1350.81 491.451
314 0 70.0707 14.2142 996 100.156 1350.72 490.895
315 0 71.1506 14.4482 1028 100.566 1349.78 490.133
316 0 71.1506 14.4763 1030 161.624 1348.8 490.196
317 0 77.182 15.3663 1186 100.308 1350.69 487.327
318 0 79.0432 14.0936 1114 104.554 1350.53 482.107
319 0 81.1881 15.6057 1267 101.758 1350.4 479.891
320 0 84.1196 14.3011 1203 104.799 1351.06 479.152
321 1 46.0749 11.3728 524 103.866 1351.64 499.082
322 0 47.1902 10.8497 512 90.2441 1352.35 499.871
323 0 48.0489 11.5299 554 104.513 1352.4 498.753
324 0 51.099 12.6813 648 100.642 1353.36 498.812
325 0 50.1917 13.1297 659 102.648 1353.3 497.806
326 0 52.1044 13.6073 709 101.109 1354.23 496.495
327 0 55.0957 13.4493 741 100.44 1354.01 495.775
328 0 55.0883 13.7597 758 99.5858 1354.56 496.553
329 0 59.1314 13.9689 826 98.8075 1354.56 496.015
330 0 60.1832 14.3728 865 99.7249 1355.1 493.951
331 0 60.0756 15.5804 936 99.3216 1355.12 493.238
332 0 63.2436 14.6892 929 101.119 1354.98 492.563
333 0 63.197 14.7634 933 102.249 1354.7 492.114
334 0 67.0931 14.3979 966 102.344 1355.33 490.863
335 0 72.1636 15.8667 1145 97.8655 1356.27 492.395
336 0 71.0647 15.0004 1066 103.269 1356.25 490.855
337 0 73.161 14.6116 1069 105.167 1355.35 489.673
338 0 75.1526 13.2131 993 108.835 1355.03 487.82
339 0 77.1184 13.8618 1069 108.54 1354.36 487.823
340 0 81.1085 16.0402 1301 104.508 1354.59 485.793
341 0 83.0639 14.7356 1224 107.565 1353.09 485.578
342 0 84.1851 15.3471 1292 107.687 1351.73 483.063
343 0 87.26 14.5084 1266 109.974 1351.47 481.436
344 0 89.1243 13.7 1221 111.437 1351.26 480.516
345 0 93.1042 15.3914 1433 108.012 1351.37 478.076
346 0 97.1879 15.8044 1536 107.479 1351.04 475.155
347 0 100.154 15.8456 1587 107.04 1351.73 474.547
348 0 100.09 15.3262 1534 110.986 1350.56 468.705
349 0 106.125 17.5359 1861 104.766 1350.48 470.589
350 0 109.179 16.2394 1773 107.45 1350.56 469.723
351 0 111.238 15.8849 1767 108.982 1351.29 466.014
352 0 116.235 16.5957 1929 107.666 1351.16 464.706
353 0 118.163 16.0626 1898 109.932 1351.15 461.622
354 0 122.156 15.8814 1940 110.715 1351.81 460.485
355 0 128.145 16.1458 2069 110.767 1352.29 457.516
356 0 133.296 16.4746 2196 109.562 1353.76 454.968
357 0 138.309 17.3019 2393 107.413 1353.9 451.103
358 1 80.2889 11.9444 959 107.254 1354.65 485.815
359 0 85.1972 13.146 1120 106.797 1355.43 482.145
360 0 89.143 13.5961 1212 106.501 1355.88 480.886
361 0 89.2142 12.5092 1116 110.72 1355.56 478.816
362 0 94.1501 14.3494 1351 107.378 1356.29 477.043
363 0 96.4015 15.0309 1449 106.852 1356.02 475.62
364 0 101.337 13.381 1356 109.828 1356.08 474.55
365 0 105.291 15.1864 1599 106.792 1356.02 473.18
366 0 108.332 14.6679 1589 107.899 1355.52 473.016
367 0 113.149 14.45 1635 109.643 1355.41 470.062
368 1 60.1821 10.0362 604 109.053 1354.92 497.101
369 0 65.1844 11.8893 775 106.738 1354.78 494.845
370 0 65.2215 12.6492 825 106.48 1353.69 493.756
371 0 69.4156 13.5272 939 103.651 1353.06 494.142
372 0 71.1305 13.1308 934 107.526 1353.1 489.636
373 0 75.2571 13.022 980 105.035 1352.33 491.107
374 0 77.1565 12.9995 1003 107.989 1352.2 486.511
375 0 79.2609 13.3736 1060 108.769 1351.67 484.173
376 0 83.4005 13.4292 1120 107 1352.08 481.867
377 0 83.1233 13.5943 1130 108.214 1351.49 480.752
378 1 44.1726 9.53078 421 104.171 1351.08 504.235
379 0 43.0319 11.2707 485 103.988 1349.61 502.301
380 0 47.1146 12.5014 589 99.6316 1349.37 502.569
381 0 46.0671 10.1374 467 108.304 1350.48 499.529
382 0 46.0964 12.5389 578 104.099 1351.79 497.806
383 0 49.0991 11.5888 569 105.46 1351.76 498.088
384 0 49.0725 11.7785 578 104.884 1352.79 497.337
385 0 50.1096 12.2132 612 104.132 1354.05 498.047
386 0 53.1082 12.804 680 101.225 1354.24 497.372
387 0 56.2316 12.5019 703 99.744 1354.47 496.519
388 0 55.1183 12.954 714 101.147 1354.96 494.633
389 0 56.2094 12.3823 696 101.849 1355.54 495.501
390 0 59.2024 12.9218 765 101.275 1354.96 493.838
391 0 60.1283 11.5087 692 103.363 1355.63 492.747
392 0 62.2242 11.7639 732 101.309 1355.5 494.255
393 0 62.2242 11.7157 729 141.055 1355.51 494.291
394 0 67.1752 12.9363 869 99.6755 1355.23 490.776
395 0 70.1798 12.9667 910 99.6516 1355.34 491.142
396 0 72.1831 13.1748 951 100.606 1355.4 489.85
397 0 75.2625 12.8351 966 101.075 1354.34 488.616
398 0 79.1785 12.5413 993 100.804 1354.3 489.033
399 0 80.1872 14.0546 1127 97.811 1354.43 485.682
400 0 84.2715 14.7737 1245 95.6048 1354.29 482.764
401 0 85.1036 13.5364 1152 98.9254 1354.7 481.339
402 0 89.3077 11.9922 1071 100.965 1353.99 481.602
403 0 92.384 13.7903 1274 97.6664 1352.94 479.211
404 0 94.2822 12.558 1184 100.693 1352.34 476.328
405 0 98.2663 14.5421 1429 96.0945 1351.54 476.101
406 0 99.2371 12.4147 1232 99.263 1351.16 471.211
407 0 104.386 13.1723 1375 97.4967 1350.84 471.892
408 1 57.152 9.53597 545 93.0349 1350.54 497.993
409 0 58.0869 12.2403 711 90.9226 1350.52 493.963
410 0 62.2578 11.0669 689 91.2076 1351.33 493.309
411 0 63.2733 11.3634 719 90.701 1350.69 491.241
412 0 62.1328 11.411 709 95.5233 1350.57 489.052
413 0 66.2112 12.0221 796 93.9447 1350.8 487.812
414 0 68.2823 12.6241 862 92.5592 1351.64 487.886
415 0 70.2635 10.9445 769 97.1547 1352.68 484.218
416 0 73.1653 12.5059 915 95.788 1352.44 482.984
417 0 76.2624 13.1651 1004 95.4731 1353.68 480.592
418 1 40.2557 10.3836 418 95.323 1355.7 500.49
419 0 42.1752 10.3141 435 94.5402 1356.79 502.637
420 0 42.1679 10.1736 429 97.7133 1357.44 501.585
421 0 46.0598 12.8094 590 91.3424 1357.48 500.353
422 0 47.0823 13.933 656 88.3857 1357.5 500.944
423 0 47.0736 12.4698 587 91.5877 1358.55 500.671
424 0 49.0216 12.3823 607 91.6096 1358.01 502.128
425 0 51.0211 13.8962 709 89.7264 1358.34 500.351
426 0 54.0506 13.8944 751 88.9467 1357.36 501.262
427 0 54.0726 12.5387 678 92.0236 1356.28 501.442
428 0 56.0912 13.6741 767 90.6506 1355.89 500.691
429 0 60.0487 16.2035 973 85.1449 1355.89 499.747
430 0 61.1847 14.3173 876 89.4794 1354.64 498.688
431 0 61.1726 14.2874 874 89.5835 1354.15 499.707
432 0 65.1064 14.0386 914 90.0897 1354.06 497.151
433 0 66.0981 14.3272 947 90.7149 1352.62 494.828
434 0 67.3332 13.8862 935 93.1562 1352.32 492.301
435 0 69.2016 13.7714 953 93.7429 1352.27 491.008
436 0 73.3112 15.4001 1129 90.0142 1351.93 489.519
437 0 76.1757 16.3175 1243 89.1126 1350.53 487.417
438 0 78.1883 14.3244 1120 93.3402 1350.84 484.795
439 0 80.1826 14.4794 1161 92.5866 1350.32 485
440 1 40.1247 8.39882 337 94.4688 1350.71 503.685
441 0 45.1223 11.7902 532 89.4868 1350.46 502.421
442 0 44.0343 11.809 520 89.7654 1350.6 502.262
443 0 46.123 12.4883 576 90.2986 1351.39 499.321
444 0 46.1237 12.4014 572 92.5822 1351.93 496.883
445 0 47.0797 12.4045 584 93.8373 1352.58 496.467
446 0 48.08 12.6872 610 93.2295 1354.04 496.408
447 0 52.2193 15.0328 785 88.4217 1354.74 496.559
448 0 52.2412 13.0548 682 90.824 1355.78 497.903
449 0 54.2233 14.6985 797 89.3225 1357.27 495.565
450 0 55.1744 12.9408 714 93.6373 1357.5 495.326
451 0 57.1125 13.5347 773 92.6119 1358 498.296
452 0 58.2021 14.5356 846 91.6927 1358.15 497.362
453 0 61.1021 13.8293 845 92.6308 1357.36 497.682
454 0 63.1352 14.0492 887 92.6302 1356.86 496.143
455 0 67.252 13.7988 928 92.4062 1356.46 496.204
456 0 67.2147 14.6992 988 92.9372 1355.17 495.184
457 0 67.2147 14.5801 980 136.832 1354.18 495.052
458 0 73.3926 13.6526 1002 95.0559 1354.87 493.207
459 0 75.2484 13.5418 1019 94.6497 1354.63 492.501
460 0 79.342 14.3304 1137 94.4327 1353.84 488.53
461 1 40.1698 12.4472 500 93.826 1353.63 507.546
462 0 42.0666 13.3836 563 94.0728 1352.73 505.05
463 0 42.1905 11.8747 501 97.5349 1352.09 503.102
464 0 42.4889 10.5204 447 99.604 1351.95 502.877
465 0 47.3182 12.194 577 96.7452 1352.13 500.563
466 0 48.1965 13.445 648 96.1389 1350.81 499.235
467 0 51.3233 13.5416 695 100.803 1350.32 500.593
468 0 51.2271 13.8794 711 97.8523 1349.5 495.622
469 0 54.2095 14.2964 775 97.3497 1349.45 495.334
470 0 56.2245 13.6062 765 97.9216 1350.06 494.901
471 0 57.2238 15.3607 879 96.5017 1349.96 490.454
472 0 60.348 14.3004 863 98.1506 1350.33 490.024
473 0 62.2978 15.5062 966 96.1439 1350.82 489.291
474 0 63.2153 14.2054 898 99.0045 1351.2 486.952
475 0 67.3487 15.7687 1062 95.3663 1351.78 486.222
476 0 69.4023 15.5903 1082 96.0231 1352.89 486.035
477 0 71.2906 15.1913 1083 94.7516 1353.93 485.304
478 0 73.4666 14.5644 1070 95.1972 1356.39 486.052
479 1 42.5846 13.4086 571 94.9177 1358.33 502.131
480 0 42.3728 11.21 475 100.867 1358.55 502.743
481 0 46.379 13.5837 630 97.7841 1359.13 501.362
482 0 46.3715 14.0604 652 97.5429 1359.48 502.264
483 0 48.3039 13.0424 630 99.3524 1358.7 502.562
484 0 52.2103 13.5414 707 98.6987 1358.05 501.745
485 0 53.4107 14.8285 792 96.8043 1356.87 501.955
486 0 55.58 14.6635 815 97.5816 1355.8 500.958
487 0 57.2773 14.7703 846 98.7612 1355.09 499.364
488 0 58.4614 14.9158 872 99.0321 1354.76 498.041
489 0 60.6926 15.1748 921 98.6341 1354.29 498.313
490 0 64.3575 16.1131 1037 95.8881 1352.94 497.495
491 0 65.5725 15.4028 1010 98.1089 1351.65 495.212
492 0 68.31 15.942 1089 97.303 1351.3 492.646
493 0 71.5402 15.2781 1093 97.7347 1350.76 491.842
494 0 73.5466 17.8662 1314 94.2184 1350.28 488.435
495 0 76.4707 15.6661 1198 98.5209 1349.86 486.694
496 1 39.6453 11.9813 475 100.072 1349.4 503.956
497 0 41.3309 12.3636 511 99.2348 1348.75 502.924
498 0 40.5688 12.7438 517 99.7041 1348.12 501.021
499 0 41.1708 12.9703 534 101.476 1348.11 498.146
500 0 44.5617 13.7113 611 99.6072 1348.02 498.005
501 0 45.2553 14.5397 658 97.8511 1348.69 497.272
502 0 47.2436 14.1606 669 98.0329 1349.66 497.788
503 0 49.335 14.0266 692 99.2197 1350.29 495.478
504 0 51.4315 13.9992 720 99.5403 1351.53 495.356
505 0 52.333 14.6561 767 99.7379 1353.37 495.055
506 0 55.5676 13.5331 752 101.496 1355.44 494.231
507 0 56.3672 14.9023 840 100.212 1357.35 494.561
508 0 60.5104 16.146 977 97.3777 1358.79 493.259
509 0 61.4368 14.9585 919 101.189 1358.85 493.694
510 0 63.4392 14.4075 914 103.244 1359.14 493.345
511 0 67.2773 16.3502 1100 99.2627 1359.09 494.902
512 0 68.2974 14.6272 999 105.007 1358.91 493.939
513 0 70.4024 13.849 975 108.218 1357.94 492.923
514 0 73.3674 15.2656 1120 104.638 1357.45 492.934
515 0 76.3879 14.7144 1124 107.079 1357.48 491.313
516 0 80.3954 16.4811 1325 104.9 1356.56 490.802
517 1 44.2367 11.3933 504 107.302 1354.14 510
518 0 47.3566 13.1766 624 104.96 1352.9 507.896
519 0 51.1951 12.8723 659 105.178 1351.7 506.865
520 0 50.2277 11.3284 569 109.826 1350.68 505.921
521 0 52.3879 12.9419 678 105.637 1349.39 505.681
522 0 56.2192 13.5541 762 105.143 1348.71 504.156
523 0 56.1501 13.4105 753 107.369 1347.89 501.068
524 0 59.0543 14.0887 832 106.514 1346.97 500.464
525 0 60.1111 13.0425 784 109.151 1345.46 500.098
526 0 64.1787 15.1608 973 104.356 1344.74 498.541
527 0 65.2662 14.1268 922 107.757 1344.58 495.93
528 0 67.5043 14.0732 950 108.252 1343.91 493.435
529 0 71.1913 14.4259 1027 106.45 1343.85 492.787
530 0 72.1939 14.2533 1029 108.585 1344.35 489.292
531 0 75.1615 15.2206 1144 106.736 1345.1 489.03
532 0 79.1026 14.1209 1117 108.354 1346.31 488.757
533 0 83.0895 15.5134 1289 105.87 1349.06 485.337
534 0 83.3222 13.9099 1159 110.003 1350.45 485.286
535 0 89.1959 14.7428 1315 106.468 1351.98 485.967
536 1 45.1775 11.0675 500 103.352 1353.98 508.432
537 0 47.049 11.2861 531 107.262 1354.88 505.851
538 0 50.0772 11.8417 593 106.113 1356.72 506.251
539 0 51.1164 13.3225 681 104.844 1357.37 508.852
540 0 52.22 12.9452 676 107.499 1357.62 506.525
541 0 55.0553 13.0233 717 106.812 1357.02 508.123
542 0 59.1484 13.5253 800 105.551 1354.11 508.441
543 0 60.14 12.737 766 108.765 1353.3 506.396
544 0 63.1689 13.0761 826 107.737 1351.51 505.505
545 0 64.0454 12.9127 827 109.541 1349.76 504.626
546 0 66.0703 12.8348 848 110.676 1348.66 501.197
547 0 70.0653 13.5445 949 108.769 1347.65 500.002
548 0 73.1846 12.7896 936 109.678 1346.83 497.642
549 0 77.3392 14.4429 1117 106.188 1345.57 494.124
550 0 80.2607 15.35 1232 104.351 1345.29 492.01
551 0 83.1485 14.877 1237 105.686 1344.67 489.098
552 0 83.2425 13.1664 1096 110.234 1344.38 487.734
553 1 46.0456 10.0987 465 105.054 1345.07 505.766
554 0 46.0581 10.1176 466 103.444 1344.28 505.418
555 0 52.0455 11.6629 607 102.25 1343.78 500.651
556 0 50.0365 9.97272 499 105.88 1344.38 499.487
557 0 51.0365 9.73812 497 103.521 1344.36 501.622
558 0 55.0785 11.8921 655 101.534 1344.33 496.924
559 0 56.2871 12.2941 692 100.931 1343.42 494.042
560 0 56.1498 12.3954 696 101.685 1344.31 493.717
561 0 58.238 12.2944 716 101.987 1345.87 492.122
562 0 61.2286 12.1512 744 101.655 1347.92 491.383
563 0 62.0471 13.2158 820 99.1366 1349.81 491.077
564 0 65.1213 13.2368 862 98.3666 1351.31 490.922
565 0 68.0712 13.1921 898 97.7405 1353.95 489.293
566 0 70.0469 12.563 880 99.1102 1355.44 490.116
567 0 75.1202 14.4834 1088 94.1333 1356.08 490.696
568 0 76.206 12.3088 938 97.3966 1355.9 490.979
569 0 79.0796 13.0501 1032 97.6638 1356.03 488.339
570 0 83.22 13.8669 1154 96.9359 1356.6 489.113
571 0 86.1421 13.3268 1148 99.5244 1355.74 488.735
572 0 90.1125 12.4622 1123 102.102 1355.04 486.359
573 0 92.1561 12.7176 1172 101.781 1354.68 485.447
574 1 50.0976 10.6193 532 100.57 1353.86 507.821
575 0 53.1186 8.321 442 102.991 1352.15 510.253
576 0 55.1337 11.191 617 101.963 1350.44 505.618
577 0 58.0542 12.8673 747 98.6519 1348.54 505.93
578 0 60.0796 13.3989 805 101.206 1347.03 500.547
579 0 63.3264 13.3594 846 100.272 1346.38 500.936
580 0 63.1502 12.6365 798 103.92 1346.01 500.137
581 0 66.2876 13.8638 919 99.8172 1345.91 497.668
582 0 68.2335 14.6116 997 100.009 1344.71 492.486
583 0 72.2148 13.5568 979 100.442 1344.65 493.189
584 0 72.1964 13.3802 966 102.129 1344.32 491.487
585 0 75.3413 14.0162 1056 100.11 1343.97 491.638
586 0 78.2623 14.8858 1165 99.7236 1344.16 485.145
587 0 81.2779 14.9979 1219 98.9992 1344.42 483.913
588 0 84.1648 14.6855 1236 99.3835 1345.19 483.427
589 0 85.2353 14.8647 1267 99.2281 1345.95 479.554
590 0 90.4139 14.7986 1338 97.3236 1347.51 480.462
591 0 91.1162 13.5322 1233 100.554 1347.85 477.164
592 0 97.1373 14.6082 1419 96.3101 1350.8 478.467
593 0 100.278 14.5197 1456 97.6278 1352.98 476.848
594 0 105.152 15.5584 1636 96.1834 1354.64 475.545
595 1 57.0638 12.2319 698 94.1648 1356.63 500.699
596 0 59.3506 13.951 828 93.3925 1357.39 500.838
597 0 61.2668 13.0087 797 96.1794 1357.9 499.962
598 0 63.1283 13.3379 842 94.8337 1358.21 502.283
599 0 64.3609 13.5486 872 95.375 1357.43 501.932
600 0 66.267 13.3098 882 97.4138 1355.12 501.452
601 0 69.3185 13.9934 970 97.0454 1354.25 501.942
602 0 73.2453 13.2022 967 98.4633 1352.13 503.22
603 0 74.1808 13.4401 997 97.989 1350.88 502.754
604 1 38.2544 8.62646 330 98.3879 1348.62 520.806
605 0 40.0963 9.97599 400 95.7775 1347.48 520.958
606 0 45.2295 12.4476 563 91.0195 1347.63 520.812
607 0 46.2763 12.7927 592 92.5084 1346.94 519.226
608 0 46.1179 12.7283 587 94.9949 1345.21 517.702
609 0 50.0635 14.3018 716 91.602 1344.69 516.929
610 0 49.0865 14.0365 689 94.6052 1343.49 514.389
611 0 51.1314 13.9054 711 94.7412 1342.71 515.542
612 0 54.1314 13.3379 722 96.4834 1341.09 513.284
613 0 55.1496 15.1588 836 92.9868 1340.59 511.508
614 0 57.1357 13.7042 783 95.2644 1340.84 509.948
615 0 57.1631 14.3099 818 94.2506 1340.75 507.823
616 0 60.0877 16.0765 966 91.4586 1340.39 506.382
617 0 61.0488 14.0543 858 95.7413 1341.28 504.432
618 0 64.1665 15.3351 984 92.8394 1341.26 503.315
619 0 65.0647 16.1839 1053 92.472 1341.79 500.765
620 0 67.1175 15.8528 1064 93.0893 1343.15 500.054
621 0 68.1528 15.0691 1027 95.0477 1344.44 499.95
622 0 72.2591 15.4998 1120 94.0125 1345.08 499.322
623 0 76.1914 15.8548 1208 92.7608 1346.44 500.348
624 0 79.0679 15.961 1262 93.1204 1348.2 495.31
625 0 82.1033 16.1139 1323 92.7876 1348.55 495.797
626 1 42.1081 11.233 473 94.8055 1349.1 517.85
627 0 43.0905 12.3229 531 95.0904 1348.92 515.791
628 0 43.0905 12.3925 534 148.139 1347.93 515.695
629 0 50.0776 13.6788 685 92.7971 1347.06 518.415
630 0 52.0986 15.3363 799 90.8611 1347 518.247
631 0 54.2059 15.3489 832 91.3654 1346.33 517.722
632 0 54.0594 13.5037 730 95.574 1345.51 518.137
633 0 58.137 14.5174 844 93.7737 1344.42 517.217
634 0 61.1105 15.4147 942 92.7452 1344.71 517.546
635 0 62.0406 13.8619 860 95.9151 1343.24 516.826
636 0 64.0612 15.6413 1002 94.0908 1341.12 512.343
637 0 68.052 15.1649 1032 93.8517 1340.36 511.261
638 0 70.1222 16.7992 1178 92.3828 1338.82 507.781
639 0 73.1525 15.0507 1101 95.6866 1337.86 505.07
640 1 36.0737 11.0607 399 98.4536 1337.28 522.263
641 0 39.0335 14.0136 547 92.5009 1336.31 520.969
642 0 41.0704 12.4907 513 95.5205 1335.7 517.764
643 0 40.0458 12.0112 481 97.7796 1336.71 517.337
644 0 44.0435 12.3287 543 96.1252 1337.09 516.238
645 0 44.0649 13.0716 576 95.0955 1337.69 515.613
646 0 47.1041 14.4786 682 91.6334 1339.33 514.801
647 0 47.0426 13.8598 652 93.135 1340.54 514.04
648 0 48.1162 12.74 613 94.9755 1341.76 512.582
649 0 50.1396 15.7759 791 90.7674 1342.87 512.09
650 0 54.1436 14.9602 810 90.7333 1344.67 511.93
651 0 56.0853 15.3694 862 91.036 1346.05 509.478
652 0 56.1666 14.368 807 93.8761 1347.26 509.672
653 0 60.0944 15.4923 931 91.884 1348.67 509.691
654 0 62.0993 13.9132 864 95.5093 1348.81 509.992
655 0 65.1257 15.4471 1006 93.4503 1348.84 510.561
656 0 67.2611 15.1648 1020 95.4706 1348.94 508.303
657 0 71.1817 14.9898 1067 96.6879 1348.6 507.775
658 0 72.29 14.9398 1080 98.875 1348.89 506.767
659 0 76.1121 14.8859 1133 99.3239 1348.67 507.634
660 0 78.1772 15.1579 1185 101.03 1346.81 504.495
661 0 80.162 14.1464 1134 103.789 1346.29 504.571
662 0 82.1051 14.1891 1165 105.67 1344.96 501.352
663 0 87.1721 15.0163 1309 103.27 1343.19 500.235
664 0 91.1844 15.4632 1410 101.901 1341.56 496.721
665 0 93.3209 16.3843 1529 101.511 1340.57 492.25
666 0 96.1767 15.5339 1494 101.315 1339.95 492.737
667 0 99.0964 14.5414 1441 104.083 1339.47 489.051
668 0 104.133 15.4321 1607 102.754 1339.03 483.441
669 0 108.232 15.7717 1707 100.112 1338.85 481.484
670 0 112.393 15.9174 1789 99.7552 1338.1 478.651
671 0 114.134 14.4217 1646 104.375 1338.45 474.685
672 0 120.228 15.795 1899 101.95 1338.89 471.425
673 0 126.215 16.1154 2034 101.74 1340.44 468.14
674 0 129.268 16.2298 2098 102.367 1341.2 462.497
675 1 69.044 9.55912 660 104.92 1342.27 499.241
676 0 71.2208 13.5213 963 100.591 1343.6 494.921
677 0 76.1281 12.4396 947 101.839 1344.79 494.335
678 0 78.1563 13.2299 1034 102.174 1345.66 489.367
679 0 83.175 14.0788 1171 99.4996 1348.1 492.711
680 0 85.151 15.6076 1329 98.4868 1349.51 489.096
681 0 87.1799 13.6155 1187 103.457 1351.11 488.356
682 1 48.0155 10.33 496 104.169 1352.96 507.413
683 0 51.2854 10.4513 536 102.746 1353.99 509.646
684 0 53.0699 11.7204 622 103.519 1354.32 508.119
685 0 57.0932 12.646 722 102.618 1354.78 508.562
686 0 58.1666 13.6848 796 102.711 1354.79 506.557
687 0 60.1365 12.5049 752 103.713 1353.79 507.888
688 0 62.3136 13.416 836 103.262 1352.72 503.038
689 0 65.2813 14.292 933 100.318 1351.87 504.02
690 0 71.326 13.5715 968 98.3316 1351.01 502.415
691 0 74.2849 13.5559 1007 97.1549 1349.93 500.642
692 0 77.1591 14.6062 1127 94.9672 1348.61 496.31
693 0 79.4114 14.1919 1127 95.0994 1347.87 493.45
694 1 43.2413 10.268 444 95.1329 1345.75 512.065
695 0 43.3689 10.353 449 96.1581 1344.85 508.272
696 0 43.2452 12.3482 534 92.3596 1343.57 506.099
697 0 44.0499 11.714 516 95.9612 1343.64 500.682
698 0 48.0493 13.174 633 91.3823 1344.62 501.706
699 0 51.1574 13.0773 669 90.9342 1344.31 500.411
700 0 53.1994 15.3197 815 87.4663 1345.12 498.15
701 0 53.2044 12.4614 663 92.0754 1346.12 496.582
702 0 57.1538 14.1198 807 88.2354 1346.94 495.372
703 0 59.0709 14.7958 874 87.9302 1347.64 492.723
704 0 58.0976 13.288 772 91.4935 1348.42 493.99
705 0 59.1113 13.2124 781 92.6748 1350.59 491.065
706 0 63.1038 13.6917 864 89.9942 1350.01 492.999
707 0 65.0372 13.3154 866 91.5635 1351.8 493.517
708 0 66.116 14.8829 984 89.815 1353.42 493.311
709 0 68.0786 15.9668 1087 88.8896 1355.4 490.599
710 0 71.2856 15.7255 1121 88.7734 1356.48 493.286
711 0 72.0436 14.3385 1033 92.6089 1358.27 490.432
712 1 41.1225 9.89726 407 89.2654 1359 510.759
713 0 41.1323 10.2839 423 90.9716 1359.82 509.144
714 0 41.1184 9.19297 378 91.6984 1359.8 512.291
715 0 44.1132 12.7399 562 88.9359 1358.53 508.71
716 0 45.1074 11.1068 501 91.6208 1357.76 509.725
717 0 45.0306 11.792 531 91.0885 1356.48 510.009
718 0 49.076 13.9376 684 87.7325 1355.62 509.654
719 0 49.098 12.6278 620 90.3758 1354.73 508.785
720 0 50.0491 12.4677 624 91.5096 1353.38 506.564
721 0 51.0726 12.4529 636 92.934 1351.45 504.912
722 0 55.0375 14.0086 771 89.0778 1349.26 503.123
723 0 56.2141 12.1856 685 91.4248 1348.24 502.895
724 0 58.1272 13.6941 796 90.2827 1347.41 498.842
725 0 60.0399 13.8408 831 90.1612 1346.68 498.928
726 0 62.0929 14.0596 873 90.1936 1347.07 496.212
727 0 64.0255 13.5102 865 90.4486 1346.6 493.474
728 0 67.0813 14.8924 999 88.7948 1345.96 492.172
729 0 70.1367 13.1885 925 90.2703 1345.41 491.931
730 0 72.0831 13.6093 981 91.5219 1345 488.544
731 0 73.0679 12.9469 946 92.4757 1344.8 488.27
732 0 77.0826 14.5169 1119 90.4522 1345.72 486.668
733 0 80.1913 15.276 1225 88.5322 1348.12 488.93
734 0 81.0656 14.4821 1174 91.2215 1348.47 488.73
735 0 85.0825 15.1853 1292 90.442 1349.96 488.027
736 0 88.1008 14.9942 1321 92.2854 1352.7 485.874
737 1 44.2566 11.6593 516 93.843 1353.61 506.61
738 0 47.0346 13.3731 629 91.4452 1355.49 507.849
739 0 48.1012 11.5174 554 93.657 1356.35 509.922
740 0 52.1547 13.0381 680 91.3191 1356.78 510.949
741 0 50.0945 11.5981 581 96.4785 1357.1 509.651
742 0 51.2318 13.0388 668 96.4476 1356.32 509.922
743 0 55.0565 14.2944 787 93.2427 1354.67 512.781
744 0 57.0623 14.4404 824 93.4332 1353.76 512.041
745 0 59.2639 14.0389 832 94.2163 1352.4 513.603
746 0 65.2865 12.9123 843 96.9371 1351.13 511.198
747 0 65.2389 13.213 862 97.8179 1349.07 508.935
748 0 65.268 12.9466 845 97.6083 1347.9 509.83
749 0 68.1774 12.2181 833 100.927 1346.04 507.407
750 0 70.1512 13.1573 923 98.3933 1344.68 507.3
751 0 69.2622 13.9181 964 100.197 1343.9 503.09
752 0 74.3903 12.8108 953 101.844 1341.51 502.17
753 0 73.0675 12.4953 913 101.604 1340.17 502.89
754 0 78.2383 13.5356 1059 103.053 1340.68 498.476
755 0 81.3044 14.1813 1153 100.282 1341.63 497.56
756 0 81.2293 13.702 1113 104.374 1340.46 494.082
757 0 85.3394 14.3544 1225 102.583 1341.13 493.311
758 0 85.4603 14.2288 1216 105.046 1341.2 489.771
759 0 88.4126 13.6519 1207 104.808 1342.27 491.593
760 1 48.0918 13.9109 669 100.954 1343.55 506.607
761 0 49.1725 13.3611 657 103.143 1344.45 506.018
762 0 51.2196 13.4714 690 103.146 1346.23 505.968
763 0 51.0697 15.1558 774 102.226 1348.14 504.645
764 0 54.2637 13.6371 740 103.968 1349.75 505.189
765 0 58.1249 14.1075 820 103.86 1351.36 504.095
766 0 65.3917 14.8643 972 99.4033 1353.06 499.755
767 0 67.2245 14.5185 976 99.4887 1354.82 502.447
768 1 38.0548 11.7462 447 99.0626 1354.66 517.235
769 0 42.1032 12.8969 543 99.9171 1354.66 514.79
770 0 43.1065 13.9654 602 100.975 1353.46 514.546
771 0 45.2563 13.4346 608 102.479 1352.79 515.27
772 0 46.1606 14.6662 677 100.846 1352.64 516.564
773 0 49.0735 13.9383 684 101.662 1350.85 513.871
774 0 51.0808 14.9371 763 100.347 1349.91 513.248
775 0 54.0348 12.9176 698 94.7034 1348.53 514.234
776 0 54.1472 15.0331 814 92.4189 1346.45 512.05
777 0 55.1892 14.1876 783 93.6705 1345.97 511.4
778 0 59.0971 15.9737 944 91.16 1344.87 508.02
779 0 61.1437 15.0465 920 93.4456 1343.74 505.707
780 0 60.0924 13.9951 841 97.201 1342.92 504.322
781 0 64.0772 14.6542 939 95.442 1342.09 501.404
782 0 66.1855 14.6709 971 96.0041 1341.46 499.231
783 0 70.1531 15.7655 1106 93.3192 1342.2 498.164
784 0 71.1183 14.0892 1002 98.0439 1342.04 495.864
785 0 73.0854 14.5857 1066 96.7458 1342.16 494.928
786 1 43.0755 13.1862 568 95.6426 1343.31 508.958
787 0 43.0205 11.4364 492 97.8557 1344.77 509.317
788 0 45.2417 12.82 580 95.9966 1345.04 509.06
789 0 44.0664 12.3223 543 99.2818 1345.97 507.28
790 0 47.1228 13.2208 623 96.0594 1347.6 508.457
791 0 48.278 12.9251 624 98.1843 1348.86 507.68
792 0 49.1259 13.9845 687 96.5342 1350.92 509.121
793 0 53.0335 15.1414 803 93.3587 1352.64 510.813
794 0 55.0946 14.2482 785 95.8879 1353.64 511.703
795 0 56.1319 14.0384 788 97.7145 1354.49 510.958
796 0 60.0956 14.8097 890 97.927 1354.83 510.778
797 0 61.1519 14.1451 865 99.2705 1353.09 510.334
798 0 67.1495 17.1409 1151 93.662 1352.54 512.228
799 0 71.1546 15.4733 1101 98.5404 1351.07 509.589
800 0 72.1612 15.0774 1088 100.925 1349.03 507.018
801 1 42.18 12.2333 516 97.3101 1347.4 524.138
802 0 42.0518 10.4633 440 101.384 1345.35 523.707
803 0 44.1417 12.3466 545 100.639 1343.68 520.461
804 0 48.0777 13.1038 630 100.632 1341.92 518.227
805 0 49.1121 12.8482 631 102.775 1340.92 515.784
806 0 51.1178 13.5961 695 101.711 1339.88 514.427
807 0 53.089 14.4474 767 100.425 1339.35 512.654
808 0 52.1382 13.5985 709 107.674 1338.68 509.319
809 0 56.0434 14.239 798 105.766 1338.32 506.451
810 0 57.239 13.5222 774 107.391 1338.96 503.867
811 0 60.125 15.8004 950 102.143 1339.37 501.786
812 0 62.0429 14.7801 917 105.661 1339.33 500.181
813 0 63.0652 13.6842 863 106.214 1340.88 498.085
814 0 66.2009 14.8336 982 102.445 1342.53 496.897
815 0 68.0816 15.0114 1022 102.12 1342.74 494.998
816 0 71.1166 14.2864 1016 102.841 1343.93 493.495
817 0 73.1548 12.9998 951 105.626 1346.34 491.991
818 0 79.088 17.7524 1404 95.2721 1348.73 491.818
819 0 83.1879 15.2546 1269 99.3381 1350.47 491.876
820 1 41.2515 11.7087 483 102.712 1351.34 509.973
821 0 45.1949 14.36 649 97.8444 1351.8 510.398
822 0 47.385 13.0843 620 99.3968 1353.17 511.09
823 0 50.3932 14.5456 733 96.663 1353.84 510.13
824 0 50.1026 13.8316 693 98.3911 1353.06 508.825
825 0 55.172 13.5939 750 98.256 1352.97 508.936
826 0 56.1214 14.5755 818 97.3081 1353.11 507.262
827 0 59.2249 13.0351 772 98.6554 1350.95 508.1
828 0 63.1765 13.8501 875 97.4046 1349.13 505.272
829 0 66.2945 14.5563 965 95.657 1348.14 505.234
830 0 65.22 14.2748 931 97.9463 1346.45 502.219
831 0 70.0768 14.4984 1016 96.5 1345.32 499.446
832 0 73.1954 15.9026 1164 93.0026 1344.74 496.957
833 0 76.2009 14.488 1104 95.4375 1343.78 497.208
834 0 79.2976 14.3132 1135 95.0423 1343.34 494.674
835 1 39.0428 9.06696 354 95.791 1344.01 514.22
836 0 44.1276 11.92 526 91.924 1343.21 510.546
837 0 46.0639 12.4827 575 89.4087 1342.83 508.878
838 0 48.1108 12.4296 598 86.5201 1343.81 509.736
839 0 49.0461 13.1509 645 87.8698 1344.18 506.521
840 0 50.0874 13.177 660 88.3227 1344.49 505.891
841 0 54.1103 15.1357 819 85.5849 1344.84 503.995
842 0 54.1042 14.1209 764 89.0838 1345.8 503.19
843 0 57.0599 13.9327 795 88.5736 1347.86 502.803
844 0 61.0555 14.4295 881 86.7957 1348.5 502.619
845 0 62.1386 14.9183 927 86.3937 1350.11 501.586
846 0 64.0728 14.7645 946 87.2886 1352.01 500.927
847 0 66.2717 15.3308 1016 86.375 1353.2 500.92
848 0 70.1686 14.6789 1030 88.1582 1353.4 498.863
849 0 74.1706 14.7093 1091 86.9743 1354.21 500.808
850 0 76.2617 13.7684 1050 89.7829 1353.88 500.262
851 1 43.1604 12.1639 525 88.5638 1355.14 517.122
852 0 44.1395 12.7097 561 86.3137 1354.55 518.756
853 0 47.2484 12.8258 606 86.7756 1352.51 518.436
854 0 50.093 10.74 538 86.3067 1350.35 519.454
855 0 51.1364 13.9235 712 87.0801 1349.08 512.6
856 0 55.2451 14.8973 823 83.1908 1347.57 511.712
857 0 57.2334 15.3582 879 83.7941 1344.56 507.543
858 0 58.3059 13.6864 798 84.4975 1343.57 508.466
859 0 60.2326 14.278 860 84.0698 1341.79 504.452
860 0 63.1452 14.2845 902 84.1807 1340.39 500.038
861 0 64.1245 14.4251 925 83.6259 1340.14 500.075
862 0 67.3547 13.273 894 84.9732 1339.64 498.172
863 0 72.1944 15.5275 1121 81.0161 1339.12 495.3
864 0 72.2863 16.2963 1178 81.2122 1339.16 491.009
865 0 75.3612 16.1489 1217 82.7954 1339.43 489.514
866 0 80.5745 17.6234 1420 79.8852 1340.24 488.429
867 0 83.2592 15.0134 1250 81.7816 1340.17 486.111
868 1 42.2921 9.17428 388 86.2784 1341.1 505.448
869 0 46.1293 12.1398 560 81.7411 1342.78 505.264
870 0 46.1653 11.9354 551 83.0835 1343.4 504.521
871 0 47.3737 11.7365 556 85.8921 1344.85 503.07
872 0 51.3331 13.0325 669 84.6099 1347.21 502.444
873 0 51.2555 14.574 747 84.7711 1348.44 501.928
874 0 56.4051 14.9809 845 82.4533 1348.95 501.664
875 0 57.1729 14.3075 818 83.912 1349.68 501.351
876 0 60.5363 14.289 865 83.7618 1350.59 502.245
877 0 60.35 14.797 893 84.3001 1350.84 503.113
878 0 63.2966 13.65 864 87.7905 1350.09 501.441
879 0 67.3855 14.9587 1008 85.0288 1350.64 500.821
880 0 68.2502 13.348 911 88.8474 1350.33 499.625
881 0 72.5899 15.3327 1113 84.7556 1348.94 500.196
882 0 76.19 14.7132 1121 86.0758 1347.1 495.955
883 0 79.1628 15.7144 1244 84.3272 1345.46 495.416
884 0 83.2552 17.3082 1441 80.5434 1343.49 493.384
885 0 87.2368 15.2688 1332 81.461 1341.66 489.011
886 0 89.2232 15.6574 1397 81.4596 1340.53 486.684
887 0 91.1488 15.0962 1376 83.2892 1340.16 482.7
888 1 49.2469 11.9601 589 85.2649 1339.54 500.38
889 0 55.125 13.5147 745 81.6054 1338.97 500.885
890 0 55.0288 13.6837 753 83.2138 1339.35 498.764
891 0 59.2706 15.2183 902 79.6652 1340.05 498.59
892 0 59.1638 14.2655 844 83.0367 1340.9 493.196
893 0 62.1079 17.0349 1058 78.7042 1341.6 492.168
894 0 63.1086 13.6273 860 83.3872 1342.09 492.504
895 0 66.1015 13.5247 894 83.6868 1343.32 489.309
896 0 66.1511 13.2273 875 85.648 1344.08 487.933
897 0 69.0548 14.4378 997 84.683 1346.4 487.637
898 0 73.089 13.7367 1004 85.1494 1347.04 487.774
899 0 75.0762 13.9192 1045 86.4029 1348.55 487.15
900 0 80.1468 18.0793 1449 80.5307 1351.06 487.223
901 0 83.1251 14.809 1231 86.6694 1352.93 486.493
902 0 86.3678 14.4961 1252 87.4545 1354.92 488.851
903 0 90.1184 16.1454 1455 86.1512 1355.59 490.336
904 1 52.0273 10.5906 551 89.9692 1355.99 509.368
905 0 55.0636 11.7682 648 89.7268 1355.53 508.605
906 0 56.066 12.6637 710 88.3535 1355.33 511.087
907 0 62.2357 12.8383 799 89.234 1353.35 507.083
908 0 64.1652 14.2289 913 87.6911 1351.13 510.092
909 0 66.0857 14.5871 964 87.9969 1349.25 506.623
910 0 70.2019 14.2161 998 86.9158 1347.62 506.392
911 0 72.1186 15.0031 1082 86.8207 1345.58 501.512
912 0 75.2728 12.6208 950 91.4484 1344.16 499.066
913 0 78.1989 13.325 1042 91.3618 1342.85 498.795
914 0 84.2413 14.8621 1252 89.1877 1341.89 496.506
915 1 46.2777 8.79473 407 86.8206 1341.04 514.961
916 0 44.0981 9.18408 405 87.8988 1341.2 512.057
917 0 49.4236 10.1369 501 85.8822 1341.05 511.174
918 0 50.2946 11.5917 583 85.2264 1342.08 509.184
919 0 50.1647 11.8011 592 85.6436 1342.11 507.485
920 0 53.0929 11.6211 617 86.5154 1342.07 506.277
921 0 54.1916 14.1904 769 85.8986 1342.07 503.061
922 0 55.1866 11.9775 661 88.4644 1342.95 504.389
923 0 57.162 12.5083 715 88.5385 1342.49 503.787
924 0 60.3022 12.6198 761 87.4744 1343.71 502.986
925 0 62.1645 14.7994 920 85.3989 1345.43 501.208
926 0 65.1146 12.8389 836 88.2512 1347.51 500.769
927 0 69.2757 12.6163 874 88.4565 1349.37 502.662
928 0 69.2312 12.061 835 91.5269 1350.79 501.139
929 0 73.3645 12.0358 883 92.0714 1352.62 501.531
930 1 40.2189 10.1694 409 88.5281 1353.53 520.017
931 0 43.2196 10.2731 444 90.4414 1353.54 517.486
932 0 45.1909 10.2233 462 89.881 1352.58 519.002
933 0 47.2063 12.5831 594 86.6111 1350.78 516.771
934 0 52.1084 12.2821 640 86.3203 1349.44 517.081
935 0 52.0853 12.1531 633 89.7599 1347.84 515.9
936 0 55.1585 12.5457 692 87.6445 1345.77 512.257
937 0 58.0643 12.4689 724 88.163 1344.31 511.564
938 0 59.0776 13.1522 777 88.8353 1342.29 508.604
939 0 61.1641 12.5891 770 89.2 1341.2 507.125
940 0 62.0885 14.0606 873 89.1833 1339.85 504.565
941 0 66.2025 12.93 856 89.8937 1339.49 502.125
942 0 67.191 14.3323 963 89.2596 1338.38 500.485
943 0 70.2554 12.0845 849 93.2462 1337.88 495.85
944 0 73.083 13.5189 988 90.6538 1338.25 494.839
945 0 73.2382 14.5553 1066 90.5863 1338.43 490.057
946 0 78.1715 13.5855 1062 92.032 1338.15 489.764
947 1 44.099 8.5036 375 92.776 1339.15 505.627
948 0 46.0778 11.3721 524 89.4752 1340.48 502.882
949 0 49.187 11.9137 586 90.3515 1340.66 501.251
950 0 50.1432 11.3674 570 91.1298 1341.51 501.047
951 0 51.2303 10.8334 555 93.7441 1342.71 501.097
952 0 53.1019 12.5984 669 91.2511 1346.23 501.027
953 0 56.2738 11.4263 643 93.5941 1347.4 501.218
954 0 58.0677 12.2616 712 94.1685 1349.65 499.167
955 0 61.1428 12.0865 739 93.7091 1351.73 500.533
956 0 62.1243 12.3462 767 93.163 1353.4 498.198
957 0 64.093 12.7471 817 93.033 1354.29 498.737
958 0 68.4 12.076 826 93.5666 1354.64 499.203
959 0 71.32 12.6753 904 92.5907 1353.93 498.708
960 0 76.3353 12.4975 954 92.6782 1353.61 497.85
961 1 44.2637 10.3019 456 90.1579 1353.05 513.939
962 0 46.4912 11.357 528 88.0019 1352.16 516.386
963 0 46.5279 9.60714 447 91.3557 1350.28 514.897
964 0 53.2172 12.308 655 86.5435 1348.78 514.289
965 0 53.2001 12.2932 654 87.6132 1346.97 510.916
966 0 56.1974 14.3245 805 83.9441 1345.62 510.683
967 0 55.222 12.9296 714 89.4328 1344.38 507.415
968 0 59.3911 12.5271 744 89.2849 1343.64 504.656
969 0 61.3063 13.5549 831 88.3863 1342.64 502.647
970 0 63.1582 12.6191 797 89.7265 1341.26 500.376
971 0 61.2794 10.3787 636 94.4544 1341.83 497.294
972 0 65.5613 12.8735 844 90.8341 1342.19 493.342
973 0 71.5611 14.7287 1054 85.4241 1341.79 494.103
974 0 73.1583 12.8899 943 89.3934 1342.76 491.212
975 1 38.2114 9.5783 366 87.3415 1343.92 509.363
976 0 38.4065 10.3108 396 87.4015 1344.58 506.747
977 0 39.2035 11.1215 436 85.2936 1345.18 507.654
978 0 41.3168 10.8673 449 85.245 1346.66 507.062
979 0 44.2773 11.97 530 83.4755 1347.57 508.519
980 0 44.0631 11.0296 486 88.0782 1348.68 507.115
981 0 45.0634 13.6918 617 84.4165 1350.73 506.169
982 0 46.0524 13.5715 625 85.3184 1352.25 506.808
983 0 49.1494 14.1202 694 83.7032 1354.02 508.67
984 0 50.1684 13.3351 669 85.5979 1355.47 506.492
985 0 54.0963 12.9029 698 86.0458 1356.37 509.514
986 0 55.0622 14.3474 790 85.0177 1356.35 508.458
987 0 57.2116 13.8084 790 87.9418 1355.66 508.604
988 0 58.123 13.2994 773 88.0414 1354.44 507.514
989 0 62.1001 15.2496 947 84.584 1353.61 509.225
990 0 62.2648 13.9405 868 88.0265 1351.91 507.828
991 0 66.137 14.848 982 85.8187 1350.76 508.559
992 0 69.2238 13.9692 967 87.9586 1349.74 504.243
993 0 70.1278 12.9193 906 89.7583 1346.83 500.639
994 0 74.1792 15.6513 1161 84.9182 1345.92 500.111
995 0 77.2232 14.4128 1113 88.1402 1343.77 494.587
996 0 80.3396 15.6087 1254 86.5359 1343.19 493.146
997 0 84.2166 15.092 1271 88.0692 1343.44 489.869
998 0 87.2673 13.6936 1195 90.4536 1343.38 487.639
999 0 87.3867 13.9037 1215 90.9136 1343.23 486.062
1000 1 49.3133 13.3838 660 87.4712 1343.04 504.288
1001 0 51.3048 11.1685 573 89.5166 1343.06 503.796
1002 0 52.1934 11.4382 597 90.34 1342.54 502.76
1003 0 54.1446 13.704 742 88.8935 1342.63 499.802
1004 0 55.1781 11.9794 661 91.5855 1343.53 499.596
1005 0 58.222 14.3588 836 88.1818 1344.62 498.534
1006 0 59.0868 13.8779 820 90.5439 1346.36 496.344
1007 0 62.1125 13.6848 850 90.2882 1347.83 498.061
1008 0 66.1837 13.5532 897 89.427 1349.82 497.936
1009 0 67.1547 14.6974 987 88.2888 1351.25 497.102
1010 0 70.0858 14.7961 1037 88.0646 1354.59 497.975
1011 0 74.151 14.9425 1108 88.213 1355.28 496.585
1012 0 78.1619 14.905 1165 87.4335 1355.58 498.13
1013 0 79.2426 14.4493 1145 90.0908 1356.3 494.413
1014 0 83.2459 13.7905 1148 91.0758 1355.84 496.595
1015 1 46.2171 9.30391 430 92.3954 1355.44 515.921
1016 0 48.2139 10.7231 517 91.352 1354.2 516.174
1017 0 50.1753 10.543 529 92.7561 1352.67 514.987
1018 0 55.1384 12.8042 706 88.3102 1350.47 514.127
1019 0 57.1266 13.6714 781 88.5877 1349.06 511.653
1020 0 58.0694 14.121 820 89.1646 1346.95 510.006
1021 0 62.0445 15.0859 936 87.0951 1345.8 507.895
1022 0 62.2993 15.0082 935 88.7733 1345.31 503.737
1023 0 65.141 14.1846 924 90.8723 1344.33 502.013
1024 0 68.0478 14.9748 1019 92.7066 1343.09 500.915
1025 0 71.1587 13.5191 962 92.1632 1342.82 497.21
1026 0 74.0815 15.8474 1174 88.0264 1343.48 496.706
1027 0 75.1996 15.1597 1140 90.5825 1343.21 492.666
1028 0 78.1891 14.887 1164 92.3093 1343.19 490.411
1029 0 82.0965 13.545 1112 94.2689 1343.62 489.409
1030 0 86.1781 15.4331 1330 91.7654 1343.78 485.364
1031 0 87.2348 13.1943 1151 96.1911 1344.36 484.198
1032 0 92.1965 14.5884 1345 93.4297 1345.37 482.848
1033 0 93.1338 14.1087 1314 95.2466 1346.66 479.816
1034 1 53.0939 9.79396 520 95.9115 1348.87 502.485
1035 0 54.1382 11.0273 597 95.3434 1350.96 501.008
1036 0 57.0824 13.1564 751 91.1931 1351.18 501.1
1037 0 60.16 12.0512 725 92.6124 1352.69 501.55
1038 0 61.104 12.9779 793 92.3329 1354.56 499.165
1039 0 66.1003 13.5552 896 89.7578 1355.54 501.797
1040 0 69.0601 13.4376 928 90.5582 1355.57 500.866
1041 0 71.083 11.8172 840 94.394 1355.31 499.712
1042 0 72.0388 14.3673 1035 91.2899 1354.41 499.425
1043 0 81.1255 15.2726 1239 88.841 1353.9 500.402
1044 0 82.0574 12.8203 1052 94.9192 1353.74 498.215
1045 0 87.2086 13.2212 1153 93.2845 1351.77 497.791
1046 1 48.1292 10.6173 511 92.4932 1349.49 516.546
1047 0 51.0232 11.6222 593 93.8718 1347.58 513.234
1048 0 52.0803 11.3671 592 94.4358 1347.44 510.931
1049 0 57.073 13.7718 786 90.799 1345.62 508.431
1050 0 56.1056 12.3161 691 96.136 1343.4 502.952
1051 0 58.0355 12.9748 753 95.9296 1342.53 503.517
1052 0 63.1498 13.8559 875 93.8846 1342.16 502.871
1053 0 63.1339 13.0516 824 97.4066 1342.4 497.914
1054 0 66.1983 13.52 895 95.9196 1342.35 498.134
1055 0 68.2016 14.4425 985 95.0792 1342.81 493.955
1056 0 70.2218 13.2295 929 97.592 1343.17 491.975
1057 0 75.1595 13.3183 1001 97.2078 1343.1 491.006
1058 0 76.2506 14.0196 1069 95.6324 1343.96 490.485
1059 0 78.2786 13.9885 1095 97.0237 1345.2 486.465
1060 0 80.2574 14.2791 1146 97.8429 1346.86 486.141
1061 0 82.2199 14.5585 1197 97.9808 1348.82 482.528
1062 1 48.0957 11.7474 565 93.7133 1350.28 506.163
1063 0 48.092 11.2701 542 96.8081 1351.85 504.867
1064 0 51.0381 11.8931 607 94.7694 1353.4 505.074
1065 0 53.1173 11.5217 612 96.4902 1354.67 504.91
1066 0 51.0173 11.2119 572 99.799 1357.38 502.133
1067 0 56.2004 12.0996 680 97.7603 1358.24 504.784
1068 0 60.0728 13.6002 817 93.7944 1357.52 505.062
1069 0 61.1452 12.642 773 97.4683 1356.27 503.208
1070 0 64.142 12.8621 825 97.5406 1354.75 504.676
1071 0 66.1772 13.2221 875 99.5771 1353.1 503.498
1072 0 70.1922 14.1896 996 97.0492 1352.44 501.523
1073 0 72.1719 13.6064 982 99.4094 1351.09 499.205
1074 0 75.2492 15.6547 1178 96.3031 1349.7 496.855
1075 0 77.3074 14.6816 1135 98.8493 1347.75 495.404
1076 0 79.273 13.3715 1060 103.329 1346.75 491.312
1077 0 83.2018 13.8939 1156 103.254 1345.63 490.032
1078 0 85.1951 13.8271 1178 104.231 1344.63 488.325
1079 1 48.1196 11.2844 543 102.877 1344.56 506.066
1080 0 52.1445 12.4462 649 101.698 1345.2 501.963
1081 0 51.1835 12.3868 634 102.942 1344.52 499.886
1082 0 54.0683 13.0021 703 100.475 1345.23 499.63
1083 0 56.0202 13.7986 773 101.118 1346.13 496.862
1084 0 57.1758 13.3448 763 103.177 1345.66 495.581
1085 0 60.1506 14.0813 847 101.651 1346.32 494.092
1086 0 62.1147 14.2156 883 101.718 1347.52 494.085
1087 0 64.1422 13.8754 890 102.552 1348.28 493.937
1088 0 65.1615 13.8886 905 103.6 1350.59 493.369
1089 0 69.2729 15.1141 1047 101.02 1352.68 491.421
1090 0 72.1365 15.3736 1109 99.7106 1354.17 493.456
1091 0 74.1292 15.6214 1158 100.927 1355.24 491.049
1092 0 77.3831 14.9128 1154 101.43 1356.52 493.188
1093 0 82.1441 15.5337 1276 100.306 1357.54 492.087
1094 0 84.0994 14.5542 1224 102.882 1357.33 492.537
1095 0 87.2265 14.1356 1233 103.965 1357.49 490.79
1096 0 92.363 14.1182 1304 104.489 1356.67 491.45
1097 1 51.0855 10.2965 526 107.914 1357.04 512.745
1098 0 54.126 13.1914 714 101.539 1354.97 511.448
1099 0 57.1375 14.0538 803 103.115 1353.24 510.39
1100 0 60.0518 13.9879 840 104.655 1352.07 509.064
1101 0 63.1173 15.4157 973 100.816 1350.92 505.49
1102 0 63.062 13.7959 870 106.675 1348.83 502.814
1103 0 66.1596 14.0569 930 105.243 1347.74 500.64
1104 0 72.0526 15.572 1122 100.447 1346.47 499.762
1105 0 73.2184 15.1738 1111 102.565 1345.52 495.602
1106 0 76.1111 13.9796 1064 104.113 1346.18 493.153
1107 0 77.1332 13.6258 1051 104.581 1345.66 490.048
1108 0 81.0383 14.5117 1176 102.839 1345.18 488.105
1109 0 84.2826 13.9056 1172 103.564 1345.47 483.645
1110 0 86.0771 14.1501 1218 103.956 1345.25 480.904
1111 0 90.0991 13.9291 1255 102.984 1346.13 479.253
1112 1 48.1075 10.6428 512 103.951 1347.26 501
1113 0 49.1213 10.525 517 103.058 1347.74 500.619
1114 0 54.0486 11.5082 622 100.986 1349.78 498.563
1115 0 57.1492 11.3562 649 100.88 1350.47 498.339
1116 0 58.0816 12.7751 742 99.2588 1352.14 497.172
1117 0 59.0971 13.7401 812 99.1687 1352.63 494.773
1118 0 61.0325 14.3039 873 99.4605 1354.54 496.519
1119 0 65.0902 13.7348 894 99.3736 1356.09 498.445
1120 0 69.1304 15.7673 1090 95.0211 1357.87 497.078
1121 0 71.1088 14.2598 1014 98.6884 1358.08 496.34
1122 0 76.0829 14.9574 1138 96.884 1358.78 496.808
1123 0 79.1425 15.0867 1194 97.8828 1358.4 496.408
1124 0 83.1047 17.0388 1416 94.8602 1356.73 497.645
1125 0 84.1595 13.4982 1136 103.739 1354.88 496.518
1126 0 90.1632 15.8823 1432 99.2898 1352.39 494.493
1127 0 94.1111 15.7048 1478 100.239 1350.9 494.756
1128 0 99.0518 15.3556 1521 101.364 1349.69 489.08
1129 1 55.0474 11.7535 647 102.215 1348.13 511.589
1130 0 56.0523 11.8818 666 103.584 1346.83 509.146
1131 0 59.0503 13.1921 779 102.802 1346.24 505.987
1132 0 63.1119 15.1952 959 98.3264 1345.85 504.508
1133 0 64.0174 14.6991 941 100.914 1344.82 501.171
1134 0 67.0895 14.3987 966 101.77 1344.68 498.735
1135 0 71.1019 14.4159 1025 100.536 1345.32 497.563
1136 0 71.1129 12.8528 914 105.784 1346.1 493.872
1137 0 74.1139 14.3158 1061 102.155 1345.65 492.966
1138 0 75.1394 15.1186 1136 101.678 1345.56 492.946
1139 0 79.0678 15.1136 1195 101.017 1346.02 493.192
1140 0 78.1175 14.1198 1103 106.655 1346.56 489.829
1141 0 83.0947 13.6591 1135 108.022 1347 489.027
1142 0 84.1807 14.7659 1243 104.543 1348.35 491.508
1143 0 86.1001 14.4599 1245 106.904 1350.5 488.912
1144 0 90.1516 14.1317 1274 106.651 1351.81 490.403
1145 0 94.1643 14.8464 1398 105.919 1354.07 490.21
1146 1 51.0529 12.7123 649 103.729 1355.75 511.49
1147 0 51.0504 13.3594 682 106.041 1356.21 510.547
1148 0 51.1117 12.4042 634 109.776 1357.31 513.896
1149 0 52.0355 13.3755 696 107.905 1357.9 513.904
1150 0 51.0681 13.9226 711 111.197 1356.7 514.747
1151 0 54.0353 15.1012 816 113.033 1355.57 514.029
1152 1 105.227 15.9275 1676 120.294 1354 492.055
1153 0 106.307 16.396 1743 121.711 1352.82 493.387
1154 0 107.45 16.4262 1765 126.254 1351.98 493.307
1155 0 104.574 15.5584 1627 130.429 1350.33 494.6
1156 0 104.492 16.1448 1687 136.121 1348.57 490.427
1157 0 107.435 15.0975 1622 139.634 1347.25 491.663
1158 0 108.543 17.9468 1948 137.797 1346.31 488.11
1159 0 107.333 17.8975 1921 142.523 1345.29 486.771
1160 0 107.779 17.7029 1908 145.715 1344.61 487.016
1161 0 109.63 18.1247 1987 147.909 1343.89 484.029
1162 0 114.941 16.9652 1950 153.587 1343.58 480.7
1163 0 113.672 17.3218 1969 153.234 1343.97 481.791
1164 0 114.351 18.9592 2168 152.626 1343.73 477.014
1165 0 116.63 17.7656 2072 156.683 1344.17 478.101
1166 0 118.628 19.0342 2258 158.07 1344.56 473.752
1167 0 118.322 18.6188 2203 160.8 1344.86 475.014
1168 0 124.386 18.4667 2297 161.652 1345.78 471.358
1169 0 124.457 18.7695 2336 163.059 1346.69 472.001
1170 0 130.758 20.6718 2703 158.845 1347.39 467.921
1171 0 134.635 20.0023 2693 161.711 1349.98 468.392
1172 0 137.802 20.4496 2818 161.285 1352.63 467.638
1173 0 136.764 17.8044 2435 170.763 1354.06 471.632
1174 0 145.501 20.9896 3054 160.242 1355.87 467.43
1175 0 150.788 20.3066 3062 162.75 1357.61 463.854
1176 0 155.823 20.3564 3172 163.734 1357.67 462.712
1177 0 160.76 20.2787 3260 165.297 1358.27 460.629
1178 0 163.261 19.3188 3154 169.943 1358.33 461.625
1179 1 39.1194 16.1812 633 173.378 1358.32 519.063
1180 0 42.1324 15.3564 647 171.155 1357.11 518.951
1181 0 45.0292 16.8335 758 166.447 1356.2 517.408
1182 0 45.1389 15.3526 693 174.069 1353.91 516.062
1183 0 48.1971 16.6193 801 166.669 1353.29 516.568
1184 0 49.3536 16.169 798 172.716 1351.71 513.147
1185 0 50.1353 15.9369 799 174.727 1350.34 513.105
1186 0 51.3392 15.31 786 179.994 1348.75 511.354
1187 0 53.1921 16.055 854 176.445 1347.68 508.492
1188 0 63.3802 18.7913 1191 152.402 1346.22 500.391
1189 0 58.3962 16.3538 955 165.034 1345.38 497.41
1190 0 57.2512 14.5848 835 171.491 1344.88 498.063
1191 1 71.5105 21.3255 1525 142.099 1344.66 486.756
1192 0 77.1705 20.3446 1570 141.506 1345.12 483.517
1193 0 77.1597 22.0322 1700 140.399 1345.86 482.781
1194 0 81.2739 22.3073 1813 138.78 1346.31 479.286
1195 0 86.8598 21.2872 1849 138.092 1347.09 478.586
1196 0 96.3826 25.3573 2444 119.744 1347.4 469.154
1197 0 95.7342 26.0931 2498 121.016 1349.49 469.042
1198 0 100.681 23.9966 2416 127.19 1350.72 472.654
1199 0 100.031 19.324 1933 145.163 1352.04 473.359
1200 0 94.7326 23.1388 2192 137.448 1354.31 472.526
1201 0 101.683 24.36 2477 131.359 1357.38 469.715
1202 0 103.548 28.4506 2946 122.075 1357.65 467.749
1203 1 216.335 8.14477 1762 177.191 1358.24 463.607
1204 0 217.39 12.7927 2781 146.706 1359.25 430.604
1205 0 221.041 15.7346 3478 129.912 1359.36 415.341
1206 0 233.001 17.8411 4157 120.196 1358.38 408.349
1207 0 226.927 16.5692 3760 129.496 1357.7 412.647
1208 0 229.619 16.3009 3743 134.881 1356.87 424.284
1209 0 232.927 18.3491 4274 127.956 1355.39 426.073
1210 0 233.787 19.1884 4486 123.214 1353.73 411.234
1211 0 234.345 17.7559 4161 128.913 1351.69 405.743
1212 0 228.687 16.7041 3820 141.546 1351.24 425.383
1213 1 268.665 16.7123 4490 129.594 1348.81 413.257
1214 0 256.369 18.4344 4726 126.785 1347.46 407.046
1215 0 258.58 21.444 5545 115.298 1346.34 389.24
1216 0 255.74 18.077 4623 132.148 1346.02 408.982
1217 0 250.428 23.0685 5777 115.99 1344.99 391.09
1218 0 258.435 23.5765 6093 112.9 1345.18 387.449
1219 1 313.421 9.74728 3055 173.802 1346.36 417.652
1220 0 314.561 10.583 3329 166.467 1346.16 418.891
1221 0 313.63 9.83326 3084 174.538 1347.14 406.473
1222 0 315.602 10.2439 3233 171.863 1347.36 406.782
1223 0 317.373 11.57 3672 163.093 1348.53 404.222
1224 1 259.505 19.0517 4944 132.309 1349.53 403.203
1225 1 129.543 25.8601 3350 132.763 1352.28 453.95
1226 0 131.179 32.0631 4206 118.227 1352.85 450.979
1227 0 129.44 24.4282 3162 138.569 1354.86 457.484
1228 0 130.474 29.0863 3795 126.2 1356.47 459.788
