time division length width area intensity CMx CMy
0 0 33.1189 11.7758 390 120.251 1196.15 503.049
1 0 34.0441 14.5106 494 113.263 1197.05 501.907
2 0 34.0294 11.1081 378 124.804 1198.62 500.971
3 0 36.2492 13.1865 478 114.992 1197.33 500.107
4 0 35.1363 12.5796 442 118.278 1197.51 500.124
5 0 35.2593 12.2805 433 119.33 1196.65 500.037
6 0 37.3303 12.3224 460 117.559 1196.5 499.761
7 0 36.1775 11.5818 419 119.153 1196.88 498.594
8 0 39.2817 13.1868 518 112.498 1196.51 498.828
9 0 36.155 13.1655 476 116.032 1196.56 497.79
10 0 38.2122 14.8382 567 111.683 1196.23 496.199
11 0 38.3524 12.8805 494 117.935 1196.21 496.032
12 0 40.3689 13.1289 530 116.151 1196.95 497.023
13 0 42.2223 13.5 570 113.991 1196.69 495.582
14 0 42.2275 12.5747 531 119.563 1196.89 495.066
15 0 43.1841 12.8057 553 118.002 1195.72 495.224
16 0 44.1335 13.2779 586 115.35 1196.29 495.894
17 0 44.2246 12.934 572 119.196 1196 494.147
18 0 47.1942 14.0059 661 116.254 1196.35 493.976
19 0 47.222 13.4471 635 119.132 1196.56 493.753
20 0 49.1881 13.4179 660 118.774 1196.09 493.462
21 0 51.141 13.1988 675 119.526 1196.92 493.034
22 0 52.2696 14.5783 762 118.475 1198.58 491.698
23 0 55.2582 15.7262 869 116.091 1198.42 492.537
24 0 56.1855 16.5167 928 113.372 1198.83 492.903
25 0 56.347 15.1383 853 118.059 1198.89 491.928
26 0 59.3293 15.4224 915 117.424 1199.8 492.084
27 0 60.2861 15.7748 951 117.471 1200.17 490.531
28 0 61.247 14.7273 902 120.145 1200.01 489.141
29 0 66.2941 17.0302 1129 109.74 1199.05 489.531
30 0 67.3509 16.7036 1125 111.081 1198.73 487.504
31 0 68.1655 15.9612 1088 112.26 1198.62 486.791
32 0 68.1458 13.295 906 118.026 1198.44 487.196
33 0 74.1092 15.1263 1121 109.846 1199.04 485.176
34 0 74.2908 15.2374 1132 110.755 1198.81 482.344
35 0 77.1655 14.1384 1091 112.172 1198.9 482.847
36 1 42.0806 10.2422 431 115.613 1199.8 500.086
37 0 43.0242 11.4122 491 112.707 1199.83 498.42
38 0 43.0243 13.2483 570 108.925 1199.93 498.775
39 0 43.0247 13.3179 573 108.525 1200.24 499.672
40 0 47.0291 13.7362 646 105.063 1200.33 497.966
41 0 48.0928 14.2225 684 105.822 1200.19 497.656
42 0 50.0846 14.6552 734 103.357 1200.71 496.997
43 0 51.0638 14.805 756 103.771 1200.53 496.997
44 0 54.0464 14.9686 809 102.282 1200.5 497.178
45 0 53.1376 13.8132 734 105.312 1201.04 496.099
46 0 57.0778 15.1548 865 101.22 1201.43 494.726
47 0 58.0766 15.8756 922 99.5824 1201.71 493.989
48 0 60.0452 15.3551 922 101.529 1201.5 491.015
49 0 62.1443 16.9283 1052 97.7158 1201.28 491.856
50 0 64.022 16.2757 1042 97.3676 1200.38 490.488
51 0 66.1095 14.8995 985 100.045 1201.28 491.146
52 0 68.2585 14.8406 1013 98.923 1201.12 490.908
53 0 70.3404 15.1122 1063 97.9642 1201.4 488.751
54 0 73.2782 15.5435 1139 97.9025 1201.48 484.818
55 0 76.4708 15.0777 1153 97.8708 1201.65 486.5
56 1 43.3204 12.3729 536 97.6343 1202.01 501.494
57 0 40.2675 10.4054 419 101.053 1202.26 502.184
58 0 43.2445 10.6141 459 99.8497 1201.65 501.471
59 0 45.2619 12.1073 548 99.0219 1201.74 499.122
60 0 45.1567 13.6857 618 97.6003 1202.34 497.948
61 0 47.3304 13.5642 642 95.4688 1202.14 498.092
62 0 50.3352 14.4432 727 94.1623 1202.15 495.935
63 0 52.2755 14.3853 752 96.0572 1202.94 494.396
64 0 54.0935 14.7337 797 95.059 1202.26 494.113
65 0 54.2526 14.7827 802 96.1471 1202.51 493.036
66 0 56.1529 14.5852 819 93.2601 1202.8 494.563
67 0 59.2168 16.7351 991 90.4924 1203.06 490.764
68 0 60.2009 14.3686 865 95.1422 1203.02 490.755
69 0 60.234 14.1448 852 96.5892 1202.12 490.601
70 0 64.1736 14.0868 904 96.1969 1202.18 488.718
71 0 67.3084 14.8867 1002 94.8194 1202.88 487.796
72 0 68.1993 14.5603 993 95.3988 1200.59 485.747
73 0 71.1626 14.502 1032 95.4796 1201.66 484.766
74 0 73.1936 13.6761 1001 97.9051 1201.6 482.969
75 0 75.1512 14.3178 1076 96.921 1202.71 482.637
76 0 77.2007 14.3651 1109 97.3886 1203.03 479.747
77 0 82.1514 15.4836 1272 92.8758 1203.54 483.057
78 0 83.3109 15.8082 1317 94.5543 1203.41 478.191
79 0 85.1367 14.5413 1238 97.5355 1204.32 477.76
80 0 90.2335 14.529 1311 96.6636 1204.52 477.583
81 0 94.1551 15.4426 1454 95.1898 1203.32 475.056
82 0 96.1654 13.3624 1285 100.089 1202.74 472.779
83 1 52.1274 11.9898 625 96.4208 1203.89 494.763
84 0 53.2434 12.1517 647 95.5811 1204.24 494.569
85 0 55.1712 12.6153 696 96.0388 1203.5 492.918
86 0 56.16 12.5534 705 96.4582 1202.77 492.994
87 0 59.3777 12.3952 736 94.8859 1202.51 494.496
88 0 60.2471 13.7102 826 95.822 1202.45 488.114
89 0 62.1789 12.3354 767 96.399 1202.36 489.566
90 0 64.3706 14.5253 935 93.3508 1203.2 487.327
91 0 66.3192 12.4097 823 96.1738 1203.17 486.973
92 0 66.3192 12.5152 830 139.246 1204.18 487.041
93 0 71.3012 13.6183 971 94.2884 1203.15 485.133
94 0 74.2584 15.2979 1136 92.3389 1203.96 481.231
95 0 76.4621 12.9345 989 95.8038 1204.05 480.369
96 0 78.3397 12.2799 962 96.368 1204.32 477.667
97 0 80.7209 13.1069 1058 95.4575 1204.64 477.629
98 0 86.424 15.343 1326 89.9238 1205.06 478.168
99 0 87.2961 14.4909 1265 93.4878 1203.84 474.132
100 0 91.3994 14.3436 1311 93.1838 1203.69 471.927
101 1 43.2019 10.6477 460 92.5522 1204.56 494.224
102 0 44.2481 9.98913 442 92.4728 1204.4 494.887
103 0 47.2025 10.5291 497 89.4326 1205.61 496.338
104 0 52.1893 12.1864 636 86.5362 1205.77 495.489
105 0 52.101 11.8616 618 88.6974 1205.32 494.018
106 0 55.2802 13.3864 740 88.6811 1204.93 492.328
107 0 56.3373 12.8512 724 89.0649 1203.62 491.059
108 0 58.2464 11.5372 672 92.4345 1203.53 490.68
109 0 61.1427 13.4276 821 89.8624 1204.33 490.345
110 0 62.3243 13.526 843 90.7248 1203.63 489.504
111 0 65.2328 13.996 913 89.6933 1203.59 488.973
112 0 65.1792 12.8875 840 92.8357 1203.62 487.152
113 0 67.3226 14.1854 955 92.0147 1203.56 485.466
114 0 69.169 12.9249 894 94.3669 1203.81 486.2
115 0 72.1582 13.4011 967 95.0672 1204.76 483.043
116 0 75.193 15.161 1140 92.4658 1203.92 483.035
117 0 83.4755 17.2865 1443 86.3451 1204.64 487.073
118 0 80.2674 14.215 1141 94.2296 1203.23 483.519
119 0 83.3062 15.485 1290 93.0062 1203.31 481.495
120 0 85.2114 15.62 1331 94.3712 1204.41 476.887
121 0 88.2041 13.1513 1160 97.7862 1202.73 478.93
122 0 91.2033 14.7911 1349 95.275 1202.69 475.661
123 0 94.2461 14.112 1330 96.5962 1203.33 476.429
124 0 98.2794 14.2655 1402 97.6719 1202.66 472.812
125 1 50.1388 9.37398 470 96.3745 1203.57 499.289
126 0 52.2363 11.4671 599 95.8314 1203.03 495.114
127 0 53.5109 12.2592 656 95.3369 1203.04 494.48
128 0 56.1675 12.801 719 95.0918 1202.82 493.104
129 0 56.1948 13.3998 753 94.7556 1204.28 493.466
130 0 59.2566 13.0787 775 96.2206 1203.41 491.814
131 0 60.1206 13.8721 834 95.723 1204.34 491.078
132 0 61.1545 13.6703 836 97.3337 1203.56 489.242
133 0 63.1223 13.2283 835 97.2467 1203.83 488.41
134 0 66.1905 13.4158 888 95.2691 1204.17 489.355
135 0 69.2227 15.9052 1101 92.3588 1204.71 487.203
136 0 70.1381 12.7178 892 98.5258 1204 487.706
137 0 71.1076 13.9929 995 97.2261 1204.03 486.464
138 0 75.1666 14.3548 1079 96.9629 1203.7 485.225
139 0 79.2133 15.1111 1197 95.7268 1203.75 483.117
140 0 82.1783 14.1035 1159 97.1346 1203.38 483.97
141 1 45.1059 11.861 535 96.4673 1204.2 502.135
142 0 45.0858 10.5355 475 99.9179 1204.15 500.552
143 0 49.0967 11.8745 583 95.3345 1205.04 500.878
144 0 48.0938 11.4152 549 98.3898 1203.89 498.832
145 0 50.0619 11.8453 593 96.7386 1204.1 499.261
146 0 52.0533 11.834 616 97.2662 1203.48 497.24
147 0 54.0294 13.3076 719 94.7608 1202.59 495.809
148 0 55.0738 11.9476 658 95.6702 1203.03 496.483
149 0 58.0888 13.1178 762 94.3556 1202.71 493.806
150 0 59.0726 12.527 740 95.6689 1202.99 492.796
151 0 60.0241 12.0951 726 96.168 1202.48 492.306
152 0 61.0769 12.9673 792 94.5619 1202.33 492.634
153 0 62.0966 12.4484 773 96.9133 1202.14 488.792
154 0 67.085 15.5773 1045 89.9914 1201.9 490.097
155 0 68.1209 13.4467 916 95.1714 1201.29 487.01
156 0 69.0926 12.3892 856 97.9147 1201.46 485.536
157 0 74.1119 14.2487 1056 93.6932 1201.34 484.813
158 0 75.0899 13.597 1021 96.286 1201.48 483.26
159 0 76.323 13.1022 1000 96.795 1201.85 481.723
160 0 80.2689 14.277 1146 97.3473 1202.55 478.586
161 1 46.2899 11.7088 542 95.0609 1202.81 498.419
162 0 45.352 11.7966 535 97.2822 1203.01 496.744
163 0 45.2492 11.072 501 99.1497 1203.45 496.563
164 0 50.1857 10.5807 531 98.4501 1205.1 496.328
165 0 48.1348 11.2808 543 98.6906 1204.87 495.064
166 0 52.1174 12.6445 659 95.1275 1206.3 496.027
167 0 53.2795 12.5001 666 96.2117 1205.77 495.23
168 0 53.1719 11.98 637 96.0973 1204.44 495.074
169 0 55.1321 12.3159 679 95.6421 1205.14 494.127
170 0 56.085 12.6594 710 95.1451 1204.74 494.027
171 0 57.1718 12.1564 695 97.1597 1205 494.23
172 0 59.2125 12.7845 757 96.3223 1205 493.144
173 0 61.2373 14.2397 872 94.2936 1204.72 492.018
174 0 64.0717 12.5797 806 97.9404 1203.76 492.032
175 0 65.0884 14.1346 920 95.8783 1203.64 492.118
176 0 66.0622 13.8052 912 97.7741 1203.27 489.248
177 0 69.0885 13.5044 933 97.3312 1203.05 490.044
178 0 71.0893 14.2638 1014 95.8077 1203.59 489.404
179 0 73.1633 14.8709 1088 94.9026 1202.68 487.395
180 0 75.1266 14.5754 1095 97.2073 1202.12 484.601
181 0 78.1642 13.9834 1093 96.4831 1201.34 484.917
182 0 79.1352 14.9365 1182 97.2445 1201.44 481.367
183 1 38.0572 8.40841 320 99.1156 1200.48 503.584
184 0 42.2048 9.80931 414 98.0773 1201.56 501.862
185 0 47.0899 11.2551 530 94.7377 1201.91 501.223
186 0 48.371 13.2931 643 91.9751 1201.74 500.009
187 0 46.1595 10.5287 486 97.4239 1201.23 500.778
188 0 48.2098 12.093 583 95.9674 1201.07 498.794
189 0 51.1279 12.5763 643 94.4495 1200.98 497.61
190 0 51.2243 11.8303 606 96.3713 1201.61 496.536
191 0 53.317 12.9415 690 94.0623 1202.14 494.628
192 0 53.3565 12.9881 693 94.57 1202.14 494.306
193 0 56.2819 13.6634 769 93.3589 1202.42 493.282
194 0 56.3738 12.7364 718 96.2772 1202.84 492.563
195 0 60.3694 14.6763 886 92.7054 1204.12 490.576
196 0 60.1945 13.3235 802 95.8604 1203.41 491.045
197 0 62.1952 13.329 829 95.5875 1203.31 489.516
198 0 63.3108 12.3518 782 98.4821 1204.16 488.648
199 0 66.2071 13.9864 926 95.7678 1203.3 485.839
200 0 68.173 15.0793 1028 94.034 1203.56 485.987
201 0 70.2635 13.8194 971 96.1473 1202.77 487.154
202 0 72.2082 14.4859 1046 95.6386 1202.61 484.035
203 0 76.163 15.283 1164 93.2122 1202.46 487.195
204 0 77.1188 16.7145 1289 92.3134 1203.08 484.795
205 0 80.2501 14.8286 1190 95.9496 1203.08 483.069
206 0 81.337 14.1141 1148 97.4625 1203.21 483.246
207 0 83.1986 14.4834 1205 97.1162 1203.3 483.407
208 0 86.2222 13.2564 1143 99.5381 1202.46 481.738
209 1 46.1074 11.6033 535 97.0262 1203.61 502.252
210 0 50.1837 11.2387 564 96.9504 1203.68 499.711
211 0 51.2473 13.5227 693 95.0664 1202.67 499.811
212 0 51.1634 12.0399 616 99.6948 1201.82 497.023
213 0 54.2049 12.8217 695 95.8144 1201.73 497.894
214 0 55.1525 12.2025 673 97.9406 1200.64 496.743
215 0 56.0542 11.3818 638 99.7006 1200.44 494.619
216 0 58.1596 13.7037 797 95.4316 1199.84 493.937
217 0 60.144 13.4677 810 95.6864 1199.9 493.41
218 0 60.103 13.3105 800 96.1388 1199.14 490.436
219 0 62.2165 13.6298 848 95.0413 1199.59 490.873
220 0 64.0938 13.1682 844 96.109 1200.05 488.173
221 0 65.0976 13.3031 866 95.7633 1200.52 488.859
222 0 70.208 13.0612 917 94.8201 1200.12 488.713
223 0 72.1498 12.7928 923 95.2969 1199.76 487.323
224 0 73.2066 12.7721 935 95.3337 1200.18 484.41
225 0 76.1122 13.5458 1031 94.3773 1200.04 483.08
226 0 78.2744 12.2134 956 97.1527 1200.01 481.851
227 0 79.2595 13.8911 1101 95.4787 1200.47 481.012
228 0 80.2024 13.7028 1099 97.0118 1200.62 478.371
229 0 85.42 14.9263 1275 93.7537 1200.73 477.816
230 1 47.0979 12.2511 577 94.1889 1201.64 496.811
231 0 48.4814 10.3132 500 97.782 1202.13 495.154
232 0 50.147 11.9848 601 94.4093 1202.63 493.454
233 0 51.1441 12.6896 649 92.8305 1202.68 495.165
234 0 53.3708 13.5093 721 90.8017 1202.86 495.09
235 0 54.22 12.8366 696 93.3779 1202.1 493.474
236 0 54.1199 12.3245 667 95.5667 1201.95 493.913
237 0 55.0735 12.8919 710 95.8901 1202.24 492.206
238 0 58.0285 14.0793 817 93.6916 1202.41 491.732
239 0 60.2093 13.0711 787 95.5489 1202.58 491.681
240 0 62.1877 13.5236 841 95.6159 1202.44 491.837
241 0 61.0709 11.8714 725 99.6869 1201.38 491.421
242 0 65.1959 12.9763 846 97.5556 1201.22 490.403
243 0 68.1641 14.8172 1010 94.9337 1201.53 488.78
244 0 71.1815 15.0601 1072 92.7603 1201.84 490.507
245 0 71.0823 14.0823 1001 97.3546 1201.68 486.789
246 0 75.1391 16.5826 1246 92.3571 1201.25 485.582
247 0 78.1756 16.5141 1291 92.9791 1201.28 486.248
248 0 80.2984 15.3303 1231 95.2673 1200.06 485.34
249 0 82.1043 14.3841 1181 91.619 1199.43 482.651
250 1 43.105 10.1844 439 96.3531 1200.15 503.672
251 0 46.1363 10.8591 501 95.1158 1200.73 503.25
252 0 46.1363 10.9892 507 141.138 1201.7 503.079
253 0 46.2695 11.9949 555 97.8901 1200.42 498.258
254 0 49.0623 13.7173 673 92.8336 1200.06 498.935
255 0 50.0326 13.4712 674 93.7107 1200.64 498.123
256 0 51.1871 13.6167 697 94.5222 1200.73 496.006
257 0 50.0915 12.3574 619 97.2391 1199.92 495.688
258 0 51.1159 12.3249 630 96.581 1200.88 494.581
259 0 52.0371 12.7986 666 96.2943 1201.03 492.623
260 0 57.1039 14.0971 805 92.9478 1200.76 492.595
261 0 58.2385 12.6892 739 95.9364 1201.16 493.222
262 0 59.1162 14.4292 853 94.286 1201.97 488.848
263 0 61.0831 12.7531 779 97.6983 1201.12 488.558
264 0 65.1484 15.411 1004 92.3765 1202.51 487.786
265 0 64.0687 12.2056 782 99.6854 1201.81 489.336
266 0 69.1689 14.9923 1037 94.1948 1202.64 488.051
267 0 69.1689 15.1079 1045 135.392 1203.64 488.146
268 0 73.1988 14.5221 1063 96.9134 1203.51 486.509
269 0 76.1297 13.4245 1022 98.7583 1203.45 486.537
270 0 77.2236 14.5292 1122 98.5998 1203.45 482.968
271 0 81.1612 17.225 1398 94.4692 1203.3 481.129
272 1 44.0273 12.3333 543 97.4843 1203.58 502.462
273 0 45.1076 10.5969 478 101.713 1204.07 502.642
274 0 48.0957 12.7246 612 97.165 1204.47 502.234
275 0 48.143 12.7329 613 99.4551 1204.3 501.217
276 0 48.0744 11.9398 574 101.087 1203.58 501.652
277 0 51.0499 12.3409 630 101.962 1203.59 498.995
278 0 53.0535 12.6476 671 101.945 1202.27 498.3
279 0 57.1116 14.6555 837 97.6977 1201.64 496.149
280 0 59.0915 14.1137 834 98.506 1201 496.839
281 0 58.0808 13.7223 797 101.176 1200.93 495.542
282 0 60.0533 13.538 813 102.893 1200.57 493.234
283 0 63.0876 14.5195 916 101.701 1199.81 491.277
284 0 65.0493 14.0663 915 103.176 1199.43 490.763
285 0 69.2444 14.225 985 102.255 1200.23 489.883
286 0 71.0512 14.4403 1026 103.238 1200.26 486.905
287 0 72.1445 13.4452 970 105.268 1200.36 487.077
288 0 75.2143 14.5584 1095 103.345 1199.7 482.439
289 0 79.2458 14.3351 1136 103.009 1200.36 481.533
290 1 43.0723 10.1225 436 100.507 1200.97 502.679
291 0 45.0939 11.7089 528 99.9905 1201.49 499.907
292 0 46.0747 11.286 520 100.325 1201.82 498.748
293 0 46.0965 10.196 470 101.051 1202.66 499.57
294 0 50.0678 13.5017 676 94.2559 1203.64 499.151
295 0 48.0864 13.5589 652 96.1472 1203.41 496.946
296 0 50.0791 12.7798 640 97.1703 1204.72 496.639
297 0 52.0917 11.8829 619 98.2714 1205.07 495.973
298 0 55.0531 13.1146 722 94.6344 1204.07 496.188
299 0 55.1025 13.6836 754 94.4642 1204.5 495.955
300 0 58.1173 14.1094 820 93.2098 1204.09 496.772
301 0 59.1109 13.9061 822 132.859 1204.09 496.848
302 0 61.0856 11.885 726 97.1198 1202.83 495.616
303 0 62.0502 12.6349 784 96.6594 1203.88 494.793
304 0 68.08 15.1733 1033 90.1791 1202.06 494.512
305 0 67.0961 13.816 927 94.6645 1202.19 492.955
306 0 69.0895 13.8661 958 96.2881 1202.46 491.709
307 0 72.3176 13.2748 960 97.5365 1202.14 490.343
308 0 75.2324 12.7206 957 98.9498 1201.71 489.235
309 1 41.1169 9.9959 411 98.1946 1201.86 505.781
310 0 41.0945 10.0013 411 98.4866 1201.38 505.47
311 0 43.0474 11.0808 477 99.9224 1200.41 505.094
312 0 43.0474 11.0808 477 151.308 1197.4 505.021
313 0 47.0666 12.3017 579 97.3558 1199.59 502.242
314 0 46.1106 12.6435 583 97.1201 1199.36 501.225
315 0 49.104 12.4226 610 97.1 1198.97 499.174
316 0 49.0976 12.4853 613 141.073 1198.95 499.277
317 0 52.0496 13.7369 715 96.7776 1199.57 496.783
318 0 53.2557 12.9751 691 98.9971 1199.5 495.201
319 0 56.1737 12.942 727 98.5089 1199.4 495.663
320 0 56.0527 12.9343 725 99.7117 1199.99 493.062
321 0 60.1224 13.9549 839 95.944 1200.72 492.763
322 0 60.1777 12.3468 743 87.825 1201.38 492.487
323 0 61.1034 12.7161 777 101.384 1201.21 490.224
324 0 66.0372 14.4161 952 95.2574 1202.08 492.067
325 0 68.0751 13.7348 935 97.8588 1202 489.414
326 0 67.1511 13.0601 877 100.542 1202.76 488.323
327 0 73.1519 14.8868 1089 96.505 1202.89 487.688
328 0 74.29 14.8741 1105 96.924 1203.47 485.909
329 0 75.1517 13.6391 1025 99.6215 1203.14 485.741
330 0 81.0717 14.9004 1208 97.6763 1203.73 484.772
331 0 84.1996 15.0238 1265 99.5668 1203.49 482.758
332 1 46.1025 11.1057 512 98.9688 1203.13 503.848
333 0 48.0178 10.0171 481 100.073 1202.8 503.719
334 0 48.0832 10.981 528 100.354 1203.33 501.458
335 0 50.0467 12.5283 627 100.327 1204.25 501.536
336 0 53.1464 13.3593 710 98.6225 1204.23 500.749
337 0 52.1485 12.8479 670 102.09 1204.51 500.055
338 0 56.0945 12.7642 716 100.367 1204.03 499.951
339 0 59.0582 12.8687 760 100.812 1203.24 498.628
340 0 59.0833 13.6756 808 100.379 1203.21 496.472
341 0 61.1021 13.3547 816 100.779 1201.79 496.319
342 0 64.1904 13.9585 896 96.9855 1200.31 495.103
343 0 66.1889 15.2442 1009 94.8216 1199.95 494.883
344 0 66.1654 14.2522 943 97.9014 1199.77 492.586
345 0 66.199 13.2328 876 99.2774 1199.87 492.49
346 0 71.151 13.9281 991 97.3512 1199.57 489.878
347 0 73.1982 15.055 1102 95.3358 1200.33 487.247
348 0 76.152 12.9872 989 98.9575 1199.18 487.758
349 0 77.1207 13.7966 1064 98.2105 1199.12 485.632
350 0 80.2041 14.9369 1198 96.6945 1199.46 482.492
351 0 82.1901 14.5151 1193 97.4946 1200.31 481.339
352 0 83.2967 14.1902 1182 99.7208 1200.17 479.736
353 0 86.3052 14.0084 1209 100.727 1200.21 476.978
354 0 89.3232 15.3488 1371 98.8315 1201.12 476.346
355 1 47.1932 11.6542 550 98.9545 1202.56 498.431
356 0 49.1879 10.897 536 99.5578 1204.2 497.662
357 0 49.1536 11.2097 551 98.3503 1204.58 498.196
358 0 50.347 10.2091 514 99.7549 1205.1 499.173
359 0 55.065 13.5113 744 93.3266 1205.3 499.259
360 0 54.0797 12.7959 692 97.5506 1205.49 497.582
361 0 56.1453 12.4677 700 98.8257 1204.4 497.217
362 0 59.2229 12.6302 748 98.1003 1205.11 496.699
363 0 59.1196 14.0224 829 97.9505 1205.12 494.359
364 0 63.1547 14.6941 928 95.1358 1205.02 495.518
365 0 65.0965 14.7166 958 94.9896 1205.12 495.432
366 0 66.0662 13.1989 872 99.0482 1204.69 493.622
367 0 70.1318 13.2037 926 99.594 1204.25 493.245
368 0 72.2472 13.7168 991 100.601 1203.59 491.423
369 0 74.3034 14.6023 1085 99.1134 1203.47 490.187
370 0 77.2402 14.1636 1094 99.2386 1202.43 490.25
371 0 80.4335 14.1981 1142 99.6121 1201.81 487.317
372 0 83.2431 14.4877 1206 99.1965 1201.77 484.315
373 0 87.3005 14.5245 1268 97.3935 1201.04 483.871
374 0 89.1875 14.5985 1302 98.0177 1200.96 481.342
375 0 90.3256 13.3849 1209 101.05 1200.72 479.051
376 0 95.3725 14.7946 1411 96.1354 1201.31 477.145
377 0 98.3165 14.016 1378 97.9049 1200.7 474.51
378 1 55.2202 11.1191 614 95.4528 1200.72 495.182
379 0 56.1792 9.27389 521 98.4012 1199.04 495.228
380 0 59.2703 10.6461 631 95.8653 1198.75 494.319
381 0 60.0854 12.2326 735 93.6 1199.62 494.075
382 0 62.1925 12.6543 787 93.8869 1200.84 490.712
383 0 63.2884 11.9137 754 96.256 1200.27 489.662
384 0 66.3544 13.247 879 92.851 1201.27 489.809
385 0 69.2995 12.4676 864 94.4213 1202.24 488.763
386 0 70.1243 13.7328 963 92.9491 1202.4 486.695
387 0 73.2519 14.2249 1042 91.3628 1202.57 485.974
388 0 73.1616 13.6684 1000 92.537 1203.06 487.567
389 0 74.257 12.8742 956 94.8661 1203.64 486.11
390 0 79.5275 13.6934 1089 92.4885 1203.31 485.723
391 0 79.1889 12.6912 1005 94.3542 1204.15 483.724
392 0 83.2585 14.8213 1234 90.8258 1204.09 482.37
393 0 83.2585 14.9054 1241 135.338 1204.09 482.246
394 0 89.2667 13.3308 1190 93.0605 1204.17 481.36
395 0 93.3171 14.6383 1366 91.7592 1204.08 481.321
396 1 45.131 8.26482 373 92.5121 1204.58 504.987
397 0 52.3972 12.0044 629 88.1129 1203.86 503.313
398 0 52.3423 10.3931 544 88.432 1203.99 506.732
399 0 52.224 11.106 580 89.8741 1203.88 501.679
400 0 56.2174 13.6612 768 85.0469 1203.9 500.405
401 0 56.2297 14.3341 806 86.2742 1204.31 499.592
402 0 57.2655 12.9572 742 88.566 1203.46 499.085
403 0 60.16 12.0013 722 89.3019 1202.37 497.386
404 0 62.1417 14.483 900 84.3211 1201.88 498.418
405 0 64.3925 13.0139 838 87.2888 1201.08 495.001
406 0 63.5482 12.6046 801 87.6042 1200.79 492.402
407 0 68.3318 14.7662 1009 83.9009 1200.66 491.847
408 0 69.5477 12.0205 836 88.0323 1200.58 490.189
409 0 72.5667 12.3748 898 87.7483 1200.24 487.46
410 0 73.4976 13.6059 1000 86.689 1199.88 486.143
411 0 77.425 14.0394 1087 85.1987 1199.47 485.351
412 0 79.7144 14.0752 1122 87.2326 1199.66 480.513
413 0 81.6246 13.1946 1077 88.0882 1199.96 480.895
414 0 84.3951 12.4059 1047 90.5817 1200.66 477.746
415 0 86.5963 14.123 1223 89.8128 1201.91 477.086
416 0 90.8878 12.5539 1141 91.2244 1201.59 479.017
417 0 93.9396 12.9019 1212 92.4348 1202.73 475.045
418 0 97.5739 13.4462 1312 92.5152 1203.46 471.558
419 0 100.516 13.2914 1336 92.7073 1204.72 473.692
420 0 104.549 15.1508 1584 90.4318 1205.38 472.494
421 0 108.436 14.6999 1594 92.0207 1205.59 468.863
422 0 112.609 13.4981 1520 93.4967 1206.11 471.244
423 0 117.803 14.2441 1678 93.7056 1206 467.411
424 1 67.5589 9.44361 638 96.5721 1205.44 490.082
425 0 71.3335 11.6775 833 92.8271 1206.04 491.471
426 0 75.4671 13.6218 1028 90.9582 1205.24 489.666
427 0 77.6008 13.7627 1068 92.5927 1204.61 490.06
428 0 81.618 15.254 1245 89.9968 1204.41 489.544
429 0 82.5282 13.7771 1137 94.2331 1204.21 484.412
430 0 87.5176 13.1974 1155 94.7238 1203.01 486.494
431 0 88.5739 13.0738 1158 96.3903 1202.3 484.392
432 0 92.6783 13.1099 1215 97.028 1202.38 481.97
433 0 96.8612 13.6278 1320 96.8742 1201.01 479.38
434 0 99.5456 14.6365 1457 96.5889 1200.72 476.408
435 0 102.537 13.6342 1398 98.877 1200.85 473.468
436 0 107.575 15.4218 1659 95.2062 1200.84 472.055
437 1 55.2839 11.1244 615 96.4797 1199.6 496.538
438 0 56.3497 10.5058 592 98.5574 1200.01 494.12
439 0 59.4731 11.3329 674 95.5356 1199.86 495.175
440 0 60.2827 12.2091 736 96.3505 1198.93 491.899
441 0 62.4497 12.7943 799 96.6758 1199.16 489.791
442 0 64.2114 12.2564 787 97.4892 1199.26 490.684
443 0 64.3666 13.3299 858 97.8718 1200.31 487.674
444 0 71.488 13.5407 968 97.1477 1200.71 485.774
445 0 71.4312 13.2855 949 99.2002 1201.3 485.407
446 0 73.2593 14.2781 1046 98.5822 1202.8 482.12
447 0 78.6579 14.7983 1164 97.2594 1203.72 482.236
448 0 77.6697 13.8535 1076 99.9916 1204.69 482.67
449 0 81.335 15.2333 1239 97.293 1206.46 483.146
450 0 84.3481 14.1319 1192 99.2685 1206.57 481.083
451 1 39.3655 10.3644 408 98.2279 1207.91 502.993
452 0 43.5215 11.1669 486 96.0021 1208.23 503.333
453 0 43.2455 10.7294 464 97.2565 1206.78 505.489
454 0 46.2047 12.0334 556 96.313 1205.67 504.874
455 0 48.3114 12.0676 583 97.1201 1206.17 504.559
456 0 49.2381 12.1451 598 97.5769 1204.91 504.411
457 0 49.2381 12.1248 597 138.132 1204.91 504.323
458 0 51.0726 14.2542 728 96.0082 1204.03 501.694
459 0 52.1065 13.5492 706 96.7351 1203.64 500.67
460 0 56.0933 13.2458 743 96.86 1202.96 501.494
461 0 58.1099 14.593 848 95.2606 1202.22 499.973
462 0 59.275 14.07 834 97.7314 1201.13 496.826
463 0 59.3885 13.7906 819 99.7204 1200.65 495.144
464 0 61.3072 13.9951 858 99.6504 1200.52 493.041
465 0 64.4395 13.2062 851 101.181 1200.71 491.512
466 0 66.6078 15.4787 1031 98.1086 1199.24 489.998
467 0 68.4283 15.0523 1030 104.419 1199.05 489.541
468 0 69.3303 13.8035 957 102.856 1198.4 487.871
469 0 72.3478 14.3612 1039 102.379 1198.24 485.544
470 0 73.2718 13.4431 985 105.55 1198.97 484.221
471 0 75.5276 14.6834 1109 103.949 1198.9 481.77
472 0 79.4512 15.7707 1253 101.425 1199.37 481.437
473 0 79.4361 15.8492 1259 102.951 1199.94 478.789
474 0 84.2916 14.6278 1233 103.916 1200.44 477.302
475 0 85.2728 14.8113 1263 105.034 1201.17 476.825
476 1 48.3817 11.5333 558 106.247 1202.24 495.487
477 0 51.4392 11.7614 605 102.653 1203.2 496.567
478 0 50.2912 11.6919 588 103.128 1205.74 497.413
479 0 54.1411 13.3171 721 102.379 1207.5 495.999
480 0 54.3046 13.8478 752 103.621 1207.51 496.657
481 0 57.2073 14.1416 809 102.79 1207.99 497.622
482 0 60.1324 14.7508 887 100.354 1208.23 498.248
483 0 63.2608 14.9698 947 100.677 1207.54 495.972
484 0 62.1087 13.6052 845 104.646 1207.02 495.928
485 0 66.278 14.3185 949 103.727 1206.04 494.302
486 0 70.5653 13.8453 977 104.202 1204.75 494.259
487 0 71.6376 13.4706 965 106.373 1204.04 495.375
488 0 73.4125 15.12 1110 104.432 1203.72 493.089
489 0 77.5228 14.9375 1158 105.166 1203.13 492.42
490 1 38.2141 9.49912 363 108.97 1201.6 511.306
491 0 41.3417 11.4896 475 107.621 1200.62 509.305
492 0 45.2974 13.025 590 105.797 1200.33 505.708
493 0 46.1323 13.9382 643 103.574 1199.8 505.563
494 0 46.0425 13.3138 613 106.387 1199.35 505.09
495 0 47.1921 14.4304 681 103.623 1199 504.446
496 0 49.1784 13.8069 679 106.688 1198.54 499.996
497 0 53.3783 15.5681 831 99.9146 1197.92 500.203
498 0 52.1514 14.8031 772 102.365 1197.17 499.224
499 0 53.1505 14.6377 778 104.774 1197.17 494.591
500 0 56.286 14.071 792 104.428 1197.01 494.641
501 0 56.1359 14.073 790 104.862 1197.86 493.03
502 0 59.2507 14.0251 831 104.029 1199.11 492.532
503 0 62.6428 14.1916 889 103.346 1199.47 489.799
504 0 64.1319 15.4057 988 101.439 1200.79 488.313
505 0 66.6073 14.1426 942 103.845 1202.68 489.231
506 1 34.1633 12.9964 444 101.227 1204.74 504.056
507 0 33.0843 9.64204 319 106.047 1206.46 506.342
508 0 37.1213 12.4726 463 102.503 1208.44 504.004
509 0 38.0191 11.5205 438 102.779 1208.57 507.185
510 0 39.0447 12.5497 490 102.306 1209.13 506.188
511 0 39.1863 12.6575 496 103.933 1209.03 506.998
512 0 44.1142 13.1477 580 102.836 1208.83 508.547
513 0 43.2011 13.2867 574 105.451 1207.74 508.141
514 0 46.1549 13.043 602 105.249 1207.01 507.658
515 0 47.1137 13.8813 654 104.11 1206.87 507.368
516 0 48.1806 13.7192 661 107.398 1205.86 507.064
517 0 50.0908 13.9147 697 104.838 1203.77 507.357
518 0 53.4113 13.6488 729 104.912 1202.02 504.524
519 0 56.3706 14.2628 804 103.148 1200.96 504.376
520 0 57.2102 14.5778 834 104.761 1199.68 502.242
521 0 58.3074 13.2916 775 107.097 1198.52 501.69
522 0 63.188 14.5281 918 103.996 1197.77 500.874
523 0 64.6022 15.8199 1022 102.654 1196.89 496.482
524 0 65.473 15.4873 1014 105.174 1195.98 496.47
525 1 36.359 9.81874 357 112.067 1194.43 509.507
526 0 39.328 11.6202 457 107.516 1193.54 509.444
527 0 39.253 11.3367 445 109.479 1193.65 507.809
528 0 41.2258 10.5031 433 111.718 1193.29 506.824
529 0 42.2834 13.3622 565 107.704 1193.31 505.159
530 0 42.2401 13.3286 563 108.583 1193.83 504.087
531 0 46.0916 12.8006 590 108.139 1194.51 504.822
532 0 47.1 14.1826 668 106.942 1195.9 503.957
533 0 47.2678 12.3128 582 111.928 1198.36 502.847
534 0 49.1764 14.6208 719 107.508 1199.73 503.074
535 0 51.3089 14.325 735 107.774 1201.14 503.317
536 0 51.0898 14.5626 744 109.121 1203.15 502.637
537 0 54.0998 13.4381 727 110.909 1204.02 503.45
538 0 56.182 14.4886 814 109.66 1205.81 502.565
539 0 58.1652 13.1694 766 114.726 1206.13 504.162
540 0 60.1542 13.7813 829 114.191 1206.4 504.45
541 0 64.1138 14.6146 937 113.104 1205.62 503.647
542 0 66.24 14.5833 966 114.554 1202.54 504.114
543 1 34.035 10.5186 358 114.156 1201.78 519.866
544 0 37.0522 12.091 448 111.804 1199.86 518.944
545 0 40.0498 11.3858 456 112.072 1198.29 519.735
546 0 42.2387 12.453 526 111.61 1198.18 517.285
547 0 44.2627 13.0132 576 110.422 1197.39 516.297
548 0 44.2085 12.8708 569 114.564 1196.16 513.297
549 0 46.2828 12.3372 571 115.096 1194.6 511.305
550 0 48.1513 14.1014 679 110.867 1194.27 509.645
551 0 49.1695 12.7925 629 113.482 1193.92 509.851
552 0 52.1327 13.7726 718 110.967 1193.47 507.412
553 0 53.2208 14.0171 746 111.453 1193.21 503.997
554 0 54.1101 14.4705 783 111.107 1192.55 501.789
555 0 54.127 13.1727 713 115.241 1192.32 500.041
556 0 57.1383 13.8611 792 114.501 1192.56 496.306
557 0 60.1866 13.4083 807 115.133 1192.55 495.986
558 0 63.3107 15.3687 973 110.515 1192.66 492.863
559 0 63.1392 13.098 827 118.415 1193.07 489.914
560 0 65.1683 14.9766 976 112.82 1194.18 491.227
561 0 67.2585 13.4555 905 117.449 1195.6 489.495
562 1 35.052 9.35751 328 115.674 1197.53 505.881
563 0 39.0465 11.5503 451 111.945 1199.4 504.725
564 0 39.1152 11.0443 432 115.241 1200.82 503.616
565 0 42.0284 10.9688 461 115.503 1203.56 503.421
566 0 43.0542 11.381 490 113.286 1205.19 505.292
567 0 44.044 12.6237 556 110.232 1206.04 506.05
568 0 44.2958 12.0102 532 113.573 1205.87 505.983
569 0 47.2859 12.5196 592 112.735 1205.91 506.728
570 0 50.3384 13.7271 691 110.994 1206.1 505.912
571 0 50.401 12.837 647 114.36 1205.33 506.77
572 0 53.2281 13.5267 720 113.796 1204.46 506.381
573 0 54.2145 12.7457 691 115.397 1204.16 507.366
574 0 59.197 13.2946 787 113.912 1203.37 507.69
575 0 60.2531 13.9246 839 114.282 1201.23 505.503
576 0 61.2716 14.5092 889 114.922 1199.72 503.538
577 0 65.2861 13.9846 913 114.993 1197.58 501.908
578 0 68.3229 14.0363 959 114.481 1196.35 500.513
579 0 67.1637 12.9534 870 118.211 1195.24 499.609
580 1 37.058 10.632 394 112.995 1195.82 515.536
581 0 37.0253 10.7494 398 113.151 1195.02 512.804
582 0 38.1103 10.5746 403 113.804 1193.45 511.623
583 0 40.0835 11.9501 479 108.689 1193.65 509.063
584 0 42.2073 11.6094 490 109.614 1193.56 507.761
585 0 43.0755 12.304 530 108.855 1193.27 506.738
586 0 44.2069 12.2831 543 109.772 1193.6 504.587
587 0 45.1478 12.9574 585 108.446 1194 503.065
588 0 48.2406 14.7179 710 103.293 1194.76 504.448
589 0 47.2139 13.746 649 107.378 1195.76 503.869
590 0 49.2645 12.8896 635 110.392 1197.01 501.096
591 0 50.1024 12.8736 645 110.67 1197.47 500.795
592 0 50.2154 12.8646 646 111.231 1200.29 500.55
593 0 55.3651 13.7271 760 108.817 1202.58 502.211
594 0 56.2486 12.4625 701 113.295 1204.2 501.464
595 0 57.2479 12.9088 739 111.553 1205.59 502.288
596 0 60.4361 14.263 862 110.745 1206.58 499.445
597 0 62.3243 13.3816 834 113.9 1207.2 503.543
598 1 32.0931 9.16086 294 112.721 1207.23 520.031
599 0 34.1255 11.194 382 112.335 1206.88 518.458
600 0 37.0529 10.9573 406 111.833 1204.5 520.84
601 0 38.1111 11.4927 438 113.685 1204.03 521.107
602 0 41.0219 12.6762 520 110.917 1201.96 521.781
603 0 41.1306 12.1564 500 113.896 1200.79 521.988
604 0 43.0679 12.608 543 112.529 1198.64 520.041
605 0 44.1464 11.8016 521 112.967 1197.46 522.069
606 0 46.1754 13.4704 622 110.786 1197.42 521.723
607 0 47.1983 13.1996 623 113.482 1196.27 520.064
608 0 50.1404 13.1431 659 113.096 1194.43 520.085
609 0 51.2188 13.9597 715 112.443 1193.76 519.211
610 0 52.2157 13.042 681 116.157 1192.4 516.47
611 0 55.2341 12.782 706 115.771 1191.66 516.783
612 0 55.2842 12.6619 700 116.923 1190.03 515.783
613 0 59.4166 14.1206 839 112.361 1189.41 513.683
614 0 60.2884 13.6676 824 114.184 1189.72 511.393
615 0 60.2808 13.0556 787 115.642 1189.73 507.652
616 0 65.5571 13.8963 911 111.841 1189.29 506.627
617 0 68.3673 14.349 981 112.876 1190.33 503.31
618 0 72.3219 14.3802 1040 112.06 1190.25 500.538
619 1 38.2071 12.2229 467 112.546 1191.27 515.225
620 0 42.1599 13.5911 573 109.859 1192.47 514.424
621 0 41.1033 12.6997 522 112.745 1193.84 516.153
622 0 42.2146 12.5075 528 115.237 1194.61 514.386
623 0 45.0715 12.9794 585 112.465 1195.81 515.304
624 0 48.0196 13.2654 637 112.294 1197.69 513.662
625 0 48.3047 14.0773 680 112.385 1197.78 513.379
626 0 51.089 13.9365 712 112.618 1198.15 514.097
627 0 54.1612 14.5307 787 111.454 1197.95 514.377
628 0 54.217 14.0546 762 115.762 1197.78 514.094
629 0 56.1621 14.2445 800 117.309 1195.73 516.185
630 0 59.1904 16.354 968 113.324 1195.63 514.408
631 0 61.1694 14.9094 912 117.161 1195.16 516.124
632 0 65.208 14.3541 936 117.762 1194.35 516.223
633 0 67.2338 15.3494 1032 117.851 1193.26 515.228
634 0 69.4505 15.5506 1080 118.857 1193.57 514.154
635 0 71.207 13.8048 983 124.074 1192.09 512.549
636 1 38.183 11.4187 436 122.982 1190.18 526.803
637 0 39.2661 11.1292 437 118.707 1188.98 528.027
638 0 41.3386 12.2404 506 118.593 1187.78 524.33
639 0 43.3623 12.4532 540 116.076 1186.88 524.096
640 0 44.1493 12.2539 541 118.421 1186.24 521.83
641 0 46.2119 13.5463 626 114.558 1185.55 519.24
642 0 47.1402 13.619 642 114.081 1184.96 517.913
643 0 47.1118 13.6909 645 116.074 1185.91 515.972
644 0 49.099 13.7681 676 116.015 1186.19 513.743
645 0 50.0572 13.6644 684 117.547 1186.74 512.439
646 0 55.1148 14.624 806 112.179 1188.32 513.819
647 0 54.1045 14.7677 799 113.451 1189.52 511.998
648 0 56.036 13.4735 755 115.876 1190.58 512.068
649 0 59.0723 14.9816 885 112.554 1191.66 511.415
650 0 61.1558 13.948 853 115.076 1193.47 509.607
651 0 64.087 14.8392 951 112.526 1194.96 509.141
652 0 66.1965 15.0914 999 112.695 1196.18 508.012
653 0 68.1123 14.4614 985 115.016 1197.54 507
654 0 71.0967 14.6561 1042 114.101 1197.53 506.94
655 1 37.1141 11.2087 416 114.579 1198.11 525.077
656 0 38.0978 10.998 419 114.912 1198.64 524.535
657 0 39.0558 11.1123 434 116.035 1198.15 524.099
658 0 40.1114 11.9168 478 116.427 1198.43 523.546
659 0 42.0468 13.2709 558 113.434 1198.24 522.814
660 0 47.1538 14.4209 680 108.812 1196.54 521.831
661 0 47.1337 13.5784 640 111.175 1196.13 520.836
662 0 48.17 13.743 662 111.11 1194.87 520.43
663 0 50.1485 13.1609 660 111.845 1193.01 518.308
664 0 52.2068 15.0938 788 105.783 1191.47 517.249
665 0 54.1956 16.4589 892 102.427 1190.43 515.248
666 0 55.153 13.943 769 107.56 1189.55 511.879
667 0 58.1581 15.4235 897 103.963 1189.2 510.798
668 0 60.1177 15.3033 920 104.289 1188.62 506.6
669 0 61.1744 14.4505 884 105.347 1188.48 504.026
670 0 64.0942 14.7595 946 104.091 1187.7 502.637
671 0 68.1459 15.3641 1047 102.578 1188.11 501.308
672 0 69.2308 14.5744 1009 105.313 1188.62 499.306
673 0 70.0883 14.4675 1014 106.816 1189.98 497.192
674 1 36.1393 11.511 416 104.084 1191.91 514.2
675 0 36.0994 10.111 365 107.058 1192.86 514.082
676 0 39.0622 12.7233 497 104.038 1193.38 511.98
677 0 40.2418 13.2946 535 103.905 1194.49 510.604
678 0 41.2163 13.1259 541 102.885 1195.31 510.582
679 0 42.2616 12.9195 546 104.769 1197.44 510.341
680 0 44.1803 13.0375 576 106.37 1199.2 509.142
681 0 45.143 14.0664 635 105.113 1201.03 510.055
682 0 46.1726 13.6661 631 106.055 1202.42 508.64
683 0 50.142 14.6584 735 101.916 1203.58 510.81
684 0 52.1815 14.2771 745 104.596 1203.8 509.769
685 0 53.167 15.3667 817 103.928 1203.96 509.104
686 0 54.2146 13.4281 728 109.055 1203.94 509.33
687 0 57.1078 13.7809 787 107.37 1202.96 510.187
688 0 59.1588 14.3512 849 106.7 1202.12 509.311
689 0 61.0652 14.0997 861 110.459 1201.12 507.458
690 0 63.0835 13.8546 874 111.411 1200.18 506.286
691 0 66.1687 14.7048 973 109.755 1199.03 504.805
692 0 71.1515 15.1648 1079 109.093 1197.74 501.211
693 1 37.049 11.6602 432 110.655 1197.52 517.556
694 0 38.0616 10.6669 406 114.562 1195.31 515.332
695 0 38.0493 12.0107 457 113.098 1193.91 513.063
696 0 40.0936 12.4958 501 113.18 1192.58 509.878
697 0 42.0277 12.349 519 115.218 1192.4 507.447
698 0 44.1017 12.9473 571 112.574 1193.39 507.263
699 0 43.0666 13.305 573 114.932 1193.2 505.656
700 0 46.0612 15.1538 698 110.45 1193.58 503.224
701 0 47.043 13.477 634 115.413 1194.62 502.306
702 0 49.0688 14.2045 697 113.397 1195.34 500.568
703 0 51.0981 12.7989 654 114.977 1196.12 500.679
704 0 52.0726 14.787 770 111.371 1196.78 500.751
705 0 54.0379 14.897 805 111.684 1198.94 497.962
706 0 57.0672 14.0711 803 111.671 1198.64 498.081
707 0 58.0466 14.764 857 112.068 1200.43 495.943
708 0 59.1219 13.9542 825 114.075 1202.19 495.776
709 0 64.1689 14.9917 962 110.364 1204.52 494.689
710 0 65.1151 13.8677 903 113.553 1205.64 495.2
711 0 68.1551 13.2785 905 115.127 1207.62 496.119
712 0 73.1361 14.7807 1081 110.551 1208.81 494.974
713 0 75.2034 15.7307 1183 108.636 1209.43 495.429
714 1 39.0646 11.545 451 113.494 1209.92 512.681
715 0 41.0454 11.67 479 112.965 1208.33 513.148
716 0 43.0165 11.5537 497 113.871 1207.43 513.356
717 0 45.0395 12.3447 556 112.392 1204.72 512.437
718 0 46.3104 11.898 551 113.806 1204.77 512.74
719 0 48.2716 13.134 634 109.992 1204.15 512.101
720 0 51.186 14.5548 745 107.607 1202.79 509.317
721 0 54.2952 13.4082 728 109.037 1201.09 506.826
722 0 56.3322 12.3375 695 110.626 1198.99 504.997
723 0 57.2995 13.1589 754 108.5 1197.98 503.72
724 0 60.3794 13.5974 821 107.799 1197.2 499.112
725 0 64.3069 14.5863 938 104.628 1196.52 498.173
726 0 63.2491 14.4192 912 107.519 1196.75 494.888
727 0 67.1438 12.8977 866 109.148 1196.37 491.365
728 0 70.1556 13.0567 916 107.785 1195.41 491.734
729 0 73.0894 14.4344 1055 103.908 1194.67 490.085
730 1 41.0236 11.7493 482 104.693 1193.89 502.589
731 0 40.1044 9.69969 389 106.139 1193.52 504.046
732 0 44.0197 11.8583 522 102.634 1194.7 502.431
733 0 46.1207 13.6598 630 98.5889 1196.84 501.487
734 0 44.3786 12.6412 561 104.59 1197.82 501.333
735 0 48.4598 12.5465 608 101.109 1199.13 502.22
736 0 49.3384 12.5865 621 102.143 1201.69 500.802
737 0 52.2908 11.8568 620 102.671 1202.65 503.374
738 0 56.0326 12.7961 717 102.789 1205.18 502.745
739 0 55.274 13.0803 723 103.422 1205.8 502.66
740 0 56.1285 12.7921 718 105.526 1205.46 502.401
741 0 60.1637 12.2499 737 105.318 1205.8 503.906
742 0 65.1503 12.8779 839 102.395 1205.04 503.731
743 0 67.1405 13.9707 938 100.129 1203.27 506.122
744 0 72.1222 14.4061 1039 100.448 1202.43 503.137
745 0 76.2736 13.5958 1037 102.895 1201.07 503.008
746 0 78.0976 14.5331 1135 102.118 1199.68 500.095
747 1 42.1716 9.65104 407 102.329 1197.93 519.324
748 0 44.1045 9.13739 403 101.253 1196.95 520.332
749 0 49.2017 11.3004 556 99.7356 1195.82 515.358
750 0 50.1499 12.5224 628 97.9666 1194.75 512.662
751 0 52.2047 11.589 605 99.1603 1194.23 511.926
752 0 54.1591 14.1435 766 94.983 1190.56 511.039
753 0 55.1951 12.5192 691 98.9247 1188.83 507.794
754 0 56.2502 12.1955 686 101.117 1189.43 505.707
755 0 58.1986 12.5433 730 99.1753 1190.41 504.899
756 0 59.1926 12.5691 744 99.7527 1189.4 504.173
757 0 61.112 13.4507 822 98.8443 1191 500.523
758 0 63.0531 13.7345 866 98.1455 1191.17 498.092
759 0 67.1241 14.0784 945 97.0328 1191.06 496.961
760 0 68.0906 13.2324 901 98.455 1192.02 494.675
761 0 71.094 12.2092 868 100.199 1192.95 493.234
762 1 38.0324 11.0169 419 94.9738 1194.14 512.606
763 0 38.0434 10.8823 414 98.2633 1196.07 510.06
764 0 38.0698 11.1374 424 99.5236 1197.73 509.163
765 0 41.1475 11.7626 484 97.562 1199.47 509.215
766 0 43.2716 11.9016 515 96.4291 1202.36 510.408
767 0 45.1773 12.13 548 94.0931 1204.22 511.259
768 0 47.3774 13.8041 654 94 1204 510.515
769 0 47.3219 12.8904 610 97.7721 1204.18 510.123
770 0 48.2525 12.5796 607 99.7677 1202.73 509.74
771 0 52.3281 14.3709 752 94.758 1202.06 510.057
772 0 53.388 12.7182 679 98.8306 1201.93 511.371
773 0 57.2478 13.8695 794 94.1725 1200.28 511.681
774 0 57.3042 13.7686 789 95.616 1199.18 509.038
775 0 60.3034 14.4934 874 87.4714 1197.74 508.279
776 0 67.1842 15.2863 1027 84.2454 1195.46 506.165
777 0 66.1452 15.1636 1003 86.3021 1194.69 505.654
778 0 70.1122 15.7747 1106 85.5986 1193.49 502.033
779 0 69.3334 13.9759 969 89.8215 1192.26 500.013
780 1 37.1964 8.97936 334 90.6557 1192.67 517.874
781 0 40.0207 9.74497 390 90.8359 1191.84 514.395
782 0 41.1024 10.8266 445 88.4404 1190.9 513.982
783 0 45.0542 12.4295 560 86.0214 1191.75 511.429
784 0 43.1743 10.8166 467 90 1191.69 511.478
785 0 46.1656 12.6284 583 86.1681 1191.57 509.871
786 0 47.1228 15.6188 736 83.9266 1192.53 506.342
787 0 46.0444 12.0753 556 91.0216 1193.89 507.146
788 0 50.0202 14.2143 711 85.346 1194.65 505.743
789 0 52.1417 14.4798 755 85.5947 1195.57 505.201
790 0 52.0857 14.169 738 86.2209 1197.32 505.738
791 0 55.0659 15.2545 840 84.6286 1198.64 504.793
792 0 57.0885 15.8176 903 83.1872 1200.55 505.741
793 0 57.1109 14.5506 831 84.8255 1202.38 509.084
794 0 60.1258 15.7503 947 83.4995 1203.26 507.879
795 0 61.0604 15.3782 939 84.6901 1204.15 506.727
796 0 65.0826 14.9656 974 85.5421 1204.39 509.528
797 0 70.0323 16.5638 1160 82.1353 1202.6 506.946
798 0 71.223 15.2619 1087 86.4775 1201.64 507.289
799 1 37.0406 11.2309 416 88.4135 1200.62 524.8
800 0 38.0724 10.5588 402 89.6269 1198.59 524.836
801 0 41.0392 11.818 485 87.4186 1196.64 521.798
802 0 43.0452 11.8016 508 86.561 1194.89 521.628
803 0 46.112 13.0118 600 84.685 1192.94 519.142
804 0 47.0637 12.7487 600 86.3767 1191.08 517.025
805 0 48.1095 12.9081 621 86.4734 1190.01 514.725
806 0 50.0453 14.2271 712 83.4494 1189.04 512.508
807 0 50.0566 13.0652 654 86.1376 1188.29 510.645
808 0 51.0983 14.3449 733 86.4529 1187.65 507.947
809 0 53.1909 13.9498 742 87.0229 1187.39 505.805
810 0 56.0976 13.6191 764 86.8835 1187.8 503.935
811 0 57.1776 15.5655 890 84.2742 1188.25 502.496
812 0 60.1866 14.7873 890 86.0888 1188.1 500.966
813 0 59.1248 13.869 820 87.9402 1189.65 496.673
814 0 63.1121 15.5121 979 84.6803 1191.23 497.126
815 0 65.1863 13.6839 892 88.2646 1191.71 496.061
816 0 68.2019 14.3984 982 86.6069 1192.86 496.607
817 0 72.0512 14.8783 1072 87.1082 1195.17 493.136
818 0 74.1889 13.9643 1036 89.4691 1197.46 492.991
819 0 77.2281 15.4089 1190 88.2815 1199.1 489.407
820 0 81.119 16.1121 1307 87.15 1199.78 490.958
821 1 43.0245 10.5057 452 93.2766 1200.52 510.646
822 0 46.1266 11.902 549 92.0984 1201.87 509.871
823 0 48.0646 12.6912 610 90.8475 1202.68 511.021
824 0 52.0752 15.1512 789 86.8086 1202.27 509.091
825 0 55.129 12.9514 714 92.2157 1201.44 508.493
826 0 57.0698 14.0354 801 89.5506 1201.79 509.265
827 0 61.0504 15.348 937 88.2252 1199.37 505.89
828 0 64.0871 13.5285 867 91.3898 1197.62 505.712
829 0 65.3222 13.6248 890 92.8101 1196.65 501.789
830 0 70.5131 13.6145 960 90.0781 1195.37 503.282
831 0 74.322 15.6481 1163 88.0095 1194.2 500.077
832 0 75.2842 13.4955 1016 93.2539 1193.35 495.731
833 0 80.3297 14.3285 1151 90.9348 1192.5 494.979
834 1 40.4025 9.85088 398 89.3518 1192.82 514.008
835 0 41.2843 10.6336 439 89.205 1192.26 511.695
836 0 45.1872 12.415 561 86.2602 1191.76 509.258
837 0 45.1573 12.9326 584 86.4366 1191.13 507.06
838 0 45.1276 12.7195 574 86.6882 1191.87 506.077
839 0 48.1214 11.9489 575 86.9183 1192.69 505.823
840 0 49.2116 13.1676 648 86.1975 1192.94 502.741
841 0 52.2147 12.8508 671 86.3562 1193.41 503.215
842 0 54.201 13.5237 733 86.9659 1194.27 502.248
843 0 54.1535 14.3481 777 85.8816 1196.62 502.831
844 0 57.3005 14.1709 812 85.6601 1197.39 501.335
845 0 60.2946 15.0096 905 84.1459 1199.31 500.092
846 0 61.1211 13.2687 811 88.4192 1201.73 501.025
847 0 63.2091 13.4949 853 87.6717 1202.94 502.294
848 0 66.0988 13.4496 889 88.054 1203.18 501.954
849 0 70.191 13.6627 959 86.9041 1203.86 501.923
850 0 72.2191 12.6559 914 89.1488 1203.47 502.995
851 0 77.1248 14.9628 1154 85.9437 1204.16 502.08
852 0 77.1571 12.9346 998 89.8557 1203.4 499.754
853 0 83.1524 13.5294 1125 89.1733 1201.19 497.676
854 0 85.0844 13.8921 1182 87.9078 1199.07 495.722
855 0 90.0594 14.8013 1333 87.1883 1197.87 494.654
856 0 92.1524 11.7306 1081 91.0805 1196.76 490.335
857 0 97.3504 14.9666 1457 86.5402 1194.01 488.808
858 1 52.116 10.3807 541 85.6155 1193.66 512.529
859 0 55.0924 9.6928 534 86.6779 1191.98 510.054
860 0 56.0941 12.586 706 82.8838 1190.49 508.761
861 0 58.1065 12.6492 735 81.8857 1190.28 507.776
862 0 62.0678 13.4208 833 80.5018 1189.58 505.673
863 0 62.1309 11.9425 742 83.8625 1189.02 501.053
864 0 67.0942 12.9967 872 81.1904 1188.66 499.924
865 0 67.1637 12.6705 851 83.0811 1189.25 497.17
866 0 69.3458 12.2574 850 82.8165 1189.5 497.309
867 0 70.0847 13.0414 914 80.6138 1189.54 493.142
868 0 75.1107 12.182 915 80.353 1191.49 494.944
869 0 76.0555 12.8327 976 79.9908 1193.14 491.725
870 0 80.0678 14.3254 1147 79.1718 1193.62 488.768
871 0 84.2408 13.3071 1121 80.1106 1194.8 491.055
872 0 88.183 13.3699 1179 81.1357 1196.89 488.79
873 0 92.3171 13.042 1204 82.6694 1198.23 488.004
874 0 97.381 16.6768 1624 77.4895 1198.88 485.967
875 0 97.2954 13.5155 1315 82.6297 1199.26 481.573
876 0 105.411 16.4214 1731 78.3807 1200.31 481.713
877 1 55.1402 11.0446 609 80.197 1200.85 508.972
878 0 57.2208 11.01 630 81.9064 1199.79 508.606
879 0 60.1736 12.3476 743 81.4468 1199.79 506.264
880 0 63.3241 14.4495 915 79.577 1200.25 504.391
881 0 67.0755 12.9854 871 79.6579 1198.77 508.949
882 0 68.1733 13.9057 948 80.6319 1196.46 501.571
883 0 71.146 12.1722 866 82.7379 1194.59 502.254
884 0 75.3409 16.1267 1215 76.7309 1192.65 498.132
885 0 78.3184 16.2159 1270 74.8213 1191.23 495.608
886 0 81.3429 14.7401 1199 77.5705 1189.94 490.626
887 0 83.334 16.2719 1356 76.1895 1189.68 489.086
888 0 87.198 15.0577 1313 77.8797 1189.25 487.525
889 0 88.234 14.5635 1285 79.5588 1188.69 486.274
890 0 92.5493 15.8402 1466 78.8643 1189.08 482.206
891 0 94.3863 16.1676 1526 79.2962 1189.77 480.337
892 0 95.4001 14.2138 1356 82.2168 1190.54 478.419
893 0 99.2099 15.825 1570 80.4841 1191.22 474.205
894 0 104.153 15.4388 1608 80.8085 1192.04 475.381
895 0 107.405 15.7907 1696 80.9917 1193.09 470.506
896 0 110.209 17.0041 1874 80.0582 1193.93 470.049
897 1 59.0884 10.002 591 82.3807 1196.96 498.9
898 0 65.1255 11.1477 726 82.0565 1197.76 495.966
899 0 65.1156 14.1594 922 80.5553 1198.74 494.966
900 0 70.2054 13.9305 978 80.9131 1200.19 494.959
901 0 70.1225 14.4176 1011 78.8882 1202.02 497.01
902 0 75.1616 15.0077 1128 78.1383 1203.86 495.606
903 0 78.2 12.9156 1010 81.498 1204.51 498.359
904 0 82.0729 15.2791 1254 79.8397 1205 497.591
905 0 84.1351 13.1455 1106 84.1763 1204.45 495.424
906 0 85.1448 13.0014 1107 85.4634 1204.2 496.48
907 0 91.0961 15.3684 1400 82.9164 1202.2 495.05
908 0 95.0931 14.7014 1398 86.8076 1200.06 491.796
909 1 56.156 10.2037 573 82.1047 1199.22 519.335
910 0 56.0325 10.5475 591 84.5178 1197.33 513.563
911 0 56.1656 10.9142 613 83.3344 1195.69 513.595
912 0 60.0936 11.2658 677 83.6795 1194.43 512.62
913 0 60.1593 12.6664 762 85.1247 1193.11 508.371
914 0 63.115 11.2651 711 88.0464 1192.16 507.286
915 0 65.0901 14.0421 914 82.9891 1190.98 506.435
916 0 65.0886 11.5996 755 88.0662 1191.1 502.947
917 0 68.2617 12.3349 842 87.2779 1189.98 501.456
918 0 71.3359 14.7051 1049 85.2383 1191.07 497.058
919 0 75.3405 14.4676 1090 85.2899 1191.2 496.157
920 0 76.3739 13.3684 1021 87.6836 1191.26 494.5
921 0 79.2365 14.0592 1114 88.0853 1191.07 491.623
922 0 82.2152 13.1484 1081 89.3839 1191.86 491.957
923 1 45.0304 8.52757 384 90.6224 1192.27 511.109
924 0 49.0877 12.06 592 84.8378 1193.45 510.181
925 0 49.1539 11.4945 565 88.4566 1195.27 507.35
926 0 51.1089 10.1744 520 89.3481 1197.14 510.165
927 0 55.0635 11.1144 612 88.7582 1198.88 510.003
928 0 57.0409 13.1309 749 88.0334 1200.48 508.773
929 0 58.06 13.5894 789 88.7655 1201.19 510.21
930 0 61.1443 13.3128 814 92.4226 1201.24 508.95
931 0 61.0641 12.9208 789 94.616 1201.9 509.342
932 0 63.0863 12.1421 766 95.7337 1201.1 510.824
933 0 68.2132 13.5018 921 93.0261 1199.36 507.649
934 0 73.102 13.9394 1019 93.4014 1198.2 506.29
935 0 77.1667 16.2246 1252 90.5256 1196.8 504.494
936 0 77.3256 13.4238 1038 94.1455 1194.84 501.636
937 0 81.4231 13.5342 1102 96.0363 1193.49 500.836
938 1 42.0769 10.4095 438 94.2169 1192.09 520.758
939 0 44.0718 10.1879 449 97.1581 1190.11 515.042
940 0 48.1462 12.8774 620 92.771 1188.4 512.274
941 0 49.0864 15.2384 748 89.369 1188.28 509.507
942 0 49.2781 12.1961 601 95.0349 1188.25 507.692
943 0 50.3826 12.9807 654 91.9465 1187.77 507.193
944 0 54.2517 14.1931 770 89.0584 1187.97 503.891
945 0 54.2183 12.8554 697 91.7991 1188.12 501.633
946 0 58.283 12.2334 713 91.5694 1187.96 499.68
947 0 59.1833 12.6049 746 93.5858 1188.69 498.381
948 0 61.2522 13.5669 831 90.4332 1190.24 497.555
949 0 62.241 14.0904 877 90.1938 1190.51 494.298
950 0 66.2051 13.715 908 89.5066 1191.21 495.004
951 0 67.2969 13.0912 881 91.0318 1192.39 493.581
952 0 71.2598 14.7909 1054 87.1319 1195.77 491.763
953 0 73.3007 12.6465 927 90.5113 1196.85 492.28
954 0 76.2978 13.8012 1053 88.5242 1199.18 492.861
955 0 80.2294 13.7231 1101 88.1244 1201.04 491.578
956 0 82.2106 14.1953 1167 86.94 1202.66 490.506
957 0 87.051 14.3939 1253 86.4533 1204.74 492.884
958 0 90.1571 15.4064 1389 85.5349 1205.01 492.29
959 0 92.166 12.5751 1159 91.5936 1204.19 489.972
960 0 98.1047 14.0258 1376 89.6512 1203.65 489.156
961 0 102.202 14.1876 1450 90.0469 1202.7 489.93
962 1 54.1959 10.0561 545 92.0642 1201.77 514.334
963 0 57.3055 11.1857 641 91.7379 1200.31 511.841
964 0 58.0776 9.91777 576 91.1771 1199.03 516.184
965 0 63.1141 13.9272 879 87.3185 1196.77 510.19
966 0 63.0689 13.4773 850 90.9071 1195.02 505.559
967 0 66.1282 13.867 917 87.5747 1193.45 506.923
968 0 68.1252 13.0789 891 89.569 1192.45 503.547
969 0 70.1765 13.1811 925 90.5881 1191.34 498.555
970 0 73.1004 14.0492 1027 88.5141 1189.95 498.091
971 0 75.1208 12.7794 960 89.8656 1190.23 496.015
972 0 80.0544 15.377 1231 86.4046 1190.74 493.576
973 0 81.198 14.6186 1187 87.2334 1190.27 491.245
974 0 83.2491 14.2584 1187 88.9301 1190.83 486.216
975 0 86.2698 15.3472 1324 86.1375 1191.49 487.248
976 0 89.5886 13.8522 1241 87.7953 1192.24 485.641
977 0 90.2259 12.5906 1136 89.5458 1192.54 483.421
978 0 95.7729 16.4974 1580 83.5133 1194.21 481.853
979 0 97.2745 13.7446 1337 87.5595 1195.73 479.733
980 1 51.2724 11.0391 566 86.9099 1197.99 505.101
981 0 53.4491 10.9263 584 87.6062 1200.16 502.745
982 0 58.2244 13.8773 808 83.6522 1201.88 501.229
983 0 59.3916 12.6617 752 84.0093 1203.17 501.44
984 0 62.3744 12.1364 757 83.3633 1204.82 502.695
985 0 65.3045 12.1431 793 84.5107 1205.45 502.871
986 0 68.2541 15.2079 1038 80.3844 1205.34 501.023
987 0 74.1574 16.856 1250 78.2008 1204.63 500.822
988 0 78.4804 14.2074 1115 80.8278 1203.33 499.891
989 0 80.4036 13.8178 1111 82.2772 1202.5 499.427
990 0 86.4017 15.0692 1302 80.0991 1201.11 496.995
991 0 89.5385 15.39 1378 80.9144 1199.79 495.265
992 0 93.3844 13.7282 1282 83.1108 1198.74 494.168
993 0 97.3885 14.7553 1437 81.3403 1195.87 488.376
994 0 102.391 14.8256 1518 81.2615 1194.76 486.356
995 1 56.2729 9.86265 555 85.5856 1193.2 509.045
996 0 56.2715 12.2975 692 83.1835 1192.46 506.415
997 0 57.2323 10.9379 626 86.0447 1192.66 504.244
998 0 61.2857 13.9184 853 81.5358 1192.4 500.191
999 0 62.1138 13.3465 829 83.3185 1192.41 498.356
1000 0 65.2355 14.7466 962 81.7557 1191.43 496.729
1001 0 68.4261 15.7104 1075 80.466 1191.48 495.841
1002 0 69.199 13.9164 963 84.1713 1191.17 494.711
1003 0 71.1978 14.7476 1050 85.1686 1191.45 490.87
1004 0 74.1867 15.0431 1116 85.3584 1192.35 489.433
1005 0 78.0784 14.1012 1101 87.3206 1193.41 488.395
1006 0 79.1996 13.6996 1085 88.2599 1195.61 488.879
1007 0 84.2991 14.4367 1217 87.4158 1197.05 488.282
1008 0 87.1827 14.4065 1256 88.5772 1199.2 486.396
1009 0 90.292 15.5495 1404 87.4359 1200.33 485.792
1010 0 93.1381 13.8075 1286 91.4051 1203.46 486.896
1011 0 96.2882 14.6332 1409 91.9759 1204.15 483.302
1012 0 103.294 14.8896 1538 90.4187 1204.56 484.142
1013 0 106.273 14.8674 1580 91.9873 1205.23 482.272
1014 1 59.0448 11.2796 666 92.0105 1205.1 507.937
1015 0 60.1199 11.344 682 92.5806 1203.52 504.248
1016 0 62.1593 12.5645 781 91.2663 1202.35 503.684
1017 0 67.2825 12.9306 870 92.554 1201.44 505.459
1018 0 72.1744 13.8692 1001 91.0979 1198.83 505.06
1019 0 76.1808 13.4155 1022 91.7681 1197.94 504.622
1020 0 79.1579 14.8564 1176 89.6131 1195.81 502.608
1021 0 81.2593 12.9954 1056 94.3731 1194.59 496.546
1022 0 84.1852 12.9833 1093 94.8097 1194.23 495.543
1023 0 89.3301 13.0863 1169 94.9547 1193.45 492.068
1024 0 91.1603 13.3611 1218 98.0501 1192.26 489.204
1025 1 47.0777 9.72859 458 93.428 1192.7 511.804
1026 0 51.027 11.9349 609 90.8801 1193.22 508.184
1027 0 51.0936 12.4869 638 92.7978 1193.24 505.221
1028 0 53.0648 12.023 638 93.1254 1192.97 505.655
1029 0 56.1408 14.5705 818 89.3863 1193.24 502.676
1030 0 57.0483 12.2703 700 94.4743 1193.33 500.531
1031 0 57.0746 13.2458 756 93.5304 1193.78 500.265
1032 0 61.1004 14.0261 857 91.0373 1194.89 499.24
1033 0 63.059 13.4477 848 92.7182 1196.07 496.949
1034 0 64.1512 13.4214 861 91.4948 1197.92 496.477
1035 0 67.0711 12.4644 836 92.8481 1200.03 497.153
1036 0 69.0664 13.3205 920 91.6706 1200.51 496.334
1037 0 72.0736 13.2503 955 92.51 1202.25 496.303
1038 0 73.0983 12.4627 911 94.6257 1203.59 496.032
1039 1 40.0931 9.82712 394 92.9467 1203.96 516.107
1040 0 38.0766 8.693 331 98.9909 1203.9 514.112
1041 0 43.03 11.7825 507 91.8935 1203.73 514.767
1042 0 42.0674 9.27083 390 96.8205 1202.21 515.841
1043 0 47.0626 12.494 588 91.949 1201.68 514.498
1044 0 46.0299 11.3839 524 95.4561 1201.63 516.609
1045 0 51.0787 13.0778 668 89.235 1201.34 514.651
1046 0 53.04 12.8017 679 90.2298 1199.01 516.356
1047 0 52.1572 13.421 700 92.57 1197.04 512.357
1048 0 55.1509 12.2573 676 94.3417 1196.2 511.228
1049 0 56.0389 13.5799 761 93.3574 1194.47 509.65
1050 0 58.0432 13.3521 775 94.9058 1192.09 507.098
1051 0 60.2544 13.7085 826 95.1513 1190.91 503.385
1052 0 62.1968 13.5216 841 94.8704 1190.76 503.033
1053 0 64.0923 13.2153 847 96.0071 1191.03 498.59
1054 0 67.0981 14.9035 1000 93.476 1191.16 497.27
1055 0 68.0624 12.0625 821 98.5773 1191.77 495.798
1056 0 70.0824 14.6114 1024 95.4854 1192.28 490.817
1057 0 71.0809 13.6746 972 97.6739 1192.13 489.829
1058 0 76.1015 15.2428 1160 93.8957 1193.2 489.016
1059 1 39.0499 11.3957 445 96.3214 1194.27 506.658
1060 0 40.1131 10.0466 403 97.7742 1195.64 507.635
1061 0 41.1452 9.67307 398 97.505 1197.87 508.437
1062 0 44.0386 11.8305 521 95.881 1199.04 506.436
1063 0 45.0201 11.7281 528 93.8655 1200.56 509.064
1064 0 48.2756 13.4851 651 93.3779 1202.31 505.287
1065 0 50.2481 15.2245 765 90.9647 1203.84 506.519
1066 0 50.1783 13.6115 683 95.5271 1206.6 506.381
1067 0 54.1191 13.6551 739 95.9865 1207.22 507.126
1068 0 54.3253 12.7933 695 99.3094 1206.66 507.683
1069 0 59.1916 14.6136 865 95.6856 1205.39 505.356
1070 0 60.1528 14.7624 888 97.1757 1203.72 506.761
1071 0 64.1396 14.4684 928 98.3987 1202.39 506.917
1072 0 66.2583 16.4961 1093 96.3001 1201.78 505.502
1073 0 68.5488 16.0615 1101 97.8102 1200.48 505.28
1074 0 72.4732 15.8265 1147 98.9041 1199.22 501.624
1075 0 73.4698 15.0402 1105 102.319 1197.35 499.609
1076 0 75.4599 15.77 1190 102.605 1196.49 496.447
1077 0 79.2947 15.3478 1217 102.93 1195.11 495.887
1078 0 83.4583 15.0854 1259 103.624 1194.16 492.692
1079 0 86.4146 16.4324 1420 100.482 1194.09 489.269
1080 0 88.3297 15.4308 1363 104.158 1194.43 484.867
1081 1 43.3216 12.8573 557 103.957 1194.08 505.648
1082 0 44.1756 12.2692 542 105.801 1194.63 504.166
1083 0 47.4114 12.2755 582 105.485 1195.36 503.785
1084 0 48.3366 13.737 664 102.914 1194.9 502.486
1085 0 48.2795 12.4483 601 107.038 1195.64 502.659
1086 0 53.0989 14.6519 778 102.898 1196.96 499.751
1087 0 56.1235 15.2343 855 100.96 1197.74 499.663
1088 0 56.2129 13.4667 757 105.647 1200.01 498.91
1089 0 59.0958 13.9435 824 104.305 1202.05 498.306
1090 0 60.1511 14.4303 868 104.736 1203.62 497.968
1091 0 65.1082 14.7447 960 103.478 1204.96 499.708
1092 0 67.1306 15.1943 1020 103 1206.3 497.489
1093 0 71.1625 14.1507 1007 104.45 1207.24 500.505
1094 0 74.2654 16.3602 1215 101.933 1206.63 497.256
1095 0 78.366 16.4867 1292 101.293 1206.92 499.557
1096 0 81.3227 15.1864 1235 106.112 1206.23 498.9
1097 0 83.1878 15.8076 1315 107.385 1206.93 497.486
1098 1 42.3083 9.87985 418 112.002 1205.09 517.842
1099 0 46.2933 12.2696 568 111.731 1203.07 516.194
1100 0 50.3724 13.4399 677 107.792 1201.36 516.631
1101 0 50.2728 12.6311 635 110.877 1200.16 514.605
1102 0 52.3683 13.9397 730 109.292 1198.15 512.997
1103 0 56.3238 13.884 782 109.738 1196.91 510.458
1104 0 59.0672 14.5258 858 107.896 1195.78 507.777
1105 0 57.1486 12.9837 742 114.522 1194.73 504.24
1106 0 62.2195 14.5292 904 108.587 1195.41 501.862
1107 0 65.2484 14.1613 924 108.657 1194.84 499.474
1108 0 67.261 13.2172 889 110.355 1194.4 497.971
1109 0 70.277 14.2294 1000 108.745 1194.67 494.505
1110 0 73.2269 16.1143 1180 104.85 1194.4 491.821
1111 0 73.2265 13.8201 1012 110.235 1195.12 490.307
1112 0 78.2887 14.4465 1131 108.141 1195.99 489.225
1113 0 82.176 14.5541 1196 108.593 1196.42 486.573
1114 0 82.2643 13.4202 1104 111.443 1198.46 487.042
1115 1 43.3084 10.1366 439 108.667 1199.46 506.77
1116 0 46.3786 10.4574 485 106.821 1201.19 506.062
1117 0 47.2426 12.3194 582 102.101 1202.14 508.945
1118 0 49.228 12.9601 638 104.489 1204.03 506.867
1119 0 51.0945 14.2285 727 102.378 1205.37 505.538
1120 0 52.2576 12.0365 629 106.827 1206.91 506.911
1121 0 55.1217 12.4633 687 106.665 1207.4 507.236
1122 0 58.1636 13.2385 770 105.801 1207.85 506.491
1123 0 62.1327 13.8574 861 104.109 1207.52 505.938
1124 0 65.1142 13.6376 888 104.592 1205.98 507.93
1125 0 68.244 13.5836 927 106.027 1204.16 506.005
1126 0 71.2471 15.0182 1070 104.318 1201.74 504.878
1127 1 37.1027 10.4305 387 104.32 1201.41 523.623
1128 0 39.0559 11.1635 436 103.814 1199.86 520.998
1129 0 39.0931 10.232 400 109.128 1198.11 518.222
1130 0 43.1021 12.0644 520 104.231 1196.82 517.123
1131 0 43.1166 11.4341 493 106.775 1196.08 515.337
1132 0 45.1101 11.5717 522 106.713 1195.57 513.012
1133 0 47.1834 13.3098 628 103.901 1193.81 511.153
1134 0 48.1514 13.3122 641 104.852 1194 509.289
1135 0 51.28 12.7925 656 103.502 1194.69 508.317
1136 0 52.1313 13.1207 684 105.529 1195.44 504.877
1137 0 52.3295 13.1283 687 105.012 1194.75 503.592
1138 0 56.1696 13.5126 759 104.598 1194.71 501.743
1139 0 57.1196 12.6051 720 106.361 1195.22 502.483
1140 0 60.1581 13.8136 831 104.614 1195.78 500.912
1141 0 61.1762 14.8587 909 102.843 1195.93 500.573
1142 0 60.1733 12.9459 779 108.598 1197.24 499.118
1143 0 63.2822 12.5312 793 108.984 1199.37 500.174
1144 0 66.1748 13.2528 877 107.645 1200.61 499.108
1145 0 71.1101 15.1033 1074 103.158 1202.68 499.24
1146 0 72.4804 13.314 965 108.568 1204.22 496.332
1147 0 76.2545 14.8975 1136 105.43 1204.69 497.245
1148 1 43.11 12.5957 543 108.692 1206.01 516.355
1149 0 43.1205 12.9173 557 108.797 1206.84 515.68
1150 0 46.0929 14.6009 673 106.064 1205.78 515.547
1151 0 47.1005 13.6092 641 110.905 1204.58 516.39
1152 0 49.0358 13.174 646 113.759 1203.24 516.068
1153 0 49.0242 13.7687 675 114.759 1202 515.953
1154 0 51.0797 13.6258 696 116.254 1201.42 515.82
1155 0 53.0833 13.5448 719 116.484 1200.03 513.483
1156 0 55.1744 15.605 861 112.706 1198.47 512.951
1157 0 58.1921 14.9677 871 114.237 1197.03 509.394
1158 0 61.2012 14.8526 909 114.809 1196.14 508.026
1159 0 61.201 14.3788 880 118.74 1195.07 505.68
1160 0 63.2033 15.0941 954 117.774 1194.42 503.928
1161 0 66.3413 14.9379 991 118.749 1193.78 500.188
1162 0 67.325 15.0613 1014 120.4 1193.43 496.987
1163 0 72.4781 15.1908 1101 118.233 1193.94 495.328
1164 0 73.375 15.4821 1136 118.791 1193.65 491.062
1165 1 40.3138 11.088 447 118.96 1195.03 508.38
1166 0 40.1931 11.2706 453 121.26 1195.32 507.342
1167 0 44.1256 12.1018 534 119.146 1195.46 505.62
1168 0 44.1109 12.1965 538 117.97 1196.39 504.902
1169 0 46.0594 13.7648 634 114.653 1195.99 504.298
1170 0 45.1557 12.2908 555 119.175 1196.55 503.443
1171 0 46.1103 13.6195 628 116.207 1199.91 503.36
1172 0 50.3169 14.0907 709 114.014 1202.62 503.054
1173 0 51.2411 13.0949 671 117.705 1204.01 502.095
1174 0 55.1927 13.9874 772 112.543 1205.86 503.825
1175 0 57.201 16.0487 918 106.76 1207.76 504.436
1176 0 58.2557 14.0759 820 113.445 1207.69 503.221
1177 0 60.3216 14.7708 891 112.397 1208.4 504.016
1178 0 64.2919 14.7297 947 111.271 1208.44 503.725
1179 0 67.3223 14.438 972 114.226 1207.76 503.434
1180 0 67.3926 15.1945 1024 114.489 1206.49 502.746
1181 0 72.2401 15.9191 1150 112.35 1205.7 501.177
1182 0 75.2792 14.9975 1129 114.627 1203.15 499.397
1183 0 79.261 14.774 1171 113.375 1202.64 498.565
1184 0 81.3095 15.607 1269 112.608 1200.97 494.766
1185 1 43.0396 10.4323 449 114.39 1200.51 514.753
1186 0 45.0724 10.5164 474 114.017 1198.65 513.247
1187 0 48.0674 12.0872 581 109.217 1197.37 512.241
1188 0 47.0606 13.0895 616 109.041 1195.52 508.529
1189 0 49.1613 12.8353 631 108.916 1194.99 506.233
1190 0 52.0948 12.0741 629 110.467 1194.62 504.075
1191 0 52.0507 14.4667 753 106.305 1193.5 501.764
1192 0 55.1141 14.225 784 106.337 1194.12 499.208
1193 0 57.097 13.2056 754 109.337 1194.95 497.387
1194 0 58.2093 13.4171 781 110.488 1195.54 494.971
1195 0 59.2125 13.3418 790 109.397 1196.5 495.17
1196 0 62.0877 13.2716 824 109.172 1197.1 494.261
1197 0 67.1526 13.4321 902 108.071 1199.07 493.456
1198 0 67.1154 14.3186 961 107.696 1200 491.428
1199 0 72.2212 12.8771 930 109.534 1201.01 491.338
1200 0 73.1741 13.2014 966 110.122 1203.32 488.999
1201 1 42.0925 11.9499 503 103.262 1206.29 507.612
1202 0 43.0388 10.5254 453 106.534 1206.8 508.338
1203 0 43.1343 11.4526 494 105.642 1206.97 508.115
1204 0 46.4165 12.0862 561 103.078 1209.56 508.97
1205 0 47.7435 11.9807 572 102.08 1210.22 509.017
1206 0 50.2537 13.1732 662 98.4063 1209.29 510.792
1207 0 51.2314 11.8677 608 104.47 1208.22 508.886
1208 0 54.2376 12.7402 691 103.069 1206.99 509.146
1209 0 55.2968 12.3877 685 105.118 1205.54 509.127
1210 0 57.2611 13.0804 749 102.973 1204.31 509.222
1211 0 60.0363 13.0255 782 104.426 1202.96 506.76
1212 0 64.0456 13.5841 870 103.553 1201.75 505.229
1213 0 65.0344 12.701 826 107.614 1199.77 502.197
1214 0 66.1048 12.3138 814 108.471 1198.55 501.243
1215 0 67.0877 11.6117 779 112.186 1197.5 497.461
1216 0 74.1492 14.5383 1078 104.942 1196.66 494.3
1217 0 74.0989 12.6723 939 109.71 1196.63 491.648
1218 0 77.1476 13.7917 1064 106.659 1196.94 488.851
1219 0 81.0603 13.4838 1093 106.889 1196.48 487.428
1220 1 44.1007 11.8592 523 102.185 1196.23 506.402
1221 0 47.0785 10.4719 493 103.862 1196.98 505.536
1222 0 46.0556 10.8564 500 107.268 1197.22 502.21
1223 0 49.0217 10.6075 520 106.179 1198.18 502.975
1224 0 50.1429 11.3077 567 104.243 1199.16 501.374
1225 0 53.0938 12.638 671 100.621 1201.71 501.189
1226 0 53.0893 12.5637 667 102.084 1202.9 500.886
1227 0 55.0626 12.622 695 103.282 1204.3 499.148
1228 0 56.3079 12.3961 698 104.198 1206.07 501.001
1229 0 58.1855 13.4054 780 102.613 1207.25 502.156
1230 0 60.1524 13.5323 814 103.488 1208.24 500.097
1231 0 62.1196 13.136 816 106.325 1208.93 501.223
1232 0 68.0792 12.6617 862 106.201 1209.17 501.954
1233 0 69.3006 12.9292 896 106.028 1208.97 500.603
1234 0 72.3642 13.3077 963 107.531 1207.95 498.889
1235 1 36.2586 9.87351 358 107.612 1205.7 517.737
1236 0 37.2771 10.9719 409 105.413 1205.01 517.064
1237 0 38.2165 11.0162 421 105.157 1203.55 519.164
1238 0 41.1203 12.6458 520 102.637 1202.53 518.123
1239 0 42.0745 13.4286 565 102.726 1201.7 516.329
1240 0 41.0562 11.1554 458 108.55 1199.43 513.753
1241 0 44.0391 11.5806 510 104.818 1198.16 514.029
1242 0 47.099 12.9515 610 101.607 1197.04 510.851
1243 0 51.0425 12.8912 658 101.105 1196.02 509.248
1244 0 52.0644 12.8687 670 101.806 1195.23 506.446
1245 0 53.0754 13.2453 703 101.863 1195.17 505.314
1246 0 54.0617 13.3181 720 103.843 1194.44 502.35
1247 0 56.0439 13.9177 780 102.483 1194.12 500.276
1248 0 57.0957 12.4878 713 105.666 1195.85 499.248
1249 0 57.0783 13.4377 767 105.396 1195.67 495.997
1250 0 61.0778 13.753 840 104.181 1196.58 496.65
1251 0 62.0662 13.2117 820 103.727 1196.96 497.323
1252 0 64.2826 13.114 843 104.776 1197.34 494.97
1253 0 66.1404 13.305 880 103.657 1200.07 495.465
1254 0 70.1188 13.1919 925 103.474 1201.82 494.829
1255 0 72.1162 13.3812 965 103.399 1204.18 493.789
1256 0 75.2468 13.6617 1028 102.872 1206.13 494.653
1257 0 80.1129 14.5669 1167 103.013 1207.17 492.835
1258 1 40.0414 10.5641 423 106.024 1207.28 514.272
1259 0 44.1237 11.4904 507 101.491 1207.85 515.456
1260 0 44.0419 10.6944 471 106.686 1206.93 513.518
1261 0 48.0974 12.2044 587 103.569 1207 513.734
1262 0 50.116 13.2093 662 101.541 1205.76 512.982
1263 0 50.3154 12.8986 649 102.243 1203.48 511.47
1264 0 54.2072 13.596 737 100.141 1201.45 509.388
1265 0 58.1542 13.3954 779 100.363 1199.69 509.289
1266 0 60.2007 13.6377 821 99.8733 1197.97 505.628
1267 0 63.1668 13.6147 860 99.8767 1196.29 504.123
1268 0 66.2252 13.2578 878 100.29 1195.76 503.036
1269 0 68.1199 15.7223 1071 96.9309 1194.37 498.43
1270 0 70.1224 13.7902 967 101.131 1194.28 497.211
1271 0 72.1867 14.8642 1073 99.0317 1194.32 493.791
1272 0 74.1157 13.7353 1018 103.058 1192.48 490.592
1273 0 78.1497 15.6495 1223 98.8193 1193.1 488.447
1274 0 80.282 14.3494 1152 102.007 1191.91 486.438
1275 0 82.1194 13.6752 1123 103.826 1192.43 483.627
1276 1 44.1241 9.02001 398 101.789 1194.39 506.254
1277 0 46.1674 10.9818 507 100.897 1195.23 502.377
1278 0 49.1546 10.5178 517 98.8511 1196.54 505.34
1279 0 49.1125 11.1581 548 100.495 1198.89 501.845
1280 0 54.1515 12.5758 681 98.0029 1200.91 500.474
1281 0 55.1759 13.4841 744 96.9059 1203.06 498.722
1282 0 57.1013 14.0627 803 96.1183 1204.38 501.736
1283 0 60.094 13.7951 829 97.6634 1205.86 500.027
1284 0 62.1157 13.9256 865 97.6971 1207.29 500.99
1285 0 65.1282 14.5559 948 97.52 1207.29 499.676
1286 0 67.2172 13.687 920 100.503 1205.99 500.339
1287 0 69.1316 13.0042 899 103.02 1205.39 498.464
1288 0 75.0846 13.9975 1051 100.066 1204.34 499.166
1289 0 79.084 13.5299 1070 101.797 1203.05 497.575
1290 1 44.2415 10.081 446 103.807 1202 515.96
1291 0 45.234 10.8547 491 102.896 1201.07 515.167
1292 0 48.1258 13.2777 639 98.9045 1201.41 512.681
1293 0 51.299 12.8852 661 100.12 1200.1 511.374
1294 0 52.1555 12.6736 661 101.455 1198.91 509.036
1295 0 54.1876 13.1211 711 101.255 1197.83 506.952
1296 0 55.2651 14.349 793 99.5864 1197.19 503.931
1297 0 58.1192 14.0917 819 99.7253 1197.26 501.563
1298 0 60.1826 13.1766 793 102.575 1196.19 500.567
1299 0 59.1822 11.473 679 108.339 1194.79 498.784
1300 0 62.0776 12.7743 793 105.488 1195.11 495.391
1301 0 66.0842 14.2091 939 102.016 1195.7 493.059
1302 0 66.0866 13.2705 877 104.951 1196.41 491.901
1303 0 70.053 14.4605 1013 101.906 1197.39 491.058
1304 0 71.071 14.1549 1006 103.224 1198.4 489.913
1305 1 37.005 11.6741 432 103.889 1201.49 505.37
1306 0 38.0174 10.2585 390 106.192 1202.64 505.182
1307 0 42.0538 10.653 448 103 1204.91 506.04
1308 0 43.1112 12.4562 537 100.493 1207.12 506.317
1309 0 43.1074 11.8773 512 102.105 1207.42 507.836
1310 0 46.119 12.858 593 102.853 1208.53 505.583
1311 0 48.1542 13.7683 663 99.5988 1209.51 506.811
1312 0 47.2015 13.8767 655 103.205 1208.89 506.942
1313 0 49.1485 12.7166 625 105.888 1209.23 507.555
1314 0 53.127 13.2513 704 103.293 1209.37 507.786
1315 0 52.2161 11.8546 619 107.517 1208.66 507.46
1316 0 55.1993 13.4422 742 104.685 1206.84 507.209
1317 0 60.1666 14.7756 889 100.539 1205.93 505.931
1318 0 60.1911 12.9421 779 104.231 1205.2 504.962
1319 0 63.299 13.8707 878 102.966 1203.08 501.724
1320 0 64.0854 13.3728 857 106.708 1201.54 498.855
1321 0 68.0706 13.4125 913 105.416 1200.1 497.681
1322 0 72.1167 15.1283 1091 101.684 1199.32 494.212
1323 0 76.1922 13.5053 1029 106.752 1197.87 491.51
1324 1 40.0753 9.43226 378 108.852 1198 509.611
1325 0 40.0391 10.2899 412 110.189 1197.26 506.15
1326 0 42.032 11.5388 485 109.299 1197.54 504.656
1327 0 43.0593 11.4726 494 110.834 1196.89 503.798
1328 0 45.0937 11.9307 538 110.428 1196.46 501.84
1329 0 45.0658 12.2488 552 109.301 1198.41 501.505
1330 0 48.0599 11.5481 555 109.577 1199.58 499.962
1331 0 50.0106 12.6973 635 107.959 1199.96 498.072
1332 0 54.0363 14.5643 787 103.811 1201.54 499.668
1333 0 54.0755 13.851 749 107.413 1203.31 498.047
1334 0 56.0408 15.1318 848 104.483 1204.64 499.761
1335 0 61.1384 14.6716 897 104.672 1207.14 498.809
1336 0 62.1476 14.192 882 106.342 1209.59 499.26
1337 0 66.1618 14.6006 966 105.502 1209.88 499.043
1338 0 68.0457 15.2398 1037 105.051 1210.2 497.964
1339 1 39.1435 10.4232 408 105.944 1210.41 515.931
1340 0 37.0347 9.82862 364 107.673 1209.64 516.288
1341 0 40.1858 10.0782 405 105.546 1208.63 517.746
1342 0 43.0174 10.3679 446 106.217 1207.38 515.955
1343 0 45.1583 12.5558 567 99.8466 1206.45 515.624
1344 0 47.2686 12.2491 579 100.558 1206.5 515.893
1345 0 48.1082 13.4489 647 99.779 1204.47 512.175
1346 0 49.1815 12.7487 627 101.75 1202.97 512.161
1347 0 52.281 13.6187 712 98.9129 1201.38 509.893
1348 0 55.2726 13.5872 751 99.5739 1200.1 506.999
1349 0 54.1219 12.749 690 102.068 1199.38 506.487
1350 0 58.2852 14.858 866 99.9249 1197.34 501.85
1351 0 60.2326 13.315 802 102.448 1196.62 502.141
1352 0 63.3066 14.2007 899 101.18 1196.29 499.942
1353 0 64.1059 14.3668 921 101.733 1196.72 496.121
1354 0 67.1729 13.3238 895 103.684 1197.35 495.154
1355 0 69.0929 14.9509 1033 100.596 1197.86 493.606
1356 0 72.2533 15.155 1095 100.826 1198.16 489.601
1357 0 72.0946 13.5655 978 105.473 1199.44 489.568
1358 0 77.2923 13.9341 1077 103.803 1199.72 489.098
1359 1 40.1889 9.25628 372 104.04 1200.85 509.089
1360 0 43.0713 12.6534 545 100.406 1203.2 507.455
1361 0 44.1247 11.7395 518 103.896 1204.94 506.82
1362 0 47.2311 12.8094 605 102.22 1207.36 506.516
1363 0 49.1308 13.7999 678 100.842 1209.38 507.41
1364 0 50.052 12.7467 638 102.868 1209.65 508.418
1365 0 50.2442 12.5587 631 105.569 1209.5 509.485
1366 0 56.1735 13.0845 735 103.34 1210.28 509.095
1367 0 58.069 12.9157 750 105.769 1209.23 508.687
1368 0 61.4059 14.51 891 102.602 1208.33 508.642
1369 0 63.1553 13.9022 878 104.126 1206.83 508.962
1370 0 67.2973 15.2012 1023 102.92 1205.15 508.107
1371 0 68.4611 14.3877 985 106.349 1203.3 505.581
1372 1 35.2431 10.158 358 105.564 1202.34 523.673
1373 0 38.0359 12.1464 462 104.041 1200.98 518.745
1374 0 42.0955 12.6855 534 101.019 1199.69 517.816
1375 0 42.256 13.7259 580 102.093 1198.14 514.533
1376 0 43.036 12.4547 536 105.588 1196.67 512.806
1377 0 44.0383 13.1249 578 104.592 1196.17 511.905
1378 0 48.0933 15.0957 726 99.0826 1195.36 509.156
1379 0 50.0727 13.9797 700 101.157 1195.34 506.81
1380 0 50.1466 13.0418 654 104.272 1195.52 504.774
1381 0 54.1091 13.5282 732 103.959 1196.13 502.28
1382 0 55.183 13.7905 761 102.451 1196.66 501.382
1383 0 56.0953 14.0653 789 104.03 1197.53 500.616
1384 0 59.1296 13.2928 786 103.084 1198.24 500.396
1385 0 61.2052 14.4759 886 103.033 1199.68 498.42
1386 0 63.3391 14.9197 945 100.761 1201.17 498.949
1387 0 68.2256 14.4667 987 101.148 1203.09 497.654
1388 0 69.1426 14.81 1024 101.602 1206.33 498.741
1389 0 72.1639 14.3424 1035 104.394 1207.71 496.326
1390 0 77.519 15.3124 1187 100.516 1208.49 499.222
1391 1 40.3187 11.6323 469 103.465 1209.45 517.06
1392 0 39.2467 11.7717 462 107.342 1209.43 516.872
1393 0 42.2724 13.2711 561 106.52 1208.92 516.121
1394 0 44.3689 12.5538 557 107.26 1207.67 515.926
1395 0 49.201 14.146 696 101.915 1206.35 516.346
1396 0 47.1558 13.254 625 108.253 1204.94 517.411
1397 0 52.1638 14.627 763 104.81 1202.71 516.438
1398 0 50.1795 13.2524 665 110.928 1201.82 515.88
1399 0 55.3171 15.601 863 105.422 1200.05 511.598
1400 0 58.2282 15.5938 908 104.863 1198.88 511.02
1401 0 61.3151 14.4499 886 105.604 1198.44 510.205
1402 0 63.1867 14.196 897 106.905 1196.23 507.126
1403 1 31.148 9.72776 303 110.04 1196.71 521.442
1404 0 31.1567 11.2977 352 105.216 1195.84 520.611
1405 0 33.1711 11.7874 391 107.898 1195.16 516.494
1406 0 37.354 11.565 432 106.951 1195.02 514.632
1407 0 38.2001 12.8534 491 102.397 1195.19 514.925
1408 0 40.2085 11.888 478 106.889 1196.37 512.577
1409 0 39.2154 12.4696 489 109.127 1196.44 511.607
1410 0 40.0973 14.0907 565 106.069 1197.51 510.34
1411 0 42.0707 14.4281 607 106.163 1197.23 508.764
1412 0 45.0673 13.9125 627 104.858 1198.42 509.488
1413 0 45.0933 13.9045 627 106.858 1198.99 508.152
1414 0 48.1132 15.6506 753 100.756 1201.4 510.287
1415 0 50.1167 15.6036 782 102.491 1203.64 508.45
1416 0 50.1213 15.0834 756 104.712 1205.39 509.487
1417 0 52.0655 14.0976 734 107.865 1205.86 509.256
1418 0 54.1004 14.3437 776 107.791 1206.95 510.21
1419 0 58.1741 14.9551 870 105.522 1207 511.167
1420 0 60.0529 15.8693 953 105.264 1206.4 509.526
1421 0 63.1151 14.83 936 108.381 1205.42 508.749
1422 0 67.1402 14.8048 994 107.649 1204.66 510.591
1423 0 69.1143 15.4527 1068 108.762 1203.28 509.39
1424 1 37.1004 10.6198 394 115.612 1202.18 524.442
1425 0 38.0532 12.4825 475 115.097 1201.09 522.459
1426 0 40.0396 12.9622 519 114.474 1199.75 519.16
1427 0 43.0536 13.7271 591 112.391 1198.52 518.785
1428 0 45.126 15.0468 679 111.555 1197.67 517.43
1429 0 47.0669 16.8059 791 109.027 1196.47 515.116
1430 0 49.1024 14.2967 702 112.671 1195.97 513.652
1431 0 50.0663 15.5194 777 110.78 1195.88 511.417
1432 0 51.1455 16.4628 842 109.659 1195.53 508.931
1433 0 52.0509 16.0036 833 110.814 1196.34 507.777
1434 0 54.1923 15.2051 824 113.356 1196.33 504.665
1435 0 56.1255 15.1446 850 112.824 1195.73 504.136
1436 0 58.0742 16.2034 941 111.007 1195.74 501.519
1437 0 61.1176 16.9509 1036 108.869 1196.71 498.073
1438 0 65.0767 17.4102 1133 105.763 1197.83 499
1439 0 67.1972 14.9262 1003 111.96 1198.53 497.126
1440 0 68.1133 15.9293 1085 111.141 1200.27 496.262
1441 0 72.2668 17.1586 1240 107.123 1202.01 495.681
1442 1 35.0358 12.3873 434 116.435 1203.75 514.77
1443 0 38.1057 14.5385 554 113.412 1205.06 514.363
1444 0 40.0743 13.6247 546 115.894 1205.91 514.454
1445 0 41.0421 16.0323 658 113.047 1208.03 514.404
1446 0 43.12 16.8135 725 111.331 1206.95 514.386
1447 0 47.1279 17.0175 802 110.845 1206.64 513.979
1448 0 46.059 16.0229 738 115.112 1205.54 515.594
1449 0 51.0338 16.1658 825 113.741 1204.24 514.571
1450 0 52.1305 16.3436 852 112.671 1203 514.682
1451 0 57.101 17.4953 999 108.565 1201.55 512.851
1452 0 58.1152 16.777 975 111.167 1200 512.95
1453 0 61.1856 17.1772 1051 109.424 1198.07 510.405
1454 0 63.1221 17.2681 1090 110.284 1197.5 506.788
1455 0 66.1421 17.2507 1141 109.844 1196.9 506.549
1456 0 69.1104 16.7124 1155 112.076 1195.15 502.429
1457 0 71.1529 17.1883 1223 110.759 1194.54 500.43
1458 0 74.1802 17.1744 1274 111.797 1193 498.428
1459 0 79.2666 18.545 1470 108.039 1192.69 495.345
1460 0 82.1366 18.1162 1488 109.027 1192.65 493.655
1461 1 38.21 15.1531 579 120.147 1193.69 509.94
1462 0 41.2656 17.351 716 113.631 1193.95 510.194
1463 0 44.1766 17.8601 789 111.091 1194.61 509.321
1464 0 43.2661 16.9879 735 114.717 1195.71 508.407
1465 0 45.6415 17.0678 779 114.909 1196.7 507.361
1466 0 47.4977 17.285 821 114.442 1197.64 507.987
1467 0 49.4657 17.0623 844 114.519 1199.27 506.153
1468 0 53.2148 18.3972 979 109.837 1201.21 506.72
1469 0 54.2048 18.2456 989 112.024 1203 505.79
1470 0 56.2587 18.9837 1068 111.046 1204.99 505.725
1471 0 60.2179 17.1378 1032 114.281 1206.24 507.484
1472 0 62.246 19.1177 1190 111.343 1206.36 506.155
1473 0 66.3939 18.0288 1197 113.322 1207.36 505.48
1474 0 69.2375 16.5228 1144 117.837 1207.19 506.677
1475 0 72.4368 17.1046 1239 116.759 1206.47 506.589
1476 0 76.2691 16.8482 1285 118.222 1205.41 505.391
1477 1 37.4085 13.4729 504 119.034 1202.92 524.091
1478 0 40.1662 13.4939 542 118.589 1202.12 522.393
1479 0 40.2405 14.4133 580 116.929 1200.78 521.164
1480 0 43.0934 16.1742 697 114.172 1198.51 517.671
1481 0 43.1368 16.6679 719 114.695 1196.94 516.577
1482 0 45.175 14.2114 642 118.966 1195.49 515.298
1483 0 49.1794 15.5756 766 114.604 1195.49 511.413
1484 0 51.1212 16.0403 820 114.561 1195.44 509.555
1485 0 53.3512 17.2442 920 112.927 1195.06 506.243
1486 0 53.4009 16.1608 863 116.373 1195.14 505.168
1487 0 55.5273 15.0376 835 119.049 1194.99 504.235
1488 0 58.1855 14.9522 870 119.297 1195.67 502.706
1489 0 61.1818 15.8707 971 118.28 1195.79 501.64
1490 0 62.4422 16.5433 1033 118.739 1195.4 499.668
1491 0 67.1971 16.5483 1112 116.995 1196.79 499.46
1492 0 67.2617 15.9972 1076 120.332 1198.05 497.925
1493 0 70.3301 15.5126 1091 120.74 1199.64 497.924
1494 1 35.2521 12.283 433 117.753 1202.24 514.483
1495 0 36.0992 11.4407 413 118.712 1204.63 515.337
1496 0 38.3447 11.8921 456 118.094 1206.37 514.798
1497 0 41.1433 13.1492 541 115.495 1207.05 515.667
1498 0 41.063 13.0775 537 119.182 1207.75 515.088
1499 0 44.0352 14.3067 630 115.916 1207.74 516.071
1500 0 46.132 14.5235 670 117.091 1207.56 515.528
1501 0 48.1652 13.599 655 120.07 1206.78 515.618
1502 0 52.1825 14.2577 744 117.731 1205.73 515.657
1503 0 54.1971 13.3771 725 119.844 1204.88 515.552
1504 0 56.229 15.2235 856 117.053 1202.95 514.27
1505 0 58.1517 13.396 779 122.086 1201.37 511.318
1506 1 32.0662 11.4763 368 116.535 1200.34 525.812
1507 0 32.099 12.1188 389 116.686 1198.97 526
1508 0 32.1568 10.4799 337 121.513 1197.55 523.855
1509 0 34.0321 11.019 375 120.344 1196.92 522.091
1510 0 36.0299 12.6007 454 116.808 1196 520.273
1511 0 37.0088 12.7267 471 118.055 1194.73 518.535
1512 0 36.0516 11.8719 428 121.479 1195.37 515.965
1513 0 39.0199 14.2491 556 116.559 1194.51 513.863
1514 0 40.0269 12.7164 509 119.375 1194.53 513.473
1515 0 40.1567 13.273 533 122.69 1194.1 511.062
1516 0 42.3644 13.0062 551 121.015 1194.52 510.893
1517 0 45.1377 14.2896 645 117.433 1194.8 507.888
1518 0 46.2226 13.4783 623 118.387 1196.35 508.124
1519 0 48.0949 14.0555 676 116.717 1196.62 506.754
1520 0 50.1853 12.5734 631 118.732 1198.09 508.309
1521 0 52.3965 13.207 692 117.165 1199.85 506.527
1522 0 52.1959 12.1274 633 121.431 1201.76 506.532
1523 0 55.1762 14.1728 782 117.457 1203.75 505.556
1524 1 32.0532 11.4185 366 116.254 1206.52 519.809
1525 0 31.0047 12.3207 382 118.712 1206.96 520.398
1526 0 34.029 10.9906 374 118.037 1207.79 522.398
1527 0 34.0445 11.5143 392 120.393 1207.96 523.145
1528 0 37.0415 12.7155 471 119.172 1207.7 521.938
1529 0 39.0807 13.5873 531 117.795 1207.19 522.475
1530 0 40.048 13.5088 541 120.224 1206.47 522.259
1531 0 41.2727 13.4471 555 119.897 1204.08 523.605
1532 0 41.3193 13.8434 572 120.766 1202.81 522.862
1533 0 46.171 13.2118 610 121.403 1200.99 520.205
1534 0 46.3306 12.8856 597 122.436 1199.47 518.543
1535 0 48.2272 13.2498 639 120.881 1197.8 517.851
1536 0 50.2412 13.3954 673 119.727 1196.65 516.447
1537 0 53.281 14.264 760 119.307 1196.26 513.772
1538 0 56.1469 13.0372 732 120.224 1196.24 511.522
1539 1 27.0156 11.9561 323 118.443 1196.1 522.69
1540 0 29.095 11.2391 327 120.554 1195.44 520
1541 0 29.0129 10.0989 293 122.918 1195.53 519.468
1542 0 29.0129 10.03 291 149.935 1196.54 519.392
1543 0 32.0083 11.3096 362 121.218 1196.02 515.635
1544 0 35.0635 12.7198 446 117.852 1196.72 515.8
1545 0 34.0508 13.0393 444 121.155 1197.15 513.441
1546 0 38.0904 11.9978 457 122.578 1197.79 513.479
1547 0 39.1076 13.3478 522 118.757 1199.48 514.159
1548 0 37.2718 13.415 500 122.864 1200.5 514.694
1549 0 39.362 12.5756 495 124.606 1202.46 514.956
1550 0 43.3756 14.0632 610 117.954 1203.81 512.633
1551 0 45.4266 13.7805 626 120.633 1205.24 510.927
1552 0 48.4155 13.632 660 120.809 1205.94 511.453
1553 0 48.2162 13.2735 640 124.475 1207.4 510.145
1554 0 51.3375 15.6026 801 117.427 1207.22 511.427
1555 0 53.3965 15.1883 811 119.697 1206.66 511.948
1556 0 56.5197 14.4551 817 121.28 1205.86 511.046
1557 0 60.3276 14.5704 879 122.115 1204.94 510.288
1558 1 33.6852 12.3199 415 121.053 1203.19 524.561
1559 0 33.4619 11.0573 370 126.654 1201.95 523.932
1560 0 35.2972 11.8706 419 125.496 1200.64 522.394
1561 0 35.2778 12.4441 439 127.084 1198.92 518.97
1562 0 38.2411 12.918 494 124.589 1197.33 518.755
1563 0 41.3367 14.2005 587 119.269 1196.77 517.613
1564 0 42.1165 14.08 593 122.386 1195.93 515.577
1565 0 43.2496 14.0811 609 123.821 1194.17 512.851
1566 0 44.3279 14.4604 641 122.956 1193.67 510.463
1567 0 45.2554 14.385 651 124.685 1194.27 507.948
1568 0 48.4562 14.5492 705 122.838 1194.11 506.584
1569 0 49.6027 13.588 674 126.84 1193.67 504.012
1570 0 51.4099 14.9582 769 121.979 1194.23 503.472
1571 0 53.4817 14.9397 799 123.25 1194.38 501.556
1572 0 53.5682 14.0942 755 125.491 1194.89 501.944
1573 0 56.3887 16.1025 908 118.594 1197.35 501.578
1574 0 58.3733 15.3837 898 120.247 1198.01 500.13
1575 0 61.4849 15.76 969 118.65 1199.44 498.83
1576 0 67.4261 21.8461 1473 99.8391 1199.97 493.489
1577 0 67.3256 16.3979 1104 114.856 1202.07 496.311
1578 0 68.3987 16.2138 1109 116.621 1203.12 498.301
1579 0 73.3187 15.1394 1110 116.387 1204.9 500.273
1580 1 37.0243 10.4526 387 119.512 1206.76 518.69
1581 0 40.0174 12.1697 487 114.485 1207.09 518.569
1582 0 40.1005 12.8178 514 111.835 1206.27 516.73
1583 0 42.3649 13.2893 563 111.725 1206.61 518.616
1584 0 44.3928 12.8174 569 112.858 1206.09 518.011
1585 0 43.2433 13.3431 577 110.057 1205.59 520.279
1586 0 46.3535 13.246 614 109.498 1204.01 518.679
1587 0 46.2464 13.3416 617 110.966 1202.75 516.934
1588 0 49.2573 13.6426 672 108.973 1201.23 515.56
1589 0 50.1409 13.8809 696 109.871 1198.09 514.698
1590 0 54.1945 14.042 761 108.674 1196.58 513.427
1591 0 54.1632 14.5671 789 109.118 1195.35 510.768
1592 0 56.2153 14.3022 804 108.192 1194.88 508.58
1593 0 60.1253 14.819 891 106.927 1195.16 506.405
1594 0 60.1998 14.5516 876 108.898 1194.71 503.413
1595 0 62.1811 14.2165 884 109.111 1194.83 500.522
1596 0 67.1867 15.1816 1020 105.29 1195.47 498.122
1597 0 68.216 15.0844 1029 105.212 1196.2 497.397
1598 0 69.2228 13.1171 908 111.031 1197.32 493.924
1599 0 74.3565 16.0981 1197 102.652 1198.43 489.48
1600 1 38.3356 11.7124 449 105.606 1198.55 508.782
1601 0 41.5445 11.8427 492 105.63 1198.49 507.081
1602 0 44.26 11.8391 524 104.489 1199.74 507.277
1603 0 46.5415 12.7413 593 103.145 1200.78 506.314
1604 0 47.5608 11.9216 567 104.171 1202.93 505.543
1605 0 47.4842 13.6466 648 101.426 1205.05 503.98
1606 0 51.3494 13.8268 710 98.0423 1206.95 506.9
1607 0 54.2223 14.3852 780 97.8756 1207.58 509.204
1608 0 55.3723 14.2671 790 99.0127 1207.92 509.266
1609 0 57.2949 13.8581 794 99.6474 1208.39 510.766
1610 0 61.3866 14.6449 899 98.8354 1208.1 509.911
1611 0 62.5168 13.1965 825 102.296 1206.98 509.148
1612 0 64.4676 13.2935 857 102.866 1207.09 509.095
1613 0 69.4908 15.225 1058 98.913 1205.79 504.569
1614 0 71.6048 14.985 1073 98.9711 1203.82 505.625
1615 0 71.3727 14.2772 1019 101.461 1202.42 504.453
1616 1 37.4531 10.9737 411 100.637 1201.82 520.545
1617 0 36.2487 10.3176 374 100.725 1199.69 521.575
1618 0 40.3022 12.2078 492 98.876 1198.15 517.553
1619 0 43.2851 12.0365 521 100.367 1196.77 515.612
1620 0 41.1441 10.7427 442 103.88 1195.63 515.681
1621 0 46.1348 14.0458 648 96.1929 1195.35 511.394
1622 0 45.1272 12.6088 569 100.793 1195.21 510.102
1623 0 49.104 15.1312 743 95.1077 1196.57 508.456
1624 0 49.1399 12.6577 622 100.929 1197 505.83
1625 0 50.2595 12.535 630 100.962 1197.27 505.146
1626 0 53.3748 13.3771 714 97.3627 1197.57 505.615
1627 0 54.2967 14.1813 770 96.426 1197.86 503.045
1628 0 56.062 13.824 775 97.5703 1198.86 502.421
1629 0 58.265 13.6102 793 98.4237 1199.16 500.349
1630 0 61.2176 12.6924 777 98.7503 1200.44 501.407
1631 0 60.2888 13.369 806 99.531 1201.56 501.243
1632 0 65.1383 13.4944 879 96.9306 1204.16 501.75
1633 0 68.1853 13.742 937 96.5208 1205.22 501.482
1634 0 70.2746 14.7422 1036 95.083 1206.77 500.38
1635 0 73.2075 13.8101 1011 97.5618 1207.39 500.989
1636 0 75.3538 15.0623 1135 96.8758 1208.11 497.641
1637 0 79.5269 15.4288 1227 97.8981 1207.51 499.455
1638 0 84.4291 14.6987 1241 100.197 1206.54 497.454
1639 0 87.5928 14.7843 1295 100.412 1205.46 496.344
1640 0 90.6895 14.9852 1359 101.558 1205.63 497.308
1641 1 45.4822 12.0047 546 103.267 1203.32 518.033
1642 0 52.5927 11.6176 611 101.579 1203.2 518.183
1643 0 51.6437 13.0897 676 99.9172 1200.76 516.148
1644 0 53.3372 13.124 700 102.26 1199.24 513.789
1645 0 54.1997 13.8008 748 101.082 1199.04 512.618
1646 0 58.0634 14.622 849 101.786 1197.66 510.265
1647 0 60.1011 15.1245 909 99.6854 1196.34 508.287
1648 0 64.143 14.4833 929 101.53 1195.27 504.668
1649 0 63.2127 14.4749 915 102.998 1195.07 502.991
1650 0 67.2655 14.4502 972 102.479 1195.21 502.606
1651 0 71.4189 14.674 1048 100.993 1195.07 500.527
1652 0 73.3191 14.6483 1074 102.56 1195.44 494.396
1653 0 76.3456 15.9276 1216 100.129 1195.58 492.215
1654 1 38.3453 12.0223 461 105.625 1196.26 508.423
1655 0 38.3744 10.4497 401 110.122 1197.39 508.481
1656 0 40.4789 12.6239 511 105.151 1198.38 508.192
1657 0 42.4171 11.6934 496 106.621 1199.73 506.278
1658 0 45.5119 11.5794 527 104.554 1201.86 507.88
1659 0 46.4993 12.7959 595 102.114 1203.29 508.701
1660 0 48.1791 13.6781 659 102.363 1205.75 508.763
1661 0 53.1362 14.8863 791 99.8925 1207.36 508.7
1662 0 54.1901 15.6671 849 98.8634 1207.54 508.925
1663 0 56.0797 14.0336 787 103.399 1207.55 510.501
1664 0 57.2846 14.7509 845 104.632 1208.29 509.929
1665 0 57.1617 14.4153 824 106.218 1207.5 510.17
1666 0 64.2047 15.0924 969 104.043 1207.46 509.751
1667 0 65.2841 13.9697 912 109.005 1206.71 508.339
1668 0 69.2995 15.1949 1053 106.031 1205.42 509.76
1669 0 72.3186 15.6944 1135 106.412 1203.96 507.042
1670 0 74.2768 15.5769 1157 107.439 1201.85 505.144
1671 0 79.3206 16.427 1303 104.579 1199.65 503.84
1672 0 81.4008 14.9876 1220 108.553 1197.58 501.317
1673 0 85.4101 16.2627 1389 106.344 1196.58 497.648
1674 0 83.3938 13.6701 1140 113.2 1195.3 499.042
1675 1 47.0539 12.7513 600 111.498 1195.68 515.222
1676 0 49.0566 15.8388 777 105.982 1194.47 510.942
1677 0 49.027 13.8087 677 109.75 1194.17 509.354
1678 0 51.1169 14.1832 725 108.772 1193.96 506.015
1679 0 54.0206 14.4575 781 106.481 1194.16 504.303
1680 0 55.1074 14.8982 821 105.235 1194.44 502.303
1681 0 58.1145 15.8136 919 102.152 1194.82 500.201
1682 0 58.1957 15.3963 896 103.333 1195.58 498.019
1683 0 60.1491 14.3477 863 105.36 1195.34 497.445
1684 0 66.0593 16.243 1073 99.0541 1196.43 496.661
1685 0 68.1593 15.273 1041 100.005 1197.33 495.467
1686 0 70.1184 14.5611 1021 101.54 1199.09 495.574
1687 0 70.0588 14.1881 994 103.432 1200.79 494.324
1688 0 75.1698 14.5936 1097 101.335 1203.11 493.033
1689 0 78.1985 14.4376 1129 101.267 1204.38 490.549
1690 0 82.1015 14.75 1211 100.034 1205.6 492.113
1691 1 46.1574 11.9807 553 98.2405 1206.42 511.609
1692 0 49.1741 12.2422 602 95.6694 1206.79 512.834
1693 0 50.135 12.6259 633 96.8262 1206.04 511.556
1694 0 52.083 13.8049 719 95.6509 1205.57 511.024
1695 0 54.1379 12.7637 691 98.314 1203.98 509.954
1696 0 58.1724 13.8554 806 95.6737 1203.54 510.823
1697 0 60.203 14.5674 877 95.1938 1202.74 509.649
1698 0 61.2235 13.2139 809 98.5921 1201.06 507.797
1699 0 64.0909 13.6525 875 96.6994 1200.06 506.872
1700 0 67.2355 14.2038 955 96.7288 1198.99 503.355
1701 0 69.0861 14.8945 1029 95.7191 1197.75 502.151
1702 0 73.1678 13.4485 984 98.4624 1197.03 498.656
1703 0 76.1755 14.4141 1098 97.7277 1196.85 493.814
1704 1 40.1113 9.62323 386 97.4793 1196.79 512.984
1705 0 42.2017 10.9948 464 95.9871 1195.18 509.175
1706 0 43.2555 10.5882 458 96.6463 1195.22 508.95
1707 0 42.118 10.3756 437 98.7918 1195.72 506.346
1708 0 46.1478 11.4848 530 96.1736 1196.65 503.679
1709 0 50.1014 14.311 717 88.9637 1197.48 503.831
1710 0 49.135 12.2927 604 91.2384 1197.67 503.025
1711 0 50.3065 13.1792 663 90.2715 1199.07 502.511
1712 0 52.186 14.1417 738 88.6138 1199.89 501.157
1713 0 55.3073 13.886 768 88.3372 1200.62 501.801
1714 0 54.3598 12.9691 705 91.6312 1202.9 500.257
1715 0 56.2499 12.3734 696 92.8333 1204.79 501.29
1716 0 58.1737 11.5 669 93.1076 1206.73 502.57
1717 0 61.1572 11.5767 708 93.185 1208.56 501.692
1718 0 66.2746 14.2588 945 88.3503 1208.79 501.879
1719 0 71.2436 14.4013 1026 88.2105 1209.36 503.181
1720 0 71.1468 13.184 938 92.3561 1209.37 502.386
1721 0 76.1692 14.8617 1132 90.3754 1208.41 498.962
1722 0 80.109 14.2181 1139 91.3986 1206.45 498.965
1723 1 41.1275 11.3549 467 94.2484 1206.56 517.066
1724 0 45.1794 11.5539 522 93.0249 1204.91 517.753
1725 0 48.1328 12.9018 621 91.4396 1204.17 517.011
1726 0 49.1942 11.3428 558 92.4176 1203.22 517.912
1727 0 50.1084 12.3532 619 93.7868 1200.78 512.801
1728 0 54.0579 13.0046 703 92.7866 1200.86 511.504
1729 0 55.1398 14.164 781 91.1178 1199.22 510.863
1730 0 57.2103 13.5116 773 94.2277 1197.78 505.735
1731 0 59.1221 14.2079 840 93.5464 1196.75 502.944
1732 0 62.1914 14.3107 890 94.7315 1196.01 501.955
1733 0 64.237 14.1352 908 95.37 1195.55 498.32
1734 0 67.2671 13.5579 912 96.0921 1195 496.763
1735 0 70.5987 14.8728 1050 94.3229 1195.9 494.563
1736 0 71.1092 14.2598 1014 95.7268 1196.93 493.739
1737 0 74.3105 14.399 1070 95.0589 1197.05 492.679
1738 0 76.1802 13.9275 1061 96.9548 1198.14 490.398
1739 1 42.2211 12.0082 507 96.1972 1199.26 506.333
1740 0 43.2728 12.2941 532 95.4154 1199.48 506.472
1741 0 45.214 12.7615 577 94.4489 1201.41 505.974
1742 0 46.2263 12.2225 565 94.8124 1203.46 508
1743 0 51.2919 14.2908 733 90.6849 1205.58 507.572
1744 0 51.2131 12.3015 630 97.8159 1207.05 508.316
1745 0 53.3474 14.0775 751 94.7989 1208.17 507.336
1746 0 55.3776 13.2544 734 97.7698 1208.71 508.704
1747 0 55.3099 12.9272 715 99.7091 1209.41 507.361
1748 0 60.1458 14.4815 871 95.4156 1209.48 509.145
1749 0 60.3278 13.2609 800 100.809 1208.77 509.63
1750 0 65.3327 13.546 885 101.306 1207.61 507.514
1751 0 70.2865 15.01 1055 98.1185 1206.99 505.939
1752 0 71.299 14.8389 1058 100.004 1206.13 504.635
1753 0 74.4477 14.8695 1107 99.9169 1204.66 504.836
1754 0 76.3238 14.5302 1109 102.384 1203.26 500.292
1755 0 81.3481 15.3538 1249 99.7158 1201.61 499.225
1756 1 40.3447 10.6829 431 102.777 1201.12 517.452
1757 0 43.2303 10.7101 463 101.495 1199.92 517.184
1758 0 43.1312 11.1288 480 104.04 1198.42 513.627
1759 0 47.0993 11.4651 540 102.589 1198.39 510.97
1760 0 48.1265 13.236 637 99.9121 1196.88 509.088
1761 0 49.0405 13.0504 640 101.32 1197.38 507.258
1762 0 52.0417 14.4499 752 98.1011 1198.1 505.673
1763 0 52.1103 13.7209 715 100.435 1197.53 504.929
1764 0 52.1734 12.401 647 104.029 1198.02 503.298
1765 0 56.0889 14.1204 792 98.5581 1198.05 502.467
1766 0 59.1242 14.4272 853 96.748 1198.81 502.664
1767 0 58.1465 12.5545 730 102.044 1199.31 500.684
1768 0 61.2244 13.7364 841 97.6171 1200.49 500.943
1769 0 64.3708 14.4942 933 95.4116 1201.85 500.426
1770 0 69.2468 14.7732 1023 92.7498 1203.82 500.477
1771 0 69.3296 14.9287 1035 93.83 1204.89 498.528
1772 0 72.1611 13.6639 986 94.9442 1207.43 498.7
1773 1 37.1191 9.24053 343 97.0846 1208.89 516.956
1774 0 40.2015 10.8205 435 95.2092 1209.05 516.922
1775 0 42.1516 11.8145 498 92.0723 1209.59 519.843
1776 0 44.0673 11.1421 491 93.0978 1208.34 519.906
1777 0 46.0352 11.1219 512 93.9199 1207.28 519.01
1778 0 50.1204 12.051 604 92.8692 1206.66 518.182
1779 0 50.0416 12.3897 620 93.3726 1205.03 518.094
1780 0 54.0359 14.3423 775 88.4852 1203.66 515.105
1781 0 57.1798 13.134 751 90.1691 1201.74 514.461
1782 0 59.0848 13.5229 799 89.5594 1200.38 511.547
1783 0 60.1075 12.8936 775 91.0839 1198.25 509.739
1784 0 65.3114 14.561 951 86.8191 1197.55 508.635
1785 0 67.2943 13.7902 928 89.2047 1196.35 506.505
1786 0 68.0772 13.7638 937 89.9829 1195.5 503.836
1787 0 71.1752 13.3895 953 91.5184 1195.55 499.14
1788 0 74.3054 14.9518 1111 88.1521 1195.85 498.444
1789 0 77.1023 14.2538 1099 89.7343 1195.13 494.577
1790 1 39.149 11.2647 441 87.0386 1195.22 514.717
1791 0 41.0575 10.5949 435 89.092 1195.35 511.028
1792 0 43.229 10.7567 465 88.5441 1195.73 511.054
1793 0 44.332 11.7974 523 87.7304 1195.99 508.541
1794 0 46.1136 12.274 566 86.295 1197.29 507.537
1795 0 47.2386 11.9394 564 84.7199 1198.66 508.053
1796 0 51.1632 12.4699 638 83.5517 1200.66 508.423
1797 0 52.1107 12.9532 675 83.157 1201.33 508.496
1798 0 55.1449 12.4399 686 83.6968 1203.35 507.724
1799 0 56.0325 13.742 770 82.5753 1204.48 506.657
1800 0 58.1528 14.3587 835 81.285 1205.21 508.273
1801 0 63.2856 14.2212 900 82.3844 1206.14 504.982
1802 0 64.2649 12.6974 816 85.3358 1206.14 506.417
1803 1 34.2523 8.99211 308 88.2922 1206.1 523.331
1804 0 38.1879 10.6055 405 85.2518 1206.53 521.731
1805 0 39.0797 11.2846 441 85.3129 1203.63 522.456
1806 0 41.0859 13.2892 546 85.2308 1202.49 521.253
1807 0 42.1276 13.3167 561 85.8913 1201.55 519.255
1808 0 44.2283 12.4355 550 86.3727 1201.51 519.327
1809 0 45.3097 13.9043 630 85.3778 1199.48 515.567
1810 0 48.266 13.9228 672 85.0149 1198.82 515.936
1811 0 47.2367 12.6385 597 89.1776 1197.5 512.102
1812 0 52.3044 14.7597 772 86.8549 1197.13 511.164
1813 0 54.2984 13.5916 738 88.8577 1196.69 508.851
1814 0 54.4577 12.7071 692 92.0144 1196.27 505.507
1815 0 57.2991 15.4278 884 86.7704 1196.53 503.426
1816 0 57.2119 11.169 639 95.3208 1196.59 501.515
1817 0 59.2806 14.3723 852 89.1866 1197.33 499.939
1818 0 61.3219 13.9102 853 89.6893 1198.12 499.063
1819 0 65.2458 14.1005 920 87.8794 1198.34 497.283
1820 0 66.5612 13.3862 891 89.569 1199.37 496.878
1821 0 68.4099 13.4776 922 90.667 1199.89 494.658
1822 0 70.4424 12.9893 915 91.8448 1201.77 495.069
1823 1 43.3101 3.39413 147 49.068 1198.41 506.571
1824 0 40.3678 11.5686 467 89.4925 1205.45 513.169
1825 0 41.1942 12.2347 504 89.9226 1207.13 513.47
1826 0 39.2358 11.4691 450 93.2533 1209.58 512.773
1827 0 45.2341 12.8885 583 89.6569 1209.97 512.935
1828 0 48.4402 13.9347 675 88.8518 1211.55 512.419
1829 0 48.3454 14.0448 679 89.9735 1211.87 512.536
1830 0 50.4325 13.3049 671 92.2101 1211.26 513.991
1831 0 53.2328 13.9388 742 89.8518 1210.21 514.42
1832 0 55.3022 15.3701 850 88.0576 1209.17 511.628
1833 0 53.3394 13.1048 699 95.2074 1207.75 511.162
1834 0 58.2055 13.0228 758 94.0541 1206.31 511.875
1835 0 58.0643 13.7606 799 93.8548 1206.07 509.434
1836 0 60.1685 13.645 821 93.7259 1204.12 506.565
1837 0 64.1515 15.214 976 90.5861 1203.13 504.149
1838 0 67.2484 15.0784 1014 90.9892 1202.36 502.519
1839 0 69.1695 13.4019 927 94.5221 1201.47 500.816
1840 0 71.1405 13.8599 986 94.1998 1200.32 496.36
1841 0 76.2477 15.6333 1192 90.047 1199.56 494.138
1842 1 41.08 11.9036 489 92.1636 1199.3 510.89
1843 0 42.0924 10.6908 450 93.26 1199.4 510.189
1844 0 44.0287 12.4919 550 92.7309 1199.15 506.02
1845 0 47.141 12.4308 586 92.4147 1199.04 504.954
1846 0 45.0829 12.3106 555 96.0108 1199.33 501.798
1847 0 50.0465 14.2468 713 89.1136 1200.43 501.328
1848 0 53.1725 13.917 740 89.6338 1200.11 500.522
1849 0 54.0606 13.5403 732 90.8197 1201.54 500.514
1850 0 57.0555 14.9854 855 86.6328 1201.72 499.68
1851 0 58.1094 15.075 876 86.911 1202.45 498.991
1852 0 58.0754 14.2229 826 89.0194 1204.11 499.745
1853 0 62.0387 14.7489 915 87.1049 1206.36 500.519
1854 0 64.1596 14.6821 942 87.3514 1208.34 500.899
1855 0 68.0646 14.6332 996 87.0643 1209.58 499.156
1856 0 71.0817 14.5748 1036 86.1226 1209.96 500.038
1857 0 74.2271 14.7385 1094 84.6499 1209.15 501.931
1858 0 78.0715 13.6157 1063 87.9294 1209.16 499.519
1859 0 81.099 15.6969 1273 84.2372 1208.63 497.957
1860 1 43.111 10.9485 472 85.8686 1207.47 518.589
1861 0 46.2738 12.2315 566 84.7102 1206.76 517.77
1862 0 45.0979 12.4174 560 85.4875 1204.55 516.28
1863 0 49.1626 12.9977 639 84.5133 1203 516.368
1864 0 51.0911 13.7793 704 85.294 1200.81 512.734
1865 0 53.1058 12.8611 683 86.9693 1199.45 512.105
1866 0 57.143 14.9275 853 83.4361 1197.81 508.856
1867 0 56.1005 12.9054 724 88.0815 1197.56 506.847
1868 0 58.0651 13.106 761 87.8568 1196.83 503.917
1869 0 60.1947 13.9381 839 86.7759 1196.75 500.304
1870 0 62.1782 13.204 821 88.1839 1196 498.503
1871 0 66.1549 14.6474 969 84.9051 1195.67 498.047
1872 0 69.1394 14.0441 971 86.0227 1195.71 494.447
1873 0 70.1723 15.0629 1057 85.9404 1195.93 489.523
1874 0 73.3014 14.9793 1098 85.9244 1196.23 489.882
1875 0 75.3067 12.6018 949 90.6101 1197.28 488.411
1876 1 38.0824 9.55823 364 88.9203 1197.5 508.621
1877 0 41.1067 10.7282 441 89.3356 1199.12 506.088
1878 0 41.0943 11.3154 465 88.5075 1200.5 506.843
1879 0 45.1795 12.0187 543 86.7348 1202.19 505.814
1880 0 46.1486 11.8747 548 85.3759 1204.05 506.923
1881 0 47.0546 12.9849 611 85.9984 1204.98 505.072
1882 0 49.0344 13.2152 648 85.5602 1207.1 507.196
1883 0 50.1778 12.9539 650 87.7369 1208.25 506.368
1884 0 53.0588 14.7384 782 85.0486 1209.23 508.659
1885 0 54.1376 13.9829 757 87.5931 1210.13 507.248
1886 0 57.1411 12.9329 739 89.5426 1209.4 506.885
1887 0 59.0538 13.293 785 88.9847 1208.33 507.876
1888 0 61.1262 14.6091 893 88.1064 1207.09 505.097
1889 0 64.1145 12.5869 807 92.1227 1205.83 505.406
1890 0 66.0881 14.0267 927 90.534 1204.14 503.575
1891 0 69.1615 14.618 1011 89.9189 1202.85 503.518
1892 0 73.1057 12.7213 930 93.8441 1200.87 499.982
1893 0 74.1222 14.0444 1041 92.3247 1200.14 496.423
1894 0 77.4558 13.143 1018 94.389 1198.78 495.098
1895 0 80.2693 14.551 1168 93.3938 1198 491.785
1896 0 84.1525 15.3293 1290 92.2667 1197.2 490.176
1897 0 85.1942 13.5573 1155 96.8935 1196.74 486.984
1898 0 89.2343 14.8822 1328 94.6619 1196.57 484.871
1899 0 92.2604 15.001 1384 94.5087 1196.44 481.676
1900 0 97.321 13.8305 1346 96.0163 1196.83 479.135
1901 0 100.341 13.9923 1404 95.7058 1196.94 476.062
1902 0 103.266 14.2836 1475 94.9905 1197.15 473.506
1903 0 107.369 14.3151 1537 95.3409 1198.67 471.658
1904 0 112.156 13.5882 1524 96.5236 1199.26 471.271
1905 1 59.1245 10.6555 630 95.1444 1200.61 496.9
1906 0 64.0767 10.9868 704 96.4418 1202.6 493.188
1907 0 69.1091 14.7882 1022 88.5274 1204.97 494.147
1908 0 69.0916 12.3604 854 91.0328 1206.44 495.56
1909 0 71.1005 11.8283 841 94.8204 1207.43 494.837
1910 0 77.1002 13.1387 1013 91.9793 1209.38 494.046
1911 0 79.1919 13.9408 1104 90.9248 1210.33 493.42
1912 0 83.1685 13.7432 1143 90.7218 1210.67 495.861
1913 0 87.0895 13.377 1165 93.6738 1209.98 492.76
1914 1 49.041 10.0324 492 95.0325 1209.34 513.906
1915 0 50.0391 13.0498 653 89.6018 1209.05 514.308
1916 0 51.0507 10.3231 527 95.1954 1207.26 515.586
1917 0 53.0373 14.009 743 91.253 1206.25 513.538
1918 0 56.0294 12.4756 699 94.4263 1204.65 512.326
1919 0 58.0791 13.8776 806 92.3375 1203.74 511.38
1920 0 60.085 14.6792 882 91.1474 1202.02 511.088
1921 0 62.0643 12.4709 774 96.8501 1200.98 506.848
1922 0 64.1668 12.1558 780 97.4923 1200.61 506.286
1923 0 68.1257 14.0476 957 95.5423 1197.2 502.387
1924 0 71.0969 13.2917 945 96.9767 1195.98 501.013
1925 0 72.0593 14.2383 1026 98.0331 1195.67 496.439
1926 0 74.1144 13.1149 972 101.418 1195.12 496.276
1927 1 40.0286 9.06851 363 103.804 1196.08 513.468
1928 0 42.0152 9.97259 419 105.234 1196.31 510.057
1929 0 45.0721 11.0933 500 100.664 1196.96 508.39
1930 0 45.0716 12.0475 543 101.549 1197.24 507.634
1931 0 46.1562 12.436 574 102.777 1197.59 506.005
1932 0 49.0467 12.9469 635 102.643 1198.06 506.049
1933 0 51.2296 14.0153 718 97.766 1197.32 506.134
1934 0 50.2764 12.491 628 103.951 1198.79 504.522
1935 0 52.1986 12.5482 655 102.511 1200.51 506.693
1936 0 56.219 14.9772 842 95.4988 1201.86 507.207
1937 0 56.2054 12.9347 727 101.33 1203.78 505.849
1938 0 57.1249 14.9497 854 98.5457 1205.43 506.334
1939 0 59.1568 14.3179 847 99.9433 1207.28 508.064
1940 0 63.4016 14.8103 939 98.4494 1206.75 507.174
1941 0 64.1198 14.4105 924 101.434 1207.42 507.712
1942 0 70.1235 14.7169 1032 99.4612 1206.48 507.284
1943 0 71.151 14.3638 1022 101.716 1205.25 506.478
1944 0 75.2522 15.1092 1137 99.9806 1204.84 505.909
1945 1 42.0834 10.9307 460 102.233 1203.94 525.18
1946 0 44.126 11.5578 510 103.261 1202.33 521.122
1947 0 44.097 12.3364 544 103.263 1200.54 517.87
1948 0 46.1162 11.9914 553 104.168 1199.22 517.141
1949 0 50.2675 13.9454 701 99.4023 1196.52 515.218
1950 0 52.2702 14.2146 743 98.8856 1195.5 512.696
1951 0 54.0634 15.0194 812 96.9027 1194.43 511.326
1952 0 54.0714 13.4822 729 102.292 1193.06 509.771
1953 0 57.2076 13.3898 766 101.077 1192.01 505.894
1954 0 60.0906 13.8957 835 99.2527 1192.34 504.782
1955 0 61.0974 15.5326 949 97.5047 1191.42 501.679
1956 0 64.2666 13.9419 896 100.023 1191.7 499.917
1957 0 66.2339 13.1957 874 101.429 1192.91 497.693
1958 0 69.313 15.3074 1061 96.6532 1193.98 495.547
1959 0 70.202 14.5153 1019 100.153 1194.99 492.766
1960 0 74.1046 14.4525 1071 100.016 1195.97 495.846
1961 0 76.0916 15.1002 1149 99.611 1196.83 493.161
1962 0 80.2624 15.9352 1279 97.5106 1198.11 492.239
1963 1 42.0767 8.38943 353 106.195 1199.5 510.788
1964 0 44.2435 10.4422 462 102.494 1200.56 510.985
1965 0 45.0974 11.5749 522 103.148 1202.38 510.46
1966 0 48.0386 13.7389 660 99.7939 1203.7 510.926
1967 0 49.1336 13.3107 654 101.474 1205.15 512.09
1968 0 52.0944 14.1666 738 99.9946 1206.24 512.138
1969 0 53.202 12.8379 683 104.366 1205.25 512.674
1970 0 55.1646 13.7226 757 103.705 1205.29 512.458
1971 0 59.1462 15.1151 894 100.897 1204.67 511.186
1972 0 60.1665 14.0776 847 104.58 1203.3 510.791
1973 0 63.1952 14.8745 940 103.517 1201.76 508.936
1974 0 67.2577 14.214 956 104.669 1199.87 507.299
1975 0 68.3452 15.0413 1028 103.896 1198.06 507.044
1976 0 71.1336 14.0299 998 108.141 1196.2 503.559
1977 0 75.1141 14.6044 1097 105.681 1195.01 502.916
1978 1 39.048 10.4231 407 107.029 1193.74 518.531
1979 0 39.0897 9.92588 388 107.57 1193.3 516.781
1980 0 40.1375 11.5603 464 108.942 1193.12 514.228
1981 0 42.1082 11.1855 471 106.673 1192.45 512.204
1982 0 43.1314 12.6358 545 106.206 1192.3 509.628
1983 0 46.0782 11.6975 539 107.119 1192.99 508.065
1984 0 47.1028 12.9716 611 105.198 1193.65 505.768
1985 0 51.1857 13.0114 666 103.492 1194.31 505.553
1986 0 49.1308 12.9858 638 103.716 1195.63 504.387
1987 0 53.1227 14.0053 744 99.5255 1196.74 504.507
1988 0 53.2828 13.1562 701 104.424 1196.66 502.096
1989 0 55.2441 13.4494 743 102.965 1198.16 501.791
1990 0 58.1415 14.0175 815 100.409 1199.36 499.512
1991 0 61.1203 13.9724 854 99.5023 1200.6 501.125
1992 0 63.1223 13.7036 865 98.9526 1203.29 499
1993 0 67.1443 13.5827 912 97.239 1203.93 502.339
1994 0 68.1975 13.1823 899 99.4616 1204.53 500.702
1995 0 73.2642 13.9359 1021 98.0568 1205.37 497.494
1996 0 74.4769 12.1514 905 101.187 1205.17 497.777
1997 0 77.5328 13.7103 1063 98.1703 1204.75 498.636
1998 0 80.3581 13.4523 1081 98.9926 1204.01 496.233
1999 0 84.3178 13.1526 1109 99.1785 1203.16 493.777
2000 0 88.4538 13.6908 1211 97.7638 1201.75 494.065
2001 1 48.2271 10.9067 526 99.1274 1201.11 514.19
2002 0 51.1817 12.3872 634 96.295 1200.3 513.325
2003 0 54.0855 11.5928 627 97.0207 1198.87 511.354
2004 0 55.0675 13.4925 743 95.8546 1198.34 507.795
2005 0 57.0784 12.842 733 97.7531 1197.15 506.415
2006 0 57.0552 12.1987 696 101.239 1195.58 503.624
2007 0 61.1113 12.8454 785 98.479 1195.95 504.917
2008 0 64.2322 14.4476 928 96.1616 1195.36 498.783
2009 0 65.17 12.6285 823 100.979 1195.63 497.416
2010 0 68.2388 13.8777 947 99.0834 1195.66 495.211
2011 0 71.0893 14.1794 1008 97.5764 1195.78 493.832
2012 0 74.2884 15.1841 1128 96.1152 1196.47 491.445
2013 0 76.1344 14.0016 1066 98.7101 1197.42 488.837
2014 0 79.1175 13.7643 1089 100.03 1197.33 488.456
2015 0 80.0823 13.4362 1076 101.796 1197.1 487.414
2016 1 44.1092 11.8116 521 100.242 1198.11 506.083
2017 0 46.0921 13.0608 602 96.7326 1199.93 506.55
2018 0 48.0988 12.1625 585 98.2667 1201.08 506.323
2019 0 49.1003 12.2606 602 99.2708 1202.06 505.374
2020 0 51.1398 15.0763 771 93.3852 1204.52 507.479
2021 0 53.1989 14.474 770 94.0935 1206.12 507.231
2022 0 54.1042 12.2541 663 98.1327 1206.43 507.551
2023 0 56.1912 14.6108 821 94.4154 1206.53 508.464
2024 0 57.0497 13.1289 749 96.6929 1206.36 509.068
2025 0 60.0994 13.6108 818 96.6174 1205.69 507.09
2026 0 63.1464 14.9652 945 94.3936 1204.95 506.202
2027 0 67.2876 15.2926 1029 93.5238 1203.87 505.856
2028 0 69.1886 15.5228 1074 93.9413 1202.42 503.75
2029 0 71.2454 14.2185 1013 97.1412 1200.96 504.109
2030 0 74.1276 15.4328 1144 95.6276 1199.34 500.283
2031 0 78.2716 14.7691 1156 95.9014 1197.28 497.395
2032 0 81.422 16.3469 1331 93.2938 1196.22 495.48
2033 0 83.3232 14.7618 1230 97.0935 1195.4 490.559
2034 1 46.4125 11.3763 528 101.239 1193.6 508.816
2035 0 49.2588 13.6219 671 95.8092 1194.5 505.294
2036 0 49.1879 13.4586 662 99.0559 1193.9 502.941
2037 0 52.1287 14.0038 730 98.2493 1193.47 500.264
2038 0 55.3256 14.8214 820 95.2598 1193.37 500.626
2039 0 57.2821 15.0658 863 95.5434 1193.88 498.791
2040 0 60.1961 14.6023 879 96.1001 1194.41 496.561
2041 0 60.3166 13.6944 826 99.4249 1194.92 494.473
2042 0 61.2018 14.8525 909 97.165 1196.1 494.209
2043 0 64.1856 13.4454 863 99.5075 1196.89 492.579
2044 0 67.1751 14.8418 997 96.8325 1198.29 493.456
2045 0 70.1237 15.9005 1115 95.6206 1200.46 493.09
2046 0 74.1701 15.4645 1147 96.2345 1202.44 493.4
2047 0 76.1361 14.8681 1132 97.4691 1204.86 492.875
2048 0 80.126 15.8625 1271 96.8025 1205.88 493.724
2049 0 84.0956 15.09 1269 98.3128 1207.42 494.564
2050 0 85.0992 15.2293 1296 100.581 1208.39 493.784
2051 0 90.1048 17.0246 1534 97.8351 1208.24 493.663
2052 0 94.1572 14.8263 1396 103.803 1207.86 492.769
2053 0 99.1205 16.3135 1617 100.094 1205.55 493.678
2054 1 53.0658 10.4776 556 109.219 1204.43 516.928
2055 0 58.1108 12.6655 736 104.72 1203.48 515.679
2056 0 60.1085 12.7436 766 105.595 1201.85 514.664
2057 0 63.0774 13.8719 875 103.555 1200.25 511.017
2058 0 65.1184 13.1453 856 105.396 1198.57 507.898
2059 0 69.098 14.2406 984 102.377 1198.27 505.958
2060 0 70.1554 13.912 976 104.834 1196.72 502.774
2061 0 73.2733 13.7021 1004 104.566 1196.35 501.572
2062 0 77.2006 14.8704 1148 101.829 1195.67 499.613
2063 0 80.3062 13.8346 1111 104.528 1195.17 497.227
2064 0 82.5319 13.4736 1112 106.504 1194.59 491.709
2065 0 87.2765 14.6087 1275 103.011 1195.42 492.05
2066 0 90.3639 14.4969 1310 103.334 1194.92 488.241
2067 0 94.5891 15.8158 1496 99.986 1195.22 487.533
2068 0 95.3783 15.8317 1510 101.001 1195.65 482.697
2069 0 101.317 15.7723 1598 100.108 1195.56 482.984
2070 0 105.569 14.0571 1484 103.443 1195.74 480.133
2071 1 55.1699 9.78794 540 100.185 1196.43 505.591
2072 0 59.3768 11.4354 679 96.0353 1197.72 507.041
2073 0 61.2448 11.6092 711 94.9986 1200.08 507.419
2074 0 66.3339 12.1205 804 93.8097 1201.24 505.99
2075 0 64.6231 11.745 759 96.4848 1202.62 504.742
2076 0 68.273 13.49 921 93.3246 1203.28 504.173
2077 0 74.3535 12.9651 964 92.723 1204.06 504.24
2078 0 77.5329 12.6656 982 93.664 1204.79 505.85
2079 0 79.4152 12.7432 1012 94.6808 1203.94 503.233
2080 0 83.2616 12.3106 1025 95.4868 1202.78 502.312
2081 0 87.4063 13.5917 1188 93.5109 1202.05 501.088
2082 0 91.3187 13.0641 1193 95.0117 1200.29 498.262
2083 1 48.2632 8.97163 433 94.5935 1199.05 520.568
2084 0 51.3888 8.5038 437 95.1808 1198.24 519.728
2085 0 56.2331 11.15 627 91.37 1197.04 515.321
2086 0 58.3522 10.7622 628 91.6385 1195.19 514.412
2087 0 61.1931 13.3675 818 86.2677 1193.73 510.925
2088 0 64.2084 11.8832 763 88.6265 1192.94 510.041
2089 0 63.2198 9.71215 614 92.816 1192.39 507.072
2090 0 65.2406 10.5762 690 92.3478 1191.24 502.568
2091 0 69.21 12.4693 863 88.314 1191.09 501.95
2092 0 72.348 12.1911 882 91.5374 1192.15 495.527
2093 0 74.4446 13.4328 1000 89.62 1191.75 493.172
2094 0 76.4624 13.7061 1048 89.9284 1193.01 491.451
2095 0 80.37 12.43 999 91.5506 1193.14 488.614
2096 1 42.3463 9.11532 386 90.899 1193.8 509.586
2097 0 42.1597 8.51525 359 93.9025 1195.55 507.783
2098 0 44.4359 12.3999 551 87.9891 1196.28 506.165
2099 0 47.4576 10.7464 510 91.2216 1197.26 505.696
2100 0 47.1895 12.0578 569 90.6011 1198.96 505.65
2101 0 51.2975 12.8271 658 86.5 1200.85 505.088
2102 0 49.3223 9.73191 480 93.625 1203.19 507.194
2103 0 50.2584 11.998 603 91.6352 1205 505.428
2104 0 53.2974 12.9087 688 89.7267 1207.04 504.84
2105 0 54.3131 11.9308 648 92.0664 1207.99 506.571
2106 0 55.2787 12.247 677 91.9025 1208.77 507.446
2107 0 59.2025 11.9927 710 93.231 1208.21 505.201
2108 0 61.1851 12.0781 739 94.4844 1206.75 507.216
2109 0 62.1966 12.0585 750 94.82 1206.04 506.635
2110 0 65.2289 13.1077 855 93.8222 1205.01 506.184
2111 0 68.2908 13.3986 915 93.6011 1204.32 506.474
2112 0 70.2526 13.6792 961 92.9594 1203.17 506.607
2113 0 73.1459 13.9584 1021 93.666 1201.75 504.623
2114 0 75.1405 13.894 1044 94.3726 1200.89 502.943
2115 0 78.1769 13.6869 1070 94.6598 1200.1 500.601
2116 0 79.1917 14.2439 1128 94.9415 1198.43 497.643
2117 0 83.2218 14.8999 1240 92.9782 1196.79 495.709
2118 0 85.2117 14.3173 1220 94.441 1196.61 492.958
2119 1 46.0548 11.204 516 97.7539 1197.04 510.11
2120 0 47.105 10.3598 488 97.4795 1197.43 508.598
2121 0 49.2298 9.83144 484 93.688 1197.39 507.99
2122 0 49.1755 11.1844 550 94.1509 1197.67 504.218
2123 0 50.1414 11.7468 589 96.5263 1198.01 504.216
2124 0 53.2405 14.2373 758 91.161 1198.64 501.855
2125 0 56.1723 13.1382 738 90.8523 1199.28 502.892
2126 0 55.2556 12.6684 700 92.4557 1200.12 500.627
2127 0 59.1859 14.5136 859 88.9569 1199.92 500.44
2128 0 59.3198 14.2785 847 89.9658 1200.23 498.638
2129 0 64.3326 14.596 939 89.0479 1202.42 497.595
2130 0 65.2745 14.4007 940 89.4138 1203.96 499.724
2131 0 64.1891 14.1301 907 92.0044 1204.69 498.975
2132 0 68.2873 15.0687 1029 90.5986 1207.1 498.097
2133 0 71.3099 14.0794 1004 92.4612 1208.41 500.77
2134 0 75.2224 13.8124 1039 93.2714 1208.51 500.27
2135 0 76.1131 15.1748 1155 92.6606 1209.04 499.279
2136 1 41.1245 12.0366 495 95.9677 1208.8 517.527
2137 0 41.0071 9.2423 379 100.567 1207.59 520.704
2138 0 44.012 10.1563 447 98.6756 1205.26 521.669
2139 0 44.0126 11.4058 502 100.452 1204.11 519.432
2140 0 46.0336 12.7081 585 96.9914 1202.95 519.25
2141 0 47.0898 12.4231 585 92.0632 1201.85 519.251
2142 0 46.1267 12.4874 576 93.8993 1201.3 518.965
2143 0 48.0932 13.7441 661 88.3601 1200.36 517.961
2144 0 50.0996 12.8544 644 91.2376 1199.86 516.25
2145 0 47.0904 11.4885 541 95.6026 1198.32 514.641
2146 0 49.0718 14.7946 726 89.6928 1197.55 512.718
2147 0 49.0796 13.1623 646 91.4814 1197.49 511.834
2148 0 49.1219 13.3138 654 92.5443 1196.54 509.732
2149 0 49.0822 12.367 607 96.201 1196.52 509.161
2150 0 49.0991 12.2609 602 96.8073 1196.38 508.545
2151 0 49.0789 13.1828 647 94.6368 1196.04 506.519
2152 0 50.1131 13.9285 698 93.3209 1195.9 504.514
2153 0 51.1069 13.8533 708 92.4576 1196.38 506.148
2154 0 50.1064 14.1299 708 92.041 1196.23 504.21
2155 0 49.0857 11.2253 551 97.5572 1196.44 505.18
2156 0 51.0687 13.1196 670 92.4776 1198.62 504.697
2157 0 49.0192 12.6277 619 93.9208 1201.24 505.047
2158 0 50.0834 12.8985 646 92.8065 1202.51 506.771
2159 0 51.1386 14.2554 729 90.1427 1204.43 507.045
2160 0 49.1776 13.1767 648 94.2407 1205.61 507.699
2161 0 49.0501 12.4566 611 93.0033 1207.41 509.393
2162 0 52.0765 14.2099 740 87.7257 1208.2 511.572
2163 0 48.1189 12.5522 604 93.4818 1208.75 513.258
