time division length width area intensity CMx CMy
0 0 27.1524 9.31779 253 124.613 1045.22 504.522
1 0 28.2581 11.3242 320 119.297 1046.12 503.531
2 0 28.092 9.64687 271 126.314 1046.32 503.317
3 0 28.0105 10.8174 303 118.828 1046.46 503.63
4 0 30.076 11.6372 350 117.489 1047.06 502.651
5 0 31.1269 11.3728 354 116.056 1046.51 504.28
6 0 30.2902 11.6539 353 118.439 1045.93 503.011
7 0 32.1255 12.4823 401 112.017 1047.03 501.214
8 0 31.1115 12.4391 387 117.209 1045.11 502.098
9 0 31.1398 12.2673 382 116.126 1045.6 501.05
10 0 32.0609 12.4451 399 115.424 1045.49 501.449
11 0 32.2182 14.4639 466 110.058 1045.42 501.294
12 0 33.145 13.7577 456 111.458 1046.04 501.711
13 0 34.1723 13.11 448 111.433 1045.98 500.815
14 0 33.2758 13.2529 441 113.912 1046.21 501.243
15 0 34.063 13.2695 452 112.569 1044.98 501.741
16 0 35.162 13.1676 463 111.317 1045.24 501.976
17 0 37.0888 13.4542 499 112.501 1045.26 500.022
18 0 36.1458 14.8841 538 111.247 1045.43 499.322
19 0 38.1355 13.9503 532 111.549 1045.45 500.28
20 0 39.0617 14.6179 571 110.172 1044.92 499.848
21 0 40.1358 13.7782 553 113.213 1045.68 499.165
22 0 39.0748 14.613 571 112.518 1047.18 498.476
23 0 40.0615 14.7024 589 114.007 1047.12 497.348
24 0 43.1711 13.8055 596 112.945 1047.38 498.05
25 0 43.1059 14.5456 627 111.963 1047.29 497.126
26 0 45.1783 14.808 669 111.607 1048.34 497.058
27 0 45.3058 14.0159 635 113.997 1048.62 496.268
28 0 46.0711 14.2823 658 113.602 1048.77 495.081
29 0 48.1401 13.98 673 111.842 1047.62 494.911
30 0 50.2 15.9363 800 107.445 1047.4 493.222
31 0 50.0201 13.8544 693 111.361 1047.45 493.854
32 0 50.2119 14.3193 719 111.07 1047.27 492.36
33 0 53.1327 15.6401 831 106.919 1047.89 490.451
34 0 56.0783 15.0861 846 107.353 1047.84 489.387
35 0 57.1237 15.2826 873 108.087 1047.96 490.179
36 0 59.0453 16.97 1002 105.164 1048.2 488.455
37 0 59.2272 14.0307 831 111.036 1048.19 489.622
38 0 63.0508 16.0664 1013 105.943 1048.49 488.559
39 0 64.2385 15.1778 975 108.926 1048.67 486.938
40 0 65.1464 15.4575 1007 107.685 1049.27 486.928
41 0 69.1992 16.0695 1112 106.56 1049.02 484.902
42 0 70.1001 15.5634 1091 107.507 1049.47 484.652
43 0 73.0997 15.8277 1157 106.92 1049.2 483.736
44 0 76.1558 15.3501 1169 107.892 1049.1 484.722
45 0 79.2426 18.2604 1447 102.326 1049.73 482.849
46 1 41.0242 14.1136 579 107.25 1050.18 501.316
47 0 43.0414 13.9865 602 108.136 1050.37 500.53
48 0 42.0127 13.5911 571 109.245 1050.16 502.023
49 0 46.0242 15.6005 718 106.919 1049.96 498.182
50 0 45.0581 14.2039 640 108.855 1049.06 498.081
51 0 46.0907 15.9685 736 106.783 1049.73 497.64
52 0 51.1711 16.0833 823 102.625 1049.45 499.296
53 0 51.1185 15.9042 813 104.322 1049.65 497.691
54 0 53.0976 15.0854 801 105.923 1049.81 496.628
55 0 52.0204 13.8792 722 110.204 1050 495.798
56 0 57.0759 15.5758 889 106.249 1049.93 494.45
57 0 56.0534 16.1096 903 107.456 1049.79 493.761
58 0 59.1038 14.9737 885 110.452 1049.37 493.148
59 0 63.0739 15.9178 1004 108.946 1049.54 490.505
60 0 64.1247 16.733 1073 107.745 1050.17 489.251
61 0 65.2377 15.4512 1008 110.546 1050.13 488.27
62 0 68.0642 15.7351 1071 108.556 1050.31 487.815
63 0 72.1763 15.5868 1125 110.042 1051.2 486.452
64 0 74.1446 16.3195 1210 109.365 1050.56 485.255
65 0 76.1416 16.5481 1260 110.456 1050.83 481.734
66 0 80.1342 16.41 1315 107.465 1051.25 482.012
67 1 41.0282 15.1116 620 104.321 1051.97 500.474
68 0 39.0261 12.1457 474 111.114 1051.82 501.73
69 0 40.0319 13.1395 526 112.298 1051.07 500.449
70 0 40.0331 12.7145 509 112.774 1051.26 500.236
71 0 43.1731 14.1986 613 110.077 1051.87 499.139
72 0 45.1689 14.3904 650 108.412 1049.5 498.812
73 0 45.1071 14.4988 654 111.223 1050.49 495.453
74 0 48.1421 15.018 723 107.943 1050.61 496.863
75 0 49.2871 14.7706 728 110.115 1051.6 495.044
76 0 52.2057 15.3432 801 107.648 1052.09 495.574
77 0 51.1361 15.2339 779 108.924 1052.43 494.955
78 0 54.1715 15.7648 854 106.961 1052.45 494.199
79 0 57.096 14.7121 840 109.665 1053.42 492.3
80 0 58.1571 15.3034 890 107.874 1053.61 493.17
81 0 60.0809 13.6649 821 110.2 1052.44 493.598
82 0 63.2058 15.315 968 108.585 1051.79 490.648
83 0 65.1297 16.5669 1079 106.376 1052.77 490.747
84 0 67.292 17.1046 1151 104.775 1053.13 489.417
85 0 69.2512 15.6243 1082 108.707 1052.66 487.216
86 0 71.2142 14.7723 1052 111.647 1052.13 486.594
87 0 73.285 14.3003 1048 113.386 1051.73 484.427
88 0 74.2149 15.0778 1119 112.277 1051.7 483.773
89 1 39.0786 11.9503 467 108.191 1052.27 501.743
90 0 41.0398 11.6229 477 107.719 1052.88 502.245
91 0 40.0514 11.2605 451 109.392 1052.88 499.705
92 0 40.056 11.409 457 142.807 1052.87 499.641
93 0 44.0613 13.9351 614 105.264 1052.5 497.57
94 0 45.0392 13.8546 624 106.438 1053.31 495.875
95 0 47.2173 13.0672 617 107.112 1052.79 495.071
96 0 50.2657 14.6621 737 101.723 1053.25 493.718
97 0 51.2602 13.7729 706 103.567 1053.5 494.622
98 0 52.1536 15.2051 793 102.298 1053.68 493.223
99 0 55.4124 13.4086 743 106.066 1052.84 493.534
100 0 57.2804 13.3554 765 106.937 1052.65 492.995
101 0 58.2764 14.5513 848 105.368 1052.92 490.375
102 0 60.1626 14.2946 860 106.255 1052.65 490.109
103 0 62.1656 13.4801 838 107.687 1053.91 489.795
104 0 66.195 13.989 926 106.915 1054.26 488.936
105 1 38.1282 11.304 431 107.234 1054.82 502.68
106 0 41.0477 11.7181 481 106.383 1055.08 502.43
107 0 40.0497 10.7616 431 107.165 1053.92 502.552
108 0 41.0974 10.6089 436 108.394 1053.62 502.007
109 0 42.0978 12.2809 517 106.822 1054.12 502.137
110 0 43.1376 12.379 534 107.212 1053.32 501.693
111 0 45.0271 11.7485 529 108.083 1053.08 499.86
112 0 45.0568 11.6298 524 108.536 1053.18 499.386
113 0 48.2306 12.5232 604 106.753 1053.01 500.103
114 0 47.2507 12.6982 600 109.5 1053.03 498.332
115 0 49.1712 13.9716 687 105.713 1054.18 497.704
116 0 48.1696 13.1411 633 109.084 1053.15 496.937
117 0 52.1416 13.7127 715 105.891 1053.59 497.018
118 0 53.0979 13.0702 694 106.484 1052.55 496.821
119 0 55.4785 14.8526 824 101.92 1052.62 496.129
120 0 56.3628 13.0228 734 106.451 1053.92 494.455
121 0 59.1985 13.97 827 103.727 1052.04 492.196
122 0 62.2574 12.9944 809 103.053 1052.03 494.556
123 0 63.1703 14.1047 891 103.4 1052.74 491.34
124 0 65.2422 14.0707 918 105.367 1052.14 489.596
125 1 34.0882 10.9715 374 103.217 1052.16 505.473
126 0 36.0491 10.1251 365 103.027 1051.88 505.803
127 0 39.1144 10.9423 428 101.432 1051.87 505.372
128 0 38.0656 12.1895 464 103.401 1051.81 502.994
129 0 39.122 11.0679 433 107.469 1053.05 501.891
130 0 40.1161 12.5635 504 104.159 1053.36 501.484
131 0 41.0782 13.4621 553 102.94 1054.06 501.615
132 0 43.0904 12.8799 555 105.404 1053.56 500.38
133 0 43.2994 12.4482 539 107.02 1053.73 500.464
134 0 43.1637 12.9507 559 105.004 1054.21 502.07
135 0 45.267 13.2547 600 105.362 1054.62 500.257
136 0 46.2048 13.4185 620 106.258 1053.92 500.068
137 0 46.2562 13.9224 644 107.326 1053.94 498.014
138 0 49.0913 14.911 732 104.247 1053.52 498.354
139 0 50.1416 13.9206 698 107.016 1053.42 498.903
140 0 51.2558 13.8911 712 108.42 1053.05 498.747
141 0 52.1946 13.9095 726 110.479 1053.92 498.394
142 0 55.1337 14.2925 788 109.443 1053.68 496.755
143 0 54.225 13.7944 748 111.579 1054.55 496.997
144 0 58.0853 14.3582 834 109.505 1053.47 495.212
145 0 59.1657 13.6059 805 110.933 1053.63 495.041
146 0 62.2461 13.8804 864 110.422 1052.97 493.145
147 0 64.2263 14.4489 928 109.129 1052.18 493.159
148 0 64.215 15.1522 973 108.605 1051.54 492.118
149 1 35.1673 11.8292 416 109.925 1051.84 505.99
150 0 35.206 10.6232 374 109.029 1051.7 506.96
151 0 37.2434 11.9484 445 108.402 1050.97 504.236
152 0 36.2131 12.0951 438 111.895 1051.12 501.737
153 0 38.3199 12.9959 498 108.761 1050.64 502.183
154 0 40.2762 13.4571 542 107.461 1050.53 500.696
155 0 40.1307 13.5557 544 109.586 1050.08 498.785
156 0 43.1027 13.7114 591 108.719 1049.88 498.514
157 0 43.0309 12.7583 549 111.86 1050.31 499.344
158 0 45.154 13.9523 630 108.93 1050.39 497.46
159 0 44.1634 14.1973 627 109.951 1050.87 496.569
160 0 45.2025 14.5567 658 110.488 1051.24 495.771
161 0 47.1389 13.789 650 113.346 1051.06 496.195
162 0 47.2031 13.7067 647 114.467 1051.45 495.161
163 0 51.1201 15.3169 783 108.224 1051.83 495.503
164 0 51.2918 14.8757 763 109.582 1053.14 494.46
165 0 53.1363 14.5287 772 110.741 1052.84 492.663
166 0 54.0939 14.7891 800 110.262 1054.04 492.585
167 0 55.1836 14.5696 804 111.275 1053.63 492.18
168 0 59.2578 15.5929 924 108.605 1053.06 491.857
169 0 61.4001 15.7492 967 107.365 1053.2 491.683
170 0 61.2937 15.1565 929 109.763 1052.84 491.364
171 0 65.2471 15.7861 1030 107.182 1053.26 491.515
172 0 65.1698 13.2884 866 113.45 1053.42 490.866
173 0 68.3836 15.9687 1092 108.745 1053.28 488.815
174 0 71.1321 15.7735 1122 109.43 1052.48 488.069
175 1 37.1658 11.4083 424 115.038 1052.71 503.415
176 0 38.1357 12.8751 491 110.517 1052.35 504.603
177 0 38.1252 11.7507 448 112.652 1052.16 505.049
178 0 39.2574 12.9402 508 111.435 1052.6 503.882
179 0 41.2792 12.9848 536 110.076 1051.76 503.771
180 0 44.0845 13.3834 590 110.356 1051.39 502.383
181 0 45.234 14.4803 655 107.015 1050.72 502.162
182 0 46.0369 13.4457 619 112.234 1050.9 501.029
183 0 47.1474 14.8046 698 108.536 1050.45 500.255
184 0 48.187 14.8795 717 107.827 1050.79 500.162
185 0 49.2089 14.5909 718 109.503 1050.81 499.082
186 0 51.2028 14.8234 759 109.706 1050.48 497.731
187 0 51.2309 14.4444 740 111.434 1050.31 498.082
188 0 53.167 14.0877 749 112.344 1050.33 496.491
189 0 54.1699 14.4176 781 111.599 1050.45 495.191
190 0 57.1427 15.4875 885 110.049 1050.39 492.327
191 0 59.0796 14.5566 860 110.407 1051.14 493.714
192 0 60.1227 16.1004 968 108.576 1050.88 492.301
193 0 63.1324 14.5409 918 111.033 1051.14 492.065
194 0 61.1522 13.4582 823 117.213 1051.35 489.19
195 0 66.1686 17.2892 1144 107.666 1052.53 487.182
196 0 68.3094 15.0052 1025 112.772 1051.76 488.31
197 0 69.1062 15.6281 1080 113.369 1051.53 485.64
198 0 71.1839 15.1298 1077 114.836 1052.47 485.682
199 0 74.2888 15.9243 1183 112.348 1051.62 484.15
200 0 76.3395 14.632 1117 115.638 1051.89 482.581
201 1 43.1507 12.1203 523 112.495 1051.15 500.449
202 0 43.0778 9.70339 418 113.368 1051.18 502.342
203 0 45.0803 12.0452 543 112.022 1051.08 500.324
204 0 47.0791 11.0665 521 112.307 1051.8 500.702
205 0 49.0543 14.3514 704 106.609 1052.22 499.588
206 0 51.0824 12.705 649 109.821 1052.4 498.519
207 0 51.0803 13.1753 673 108.771 1051.63 498.459
208 0 53.2576 14.9087 794 105.146 1050.97 496.729
209 0 56.1276 13.8613 778 107.087 1051.4 496.001
210 0 57.0967 12.9079 737 108.355 1051.7 495.525
211 0 60.0986 13.6942 823 107.323 1050.72 495.147
212 0 62.2132 12.634 786 109.882 1050.3 493.543
213 0 61.1439 13.411 820 108.399 1050.03 493.059
214 0 63.1109 14.1022 890 107.418 1050.08 492.497
215 0 68.2439 14.3456 979 106.237 1049.37 489.019
216 0 71.2285 13.8287 985 106.207 1048.95 489.173
217 0 74.1311 14.6497 1086 104.326 1049.19 489.301
218 0 76.0426 12.322 937 110.092 1048.7 486.171
219 0 78.0859 15.7775 1232 103.541 1048.8 484.232
220 1 40.0476 11.0119 441 103.866 1048.31 501.868
221 0 39.182 10.5406 413 103.826 1049.12 502.479
222 0 43.1109 10.6934 461 102.824 1048.83 501.963
223 0 44.2602 12.3813 548 99.6058 1048.57 501.23
224 0 45.0906 12.619 569 98.8155 1049.08 500.592
225 0 47.1152 11.5249 543 101.913 1048.99 498.186
226 0 47.1215 11.5871 546 102.998 1048.8 496.26
227 0 50.1699 13.1553 660 99.5621 1049.36 496.576
228 0 51.1933 11.9156 610 102.357 1049.48 495.418
229 0 50.3185 11.4073 574 102.984 1049.7 494.819
230 0 55.075 12.4013 683 100.729 1050.53 493.322
231 0 56.2093 12.4535 700 100.406 1051 494.044
232 0 57.2463 11.2671 645 102.656 1050.98 492.305
233 0 57.3222 11.322 649 103.968 1051.23 492.752
234 0 61.4615 13.5857 835 99.9341 1051.28 491.587
235 0 63.3562 13.211 837 101.806 1051.12 489.894
236 0 66.283 12.8992 855 102.634 1050.99 488.745
237 0 68.2204 12.2544 836 104.261 1051.36 489.378
238 0 70.2715 12.594 885 106.023 1051.48 488.279
239 1 37.0449 10.0689 373 99.8713 1052.44 508.019
240 0 38.1614 10.7438 410 102.739 1052.31 505.378
241 0 41.0854 9.71149 399 103.972 1051.31 505.835
242 0 41.0815 11.9762 492 102.201 1051.12 504.15
243 0 42.0365 10.8953 458 105.764 1051.27 503.793
244 0 44.1039 12.652 558 100.136 1051.53 504.943
245 0 44.1345 13.2096 583 102.281 1050.84 500.876
246 0 48.166 14.5954 703 97.4922 1050.56 502.464
247 0 47.1515 12.5765 593 103.457 1050.66 501.359
248 0 47.1831 11.2116 529 106.82 1049.69 501.75
249 0 51.2324 12.941 663 96.2745 1048.84 497.689
250 0 51.2643 13.5377 694 103.516 1048.95 498.091
251 0 53.1615 12.6031 670 107.157 1049.17 496.888
252 0 53.1615 12.5467 667 152.535 1049.17 496.974
253 0 57.315 14.8303 850 105.029 1048.44 494.008
254 0 58.1548 13.6704 795 107.648 1048.5 495.03
255 0 59.1809 13.8051 817 108.874 1048.8 491.836
256 0 61.2469 13.8293 847 108.568 1049.01 492.005
257 0 62.3277 12.8514 801 112.373 1048.66 489.298
258 0 64.1487 13.8896 891 109.525 1049.57 489.214
259 0 66.2534 15.3501 1017 107.536 1049.87 487.337
260 0 68.2675 14.2674 974 110.869 1049.65 486.915
261 0 70.2869 14.3554 1009 111.355 1050 487.002
262 1 38.0457 11.0919 422 113.329 1050.93 502.417
263 0 39.0907 10.6163 415 115.805 1050.13 502.171
264 0 38.142 10.1463 387 116.134 1051.52 502.788
265 0 41.1448 10.9856 452 116.739 1050.88 501.743
266 0 43.1538 12.2585 529 112.864 1051.49 501.382
267 0 43.1641 11.213 484 157.174 1051.52 502.548
268 0 44.1674 11.5696 511 116.601 1052.58 501.607
269 0 47.0954 13.1011 617 115.243 1052.74 499.151
270 0 48.1078 14.9872 721 112.158 1052.72 499.211
271 0 50.1186 14.7251 738 112.888 1052.22 500.014
272 0 52.1097 14.93 778 113.441 1052.31 499.739
273 0 50.2072 12.9862 652 118.873 1052.82 501.67
274 0 53.1277 13.9475 741 116.375 1053.18 500.151
275 0 56.2837 13.8761 781 116.449 1052.77 499.061
276 0 55.1595 13.7057 756 117.571 1052.07 497.599
277 0 58.1345 15.0341 874 114.279 1051.96 496.708
278 0 61.1882 14.104 863 113.189 1051.23 497.571
279 0 61.1023 13.4692 823 116.45 1050.49 494.197
280 0 64.1606 15.7262 1009 110.712 1049.95 493.435
281 0 65.1397 14.6915 957 113.465 1049.58 492.08
282 0 69.357 14.0865 977 114.763 1049.59 491.46
283 0 68.1174 12.8601 876 120.062 1049.06 489.217
284 0 71.1597 13.7718 980 119.228 1048.62 487.682
285 0 74.1924 13.7885 1023 118.868 1049.17 485.74
286 0 78.2352 15.0955 1181 115.726 1049.35 484.768
287 1 40.0223 11.2187 449 116.332 1049.66 503.751
288 0 42.178 12.9926 548 113.593 1049.19 501.516
289 0 42.0633 12.7902 538 115.309 1049.89 500.47
290 0 42.1698 12.5208 528 115.165 1050.35 501.456
291 0 43.0634 12.0984 521 118.109 1050.89 500.154
292 0 44.176 12.9029 570 117.707 1051.03 497.698
293 0 47.0986 14.7987 697 112.772 1051.53 498.6
294 0 49.0882 14.423 708 113.705 1052.49 498.9
295 0 50.1752 13.692 687 116.78 1052.57 497.025
296 0 51.0777 13.5088 690 119.368 1054.12 496.967
297 0 51.2125 13.649 699 120.934 1054.62 496.525
298 0 55.0979 14.0477 774 120.057 1053.57 495.001
299 0 57.1671 14.6238 836 118.89 1054.11 493.907
300 0 61.1843 13.9578 854 117.862 1053.88 495.052
301 0 61.1881 13.9733 855 158.823 1052.87 495.019
302 0 63.1606 12.777 807 123.098 1052.17 492.102
303 1 33.0282 12.2017 403 116.697 1053.92 508.861
304 0 34.0871 10.7079 365 118.805 1051.77 509.093
305 0 38.0339 12.8044 487 112.977 1052 509.758
306 0 39.0821 11.3607 444 116.432 1052.08 510.164
307 0 38.1063 13.6723 521 112.511 1051.66 508.829
308 0 41.0875 12.9967 534 114.837 1051.02 506.708
309 0 41.0471 12.6684 520 116.517 1051.15 505.723
310 0 44.0567 13.4826 594 114.116 1050.76 505.071
311 0 44.0378 12.8072 564 118.206 1049.58 503.702
312 0 44.0378 12.8753 567 161.753 1048.58 503.642
313 0 48.0408 13.6134 654 113.446 1049.16 501.789
314 0 48.0786 12.5004 601 116.318 1048.97 500.744
315 0 52.135 13.7527 717 111.28 1048.3 500.614
316 0 52.1348 13.8871 724 153.465 1047.29 500.615
317 0 54.0497 14.1721 766 112.786 1048.94 497.239
318 0 58.04 13.9731 811 111.317 1048.93 496.095
319 0 57.0302 12.9581 739 115.894 1048.68 494.045
320 0 61.1606 14.7317 901 110.962 1049.36 492.311
321 0 63.1475 13.7139 866 112.477 1049.85 491.374
322 0 65.1498 14.3362 934 96.8854 1050.43 491.037
323 0 67.1782 14.2606 958 112.048 1050.28 490.476
324 0 71.0651 13.5087 960 113.168 1051.1 487.838
325 1 36.0373 11.5436 416 111.139 1050.38 504.502
326 0 38.1015 9.57968 365 111.205 1051.35 506.137
327 0 38.0647 11.2178 427 111.417 1051.49 503.644
328 0 41.0501 12.7405 523 105.556 1052.11 504.105
329 0 43.1431 11.6125 501 107.311 1051.58 504.786
330 0 45.0408 12.4776 562 105.272 1052.08 503.61
331 0 43.1191 11.7581 507 111.475 1052.03 501.714
332 0 46.1012 13.7307 633 106.33 1052.28 502.37
333 0 48.1164 12.8438 618 107.775 1051.85 501.618
334 0 48.1345 12.6105 607 108.822 1052.62 500.29
335 0 51.1844 13.8128 707 106.181 1053.6 499.748
336 0 51.066 12.6111 644 109.963 1053.62 500.166
337 0 55.1467 13.4913 744 107.598 1052.8 499.015
338 0 55.0823 14.0698 775 106.227 1052.61 499.23
339 0 58.1104 14.6101 849 105.681 1051.95 497.291
340 0 60.1924 14.9188 898 105.004 1052.27 495.96
341 0 60.1495 13.0009 782 109.624 1051 495.523
342 0 64.1578 12.6251 810 110.028 1049.74 493.352
343 0 67.209 15.2361 1024 104.482 1049.45 491.104
344 0 67.1679 14.5754 979 106.15 1049.28 488.88
345 0 71.3146 13.5877 969 107.896 1049.39 488.518
346 0 71.1007 13.3191 947 110.364 1049.06 486.769
347 0 73.2286 13.6422 999 109.846 1049.81 485.819
348 0 77.142 13.7927 1064 109.349 1048.57 484.206
349 1 42.061 10.8652 457 105.803 1049.03 502.525
350 0 45.2006 12.1016 547 103.382 1049.09 501.865
351 0 44.1262 11.7844 520 106.583 1049.64 499.727
352 0 47.0709 11.812 556 106.489 1049.49 498.829
353 0 48.1468 12.3165 593 104.671 1049.42 499.346
354 0 48.085 12.7483 613 104.179 1049.27 497.589
355 0 52.0618 13.8105 719 101.257 1049.99 498.534
356 0 51.1297 12.4585 637 105.256 1051.59 496.568
357 0 53.0872 13.3365 708 101.884 1051.81 497.54
358 0 54.1386 12.9667 702 103.652 1052.33 496.128
359 0 55.1032 13.012 717 104.82 1053.17 495.001
360 0 59.1382 13.6122 805 102.629 1053.95 495.781
361 0 60.1534 13.6817 823 103.834 1053.6 495.479
362 0 62.1054 13.6864 850 103.701 1054.32 495.064
363 0 62.154 13.177 819 106.037 1054.28 494.138
364 0 66.1159 13.0982 866 106.933 1054.38 493.277
365 0 69.0921 14.4734 1000 104.221 1054.32 492.649
366 0 71.0877 13.7999 981 106.591 1053.9 492.161
367 1 39.0472 11.4989 449 109.167 1054.02 506.893
368 0 38.1078 9.2107 351 109.994 1053.13 510.746
369 0 40.0345 11.8897 476 108.132 1052.75 506.971
370 0 40.0585 11.1087 445 109.706 1051.44 507.211
371 0 43.0638 11.8893 512 109.395 1051 504.352
372 0 45.0656 13.2473 597 104.171 1050.79 506.017
373 0 46.0534 13.1803 607 105.061 1050.41 502.947
374 0 48.0874 14.0577 676 102.339 1050.19 501.312
375 0 49.0187 13.4031 657 104.767 1049.49 500.419
376 0 51.1252 13.7114 701 101.68 1049.96 499.414
377 0 53.0842 13.9966 743 100.988 1049.38 497.579
378 0 54.0749 13.9436 754 101.699 1048.75 496.089
379 0 55.0591 14.1666 780 101.776 1047.02 495.314
380 0 56.0296 14.1175 791 102.53 1046.67 494.362
381 0 58.0329 14.6813 852 101.202 1047.46 493.732
382 0 60.031 14.5925 876 100.969 1048.77 492.898
383 0 62.1532 13.5311 841 102.98 1048.75 491.624
384 0 64.1591 14.994 962 99.0738 1049.87 492.195
385 0 67.1917 13.8856 933 101.673 1050.5 490.519
386 0 68.1689 13.8333 943 101.902 1050.8 488.566
387 0 69.1357 13.9725 966 101.231 1051.13 486.711
388 0 72.1253 13.9618 1007 100.495 1051.88 487.701
389 0 76.1672 15.7023 1196 96.2366 1052.55 488.242
390 0 79.2893 13.8985 1102 99.8013 1052.3 485.084
391 1 41.0366 12.6716 520 94.2115 1053.87 505.871
392 0 40.0655 11.0319 442 98.2127 1053.56 504.86
393 0 40.0655 11.1817 448 139.846 1053.56 504.911
394 0 44.0274 14.6954 647 91.4049 1053.14 504.247
395 0 46.0183 13.1035 603 94.6202 1053.27 505.199
396 0 46.2407 12.6512 585 95.3197 1052.97 506.089
397 0 48.15 13.3126 641 95.078 1052.05 504.811
398 0 49.1386 12.2511 602 97.691 1052 504.483
399 0 51.1691 13.602 696 93.7615 1052.24 503.547
400 0 55.1865 15.1667 837 89.0657 1052.34 504.296
401 0 55.2611 12.4319 687 96.31 1052.51 500.751
402 0 56.075 14.2309 798 93.5063 1051.76 500.234
403 0 60.1262 13.6214 819 93.4408 1050.91 499.175
404 0 61.1535 14.3737 879 93.4494 1050.49 496.577
405 0 62.4105 13.94 870 93.2563 1049.9 495.784
406 0 65.1974 14.1723 924 92.0065 1049.48 492.693
407 0 66.1185 13.0826 865 94.141 1049.23 492.089
408 0 69.3436 12.0847 838 94.463 1049.28 491.357
409 0 72.47 14.4474 1047 91.6476 1049.1 486.216
410 0 74.3777 12.7592 949 94.3635 1048.57 486.448
411 1 43.2707 9.93745 430 91.9023 1048.37 501.188
412 0 46.1768 10.2866 475 90.0316 1048.53 500.709
413 0 46.4178 11.5473 536 89.7873 1048.64 498.146
414 0 47.2994 10.3807 491 91.0774 1049.26 497.501
415 0 50.089 11.819 592 89.5169 1050.62 496.149
416 0 52.1816 13.0314 680 87.9 1050.28 493.974
417 0 52.3014 11.5867 606 91.7987 1051.32 491.711
418 0 54.1547 12.0396 652 90.6917 1052.08 494.235
419 0 58.2505 13.6308 794 87.4987 1053.67 493.384
420 0 60.2282 12.4692 751 90.787 1054.19 491.142
421 0 63.2081 12.5142 791 90.115 1054.34 490.541
422 0 65.2514 12.9959 848 89.6474 1055.02 489.68
423 0 69.4005 12.4639 865 89.896 1054.89 492.083
424 0 70.5868 11.1352 786 93.2977 1054.38 489.849
425 0 72.4636 12.7788 926 90.8067 1054.76 490.582
426 0 76.572 12.5633 962 92.2464 1053.84 489.873
427 0 79.4696 13.5146 1074 92.6266 1052.85 486.916
428 0 82.5777 13.1876 1089 92.854 1052.46 488.754
429 1 44.2525 10.0333 444 90.8153 1052.64 506.881
430 0 46.2632 12.4505 576 88.4705 1051.36 505.495
431 0 48.2793 11.5992 560 90.2518 1050.78 506.614
432 0 49.3568 12.1564 600 91.0817 1050.52 504.432
433 0 50.1692 11.5808 581 94.4527 1049.38 501.79
434 0 49.265 11.7731 580 96.8017 1048.93 500.116
435 0 53.2658 12.2217 651 95.1567 1049.28 499.713
436 0 54.2644 11.2597 611 96.7971 1049.08 497.858
437 0 58.1001 13.3563 776 92.3531 1048.98 496.718
438 0 58.2504 11.9312 695 95.9165 1049.13 494.904
439 0 59.216 11.4834 680 98.3971 1048.39 491.538
440 0 63.2579 13.5319 856 92.8131 1047.63 490.987
441 0 64.2229 13.6244 875 94.2 1047.54 487.24
442 0 68.2961 13.5732 927 93.644 1047.53 486.449
443 0 69.2041 11.4011 789 97.2864 1048.6 485.645
444 0 74.297 13.9979 1040 92.9442 1048.83 483.991
445 0 74.357 12.6014 937 97.3447 1049.64 481.921
446 1 39.1572 7.40604 290 94.7138 1050.57 503.924
447 0 43.1566 9.63931 416 97.0817 1052.34 499.529
448 0 41.2882 10.463 432 95.6806 1052.3 498.782
449 0 46.3409 10.768 499 92.517 1053.94 500.577
450 0 46.1573 9.72761 449 95.7016 1054.83 501.341
451 0 48.0634 11.0687 532 94.3628 1056.13 502.194
452 0 49.0854 12.4069 609 93.2791 1057.12 501.507
453 0 52.3173 12.7109 665 91.779 1054.81 501.723
454 0 52.1484 12.1001 631 94.206 1054.43 501.932
455 0 56.2777 13.0425 734 91.9251 1054.03 501.037
456 0 57.2162 13.0033 744 93.7876 1052.81 500.12
457 0 60.0621 13.1198 788 95.8566 1053.88 499.973
458 0 62.0766 14.901 925 91.4238 1053.69 499.657
459 0 64.0918 14.1516 907 92.7299 1053.4 498.217
460 0 64.1143 13.6319 874 94.5469 1052.76 496.597
461 0 67.176 13.74 923 94.6566 1051.97 494.931
462 0 69.0775 14.3173 989 94.7796 1050.95 492.547
463 0 71.159 13.3785 952 95.0893 1050.53 492.347
464 0 72.1362 13.1279 947 95.5618 1050.48 489.779
465 1 36.0212 9.82753 354 91.3418 1051.1 509.339
466 0 37.0296 10.5591 391 91.7826 1049.53 507.898
467 0 39.0554 9.16648 358 100.277 1048.8 505.838
468 0 39.0998 11.0486 432 93.4051 1048.28 504.245
469 0 42.1117 11.327 477 92.174 1048.1 503.725
470 0 43.0243 11.6446 501 92.5629 1048.82 500.261
471 0 44.2045 13.1208 580 89.5966 1048.06 499.936
472 0 44.2108 12.6666 560 91.1429 1047.99 499.048
473 0 47.3414 13.2865 629 89.2973 1048.63 498.029
474 0 48.4998 13.3609 648 88.5586 1048.93 496.995
475 0 50.3752 13.6972 690 87.9899 1049.66 495.728
476 0 50.2781 14.3601 722 87.3158 1050.83 495.781
477 0 51.2359 13.2134 677 87.6558 1051.64 494.386
478 0 54.1878 12.9365 701 85.8787 1054.21 496.455
479 0 56.133 13.6462 766 85.5496 1056.1 497.445
480 0 55.2692 13.4976 746 89.4491 1056.01 495.381
481 0 58.23 14.1336 823 87.2418 1056.86 497.469
482 0 61.4132 12.9939 798 87.8383 1057.16 497.377
483 0 63.1627 14.5181 917 86.0491 1056.51 496.847
484 0 62.3151 13.1108 817 89.7956 1055.96 494.444
485 0 67.269 13.7359 924 86.9838 1055.19 494.498
486 0 69.3294 12.9094 895 88.819 1054.02 493.572
487 1 37.3061 11.7675 439 85.2506 1053.65 512.62
488 0 39.2819 11.3284 445 87.0584 1053.18 510.436
489 0 39.3037 10.4061 409 88.6577 1052.8 509.929
490 0 40.2606 10.3079 415 88.853 1051.56 510.523
491 0 42.2752 11.0703 468 88.4914 1050.35 508.316
492 0 47.3152 13.5686 642 82.9626 1049.84 507.012
493 0 46.1593 11.677 539 86.9555 1049.28 506.176
494 0 50.1054 12.8729 645 85.8078 1047.89 503.744
495 0 51.2656 14.2006 728 85.1456 1048.03 499.871
496 0 53.1314 15.1323 804 84.1667 1047.72 497.286
497 0 54.223 14.3666 779 85.5404 1047.03 497.642
498 0 55.241 13.2872 734 88.7248 1046.58 496.986
499 0 58.3099 13.1195 765 88.5817 1046.66 495.085
500 0 57.2856 13.424 769 90.7061 1046.15 490.809
501 0 60.1966 13.8712 835 89.1892 1046.89 490.212
502 0 63.3315 14.2109 900 87.42 1047.97 491.443
503 0 64.2387 13.6211 875 88.6126 1048.72 490.006
504 0 66.1383 14.8023 979 87.5618 1049.67 486.477
505 0 68.2375 12.9694 885 90.2237 1051.73 486.738
506 0 71.1366 14.7041 1046 87.1568 1053.96 485.887
507 0 75.254 14.4178 1085 86.7594 1055.88 487.812
508 0 75.1356 12.2845 923 91.7671 1056.98 484.631
509 1 36.0425 9.01713 325 90.9046 1058.29 506.828
510 0 42.0597 11.2221 472 89.572 1058.4 504.657
511 0 44.2272 10.9435 484 89.6281 1058.27 506.882
512 0 45.1291 11.8327 534 88.9195 1058.16 508.391
513 0 46.2112 12.3996 573 90.6161 1057 507.281
514 0 47.2137 13.9154 657 89.0441 1056.2 505.966
515 0 49.2682 12.6451 623 92.6276 1056.12 505.841
516 0 53.2889 15.3503 818 88.9364 1055.14 506.13
517 0 54.1575 13.5531 734 91.282 1052.83 505.266
518 0 55.2097 13.1317 725 92.6483 1051.36 504.218
519 0 57.1624 14.4326 825 91.0606 1050.17 502.381
520 0 60.1298 16.0154 963 88.3437 1049.01 503.69
521 0 62.1686 15.474 962 90.1985 1047.67 500.132
522 0 65.2303 14.5638 950 92.081 1047.08 500.361
523 0 66.1689 15.7022 1039 91.1578 1046.26 497.576
524 0 68.0966 15.6836 1068 93.235 1045.21 495.852
525 0 67.1827 15.4206 1036 95.7133 1043.68 495.014
526 0 71.209 15.4475 1100 96.6882 1042.81 492.967
527 0 73.1706 14.8284 1085 98.7963 1042.7 490.596
528 0 76.1199 16.566 1261 96.5924 1042.06 488.11
529 0 78.4189 14.4863 1136 100.383 1041.98 489.46
530 0 82.2585 15.8403 1303 99.2402 1042.41 485.01
531 0 84.1776 16.4533 1385 99.1617 1043.08 484.557
532 0 88.2673 16.2348 1433 99.7264 1044.2 483.016
533 0 91.2265 15.5328 1417 101.798 1046.77 482.368
534 1 56.0672 10.4517 586 108.572 1048.38 499.246
535 0 54.1227 12.9521 701 104.71 1049.67 499.298
536 0 56.1236 11.8845 667 107.328 1051.72 499.289
537 0 61.0539 13.7911 842 103.55 1052.68 499.792
538 0 63.0327 15.0081 946 102.227 1054.48 499.582
539 0 66.1436 15.1337 1001 103.128 1054.92 501.132
540 0 68.094 14.8912 1014 104.515 1055.13 500.464
541 0 71.0874 14.8831 1058 104.767 1054.32 500.37
542 0 71.0753 14.6042 1038 107.803 1051.31 499.427
543 0 75.0853 14.5568 1093 107.662 1050.7 498.704
544 0 80.1505 15.0592 1207 106.384 1048.88 497.322
545 0 83.1728 16.9286 1408 103.154 1047.32 495.454
546 0 87.0972 16.8318 1466 103.864 1046.27 494.166
547 0 90.0889 16.0619 1447 107.202 1045.11 488.848
548 0 93.1511 15.7057 1463 108.248 1044.25 486.375
549 0 96.3211 15.3653 1480 108.926 1042.71 486.22
550 0 102.2 14.8728 1520 109.726 1042.19 482.983
551 0 103.165 15.732 1623 108.929 1041.7 481.336
552 1 44.0476 12.2595 540 104.639 1041.66 508.365
553 0 46.0542 10.5094 484 106.946 1041.23 506.857
554 0 48.105 12.5559 604 104.684 1040.62 504.152
555 0 49.0782 11.5937 569 106.016 1040.72 503.427
556 0 52.0312 13.1652 685 102.673 1041.44 500.552
557 0 54.0589 14.3732 777 101.268 1041.31 497.586
558 0 53.0576 13.7963 732 102.51 1041.49 496.228
559 0 57.0938 13.7318 784 102.353 1041.88 494.81
560 0 58.1383 14.1043 820 102.556 1042.77 492.67
561 0 60.2335 14.4106 868 100.887 1043.95 493.923
562 0 63.1149 14.5924 921 101.092 1045.63 491.849
563 0 65.1295 14.1257 920 103.225 1047.52 489.775
564 0 66.1282 13.8368 915 103.261 1048.95 491.481
565 0 68.1093 13.6252 928 104.065 1051.8 489.946
566 0 71.1357 13.411 954 104.826 1053.1 489.563
567 0 75.0661 15.1999 1141 100.466 1053.84 489.018
568 0 78.1739 14.4677 1131 101.887 1053.7 488.451
569 0 81.11 14.918 1210 100.555 1054.07 490.132
570 1 43.091 11.0928 478 98.0732 1055.14 511.259
571 0 46.0503 11.14 513 99.0526 1054.3 510.39
572 0 47.0506 12.7947 602 96.103 1053.54 511.492
573 0 50.0898 12.9767 650 95.8908 1053.06 509.717
574 0 51.0381 12.3633 631 95.8922 1052.14 511.353
575 0 54.0996 14.1406 765 93.8301 1049.83 507.952
576 0 55.082 11.7643 648 96.8951 1048.55 509.031
577 0 56.2979 13.393 754 96.1552 1046.41 504.871
578 0 59.1714 14.0608 832 94.7812 1045.01 501.201
579 0 62.0882 14.1251 877 94.0331 1043.85 501.306
580 0 65.0835 14.5659 948 93.7015 1043.73 500.983
581 0 65.0705 13.908 905 95.0586 1043.53 497.777
582 0 70.1642 14.0527 986 94.8631 1042.3 496.274
583 0 71.2463 13.8674 988 95.7844 1042.39 492
584 0 74.1863 13.8031 1024 96.5117 1042.2 490.612
585 0 74.3711 13.594 1011 98.6963 1041.75 488.181
586 0 79.185 12.4645 987 100.02 1041.95 486.405
587 1 41.0416 11.5005 472 99.5085 1042.65 503.699
588 0 46.0792 12.2832 566 98.0071 1043.35 502.18
589 0 45.1183 11.4144 515 99.5223 1044.27 501.575
590 0 47.1115 13.5211 637 94.9686 1045.63 502.221
591 0 49.1971 12.765 628 97.7118 1046.17 500.406
592 0 51.1921 13.3419 683 96 1048.93 500.319
593 0 53.0835 13.978 742 96.3598 1051.18 501.867
594 0 53.0831 13.0362 692 98.9769 1052.72 500.637
595 0 55.037 13.5364 745 96.5705 1054.13 501.964
596 0 58.1125 14.2138 826 96.6283 1055.14 501.088
597 0 60.0685 12.8354 771 100.275 1055.64 502.935
598 0 63.2378 13.726 868 98.8399 1055.59 501.464
599 0 67.1225 14.0638 944 97.4269 1055 502.53
600 0 71.0769 14.5758 1036 97.5618 1052.76 502.747
601 0 75.3167 16.4904 1242 95.1304 1051.88 502.911
602 0 78.1371 16.0103 1251 97.3453 1049.71 501.935
603 0 83.2648 16.5496 1378 95.4238 1048.61 503.228
604 0 87.175 15.6582 1365 96.1582 1046.35 501.708
605 1 44.1102 11.766 519 97.7168 1044.9 522.773
606 0 46.1116 11.8625 547 99.181 1044.87 521.633
607 0 49.2181 13.3487 657 97.3059 1044.29 519.855
608 0 51.0939 13.1523 672 97.1354 1042.36 520.811
609 0 54.0908 15.2521 825 95.6255 1042.17 517.633
610 0 55.1456 15.8127 872 95.7959 1041.04 516.131
611 0 57.056 15.3008 873 98.2669 1040.29 513.729
612 0 57.119 14.391 822 102.594 1038.62 512.036
613 0 62.166 15.2978 951 98.5647 1038.22 511.699
614 0 63.2513 15.0036 949 100.477 1038.5 507.817
615 0 66.3185 15.5462 1031 98.1406 1038.37 505.355
616 0 68.1388 16.4077 1118 97.6869 1038.08 502.971
617 0 70.2487 15.3028 1075 99.4242 1039.07 504.808
618 0 74.3094 15.2336 1132 99.4868 1039.13 501.32
619 0 74.181 14.8421 1101 102.442 1039.89 498.03
620 0 78.1714 17.6919 1383 97.4187 1041.33 496.14
621 0 81.1516 15.28 1240 102.476 1042.57 496.388
622 0 84.1606 16.8487 1418 100.185 1043.34 494.348
623 1 40.1436 12.0816 485 104.885 1044.52 517.808
624 0 45.2063 13.8476 626 101.919 1046.54 515.209
625 0 46.0752 13.0005 599 103.466 1046.61 516.367
626 0 47.1012 13.9699 658 103.222 1047.16 516
627 0 49.2822 15.1373 746 103.905 1046.95 512.237
628 0 52.1346 15.3833 802 102.612 1046.97 515.388
629 0 55.3351 14.7104 814 105.358 1044.97 514.538
630 0 57.2897 14.7845 847 105.63 1044.74 515.133
631 0 61.2439 15.5771 954 104.164 1044.39 516.204
632 0 62.4312 15.7133 981 103.834 1043.59 515.593
633 0 64.3384 15.232 980 107.586 1042.43 513.636
634 0 67.2221 15.6347 1051 107.169 1042.66 512.899
635 0 70.3962 15.9526 1123 105.585 1041.29 512.771
636 0 73.2986 15.7302 1153 106.961 1038.95 508.557
637 0 74.3922 15.8888 1182 106.979 1038.17 507.311
638 0 78.4511 16.2649 1276 105.636 1036.65 505.174
639 1 42.3756 11.1857 474 110.209 1035.8 520.928
640 0 44.4112 11.9564 531 106.567 1035.18 520.614
641 0 45.6784 11.9093 544 108.489 1034.12 517.366
642 0 46.46 12.7421 592 105.323 1033.83 516.429
643 0 47.3521 13.1356 622 105.929 1034.69 514.415
644 0 49.1681 12.3657 608 106.548 1034.97 513.577
645 0 51.2214 13.1781 675 105.394 1035.46 510.607
646 0 52.2881 13.9802 731 103.244 1037.18 511.419
647 0 53.2034 13.2322 704 104.386 1038.41 510.81
648 0 56.6542 14.5267 823 101.286 1039.63 509.315
649 0 58.3988 15.2058 888 100.466 1040.75 508.086
650 0 59.2087 13.9169 824 103.519 1042.55 506.88
651 0 64.512 15.036 970 99.235 1044.22 507.558
652 0 66.4052 13.8845 922 101.892 1045.11 505.017
653 0 69.3019 14.8914 1032 100.067 1046.51 503.97
654 0 72.3067 14.7981 1070 99.0897 1046.64 504.722
655 0 75.2272 14.6357 1101 99.5622 1046.55 502.893
656 0 79.3407 15.2003 1206 98.0713 1046.79 499.965
657 0 81.3509 12.9071 1050 102.894 1046.43 500.368
658 0 85.4233 14.2935 1221 100.331 1046.9 499.633
659 0 87.3568 15.1562 1324 99.6292 1046.69 496.006
660 0 91.2438 14.3681 1311 101.137 1044.79 497.351
661 1 49.1445 9.36015 460 106.261 1043.77 513.998
662 0 53.1099 9.99814 531 99.3126 1043.1 520.719
663 0 56.1016 13.5112 758 97.0383 1041.3 514.054
664 0 57.1586 12.3341 705 98.8128 1039.53 511.095
665 0 60.1665 11.9834 721 98.4757 1038.57 510.87
666 0 62.0943 14.478 899 94.4405 1038.05 506.194
667 0 65.2263 14.1967 926 95.2981 1037.64 503.842
668 0 68.2038 13.5623 925 95.4389 1037.1 503.244
669 0 71.2104 15.5595 1108 91.4034 1037.04 498.707
670 0 74.2066 14.6887 1090 93.0743 1036.21 495.709
671 0 75.4064 15.0783 1137 93.9991 1036.63 494.042
672 0 76.1756 14.1253 1076 97.539 1036.93 489.969
673 0 81.2222 14.5404 1181 96.8239 1038.41 487.569
674 0 83.2141 14.9013 1240 96.0411 1039.35 487.37
675 0 86.7071 14.2203 1233 97.6342 1040.19 485.071
676 0 89.4297 14.0781 1259 98.0461 1040.91 482.49
677 1 51.2836 12.9866 666 89.3484 1042.34 506.354
678 0 49.1331 9.07738 446 99.6144 1043.27 502.993
679 0 53.2733 12.22 651 95.2458 1045.67 501.596
680 0 54.1185 12.2324 662 93.9366 1047.37 502.613
681 0 57.1784 12.2599 701 94.4993 1048.98 502.713
682 0 57.1806 13.4836 771 94.8949 1050.37 499.986
683 0 61.1694 13.1765 806 94.3338 1051.47 502.381
684 0 62.3556 12.7174 793 95.7528 1051.97 502.202
685 0 65.2691 12.9924 848 96.5071 1052.44 501.06
686 0 67.335 12.267 826 98.9346 1052.3 499.754
687 0 71.3749 12.4414 888 98.3468 1051.33 499.52
688 0 74.505 12.8985 961 98.5442 1050.46 497.285
689 0 77.436 13.9083 1077 98 1049.65 497.29
690 0 81.2024 13.8296 1123 98.2173 1048.73 495.403
691 0 86.3973 14.3639 1241 97.9259 1047.77 492.975
692 1 44.2522 10.1916 451 97.7295 1046.34 512.827
693 0 46.1534 10.6601 492 98.0549 1045.51 511.114
694 0 47.0377 11.6715 549 98.3388 1042.83 507.592
695 0 49.1384 12.6988 624 96.742 1041.86 505.921
696 0 49.1418 13.4509 661 93.351 1041.02 504.959
697 0 50.1918 12.2928 617 97.2091 1040.97 502.434
698 0 50.1918 12.2928 617 139.246 1041.97 502.507
699 0 56.1114 14.3643 806 93.2469 1042.16 499.545
700 0 56.0584 12.1837 683 98.9136 1042.74 498.346
701 0 56.2414 12.233 688 99.4869 1043.93 497.878
702 0 58.1991 14.0208 816 97.0931 1044.58 495.756
703 0 57.284 11.7136 671 101.897 1045.25 494.018
704 0 62.2913 13.3566 832 99.0938 1045.73 494.367
705 0 63.2105 13.8743 877 97.0867 1047.8 493.962
706 0 67.1074 13.2176 887 98.8444 1047.49 490.719
707 0 67.1862 13.3063 894 100.833 1049.06 489.545
708 0 70.2956 13.8416 973 99.5447 1050.93 487.911
709 0 73.2407 13.913 1019 98.3925 1053.21 490.367
710 0 77.3154 13.6971 1059 99.3456 1054.16 490.713
711 0 79.3318 14.3826 1141 99.142 1056.03 489.678
712 0 82.2208 13.561 1115 100.948 1057.13 489.11
713 0 84.4678 13.3187 1125 102.95 1057.75 485.844
714 1 45.086 11.1121 501 99.3194 1057.76 508.894
715 0 48.1353 11.0522 532 96.6842 1056.1 511.784
716 0 49.1543 11.8403 582 98.1082 1055.71 511.503
717 0 52.122 12.2021 636 100.066 1054.38 507.786
718 0 54.1256 12.6742 686 101.09 1053.74 508.684
719 0 56.1589 14.4946 814 97.0332 1052.7 507.527
720 0 57.1055 13.9566 797 100.271 1051.16 504.695
721 0 61.3321 14.1198 866 98.4088 1049.29 503.427
722 0 62.22 13.6773 851 99.4877 1047.15 500.342
723 0 64.1612 14.1363 907 99.1522 1046.14 500.304
724 0 65.1431 13.9385 908 101.195 1045.54 495.829
725 0 67.1798 12.5335 842 104.116 1044.6 496.483
726 0 72.2558 14.2688 1031 101.73 1045.22 493.634
727 0 73.1311 12.881 942 104.652 1044.64 491.356
728 0 76.2391 12.6182 962 106.478 1043.92 487.159
729 0 78.3255 13.7886 1080 103.581 1043.42 485.897
730 1 42.1678 9.15389 386 106.225 1042.5 504.119
731 0 45.1138 11.5486 521 101.115 1042.62 503.468
732 0 47.3234 11.432 541 102.641 1043.49 502.959
733 0 48.068 12.2119 587 102.792 1046 502.237
734 0 50.1988 12.8091 643 102.868 1046.34 501.796
735 0 50.1097 14.5082 727 102.08 1047.97 500.275
736 0 53.1338 12.8355 682 103.916 1050.54 502.038
737 0 56.1774 13.0657 734 103.894 1051.61 501.522
738 0 57.0953 13.8365 790 103.108 1053.24 502.491
739 0 59.1584 13.3878 792 104.352 1054.31 502.533
740 0 61.2552 12.8152 785 105.659 1054.58 503.294
741 0 64.2568 14.5354 934 102.398 1054.89 500.435
742 0 69.5288 14.6846 1021 102.024 1054 500.452
743 0 72.3872 14.2981 1035 102.74 1052.36 500.135
744 1 38.3868 9.71687 373 103.579 1051.84 519.794
745 0 40.3316 11.8765 479 102.38 1050.3 518.015
746 0 41.2213 10.9895 453 103.382 1048.88 518.687
747 0 44.1648 13.6987 605 96.9967 1046.81 517.841
748 0 45.2078 13.4048 606 99.4389 1045.39 514.439
749 0 48.1207 13.8818 668 98.6587 1043.45 512.615
750 0 50.1899 12.4129 623 100.315 1042.06 511.56
751 0 52.3127 11.89 622 103.751 1042.25 509.064
752 0 53.2152 13.2481 705 102.245 1039.75 506.993
753 0 56.1878 13.5083 759 100.424 1038.44 506.424
754 0 56.16 12.411 697 104.753 1038.86 503.384
755 0 58.1466 12.8297 746 102.836 1039.85 502.515
756 0 62.2679 12.5265 780 102.841 1038.72 500.213
757 0 63.1654 13.8367 874 100.701 1039.3 496.835
758 0 67.1174 15.3462 1030 95.8816 1039.38 496.058
759 0 70.2228 12.6882 891 100.824 1040.44 495.238
760 0 73.1355 14.521 1062 97.2448 1041.35 490.427
761 0 77.2401 14.2802 1103 97.3572 1042.32 491.542
762 0 79.1301 15.683 1241 95.3916 1043.97 490.4
763 0 82.245 15.1134 1243 97.7039 1045.49 486.781
764 0 85.1361 12.9675 1104 101.809 1047.18 486.011
765 1 47.1144 11.1006 523 98.9331 1048.75 507.055
766 0 49.2211 12.4134 611 96.9051 1050.21 506.859
767 0 52.3323 12.8028 670 95.0716 1051.26 508
768 0 52.3364 11.4643 600 100.26 1050.65 506.142
769 0 55.1884 12.4302 686 100.627 1050.92 504.197
770 0 58.1001 12.6334 734 99.9782 1049.8 506.302
771 0 62.0619 14.9206 926 95.3488 1051 505.027
772 0 63.0666 16.1417 1018 94.3576 1050.98 504.672
773 0 65.0388 13.9763 909 97.5116 1049.19 504.197
774 0 68.1029 14.2432 970 94.768 1048.04 504.882
775 0 70.0776 15.1404 1061 87.4929 1046.28 500.954
776 0 74.0844 14.1595 1049 88.1268 1044.73 498.267
777 0 78.089 15.4567 1207 85.7415 1044.03 496.754
778 0 81.0668 14.4695 1173 87.8389 1042.7 493.866
779 0 82.146 13.2812 1091 90.286 1041.58 493.027
780 0 88.2908 15.7548 1391 86.427 1040.84 489.439
781 1 50.1106 11.9935 601 87.0499 1039.9 508.439
782 0 49.0358 10.319 506 89.5632 1039.63 508.221
783 0 52.1318 11.2791 588 87.5816 1040.37 507.061
784 0 53.1555 11.5134 612 89.1716 1040.49 505.368
785 0 55.1459 12.5667 693 88.2569 1040.3 502.688
786 0 56.2775 13.5045 760 87.1934 1041.16 502.393
787 0 62.2919 14.416 898 84.3864 1042.54 501.099
788 0 62.2267 13.9651 869 86.8446 1042.78 498.356
789 0 64.1252 12.7251 816 89.2623 1043.8 499.308
790 0 67.1261 13.7353 922 87.2202 1045.62 498.915
791 0 71.1329 15.942 1134 83.8078 1046.91 496.374
792 0 73.1187 14.2371 1041 86.5668 1048.74 497.474
793 0 76.225 13.224 1008 88.5436 1050.45 497.798
794 0 81.118 15.3603 1246 86.0786 1051.42 496.428
795 0 84.1052 12.9481 1089 90.0643 1052.16 494.363
796 1 45.0326 11.525 519 89.2659 1053.5 516.191
797 0 48.017 11.3918 547 88.064 1051.93 517.601
798 0 48.0452 11.6973 562 90.3488 1050.75 517.109
799 0 54.1571 12.7222 689 87.6836 1049.74 517.71
800 0 54.0376 13.25 716 89.7123 1047.55 514.856
801 0 55.2059 13.1508 726 88.876 1045.44 515.464
802 0 58.1034 12.3228 716 91.3059 1043.62 512.316
803 0 62.2185 14.1919 883 87.8335 1041.87 511.896
804 0 62.2295 13.4824 839 91.3468 1040.2 509.578
805 0 66.2228 15.4176 1021 87.5749 1039.37 507.141
806 0 69.241 11.5683 801 92.4407 1038.37 507.959
807 0 72.1678 15.27 1102 88.2096 1037.91 501.728
808 1 37.0356 10.5304 390 94.2667 1037.57 516.805
809 0 42.0591 11.2699 474 93.0633 1037.07 513.086
810 0 42.0657 10.7926 454 92.3612 1037.95 512.804
811 0 44.0552 11.985 528 89.2026 1038 511.536
812 0 46.1218 12.9657 598 89.8579 1037.73 509.351
813 0 47.0515 14.9198 702 85.8262 1038.48 506.326
814 0 48.0643 13.8981 668 86.6362 1041.07 506.668
815 0 49.1137 13.1531 646 88.144 1040.89 506.015
816 0 49.1664 11.9797 589 91.3854 1041.85 505.217
817 0 52.1632 15.2981 798 85.7494 1044.21 504.233
818 0 53.0639 13.5309 718 89.6031 1046.32 503.536
819 0 54.0336 14.0098 757 89.3263 1048.2 504.252
820 0 56.0366 15.3649 861 87.971 1048.85 503.114
821 0 58.1072 14.456 840 89.6238 1049.27 503.927
822 0 60.048 14.3885 864 90.5058 1050.49 503.087
823 0 62.0651 13.8242 858 92.4674 1051.09 503.002
824 0 66.0449 15.762 1041 87.3871 1050.65 503.256
825 0 68.1206 14.122 962 92.7484 1050.41 501.169
826 0 70.2021 15.5693 1093 90.452 1050.66 501.775
827 0 74.2692 14.4071 1070 92.7 1048.44 499.606
828 1 39.2423 12.6139 495 91.5879 1046.45 516.255
829 0 39.1697 9.6248 377 94.3873 1045.7 518.265
830 0 41.1782 10.831 446 93.852 1043.8 514.695
831 0 42.1564 10.5796 446 95.3969 1042.62 514.184
832 0 45.0546 12.5403 565 91.9345 1042.01 510.68
833 0 46.1658 11.7836 544 93.546 1040.88 510.77
834 0 47.0796 13.9763 658 89.6125 1040.6 509.356
835 0 50.3375 14.4028 725 89.3462 1040.95 506.412
836 0 50.1441 13.7803 691 90.5311 1040.65 505.562
837 0 52.1099 13.318 694 90.2478 1040.25 502.97
838 0 55.313 13.6857 757 88.6407 1041.44 502.89
839 0 55.1648 13.215 729 90.4102 1041.87 501.412
840 0 57.2055 14.5965 835 89.576 1042.13 499.22
841 0 60.2376 14.227 857 90.1097 1042.91 498.396
842 0 61.1974 13.3666 818 93.8117 1043.63 496.803
843 0 62.1446 12.4066 771 95.6874 1045.75 498.261
844 0 67.185 14.6312 983 91.8393 1046.64 497.985
845 0 68.1015 13.6267 928 94.3039 1048.16 498.898
846 0 72.2181 14.7332 1064 92.7857 1050.11 499.808
847 0 76.1226 16.0531 1222 92.1776 1051.05 495.98
848 0 78.0961 15.4553 1207 95.1417 1051.02 496.93
849 0 83.1877 15.9639 1328 94.2869 1052.07 495.983
850 1 44.1534 11.6865 516 98.3159 1052.23 517.734
851 0 46.0879 11.9988 553 99.66 1052.74 517.315
852 0 46.0746 11.655 537 101.114 1052.02 516.514
853 0 51.192 12.6582 648 97.6543 1050 517.667
854 0 53.2058 13.4384 715 95.5804 1047.81 516.259
855 0 56.2563 13.9718 786 95.2468 1046.48 515.004
856 0 57.2369 14.6759 840 92.4524 1045.42 511.933
857 0 61.2186 13.4926 826 94.3922 1042.8 510.981
858 0 63.1794 13.802 872 93.172 1041.87 509.006
859 0 66.1354 15.7253 1040 90.549 1040.07 505.442
860 0 69.2025 14.6526 1014 91.6341 1038.69 505.551
861 0 68.2093 13.8251 943 94.3902 1038.47 503.093
862 0 73.1797 16.2067 1186 89.7024 1037.9 500.649
863 0 72.2288 14.4679 1045 94.5321 1037.24 494.414
864 0 76.1718 14.848 1131 92.7118 1037.33 496.874
865 0 80.0998 13.7578 1102 96.6633 1037.67 494.296
866 1 45.2153 12.6064 570 93.2018 1038.5 510.758
867 0 42.2168 12.9095 545 92.2275 1038.53 510.363
868 0 44.2074 13.6629 604 90.8626 1039.5 508.518
869 0 46.1165 11.2541 519 94.2929 1041.43 509.538
870 0 48.0731 13.7291 660 92.6258 1042.48 506.842
871 0 49.1281 13.2511 651 93.5253 1043.14 507.894
872 0 50.1031 14.5101 727 93.1816 1045.39 507.615
873 0 53.1246 15.3225 814 93.4435 1046.75 505.246
874 0 56.1554 15.1366 850 92.2576 1047.35 507.019
875 0 57.182 14.55 832 93.5613 1047.88 507.495
876 0 59.1703 14.0104 829 95.7949 1048.79 506.21
877 0 63.3407 14.6825 930 95.5559 1049.19 506.281
878 0 66.3256 14.3534 952 97.8088 1048.62 506.228
879 0 65.203 13.1589 858 103.501 1048.99 504.592
880 0 70.1989 14.3307 1006 102.165 1048.76 504.416
881 0 74.3703 15.248 1134 99.8668 1047.46 502.145
882 0 76.3725 13.552 1035 103.491 1045.45 501.481
883 0 79.363 14.8558 1179 101.696 1043.97 498.735
884 0 83.4735 15.6457 1306 98.657 1041.73 495.423
885 0 85.4053 13.5823 1160 99.3138 1040.28 492.503
886 1 50.3182 12.9178 650 93.4585 1039.43 509.575
887 0 51.3047 11.6364 597 94.4305 1039.12 509.258
888 0 52.1634 12.4608 650 94.1046 1038.21 505.1
889 0 54.2588 13.7305 745 92.2081 1037.46 503.874
890 0 55.2618 14.2051 785 92.507 1037.69 502.177
891 0 58.3556 12.578 734 93.7725 1038.51 501.225
892 0 61.3255 15.4585 948 88.0485 1039.41 498.994
893 0 63.2628 15.0009 949 89.4847 1039.96 497.115
894 0 65.2431 15.2813 997 90.0221 1040.8 494.478
895 0 68.2603 17.4479 1191 86.2544 1041.75 492.002
896 0 68.2963 13.7196 937 93.7759 1042.42 491.054
897 0 73.6103 13.4628 991 93.7477 1044.83 491.607
898 0 73.451 14.3497 1054 93.3691 1045.52 488.454
899 0 78.2549 14.5422 1138 93.5026 1046.91 488.77
900 0 83.3594 15.3072 1276 91.0588 1049.36 489.078
901 1 45.3306 12.4199 563 90.1084 1052.14 510.755
902 0 47.3009 14.0166 663 89.1629 1053.71 509.068
903 0 49.0521 13.292 652 89.2699 1054.34 512.124
904 0 49.0455 13.7016 672 94.2039 1054.69 510.513
905 0 52.0557 13.6008 708 93.7104 1054.09 509.517
906 0 53.2748 13.008 693 95.1818 1053.52 511.606
907 0 59.0645 14.4588 854 91.5398 1051.58 512.136
908 0 60.074 14.4155 866 94.731 1049.27 511.13
909 0 63.0309 16.0239 1010 90.4248 1047.48 509.534
910 0 66.1714 16.2457 1075 89.3023 1045.8 507.865
911 0 67.1796 14.5133 975 92.0174 1043.74 506.01
912 0 69.1222 14.7854 1022 93.5108 1042.42 505.152
913 0 73.0788 16.2564 1188 91.2837 1041.1 502.763
914 0 76.102 16.2939 1240 92.1661 1039.91 501.581
915 0 79.2671 15.4036 1221 92.2604 1038.88 498.67
916 0 81.1108 15.8672 1287 92.4654 1038.94 495.991
917 0 84.1715 15.5872 1312 93.4085 1038.9 494.274
918 0 86.3463 13.1563 1136 98.8609 1039.71 491.494
919 1 48.1712 13.3897 645 93.7318 1040.01 508.724
920 0 52.1625 12.902 673 95.2273 1039.98 507.495
921 0 53.066 13.0215 691 96.7988 1039.97 505.233
922 0 56.3082 13.3728 753 95.6892 1040.75 505.996
923 0 56.1968 12.8121 720 96.8486 1040.22 505.725
924 0 60.1131 14.5393 874 92.8787 1041.45 503.183
925 0 62.091 14.4143 895 94.7754 1043 502.971
926 0 63.1614 14.5817 921 94.1281 1045.21 502.261
927 0 68.2003 15.953 1088 90.8778 1046.97 501.487
928 0 68.1944 14.5613 993 95.142 1048.28 500.808
929 0 72.2187 15.4392 1115 94.5722 1050.02 501.061
930 0 75.2132 14.9841 1127 97.4525 1050.14 500.833
931 0 79.1895 15.7092 1244 96.4381 1050.61 500.977
932 0 81.1742 13.6989 1112 99.8696 1049.65 501.87
933 1 48.1479 11.797 568 95.9912 1048.2 519.891
934 0 49.039 11.9497 586 96.4522 1046.96 519.312
935 0 51.2255 13.138 673 96.0936 1045.46 518.536
936 0 52.1277 14.2343 742 93.8329 1043.66 516.08
937 0 54.1406 13.114 710 97.3958 1041.96 515.241
938 0 52.1221 14.1015 735 99.0544 1040.08 511.146
939 0 57.0591 14.4937 827 96.0423 1038.93 510.802
940 0 60.2643 13.9884 843 97.9715 1037.69 506.593
941 0 61.2115 13.919 852 97.2042 1037.3 506.059
942 0 64.0904 15.3065 981 96.5576 1036.27 502.025
943 0 66.5127 13.411 892 98.4327 1035.92 503.197
944 0 69.1351 14.7103 1017 96.5585 1036.2 498.388
945 0 70.1636 14.3949 1010 98.3673 1036.31 494.965
946 1 36.0193 10.883 392 100.023 1036.7 510.934
947 0 39.0996 10.5628 413 96.4407 1037.28 512.111
948 0 37.0446 9.82599 364 98.7472 1038.94 511.126
949 0 41.0287 12.6253 518 96.9151 1039.42 507.909
950 0 40.047 11.3617 455 99.6352 1040.11 508.235
951 0 41.0365 11.77 483 100.563 1041.25 506.654
952 0 44.0175 13.949 614 97.0896 1044.64 505.428
953 0 48.2102 13.6071 656 96.1875 1045.69 507.538
954 0 48.1508 14.3507 691 97.204 1047.82 505.019
955 0 49.1984 13.2321 651 100.095 1049.96 506.525
956 0 52.1631 12.6526 660 100.047 1051.52 506.398
957 0 55.1353 13.7843 760 98.8382 1052.78 505.961
958 0 57.1488 13.9286 796 98.4749 1053.1 507.618
959 0 59.1234 14.1061 834 99.7686 1052.28 504.995
960 0 62.3155 13.4958 841 102.195 1051.87 505.439
961 0 66.3472 13.565 900 101.631 1051.03 506.544
962 0 69.0982 13.5315 935 103.25 1049.74 505.909
963 1 37.1349 10.3137 383 105.316 1048.54 521.405
964 0 40.1172 10.1702 408 107.37 1046.73 520.311
965 0 42.1642 11.811 498 103.434 1045.11 518.896
966 0 43.0513 11.5676 498 103.155 1043.46 518.243
967 0 47.3178 12.2364 579 101.82 1042.48 516.318
968 0 46.2016 12.6619 585 103.436 1041.71 514.222
969 0 49.037 13.1126 643 102.67 1040.67 512.417
970 0 51.1018 14.5396 743 100.59 1039.34 508.16
971 0 53.0741 12.8876 684 103.427 1039.36 507.757
972 0 53.1185 13.1216 697 104.459 1039.66 505.238
973 0 56.2704 12.742 717 103.601 1039.23 503.28
974 0 60.2074 14.3172 862 101.584 1040.12 499.814
975 0 61.2569 14.578 893 102.077 1040.32 499.429
976 0 65.1169 15.4952 1009 98.5382 1041.31 498.909
977 0 67.2628 14.3021 962 101.696 1041.58 495.58
978 0 70.3194 14.619 1028 100.951 1043.08 495.091
979 0 72.2988 14.7167 1064 101.806 1044.63 494.111
980 0 75.2004 14.9733 1126 101.414 1046.13 494.544
981 0 80.18 14.2679 1144 102.553 1048.21 492.602
982 0 81.1997 13.2636 1077 105.486 1049.79 492.63
983 1 43.1987 11.1346 481 104.674 1051.76 512.106
984 0 45.2185 11.743 531 104.147 1053.44 511.836
985 0 48.1299 12.8402 618 103.259 1054.19 512.202
986 0 51.1868 12.64 647 103.717 1054.27 512.221
987 0 52.2663 13.0103 680 106.188 1053.45 512.515
988 0 57.2189 13.929 797 101.852 1052.25 511.841
989 0 58.3324 14.2631 832 102.708 1051.3 512.543
990 0 60.2701 14.7669 890 101.822 1049.63 512.789
991 0 62.1857 14.0708 875 105.002 1048.16 510.049
992 0 66.1245 15.4254 1020 101.31 1047.06 506.771
993 0 69.2673 14.2924 990 102.768 1044.43 504.546
994 0 73.245 15.6871 1149 99.0705 1043.31 503.456
995 0 76.2669 15.9702 1218 100.155 1041.28 498.062
996 1 38.1456 10.1191 386 102.443 1040.66 519.256
997 0 42.1994 12.6542 534 103.582 1040.96 512.406
998 0 43.1049 12.3884 534 103.534 1041.03 510.545
999 0 46.1011 13.3619 616 100.773 1040.95 509.271
1000 0 47.1127 13.8179 651 98.7373 1040.42 510.501
1001 0 48.1718 12.7668 615 104.611 1040.39 505.423
1002 0 50.0549 15.1833 760 98.8842 1039.83 505.384
1003 0 50.1389 14.2005 712 102.228 1039.99 503.531
1004 0 51.1174 13.1853 674 104.887 1040.96 504.074
1005 0 55.1819 14.3344 791 101.922 1041.94 502.101
1006 0 55.1402 15.5059 855 100.269 1044.1 502.193
1007 0 57.1018 14.0451 802 103.167 1045.46 502.216
1008 0 60.2154 14.8135 892 101.706 1047.4 502.895
1009 0 63.228 15.3888 973 101.871 1048.55 500.319
1010 0 64.2735 14.1116 907 104.891 1051.81 502.762
1011 0 67.1694 15.2599 1025 103.451 1052.38 502.144
1012 0 72.3234 14.0065 1013 105.989 1052.72 500.523
1013 0 75.2692 15.2386 1147 104.752 1053.51 499.528
1014 0 79.3393 15.3014 1214 105.386 1052.82 498.092
1015 1 41.2007 9.90275 408 109.919 1051.67 519.613
1016 0 44.2186 11.6015 513 108.764 1050.83 518.801
1017 0 45.1054 11.0851 500 109.482 1049.4 518.93
1018 0 48.1623 13.7452 662 103.897 1047.23 516.81
1019 0 51.0388 14.538 742 102.868 1046.42 515.336
1020 0 54.1953 15.4626 838 100.905 1044.29 514.653
1021 0 56.071 14.8027 830 102.925 1043.14 513.52
1022 0 56.118 14.416 809 105.382 1042.7 509.939
1023 0 59.1649 14.9751 886 105.71 1042.03 506.496
1024 0 63.0849 15.3761 970 108.243 1040.86 504.672
1025 0 64.1476 16.5244 1060 102.146 1040.5 503.846
1026 0 65.1146 14.9275 972 107.745 1041.06 499.73
1027 0 69.2583 14.713 1019 107.957 1040.89 498.165
1028 0 71.1757 15.4407 1099 109.028 1040.66 494.207
1029 0 72.2216 14.0955 1018 113.425 1041.02 492.975
1030 1 40.0723 10.3064 413 116.944 1041.01 509.499
1031 0 43.0867 11.883 512 114.449 1041.55 508.371
1032 0 45.0811 12.6661 571 111.86 1042.83 508.021
1033 0 47.2065 11.8628 560 113.238 1044.12 508.454
1034 0 47.1184 11.4393 539 117.529 1045.86 506.69
1035 0 49.17 12.9957 639 113.706 1048.15 507.067
1036 0 52.1922 13.2587 692 112.182 1048.86 507.798
1037 0 55.1635 14.9193 823 110.357 1050.86 506.232
1038 0 56.0806 14.818 831 111.839 1052.32 506.627
1039 0 57.091 15.0637 860 111.199 1053.42 509.392
1040 0 59.0257 14.4175 851 115.062 1053.39 507.08
1041 0 64.1453 15.2622 979 110.822 1053.11 508.533
1042 0 65.1055 13.3783 871 117.095 1052.12 506.633
1043 0 69.1371 14.5508 1006 114.672 1051.61 504.634
1044 0 75.1695 15.9905 1202 109.299 1051.53 507.232
1045 0 78.1804 16.5643 1295 109.206 1049.59 501.025
1046 0 83.1985 15.6734 1304 111.192 1047.33 501.406
1047 1 44.0653 10.144 447 120.859 1045.27 518.447
1048 0 47.1965 11.0601 522 117.921 1044.78 516.99
1049 0 49.0748 13.184 647 116.985 1042.96 512.303
1050 0 50.0604 13.1441 658 117.233 1040.87 511.187
1051 0 51.1117 13.7346 702 118.319 1039.76 508.171
1052 0 56.0475 14.1844 795 113.896 1039.55 507.945
1053 0 57.0553 13.9339 795 115.2 1039.77 505.497
1054 0 59.079 15.2338 900 112.251 1039.77 502.183
1055 0 61.0889 14.6508 895 113.839 1040.27 500.019
1056 0 63.0657 14.4611 912 114.122 1040.76 498.168
1057 0 65.2466 14.8973 972 113.272 1040.74 496.47
1058 0 67.1702 14.828 996 112.641 1041.52 495.43
1059 0 71.1671 15.1756 1080 110.752 1042.84 492.82
1060 0 74.0964 15.2369 1129 109.393 1044.5 492.854
1061 0 77.275 14.1831 1096 111.734 1046.43 491.32
1062 0 77.2095 13.7418 1061 114.34 1047.72 489.61
1063 0 83.2909 14.5994 1216 109.896 1049.32 490.482
1064 0 84.1322 15.6777 1319 109.03 1050.86 487.218
1065 0 91.1978 16.0092 1460 108.032 1052.54 485.826
1066 0 92.3239 14.7199 1359 111.617 1054.76 484.414
1067 0 97.2377 15.9815 1554 109.076 1055.47 483.862
1068 0 102.16 14.7808 1510 111.264 1055.02 483.199
1069 0 106.159 14.8269 1574 111.496 1053.68 481.918
1070 0 113.279 15.7487 1784 109.152 1052.27 478.69
1071 0 118.286 14.6509 1733 112.329 1050.72 477.642
1072 0 125.47 15.685 1968 110.077 1050.12 473.406
1073 0 133.212 15.922 2121 109.199 1048.88 471.712
1074 1 72.1392 12.2957 887 111.921 1047.84 500.547
1075 0 75.1105 13.9927 1051 108.902 1045.84 497.361
1076 0 78.2777 13.7587 1077 110.484 1045.07 493.318
1077 0 82.2947 13.4517 1107 111.008 1044.16 492.318
1078 0 85.304 14.7707 1260 108.613 1043.19 488.417
1079 0 88.2617 14.1964 1253 109.092 1043.06 486.256
1080 0 92.3397 14.9232 1378 108.221 1043.39 482.138
1081 1 50.1354 10.3918 521 107.647 1043.34 503.603
1082 0 52.0523 10.8353 564 107.17 1043.82 501.113
1083 0 53.0427 11.2928 599 107.74 1044.06 499.245
1084 0 54.1795 12.274 665 106.693 1043.68 497.146
1085 0 57.1885 12.485 714 106.924 1044.45 495.945
1086 0 58.1574 12.8788 749 105.661 1045.46 495.431
1087 0 60.1037 13.7429 826 104.419 1046.33 493.829
1088 0 63.1824 13.3423 843 103.491 1048.69 495.103
1089 0 65.4416 13.1568 861 103.236 1050.72 493.929
1090 0 68.1702 13.2169 901 102.158 1052.11 493.473
1091 0 71.2777 12.2759 875 104.233 1053.39 491.967
1092 0 75.2003 13.2313 995 100.636 1054.66 491.82
1093 0 79.3218 13.7793 1093 98.8536 1055.34 492.843
1094 0 81.3705 13.9117 1132 98.9691 1054.76 491.412
1095 0 85.3206 14.0763 1201 98.7843 1055.06 490.191
1096 0 90.4555 14.3496 1298 98.3852 1054.21 488.928
1097 0 94.3367 13.9712 1318 100.513 1054.84 488.355
1098 0 97.2347 14.3364 1394 98.741 1052.81 487.252
1099 1 55.1547 9.50055 524 98.855 1051.22 511.96
1100 0 55.1764 10.6205 586 99.7133 1049.5 509.483
1101 0 59.2047 11.3167 670 97.8866 1048.36 507.331
1102 0 60.1293 11.442 688 98.8765 1046.79 506.221
1103 0 62.1801 12.9784 807 95.3903 1045.62 504.727
1104 0 65.2371 12.6002 822 97.3102 1044.41 501.084
1105 0 64.3005 12.1305 780 99.841 1043.4 497.533
1106 0 69.1528 12.87 890 96.9753 1043.95 496.948
1107 0 70.4162 12.6391 890 97.7011 1043.39 493.675
1108 0 74.2456 14.2096 1055 94.8379 1042.84 490.69
1109 0 76.5088 14.0507 1075 95.9498 1043.04 487.665
1110 0 79.4145 14.3173 1137 95.9877 1042.78 485.22
1111 0 80.3092 13.7842 1107 97.2466 1043.63 482.711
1112 0 84.3628 13.9279 1175 96.9668 1044.36 483.612
1113 0 84.2638 14.5377 1225 98.0082 1044.64 480.951
1114 0 88.4969 14.622 1294 97.4049 1046.83 479.704
1115 0 92.5471 13.6687 1265 100.131 1047.52 478.505
1116 0 95.4009 14.8112 1413 97.356 1049.05 477.667
1117 0 97.6767 14.1282 1380 101.363 1049.95 476.054
1118 0 103.412 15.4431 1597 99.0802 1052.19 475.775
1119 0 106.233 15.8801 1687 98.5021 1053.62 475.951
1120 0 111.557 15.5077 1730 99.5341 1055.03 475.787
1121 1 59.1992 9.39203 556 104.009 1055.7 503.942
1122 0 62.209 10.2879 640 103.966 1056.35 503.767
1123 0 69.2875 15.3707 1065 94.3981 1055.93 502.823
1124 0 71.2947 13.6756 975 98.4164 1054.24 503.23
1125 0 74.2506 14.2356 1057 99.1627 1052.46 500.886
1126 0 77.2548 13.8632 1071 99.7927 1049.92 499.789
1127 0 81.1722 13.5884 1103 101.616 1048.5 498.196
1128 0 84.265 14.1221 1190 100.679 1047.26 495.643
1129 0 89.3059 14.5007 1295 99.3652 1045.26 495.14
1130 0 92.15 14.7585 1360 99.6765 1044.25 490.254
1131 0 93.216 13.8495 1291 102.791 1043.6 486.267
1132 0 99.14 15.2915 1516 98.0086 1043.23 486
1133 0 100.164 13.6876 1371 102.317 1042.31 481.647
1134 0 104.167 14.64 1525 100.544 1042.36 479.004
1135 0 107.281 14.3641 1541 100.352 1042.87 474.675
1136 0 112.265 14.2787 1603 100.658 1043.78 471.593
1137 0 115.267 13.9068 1603 100.582 1043.3 469.585
1138 0 121.144 15.106 1830 98.6874 1043.45 467.726
1139 0 121.215 13.1502 1594 103.117 1043.85 462.882
1140 1 70.0542 10.5918 742 100.974 1044.64 492.112
1141 0 75.0942 12.4244 933 98.6388 1045.12 490.25
1142 0 78.1606 13.3955 1047 96.4069 1046.51 490.961
1143 0 78.0453 13.0053 1015 100 1048.5 488.971
1144 0 83.1042 13.838 1150 98.6365 1049.72 487.593
1145 0 86.1098 13.9938 1205 99.0664 1051.78 489.925
1146 0 89.1354 12.8007 1141 101.943 1053.11 487.523
1147 0 92.1267 14.8708 1370 99.6482 1053.73 487.101
1148 0 96.2792 13.7517 1324 103.813 1054.87 486.475
1149 1 54.1603 10.7643 583 98.988 1055.96 511.539
1150 0 55.1321 9.26865 511 104.515 1054.6 507.25
1151 0 60.0795 12.2837 738 99.1653 1052.78 508.649
1152 0 59.102 12.6561 748 101.068 1051.4 506.207
1153 0 57.0231 8.28922 224 100.661 1050 522.763
1154 0 58.0096 7.89014 221 100.271 1049.46 524.353
1155 0 60.0298 8.55452 274 100.179 1047.82 521.898
1156 0 61.0778 5.98706 216 103.199 1045.85 521.352
1157 0 62.0372 7.12449 214 101.35 1044.39 520.967
1158 0 63.0388 9.26183 306 100.232 1043.38 518.078
1159 0 65.035 7.23474 239 103.456 1042.52 517.908
1160 1 85.0846 13.704 1166 102.555 1042.02 494.116
1161 0 86.1592 13.2894 1145 104.764 1041.35 491.403
1162 0 90.1836 14.914 1345 102.546 1041.17 487.474
1163 0 91.2046 14.4401 1317 105.446 1041.66 482.692
1164 0 95.3538 14.9444 1425 103.242 1041.6 481.339
1165 0 97.0638 14.6089 1418 104.726 1042.01 480.941
1166 0 101.383 14.5981 1480 106.039 1042.38 475.297
1167 0 103.141 12.9144 1332 109.236 1042.63 475.626
1168 1 56.0865 10.1272 568 103.014 1044.21 501.021
1169 0 59.1431 10.6521 630 102.573 1045.19 498.889
1170 0 61.0571 13.0697 798 99.2318 1045.95 497.015
1171 0 64.0876 13.6532 875 97.6937 1048.88 495.149
1172 0 67.0764 13.9542 936 97.2532 1051.16 495.015
1173 0 69.0749 13.4926 932 99.0408 1052.15 494.414
1174 0 71.1298 13.0466 928 98.3653 1053.87 495.938
1175 0 76.1905 13.44 1024 97.707 1055.41 493.629
1176 0 80.2849 14.4859 1163 96.5984 1055.49 492.457
1177 0 83.1373 12.9184 1074 100.979 1056.01 491.563
1178 0 85.1384 13.4252 1143 100.26 1056.1 491.808
1179 0 90.2283 13.9978 1263 100.018 1055.58 492.304
1180 0 94.1735 13.2627 1249 100.812 1054.25 490.586
1181 0 97.3061 12.8872 1254 102.518 1053.41 488.995
1182 0 102.211 14.607 1493 99.4434 1051.12 485.338
1183 0 106.176 13.3552 1418 101.223 1050.56 484.089
1184 1 59.1677 10.597 627 98.2887 1049.23 509.483
1185 0 61.0701 12.1663 743 98.7456 1047.64 504.318
1186 0 65.0679 12.8328 835 96.5952 1045.8 502.146
1187 0 67.2371 12.7162 855 98.4912 1044.97 499.342
1188 0 71.1969 13.2028 940 97.1979 1043.93 494.319
1189 0 73.2202 12.5785 921 98.4267 1043.53 490.977
1190 0 78.2781 14.4102 1128 93.9965 1043.11 489.77
1191 0 80.2768 12.4071 996 97.6084 1042.43 487.704
1192 0 85.2837 13.7541 1173 94.8576 1042.81 484.338
1193 0 87.1976 14.794 1290 95.0954 1043.4 480.706
1194 1 49.0581 10.8851 534 94.0037 1044.42 502.944
1195 0 49.2068 11.157 549 94.4991 1045.14 500.798
1196 0 51.0515 11.89 607 93.8929 1045.94 499.507
1197 0 52.1953 11.8401 618 95.6359 1048.07 498.599
1198 0 54.1476 12.0596 653 96.7795 1049.05 496.73
1199 0 58.1231 13.4026 779 93.5148 1050.57 497.576
1200 0 60.2055 13.0387 785 94.4229 1052.65 497.359
1201 0 61.3439 12.6826 778 96.8779 1055.66 497.37
1202 0 64.6134 13.1706 851 96.2174 1056.07 494.754
1203 0 66.4194 13.0835 869 96.58 1056.53 494.723
1204 0 69.2981 12.439 862 97.1183 1057.67 494.577
1205 0 74.7246 15.0553 1125 91.1911 1057.73 492.829
1206 0 77.5752 13.922 1080 93.4278 1057.26 495.044
1207 0 81.5157 14.8192 1208 92.947 1056.41 491.743
1208 0 84.6117 14.5252 1229 94.6135 1055.2 490.718
1209 1 46.654 11.4888 536 95.9179 1053.83 510.013
1210 0 48.51 12.616 612 94.5082 1052.63 508.417
1211 0 51.5254 10.8684 560 95.7304 1050.75 511.612
1212 0 52.5019 12.571 660 95.2545 1049.8 507.941
1213 0 55.1542 14.4323 796 91.5641 1047.81 505.356
1214 0 57.3847 12.0241 690 96.5246 1046.4 504.429
1215 0 58.209 13.1595 766 94.7389 1045.04 501.843
1216 0 60.3777 12.604 761 95.8962 1044.28 498.761
1217 0 64.3547 13.4411 865 93.6312 1044.27 496.786
1218 0 66.4297 13.7137 911 92.4962 1044.55 493.507
1219 0 68.3868 13.3213 911 93.5993 1044.25 490.538
1220 0 71.3794 14.6401 1045 90.6297 1044.12 486.833
1221 0 72.5052 13.7094 994 92.8853 1044.96 486.891
1222 0 76.5094 13.6846 1047 92.3773 1045.19 482.904
1223 0 78.388 12.8336 1006 93.0636 1046.29 482.241
1224 1 41.2053 10.0958 416 91.7596 1047.63 502.481
1225 0 43.2669 10.4237 451 90.7982 1050.26 501.596
1226 0 44.2122 11.5579 511 90.2074 1051.38 500.84
1227 0 45.3508 11.0252 500 90.472 1053.12 501.59
1228 0 48.2688 12.9897 627 87.2951 1054.54 501.632
1229 0 51.4085 14.8224 762 84.5499 1055.71 501.854
1230 0 52.3419 12.5139 655 88.3191 1056.56 501.702
1231 0 55.6802 13.2902 740 87.2689 1057.21 502.522
1232 0 57.3618 12.7437 731 88.1902 1057.57 501.12
1233 0 59.6467 12.8758 768 87.9219 1057.29 501.47
1234 0 63.3116 13.7415 870 86.9586 1056.47 501.709
1235 0 65.6196 12.5725 825 89.36 1054.29 499.87
1236 0 70.4369 15.1767 1069 84.638 1053.77 498.4
1237 0 76.6704 16.5383 1268 82.2492 1052.16 497.019
1238 0 78.8284 14.7155 1160 85.1767 1050.3 499.344
1239 1 42.4169 12.2593 520 87.1154 1049.24 512.6
1240 0 44.4822 11.0156 490 89.6612 1047.08 511.139
1241 0 47.3381 10.2455 485 89.899 1046 511.109
1242 0 49.2977 12.6781 625 88.3456 1044.99 506.634
1243 0 51.3982 13.0744 672 86.9271 1043.95 505.247
1244 0 54.3573 13.5216 735 84.7265 1043.03 504.105
1245 0 57.3454 13.8459 794 85.5453 1043.19 499.715
1246 0 58.1333 13.4002 779 87.24 1042.84 502.602
1247 0 59.3826 14.1624 841 86.9738 1042.7 499.131
1248 0 62.3125 15.3741 958 84.5365 1044.58 496.39
1249 0 65.2162 14.7663 963 85.5919 1044.11 495.777
1250 0 67.3324 14.7329 992 85.8861 1044.89 495.064
1251 1 35.3832 7.99814 283 90.1449 1045.12 509.343
1252 0 38.3365 11.8164 453 87.1965 1045.58 507.011
1253 0 40.421 11.0833 448 86.0759 1047.98 508.165
1254 0 41.3526 10.6402 440 88.3818 1049.82 507.573
1255 0 41.2383 13.3614 551 84.8766 1052.27 509.005
1256 0 46.1799 11.9532 552 87.0453 1054.39 509.053
1257 0 45.1234 11.9672 540 90.4518 1055.82 508.641
1258 0 48.0498 14.1936 682 86.5484 1056.02 510.24
1259 0 51.0395 13.4798 688 87.1119 1055.95 512.346
1260 0 48.163 11.7102 564 93.5301 1054.77 511.043
1261 0 55.0609 14.2933 787 87.0686 1054.54 511.933
1262 0 57.0681 13.5452 773 89.1514 1053.22 511.622
1263 0 60.4136 13.8214 835 88.7078 1052.1 511.742
1264 0 61.1325 12.5956 770 91.6221 1050.13 509.943
1265 0 65.1619 14.2721 930 89.4097 1048.16 508.11
1266 0 67.3499 15.9911 1077 87.3547 1046.75 504.231
1267 0 68.2059 13.9284 950 90.98 1044.83 503.025
1268 0 72.19 14.8636 1073 90.1044 1044.29 499.054
1269 0 74.2853 15.6693 1164 89.4313 1042.8 494.885
1270 0 78.3424 16.1854 1268 87.7461 1043.12 495.474
1271 1 42.1473 8.5652 361 95.7424 1043.42 511.634
1272 0 45.2296 12.3592 559 93.4436 1041.45 506.252
1273 0 46.1831 12.9918 600 90.83 1042.22 505.585
1274 0 50.1473 12.5231 628 90.9729 1041.12 504.384
1275 0 49.2331 13.7712 678 90.8658 1041.71 502.473
1276 0 51.2681 14.2389 730 89.9904 1042.72 500.818
1277 0 53.2475 14.0288 747 91.2316 1043.5 499.886
1278 0 55.1261 14.5666 803 89.614 1044.21 499.646
1279 0 57.1292 15.0536 860 90.1837 1046.56 497.888
1280 0 59.1834 14.9704 886 89.9797 1048.3 496.714
1281 0 62.1608 14.3338 891 91.4074 1050.86 498.079
1282 0 63.1416 16.1542 1020 89.548 1052.05 496.663
1283 0 67.1694 16.1085 1082 89.4372 1053.62 498.633
1284 0 70.2018 15.5409 1091 91.3602 1055.33 497.619
1285 0 73.2136 15.6938 1149 91.6623 1055.51 497.869
1286 0 75.1512 15.0364 1130 94.0956 1054.99 497.906
1287 0 79.4726 15.477 1230 93.3285 1054.77 499.125
1288 0 81.26 15.272 1241 95.3787 1053.71 494.944
1289 0 87.3249 16.2153 1416 93.5869 1052.69 491.268
1290 0 90.4271 16.5548 1497 95.4041 1051.87 490.375
1291 0 93.3326 15.9108 1485 97.0007 1050.57 488.542
1292 0 99.2149 16.3685 1624 95.742 1049.73 486.38
1293 1 52.1626 9.73879 508 101.327 1049 511.482
1294 0 56.2652 12.21 687 96.3057 1048.14 508.7
1295 0 56.1502 13.8023 775 96.5032 1046.58 504.803
1296 0 57.1453 13.4744 770 98.2649 1045.88 502.265
1297 0 60.3343 13.1766 795 98.6314 1045.76 499.557
1298 0 64.0997 14.0718 902 97.1497 1044.99 496.435
1299 0 67.3017 14.9328 1005 95.4935 1043.54 495.801
1300 0 68.1599 15.9184 1085 94.0977 1043.22 493.071
1301 0 72.2616 16.2742 1176 93.0969 1043.86 490.658
1302 0 74.525 15.4311 1150 94.8913 1044.55 488.646
1303 0 74.3069 14.2517 1059 98.542 1045.53 489.028
1304 0 79.2257 16.6108 1316 94.4833 1046.69 486.264
1305 0 79.343 14.5696 1156 100.274 1048.93 483.252
1306 0 82.4478 15.4158 1271 98.3651 1050.22 484.459
1307 0 88.1743 15.3559 1354 97.24 1052.65 485.349
1308 0 92.4637 15.9306 1473 97.0428 1055.02 481.953
1309 0 96.3614 15.7739 1520 97.8697 1055.25 480.371
1310 1 53.1938 12.8962 686 99.4767 1056.65 504.201
1311 0 55.215 13.6919 756 98.5701 1057.78 503.381
1312 0 58.094 13.5814 789 99.2674 1057.3 502.521
1313 0 60.1996 14.0034 843 98.6465 1057.82 503.148
1314 0 64.0762 17.0266 1091 92.4785 1057.94 502.679
1315 0 67.068 15.0444 1009 96.7076 1057.22 503.002
1316 0 69.0499 14.4678 999 99.1662 1055.33 501.645
1317 0 75.2413 15.0449 1132 97.1581 1054.52 500.587
1318 0 78.0959 16.1724 1263 95.4093 1053.67 497.341
1319 0 81.2003 14.5197 1179 98.8804 1051.82 495.964
1320 0 84.4023 15.2721 1289 99.1125 1050.2 493.355
1321 0 89.47 15.6701 1402 98.3773 1048.83 488.026
1322 0 92.4411 14.9609 1383 99.6746 1047.94 489.303
1323 0 97.373 16.1955 1577 98.5016 1046.51 481.904
1324 1 51.3428 12.6795 651 102.358 1046.01 502.544
1325 0 53.3428 12.6352 674 102.463 1045.52 500.957
1326 0 54.2538 13.2341 718 103.079 1045.68 498.74
1327 0 57.313 13.8188 792 102.29 1045.52 496.907
1328 0 59.1862 14.6149 865 100.354 1046.29 497.749
1329 0 62.1815 16.0337 997 97.0863 1048.34 494.656
1330 0 62.1304 14.7271 915 100.648 1049.34 493.568
1331 0 65.1548 14.2123 926 101.355 1049.71 490.901
1332 0 69.1862 15.4511 1069 98.5837 1050.3 490.867
1333 0 73.2008 13.9889 1024 101.044 1052.18 491.383
1334 0 75.4927 15.9353 1203 98.2585 1053.53 489.601
1335 0 75.2355 13.5043 1016 104.51 1055.74 488.011
1336 0 82.2818 15.0094 1235 99.8672 1058.35 490.344
1337 0 85.3699 15.3801 1313 99.9155 1058.62 487.756
1338 0 88.1633 14.768 1302 101.343 1059.34 486.915
1339 0 91.3169 14.4114 1316 102.031 1059.76 486.732
1340 0 96.3627 13.9681 1346 102.284 1059.17 483.767
1341 1 52.1502 11.9463 623 103.637 1058.03 505.915
1342 0 57.219 11.5696 662 101.896 1056.96 508.438
1343 0 61.2328 14.1754 868 97.9021 1055.4 506.039
1344 0 63.2029 12.9108 816 100.092 1054.95 506.238
1345 0 69.281 14.8237 1027 96.1217 1053.14 503.208
1346 0 70.275 13.9737 982 99.2699 1051.77 500.55
1347 0 74.2665 14.6365 1087 97.0064 1050.39 497.659
1348 0 77.1608 15.2539 1177 97.4749 1049.18 496.085
1349 0 81.3408 15.0355 1223 97.825 1048.4 492.83
1350 0 84.255 15.4175 1299 98.6913 1046.35 489.467
1351 0 87.5467 14.7007 1287 100.738 1045.6 486.303
1352 0 90.3786 15.6232 1412 100.204 1045.26 483.873
1353 0 92.4331 15.7195 1453 100.018 1045.2 480.959
1354 0 96.2442 14.6191 1407 102.272 1045.87 477.478
1355 1 54.1974 12.1961 661 98.5477 1047.1 500.985
1356 0 54.2794 10.796 586 102.015 1047.36 499.659
1357 0 57.1984 11.5388 660 101.564 1048.52 498.029
1358 0 56.2745 11.4794 646 103.406 1048.57 496.664
1359 0 60.0939 12.9464 778 100.539 1049.11 494.6
1360 0 63.1963 12.928 817 99.4113 1051.74 495.884
1361 0 65.1631 12.2769 800 100.845 1053.34 496.265
1362 0 70.1959 14.4168 1012 96.4229 1055.86 494.726
1363 0 72.2765 13.6559 987 97.9909 1057.64 495.103
1364 0 77.365 13.7659 1065 97.2751 1058.55 494.781
1365 0 76.2105 14.0926 1074 97.8762 1058.58 495.441
1366 0 82.2586 13.7372 1130 98.8522 1059.52 493.915
1367 0 86.3269 13.8891 1199 98.824 1058.37 494.398
1368 0 91.4618 13.7434 1257 99.471 1057.24 490.607
1369 0 94.2323 14.3794 1355 98.6155 1055.71 489.98
1370 0 98.3601 13.8776 1365 100.448 1053.89 487.257
1371 0 103.271 15.164 1566 98.2976 1052.21 485.212
1372 0 107.232 12.7014 1362 102.573 1050.96 482.047
1373 1 59.1452 10.415 616 97.8442 1050.48 509.062
1374 0 61.2562 11.003 674 100.04 1048.79 503.012
1375 0 64.1912 13.2573 851 95.9847 1047.37 501.087
1376 0 67.2036 12.8267 862 97.2111 1045.61 496.514
1377 0 68.2224 11.7557 802 99.9626 1045.25 494.086
1378 0 73.3045 14.0237 1028 95.286 1044.45 491.624
1379 0 76.098 13.9294 1060 96.2104 1044.22 489.23
1380 0 79.1425 13.204 1045 97.9512 1044.94 485.968
1381 0 82.1273 13.0651 1073 98.5592 1045.26 484.654
1382 0 84.2003 14.9049 1255 95.7952 1045.86 484.265
1383 0 88.2833 14.2043 1254 97.7935 1046.73 482.755
1384 0 89.181 14.2631 1272 98.4324 1047.47 477.684
1385 0 93.1869 13.5319 1261 100.652 1048.75 478.458
1386 0 96.2799 13.3569 1286 100.944 1050.11 476.001
1387 0 102.335 14.1105 1444 98.7161 1051.98 475.443
1388 0 105.243 14.3477 1510 99.0616 1055.11 473.179
1389 0 107.393 12.4403 1336 103.252 1056.74 473.159
1390 0 114.233 12.9209 1476 100.619 1057.23 470.871
1391 1 63.1106 9.7448 615 97.7935 1058.84 500.525
1392 0 69.1246 12.2822 849 97.0177 1058.68 500.847
1393 0 71.1376 13.6777 973 96.149 1057.81 499.549
1394 0 75.1322 12.9372 972 96.1965 1056.9 499.862
1395 0 79.2416 13.2128 1047 96.5654 1055.87 500.212
1396 0 81.092 13.1826 1069 98.6717 1054.16 497.08
1397 0 85.1645 14.1021 1201 97.99 1051.97 497.273
1398 0 89.2 13.5202 1206 99.8035 1051.42 496.881
1399 0 91.3149 13.2947 1214 102.147 1048.72 493.219
1400 0 94.2374 12.9036 1216 104.77 1047.34 488.471
1401 0 99.2999 13.1621 1307 103.511 1046.95 489.948
1402 0 101.181 14.3406 1451 103.151 1044.68 486.457
1403 0 105.277 14.2576 1501 103.69 1044.18 485.553
1404 0 107.345 13.4612 1445 107.278 1043.65 479.456
1405 1 63.1492 12.5259 791 102.442 1043.69 502.789
1406 0 62.1322 10.9927 683 107.015 1043.66 501.665
1407 0 63.3699 11.7406 744 106.96 1043.49 497.555
1408 0 65.2922 11.3184 739 107.839 1044.98 499.773
1409 0 68.2966 15.1984 1038 100.091 1045.14 494.828
1410 0 71.2038 13.679 974 99.7012 1046.45 495.02
1411 0 73.2021 14.0706 1030 101.506 1046.35 494.831
1412 0 73.1533 12.8361 939 106.485 1047.19 493.307
1413 0 73.41 13.1726 967 107.655 1047.9 493.553
1414 0 77.3376 13.6027 1052 107.321 1050.01 492.739
1415 0 79.2441 13.2754 1052 108.914 1052.2 492.995
1416 0 82.2994 13.864 1141 108.615 1053.61 493.64
1417 0 82.3951 13.7751 1135 111.936 1054.2 492.989
1418 0 85.2414 14.5235 1238 111.061 1055.07 491.923
1419 0 87.5668 13.8409 1212 114.199 1055.13 493.764
1420 0 89.4327 14.5361 1300 113.972 1054.64 495.613
1421 0 88.5237 13.3975 1186 120.307 1053.67 495.614
1422 0 90.4973 12.7407 1153 123.091 1052.67 495.566
1423 0 91.6457 13.7922 1264 124.367 1051.37 493.303
1424 0 92.6205 13.1828 1221 126.322 1049.55 492.82
1425 0 95.343 13.8972 1325 125.459 1048.5 491.425
1426 0 97.3914 15.4736 1507 119.595 1046.97 491.009
1427 0 94.4787 14.1196 1334 128.043 1045.84 486.535
1428 0 95.566 13.6869 1308 129.665 1045.5 486.985
1429 0 95.5377 13.2513 1266 131.908 1044.44 486.055
1430 0 94.4098 12.8059 1209 133.846 1043.8 482.912
1431 0 96.5637 13.8561 1338 130.76 1043.85 481.689
1432 0 97.4882 13.7042 1336 131.284 1043.41 480.002
1433 0 98.5984 13.5195 1333 130.812 1043.43 479.08
1434 0 97.6675 13.8224 1350 130.617 1043.5 476.47
1435 0 98.5013 14.3958 1418 128.801 1042.88 477.026
1436 0 97.6723 12.5624 1227 135.751 1043.11 476.253
1437 0 97.6759 13.0841 1278 133.719 1044.35 475.473
1438 0 99.7049 14.2019 1416 129.419 1045.28 476.42
