time division length width area intensity CMx CMy
0 0 63.1661 21.4831 1357 103.417 1276.41 454.64
1 0 64.1209 22.4888 1442 101.258 1276.09 456.023
2 0 64.0684 19.2295 1232 109.247 1275.54 454.114
3 0 63.2369 23.3883 1479 104.347 1274.84 456.558
4 0 63.2369 23.5306 1488 130.466 1274.82 456.49
5 0 70.1096 18.6423 1307 108.43 1272.12 455.083
6 0 70.1096 18.628 1306 148.651 1272.11 455.092
7 1 35.0267 13.1899 462 110.801 1271.07 473.006
8 0 36.1021 11.1905 404 112.594 1270.91 474.012
9 0 35.0493 11.4125 400 115.738 1266.85 472.082
10 0 38.1255 18.1768 693 103.646 1266.66 470.615
11 0 38.0349 13.3561 508 112.48 1266.39 470.846
12 0 38.3027 13.7327 526 109.772 1267.05 469.582
13 0 40.3399 15.7908 637 108.677 1266.43 465.501
14 0 42.3802 13.7092 581 110.959 1266.46 465.599
15 0 41.1801 16.0029 659 109.056 1265.97 465.014
16 0 43.3552 15.1308 656 111.334 1265.84 461.291
17 0 44.257 12.9697 574 113.073 1265.53 461.922
18 0 46.2652 14.7411 682 109.957 1266.05 462.38
19 0 48.51 19.0682 925 103.328 1265.81 461.03
20 0 48.51 18.9446 919 129.055 1265.82 461.065
21 0 47.4396 14.6291 694 111.033 1266.06 455.925
22 0 50.2998 18.2307 917 103.61 1265.68 456.287
23 0 50.2998 18.2903 920 132.649 1264.69 456.303
24 0 55.1529 18.5122 1021 104.432 1268.15 456.443
25 0 54.1543 16.2683 881 109.711 1270.98 452.064
26 0 54.2307 13.3872 726 115.19 1271.59 451.153
27 0 54.2435 13.9372 756 115.37 1271.67 449.98
28 0 58.1628 18.0184 1048 108.203 1271.71 448.089
29 0 61.3135 15.8693 973 110.391 1272.9 447.554
30 0 63.3544 17.7415 1124 107.679 1272.36 444.687
31 0 63.0537 15.8119 997 110.064 1273.88 443.528
32 0 66.3073 15.398 1021 112.427 1275.46 445.762
33 0 66.3073 15.2773 1013 146.54 1276.46 445.769
34 0 70.1236 17.0413 1195 110.904 1277.36 443.18
35 0 73.3378 16.9762 1245 109.488 1277.47 442.72
36 0 73.231 18.1754 1331 111.537 1277.97 440.588
37 0 78.4385 17.4404 1368 109.822 1277.89 446.364
38 0 76.2678 14.8949 1136 116.274 1277.82 443.93
39 0 80.1745 17.2499 1383 108.096 1277.55 448.73
40 0 81.1232 18.1206 1470 108.266 1277.82 450.504
41 0 84.1323 16.9614 1427 110.248 1277.4 446.386
42 0 90.1999 17.8603 1611 109.256 1276.18 442.144
43 0 91.1183 16.2316 1479 112.629 1276.04 443.002
44 0 97.2095 17.4057 1692 113.307 1276.1 438.402
45 1 49.1141 13.2141 649 112.969 1275.63 464.456
46 0 49.1692 12.7722 628 127.102 1275.16 465.481
47 0 52.1056 17.2342 898 117.673 1274.96 464.806
48 0 55.0796 15.4504 851 122.643 1273.93 463.919
49 0 55.0796 15.4322 850 144.891 1272.94 463.829
50 0 57.0608 15.7026 896 119.052 1273.12 465.99
51 0 61.0861 16.4522 1005 121.488 1272.84 461.018
52 0 61.0861 16.5013 1008 140.886 1272.83 461.037
53 0 63.0556 13.0044 820 127.435 1271.86 458.863
54 0 67.0931 16.3653 1098 121.264 1271.14 456.253
55 0 68.1344 15.0585 1026 124.243 1269.62 453.59
56 0 71.1441 16.7547 1192 120.861 1269.96 454.449
57 0 73.3452 16.061 1178 121.922 1269.26 453.52
58 0 76.2162 15.0493 1147 123.85 1268.54 451.676
59 0 77.1408 14.143 1091 124.61 1269.51 450.915
60 0 78.4895 14.7408 1157 122.698 1268.32 450.775
61 0 78.4895 14.7536 1158 141.01 1267.32 450.751
62 0 84.2008 15.2374 1283 122.041 1268.34 447.207
63 0 91.0841 14.0749 1282 124.342 1268.07 438.749
64 0 94.2445 14.4624 1363 121.924 1267.08 440.01
65 0 97.4177 17.3172 1687 118.737 1267.37 430.633
66 1 49.5023 9.4137 466 124.547 1267.12 456.004
67 0 53.3895 16.595 886 113.816 1266.98 450.097
68 0 53.3895 16.67 890 122.813 1265.97 450.088
69 0 58.0402 13.4217 779 118.058 1268.98 450.107
70 0 59.2624 13.1112 777 120.073 1268.7 447.251
71 0 62.0698 14.8059 919 117.449 1270.89 446.869
72 0 62.1166 11.6233 722 120.78 1271.43 450.481
73 0 62.2734 11.6583 726 123.468 1272.16 444.355
74 0 67.1601 12.9541 870 122.14 1271.73 442.436
75 0 68.1133 16.2964 1110 116.241 1272.82 444.913
76 0 71.2502 15.3824 1096 117.818 1273.75 440.813
77 0 72.2842 12.8797 931 122.836 1274.48 444.307
78 0 76.1446 14.0653 1071 119.817 1274.96 440.733
79 0 77.0972 12.9966 1002 121.732 1275.83 444.388
80 0 78.0981 13.2141 1032 130.437 1276.8 444.669
81 0 84.264 14.2647 1202 119.522 1276.59 442.587
82 0 88.1921 12.1213 1069 122.884 1276.13 441.881
83 0 90.0991 16.5373 1490 116.65 1276.16 441.359
84 1 48.2518 10.7561 519 119.557 1275.37 461.877
85 0 52.1111 14.6802 765 114.959 1273.43 461.068
86 0 53.1116 11.9559 635 118.296 1273.53 460.343
87 0 56.592 11.7861 667 117.967 1273.22 463.81
88 0 58.1016 11.1184 646 121.813 1274.65 463.011
89 0 59.1632 11.781 697 122.651 1273.46 463.344
90 0 62.1656 14.574 906 117.69 1272.88 459.936
91 0 62.1192 12.8463 798 121.031 1272.96 461.029
92 0 65.2395 13.3815 873 119.664 1271.25 459.867
93 0 66.2522 14.6712 972 116.61 1271.18 462.366
94 0 68.3663 14.0859 963 117.237 1270.44 460.438
95 0 72.2136 13.197 953 117.826 1269.4 454.224
96 0 74.1688 14.1164 1047 116.612 1269.47 457.448
97 0 76.1698 16.3844 1248 112.896 1268.4 458.103
98 0 80.2316 15.5425 1247 115.49 1268.55 452.439
99 0 82.3632 14.1568 1166 118.312 1267.91 449.66
100 0 85.4891 14.7387 1260 116.47 1267.13 452.768
101 0 88.3282 15.0688 1331 117.142 1267.23 448.2
102 0 90.2551 13.1516 1187 121.11 1266.57 442.254
103 0 94.1372 13.0129 1225 120.355 1266.65 444.021
104 0 98.5104 15.308 1508 116.826 1266.83 439.914
105 0 101.185 13.5197 1368 119.899 1265.92 437.196
106 0 103.559 15.344 1589 118.323 1265.92 432.025
107 0 108.425 15.6236 1694 117.287 1265.52 427.328
108 0 113.357 15.3144 1736 117.632 1265.08 425.104
109 1 59.1826 10.0705 596 116.532 1265.31 453.589
110 0 60.0834 9.68654 582 117.172 1265.62 449.129
111 0 66.1066 12.4345 822 113.361 1266.08 448.768
112 0 68.1432 13.1781 898 118.893 1267.36 449.811
113 0 69.4288 12.3148 855 121.745 1268.5 444.29
114 0 72.4291 13.0749 947 121.659 1268 442.193
115 0 75.3245 13.8999 1047 117.1 1268.89 444.898
116 0 77.2955 13.843 1070 117.649 1270.12 443.002
117 0 79.2207 13.1531 1042 120.32 1270.2 437.806
118 0 81.3413 13.6831 1113 120.023 1270.64 439.339
119 0 84.2494 12.8072 1079 121.999 1271.37 441.185
120 0 88.5975 15.1472 1342 118.476 1272.44 438.613
121 0 90.4315 14.0548 1271 121.98 1273.65 434.473
122 1 48.6581 10.1114 492 124.819 1273.4 458.571
123 0 50.4555 13.6358 688 119.461 1274.8 457.594
124 0 53.2392 16.116 858 114.624 1273.89 456.942
125 0 55.4505 12.9485 718 122.042 1273.97 454.357
126 0 53.4315 11.3229 605 126.281 1274.85 456.393
127 0 57.4348 12.0658 693 124.065 1273.77 457.459
128 0 57.1998 11.7658 673 126.027 1275.1 456.565
129 0 61.243 13.4709 825 121.726 1273.39 459.387
130 0 61.1931 11.3738 696 127.527 1273.72 458.701
131 0 65.2282 12.142 792 124.852 1272.27 459.212
132 0 66.2758 14.4397 957 122.111 1272.53 458.212
133 0 67.2524 15.0478 1012 121.128 1270.97 457.657
134 0 72.3951 13.6611 989 123.302 1270.33 455.993
135 0 71.323 12.9131 921 126.192 1269.81 455.151
136 0 73.3128 14.2676 1046 123.829 1269.28 458.577
137 0 74.4426 13.7153 1021 125.643 1269.38 456.009
138 1 43.1876 10.8827 470 128.111 1265.88 471.428
139 0 42.0698 11.4096 480 126.954 1267.03 474.381
140 0 45.1173 12.1018 546 125.004 1265.69 474.509
141 0 45.0661 11.9602 539 127.382 1265.49 471.599
142 0 48.1065 14.0314 675 122.624 1265.36 470.055
143 0 48.0856 14.2246 684 122.775 1263.74 471.193
144 0 50.0329 12.5517 628 126.672 1263.54 467.855
145 0 49.1221 14.8609 730 121.267 1263.16 464.588
146 0 50.0925 13.4152 672 122.289 1262.63 466.527
147 0 53.2025 15.3 814 118.246 1262.96 467.345
148 0 55.0833 14.6142 805 118.451 1262.39 465.243
149 0 55.0969 11.1077 612 126.221 1262.49 461.691
150 0 60.0518 14.0379 843 119.352 1263.02 461.205
151 0 62.1936 14.3423 892 116.567 1262.75 461.308
152 0 63.1946 17.7547 1122 111.885 1264.31 457.305
153 0 65.2839 14.996 979 116.048 1265.52 450.645
154 0 65.166 13.1357 856 120.19 1264.86 450.625
155 0 67.1426 14.1043 947 118.801 1264.76 450.118
156 0 71.0988 14.8948 1059 116.64 1264.43 449.634
157 0 72.0973 15.4097 1111 115.158 1264.4 447.329
158 0 73.2814 14.1509 1037 116.266 1264.78 444.889
159 0 77.1046 14.2534 1099 115.497 1266.13 446.177
160 0 81.1779 17.7388 1440 110.916 1266.54 442.867
161 0 82.347 14.111 1162 116.699 1268.86 443.502
162 0 87.1525 15.4212 1344 116.196 1268.56 440.499
163 1 45.0787 12.4449 561 117.651 1270.55 458.982
164 0 47.1281 12.7313 600 116.747 1271.68 460.28
165 0 46.1912 13.9854 646 111.161 1271.47 462.152
166 0 48.295 13.8731 670 112.236 1271.34 461.258
167 0 48.2803 14.8508 717 110.357 1272.53 463.192
168 0 49.0493 11.4782 563 114.68 1272.77 458.544
169 0 52.1612 14.3018 746 110.71 1272.51 460.538
170 0 53.076 15.3554 815 109.351 1272.87 464.126
171 0 57.0688 15.3148 874 108.883 1272.98 459.516
172 0 57.0992 16.3575 934 107.364 1272.81 462.694
173 0 58.0701 15.6707 910 107.73 1272.53 463.276
174 0 60.1193 15.3195 921 109.305 1270.79 461.394
175 0 63.087 13.6161 859 110.722 1271.7 459.709
176 0 67.1085 14.5585 977 108.751 1271.77 462.234
177 0 69.0868 15.8786 1097 107.422 1271.18 460.887
178 0 67.0917 12.4308 834 113.604 1270.53 457.519
179 0 72.2229 12.1983 881 114.308 1269.62 460.014
180 0 75.3034 13.7444 1035 109.246 1268.28 460.681
181 0 75.2142 11.2612 847 113.891 1267.77 455.228
182 1 42.075 7.77184 327 115.44 1267.61 473.55
183 0 44.0824 12.5674 554 104.744 1264.94 475.722
184 0 46.2786 8.81617 408 113.137 1266.05 471.515
185 0 48.5109 14.842 720 105.493 1266.16 465.876
186 0 50.0354 12.0715 604 107.454 1266.13 467.108
187 0 52.1459 15.4183 804 103.067 1263.16 464.617
188 0 52.1459 15.3991 803 108.96 1261.15 464.593
189 0 52.1459 15.4758 807 108.264 1259.12 464.587
190 0 56.1665 14.7775 830 105.929 1262.19 459.675
191 0 57.2505 10.096 578 111.557 1262.34 459.204
192 0 60.149 13.0676 786 107.691 1262.93 457.482
193 0 61.2008 18.4311 1128 101.88 1262.54 457.274
194 0 63.1203 13.6723 863 107.176 1261.97 455.734
195 0 64.144 13.688 878 105.229 1262.5 455.245
196 0 66.1302 10.6608 705 108.613 1262.58 453.512
197 0 71.3033 14.1929 1012 104.532 1263.09 449.553
198 0 70.2634 13.3925 941 107.506 1263.73 445.615
199 0 70.2634 13.5063 949 136.606 1264.73 445.49
200 0 76.3822 16.1294 1232 105.334 1265.73 440.216
201 0 80.2548 16.2482 1304 104.344 1265.71 444.717
202 0 80.111 13.0444 1045 110.619 1266.68 439.285
203 0 80.111 13.0319 1044 141.597 1267.68 439.348
204 0 88.2732 14.3192 1264 108.95 1267.71 441.976
205 0 89.2632 17.1403 1530 107.611 1269.36 438.047
206 0 94.2824 16.1218 1520 109.14 1270.68 436.324
207 0 94.2572 15.532 1464 111.379 1270.7 438.646
208 0 96.3591 19.1056 1841 107.986 1271.42 437.972
209 0 98.3179 14.6057 1436 114.955 1270.71 433.583
210 0 101.451 14.7165 1493 114.784 1271.36 435.157
211 0 102.304 15.4833 1584 115.884 1271.72 430.23
212 0 107.545 16.951 1823 113.864 1271.95 431.815
213 0 109.343 15.8584 1734 116.873 1271.73 428.774
214 0 111.502 16.9414 1889 115.684 1270.88 426.852
215 0 114.513 16.0156 1834 117.15 1271.3 431.157
216 0 120.783 15.7058 1897 116.755 1271.87 434.245
217 0 123.498 15.8868 1962 117.002 1270.97 430.412
218 0 127.522 16.4677 2100 117.353 1270.46 424.938
219 1 67.1775 11.4919 772 117.297 1270.87 460.627
220 0 71.1742 15.2583 1086 110.206 1270.49 460.076
221 0 72.5336 18.7362 1359 107.315 1268.31 458.085
222 0 73.5594 13.6217 1002 117.658 1267.21 451.517
223 0 73.5594 13.5809 999 141.956 1266.22 451.506
224 0 77.4864 11.8214 916 119.917 1265.57 453.883
225 0 77.475 11.7715 912 136.514 1265.58 453.897
226 0 82.1687 12.9368 1063 118.039 1265.79 456.818
227 0 86.339 12.7984 1105 118.927 1264.5 452.858
228 0 85.2282 11.7567 1002 121.215 1263.91 450.993
229 0 88.1049 13.8585 1221 117.671 1263.3 452.312
230 0 90.6112 12.0515 1092 122.683 1262.79 446.019
231 0 94.6271 13.4317 1271 120.577 1262.2 444.197
232 0 96.555 13.412 1295 119.606 1262.3 443.377
233 1 50.2908 8.74911 440 120.836 1263.53 466.53
234 0 55.3368 11.2222 621 118.522 1261.5 459.554
235 0 58.2094 10.9261 636 116.395 1262.04 462.678
236 0 59.2359 13.4378 796 112.535 1261.21 459.959
237 0 60.1386 10.1266 609 122.691 1260.98 454.458
238 0 60.1216 10.4455 628 121.932 1261.68 453.763
239 0 64.0465 12.2879 787 118.156 1261.34 453.417
240 0 67.2005 14.6279 983 114.242 1262.6 450.352
241 0 70.1585 13.5123 948 118.575 1261.3 446.827
242 0 72.1533 15.1483 1093 138.027 1260.33 448.962
243 0 74.2627 13.6138 1011 114.393 1262.03 449.14
244 0 78.1749 14.8513 1161 112.693 1261.19 442.125
245 0 79.1304 11.222 888 118.008 1264.36 445.785
246 1 46.054 11.074 510 113.331 1265.99 462.51
247 0 48.076 12.0434 579 114.249 1265.98 458.77
248 0 48.1285 10.8875 524 115.16 1264.95 458.067
249 0 48.1893 13.945 672 110.065 1265.05 458.228
250 0 50.0579 11.6865 585 114.721 1268.17 457.726
251 0 52.1614 12.3655 645 113.011 1268.78 456.158
252 0 54.1693 10.8918 590 116.949 1269.57 455.939
253 0 55.1295 11.3914 628 116.303 1270.3 457.658
254 0 57.0623 13.6693 780 113.035 1270.69 453.045
255 0 59.1064 13.0443 771 112.724 1271.57 459.026
256 0 61.1246 13.6443 834 112.942 1270.73 455.265
257 0 63.0822 13.9025 877 113.48 1271.75 456.468
258 0 64.0466 11.9913 768 117.555 1271.56 457.271
259 0 64.1011 13.0731 838 117.039 1270.87 454.562
260 0 68.0769 15.6734 1067 112.442 1271.73 459.734
261 0 69.4101 15.2716 1060 114.613 1270.93 457.317
262 0 71.2019 14.7608 1051 115.324 1269.88 459.838
263 0 73.1118 13.623 996 118.452 1269.3 460.511
264 0 74.087 11.446 848 124.873 1269.45 453.008
265 0 78.1869 16.2687 1272 116.523 1268.58 457.256
266 0 79.3846 14.9021 1183 118.749 1269.04 453.948
267 0 81.4678 13.8337 1127 117.484 1267.77 455.382
268 0 84.1488 16.4233 1382 113.575 1266.23 450.922
269 1 44.0722 12.5249 552 117.17 1266.82 472.971
270 0 47.038 13.9037 654 114.879 1265.61 471.797
271 0 49.0769 12.6536 621 116.903 1265.32 468.979
272 0 47.0191 11.4634 539 118.686 1265.19 470.707
273 0 51.0824 11.2172 573 121.511 1264.06 468.302
274 0 54.1757 14.7298 798 114.776 1264.05 465.2
275 0 57.098 16.7256 955 111.244 1263.05 462.333
276 0 57.0351 15.8674 905 112.473 1262.59 461.461
277 0 60.036 13.9583 838 114.777 1262.79 462.265
278 0 62.0489 17.9052 1111 109.993 1262.62 457.8
279 0 60.1047 12.5947 757 120.359 1261.98 455.933
280 0 61.1446 13.509 826 119.676 1261.38 455.947
281 0 62.1158 12.4928 776 122.388 1261.86 455.59
282 0 64.1145 15.254 978 118.137 1261.08 451.46
283 0 66.1549 13.6195 901 119.165 1261.61 452.976
284 0 68.2332 13.5418 924 120.808 1262.94 446.025
285 0 70.1122 15.0901 1058 118.198 1263.64 448.141
286 0 75.2689 15.1855 1143 117.308 1263.41 446.42
287 0 74.2335 12.757 947 123.21 1264.5 443.495
288 0 77.2804 15.6314 1208 117.826 1263.93 440.697
289 0 80.2459 16.9978 1364 115.559 1264.8 437.545
290 0 84.215 16.2441 1368 115.727 1265.89 440.588
291 0 85.2672 15.3987 1313 118.97 1266.89 434.781
292 0 88.3346 14.5809 1288 119.285 1267.74 435.573
293 1 48.2391 12.521 604 119.935 1269.55 457.919
294 0 46.3084 14.8353 687 117.681 1270.63 454.198
295 0 48.2031 12.8415 619 119.942 1271.43 456.96
296 0 48.2031 12.883 621 141.614 1272.43 456.889
297 0 51.4383 15.5332 799 112.307 1269.85 459.364
298 0 50.4712 11.571 584 121.579 1270.52 457.274
299 0 53.2978 13.0024 693 120.049 1270.32 457.019
300 0 54.311 14.0487 763 117.246 1270.6 459.948
301 0 58.2675 15.1371 882 115.667 1270.8 457.889
302 0 58.2296 12.2103 711 120.518 1270.14 456.639
303 0 64.2659 12.9618 833 116.927 1269.87 458.017
304 0 64.1985 14.0034 899 117.069 1269.61 457.217
305 0 66.3259 13.8709 920 118.439 1269.05 456.821
306 0 68.2226 14.1302 964 118.674 1268.48 456.543
307 0 70.2377 13.255 931 120.096 1268.74 458.477
308 0 72.2309 15.935 1151 116.22 1267.71 457.57
309 0 74.3288 13.4537 1000 121.38 1268.22 453.912
310 0 76.1598 13.4848 1027 121.836 1268.57 454.828
311 0 77.2118 11.3972 880 127.023 1268.26 452.311
312 0 83.3718 16.6963 1392 117.568 1267.51 451.652
313 0 86.2815 12.2506 1057 124.853 1266.43 452.905
314 0 87.2963 14.1358 1234 121.35 1265.43 451.919
315 0 92.3895 12.3174 1138 123.643 1264.77 445.917
316 1 49.1415 10.9683 539 119.922 1264.06 465.506
317 0 53.338 12.8989 688 116.584 1263.73 461.77
318 0 54.2947 12.8926 700 117.217 1261.49 458.44
319 0 56.2588 11.2516 633 119.395 1260.88 462.485
320 0 58.2691 13.9182 811 114.609 1261.67 461.064
321 0 59.1618 14.0631 832 115.171 1261.93 457.508
322 0 62.1324 19.2009 1193 106.67 1262.19 451.461
323 0 64.2327 14.2451 915 114.676 1260.88 454.808
324 0 66.1883 18.0394 1194 108.541 1261.88 452.487
325 0 66.0863 14.6021 965 116.091 1261.94 449.697
326 0 69.0867 14.0838 973 115.996 1261.14 447.043
327 0 72.0536 12.574 906 118.417 1261.94 446.564
328 1 39.0183 8.89325 347 120.576 1261.81 460.919
329 0 39.0511 12.7013 496 114.73 1262.48 459.788
330 0 42.1691 12.9479 546 112.31 1264.08 461.397
331 0 41.0383 9.55205 392 117.013 1263.09 460.656
332 0 42.0481 11.6295 489 115.869 1265.48 456.497
333 0 43.1413 11.4276 493 115.223 1265.66 458.28
334 0 45.1391 10.811 488 116.4 1267.76 457.213
335 0 44.0906 11.0001 485 117.882 1269.74 457.866
336 0 46.1315 11.4022 526 117.422 1271 453.667
337 0 48.1087 13.2824 639 114.803 1271.85 451.566
338 0 49.1631 12.0822 594 117.591 1272.52 450.921
339 0 53.1181 11.6344 618 115.977 1273.54 455.246
340 0 53.1075 11.0907 589 117.138 1274.49 451.915
341 0 54.0741 13.3521 722 114.724 1273.7 454.222
342 0 56.1914 12.4218 698 115.713 1273.01 450.175
343 0 59.3606 11.2701 669 116.789 1273.97 448.428
344 0 60.1844 13.9571 840 113.32 1271.69 450.712
345 0 61.2142 13.6733 837 113.633 1272.98 455.524
346 0 62.1435 12.4389 773 116.32 1272.49 452.185
347 0 66.229 13.3627 885 113.772 1272.99 455.58
348 0 71.3459 21.6971 1548 101.76 1273.01 452.661
349 0 71.21 16.4022 1168 109.776 1272.96 450.779
350 0 72.3538 11.4299 827 117.89 1272.33 455.076
351 1 37.1495 11.4403 425 115.111 1270.66 469.501
352 0 40.0262 10.718 429 115.746 1271.87 470.177
353 0 37.0265 7.64318 283 120.717 1272.18 469.961
354 0 41.0452 12.7177 522 113.613 1271.46 470.132
355 0 43.0898 12.6944 547 112.996 1271.05 467.565
356 0 45.0394 12.6778 571 112.308 1271.01 464.827
357 0 45.0978 11.087 500 110.788 1269.08 464.402
358 0 45.057 10.9639 494 111.779 1269.66 465.771
359 0 49.2327 11.8011 581 108.979 1269.98 465.153
360 0 50.1258 9.71556 487 112.207 1269.18 466.932
361 0 54.1363 13.5768 735 105.12 1268.79 464.947
362 0 53.0338 12.8786 683 107.731 1269.96 462.52
363 0 54.2607 13.1403 713 106.973 1268.71 461.14
364 0 56.0924 13.6204 764 106.08 1268.41 459.73
365 0 57.0769 15.0849 861 105.657 1267.76 454.758
366 0 59.1111 13.4323 794 107.771 1267.45 458.591
367 0 63.0758 13.8246 872 108.558 1267.51 450.447
368 0 61.1278 12.4984 764 110.92 1267.21 452.199
369 0 65.223 14.6421 955 107.608 1266.26 446.479
370 1 135.386 15.6589 2120 109.855 1266.69 414.054
371 1 69.4394 15.6251 1085 106.413 1267.52 448.33
372 0 70.3248 15.7839 1110 107.908 1267.47 443.462
373 0 73.4987 13.2928 977 111.176 1267.6 440.743
374 0 76.3959 17.3308 1324 105.855 1268.51 438.948
375 0 78.1917 19.9382 1559 103.105 1268.55 437.844
376 0 80.1873 15.4264 1237 109.605 1268.77 438.346
377 0 85.2827 18.6673 1592 105.481 1269.33 434.408
378 0 85.2019 14.3541 1223 112.957 1270.18 434.891
379 0 90.2151 14.2992 1290 112.916 1271.45 434.702
380 1 46.0429 9.66491 445 117.987 1273.69 453.647
381 0 48.0525 10.8215 520 116.725 1273.74 451.998
382 0 51.0433 12.8518 656 113.421 1274.3 452.177
383 0 55.2439 14.8433 820 108.618 1274.68 453.159
384 0 53.0532 11.856 629 112.068 1274.66 457.456
385 0 55.125 12.3719 682 110.469 1275.57 455.804
386 0 57.222 21.2855 1218 98.8974 1274.56 456.029
387 0 59.0468 17.1389 1012 105.438 1275.44 453.852
388 0 59.1192 14.1578 837 110.005 1276.52 454.699
389 0 61.091 10.2306 625 115.622 1275.88 453.51
390 0 64.1287 15.3597 985 106.937 1275.41 455.186
391 0 69.0444 18.9009 1305 101.805 1275.53 451.983
392 0 68.1727 13.0551 890 110.833 1275.92 452.046
393 0 71.0695 13.6345 969 109.162 1273.86 454.835
394 0 73.3601 12.5954 924 110.562 1273.69 454.879
395 0 73.3601 12.5954 924 133.403 1273.69 454.948
396 0 76.0968 9.08054 691 116.009 1272.09 455.928
397 0 76.0968 9.11996 694 134.069 1271.11 455.852
398 0 84.3105 13.2249 1115 108.297 1270.13 447.889
399 0 84.2537 9.96988 840 114.236 1269.28 450.308
400 0 89.1866 13.7689 1228 109.386 1269.65 446.96
401 0 93.1267 16.1608 1505 106.326 1268.84 440.145
402 1 53.1659 13.0723 695 109.427 1270.11 462.216
403 0 53.107 10.5824 562 113.429 1267.49 463.63
404 0 53.1441 12.2497 651 114.382 1268.64 460.121
405 0 55.4141 16.6203 921 102.175 1268.01 455.954
406 0 54.4489 13.756 749 106.121 1266.5 451.401
407 0 60.7227 14.558 884 104.301 1265.4 448.801
408 0 61.7601 11.9495 738 107.76 1264.41 450.557
409 0 67.1525 10.8708 730 114.832 1264.85 450.203
410 0 66.2442 14.2956 947 110.306 1263.64 452.438
411 0 69.1792 14.8744 1029 111.193 1265.41 448.573
412 0 71.5213 13.3666 956 113.9 1265.87 444.634
413 0 75.2822 14.439 1087 110.734 1266.82 446.588
414 0 76.2709 15.0778 1150 111.314 1266.77 442.505
415 0 80.1622 13.3729 1072 114.035 1267.88 439.007
416 0 82.271 14.5738 1199 112.696 1268.89 434.721
417 0 86.2443 14.7604 1273 112.561 1268.29 434.17
418 0 88.1725 10.0712 888 120.841 1268.86 429.486
419 1 45.1714 8.81088 398 117.221 1269.42 455.882
420 0 47.1355 12.305 580 113.029 1270.63 453.205
421 0 49.3253 13.2589 654 111.65 1271.39 452.047
422 0 52.2756 10.6742 558 115.656 1271.26 451.566
423 0 54.0862 12.7389 689 109.907 1272.06 454.007
424 0 54.0556 11.8582 641 114.356 1271.69 448.766
425 0 55.0868 11.255 620 116.487 1273.23 446.742
426 0 57.0586 9.48149 541 117.869 1273.3 452.386
427 0 61.035 13.7298 838 112.428 1273.57 448.581
428 0 64.0971 14.9929 961 109.232 1273.96 449.88
429 0 63.1949 11.425 722 114.853 1275.41 450.044
430 0 65.2488 13.9006 907 112.128 1275.33 451.043
431 0 67.4281 10.9747 740 116.52 1275.74 449.612
432 0 67.4281 10.9598 739 142.484 1275.72 449.521
433 0 73.2305 14.5295 1064 112.117 1275.8 447.626
434 0 73.1961 11.6946 856 117.808 1275.13 446.229
435 0 78.2903 15.1232 1184 113.008 1274.34 447.962
436 0 77.3239 10.9798 849 119.431 1273.12 451.343
437 0 83.275 13.6536 1137 115.57 1273.27 448.019
438 0 86.4627 13.4393 1162 116.324 1273.31 446.073
439 0 87.5279 13.5957 1190 116.389 1272.66 445.377
440 0 92.7323 13.663 1267 115.132 1273.47 442.108
441 0 96.4192 13.6695 1318 112.549 1272.09 445.225
442 0 96.4192 13.5346 1305 140.999 1271.1 445.111
443 1 54.4378 15.1182 823 109.343 1272.04 457.855
444 0 56.2345 14.2795 803 109.796 1270.39 461.57
445 0 59.1903 14.6646 868 107.891 1267.81 460.083
446 0 59.1913 12.5863 745 110.487 1267.59 460.416
447 0 63.4526 13.5377 859 108.636 1268.15 460.333
448 0 65.0916 12.7973 833 111.598 1267.57 453.312
449 0 66.1083 12.5552 830 110.206 1266.56 457.057
450 0 70.1335 14.6435 1027 106.44 1265.96 456.093
451 0 68.4088 10.7588 736 113.091 1267.45 450.838
452 0 72.0496 15.878 1144 104.63 1267.09 452.168
453 0 71.127 9.77126 695 114.239 1265.76 446.676
454 0 79.2281 16.4841 1306 103.758 1265.58 448.81
455 0 81.2329 12.1503 987 109.992 1265.19 444.336
456 0 82.2572 15.0868 1241 107.089 1265.69 440.711
457 0 89.2009 14.0245 1251 107.258 1265.76 442.665
458 0 89.3609 15.499 1385 106.68 1265.77 435.562
459 0 93.4859 15.2536 1426 105.702 1265.35 434.143
460 0 95.1009 14.1324 1344 108.597 1266.67 433.997
461 0 98.1741 10.5832 1039 113.439 1266.82 439.12
462 0 103.262 16.2016 1673 105.956 1267.81 435.546
463 1 54.0964 12.792 692 107.429 1268.38 451.731
464 0 55.2077 17.2802 954 99.7495 1269.27 453.452
465 0 56.119 13.2219 742 106.457 1269.31 455.609
466 0 56.1272 9.87043 554 109.244 1271.46 458.292
467 0 59.3267 12.7093 754 107.346 1272.17 451.912
468 0 59.2853 10.576 627 109.018 1272.82 455.276
469 0 61.2826 11.4388 701 108.85 1272.67 452.491
470 0 66.3918 14.9717 994 103.141 1272.15 452.812
471 0 65.3851 13.0764 855 107.409 1272.51 449.296
472 0 66.2181 11.4621 759 109.912 1272.02 454.735
473 0 71.2819 11.6439 830 109.675 1272.98 451.475
474 0 71.3986 12.7453 910 109.653 1273.46 451.989
475 0 75.5504 11.4096 862 109.132 1272.58 455.621
476 0 77.1929 10.843 837 111.858 1272.89 452.892
477 0 78.0528 14.6824 1146 108.476 1270.8 455.593
478 0 78.1729 12.7026 993 112.826 1269.93 452.834
479 0 83.2686 10.7484 895 114.594 1268.61 450.298
480 0 86.2643 12.6936 1095 111.959 1267.88 452.325
481 0 89.2124 12.7 1133 111.448 1266.66 454.297
482 0 92.3473 14.4022 1330 108.538 1267.5 456.496
483 0 95.3397 13.7823 1314 110.556 1266.64 452.419
484 0 96.3244 10.2882 991 116.941 1266.09 451.471
485 0 101.336 13.8055 1399 112.226 1265.17 448.75
486 0 104.287 14.0382 1464 113.481 1264.52 444.638
487 0 112.398 17.9451 2017 106.391 1264 441.579
488 0 110.311 14.7674 1629 112.009 1264.37 447.329
489 1 57.1724 11.614 664 112.623 1264.03 469.194
490 0 57.2372 8.87535 508 108.177 1263.16 464.868
491 0 60.0455 13.7895 828 100.895 1264.67 465.261
492 0 60.0455 13.8062 829 108.793 1264.69 465.204
493 0 59.0517 10.2961 608 116.457 1262.73 461.947
494 0 67.1264 11.1878 751 113.911 1264.99 463.723
495 0 67.0795 9.97324 669 117.448 1264.13 458.342
496 0 71.2229 13.886 989 110.022 1262.27 459.328
497 0 68.1565 11.9431 814 109.301 1258.8 458.57
498 0 71.1416 11.1046 790 109.866 1258.34 457.732
499 0 75.2383 13.6765 1029 106.616 1259.74 453.605
500 0 77.1459 11.7051 903 109.649 1260.29 447.278
501 0 81.0948 12.6395 1025 108.839 1260.58 450.487
502 0 83.1942 20.338 1692 98.8339 1261.57 451.494
503 0 86.3351 13.1928 1139 109.846 1262.15 444.04
504 0 89.172 14.5898 1301 107.095 1262.09 444.128
505 0 91.2559 14.7497 1346 107.556 1263.14 439.582
506 0 95.1978 13.5087 1286 109.187 1264.03 443.184
507 0 94.2192 11.0169 1038 140.108 1264.81 440.192
508 0 99.4176 12.9253 1285 111.094 1266.91 435.17
509 0 100.245 12.649 1268 111.684 1266.7 430.688
510 0 104.276 13.963 1456 108.036 1266.1 437.738
511 0 108.373 11.7557 1274 112.199 1267.75 435.734
512 0 113.316 15.1876 1721 108.342 1268.53 428.743
513 1 60.0891 11.7659 707 113.184 1269.22 453.645
514 0 63.0656 13.2243 834 109.282 1269.38 456.729
515 0 66.3345 13.2209 877 110.892 1270.02 448.993
516 0 69.3997 13.7032 951 107.928 1270.37 456.396
517 0 67.3542 10.8679 732 114.37 1270.09 452.929
518 0 71.3313 10.9349 780 113.694 1269.92 456.626
519 0 72.3706 13.8178 1000 110.077 1270.61 455.156
520 0 75.3567 11.9963 904 113.679 1269.65 457.794
521 0 75.2097 12.4186 934 112.669 1269.31 454.163
522 0 78.2122 14.4862 1133 109.56 1268.98 456.713
523 0 83.1726 12.2877 1022 112.192 1268.11 453.078
524 0 85.2079 13.5903 1158 110.547 1268.23 450.326
525 0 85.2079 13.4729 1148 124.305 1268.22 450.353
526 0 90.3167 9.85422 890 113.86 1267.31 458.601
527 1 49.0633 10.7412 527 112.374 1265.46 475.22
528 0 50.0562 11.1674 559 112.038 1265.27 477.256
529 0 51.2622 12.2117 626 110.23 1267.78 473.224
530 0 55.265 15.5976 862 104.124 1266.91 476.195
531 0 56.1399 13.7514 772 107.662 1267.63 469.356
532 0 56.1327 14.145 794 106.977 1267.1 468.227
533 0 62.1313 13.8256 859 105.29 1265.74 468.976
534 0 59.0343 12.6028 744 114.454 1265.69 466.378
535 0 64.1714 13.2769 852 114.289 1264.75 461.636
536 0 65.3103 12.3411 806 115.138 1264.63 461.27
537 0 68.1922 15.9549 1088 108.097 1265.01 461.996
538 0 65.3151 11.4828 750 117.899 1262.21 459.904
539 0 69.2725 13.021 902 114.425 1262.56 458.396
540 0 75.2448 12.6255 950 112.752 1261.57 458.078
541 0 75.4517 13.7836 1040 112.377 1261.44 452.019
542 0 76.2858 14.6554 1118 109.967 1261.09 453.98
543 0 81.429 13.2385 1078 111.853 1261.69 448.627
544 0 81.2732 12.6364 1027 113.486 1261.67 447.608
545 0 84.2907 12.8009 1079 111.471 1262.93 447.889
546 1 43.4846 10.3945 452 111.883 1261.33 462.73
547 0 46.3054 11.2298 520 111.481 1263.12 464.231
548 0 46.2094 13.9149 643 107.848 1263.99 461.913
549 0 47.2941 9.76865 462 114.491 1264.95 462.522
550 0 52.4792 15.0345 789 104.646 1265.62 462.373
551 0 53.2739 12.9895 692 110.382 1266.55 458.264
552 0 55.2872 13.7283 759 107.071 1266.77 463.574
553 0 56.4481 12.9145 729 109.968 1267.96 459.702
554 0 57.3625 12.9178 741 109.69 1268.91 458.985
555 0 59.1555 10.7682 637 112.98 1268.8 460.527
556 0 59.1555 10.7851 638 135.19 1267.81 460.456
557 0 65.249 14.6822 958 105.31 1270.8 460.067
558 0 68.2838 13.5025 922 107.556 1271.65 462.073
559 0 69.3434 14.7238 1021 106.004 1271.59 458.085
560 0 69.3073 10.8069 749 113.37 1271.36 457.913
561 0 71.3021 12.8748 918 110.089 1270.53 461.379
562 0 74.4292 11.783 877 110.756 1271.34 465.367
563 0 75.2122 11.913 896 113.484 1269.84 456.627
564 0 75.524 10.6324 803 114.263 1269.99 460.301
565 0 78.5698 12.6894 997 112.277 1269.79 456.857
566 0 81.4471 10.1415 826 114.444 1269.31 457.028
567 0 82.5886 9.75922 806 114.792 1269.23 457.785
568 0 86.4295 10.1123 874 110.562 1267.86 455.644
569 0 90.3276 13.1521 1188 106.166 1267.57 455.932
570 1 47.0387 10.1831 479 109.764 1268.83 475.274
571 0 50.0746 8.30761 416 112.685 1268.08 476.204
572 0 53.141 12.9655 689 106.708 1267.2 476.017
573 0 54.0943 12.2749 664 108.401 1265.74 473.733
574 0 55.1485 11.732 647 110.385 1266.33 471.337
575 0 58.119 9.0504 526 113.458 1265.22 474.42
576 0 59.0791 13.8966 821 108.497 1264.3 469.214
577 0 62.2577 14.7291 917 106.757 1264.44 469.063
578 0 60.1061 12.3948 745 113.208 1263.86 464.133
579 0 63.3896 14.7816 937 109.156 1263.59 462.618
580 0 66.2446 12.9973 861 111.479 1262.93 461.505
581 0 66.2446 13.0124 862 138.391 1261.91 461.461
582 0 69.345 13.3535 926 111.317 1261.8 460.004
583 0 71.4998 10.5175 752 117.279 1262.89 456.782
584 0 75.4892 13.5648 1024 112.429 1261.99 456.523
585 0 76.3276 14.1495 1080 112.313 1262.86 457.974
586 0 81.4849 14.2603 1162 116.339 1263.06 447.086
587 1 44.1949 11.4493 506 115.184 1263.89 470.69
588 0 44.0876 12.9742 572 114.552 1264.48 466.439
589 0 45.0952 13.6822 617 112.901 1263.6 466.818
590 0 48.1108 15.5059 746 110.079 1264.27 464.756
591 0 48.05 13.8189 664 113.316 1263.34 464.654
592 0 50.0347 14.5099 726 114.5 1262.61 463.413
593 0 54.0412 14.3594 776 115.582 1264.15 460.42
594 0 54.0898 14.4759 783 115.958 1264.36 458.229
595 0 55.3118 12.1493 672 120.176 1264.76 458.606
596 0 57.0432 14.1121 805 117.107 1265.07 460.133
597 0 58.1122 13.2847 772 118.453 1266.32 459.891
598 0 58.1149 12.4409 723 119.914 1267.66 458.924
599 0 61.0684 14.0662 859 116.999 1267.65 458.956
600 0 63.1313 14.6678 926 116.214 1268.5 455.999
601 0 64.0876 13.9965 897 117.737 1268.19 456.583
602 0 69.2078 14.1025 976 115.624 1269.07 459.678
603 0 70.3209 14.2063 999 116.458 1268.86 458.3
604 0 70.123 13.7473 964 118.944 1269.7 456
605 0 76.6583 14.2581 1093 116.755 1269.74 457.687
606 0 76.4591 13.5759 1038 118.879 1269.5 457.193
607 0 76.4591 13.6021 1040 158.516 1269.49 457.17
608 0 82.5188 12.8819 1063 116.285 1269.5 454.529
609 1 42.3404 11.1005 470 116.964 1270.02 473.583
610 0 46.2335 9.86299 456 115.211 1270.3 478.906
611 0 49.3425 13.5177 667 110.88 1269.07 477.103
612 0 49.2013 13.8208 680 110.822 1269.32 475.846
613 0 50.0716 13.1611 659 110.599 1268.29 477.299
614 0 50.2408 12.2609 616 114.359 1268.19 477.235
615 0 53.17 17.8672 950 105.664 1266.5 473.031
616 0 56.2167 18.0196 1013 105.576 1265.1 472.091
617 0 57.2492 14.3583 822 110.383 1264.22 472.493
618 0 60.3319 17.8347 1076 104.757 1264.87 467.527
619 0 60.285 18.1471 1094 105.208 1264.29 469.447
620 0 63.17 14.7697 933 110.062 1262.6 468.482
621 0 65.2243 15.899 1037 108.922 1262.34 466.472
622 0 65.2243 15.991 1043 134.295 1261.37 466.447
623 0 69.2287 24.2818 1681 99.1493 1261.13 462.028
624 0 72.1155 18.3317 1322 107.426 1262.3 458.337
625 0 73.3658 15.1569 1112 113.359 1261.51 459.479
626 0 75.4048 14.4553 1090 115.754 1261.09 454.983
627 0 80.4446 16.7817 1350 112.904 1260.41 452.479
628 0 80.4069 17.4488 1403 111.938 1261.23 451.866
629 0 85.4803 17.5947 1504 111.703 1262.04 444.624
630 1 44.4156 12.1804 541 116.312 1261.86 467.819
631 0 45.1368 18.5215 836 108.039 1262.46 467.974
632 0 45.2511 14.9389 676 113.746 1262.89 466.954
633 0 45.2511 15.0273 680 144.066 1262.85 466.965
634 0 49.2935 15.1947 749 116.083 1263.01 458.088
635 0 54.54 17.9135 977 108.353 1265.23 461.5
636 0 54.3626 18.0271 980 108.948 1265.19 460.795
637 0 54.3383 15.5507 845 116.209 1266.35 460.387
638 0 56.4561 15.7999 892 113.54 1266.8 463.17
639 0 58.277 18.3434 1069 109.715 1267.19 458.66
640 0 61.4394 17.3993 1069 110.467 1268.26 457.937
641 0 64.4529 17.0667 1100 110.824 1268.24 458.189
642 0 66.3992 15.7382 1045 113.58 1268.39 455.504
643 0 70.2153 16.777 1178 110.869 1268.78 455.177
644 0 70.1154 15.3461 1076 113.871 1269.22 454.892
645 0 73.505 14.7745 1086 113.5 1269.69 455.655
646 0 77.4155 21.2748 1647 104.291 1269.25 452.494
647 1 36.4126 11.8915 433 117.984 1269.36 470.534
648 0 42.3739 16.2364 688 108.509 1268.53 471.36
649 0 42.3466 12.9172 547 115.353 1269.55 471.13
650 0 42.2064 14.8319 626 112.091 1269.05 472.978
651 0 44.3707 14.2436 632 114.419 1269.15 470.399
652 0 44.5171 13.7925 614 112.606 1268.43 472.941
653 0 47.5069 13.6612 649 113.169 1268.75 475.488
654 0 47.5569 13.9202 662 114.473 1268.13 475.85
655 0 48.3261 13.9676 675 115.246 1267.95 476.567
656 0 51.4944 17.4388 898 109.472 1267.33 477.96
657 0 50.2802 10.8194 544 122.449 1265.68 475.847
658 0 55.086 16.1384 889 113.658 1265.06 472.782
659 0 56.1251 13.1492 738 118.425 1264.76 473.035
660 0 59.0911 15.4169 911 115.784 1264.88 469.542
661 0 62.2774 13.5683 845 117.966 1263.69 469.426
662 0 62.4314 15.8894 992 115.663 1263.53 468.902
663 0 65.2886 15.7148 1026 117.353 1263.11 465.51
664 0 65.4554 13.8262 905 121.746 1263.16 461.064
665 0 65.4554 13.8109 904 157.083 1262.16 461.042
666 0 66.4575 14.5657 968 153.631 1261.21 459.844
667 1 35.3 11.7564 415 119.067 1260.48 478.713
668 0 33.0289 14.3511 474 120.068 1260.93 475.696
669 0 36.0574 15.4199 556 117.547 1259.9 475.032
670 0 36.0119 13.2178 476 120.399 1261.06 474.466
671 0 40.0233 13.0674 523 123.348 1262.2 471.985
672 0 39.1664 13.0214 510 124.924 1262 471.335
673 0 41.1773 15.5668 641 120.871 1262.91 467.674
674 0 42.2802 11.3055 478 127.64 1263.18 467.044
675 0 46.4835 16.9953 790 116.289 1262.91 466.349
676 0 46.1032 14.5326 670 121.707 1264.73 467.212
677 0 46.4539 14.6812 682 122.746 1266.14 465.613
678 0 48.2101 14.582 703 122.242 1267.03 463.683
679 0 51.2529 16.3698 839 119.731 1267.61 461.547
680 0 52.5613 15.2774 803 120.44 1268.77 461.762
681 0 52.2374 15.353 802 122.61 1267.65 459.597
682 0 56.449 16.0144 904 120.134 1268.99 458.123
683 0 58.3427 14.2606 832 123.953 1270.09 460.451
684 0 59.674 13.7246 819 124.253 1270.52 461.424
685 0 64.72 15.343 993 119.13 1270.8 462.606
686 0 64.4532 16.3685 1055 120.757 1269.98 458.203
687 0 66.9243 17.4376 1167 119.039 1270.97 457.675
688 0 69.6829 15.7571 1098 121.769 1270.67 457.026
689 0 71.5942 14.6939 1052 124.78 1270.27 455.021
690 0 71.6718 12.3201 883 129.084 1270.6 456.655
691 0 75.5979 17.4079 1316 120.039 1271.24 455.23
692 0 79.4903 16.7819 1334 120.37 1270.36 455.742
693 0 83.6039 17.1284 1432 119.076 1270.03 457.747
694 1 38.1824 11.6284 444 127.66 1270.02 475.876
695 0 38.1668 12.9694 495 124.263 1269.83 477.572
696 0 41.0547 12.6417 519 125.329 1269.43 478.32
697 0 43.1501 12.6303 545 124.549 1269.8 478.984
698 0 43.1501 12.6999 548 140.493 1269.82 478.978
699 0 47.1263 12.9864 612 123.853 1268.68 475.252
700 0 47.1263 12.9227 609 125.204 1266.66 475.273
701 0 48.4264 13.7941 668 123.801 1267.02 473.329
702 0 50.6471 14.9861 759 105.783 1268 472.294
703 0 53.2601 12.561 669 125.671 1266.56 472.166
704 0 56.1019 15.9175 893 120.624 1266.62 472.174
705 0 58.027 18.3708 1066 116.884 1265.86 468.626
706 0 58.1487 14.9444 869 124.272 1265.09 466.676
707 0 61.0603 13.5767 829 127.537 1264.6 463.46
708 0 64.0706 16.9657 1087 120.097 1264.24 467.614
709 0 67.0543 13.7799 924 127.343 1263.95 464.247
710 0 68.0836 13.4981 919 129.643 1263.35 460.687
711 0 71.2248 17.536 1249 122.088 1264.05 451.24
712 0 74.2733 15.3891 1143 126.301 1262.91 453.497
713 0 77.4369 14.967 1159 127.442 1263.98 451.561
714 0 76.1828 14.4127 1098 129.329 1262.8 452.062
715 0 81.1868 15.6922 1274 126.295 1263.01 450.648
716 1 43.0722 11.1209 479 124.301 1264.38 471.468
717 0 46.0716 12.8713 593 122.648 1265.17 470.101
718 0 45.115 10.5951 478 129.228 1264.82 466.862
719 0 50.0466 13.1877 660 124.405 1266.07 464.208
720 0 50.071 15.5979 781 121.597 1264.71 464.474
721 0 51.12 10.4851 536 130.774 1266.14 465.123
722 0 51.1688 10.5338 539 143.818 1267.16 465.186
723 0 56.0877 14.8874 835 120.492 1268.45 462.258
724 0 57.076 12.8776 735 126.361 1268.82 460.11
725 0 60.0591 12.854 772 125.791 1268.97 459.764
726 0 62.1015 14.5246 902 123.217 1268.75 457.283
727 0 63.1112 13.0722 825 122.181 1270.08 460.434
728 0 62.1004 14.7825 918 121.084 1270.43 456.087
729 0 66.0904 14.0111 926 122.138 1270.78 457.793
730 0 69.0715 14.7094 1016 121.576 1271.91 457.066
731 0 73.1275 17.7088 1295 114.808 1271.42 460.516
732 0 72.1979 11.7732 850 126.931 1271.08 460.769
733 0 73.1981 11.8992 871 128.378 1270.43 458.49
734 0 80.4311 12.2589 986 127.223 1270.32 457.902
735 0 83.25 12.961 1079 124.859 1270.59 460.512
736 0 84.5152 13.2875 1123 125.301 1269.42 457.094
737 0 85.2336 10.9464 933 129.836 1270.28 455.847
738 1 44.0369 8.12954 358 132.698 1270.54 475.824
739 0 48.072 12.1693 585 124.398 1270.39 475.682
740 0 49.1444 13.5722 667 122.582 1269.75 476.13
741 0 50.2855 13.3438 671 122.483 1270.14 476.623
742 0 54.3273 12.4247 675 122.819 1269.34 474.406
743 0 53.3992 12.6781 677 123.9 1269.47 472.403
744 0 56.3507 13.1853 743 122.704 1269.16 472.357
745 0 54.1642 11.5205 624 126.215 1267.79 472.984
746 0 57.3007 12.0068 688 126.626 1267.89 469.278
747 0 60.2688 12.7097 766 124.757 1267.61 466.736
748 0 61.1626 12.197 746 125.578 1267.23 463.177
749 0 64.0955 11.7637 754 126.133 1266.66 464.672
750 0 65.5547 12.0052 787 125.234 1263.58 463.294
751 0 66.4329 12.6293 839 125.911 1264.24 460.53
752 0 68.2566 12.4384 849 125.478 1263.54 458.971
753 0 71.3099 12.5649 896 125.176 1263.46 457.133
754 0 73.2688 13.6484 1000 123.127 1264.05 454.322
755 0 75.3885 11.6065 875 126.531 1264.55 454.189
756 0 79.3173 12.3807 982 124.944 1264.08 449.613
757 0 79.4737 12.0166 955 126.12 1264.53 449.307
758 0 84.2318 12.9049 1087 124.796 1264.55 446.497
759 0 85.3892 10.9616 936 127.784 1265.19 444.939
760 0 85.3892 10.9733 937 131.591 1265.2 444.74
761 0 85.343 5.36658 458 131.819 1265.22 451.67
762 1 45.117 12.124 547 117.94 1266.33 460.932
763 0 46.0594 10.1608 468 119.372 1266.19 463.041
764 0 48.1121 9.87278 475 119.522 1266.51 464.669
765 0 50.0594 12.3453 618 116.277 1267.65 461.303
766 0 50.3145 10.5735 532 126.239 1268.64 460.002
767 0 53.2184 10.6918 569 124.641 1269.46 461.782
768 0 55.2336 11.4785 634 122.938 1269.46 458.121
769 0 57.4068 10.4517 600 123.097 1269.66 461.152
770 0 58.3464 9.16938 535 127.157 1270.51 457.95
771 0 61.3314 11.5602 709 122.274 1270.46 457.678
772 0 59.3368 10.2129 606 126.193 1270.26 456.574
773 0 64.3386 12.714 818 119.451 1270.05 459.303
774 0 67.1952 14.9118 1002 114.802 1270.81 456.86
775 0 71.3754 13.7442 981 115.802 1270.97 456.561
776 0 72.2648 11.1396 805 121.119 1271.13 458.855
777 0 74.5737 12.6452 943 119.373 1271.52 457.86
778 0 77.4854 15.0996 1170 114.694 1270.49 452.808
779 0 79.573 13.761 1095 117.707 1270.92 455.062
780 0 82.5532 13.034 1076 119.289 1271.33 455.902
781 0 84.5126 14.3647 1214 116.984 1270.34 453.947
782 0 88.1878 13.4032 1182 117.696 1270.2 452.865
783 1 44.4035 8.76056 389 122.29 1271.18 470.267
784 0 47.3858 11.9023 564 116.215 1269.98 478.408
785 0 48.436 13.2546 642 114.93 1269.8 472.531
786 0 51.3671 13.8805 713 112.739 1269.37 473.313
787 0 51.1977 12.3834 634 112.256 1267.75 474.101
788 0 52.3041 11.7199 613 120.852 1267.34 470.284
789 0 55.3922 12.6191 699 118.741 1267.71 469.866
790 0 56.4209 14.959 844 114.169 1268.06 468.049
791 0 55.4392 10.8588 602 122.958 1267.69 462.595
792 0 59.4091 13.1293 780 117.126 1266.88 465.781
793 0 60.2133 12.2232 736 116.789 1266.05 463.269
794 0 61.3642 11.7169 719 116.086 1266.18 461.697
795 0 64.1138 12.6026 808 113.496 1266.44 457.295
796 0 68.3313 12.3955 847 115.234 1264.4 457.975
797 0 68.33 14.1958 970 112.975 1264.49 452.007
798 0 70.3771 15.3885 1083 110.992 1264.37 454.855
799 0 69.3761 11.7908 818 135.237 1264.56 451.112
800 0 78.2501 15.131 1184 108.599 1265.5 450.731
801 0 80.1915 16.3608 1312 106.694 1265.43 448.146
802 0 81.1756 11.8262 960 113.526 1265.9 447.149
803 1 41.2056 10.4112 429 110.152 1266.72 463.718
804 0 43.647 10.6995 467 106.366 1265.88 461.921
805 0 44.4634 9.8283 437 111.812 1267.3 456.33
806 0 45.6372 11.942 545 110.266 1266.09 455.607
807 0 46.4418 11.3906 529 113.987 1267.23 462.55
808 0 46.4418 11.2829 524 118.04 1269.27 462.571
809 0 49.2268 10.543 519 115.532 1267.58 461.769
810 0 50.287 14.5167 730 110.332 1268.38 461.411
811 0 54.3655 12.8758 700 110.789 1268.37 457.699
812 0 54.2764 11.5335 626 113.259 1268.83 459.487
813 0 55.1904 12.1398 670 112.5 1269.72 458.493
814 0 58.0841 15.753 915 108.034 1269.72 455.399
815 0 60.2371 12.3014 741 113.402 1270.27 458.713
816 0 60.1825 9.02255 543 117.641 1269.79 458.619
817 0 60.1869 9.07174 546 118.764 1269.82 458.236
818 0 67.2695 13.275 893 113.457 1269.93 456.732
819 0 70.3706 15.5178 1092 111.29 1270.37 451.506
820 1 34.1571 10.1882 348 116.049 1267.62 471.601
821 0 33.2787 9.73594 324 115.917 1267.61 474.08
822 0 36.3647 10.7797 392 115.666 1268.48 470.952
823 0 40.1675 9.75913 392 115.462 1269.22 474.117
824 0 38.2491 7.92176 303 119.485 1269.52 476.716
825 0 41.3189 12.6819 524 113.246 1269.1 474.8
826 0 44.2264 12.6169 558 110.176 1269.94 473.19
827 0 45.24 12.069 546 113.167 1267.18 472.822
828 0 47.3024 15.0521 712 109.85 1266.39 471.973
829 0 48.3534 16.3381 790 107.159 1265.96 473.057
830 0 50.3121 14.4896 729 110.284 1265.11 466.232
831 0 50.3236 14.2676 718 111.708 1265.7 469.603
832 0 51.1802 12.5048 640 114.82 1264.64 469.839
833 0 51.1836 13.2074 676 115.786 1264.41 468.686
834 0 51.1836 13.2074 676 127.561 1264.41 468.686
835 0 55.1803 11.7071 646 116.978 1264.13 466.065
836 0 58.2416 11.624 677 117.406 1261.96 462.821
837 0 58.2648 11.7567 685 144.394 1259.94 462.791
838 0 62.1468 12.1004 752 116.678 1263.06 455.366
839 0 65.0913 18.1745 1183 106.779 1263.76 456.684
840 0 66.1209 13.8383 915 112.978 1263.33 455.175
841 0 68.1583 16.6231 1133 109.079 1262.55 450.396
842 0 69.1233 12.3258 852 115.741 1262.25 452.678
843 0 73.1244 17.6959 1294 106.954 1263.47 450.74
844 0 73.2032 14.1524 1036 111.932 1263.44 451.747
845 0 78.077 16.3684 1278 108.605 1264.29 442.485
846 0 81.2731 12.7718 1038 113.863 1263.91 443.562
847 1 48.3799 11.9471 578 107.455 1264.06 464.009
848 0 44.1068 13.422 592 110.091 1264.61 459.579
849 0 45.1057 12.9695 585 110.877 1264.1 459.388
850 0 46.2919 10.4122 482 107.367 1267.07 453.716
851 0 44.0473 10.1936 449 112.414 1266.54 454.105
852 0 48.049 10.5101 505 112.509 1266.76 452.871
853 0 49.2254 11.7825 580 110.286 1267.94 452.855
854 0 50.0987 12.3756 620 109.665 1268.05 455.219
855 0 54.1367 17.0679 924 103.334 1269.41 452.466
856 0 48.158 9.8426 474 116.551 1269.15 450.819
857 0 55.362 12.7886 708 109.828 1270.89 449.685
858 0 55.4448 10.2625 569 115.295 1270.71 449.622
859 0 58.1703 11.1741 650 114.194 1271.36 451.117
860 0 58.1187 13.352 776 111.018 1271.06 449.787
861 0 59.1606 11.9336 706 113.899 1271.24 449.487
862 0 66.0569 14.6389 967 113.691 1269.85 455.021
863 0 68.2225 13.1042 894 117.104 1268.85 456.41
864 0 70.0521 12.2909 861 118.532 1269.31 455.123
865 0 72.1565 12.8609 928 118.961 1269.37 452.179
866 0 78.2055 15.3698 1202 112.854 1268.11 454.972
867 0 80.0342 14.8936 1192 113.606 1269.16 455.389
868 0 83.1913 12.9941 1081 115.692 1267.45 454.27
869 0 85.1029 13.1018 1115 116.052 1267.27 453.431
870 0 89.1246 17.5821 1567 108.409 1267.25 455.383
871 1 47.1245 11.65 549 114.326 1266.83 471.594
872 0 48.0489 12.4873 600 112.143 1267.36 470.872
873 0 49.1256 10.0151 492 115.13 1267.64 473.524
874 0 49.0843 11.2867 554 112.397 1266 470.894
875 0 51.3263 14.0279 720 108.306 1264.59 465.403
876 0 54.2087 13.0606 708 109.479 1263.68 465.325
877 0 57.2153 13.4754 771 108.534 1263.69 467.265
878 0 56.263 13.5613 763 109.107 1263.68 463.754
879 0 58.187 13.0785 761 111.045 1264.16 462.455
880 0 60.1529 13.8314 832 109.583 1264.13 461.382
881 0 62.1842 9.27888 577 117.289 1263.69 461.421
882 0 65.1819 16.7224 1090 105.225 1264.1 460.581
883 0 67.3276 18.6848 1258 103.958 1264.04 458.471
884 0 68.2756 16.1844 1105 108.433 1264 452.641
885 0 72.0893 14.1075 1017 112.822 1264.03 453.355
886 0 73.1016 12.339 902 115.815 1263.25 449.608
887 0 76.2764 15.2996 1167 111.208 1263.8 447.931
888 1 41.035 10.9175 448 114.333 1264.36 467.96
889 0 40.2736 9.36097 377 118.912 1265.09 464.196
890 0 44.2038 9.99915 442 115.844 1265.89 463.649
891 0 43.6206 12.9297 564 109.722 1264.61 459.083
892 0 44.3979 15.9917 710 106.4 1265.36 459.734
893 0 45.1416 11.8959 537 114.019 1267.05 463.065
894 0 46.1879 12.8822 595 112.232 1266.11 460.921
895 0 45.2826 10.578 479 115.127 1266.8 461.05
896 1 100.464 12.9897 1305 118.784 1269.2 432.964
897 1 52.4788 12.2526 643 112.201 1267.75 460.247
898 0 54.4667 13.0906 713 110.372 1267.65 458.975
899 0 52.3403 11.5016 602 114.729 1268.31 460.49
900 0 54.3251 12.3332 670 115.061 1269.69 456.197
901 0 58.2895 13.4158 782 112.839 1270.1 456.395
902 0 58.4941 10.3087 603 118.307 1268.68 460.012
903 0 59.233 12.5099 741 114.92 1269.78 458.845
904 0 62.3471 13.7937 860 112.906 1269.94 458.762
905 0 66.2359 15.4297 1022 110.054 1270.17 458.195
906 0 67.2865 14.8618 1000 112.019 1269.81 458.675
907 0 68.3012 12.1521 830 116.252 1269.64 460.559
908 1 40.0391 9.51571 381 116.635 1268.39 476.407
909 0 41.0673 11.2742 463 115.415 1268.03 475.981
910 0 41.1045 9.70696 399 118.053 1267.98 474.03
911 0 43.0737 10.9347 471 115.843 1268.14 476.909
912 0 46.1146 12.534 578 111.035 1268.4 477.062
913 0 47.024 12.5893 592 117.199 1267.45 471.938
914 0 47.0799 12.3195 580 118.664 1266.67 473.766
915 0 49.11 12.1156 595 120.109 1266.07 474.329
916 0 52.0926 14.3206 746 116.48 1265.34 472.054
917 0 53.0547 12.9489 687 118.798 1264.26 471.812
918 0 53.0781 14.3939 764 116.982 1264.1 469.97
919 0 56.1087 13.4204 753 118.704 1263.4 468.737
920 0 56.0714 14.0178 786 117.865 1263.06 467.024
921 0 57.105 11.3125 646 123.071 1263.09 466.121
922 0 59.0974 13.9262 823 119.632 1263.18 461.812
923 0 60.0456 12.7736 767 121.786 1262.65 462.198
924 0 64.0523 20.6862 1325 107.277 1262.76 460.49
925 0 65.1462 16.1483 1052 115.184 1263.04 457.16
926 0 66.1584 13.906 920 119.932 1262.49 457.017
927 0 70.1557 14.4678 1015 117.871 1262.75 456.681
928 0 69.0991 14.5154 1003 118.923 1262.16 451.62
929 0 74.0933 13.9149 1031 118.185 1262.2 453.162
930 0 75.1322 15.1866 1141 116.56 1263.15 449.77
931 0 78.1084 15.6833 1225 115.298 1262.94 448.32
932 0 81.1137 14.4735 1174 118.578 1263.5 445.725
933 0 82.0689 12.4286 1020 120.132 1264.2 448.945
934 1 42.0536 15.0047 631 114.694 1265.56 461.418
935 0 46.105 13.0571 602 117.638 1265.77 462.131
936 0 46.0959 11.8232 545 119.947 1267.17 462.868
937 0 49.1442 17.0111 836 106.197 1268.56 465.434
938 0 48.3924 14.3618 695 115.705 1270.46 457.055
939 0 48.3583 12.3453 597 119.978 1270.64 457.271
940 0 52.3355 19.2221 1006 107.551 1270.4 457.355
941 0 51.111 14.4392 738 113.683 1271.18 458.125
942 0 53.1432 12.0617 641 117.115 1270.05 458.707
943 0 54.1393 13.9825 757 114.23 1270.9 460.732
944 0 57.0446 12.9197 737 114.776 1271.74 460.019
945 0 59.0629 13.3925 791 114.311 1272.72 459.839
946 0 59.0861 12.321 728 115.732 1272.47 459.757
947 0 62.122 14.214 883 111.458 1270.75 458.66
948 0 62.122 14.2784 887 124.777 1270.73 458.694
949 0 69.3718 14.2565 989 108.987 1271.98 457.168
950 0 68.2308 10.6404 726 113.882 1272.2 458.402
951 0 72.2604 12.5933 910 111.135 1272.03 457.271
952 0 75.15 10.0998 759 114.802 1271.87 457.624
953 0 76.2273 11.0722 844 113.378 1271.25 454.787
954 0 81.2497 13.9693 1135 107.068 1269.36 453.429
955 0 83.2436 14.3795 1197 107.563 1268.37 451.393
956 0 85.3428 10.8386 925 114.674 1269.76 452.117
957 0 90.2926 10.8093 976 114.722 1269.38 450.233
958 1 43.2108 8.09982 350 113.223 1269.33 474.923
959 0 43.2108 8.19239 354 123.542 1269.29 474.726
960 0 46.1783 10.1346 468 111.141 1268 469.141
961 0 48.181 11.0417 532 106.353 1266.93 465.985
962 0 48.0896 12.4351 598 109.574 1265.02 468.122
963 0 53.1028 13.1443 698 107.685 1264.46 468.235
964 0 53.2358 12.5292 667 108.658 1264.12 464.226
965 0 54.3049 10.1648 552 112.511 1263.93 462.815
966 0 57.4425 15.3545 882 104.338 1263.08 463.494
967 0 60.4817 16.4017 992 102.797 1263.13 462.085
968 0 59.3225 13.2328 785 108.2 1262.79 459.025
969 0 63.3691 15.5281 984 104.925 1262.52 455.923
970 0 65.2696 13.4672 879 107.799 1262.58 454.646
971 0 67.3168 11.8395 797 109.875 1262.89 452.336
972 0 68.0873 11.6909 796 111.552 1263.64 456.252
973 0 73.1722 11.9034 871 109.716 1262.44 453.236
974 0 74.2166 10.5772 785 113.089 1263.91 451.023
975 0 75.1316 9.79614 736 114.705 1264.02 447.057
976 1 39.0325 10.2991 402 110.669 1265.22 465.244
977 0 39.0886 10.0797 394 111.556 1265.09 462.967
978 0 42.188 10.6665 450 108.604 1265.48 462.66
979 0 42.3224 12.1685 515 108.033 1265.56 459.433
980 0 45.1677 13.1953 596 106.475 1265.54 457.96
981 0 45.2691 9.47666 429 107.469 1267.91 459.28
982 0 45.2209 10.3713 469 106.192 1267.61 458.64
983 0 50.1863 14.4462 725 100.717 1267.86 455.76
984 0 49.2635 11.5704 570 105.519 1268.65 455.735
985 0 49.3158 8.5571 422 110.059 1269.35 456.936
986 0 52.1602 13.0176 679 104.259 1270.12 456.414
987 0 51.1624 9.94871 509 116.939 1271.98 458.919
988 0 55.16 12.4003 684 112.92 1270.92 460.463
989 0 57.1939 13.97 799 109.285 1269.66 459.986
990 0 60.2377 15.8704 956 105.904 1270.14 461.657
991 0 61.239 13.3575 818 110.427 1271.19 458.43
992 0 62.2103 14.1777 882 110.43 1270.71 460.863
993 0 64.2735 11.8556 762 113.995 1270.67 461.749
994 0 67.2678 15.7133 1057 108.963 1269.41 458.469
995 0 70.1258 16.4561 1154 107.51 1269.55 461.899
996 0 74.2332 13.2825 986 112.452 1269.72 459.536
997 0 72.2376 11.2268 811 110.994 1269.51 460.287
998 0 72.2476 12.8032 925 110.357 1268.88 461.75
999 0 78.3224 12.4613 976 110.038 1268.62 457.576
1000 0 81.3411 13.8061 1123 107.052 1267.07 459.874
1001 1 43.0486 9.89579 426 112.371 1265.97 474.5
1002 0 46.0497 10.5538 486 110.644 1264.9 476.494
1003 0 48.3358 11.4408 553 108.617 1266.76 471.286
1004 0 50.2567 13.2321 665 106.768 1265.6 473.271
1005 0 51.119 10.7788 551 114.561 1263.07 469.401
1006 0 53.0853 12.4517 661 112.884 1262.94 469.522
1007 0 52.0677 12.042 627 113.525 1262.37 466.893
1008 0 55.0831 16.3753 902 109.08 1262.34 467.225
1009 0 58.3827 14.2165 830 111.335 1264.28 466.777
1010 0 59.3177 17.5833 1043 105.868 1264.43 467.704
1011 0 59.2098 11.8393 701 117.328 1264.2 462.01
1012 0 61.1648 13.5535 829 115.515 1264.8 460.796
1013 0 62.1952 15.9016 989 112.674 1264.21 459.042
1014 0 64.2856 12.8489 826 117.226 1264.73 459.837
1015 0 67.2461 14.3205 963 115.792 1264.19 456.957
1016 0 67.2512 14.0815 947 116.857 1264.67 453.176
1017 0 71.246 15.1728 1081 113.817 1265.47 455.652
1018 0 73.175 14.2672 1044 117.004 1266.3 450.554
1019 0 76.31 11.8071 901 120.004 1266.85 450.307
1020 0 79.3819 17.2583 1370 111.62 1266.13 446.063
1021 0 81.3975 14.9636 1218 115.572 1266.92 443.501
1022 1 44.1056 11.3591 501 116.234 1268.52 464.721
1023 0 45.2289 10.4579 473 119.311 1269.01 461.903
1024 0 46.2231 12.3531 571 116.264 1269.12 462.228
1025 0 46.5336 10.8094 503 119.936 1270.12 463.634
1026 0 50.4208 13.9823 705 114.38 1269.77 459.826
1027 0 52.4308 13.8659 727 115.04 1271.09 460.359
1028 0 53.4836 12.172 651 117.865 1271.29 461.135
1029 0 54.6874 16.6766 912 110.789 1271.64 460.093
1030 0 57.5592 14.1072 812 114.41 1271.63 458.596
1031 0 58.2682 14.3818 838 114.424 1273.3 460.26
1032 0 60.1432 16.0118 963 112.282 1273.48 460.732
1033 0 60.1351 12.9708 780 118.399 1272.8 458.64
1034 0 63.349 15.8645 1005 112.236 1272.45 459.335
1035 0 63.2918 12.8611 814 119.775 1273.22 458.179
1036 0 68.1134 13.2133 900 118.088 1272.09 460.82
1037 0 69.2742 15.8501 1098 114.96 1272.54 461.969
1038 0 69.1556 12.696 878 121.689 1271.55 459.9
1039 0 71.3048 14.6694 1046 117.622 1271.58 459.709
1040 0 74.4252 13.4094 998 120.32 1271.21 461.268
1041 0 74.4252 13.3288 992 152.611 1271.23 461.257
1042 0 80.3483 14.3749 1155 120.168 1270.43 454.061
1043 0 82.1987 13.0781 1075 119.932 1267.45 461.8
1044 0 82.1987 13.1511 1081 137.761 1265.42 461.863
1045 0 89.376 12.1845 1089 120.185 1265.97 450.498
1046 1 43.0633 7.57025 326 123.344 1267.1 478.988
1047 0 48.1044 14.1359 680 113.46 1266.96 473.735
1048 0 47.0948 9.3004 438 120.733 1266.65 475.927
1049 0 50.0371 11.2117 561 120.683 1266.9 465.487
1050 0 51.6629 15.1172 781 116.209 1263.1 468.201
1051 0 51.6367 10.9225 564 123.592 1263.77 470.009
1052 0 51.6367 10.9806 567 136.24 1263.78 469.94
1053 0 57.5414 13.8856 799 117.036 1263.34 467.026
1054 0 57.5414 13.8683 798 148.813 1263.3 467.117
1055 0 57.0553 11.4976 656 118.413 1264.5 464.22
1056 0 58.102 12.6157 733 117.473 1264.52 463.124
1057 0 62.1585 15.9109 989 110.997 1264.37 461.392
1058 0 65.1879 14.8801 970 111.47 1264.74 461.636
1059 0 66.0563 14.2 938 113.973 1264.72 457.753
1060 0 69.3785 17.0802 1185 109.365 1264.32 454.686
1061 0 70.1401 12.475 875 115.277 1264.89 459.71
1062 0 73.3169 11.2934 828 118.458 1265.72 450.261
1063 0 75.1681 12.7714 960 116.336 1265.93 451.509
1064 0 79.2712 17.0175 1349 110.203 1266.66 449.333
1065 0 78.1573 14.7523 1153 113.83 1266.68 450.236
1066 0 81.1426 12.2624 995 118.579 1267.45 446.377
1067 0 85.4688 12.5777 1075 116.845 1267.82 447.974
1068 0 90.1066 14.9712 1349 113.277 1268.9 445.211
1069 0 93.124 16.0968 1499 112.133 1269.31 441.841
1070 0 93.2089 14.0974 1314 113.851 1270.68 442.136
1071 0 95.0781 12.7685 1214 116.226 1270.56 442.41
1072 0 99.2924 15.117 1501 112.72 1269.83 439.022
1073 1 52.0409 14.1235 735 113.076 1272.65 464.322
1074 0 50.0621 8.88897 445 122.137 1273.12 461.276
1075 0 55.4547 13.1819 731 114.097 1270.45 458.674
1076 0 58.1473 13.6206 792 112.588 1272.14 462.59
1077 0 59.1156 13.8373 818 112.478 1271.69 463.191
1078 0 62.1058 12.7685 793 111.75 1272.39 462.136
1079 0 64.1638 11.4862 737 112.46 1272.46 462.877
1080 0 66.1274 13.8369 915 110.997 1270.7 465.993
1081 0 69.3824 14.2399 988 110.172 1270.61 460.022
1082 0 71.1818 17.94 1277 105.576 1270.73 463.931
1083 0 74.5183 12.1581 906 112.308 1271.36 464.77
1084 0 77.3569 12.3324 954 112.003 1269.99 463.001
1085 0 81.1824 12.2687 996 113.618 1269.73 457.508
1086 0 84.2098 12.8489 1082 112.431 1269.18 456.53
1087 0 86.559 15.2382 1319 109.986 1268.63 454.884
1088 1 49.1473 12.0861 594 113.044 1268.31 474.145
1089 0 52.1459 11.9856 625 111.408 1268.01 476.718
1090 0 52.1552 13.4023 699 110.697 1267.16 474.452
1091 0 54.1536 11.4674 621 115.475 1268.22 469.24
1092 0 56.2597 11.9979 675 114.579 1267.24 467.436
1093 0 55.0942 6.96989 384 118.536 1265.35 473.677
1094 0 58.0749 14.7051 854 107.443 1264.06 466.448
1095 0 60.0967 12.6962 763 110.387 1264.28 466.499
1096 0 60.1667 11.385 685 115.28 1262.22 465.597
1097 0 64.1464 11.7232 752 113.52 1262.49 463.192
1098 0 67.2519 14.6762 987 108.805 1262.66 460.624
1099 0 67.1594 12.1353 815 114.259 1262.25 458.047
1100 0 73.296 14.4756 1061 110.115 1261.81 454.064
1101 0 73.1742 12.6547 926 113.679 1261.68 454.188
1102 0 75.3376 14.3753 1083 112.542 1262.35 447.466
1103 0 78.2929 14.4458 1131 112.745 1264.99 451.599
1104 0 78.3172 13.6496 1069 113.978 1264.42 453.164
1105 0 83.34 13.9669 1164 113.382 1264.64 447.163
1106 0 85.7142 12.5417 1075 115.83 1264.52 443.487
1107 0 88.5605 12.3306 1092 115.875 1264.48 444.012
1108 0 91.779 12.9768 1191 116.147 1265.68 437.979
1109 1 53.1205 10.6362 565 115.513 1265.78 462.899
1110 0 51.3137 10.1922 523 116.428 1267.36 466.675
1111 0 54.0631 14.2056 768 110.832 1269.71 461.546
1112 0 55.2206 13.9803 772 109.794 1269.52 459.194
1113 0 59.1667 13.876 821 108.38 1267.37 463.764
1114 0 58.3712 14.5448 849 108.331 1266.2 460.226
1115 0 57.48 10.7168 616 115.305 1266.83 460.094
1116 0 61.319 12.2474 751 113.222 1267.79 458.13
1117 0 64.5698 15.1154 976 107.041 1267.39 460.919
1118 0 67.3793 17.5722 1184 103.976 1268.74 458.943
1119 0 67.3793 17.498 1179 129.347 1269.74 458.978
1120 0 69.2705 12.8193 888 112.619 1267.95 456.928
1121 0 71.2246 14.3209 1020 109.269 1267.88 459.166
1122 0 74.3985 15.9143 1184 108.409 1268.3 456.992
1123 0 77.3256 17.9242 1386 105.178 1268.92 455.89
1124 0 77.3256 17.9242 1386 129.447 1267.92 455.89
1125 0 81.3887 13.6628 1112 112.4 1268.2 457.499
1126 0 83.3067 15.677 1306 109.985 1268.16 453.896
1127 0 88.2796 15.8474 1399 110.056 1268.09 455.311
1128 0 89.3139 14.0292 1253 112.838 1265.68 457.559
1129 1 48.188 10.8326 522 124.538 1262.54 478.607
1130 0 50.185 12.9521 650 110.697 1263.62 479.738
1131 0 51.2328 12.9409 663 109.842 1263.71 476.345
1132 0 51.2427 10.4405 535 113.804 1262.67 477.032
1133 0 53.1501 11.063 588 113.165 1262.59 474.071
1134 0 56.4402 12.9872 733 110.106 1261.67 472.273
1135 0 55.366 9.71716 538 115.994 1261.91 471.9
1136 0 59.198 11.6389 689 112.605 1260.64 467.296
1137 0 58.4104 12.2238 714 112.258 1260.67 467.681
1138 0 63.2211 14.9159 943 106.358 1260.7 464.415
1139 0 63.1883 15.6833 991 105.59 1260.05 462.777
1140 0 65.126 13.7272 894 107.482 1260.43 464.821
1141 0 69.2019 13.1933 913 108.462 1260.56 458.481
1142 0 70.1043 14.0077 982 107.664 1259.85 456.021
1143 0 73.3993 14.8775 1092 105.85 1259.91 457.112
1144 0 74.35 14.2569 1060 107.762 1260.03 455.644
1145 0 74.35 14.2972 1063 125.341 1261.05 455.615
1146 0 78.305 13.2431 1037 110.338 1261.21 446.01
1147 0 80.198 14.1151 1132 109.504 1262.38 446.632
1148 0 81.1732 9.22719 749 113.127 1262.7 449.126
1149 0 85.1018 11.3629 967 109.183 1264.44 447.428
1150 0 92.3356 18.9526 1750 99.1069 1264.69 438.366
1151 0 93.5476 11.2777 1055 109.808 1265.39 436.251
1152 1 45.2977 10.0888 457 109.967 1267.39 461.33
1153 0 50.3857 11.8486 597 106.873 1267.12 461.956
1154 0 51.4377 13.2782 683 104.536 1267.99 460.104
1155 0 51.1255 14.1221 722 104.827 1267.73 459.353
1156 0 56.3212 12.5352 706 106.177 1268.38 460.741
1157 0 55.2786 16.8058 929 102.05 1268.21 460.61
1158 0 55.222 12.2415 676 108.188 1268.93 463.044
1159 0 57.3215 12.7701 732 108.933 1269.18 456.576
1160 0 58.4947 12.702 743 109.392 1269.63 459.968
1161 0 59.2802 10.7962 640 112.086 1270.31 458.15
1162 0 61.1668 14.4686 885 107.667 1269.69 459.967
1163 0 61.4499 11.0008 676 115.018 1271.08 465.274
1164 0 64.5819 14.3848 929 109.969 1270.27 458.563
1165 0 66.4941 11.7604 782 114.462 1271.58 465.689
1166 0 67.4948 13.6011 918 111.458 1271.7 464.889
1167 0 71.7269 10.777 773 118.79 1270.33 458.38
1168 0 76.6418 13.661 1047 113.564 1270.18 459.475
1169 0 79.5577 15.9507 1269 110.226 1269.51 461.844
1170 0 81.0505 11.9432 968 117.473 1268.74 458.674
1171 0 84.7265 14.8242 1256 113.9 1268.28 459.723
1172 0 87.7701 15.2216 1336 109.126 1265.61 460.615
1173 0 92.6788 13.7572 1275 110.931 1265.27 457.967
1174 1 49.3104 13.0399 643 109.081 1265.08 474.734
1175 0 52.4499 12.4118 651 109.819 1263.37 475.048
1176 0 48.4211 13.0315 631 112.794 1264.15 469.494
1177 0 50.3856 11.6105 585 113.205 1263.26 471.162
1178 0 52.5718 10.6141 558 113.885 1262.59 469.796
1179 0 55.3058 15.0979 835 107.284 1262.5 469.466
1180 0 57.2906 15.849 908 106.468 1262.21 467.057
1181 0 57.2426 12.4907 715 111.241 1261.9 468.271
1182 0 62.3927 18.079 1128 101.045 1261.4 469.088
1183 0 64.4118 17.1087 1102 102.229 1261.46 461.987
1184 0 63.2957 15.3881 974 106.712 1261.37 462.76
1185 0 63.3244 12.3491 782 111.118 1260.79 465.256
1186 0 66.2338 15.3094 1014 107.129 1261.61 456.734
1187 0 66.1981 12.0849 800 112.48 1262.15 456.13
1188 0 68.3495 10.7682 736 113.891 1260.58 458.292
1189 0 74.445 17.1267 1275 104.878 1261.07 451.29
1190 0 77.2448 15.7033 1213 105.705 1262.06 451.918
1191 0 77.4636 11.9927 929 111.327 1262.17 450.168
1192 0 79.2178 13.4818 1068 111.4 1261.2 443.702
1193 0 83.4153 13.2709 1107 110.608 1262.17 443.995
1194 0 84.476 13.708 1158 109.692 1263.56 444.674
1195 0 88.1309 14.104 1243 109.774 1263.33 441.897
1196 1 47.4367 11.2571 534 113.661 1264.12 459.627
1197 0 47.4367 11.2571 534 131.185 1264.08 459.537
1198 0 55.3036 15.6952 868 103.921 1264.57 458.098
1199 0 54.5098 17.4648 952 102.88 1265.95 459.99
1200 0 55.1922 11.1248 614 112.668 1265.22 457.785
1201 0 55.1643 13.487 744 109.897 1267.22 456.073
1202 0 59.2447 15.5457 921 106.33 1267.66 455.04
1203 0 62.4276 11.7096 731 110.692 1268.33 459.899
1204 0 63.2491 12.4903 790 108.99 1268.37 459.614
1205 0 63.4843 11.1366 707 112.487 1268.59 453.347
1206 0 66.3213 14.083 934 107.907 1268.34 455.949
1207 0 67.3359 14.94 1006 106.622 1267.95 456.401
1208 0 71.1433 17.2047 1224 102.94 1268.36 455.693
1209 0 71.3175 12.4794 890 110.391 1267.42 455.799
1210 0 73.3238 12.7107 932 110.498 1267.58 452.792
1211 0 76.3548 15.7685 1204 105.987 1267.29 453.878
1212 0 80.2332 15.4051 1236 107.363 1267.21 453.86
1213 0 82.1277 13.479 1107 110.791 1267.43 454.874
1214 0 84.1429 13.6672 1150 110.85 1266.72 450.15
1215 0 85.1368 12.2391 1042 113.381 1265.13 450.21
1216 0 91.4034 17.1547 1568 106.567 1266.08 448.717
1217 1 48.4785 11.5928 562 112.274 1266.42 475.569
1218 0 53.5388 12.645 677 111.527 1264.5 474.114
1219 0 52.2582 12.2469 640 109.744 1265.52 474.52
1220 0 51.1522 10.674 546 113.249 1265.12 472.427
1221 0 56.0516 15.4857 868 105.942 1264.69 473.226
1222 0 55.1741 13.6477 753 109.826 1265.1 468.721
1223 0 59.0986 14.0782 832 108.321 1264 467.089
1224 0 61.1153 13.6463 834 109.428 1264.21 465.727
1225 0 63.1508 12.6364 798 110.231 1260.76 466.763
1226 0 64.1418 15.6061 1001 106.687 1262.55 468.589
1227 0 68.1309 15.4262 1051 106.784 1262.27 457.188
1228 0 69.1953 11.4314 791 112.652 1261.47 461.552
1229 0 71.1907 13.6675 973 110.098 1261.69 455.293
1230 0 75.3354 13.6987 1032 109.167 1261.5 452.713
1231 0 79.3673 16.5433 1313 104.971 1261.65 453.428
1232 0 80.2497 13.8194 1109 108.387 1261.34 453.354
1233 0 85.2781 15.3029 1305 106.824 1262.51 450.656
1234 0 86.1715 14.564 1255 109.189 1262.8 444.653
1235 0 85.231 13.0821 1115 112.6 1262.9 446.266
1236 0 90.3309 13.528 1222 111.793 1262.8 441.338
1237 0 93.4201 15.5962 1457 108.589 1264.36 441.844
1238 0 95.1754 14.1318 1345 112.013 1264.62 435.921
1239 0 98.2829 13.3187 1309 113.271 1265.86 441.25
1240 0 100.178 13.2864 1331 115.408 1266.37 435.859
1241 0 102.212 15.3896 1573 111.435 1267.11 438.598
1242 0 107.188 15.4495 1656 112.559 1267.74 432.426
1243 0 108.273 14.9068 1614 114.524 1268.56 432.081
1244 0 111.21 13.8387 1539 116.273 1268.53 434.574
1245 0 115.178 15.8016 1820 113.341 1270.18 434.027
1246 0 115.178 15.793 1819 136.994 1272.19 433.782
1247 0 123.522 15.1551 1872 115.142 1270.01 427.003
1248 0 125.215 13.7603 1723 117.338 1269.44 432.457
1249 1 66.2321 14.0264 929 116.027 1270.66 455.89
1250 0 69.1298 16.4039 1134 111.656 1270.94 457.426
1251 0 73.3332 13.1182 962 116.315 1270.14 459.802
1252 0 76.3654 12.689 969 118.515 1270.22 454.314
1253 0 78.2352 15.6324 1223 114.738 1268.98 452.023
1254 0 80.322 15.164 1218 114.076 1269.11 459.064
1255 0 82.1163 13.6879 1124 116.853 1266.91 459.242
1256 0 88.1756 14.9701 1320 114.939 1267.47 456.335
1257 0 90.1828 19.8375 1789 107.51 1267.47 459.024
1258 0 94.094 13.4971 1270 117.88 1266.04 452.84
1259 1 46.0672 11.4181 526 119.513 1265.72 473.624
1260 0 48.0464 11.5513 555 116.831 1264.2 481.369
1261 0 53.0827 14.2984 759 113.792 1263.52 471.947
1262 0 52.1996 12.1648 635 115.274 1263.21 473.485
1263 0 52.2176 14.5162 758 111.815 1262.54 469.644
1264 0 54.2415 13.0712 709 113.554 1262.34 469.13
1265 0 58.1257 11.5956 674 112.558 1261.38 470.547
1266 0 60.0898 13.5297 813 111.081 1261.99 467.146
1267 0 60.4005 14.7515 891 108.223 1261.42 467.465
1268 0 61.196 13.1708 806 111.468 1260.14 464.479
1269 0 63.2383 11.4171 722 114.166 1260.77 463.417
1270 0 66.1357 14.4551 956 109.219 1261.01 459.703
1271 0 69.0993 14.2114 982 108.383 1261.54 456.352
1272 0 71.1722 13.7413 978 109.235 1260.88 455.467
1273 0 73.0981 13.8854 1015 108.682 1261.6 451.658
1274 0 76.3273 13.6517 1042 109.784 1261.43 453.125
1275 0 78.1472 13.1419 1027 110.221 1261.48 452.119
1276 0 80.3604 14.5718 1171 107.383 1262.29 453.532
1277 0 84.1972 18.9436 1595 102.029 1263.17 445.434
1278 1 43.0494 12.8689 554 106.359 1261.48 469.224
1279 0 44.0791 12.6817 559 105.984 1262.51 465.742
1280 0 47.1587 10.1784 480 113.148 1263.43 466.535
1281 0 47.1617 11.0895 523 114.562 1264.83 463.56
1282 0 48.1842 11.7673 567 115.467 1265.43 459.31
1283 0 50.1806 10.9405 549 115.075 1265.03 464.729
1284 0 50.1736 14.0313 704 112.611 1265.85 461.308
1285 0 53.2382 13.5617 722 112.755 1266.32 462.759
1286 0 55.097 11.9607 659 115.915 1267.16 462.797
1287 0 55.1355 11.6259 641 116.349 1268.36 461.646
1288 0 57.4718 14.7551 848 109.767 1269.82 464.994
1289 0 58.2985 16.913 986 109.308 1269.64 459.417
1290 0 61.4483 11.0011 676 112.583 1269.45 456.321
1291 0 63.4879 11.766 747 110.265 1270.15 458.535
1292 0 66.4048 13.5081 897 107.766 1270.43 458.647
1293 0 67.4852 13.3066 898 106.96 1270.51 459.753
1294 0 69.5048 15.2939 1063 105.166 1270.12 459.39
1295 0 73.3973 18.2296 1338 101.749 1270.17 452.993
1296 0 76.2242 15.9661 1217 104.616 1269.09 454.827
1297 0 81.2627 18.0895 1470 101.03 1269.57 459.712
1298 0 81.3885 13.1837 1073 108.582 1268.6 459.379
1299 1 42.5565 12.1251 516 105.293 1270.21 478.682
1300 0 42.2522 12.4017 524 106.553 1269.65 478.111
1301 0 43.481 14.2591 620 105.061 1267.89 476.381
1302 0 47.3451 14.6372 693 103.371 1267.66 476.681
1303 0 49.178 13.9087 684 104.792 1267.2 475.77
1304 0 51.2755 13.0472 669 106.392 1265.2 474.62
1305 0 51.0816 13.175 673 106.859 1265.04 477.523
1306 0 50.5347 10.8243 547 111.956 1264.6 471.923
1307 0 56.0944 13.7447 771 105.786 1263.99 474.261
1308 0 59.3154 14.7685 876 108.493 1260.08 465.261
1309 0 60.3441 12.4453 751 112.133 1263.36 462.491
1310 0 61.3764 13.2461 813 111.664 1263.41 463.536
1311 0 62.5125 11.8056 738 113.98 1262.64 463.52
1312 0 64.5282 14.9857 967 112.513 1262.37 459.76
1313 0 67.6354 13.6171 921 113.716 1261.91 458.235
1314 0 68.4368 10.9006 746 117.426 1262.22 460.886
1315 0 71.5296 16.4407 1176 110.339 1262.37 452.628
1316 0 75.598 14.0877 1065 114.157 1262.6 452.872
1317 0 77.3996 13.4368 1040 116.045 1262.44 450.517
1318 0 80.2879 14.4231 1158 116.628 1262.71 445.68
1319 0 84.3792 15.3711 1297 113.87 1263.03 448.618
1320 0 84.3833 15.2281 1285 117.075 1263.53 442.831
1321 0 85.353 13.5906 1160 121.223 1264.18 439.82
1322 0 89.636 17.0021 1524 115.523 1264.26 440.029
1323 0 91.5583 14.3297 1312 121.72 1265.52 438.109
1324 1 49.0503 12.7828 627 118.456 1266.1 459.547
1325 0 53.4294 13.7378 734 116.857 1266.61 459.571
1326 0 52.7852 15.2694 806 116.303 1266.96 453.274
1327 0 52.5014 11.1235 584 125.373 1266.11 453.354
1328 0 57.3119 16.0351 919 114.354 1267.33 454.694
1329 0 57.3119 16.0002 917 142.423 1268.32 454.771
1330 0 60.2797 15.2954 922 114.13 1267.39 456.361
1331 0 60.1766 12.3802 745 120.416 1267.71 456.436
1332 0 65.3027 16.8293 1099 110.662 1267.62 458.03
1333 0 66.2618 15.1973 1007 114.768 1268.77 453.882
1334 0 69.2355 14.7757 1023 114.201 1267.43 457.65
1335 0 71.2487 17.9652 1280 108.787 1268.96 458.471
1336 0 72.4228 13.5178 979 116.3 1268.57 455.685
1337 0 75.5068 14.3166 1081 115.652 1268.28 452.395
1338 0 80.4619 17.7724 1430 109.573 1267.86 452.757
1339 0 81.7236 16.7761 1371 111.28 1267.53 454.969
1340 0 84.569 12.9007 1091 118.906 1267.91 450.394
1341 0 89.7474 15.9225 1429 113.51 1267.09 450.802
1342 0 92.7786 17.7627 1648 111.157 1266.96 448.066
1343 1 44.286 11.4483 507 120.815 1265.53 469.712
1344 0 50.4784 14.323 723 114.285 1264.83 469.076
1345 0 48.1382 12.3602 595 118.98 1263.86 470.793
1346 0 52.3938 11.7762 617 110.417 1263.44 467.062
1347 0 51.1535 13.8212 707 109.252 1263.22 465.967
1348 0 56.2211 14.1406 795 107.781 1263.78 465.133
1349 0 56.0675 16.3196 915 105.737 1262.93 466.699
1350 0 56.1741 9.48836 533 118.373 1262.95 460.657
1351 0 60.1791 12.5126 753 113.603 1262.29 461.159
1352 0 62.2881 13.7265 855 108.289 1262.28 464.226
1353 0 65.3593 12.0105 785 112.164 1261.72 459.154
1354 0 67.5511 12.4942 844 112.677 1261.66 456.454
1355 0 67.2259 11.6027 780 114.401 1261.8 452.954
1356 0 72.3995 13.9366 1009 109.851 1261.57 452.057
1357 0 74.5185 12.8156 955 112.514 1262.01 448.151
1358 0 75.4869 12.7572 963 113.251 1261.65 444.602
1359 0 77.5918 10.9934 853 116.457 1261.81 442.056
1360 0 80.3386 10.991 883 114.05 1261.97 447.77
1361 0 82.3125 13.1329 1081 113.397 1262.76 439.476
1362 0 84.366 14.283 1205 112.998 1263.94 437.935
1363 0 87.3621 10.7827 942 120.034 1264.47 428.51
1364 1 46.2421 12.8238 593 107.44 1263.7 453.494
1365 0 47.193 12.0569 569 109.75 1264.93 450.069
1366 0 49.5754 10.8522 538 122.009 1264.57 449.433
1367 0 53.6675 10.6768 573 120.373 1265.79 452.532
1368 0 54.3935 12.4096 675 118.619 1267.98 456.161
1369 0 55.2592 12.378 684 118.863 1268.99 457.358
1370 0 54.2882 10.96 595 121.857 1269.91 457.657
1371 0 59.3331 13.3484 792 114.872 1270.17 456.855
1372 0 63.1977 12.6745 801 115.483 1270.1 455.69
1373 0 65.5393 12.4658 817 116.311 1271.39 458.395
1374 0 68.5227 15.6882 1075 111.098 1270.23 456.395
1375 0 68.2686 11.5133 786 118.574 1271.43 452.565
1376 0 68.2686 11.4108 779 136.246 1272.44 452.506
1377 0 74.4338 13.4885 1004 114.42 1271.21 455.035
1378 0 75.2492 13.6214 1025 114.314 1271.05 451.961
1379 0 79.3665 14.9811 1189 112.248 1270.27 455.346
1380 0 79.7544 12.4633 994 117.733 1269.41 455.15
1381 0 83.3946 13.61 1135 115.674 1269.22 453.896
1382 0 85.7558 14.3314 1229 113.542 1268.78 456.351
1383 0 89.3318 11.989 1071 118.496 1269.11 452.452
1384 0 89.3318 11.9442 1067 137.051 1269.1 452.368
1385 0 91.5836 12.8189 1174 116.937 1268.13 456.203
1386 0 97.8692 15.1529 1483 112.608 1267.67 451.912
1387 0 100.168 12.3992 1242 116.126 1267.21 451.723
1388 0 101.948 12.3887 1263 116.567 1265.78 447.315
1389 1 53.5357 10.1054 541 118.752 1266.87 470.701
1390 0 57.8443 12.8967 746 114.312 1265.73 471.887
1391 0 57.8443 12.7757 739 133.065 1265.68 471.922
1392 0 62.2523 11.2606 701 110.793 1265.2 466.013
1393 0 62.2453 11.9366 743 110.982 1263.97 463.654
1394 0 67.4761 15.1313 1021 106.367 1264.49 462.001
1395 0 67.2479 11.8071 794 111.822 1264.19 460.033
1396 0 70.425 12.4246 875 110.835 1263.59 460.699
1397 0 70.425 12.4104 874 141.737 1262.6 460.672
1398 0 74.1436 12.3139 913 114.912 1263.35 456.556
1399 0 73.2144 11.118 814 116.844 1263.7 457.676
1400 0 78.2127 13.8085 1080 113.725 1264.04 451.973
1401 0 79.4285 12.4766 991 117.237 1264.2 450.056
1402 0 83.344 13.1743 1098 115.872 1263.82 449.842
1403 0 79.5892 11.3206 901 119.877 1264.02 449.189
1404 0 88.7453 13.7359 1219 116.268 1263.64 442.858
1405 0 90.4718 16.8671 1526 111.082 1264.57 442.617
1406 0 94.7905 15.8138 1499 111.075 1264.89 446.919
1407 0 93.539 12.5509 1174 120.564 1265.64 438.428
1408 0 93.539 12.5723 1176 146.143 1266.63 438.56
1409 0 103.478 16.2933 1686 114.016 1266.59 437.598
1410 0 103.466 15.8893 1644 115.72 1268.3 440.566
1411 0 109.447 15.4686 1693 117.281 1268.19 431.064
1412 0 108.31 12.7504 1381 123.292 1268.95 429.7
1413 0 114.352 17.2886 1977 114.581 1268.72 435.716
1414 1 62.2608 12.3031 766 116.886 1270.07 457.012
1415 0 64.2439 12.2969 790 116.281 1270.32 460.473
1416 0 66.2258 11.1286 737 118.95 1269.33 459.232
1417 0 67.2233 14.489 974 114.393 1271.58 456.121
1418 0 67.2233 14.5783 980 124.65 1271.6 456.051
1419 0 70.214 12.5474 881 118.72 1271.14 455.402
1420 0 74.275 13.2481 984 116.105 1269.93 459.103
1421 0 76.1932 13.1902 1005 117.273 1270.89 460.106
1422 0 79.1893 16.2522 1287 113.886 1271.05 455.808
1423 0 81.2269 14.9827 1217 116.686 1270.52 457.689
1424 0 84.262 14.2888 1204 118.022 1269.61 453.107
1425 0 88.1805 16.5002 1455 112.985 1268.99 459.792
1426 0 90.1843 15.3353 1383 116.273 1268.87 457.208
1427 0 93.252 12.6968 1184 120.997 1268.91 457.738
1428 0 95.5847 13.5482 1295 120.611 1267.05 455.171
1429 0 99.5436 16.646 1657 116.128 1266.57 452.308
1430 0 100.603 14.6616 1475 119.695 1265.54 455.402
1431 0 104.434 14.8515 1551 120.219 1265.46 446.532
1432 0 106.718 11.2071 1196 126.431 1264.33 447.808
1433 0 113.612 15.0865 1714 119.618 1264.28 444.974
1434 1 59.1536 10.4643 619 123.793 1263.5 470.725
1435 0 61.3325 11.2828 692 121.618 1264.23 469.936
1436 0 61.1419 12.2993 752 121.503 1263.75 465.955
1437 0 61.1419 12.2338 748 144.731 1263.73 465.956
1438 0 67.108 15.4378 1036 115.119 1263.65 465.27
1439 0 71.249 13.9932 997 116.665 1262.96 463.908
1440 0 69.2557 12.0134 832 121.799 1262.48 457.767
1441 0 71.4628 12.0062 858 121.685 1262.92 456.828
1442 0 73.2947 13.3025 975 119.644 1262.73 456.159
1443 0 81.2934 15.1919 1235 114.364 1263.38 455.833
1444 0 81.2243 15.0448 1222 116.205 1262.74 452.241
1445 0 82.201 12.7979 1052 119.783 1263.13 449.948
1446 1 45.0977 13.371 603 118.149 1264.33 464.882
1447 0 45.0977 13.371 603 134.738 1265.3 464.925
1448 0 48.1511 13.9976 674 117.315 1264.19 464.82
1449 0 51.0572 12.437 635 117.668 1265.58 462.931
1450 0 51.0389 13.0881 668 119.717 1266.43 459.991
1451 0 53.1702 14.068 748 117.39 1265.97 452.659
1452 0 53.1702 14.0868 749 136.442 1265.96 452.676
1453 0 57.1204 19.3451 1105 109.532 1267.15 444.937
1454 0 58.1017 14.9393 868 115.957 1267.68 456.353
1455 0 59.1182 16.3063 964 114.755 1267.98 453.647
1456 0 63.1981 14.1935 897 116.684 1268.89 455.601
1457 0 62.2216 14.9305 929 116.168 1269.13 455.671
1458 0 66.3315 14.8346 984 116.53 1268.96 453.836
1459 0 69.3854 16.8047 1166 112.239 1270.03 457.1
1460 0 69.2441 12.4198 860 121.121 1269.36 452.774
1461 0 71.1395 13.4243 955 119.491 1268.91 452.407
1462 0 75.349 17.6379 1329 112.517 1269.39 455.035
1463 0 77.4317 18.1579 1406 112.084 1268.39 449.546
1464 0 80.2536 19.5505 1569 110.082 1268.92 450.513
1465 0 80.2536 19.5505 1569 124.081 1269.92 450.513
1466 0 85.1267 17.0922 1455 111.315 1269.45 453.068
1467 0 87.105 16.2103 1412 113.268 1268.91 452.67
1468 0 90.2958 14.9841 1353 116.033 1268.99 452.155
1469 0 93.1529 15.3511 1430 115.204 1268.78 453.691
1470 1 50.1293 10.6923 536 119.035 1268.67 476.659
1471 0 51.0747 11.2972 577 117.369 1268.25 478.879
1472 0 53.1457 15.6739 833 112.571 1267.47 473.407
1473 0 55.3589 15.0834 835 112.861 1264.5 471.942
1474 0 57.4234 11.5458 663 119.388 1263.2 468.071
1475 0 58.2279 13.5674 790 116.551 1262.8 466.468
1476 0 60.2694 17.6043 1061 110.011 1262.97 468.053
1477 0 64.3579 14.3261 922 114.309 1262.71 465.483
1478 0 66.3453 13.701 909 115.226 1261.81 462.21
1479 0 70.4552 17.0889 1204 109.502 1261.72 462.828
1480 0 70.2283 15.4923 1088 113.206 1260.87 461.792
1481 0 73.2875 14.177 1039 114.341 1260.69 456.933
1482 0 73.2875 14.2453 1044 139.596 1259.67 456.928
1483 0 77.2231 16.2387 1254 111.539 1260.41 452.266
1484 0 79.2251 14.8312 1175 113.303 1260.24 447.643
1485 0 83.1483 14.5283 1208 114.041 1260.49 448.494
1486 0 85.2058 15.1985 1295 114.129 1261.69 442.804
1487 0 90.7192 15.9724 1449 111.59 1260.87 445.129
1488 0 91.5354 16.5728 1517 111.532 1260.85 437.322
1489 0 94.4182 14.2875 1349 114.919 1261.16 442.87
1490 0 95.4892 14.6509 1399 114.517 1261.67 441.467
1491 0 100.624 16.8945 1700 111.549 1262.79 434.761
1492 0 103.403 15.4445 1597 113.282 1264.09 438.258
1493 1 52.6296 11.8755 625 117.165 1263.65 458.397
1494 0 55.5465 12.152 675 116.91 1264.81 456.778
1495 0 57.3294 13.2044 757 112.37 1265.73 451.288
1496 0 61.554 13.4353 827 115.682 1266.12 455.842
1497 0 64.0894 11.8116 757 115.703 1267.6 456.321
1498 0 65.1684 15.483 1009 109.897 1268.16 456.476
1499 0 72.113 11.4959 829 113.717 1269.26 458.261
1500 0 69.217 11.8324 819 112.427 1268.2 455.153
1501 0 75.193 13.8577 1042 109.37 1269.9 455.079
1502 0 76.116 14.8326 1129 107.699 1269.38 446.712
1503 0 80.3303 15.5981 1253 105.511 1269.13 451.139
1504 0 80.1962 13.866 1112 109.398 1269.3 450.982
1505 0 81.3094 13.2826 1080 110.73 1269.22 453.398
1506 0 85.2262 17.2365 1469 107.181 1269.58 449.895
1507 0 85.2262 17.2247 1468 128.452 1270.6 449.715
1508 0 95.2536 12.0415 1147 112.749 1269.36 452.412
1509 0 92.1307 15.7168 1448 108.95 1267.75 449.505
1510 0 95.3949 12.7051 1212 113.725 1268.15 448.163
1511 0 98.5554 17.2695 1702 107.998 1267.43 449.788
1512 0 101.417 10.7378 1089 117.268 1267.57 446.914
1513 0 104.567 13.8475 1448 112.197 1267.65 448.666
1514 0 110.486 13.0424 1441 113.858 1266.26 447.454
1515 1 59.2293 12.6795 751 111.25 1265.77 469.812
1516 0 62.0771 15.3197 951 107.883 1264.35 470.999
1517 0 63.1993 16.2818 1029 108.204 1264.56 466.951
1518 0 63.3987 14.4325 915 111.311 1264.56 467.585
1519 0 66.4469 13.0179 865 113.931 1263.74 464.054
1520 0 67.0518 14.9288 1001 111.818 1263.28 467.709
1521 0 69.1689 13.0405 902 113.347 1262.97 468.365
1522 0 73.3436 13.0618 958 115.89 1262.23 460.53
1523 0 74.3964 13.1458 978 114.237 1262.18 462.882
1524 0 81.2336 16.828 1367 107.8 1262.57 457.437
1525 0 80.3291 16.7436 1345 108.055 1261.96 457.866
1526 0 82.2739 14.6705 1207 114.609 1262.67 451.93
1527 0 88.313 20.0197 1768 105.623 1261.3 456.913
1528 0 88.2649 13.7994 1218 115.685 1261.11 452.434
1529 0 90.1728 14.7273 1328 117.151 1261.3 446.27
1530 1 47.0197 9.2089 433 120.503 1261.85 472.06
1531 0 49.2122 14.0006 689 115.652 1261.95 468.675
1532 0 54.1647 12.4989 677 118.425 1263.44 464.146
1533 0 53.2093 12.0844 643 120.658 1263.03 462.91
1534 0 59.225 18.7083 1108 106.675 1263.88 460.058
1535 0 60.0947 14.6768 882 117.366 1261.73 454.096
1536 0 61.1086 14.6461 895 118.261 1262.92 454.115
1537 0 60.103 15.5733 936 139.581 1263.94 453.452
1538 0 64.1637 14.9617 960 118.335 1263.4 449.078
1539 0 66.0931 14.6763 970 118.253 1264.41 452.354
1540 0 70.0823 19.5342 1369 109.096 1264.14 456.704
1541 0 71.116 15.7067 1117 115.069 1264.49 452.218
1542 0 74.0983 15.9113 1179 115.639 1265.1 448.073
1543 0 76.1583 17.503 1333 113.63 1265.33 450.11
1544 0 77.2845 14.9965 1159 117.665 1266.86 449.776
1545 0 83.194 14.965 1245 117.212 1267.2 449.999
1546 0 84.3398 19.9668 1684 109.873 1267.07 448.28
1547 0 86.2158 20.6343 1779 110.221 1268 445.626
1548 0 91.3641 20.8178 1902 110.114 1268.08 442.003
1549 1 42.1617 12.9739 547 124.795 1267.29 469.205
1550 0 46.2095 15.8625 733 118.286 1268.65 471.874
1551 0 48.2574 14.2362 687 120.215 1267.67 470.071
1552 0 47.0942 14.7152 693 118.156 1268.2 470.524
1553 0 49.2831 15.2182 750 118.849 1268.51 472.293
1554 0 50.2774 16.0509 807 116.554 1267.42 472.974
1555 0 51.1537 16.0497 821 117.825 1266.52 469.962
1556 0 51.1537 16.0497 821 149.372 1265.52 469.962
1557 0 53.1748 14.0856 749 121.701 1266.05 472.417
1558 0 57.1859 15.2835 874 119.122 1264.99 468.484
1559 0 60.3993 16.1095 973 117.604 1264.33 470.259
1560 0 60.1875 22.1973 1336 109.597 1263.59 465.395
1561 0 63.4843 16.2245 1030 117.935 1263.12 465.926
1562 0 64.5109 17.1444 1106 117.019 1262.69 467.216
1563 0 69.399 17.5074 1215 117.144 1262.49 465.736
1564 0 70.2984 19.9293 1401 114.814 1262.02 461.266
1565 0 71.4713 14.2855 1021 124.129 1261.81 462.772
1566 0 75.2603 18.921 1424 117.593 1262.05 455.817
1567 0 78.6739 14.2868 1124 123.491 1261.2 458.37
1568 0 78.6739 14.2233 1119 150.556 1261.18 458.403
1569 1 38.217 15.6737 599 126.698 1259.85 471.733
1570 0 40.3239 13.6892 552 130.011 1260.31 471.375
1571 0 42.4112 19.9476 846 119.141 1260.96 470.898
1572 0 43.5987 15.8262 690 127.029 1260.76 468.751
1573 0 44.3468 14.8602 659 130.428 1261.06 467.493
1574 0 46.2644 18.524 857 124.88 1261.51 466.736
1575 0 49.225 17.674 870 125.452 1263.04 461.62
1576 0 50.4065 17.22 868 128.388 1263.05 459.068
1577 0 52.3705 18.6555 977 125.182 1262.9 459.864
1578 0 54.1844 21.5745 1169 121.435 1263.68 460.757
1579 0 55.2922 19.3517 1070 125.018 1264.61 456.978
1580 0 59.4 17.3064 1028 127.876 1265 456.555
1581 0 59.178 18.2162 1078 128.858 1265.68 454.552
1582 0 62.4882 20.6439 1290 125.695 1265.71 456.548
1583 0 63.4086 21.117 1339 126.063 1266.4 452.938
1584 0 66.2271 19.2368 1274 129.275 1267.13 455.306
1585 0 68.4776 17.8014 1219 132.823 1267.54 452.454
1586 0 70.2683 17.0347 1197 133.916 1267.86 453.751
1587 0 73.2822 16.3614 1199 134.552 1267.61 458.298
1588 0 75.3178 23.1021 1740 124.486 1268.08 453.986
1589 0 76.5019 17.9081 1370 134.619 1267.89 453.656
1590 0 79.222 18.7953 1489 132.285 1268.29 455.48
1591 0 82.3398 17.6707 1455 135.201 1268.41 452.851
1592 1 41.0274 12.8451 527 144.085 1267.41 473.905
1593 0 40.1861 14.4329 580 145.8 1267.28 470.495
1594 0 44.2004 15.9048 703 139.404 1267.35 473.36
1595 0 45.0764 21.4525 967 129.702 1267.35 473.636
1596 0 48.234 19.1151 922 132.886 1266.79 473.681
1597 0 49.1402 18.2335 896 134.564 1266.6 474.482
1598 0 51.2369 15.4186 790 139.535 1266.34 473.857
1599 0 52.2187 18.2119 951 136.232 1266.32 470.794
1600 0 53.0818 17.2941 918 136.436 1265.87 472.889
1601 0 56.1662 16.9497 952 135.714 1264.19 471.838
1602 0 60.3713 18.5684 1121 131.393 1264.8 470.934
1603 0 63.2663 18.3984 1164 132.052 1263.97 470.104
1604 0 64.4205 18.7363 1207 131.039 1263.89 468.076
1605 0 67.1358 18.5594 1246 130.814 1263.37 464.659
1606 0 69.1998 19.292 1335 130.467 1262.01 463.628
1607 0 72.2563 18.988 1372 130.521 1262.24 461.002
1608 0 71.1834 17.0405 1213 136.515 1261.56 458.325
1609 0 74.2567 21.0351 1562 129.405 1261.62 460.179
1610 0 76.3074 21.9114 1672 126.458 1261.49 457.523
1611 0 83.4264 22.9663 1916 122.669 1261.15 451.027
1612 0 82.7551 19.4187 1607 129.054 1260.94 455.781
1613 0 86.1885 18.0418 1555 133.983 1260.88 450.923
1614 0 91.4496 22.5151 2059 124.833 1260.37 450.58
1615 0 94.3138 17.5266 1653 132.67 1259.57 446.411
1616 0 96.1767 17.6758 1700 133.054 1260.26 445.517
1617 0 102.471 19.6152 2010 130.097 1260.96 442.026
1618 0 105.575 19.73 2083 130.327 1261.06 438.27
1619 1 45.34 18.7693 851 127.733 1261.74 463.439
1620 0 43.2877 15.6395 677 134.183 1262.32 462.015
1621 0 43.2877 15.524 672 157.702 1263.32 461.943
1622 0 48.4683 18.0324 874 128.162 1262.97 460.902
1623 0 48.1898 16.1237 777 131.181 1264.13 456.983
1624 0 47.2792 14.9326 706 132.19 1265.45 459.569
1625 0 51.1334 17.1708 878 126.815 1265.9 459.891
1626 0 50.5803 14.907 754 131.235 1266.02 458.241
1627 0 52.2179 15.8949 830 126.178 1266.27 459.643
1628 0 51.2106 17.1254 877 124.873 1267.34 459.444
1629 0 54.4031 15.8447 862 125.075 1267.91 458.053
1630 0 52.3384 15.973 836 125.609 1268.28 459.94
1631 0 53.4613 17.4893 935 123.579 1269.31 459.873
1632 0 54.4392 13.3543 727 128.988 1269.44 460.528
1633 0 55.1805 18.4485 1018 121.719 1269.22 459.815
1634 0 52.3438 14.0036 733 125.619 1269.11 463.07
1635 0 57.3724 11.9744 687 128.584 1269.2 461.504
1636 0 59.5479 12.746 759 124.598 1268.74 464.889
1637 0 60.303 12.3874 747 125.738 1268.31 466.001
1638 0 60.303 12.4538 751 116.783 1267.31 466.244
1639 0 62.5711 17.0526 1067 120.871 1267.82 463.427
1640 0 61.176 11.1318 681 129.112 1267.21 461.843
1641 0 64.4788 10.4686 675 130.191 1267.42 461.449
1642 0 62.2864 8.34853 520 131.733 1265.59 465.573
1643 0 68.8383 15.4856 1066 125.21 1265.48 461.589
1644 0 68.8281 15.546 1070 102.518 1265.52 461.739
1645 0 73.6032 9.0621 667 134.105 1263.9 450.286
1646 1 58.1462 15.7706 917 128.583 1263.26 452.908
1647 0 56.5731 16.1738 915 128.403 1262.04 448.76
1648 1 82.0932 11.0971 911 131.158 1262.64 442.403
1649 0 85.8142 12.5853 1080 128.043 1261.81 441.144
1650 0 79.2806 13.5594 1075 128.265 1260.86 444.475
1651 1 88.2322 6.6529 587 137.223 1261.76 438
1652 0 92.8131 13.2309 1228 126.973 1261.61 441.885
1653 0 94.3936 12.9564 1223 127.869 1260.65 419.503
1654 0 94.0622 13.1828 1240 127.276 1259.7 422.808
1655 1 0 0 1 126 1258 449
1656 1 34.2922 6.96952 239 109.092 1261.1 468.531
1657 1 104.157 13.0861 1363 129.638 1261.22 411.745
1658 1 208.135 8.0669 1679 160.065 1261.39 353.438
1659 1 186.717 13.3999 2502 150.563 1261.53 354.763
1660 0 189.233 16.3502 3094 144.686 1260.98 351.622
1661 1 150.842 3.40092 513 145.885 1262.35 402.647
1662 1 136.222 8.33198 1135 137.989 1262.05 399.174
1663 1 108.804 12.3801 1347 137.125 1262.58 386.445
1664 0 103.434 6.47756 670 137.137 1262.15 407.004
1665 1 61.9693 11.3605 704 137.536 1264 400.92
1666 0 62.0027 11.3705 705 120.116 1265 400.96
1667 0 65.3365 8.2496 539 111.38 1265.11 454.352
1668 0 63.8805 2.3951 153 120.275 1266.22 456.078
1669 1 45.347 7.98289 362 111.992 1267.45 460.815
1670 0 42.2564 3.26578 138 118.297 1267.41 466.094
1671 0 48.1691 9.61198 463 111.346 1268.37 462.162
1672 0 45.0923 3.68134 166 119.217 1268.55 466.319
1673 0 45.1037 3.6139 163 109.27 1269.58 465.859
1674 0 45.1729 5.7778 261 118.667 1268.66 466.529
1675 0 49.2869 8.88674 438 114.539 1269.53 465.747
1676 0 49.4641 6.67151 330 119.597 1270.27 462.921
1677 0 53.6378 12.8081 687 113.549 1268.63 461.672
1678 0 54.6192 8.7332 477 117.918 1269.09 463.803
1679 1 131.485 11.7656 1547 141.5 1268.92 412.096
1680 0 137.358 15.7107 2158 135.305 1268.12 420.519
1681 0 140.741 14.5445 2047 135.735 1267.11 421.091
1682 0 140.741 14.516 2043 138.983 1265.13 421.092
1683 0 142.546 14.3813 2050 139.831 1266.46 411.561
1684 0 147.103 12.2839 1807 142.931 1267.12 417.252
1685 0 153.05 15.7204 2406 137.1 1266.48 417.002
1686 0 154.885 16.1281 2498 137.223 1265.24 413.313
1687 0 158.555 14.8466 2354 140.686 1264.54 411.973
1688 0 162.799 16.1119 2623 137.41 1263.62 408.023
1689 0 167.004 14.7721 2467 140.002 1262.8 401.321
1690 0 171.466 14.6793 2517 138.262 1262.35 408.102
1691 0 174.085 15.6992 2733 138.624 1262.33 398.338
1692 0 177.532 12.0598 2141 146.642 1262.35 393.08
1693 0 183.713 15.2357 2799 140.665 1262.02 390.68
1694 0 188.77 14.3455 2708 142.423 1260.81 391.316
1695 0 193.25 13.7801 2663 144.445 1261.97 386.694
1696 0 199.724 15.4413 3084 140.496 1261.37 391.988
1697 0 204.458 15.8859 3248 141.866 1261.61 381.2
1698 0 208.836 15.1554 3165 144.846 1260.7 375.196
1699 0 212.987 14.8976 3173 145.945 1260.81 375.595
1700 1 154.929 6.04146 936 152.406 1262.53 401.709
1701 0 161.073 12.7768 2058 141.053 1261.63 400.561
1702 0 163.434 10.9586 1791 148.145 1261.7 385.631
1703 0 169.155 13.0236 2203 142.182 1261.89 387.08
1704 1 94.0702 6.3038 593 124.093 1260.86 439.803
1705 0 100.946 9.06425 915 119.497 1263.65 439.315
1706 0 99.0478 9.32883 924 120.65 1264.11 430.538
1707 1 21.0701 6.31226 133 117.677 1263.81 469.782
1708 0 23.0214 7.25414 167 116.329 1264.68 470.012
1709 0 21.0032 6.09431 128 115.695 1265.9 473.625
1710 0 9.00222 3.77685 34 122.882 1264.85 474.382
1711 0 19.0221 5.57247 106 116.943 1266.64 475.198
1712 0 22.0076 4.49845 99 118.293 1267.68 469.535
1713 0 22.0095 3.40761 75 96.72 1268.57 470.44
1714 1 56.4973 6.56668 371 120.03 1269.41 455.66
1715 0 54.1592 9.28744 503 116.235 1269.12 458.855
1716 1 39.322 12.2578 482 113.274 1269.58 449.674
1717 1 56.4555 10.2559 579 114.468 1269.74 459.819
1718 0 53.1636 12.2264 650 112.748 1269.49 458.075
1719 0 53.3609 8.82668 471 116.057 1270 456.168
1720 1 34.0492 9.60374 327 112.284 1268.82 473.774
1721 0 34.0492 9.69185 330 89.4242 1268.82 473.706
1722 0 38.0921 2.78273 106 119.434 1268.99 479.377
1723 0 35.1112 2.33544 82 123.659 1269.06 471.561
1724 1 24.009 7.12232 171 114.965 1267.5 478.129
1725 0 33.0368 10.9575 362 113.511 1268.69 452.837
1726 0 38.0862 4.20099 160 121.319 1268.94 459.825
1727 1 54.2082 7.19448 390 115.792 1267.13 467.246
1728 0 55.0673 4.93941 272 119.397 1266.84 462.96
1729 1 36.1561 9.1824 332 114.154 1267.68 456.883
1730 0 32.3918 9.53946 309 114.942 1265.24 456.414
1731 0 37.3144 5.49385 205 121.834 1262.6 413.278
1732 0 32.1403 7.06279 227 117.009 1264.52 449.758
1733 0 25.0172 6.75536 169 118.012 1264.57 451.266
1734 0 31.2257 8.99899 281 114.52 1263.69 449.626
1735 0 35.2334 11.6367 410 110.785 1264.21 449.378
1736 0 36.0651 10.481 378 111.81 1263.42 452.169
1737 0 37.2842 3.24534 121 124.802 1259.17 422.405
1738 0 33.3083 6.665 222 122.099 1259.61 417.158
1739 1 17.1219 5.19801 89 123.82 1258.07 425.337
1740 1 72.72 2.68152 195 121.144 1261.63 460.6
1741 1 17.0568 5.86275 100 120.92 1256.87 427.19
1742 0 23.0955 7.01435 162 110.784 1260.35 476.722
1743 0 18.0582 2.38119 43 118.465 1260.7 475.395
1744 0 19.0372 4.09723 78 115.641 1261.68 474.115
1745 0 31.364 8.06657 253 117.403 1259.78 424.514
1746 0 363.979 6.58554 2397 171.03 1261.4 260.915
1747 0 364.765 10.807 3942 154.994 1261.05 286.116
1748 0 377.951 19.0051 7183 139.679 1262.1 269.895
1749 0 374.627 19.4647 7292 138.518 1262.61 266.295
1751 0 369.972 13.5443 5011 149.111 1263.56 247.153
1752 0 144.684 8.67411 1255 126.248 1263.6 398.269
1753 1 52.4154 7.65043 401 114.459 1264.24 453.918
1754 0 49.6814 3.22052 160 121.512 1265.71 449.762
1755 0 54.6538 10.9782 600 109.942 1265.94 454.377
1756 0 50.4124 5.31615 268 119.672 1266.67 443.011
1757 0 50.1587 3.6883 185 121.859 1266.69 451.232
1758 1 13.0033 1.15355 15 121.267 1266.33 473.733
1759 0 16.0976 4.53484 73 113.753 1268.53 473.918
1760 0 16.0188 3.7456 60 115.267 1268.25 475.8
1761 0 23.022 6.51551 150 116.313 1269.01 459.507
1762 0 17.0013 1.41166 24 125.5 1268.46 454.375
1763 0 36.2622 3.72288 135 119.274 1269.44 460.148
1764 0 47.4682 7.92109 376 114.056 1270.06 457.064
1765 0 47.1699 5.66039 267 115.506 1268.79 467.659
1766 1 256.215 13.1921 3380 112.007 1268.99 375.1
1767 0 260.926 15.56 4060 109.327 1268.11 363.994
1768 1 133.552 10.5952 1415 112.899 1267 425.707
1769 0 140.707 17.4191 2451 101.642 1267.04 433.151
1770 1 273.475 11.6318 3181 113.673 1266.49 363.152
1771 0 275.969 13.7769 3802 112.227 1265.85 363.242
1772 1 100.31 9.17158 920 111.629 1265.04 441.86
1773 0 104.276 14.9028 1554 102.129 1264.8 448.272
1774 1 64.7901 13.4126 869 102.311 1265.13 460.717
1775 0 59.9862 10.1023 606 106.972 1263.88 462.795
1776 0 65.4847 15.057 986 99.359 1263.75 466.426
1777 0 63.8947 13.6944 875 101.683 1263.7 463.296
1778 0 67.2689 20.2471 1362 94.1931 1262.98 458.408
1779 0 61.7161 12.8492 793 103.54 1262.59 462.914
1780 0 67.977 16.4909 1121 98.3131 1262.69 459.967
1781 0 64.4556 12.7219 820 103.216 1262.21 459.817
1782 0 65.7314 13.9203 915 100.757 1262.3 457.318
1783 0 62.4139 12.7215 794 103.28 1262.42 460.727
1784 0 63.8271 13.5679 866 102.618 1261.61 457.27
1785 0 65.5419 13.8232 906 102.975 1262.58 455.712
1786 0 62.4387 10.8747 679 106.878 1262.83 452.944
1787 0 60.3439 9.90987 598 108.61 1262.71 455.853
1788 0 60.5659 12.9941 787 103.803 1263.15 457.565
1789 0 63.6016 8.49035 540 109.08 1263.28 457.193
1790 0 62.487 13.7789 861 102.999 1262.7 455.501
1791 0 62.5711 12.9133 808 103.547 1263.51 454.524
1792 0 59.6102 12.0952 721 104.889 1263.91 452.028
1793 0 62.6278 9.18123 575 108.4 1264.34 450.226
1794 0 62.5383 12.2485 766 104.164 1265.49 452.382
1795 0 62.5383 12.2645 767 115.375 1266.48 452.167
1796 0 63.6064 14.3539 913 100.957 1266.11 453.263
1797 0 61.3348 11.2823 692 106.289 1266.05 449.331
1798 0 63.5225 9.88625 628 107.379 1266.47 448.381
1799 0 60.6215 9.8315 596 107.933 1267.54 451.75
1800 0 63.2241 12.9381 818 103.368 1267.62 452.686
1801 0 65.5659 13.8487 908 103.019 1267.84 449.137
1802 0 63.7523 11.9525 762 103.084 1269.09 457.669
1803 0 64.484 11.2276 724 105.153 1269.08 453.892
1804 0 60.4665 11.2459 680 106.59 1269.48 454.621
1805 0 61.5323 13.8301 851 102.665 1269.71 454.785
1806 0 61.4959 10.765 662 106.193 1269.75 455.424
1807 0 61.3594 10.2022 626 106.845 1269.54 457.058
1808 0 61.7142 10.9861 678 106.891 1269.82 460.316
1809 0 60.3831 11.013 665 106.937 1269.05 461.445
1810 0 63.3121 12.2567 776 104.915 1268.69 462.1
1811 0 61.5454 9.60267 591 107.408 1268.24 463.283
1812 0 61.3835 13.2935 816 103.403 1269.15 463.969
1813 0 60.5491 11.5113 697 105.307 1268.11 463.453
1814 0 59.3899 12.7968 760 103.909 1267.56 467.892
1815 0 60.5039 10.8753 658 106.16 1266.88 464.853
1816 0 61.5208 10.6143 653 103.934 1265.96 471.548
1817 0 61.4882 12.7179 782 103.533 1265.03 464.11
1818 0 60.4655 12.2549 741 104.243 1265.14 466.626
1819 0 62.6535 13.1836 826 102.643 1264.38 463.286
1820 0 60.1617 13.3972 806 102.723 1264.18 462.568
1821 0 64.6048 16.361 1057 98.1627 1263.38 464.594
1822 0 64.6048 16.4849 1065 102.9 1262.39 464.503
1823 0 65.5447 14.2346 933 99.597 1262.93 461.564
1824 0 66.6595 13.5015 900 101.219 1262.6 461.59
1825 0 66.3273 16.0416 1064 98.2462 1262.26 457.845
1826 0 64.6886 15.0877 976 99.5512 1261.9 458.127
1827 0 63.4702 13.5181 858 101.218 1261.63 460.696
1828 0 65.7646 15.5099 1020 98.9618 1262.83 456.533
1829 0 66.5437 19.6713 1309 94.3659 1262.9 455.464
1830 0 65.3176 13.9472 911 99.9737 1261.96 460.366
1831 0 65.6961 12.3599 812 101.813 1262.25 454.47
1832 0 65.969 17.0838 1127 96.8829 1263.23 451.396
1833 0 61.5442 16.7034 1028 98.322 1262.63 451.702
1834 0 64.0063 14.2017 909 101.404 1263.38 454.295
1835 0 67.5549 13.7074 926 100.702 1263.74 456.852
1836 0 63.5504 10.2281 650 106.623 1263.8 449.743
1837 0 60.6117 17.5049 1061 94.7672 1265.13 455.608
1838 0 63.288 12.925 818 101.576 1265.87 456.788
1839 0 66.3316 16.9 1121 96.2105 1266.73 454.632
1840 0 63.4121 12.5844 798 102.163 1267.76 453.467
1841 0 64.3845 13.1709 848 101.797 1268.14 448.033
1842 0 64.3692 13.4536 866 98.4804 1267.58 452.322
1843 0 65.6464 12.3845 813 98.7589 1268.53 457.966
1844 0 65.6464 12.3236 809 127.795 1268.5 457.98
1845 0 62.4865 14.5151 907 94.1532 1270.46 456.567
1846 0 62.2343 11.4246 711 102.478 1269.69 454.28
1847 0 58.33 8.98337 524 106.124 1269 454.969
1848 0 65.5226 11.0649 725 101.65 1269.48 454.179
1849 0 63.2717 13.1338 831 99.0373 1269.37 462.712
1850 0 60.3308 12.5143 755 100.654 1269.27 456.495
1851 0 63.8839 19.4259 1241 92.1571 1269.34 457.54
1852 0 60.2121 15.5118 934 97.1991 1269.34 464.045
1853 0 62.51 14.2217 889 97.0427 1268.77 462.155
1854 0 67.3911 15.4768 1043 94.5609 1269 462.689
1855 0 65.5929 10.8396 711 101.12 1268.45 462.515
1856 0 64.4148 11.6899 753 100.855 1268.26 460.035
1857 0 62.4389 10.4102 650 101.369 1266.95 467.986
1858 0 63.8744 14.3563 917 97.3937 1267.38 468.023
1859 0 64.009 16.8257 1077 93.468 1266.08 471.019
1860 0 65.6232 18.7281 1229 92.5671 1264.62 462.551
1861 0 62.7403 13.1973 828 100.469 1263.36 462.429
1862 0 62.3198 8.88963 554 106.013 1263.06 463.282
1863 0 67.3148 18.6883 1258 93.539 1263.18 464.952
1864 0 62.6116 8.86417 555 105.71 1263.2 465.733
1865 0 60.6482 10.1075 613 104.082 1263.26 463.219
1866 0 66.9862 17.526 1174 94.6687 1262.84 459.228
1867 0 62.4859 14.0832 880 98.967 1262.47 460.951
1868 0 63.3727 12.4186 787 99.8437 1261.11 464.715
1869 0 61.6554 11.029 680 102.218 1261.48 461.272
1870 0 64.5672 10.1909 658 102.404 1262.12 457.261
1871 0 65.7657 13.2288 870 97.1368 1262.44 461.201
1872 0 62.682 15.6026 978 95.8671 1261.67 459.271
1873 0 63.8603 13.921 889 98.2677 1261.99 453.268
1874 0 62.5467 12.8384 803 99.9514 1261.9 451.917
1875 0 64.5309 13.9313 899 98.0812 1261.93 448.987
1876 0 62.5627 12.7872 800 98.8312 1262.25 451.949
1877 0 64.6342 10.6445 688 101.337 1262.72 452.144
1878 0 63.532 13.0013 826 100.085 1263.39 451.433
1879 0 63.6138 17.2761 1099 95.4632 1264.25 450.426
1880 0 62.5126 12.2535 766 100.548 1263.88 453.879
1881 0 64.4555 11.4653 739 100.474 1265.56 454.786
1882 0 63.2352 16.7786 1061 94.9378 1265.51 450.977
1883 0 62.1774 12.014 747 100.997 1266.16 452.335
1884 0 61.5057 15.9498 981 95.7992 1267.47 445.929
1885 0 62.4583 10.7912 674 101.884 1267.43 448.55
1886 0 63.6641 16.5242 1052 95.0846 1267.9 450.465
1887 0 63.3962 12.7926 811 99.1714 1268.11 452.037
1888 0 61.3481 10.2693 630 102.865 1267.77 451.014
1889 0 64.7564 13.5585 878 97.0262 1268.03 454.757
1890 0 63.423 13.7805 874 99.0011 1268.62 451.709
1891 0 62.7093 10.5248 660 101.812 1268.23 455.036
1892 0 65.7122 13.9548 917 97.265 1269.75 460.134
1893 0 62.7172 15.833 993 95.4824 1268.99 458.657
1894 0 64.6261 13.6787 884 98.1018 1269.3 455.766
1895 0 63.4736 12.4619 791 98.2705 1268.58 465.096
1896 0 61.6808 10.5057 648 102.724 1267.97 457.807
1897 0 61.3425 15.0793 925 96.2703 1269.1 465.654
1898 0 60.6066 14.0084 849 99.2262 1268.45 463.72
1899 0 56.4666 9.5986 542 104.969 1268.06 464.072
1900 0 62.4091 11.5688 722 101.687 1267.62 465.148
1901 0 60.4134 9.4681 572 103.719 1266.97 468.521
1902 0 60.4134 9.4681 572 124.133 1265.94 468.738
1903 0 62.4143 7.33806 458 106.138 1264.55 469.692
1904 0 61.5485 9.86213 607 102.883 1264.31 462.946
1905 0 61.5383 12.5775 774 100.827 1263.98 463.676
1906 0 60.5642 12.5157 758 100.6 1263.35 465.12
1907 0 64.6397 16.9865 1098 94.8852 1262.96 460.941
1908 0 61.5311 12.8065 788 99.8109 1262.01 463.041
1909 0 62.544 13.6544 854 96.3115 1261.4 467.768
1910 0 62.5164 10.7812 674 101.387 1261.28 463.328
1911 0 59.4785 11.0124 655 102.205 1261.33 459.684
1912 0 66.3799 16.029 1064 95.4051 1261.36 457.636
1913 0 61.7303 8.69913 537 104.058 1261.24 459.896
1914 0 63.5827 12.236 778 100.138 1260.78 456.551
1915 0 60.338 9.21476 556 103.806 1260.57 457.234
1916 0 61.4743 13.2901 817 99.0024 1261.35 453.715
1917 0 61.6723 11.1233 686 102.547 1261.06 452.574
1918 0 62.853 14.2555 896 98.1127 1261.95 454.86
1919 0 61.7196 14.9871 925 97.6022 1262.94 453.103
1920 0 59.7089 10.7354 641 104.072 1263.09 452.417
1921 0 63.5515 13.8785 882 99.0159 1263.82 452.064
1922 0 63.6661 12.9268 823 100.27 1264.06 449.872
1923 0 62.5205 11.5162 720 101.836 1265.28 448.053
1924 0 61.6095 15.3872 948 97.0422 1265.41 453.863
1925 0 64.6043 12.7236 822 100.428 1266.75 448.899
1926 0 60.8911 9.8865 602 104.156 1267.58 452.085
1927 0 61.2242 15.0267 920 98.2054 1267.29 450.246
1928 0 63.3613 13.1942 836 99.6842 1268.07 450.983
1929 0 63.5768 9.53178 606 103.119 1267.44 454.88
1930 0 62.3881 10.4347 651 102.066 1268.22 453.627
1931 0 62.7387 10.1214 635 102.866 1268.39 454.079
1932 0 62.9204 13.6045 856 100.612 1268.88 453.618
1933 0 62.9204 13.6522 859 117.406 1269.9 453.623
1934 0 61.5473 9.69985 597 101.554 1269.41 463.439
1935 0 65.5934 14.0106 919 97.667 1269.82 461.25
1936 0 61.7268 14.3212 884 98.8971 1269.44 457.68
1937 0 62.4635 12.5834 786 100.324 1269.89 461.768
1938 0 62.5163 13.5165 845 100.109 1269.24 462.417
1939 0 60.4106 12.7958 773 100.613 1268.25 461.921
1940 0 62.5033 13.1833 824 98.9393 1268.87 464.356
1941 0 61.3688 11.9116 731 101.205 1267.68 462.414
1942 0 64.5189 9.65608 623 101.822 1267.17 466.323
1943 0 61.5755 9.46805 583 104.113 1266.09 465.364
1944 0 63.6994 14.9452 952 96.2826 1265.81 464.661
1945 0 59.4173 10.2159 607 103.476 1265.7 462.896
1946 0 61.78 13.0625 807 100.238 1264.43 459.939
1947 0 59.4742 10.6937 636 103.156 1264.49 461.237
1948 0 62.47 9.7807 611 101.799 1263.33 465.555
1949 0 61.3721 14.1758 870 98.1253 1262.72 458.683
1950 0 65.7352 13.9955 920 98.1185 1262.57 456.572
1951 0 62.6385 9.91404 621 103.407 1261.94 460.818
1952 0 58.9018 6.68909 394 107.444 1261.65 458.434
1953 0 63.6533 11.6569 742 100.79 1261.17 456.659
1954 0 63.4552 12.3079 781 100.402 1262.12 462.256
1955 0 59.6231 11.405 680 101.31 1261.15 463.432
1956 0 58.7616 9.9725 586 103.075 1261.12 459.427
1957 0 61.4422 12.2229 751 100.86 1260.62 456.949
1958 0 61.5512 9.03314 556 104.363 1260.29 448.281
1959 0 61.6225 15.7897 973 96.889 1261.42 453.319
1960 0 62.6448 13.1056 821 98.7661 1261.21 452.711
1961 0 62.5438 9.33746 584 100.596 1262.83 457.694
1962 0 63.5224 13.2237 840 98.8381 1262.38 448.088
1963 0 63.4404 10.8133 686 100.898 1262.65 454.016
1964 0 63.78 9.83067 627 102.249 1263.03 449.786
1965 0 62.7618 12.7147 798 100.18 1262.81 447.896
1966 0 64.3049 9.25279 595 103.429 1263.63 446.427
1967 0 63.9826 10.2997 659 102.46 1264.19 453.187
1968 0 63.4639 12.1486 771 100.564 1264.89 451.402
1969 0 59.3728 9.38139 557 104.664 1265.65 448.061
1970 0 61.5824 13.1044 807 100.518 1266.19 447.015
1971 0 62.8013 10.6526 669 100.387 1267.02 451.306
1972 0 62.4642 11.5906 724 100.957 1267.76 447.717
1973 0 62.3954 11.6034 724 99.4517 1268.64 452.536
1974 0 62.3849 10.6115 662 100.447 1268.31 457.39
1975 0 61.3712 12.8073 786 99.1768 1267.99 456.766
1976 0 60.4989 11.306 684 100.425 1268.72 455.703
1977 0 60.5021 10.6608 645 101.198 1269.36 453.741
1978 0 59.357 9.85561 585 100.844 1270.14 460.761
1979 0 61.5382 8.92129 549 102.811 1269.65 455.84
1980 0 60.5147 10.7412 650 101.638 1269 458.494
1981 0 62.5632 12.6272 790 98.7481 1268.96 458.337
