time division length width area intensity CMx CMy
0 0 47.1797 13.544 639 152.368 1197.43 470.933
1 0 49.064 15.1231 742 143.814 1195.88 469.523
2 0 51.1419 16.9137 865 145.083 1196.42 467.822
3 0 53.0951 16.9131 898 141.648 1195.35 469.275
4 0 56.047 17.5388 983 140.105 1194.6 466.295
5 0 58.08 17.8719 1038 135.351 1194.16 466.924
6 0 58.0693 17.2036 999 139.817 1191.94 465.894
7 0 58.065 17.0326 989 153.509 1189.94 465.853
8 0 58.065 16.981 986 153.223 1187.94 465.882
9 0 65.068 16.9822 1105 142.187 1189.8 463.332
10 0 65.0716 16.1822 1053 143.602 1189.95 463.073
11 0 66.1072 16.0043 1058 145.199 1189.1 458.728
12 0 66.1072 15.9741 1056 163.065 1188.1 458.655
13 0 74.366 17.6021 1309 133.832 1190.09 459.911
14 1 36.267 11.2499 408 144.676 1188.41 471.527
15 0 38.1471 15.2305 581 140.983 1188.59 471.348
16 0 39.1624 14.7335 577 140.766 1188.34 470.39
17 0 41.1932 15.1481 624 141.63 1188.73 467.423
18 0 43.1069 17.9786 775 133.975 1189.05 466.395
19 0 45.1938 15.9757 722 132.475 1188.94 467.116
20 0 45.0738 16.3953 739 135.081 1188.69 464.675
21 0 46.0656 17.7573 818 132.34 1188.64 463.178
22 0 48.0336 16.8007 807 129.561 1188.64 459.062
23 0 50.1818 16.8188 844 127.435 1192.65 457.161
24 0 50.1111 16.643 834 133.789 1191.94 458.362
25 0 53.0706 15.4888 822 138.719 1192.47 455.59
26 0 56.1444 19.6636 1104 127.313 1192.4 453.841
27 0 54.2218 15.3997 835 138.249 1193.5 453.459
28 0 58.2451 14.1128 822 138.88 1193.61 453.337
29 0 58.2316 14.2019 827 160.227 1194.64 453.351
30 0 63.143 17.1674 1084 131.667 1195.9 451.833
31 0 65.3257 20.3289 1328 126.714 1194.9 450.912
32 0 67.0467 17.4058 1167 130.112 1196.13 453.961
33 0 70.18 19.3787 1360 124.025 1197.65 452.899
34 0 69.3698 17.8031 1235 131.599 1198.05 450.777
35 0 73.1383 17.7472 1298 133.796 1199.06 450.263
36 0 73.1774 15.9749 1169 135.612 1199.16 450.128
37 0 76.1931 15.0145 1144 135.393 1200.62 450.919
38 0 79.2272 16.6105 1316 132.118 1199.32 448.758
39 0 82.0791 20.0538 1646 125.724 1200.93 449.128
40 0 86.1298 16.8118 1448 125.067 1199.94 449.816
41 1 44.0373 14.079 620 125.039 1199.05 470.813
42 0 50.1036 16.8052 842 119.909 1198.29 469.463
43 0 50.241 13.3158 669 125.59 1198.85 469.414
44 0 52.0523 16.2913 848 122.893 1198.92 469.435
45 0 53.0646 16.8285 893 118.661 1198.46 467.966
46 0 55.2846 15.7006 868 137.358 1198.27 469.268
47 0 58.1402 15.9958 930 135.542 1197.39 468.562
48 0 61.0657 17.3911 1062 132.297 1196.96 467.355
49 0 62.3107 17.2201 1073 131.372 1196.65 466.891
50 0 64.1087 15.4425 990 135.575 1197.48 467.775
51 0 66.0822 15.4202 1019 139.907 1195.45 463.265
52 0 70.1534 16.3499 1147 137.31 1194.8 462.344
53 0 70.0979 14.9505 1048 140.203 1194.11 461.577
54 0 76.2715 16.6379 1269 135.781 1193.55 459.638
55 0 78.2006 15.1405 1184 137.72 1193.55 461.456
56 0 81.3117 16.3445 1329 136.649 1193.01 455.309
57 0 83.2959 17.2037 1433 136.146 1192.01 451.676
58 0 84.1627 15.3631 1293 140.93 1192.34 450.187
59 0 88.1307 16.0557 1415 137.273 1190.56 450.112
60 1 48.0986 14.6782 706 133.271 1191.95 469.547
61 0 50.0929 16.4494 824 131.14 1191.24 466.708
62 0 52.1232 13.2762 692 135.438 1189.69 465.671
63 0 53.1157 16.1158 856 127.551 1190.04 463.515
64 0 55.17 14.4825 799 130.528 1190.38 464.232
65 0 56.0684 13.3943 751 132.483 1190.82 461.23
66 0 58.227 14.3919 838 132.683 1191.37 457.192
67 0 60.3367 13.5738 819 132.374 1191.62 459.624
68 0 62.2172 14.1761 882 133.133 1192.78 455.544
69 0 65.3997 16.2692 1064 129.772 1192.92 453.115
70 0 65.2393 12.9983 848 134.229 1193.66 455.532
71 0 67.3941 12.9685 874 135.727 1193.17 452.182
72 0 71.3969 15.8971 1135 130.522 1194.71 449.818
73 0 77.3597 14.9303 1155 130.794 1194.8 449.675
74 0 74.2123 12.8415 953 136.97 1196.22 446.935
75 0 78.4167 15.6982 1231 131.49 1196.8 444.549
76 0 83.3782 14.9559 1247 134.882 1196.83 443.331
77 0 84.5326 12.8353 1085 139.118 1196.32 442.228
78 0 88.2016 14.9204 1316 134.38 1197.7 442.002
79 1 46.1895 12.6003 582 126.124 1197.49 466.35
80 0 48.1428 12.546 604 126.267 1198.69 465.329
81 0 48.3251 11.7951 570 127.882 1198.5 465.474
82 0 51.1055 14.0689 719 123.494 1199.03 463.017
83 0 51.1055 14.0885 720 121.494 1199.04 463.031
84 0 56.0765 13.5172 758 127.292 1198.4 465.201
85 0 57.2931 12.4448 713 129.914 1198.57 465.456
86 0 60.2325 14.6765 884 127.369 1198.22 461.219
87 0 62.2643 13.8282 861 126.574 1197.41 463.822
88 0 63.2347 13.4894 853 128.641 1196.59 463.263
89 0 65.1406 11.1144 724 133.18 1197.35 461.193
90 0 68.2088 13.8838 947 126.987 1196.12 461.602
91 0 72.2046 11.7998 852 129.498 1195.36 462.246
92 0 75.4526 14.7775 1115 124.117 1196.16 461.994
93 0 77.3639 14.1151 1092 124.599 1195.41 461.813
94 0 79.2621 13.4238 1064 125.462 1193.97 460.276
95 0 83.3414 13.8827 1157 123.978 1193.66 455.158
96 0 84.3104 12.7505 1075 125.448 1191.49 455.028
97 0 87.415 11.863 1037 126.017 1193.36 453.783
98 0 90.2948 12.9354 1168 124.864 1191.09 454.142
99 0 96.2494 14.639 1409 122.299 1190.74 446.357
100 1 51.0971 11.8402 605 116.964 1189.4 473.964
101 0 54.1898 10.6847 579 118.886 1188.69 469.965
102 0 54.0849 13.2939 719 115.121 1188.26 467.968
103 0 58.0903 11.4821 667 116.64 1187.51 464.727
104 0 59.3225 12.2719 728 114.602 1188 462.567
105 0 62.1948 11.2871 702 116.754 1188.35 456.447
106 0 62.1948 11.2871 702 120.553 1188.39 456.395
107 0 65.2337 10.746 701 119.241 1187.7 453.991
108 0 67.3863 10.0911 680 119.46 1187.45 456.419
109 0 71.4122 14.2833 1020 115.389 1188.23 453.723
110 0 73.3552 10.5514 774 119.208 1188.7 454.169
111 0 73.3552 10.4696 768 135.417 1188.7 454.091
112 0 77.4752 13.6044 1054 116.872 1189.94 451.352
113 0 80.2491 14.3553 1152 116.89 1190.85 445.978
114 0 85.4421 13.2956 1136 120.007 1192.52 438.608
115 0 87.4926 13.1668 1152 120.033 1192.25 440.513
116 0 87.5945 12.2496 1073 122.738 1192.67 437.13
117 0 91.5613 14.8644 1361 119.32 1194.32 434.855
118 0 94.6002 12.315 1165 123.367 1195.4 430.859
119 1 50.9726 13.2228 674 113.466 1195.83 458.585
120 0 51.9181 11.6915 607 118.58 1195.59 458.755
121 0 52.3699 9.10828 477 117.34 1194.84 465.65
122 0 53.144 11.4971 611 115.887 1195.97 463.25
123 0 56.1809 12.5843 707 116.151 1196.36 459.665
124 0 57.3098 14.4653 829 112.695 1196.39 460.274
125 0 57.449 11.1403 640 116.511 1196.31 462.152
126 0 60.332 10.7737 650 118.586 1197.4 459.16
127 0 62.2205 12.0861 752 117.249 1197.06 457.324
128 0 65.4551 12.1916 798 116.807 1196.04 459.93
129 0 68.6411 11.9753 822 116.889 1197.3 460.343
130 0 71.3137 13.686 976 115.238 1195.56 457.12
131 0 73.4018 12.0978 888 119.774 1195.49 459.852
132 0 77.3459 15.3337 1186 112.728 1194.46 461.448
133 0 77.5546 11.4242 886 120.392 1194.37 454.791
134 0 82.4824 9.95364 821 121.716 1195.03 458.211
135 0 85.5274 14.5217 1242 116.127 1194.61 451.754
136 0 88.5956 11.2195 994 120.912 1195.22 454.752
137 0 91.3998 13.5339 1237 118.664 1193.13 449.064
138 1 50.3366 11.8204 595 113.442 1193.85 476.689
139 0 51.0476 11.597 592 114.552 1189.96 475.453
140 0 52.0565 10.0276 522 118.113 1189.97 475.67
141 0 55.2897 12.8234 709 120.107 1191.84 472.903
142 0 56.1779 13.9735 785 119.373 1191.86 468.629
143 0 55.0882 10.2563 565 126.956 1191.64 466.396
144 0 58.1659 11.7423 683 123.217 1191.94 465.01
145 0 63.1256 13.6395 861 120.044 1191.3 462.827
146 0 62.2322 12.5498 781 122.718 1190.17 463.079
147 0 65.1827 12.58 820 122.6 1189.11 462.517
148 0 68.187 13.067 891 121.935 1189.66 458.698
149 0 70.2746 13.988 983 119.561 1189.84 458.972
150 0 73.1539 12.8086 937 123.819 1189.45 455.317
151 0 76.0591 14.0154 1066 121.593 1190.34 454.6
152 0 76.1982 14.4492 1101 122.375 1190.36 449.68
153 0 82.075 15.7173 1290 119.827 1190.3 448.398
154 0 81.2442 13.441 1092 126.385 1191.71 444.394
155 0 86.0856 16.0306 1380 119.434 1191.13 442.703
156 0 87.2002 13.3371 1163 123.825 1192.1 443.654
157 0 91.2382 13.8539 1264 123.063 1191.9 437.611
158 1 46.1155 12.4036 572 117.764 1193.01 461.694
159 0 47.107 9.36167 441 124.492 1192.74 460.862
160 0 52.1056 12.6474 659 118.121 1194.09 460.909
161 0 52.4335 14.5899 765 111.773 1191.05 460.243
162 0 47.1061 11.0601 521 113.449 1193.25 458.115
163 0 51.0645 12.1807 622 110.386 1193.29 457.773
164 0 54.3595 11.7735 640 112.045 1193.36 458.825
165 0 55.2867 12.8241 709 118.636 1194.03 458.432
166 0 56.0754 15.0868 846 111.605 1194.91 462.392
167 0 58.269 12.1849 710 117.883 1194.75 458.746
168 0 61.2176 15.6001 955 111.448 1195.23 459.97
169 0 62.2233 16.2479 1011 109.723 1195.25 464.501
170 0 63.4454 12.9718 823 117.9 1195.62 458.836
171 0 68.4219 14.7467 1009 114.919 1195.38 460.246
172 0 67.3065 16.878 1136 111.896 1196.12 463.892
173 0 71.335 15.8688 1132 114.754 1195.55 461.416
174 0 72.2414 13.1642 951 120.302 1195.5 460.158
175 0 75.2737 15.3307 1154 117.925 1195.28 459.323
176 0 77.4382 18.6213 1442 113.211 1194.38 455.725
177 0 80.5509 14.736 1187 118.709 1195.11 461.141
178 0 82.4942 14.7404 1216 120.232 1195.18 457.748
179 0 83.4341 16.54 1380 118.649 1193.57 455.824
180 0 85.4654 13.877 1186 122.433 1192.4 457.79
181 0 88.8217 13.4089 1191 124.199 1191.86 456.228
182 0 92.6018 15.0969 1398 121.814 1191.54 452.392
183 0 95.6195 17.5069 1674 117.486 1191.08 452.089
184 0 100.727 15.8349 1595 118.692 1190.81 447.685
185 0 100.608 16.4301 1653 116.742 1189.19 448.74
186 0 104.718 17.9435 1879 115.246 1187.87 441.877
187 1 52.1804 10.6745 557 121.919 1187.7 461.269
188 0 56.1633 14.4934 814 114.372 1185.67 461.56
189 0 58.2321 13.9099 810 113.8 1186.87 461.759
190 0 63.3698 12.8294 813 117.916 1186.96 465.707
191 0 64.407 16.1318 1039 112.155 1185.64 461.734
192 0 66.3435 12.9176 857 117.748 1186.36 459.632
193 0 68.2316 18.1587 1239 107.616 1186.19 457.747
194 0 71.3448 14.8855 1062 111.253 1186.43 455.37
195 0 72.6246 14.0448 1020 112.418 1185.71 451.288
196 0 74.5456 14.7024 1096 111.557 1186.24 451.684
197 0 77.71 15.249 1185 112.424 1186.75 452.038
198 0 79.6918 10.7665 858 119.8 1187.75 447.723
199 0 81.5511 14.1016 1150 111.965 1188.42 445.66
200 0 86.6176 14.9161 1292 109.758 1189.41 446.385
201 0 85.517 12.3133 1053 115.465 1188.77 444.248
202 0 91.7755 14.8297 1361 111.764 1189.82 440.461
203 1 50.0983 11.9964 601 111.782 1189.47 461.642
204 0 51.2642 13.4207 688 111.279 1192.34 460.222
205 0 53.2746 12.3886 660 110.274 1191.2 461.724
206 0 50.1429 11.547 579 111.686 1192.19 459.079
207 0 56.4343 16.1604 912 104.596 1193.31 458.579
208 0 53.2887 11.2782 601 112.957 1193.85 460.208
209 0 56.4412 13.0047 734 110.048 1194.38 460.448
210 0 59.2914 14.4372 856 108.607 1195.26 460.674
211 0 61.3951 10.4731 643 112.806 1194.37 465.289
212 0 63.1725 12.5846 795 110.259 1194.77 464.463
213 0 64.4254 10.8498 699 112.505 1194.43 463.906
214 0 68.2989 13.1188 896 111.071 1194.89 462.316
215 0 70.2538 12.5402 881 112.98 1195.85 462.074
216 0 72.6667 16.211 1178 107.967 1195.58 463.86
217 0 75.4131 11.2845 851 116.324 1194.53 462.714
218 0 78.1848 14.6192 1143 111.782 1193.7 462.146
219 0 79.2219 13.2539 1050 115.586 1193.75 455.308
220 0 85.3051 11.664 995 114.765 1193.33 464.359
221 0 89.3556 16.5742 1481 110.099 1192.2 452.434
222 0 89.3753 13.6615 1221 114.308 1191.72 458.148
223 0 94.2796 16.048 1513 110.044 1191.59 451.99
224 1 49.1055 12.2797 603 113.776 1189.51 475.358
225 0 50.0675 11.824 592 114.152 1188.24 474.573
226 0 53.1245 14.3813 764 109.694 1186.9 473.972
227 0 54.2961 18.1413 985 103.102 1187.58 472.156
228 0 54.1164 13.1938 714 107.392 1185.35 475.511
229 0 57.1104 11.8192 675 110.539 1185.44 473.212
230 0 59.5458 12.6121 751 109.555 1185.43 470.509
231 0 61.2772 13.0391 799 107.748 1185.87 473.135
232 0 62.1769 10.7918 671 112.621 1184.81 467.382
233 0 66.5115 15.8018 1051 106.171 1185.23 466.33
234 0 68.2839 14.8351 1013 108.642 1185.09 463.542
235 0 71.3782 14.6543 1046 109.396 1185.03 459.145
236 0 74.367 13.5409 1007 109.801 1184.07 461.763
237 0 75.2459 11.9741 901 114.401 1183.77 457.019
238 0 80.2841 15.1088 1213 110.648 1183.83 452.948
239 0 82.3167 16.5459 1362 114.302 1184.67 449.063
240 0 83.6726 13.8755 1161 117.606 1182.69 451.121
241 0 86.3801 15.7675 1362 117.17 1184.99 445.618
242 1 48.0686 13.6888 658 112.918 1184.85 466.453
243 0 46.2155 11.3598 525 119.269 1184.84 462.968
244 0 48.0852 11.9371 574 115.568 1185.39 464.88
245 0 51.1327 13.4943 690 116.435 1184.42 458.862
246 0 51.2151 14.976 767 116.145 1187.39 459.708
247 0 54.1756 14.5453 788 112.004 1186.81 460.26
248 0 55.0735 14.5624 802 112.061 1187.57 459.909
249 0 55.207 11.9731 661 116.59 1188.95 461.201
250 0 56.3833 13.621 768 115.008 1188.88 460.329
251 0 60.2449 15.7192 947 111.232 1190.41 459.516
252 0 60.1469 13.1179 789 116.303 1190.21 458.622
253 0 64.2219 14.917 958 113.641 1191.5 458.006
254 0 65.1197 14.9724 975 114.704 1192.04 456.087
255 0 67.21 14.477 973 114.715 1191.66 461.047
256 0 70.3447 16.0495 1129 113.477 1192.85 458.905
257 0 70.2904 16.3891 1152 113.728 1193.87 459.916
258 0 73.2595 14.6739 1075 111.775 1194.97 461.953
259 0 75.201 14.3881 1082 113.768 1193.72 458.888
260 0 76.376 15.2535 1165 114.633 1193.11 456.322
261 0 81.3218 16.9819 1381 111.154 1193.46 457.658
262 0 82.278 13.8433 1139 115.894 1192.36 457.71
263 0 84.582 12.6623 1071 116.339 1193.31 452.144
264 0 87.231 11.8994 1038 116.736 1192.02 457.035
265 0 90.1927 13.3381 1203 115.529 1191.84 447.606
266 1 47.0638 12.0262 566 116.834 1189.18 473.064
267 0 50.1612 13.2772 666 113.227 1188.7 476.023
268 0 53.3648 12.7425 680 114.607 1187.12 469.893
269 0 56.1902 13.5077 759 111.974 1190.23 473.818
270 0 56.3269 13.3684 753 112.74 1189.34 471.718
271 0 57.1694 13.4337 768 111.217 1188.67 472.54
272 0 58.1965 14.6572 853 110.113 1188.6 468.94
273 0 58.1756 13.1842 767 112.756 1188.69 466.098
274 0 63.1622 13.4574 850 111.168 1188.01 466.261
275 0 65.2568 14.2974 933 110.745 1187.42 460.781
276 0 66.1488 13.9534 923 112.677 1186.44 461.322
277 0 67.3264 14.6896 989 110.697 1187.14 458.436
278 0 70.2026 13.8172 970 112.584 1186.34 459.09
279 0 73.1768 20.4027 1493 104.012 1186.27 453.754
280 0 77.4859 16.0933 1247 109.747 1185.15 450.472
281 0 78.1616 16.5682 1295 113.041 1184.23 448.744
282 0 83.3854 14.2351 1187 117.087 1187.7 447.779
283 0 85.2582 14.2039 1211 116.027 1187.83 449.399
284 1 45.0305 12.5026 563 111.799 1188.3 466.446
285 0 43.0167 10.8795 468 118.609 1188.59 465.605
286 0 48.1624 11.8765 572 117.073 1188.77 465.224
287 0 44.0608 12.8232 565 119.731 1186.88 461.77
288 0 47.0515 12.4332 585 117.133 1186.21 459.4
289 0 48.112 14.8196 713 111.957 1191.05 464.825
290 0 52.0758 13.6148 709 115.791 1191.37 461.705
291 0 51.2693 12.3271 632 117.29 1191.65 458.095
292 0 53.174 13.6909 728 115.238 1193.51 458.389
293 0 54.2372 14.8422 805 112.848 1194.25 459.779
294 0 58.2161 15.5283 904 111.574 1195.72 459.155
295 0 58.2161 15.4768 901 131.267 1196.71 459.178
296 0 59.2222 12.8837 763 116.548 1196.38 459.076
297 0 62.257 15.1469 943 113.112 1196.85 455.873
298 0 61.2904 14.7168 902 114.345 1196.25 455.312
299 0 65.1905 14.6187 953 113.558 1197.52 459.082
300 0 65.1905 14.5266 947 144.112 1198.49 458.996
301 0 65.1905 14.5727 950 143.513 1199.49 458.965
302 0 67.1551 13.923 935 117.273 1196.7 455.608
303 0 75.3126 17.9917 1355 108.844 1196.5 454.047
304 0 74.1888 14.8136 1099 114.63 1196.17 456.769
305 0 78.2366 17.1148 1339 111.798 1196.02 455.349
306 0 81.2812 13.9393 1133 117.312 1196.31 452.868
307 1 42.353 11.3097 479 114.965 1195.52 474.697
308 0 44.3206 13.4475 596 111.517 1194.31 474.616
309 0 45.3374 14.1826 643 109.841 1193.58 474.928
310 0 47.0969 13.7589 648 112.394 1193.6 473.296
311 0 50.4915 13.0517 659 112.736 1192.45 472.968
312 0 52.3909 13.4565 705 110.475 1192.66 472.013
313 0 51.297 12.9637 665 112.436 1191.31 473.989
314 0 54.8574 15.7864 866 108.39 1192.08 471.67
315 0 58.3367 16.9019 986 104.907 1191.61 469.573
316 0 59.6305 12.9799 774 110.722 1190.62 466.189
317 0 59.1679 16.1067 953 108.045 1189.74 463.108
318 0 62.297 14.768 920 107.728 1188.59 461.736
319 0 66.6002 12.9879 865 110.842 1188.23 459.779
320 0 67.5487 13.5014 912 110.841 1187.99 461.616
321 0 75.2381 14.2481 1072 108.672 1187.72 455.983
322 0 73.5479 13.651 1004 111.528 1187.14 454.366
323 0 73.5479 13.5286 995 131.995 1187.14 454.352
324 0 79.2581 15.2792 1211 108.386 1187.78 451.717
325 0 78.2439 12.7933 1001 114.296 1187.44 447.623
326 0 83.1796 13.6091 1132 112.902 1188.36 442.032
327 0 88.192 15.8404 1397 109.512 1188.64 441.722
328 1 46.0273 12.623 581 108.494 1190.25 458.923
329 0 47.1151 11.3127 533 109.062 1191.34 461.67
330 0 50.0654 14.9604 749 105.378 1189.39 462.162
331 0 50.3503 11.8569 597 115.663 1189.45 457.142
332 0 53.4137 14.6592 783 110.81 1190.01 456.641
333 0 54.7246 16.7384 916 109.939 1191.98 454.508
334 0 57.5236 15.4545 889 111.247 1191.85 452.659
335 0 58.5354 14.9824 877 111.31 1192.37 454.119
336 0 57.4741 16.8076 966 110.709 1193.37 451.844
337 0 61.4454 13.2964 817 115.716 1193.44 450.81
338 0 62.5737 13.4881 844 116.261 1194.81 449.455
339 0 67.4204 14.684 990 111.087 1194.28 454.316
340 0 68.3495 14.1918 970 114.66 1195.28 450.103
341 0 71.4991 16.0422 1147 111.121 1196.79 448.139
342 0 74.3278 15.9967 1189 110.638 1195.4 449.965
343 0 76.7028 17.0398 1307 109.92 1195.94 449.234
344 0 77.5795 15.0426 1167 113.754 1197.48 447.078
345 0 81.3881 14.6827 1195 114.598 1196.7 449
346 0 85.3315 15.0706 1286 114.191 1196.93 449.273
347 0 84.4128 13.1852 1113 118.234 1197.7 446.291
348 1 47.099 11.5714 545 111.752 1196.35 470.952
349 0 48.1781 14.3634 692 110.27 1196.08 468.711
350 0 49.1409 11.5993 570 111.275 1195.38 469.123
351 0 50.0393 12.8099 641 110.947 1195.1 467.891
352 0 51.1576 12.9599 663 109.293 1197.1 468.836
353 0 53.0946 13.6925 727 106.547 1197.44 468.099
354 0 52.1368 10.5875 552 108.583 1194.82 470.29
355 0 55.3329 11.3856 630 108.167 1193.05 467.698
356 0 58.0785 11.9321 693 106.44 1195.76 467.913
357 0 61.0648 13.5266 826 105.676 1195.44 466.097
358 0 62.1449 11.5376 717 108.329 1195.39 463.826
359 0 63.1353 12.9088 815 106.007 1194.05 464.73
360 0 67.1292 11.8875 798 107.927 1193.79 463.888
361 0 67.0748 11.1219 746 108.479 1194.44 465.698
362 0 70.2502 14.0782 989 106.685 1193.03 457.165
363 0 80.2214 12.3533 991 105.969 1193.09 459.732
364 0 75.1302 12.9375 972 108.461 1190.87 455.926
365 0 80.1066 14.3184 1147 106.937 1192.18 454.842
366 0 80.1776 12.622 1012 111.094 1192.38 452.244
367 0 85.1818 15.0736 1284 108.221 1192.72 448.491
368 0 88.3233 16.6321 1469 105.925 1192.7 446.464
369 0 88.1683 12.0678 1064 114.803 1192.31 444.357
370 0 91.1157 13.2359 1206 114.024 1191.27 441.286
371 0 95.1599 14.4809 1378 110.434 1192.45 444.692
372 1 54.0823 13.7383 743 111.402 1192.94 458.307
373 0 54.0318 11.9559 646 116.155 1193.19 454.63
374 0 56.1246 10.94 614 116.265 1193.84 455.134
375 0 59.1902 11.6235 688 116.222 1194.12 452.529
376 0 63.1877 11.9485 755 113.858 1195.46 453.147
377 0 63.325 12.3648 783 116.434 1194.95 450.147
378 0 66.2696 12.8113 849 114.848 1197.09 450.333
379 0 67.2414 13.6523 918 114.576 1197.52 447.388
380 0 69.2709 14.2773 989 113.432 1198.82 447.352
381 0 71.1513 14.2373 1013 114.334 1199.16 444.202
382 0 73.2322 13.3411 977 115.223 1200.78 444.932
383 0 76.1722 13.5876 1035 112.483 1201.33 450.079
384 0 77.4198 12.8262 993 115.856 1199.56 447.484
385 0 78.0684 11.9767 935 119.622 1200.98 444.831
386 0 84.1026 14.9698 1259 114.081 1202.06 441.755
387 0 88.3383 14.2181 1256 112.703 1201.86 447.728
388 0 89.2915 12.9352 1155 116.827 1202.48 443.848
389 0 92.1436 13.8805 1279 115.216 1201.1 443.011
390 0 93.2585 13.5537 1264 117.59 1200.5 444.469
391 0 96.2727 13.0982 1261 118.629 1201.41 440.121
392 0 100.336 14.7504 1480 115.749 1199.94 444.609
393 0 102.276 14.3143 1464 116.221 1199.66 441.292
394 0 106.323 15.1707 1613 115.381 1198.33 443.085
395 0 109.261 14.5157 1586 117.278 1198.24 436.946
396 0 112.289 13.4208 1507 119.214 1198.21 439.132
397 0 120.277 16.2375 1953 114.032 1197.02 438.651
398 0 119.462 12.7906 1528 119.938 1197.2 429.173
399 0 125.475 17.1508 2152 111.943 1195.57 433.279
400 0 129.686 13.656 1771 119.152 1195.04 427.862
401 0 134.154 13.1788 1768 116.959 1195.17 432.789
402 0 140.136 11.5958 1625 119.983 1194.12 426.235
403 0 144.374 14.5109 2095 115.763 1193.29 418.783
404 0 151.732 14.8749 2257 114.6 1191.95 416.856
405 0 153.807 11.3129 1740 120.024 1192.35 415.001
406 0 161.742 15.7103 2541 113.981 1191.31 405.222
407 1 85.2363 12.1779 1038 110.528 1192.55 450.431
408 0 91.3276 16.2382 1483 104.517 1192.21 448.653
409 0 92.3783 13.8236 1277 106.75 1190.8 450.566
410 0 92.3824 14.8621 1373 128.449 1189.67 449.412
411 0 98.2754 12.353 1214 109.849 1188.63 443.048
412 0 98.2279 16.1868 1590 104.372 1189.04 443.462
413 0 103.181 14.5666 1503 107.599 1189.98 439.226
414 0 103.541 13.4246 1390 110.449 1189.56 431.225
415 0 107.428 11.0958 1192 113.409 1191.05 430.029
416 0 113.537 14.3125 1625 111.508 1190.01 427.755
417 0 119.456 14.7167 1758 110.655 1189.46 423.871
418 1 51.1858 11.1554 571 108.289 1188.15 455.982
419 0 54.297 11.6213 631 106.655 1190.38 456.967
420 0 53.0923 11.7155 622 108.756 1189.71 457.672
421 0 55.0696 10.3869 572 113.063 1190.39 454.213
422 0 59.1103 12.7389 753 109.036 1192.91 453.009
423 0 62.2141 14.2733 888 106.901 1192.33 451.833
424 0 63.1704 14.2788 902 108.232 1193.49 449.357
425 0 64.068 14.547 932 109.366 1194.61 448.013
426 0 66.1213 11.3428 750 114.887 1195.79 452.591
427 0 67.0914 16.3061 1094 107.802 1196.27 449.373
428 0 70.1186 13.7339 963 112.453 1195.99 448.543
429 0 71.1449 11.8209 841 116.084 1196.73 448.989
430 0 75.1724 14.0344 1055 111.797 1198.59 447.881
431 0 76.3057 12.463 951 115.871 1199.16 447.464
432 0 79.3726 14.539 1154 114.244 1198.39 447.865
433 0 80.1856 13.9426 1118 115.964 1198.2 450.33
434 0 85.3458 14.4237 1231 114.491 1198.73 450.401
435 0 91.8268 16.6291 1527 111.587 1198.94 447.24
436 0 91.3868 14.1158 1290 117.515 1197.47 448.908
437 0 93.1599 12.7201 1185 116.311 1196.62 451.254
438 0 97.3049 14.6961 1430 110.382 1197.56 448.226
439 0 99.2446 12.6959 1260 113.406 1196.47 448.608
440 1 53.097 8.81406 468 116.771 1195.54 472.274
441 0 55.1036 11.923 657 114.537 1194.82 469.772
442 0 60.5323 12.6379 765 115.378 1196.61 466.467
443 0 60.5323 12.737 771 155.857 1195.61 466.462
444 0 62.1818 14.0073 871 115.347 1197.44 463.088
445 0 65.0906 13.1663 857 117.679 1197.25 463.547
446 0 70.3578 19.4151 1366 106.378 1195.59 460.581
447 0 67.058 15.7923 1059 114.149 1195.45 460.951
448 0 68.2062 14.7054 1003 116.702 1195.55 460.984
449 0 66.2723 11.7244 777 124.386 1194.85 454.699
450 0 72.2022 14.1547 1022 119.594 1194.39 454.834
451 0 76.0912 12.5376 954 122.831 1192.66 453.824
452 0 77.1273 15.6365 1206 116.568 1192.72 453.431
453 0 74.1077 10.3498 767 119.068 1190.14 459.961
454 0 74.1077 10.3768 769 143.809 1189.14 460.044
455 0 82.4191 11.1018 915 118.044 1188.07 451.906
456 0 85.311 14.0896 1202 115.567 1188.76 448.003
457 0 86.2432 13.5315 1167 116.88 1189.57 443.861
458 0 89.3805 13.8173 1235 115.993 1189.11 444.431
459 1 51.1262 12.5181 640 115.291 1187.76 463.522
460 0 50.0981 10.9186 547 117.638 1187.85 464.85
461 0 54.0838 12.6471 684 115.816 1189.16 460.842
462 0 56.0517 12.8631 721 115.641 1189.84 462.191
463 0 57.0409 12.605 719 117.942 1189.77 456.27
464 0 57.1392 9.22309 527 121.25 1191.18 459.835
465 0 61.0893 13.5048 825 118.714 1192.23 456.464
466 0 61.0393 12.9752 792 120.533 1192.12 456.47
467 0 65.1017 13.4712 877 118.548 1192.58 455.495
468 0 68.1074 15.6958 1069 114.918 1192.48 456.036
469 0 69.053 15.5243 1072 114.357 1193.07 456.062
470 0 70.1624 15.6066 1095 114.689 1194.84 454.22
471 0 70.101 13.3236 934 119.619 1194.48 453.312
472 0 76.169 16.0695 1224 114.284 1194.29 456.245
473 0 77.1289 14.3526 1107 117.52 1193.6 454.295
474 0 80.233 18.6831 1499 110.818 1193.73 454.665
475 0 80.1215 14.5279 1164 119.593 1194.56 453.34
476 0 84.1653 16.0517 1351 116.145 1193.63 456.721
477 0 86.1759 16.71 1440 115.44 1193.19 455.772
478 0 89.1006 16.992 1514 115.573 1192.69 454.705
479 0 90.1815 14.0051 1263 121.411 1192.1 456.161
480 0 94.1783 14.1965 1337 121.801 1192.47 453.667
481 0 99.1462 17.3481 1720 115.559 1192.81 450.528
482 1 53.0163 10.8835 577 122.837 1191.21 478.062
483 0 55.0879 11.7267 646 120.817 1190.41 478.841
484 0 55.1364 12.7321 702 120.02 1189.41 478.32
485 0 55.1364 12.6051 695 156.931 1188.38 478.324
486 0 57.288 13.1266 752 110.856 1189.99 468.91
487 0 61.3216 14.481 888 107.867 1189.19 470.265
488 0 63.0423 15.8624 1000 115.572 1187.72 472.367
489 0 66.1336 15.4989 1025 115.844 1185.64 471.963
490 0 69.0785 13.434 928 119.553 1186.07 468.938
491 0 69.1996 18.1793 1258 112.635 1185.42 468.886
492 0 72.2149 12.3797 894 121.941 1184.79 467.674
493 0 73.1134 14.8673 1087 117.371 1184.39 467.143
494 0 76.1644 13.9435 1062 119.863 1183.02 462.988
495 0 80.1041 14.8681 1191 117.472 1182.98 462.601
496 0 80.1069 15.1547 1214 120.044 1183.71 458.187
497 0 82.1061 17.8793 1468 115.599 1183.91 458.454
498 0 87.1016 17.5657 1530 116.693 1182.73 449.948
499 0 86.2714 13.6778 1180 123.743 1181.88 451.078
500 0 92.1036 14.1254 1301 122.032 1183.37 447.907
501 0 95.2049 15.3143 1458 120.241 1182.32 444.428
502 0 98.1143 17.8363 1750 115.906 1184.32 442.298
503 0 99.3006 13.4239 1333 123.448 1185.09 440.044
504 0 103.191 13.7513 1419 121.265 1185.87 440.003
505 1 56.1384 12.5404 704 116.899 1184.85 460.842
506 0 57.0652 12.9676 740 118.057 1186.61 458.404
507 0 57.2951 11.3622 651 120.135 1187.51 460.402
508 0 57.2951 11.3797 652 142.457 1189.52 460.376
509 0 64.0566 18.0934 1159 103.578 1193.09 457.943
510 0 64.215 15.308 983 108.325 1194.4 457.301
511 0 66.2784 15.3594 1018 108.977 1196.06 454.98
512 0 66.1806 11.4988 761 114.813 1195.86 453.657
513 0 68.126 12.0365 820 114.811 1196.32 454.254
514 0 72.2036 13.7389 992 112.385 1195.27 455.701
515 0 74.1372 12.1936 904 113.601 1196.73 451.799
516 0 76.2553 15.1989 1159 108.324 1196.32 452.007
517 0 79.4512 14.5498 1156 109.75 1196.87 451.234
518 0 81.2692 12.0464 979 113.161 1196.59 452.882
519 0 85.3865 14.0069 1196 108.967 1197.1 458.13
520 0 86.1955 11.8104 1018 114.24 1195.95 455.033
521 0 91.3669 17.2491 1576 105.528 1195.75 452.827
522 0 91.2434 12.7461 1163 118.088 1194.88 449.791
523 0 96.3585 14.1762 1366 110.573 1193.8 451.667
524 0 98.3284 13.4346 1321 113.107 1193.67 446.722
525 1 53.1216 16.9987 903 101.553 1194.36 477.931
526 0 53.039 10.8599 576 109.083 1193.44 475.96
527 0 52.07 7.18264 374 110.888 1192.88 472.067
528 0 62.2045 12.7644 794 105.946 1192.34 473.248
529 0 60.2526 11.6012 699 107.78 1192.39 474.15
530 0 63.0689 12.0027 757 107.42 1190.62 468.984
531 0 64.328 13.6022 875 104.931 1185.96 474.498
532 0 66.5185 11.7712 783 109.9 1186.31 468.815
533 0 72.288 14.9402 1080 103.971 1185.9 469.23
534 0 71.2246 14.1524 1008 107.343 1185.72 466.54
535 0 75.1941 17.7541 1335 103.522 1185.73 461.978
536 0 77.3498 14.6348 1132 107.434 1184.64 464.046
537 0 77.3132 11.7832 911 113.965 1184.38 456.604
538 0 82.2557 12.68 1043 110.999 1184.18 459.228
539 0 84.3093 13.6877 1154 110.553 1183.96 454.684
540 0 88.1841 14.0842 1242 109.898 1183.79 454.473
541 0 89.2687 14.8204 1323 108.649 1183.84 455.85
542 0 92.2224 14.9096 1375 107.609 1184.7 451.135
543 0 96.3504 12.8386 1237 110.174 1184.89 450.61
544 0 97.3068 12.2088 1188 112.634 1186.11 445.588
545 1 55.1032 11.8142 651 111.178 1183.57 462.02
546 0 58.0648 11.4183 663 113.48 1185.73 459.259
547 0 60.1766 12.3802 745 106.799 1189.06 458.706
548 0 60.2427 11.4537 690 109.925 1187.6 459.061
549 0 59.1649 12.1694 720 108.836 1187.35 460.906
550 0 63.1898 11.7266 741 110.335 1186.41 458.37
551 0 66.1825 14.2636 944 107.426 1188.53 452.783
552 0 69.1705 13.8065 955 106.626 1188.23 458.979
553 0 71.2578 14.2019 1012 107.939 1188.92 452.874
554 0 74.1776 10.8928 808 111.162 1189.27 453.949
555 0 75.1797 15.1903 1142 107.072 1190.16 450.672
556 0 80.4312 12.8433 1033 109.8 1192.31 450.605
557 0 82.243 14.1167 1161 109.026 1191.14 450.742
558 0 85.2045 12.335 1051 111.023 1192.4 451.049
559 0 86.1682 10.8857 938 112.783 1194.9 448.814
560 1 47.0493 12.9014 607 106.547 1197.15 470.689
561 0 49.0595 9.02986 443 113.878 1197.84 470.596
562 0 48.1382 8.89108 428 113.547 1196.9 474.294
563 0 53.0456 16.1371 856 102.438 1196.82 473.07
564 0 53.3036 13.9015 741 110.614 1195.47 473.42
565 0 49.2157 10.4438 514 113.586 1192.62 475.897
566 0 54.12 14.0429 760 107.975 1190.99 472.964
567 0 54.0948 13.4024 725 108.526 1192.87 477.393
568 0 56.1294 13.1126 736 107.913 1192.86 475.967
569 0 57.1325 11.6046 663 110.882 1193.61 477.086
570 0 58.2945 8.37128 488 114.465 1191.75 475.627
571 0 59.2834 11.3017 670 111.537 1190.86 473.787
572 0 64.2769 15.8222 1017 103.114 1190.52 475.795
573 0 64.2451 13.2617 852 108.749 1190.21 472.217
574 0 66.0892 14.2686 943 107.075 1188.69 470.949
575 0 70.2142 11.821 830 110.055 1186.51 468.753
576 0 75.1567 13.4253 1009 108.288 1185.11 465.697
577 0 77.2282 15.0463 1162 106.208 1185.26 460.968
578 0 77.2141 13.2877 1026 110.877 1185.42 462.221
579 0 79.1227 13.8898 1099 110.629 1188.34 459.596
580 0 84.1014 16.5515 1392 105.596 1188.17 458.175
581 0 85.1308 14.1899 1208 109.535 1187.39 452.86
582 1 44.241 12.2059 540 111.724 1187.17 475.741
583 0 46.0275 14.7303 678 103.345 1186.07 474.422
584 0 44.1712 14.4212 637 111.195 1188.42 471.959
585 0 48.0699 14.1045 678 109.957 1187.55 470.951
586 0 47.0769 13.6373 642 132.193 1186.63 470.548
587 0 51.2283 13.2934 681 112.586 1188.73 465.449
588 0 51.1212 12.2063 624 113.484 1189.56 466.845
589 0 55.2594 14.0248 775 109.339 1190.17 466.505
590 0 52.1924 12.2432 639 114.163 1189.29 465.718
591 0 54.205 12.5265 679 114.153 1190.81 462.981
592 0 58.2791 16.1979 944 107.614 1192.37 462.231
593 0 58.2791 16.2322 946 122.277 1194.39 462.278
594 0 60.3089 15.8351 955 108.248 1192.73 459.447
595 0 59.0719 12.0531 712 108.671 1192.83 463.545
596 0 64.2323 13.8404 889 106.205 1192.98 458.596
597 0 64.1921 13.2103 848 107.215 1194.61 460.11
598 0 65.1288 13.6345 888 106.502 1194.31 458.742
599 0 68.2723 11.2784 770 108.76 1195.51 462.053
600 0 70.3617 13.1748 927 107.501 1194.95 459.148
601 0 75.2636 14.6817 1105 105.076 1196.59 453.712
602 0 75.2651 12.5556 945 139.521 1198.66 455.938
603 0 75.3028 11.4206 860 111.783 1195.37 456.587
604 0 81.2872 12.5727 1022 109.347 1194.97 459.64
605 0 85.1737 18.8438 1605 100.045 1194.51 459.393
606 0 86.4032 12.6153 1090 109.176 1195.08 460.14
607 0 88.2871 12.8671 1136 111.21 1192.67 458.651
608 0 92.2101 13.3499 1231 111.604 1192.73 454.847
609 0 94.4622 14.8313 1401 108.767 1194.1 455.867
610 0 97.4013 15.5337 1513 108.007 1193.43 455.086
611 0 102.293 15.0059 1535 108.815 1192.68 454.024
612 0 103.45 11.8898 1230 113.383 1192.28 450.427
613 1 55.2143 15.1772 838 102.797 1189.9 479.439
614 0 59.1687 15.7516 932 101.918 1189.98 476.103
615 0 60.0884 15.1943 913 108.176 1192.43 475.438
616 0 61.0456 15.8079 965 108.334 1193.22 471.799
617 0 62.0397 12.9433 803 113.09 1192.37 470.158
618 0 68.2707 12.6262 862 112.923 1191.82 469.442
619 0 69.1492 13.9987 968 112.303 1190.59 467.612
620 0 71.0967 15.1765 1079 111.024 1190.48 465.415
621 0 71.0704 13.7329 976 114.293 1190.25 461.661
622 0 74.073 11.8397 877 116.53 1189.36 462.99
623 0 78.0672 13.245 1034 114.979 1188.84 459.652
624 0 78.1046 14.2501 1113 113.962 1189.09 457.181
625 0 83.1192 15.8207 1315 110.298 1187.47 453.855
626 0 86.1085 13.8662 1194 113.445 1188.14 455.111
627 1 45.0668 12.7588 575 112.155 1188.68 473.377
628 0 45.0452 13.2978 599 113.394 1188.57 471.017
629 0 49.0443 12.3154 604 113.354 1187.79 471.459
630 0 49.0835 12.6519 621 115.633 1188.77 467.897
631 0 48.1378 11.8618 571 114.053 1185.19 470.228
632 0 50.0446 13.2282 662 113.205 1186.81 468.34
633 0 51.2002 12.4609 638 113.342 1184.62 465.964
634 0 53.0449 13.8562 735 112.224 1186.47 462.795
635 0 55.133 15.0727 831 109.496 1187.37 465.442
636 0 58.1609 15.0789 877 109.88 1187.86 461.464
637 0 58.1044 13.3725 777 114.111 1189.2 459.323
638 0 60.0883 11.6828 702 115.613 1190.77 463.966
639 0 59.0757 12.4078 733 145.115 1190.84 463.884
640 0 64.1523 13.8576 889 112.151 1192.19 459.955
641 0 68.166 14.406 982 110.16 1192.66 462.814
642 0 71.1583 12.3106 876 114.203 1194.08 459.244
643 0 71.3388 14.6064 1042 108.942 1193.84 463.907
644 0 75.3903 14.153 1067 109.862 1193.88 462.154
645 0 76.4248 15.4924 1184 110.391 1194.79 458.281
646 0 82.4309 14.1331 1165 109.745 1196.51 458.131
647 0 82.2837 11.6426 958 115.979 1196.71 455.736
648 0 84.2637 12.271 1034 114.736 1196.49 457.785
649 0 89.2973 14.1326 1262 112.551 1195.13 456.517
650 0 89.3286 13.6239 1217 114.727 1194.53 457.215
651 0 94.264 12.9742 1223 115.582 1193.48 461.078
652 0 94.1765 14.133 1331 112.802 1193.52 460.043
653 1 53.2114 11.1254 592 112.179 1192.95 478.875
654 0 53.1584 12.284 653 111.923 1191.06 476.035
655 0 59.2646 12.9082 765 108.112 1189.54 478.098
656 0 55.1091 12.4662 687 113.029 1189.44 473.773
657 0 59.109 13.0437 771 111.962 1189.54 471.479
658 0 61.1576 15.1412 926 108.77 1187.83 472.819
659 0 61.0715 12.6409 772 113.244 1188.5 473.557
660 0 63.25 15.0988 955 110.241 1186.77 471.661
661 0 66.2182 13.682 906 112.126 1186.15 466.552
662 0 64.1233 11.6338 746 116.598 1185.67 467.245
663 0 69.1313 15.3331 1060 110.929 1185.9 463.799
664 0 70.1621 14.723 1033 113.378 1185.33 462.952
665 0 71.0973 14.023 997 114.132 1185.39 462.77
666 0 74.1976 14.394 1068 113.817 1184.73 455.057
667 0 75.1572 12.5736 945 117.102 1184.92 457.406
668 0 77.1862 12.865 993 115.457 1183.55 458.521
669 0 80.2424 15.2289 1222 113.031 1184.09 452.582
670 0 82.2909 12.6867 1044 117.433 1185.16 450.385
671 0 82.3003 12.6974 1045 136.123 1186.16 450.456
672 0 89.2433 14.6454 1307 113.942 1186.19 446.168
673 0 91.237 13.032 1189 111.955 1187.25 447.358
674 1 47.0793 12.1285 571 110.116 1186.45 465.149
675 0 47.3387 13.5618 642 105.682 1187.64 462.495
676 0 51.2044 13.6902 701 103.308 1188.64 461.371
677 0 50.1566 8.3339 418 116.024 1190.28 469.057
678 0 55.1111 14.9698 825 103.064 1191.44 467.313
679 0 55.177 12.7952 706 108.758 1192.64 462.178
680 0 59.1565 16.0084 947 103.582 1193.37 460.907
681 0 58.1043 10.2746 597 112.843 1194.85 462.725
682 0 61.2319 13.947 854 106.288 1194.71 461.226
683 0 62.2578 11.9182 742 110.666 1194.57 458.81
684 0 63.3124 10.7088 678 111.053 1195.9 463.799
685 0 67.5662 16.3691 1106 104.259 1195.84 457.559
686 0 69.3126 13.3742 927 109.311 1196.83 456.777
687 0 72.2285 12.0589 871 110.518 1196.73 458.93
688 0 74.3151 12.9583 963 110.293 1196.33 458.829
689 0 76.2303 11.544 880 113.709 1196.95 456.869
690 0 80.1319 13.5027 1082 110.08 1196.87 458.773
691 0 82.0603 14.6112 1199 109.18 1195.56 457.787
692 0 87.132 14.5182 1265 108.549 1196.68 458.153
693 0 89.0858 11.9548 1065 114.638 1197.14 460.46
694 0 91.212 15.316 1397 110.993 1197.27 455.601
695 0 92.1759 13.5827 1252 113.842 1196.55 456.911
696 0 97.198 15.062 1464 110.857 1196.66 456.393
697 0 100.258 15.879 1592 109.298 1195.07 456.043
698 0 102.449 14.4072 1476 112.287 1195.75 453.642
699 0 104.458 11.8995 1243 116.467 1194.31 451.799
700 0 114.258 18.1781 2077 105.499 1193.75 447.992
701 0 114.377 12.2927 1406 113.876 1193.65 453.681
702 0 115.272 11.3905 1313 113.203 1192.27 448.344
703 1 67.3023 13.8926 935 105.416 1192.12 470.836
704 0 69.2619 12.5177 867 107.958 1190.29 469.27
705 0 73.4214 19.1225 1404 98.3668 1189.65 467.266
706 0 74.3709 12.3973 922 107.71 1188.73 469.179
707 0 74.3709 12.5452 933 138.811 1186.7 469.239
708 0 80.34 15.6709 1259 104.729 1186.69 461.28
709 0 81.5626 17.1893 1402 102.288 1186.74 462.087
710 0 84.5419 16.1577 1366 104.483 1187.84 460.854
711 0 85.4157 14.7631 1261 106.703 1186.65 457.31
712 0 88.2836 14.7026 1298 107.476 1186.48 452.99
713 0 91.2147 14.9866 1367 106.508 1186 449.955
714 0 90.1858 11.6315 1049 112.486 1187.38 449.59
715 0 97.3075 12.517 1218 109.825 1186.67 449.344
716 0 101.329 16.8955 1712 103.767 1187.68 442.579
717 0 104.338 16.8587 1759 104.198 1187.4 443.352
718 0 104.369 15.1194 1578 108.205 1187.56 438.333
719 0 110.364 18.1763 2006 103.466 1187.98 441.342
720 0 110.42 13.0139 1437 113.343 1189.05 438.836
721 0 113.557 13.7904 1566 110.819 1189.72 438.459
722 0 118.282 15.5983 1845 109.858 1189.93 430.209
723 0 123.507 13.7806 1702 110.479 1190.24 433.172
724 0 126.519 13.1759 1667 111.13 1190.19 429.668
725 0 137.564 16.1016 2215 107.2 1191.7 424.653
726 0 140.5 16.4413 2310 106.968 1192.83 420.483
727 0 143.659 13.7618 1977 111.116 1194.41 424.121
728 0 150.425 17.9426 2699 105.506 1194.85 416.556
729 0 154.573 15.2549 2358 107.274 1194.96 416.46
730 0 159.372 18.6796 2977 104.853 1194.12 404.538
731 0 165.555 13.355 2211 112.793 1194.49 419.316
732 0 164.574 13.8357 2277 137.255 1194.48 420.219
733 1 88.4196 15.2681 1350 103.855 1195.69 454.848
734 0 89.2444 13.928 1243 106.533 1194.95 452.716
735 0 90.3484 15.4845 1399 105.25 1195.66 454.863
736 0 92.5554 10.4586 968 113.279 1195.17 450.454
737 0 97.6804 14.0356 1371 108.097 1193.79 448.998
738 0 102.537 17.5255 1797 103.469 1194.12 447.041
739 0 105.711 14.0951 1490 108.227 1193.46 446.659
740 0 111.276 12.9858 1445 110.453 1192.67 449.199
741 0 113.828 15.8484 1804 107.082 1192.18 444.45
742 1 63.3717 16.7109 1059 104.752 1193.88 473.7
743 0 65.0723 18.733 1219 103.768 1191.72 468.764
744 0 66.3052 17.7512 1177 105.992 1191.71 469.32
745 0 66.3052 17.7211 1175 124.065 1191.73 469.333
746 0 73.797 16.9113 1248 106.644 1191.36 458.562
747 0 74.2482 14.896 1106 111.328 1191.26 463.782
748 0 77.6736 16.4406 1277 108.925 1191.15 458.294
749 0 78.3318 20.3493 1594 104.225 1190.57 459.593
750 0 82.3855 15.3546 1265 110.466 1190.18 460.708
751 0 82.3855 15.4032 1269 123.908 1190.2 460.838
752 0 87.4461 11.8016 1032 118.585 1189.14 454.296
753 1 49.1611 14.544 715 111.255 1190.6 473.691
754 0 49.286 12.6811 625 115.173 1190.04 472.04
755 0 51.3222 15.1007 775 112.236 1188.68 467.084
756 0 52.5206 13.0996 688 112.868 1187.63 463.922
757 0 55.1028 15.3713 847 111.184 1190.34 468.006
758 0 55.1027 11.9595 659 117.909 1191.84 464.886
759 0 54.0949 10.4816 567 154.097 1191.86 463.321
760 0 58.145 13.6899 796 116.569 1191 461.907
761 0 60.2266 14.7111 886 113.528 1191.71 462.335
762 0 57.0575 12.0054 685 115.851 1191.56 462.423
763 0 60.0917 11.8319 711 117.188 1192.86 459.987
764 0 62.2228 11.8767 739 116.483 1194.03 456.459
765 0 63.1672 10.4168 658 118.304 1194.58 462.295
766 0 66.0619 11.7314 775 117.708 1195.2 460.004
767 0 70.1077 11.9958 841 117.139 1194.92 458.748
768 0 70.1008 12.0398 844 116.13 1195.24 460.347
769 0 72.2333 11.7813 851 117.136 1197.06 461.826
770 0 75.1285 12.818 963 118.182 1196.37 458.437
771 0 81.2871 14.8609 1208 114.622 1198.09 454.32
772 0 81.207 11.5384 937 121.988 1197.32 451.906
773 0 85.28 18.6562 1591 108.61 1197.75 451.025
774 0 87.1701 13.6056 1186 114.85 1197.36 453.584
775 0 90.1447 14.7097 1326 113.439 1197.44 453.571
776 0 91.1872 10.4949 957 117.834 1197.52 458.941
777 1 49.0476 13.9864 686 114.474 1198.04 472.165
778 0 49.0838 12.2648 602 119.698 1198.17 469.422
779 0 53.096 14.9352 793 112.373 1197.44 472.097
780 0 53.0728 16.1853 859 107.722 1196.65 472.56
781 0 53.088 12.225 649 115.097 1197.21 474.066
782 0 55.0726 13.6184 750 115.868 1196.21 470.195
783 0 57.0523 13.882 792 116.317 1195.08 470.25
784 0 59.2251 13.778 816 115.619 1195.27 472.094
785 0 61.1795 11.9485 731 117.792 1194.13 472.692
786 0 63.2843 14.2373 901 114.491 1193.86 468.435
787 0 65.0885 14.1653 922 113.626 1193.88 470.86
788 0 67.0737 18.8897 1267 106.211 1191.93 467.678
789 0 67.2265 14.2057 955 114.177 1192.87 465.53
790 0 70.1935 12.8359 901 116.22 1191.48 463.746
791 0 76.2053 17.1379 1306 108.664 1192.84 460.601
792 0 73.2654 11.6699 855 119.248 1191.36 463.326
793 0 78.1623 14.8921 1164 114.108 1191.52 460.008
794 0 79.1375 13.1922 1044 117.759 1190.91 458.109
795 0 82.2235 16.2119 1333 112.086 1190.06 454.725
796 0 85.1032 15.7808 1343 113.66 1190.04 453.662
797 0 86.2764 15.6937 1354 114.207 1190.82 454.264
798 1 47.1279 11.3096 533 121.191 1186.02 465.27
799 0 48.0364 13.4065 644 117.061 1185.32 464.79
800 0 51.1823 12.6216 646 117.342 1185.2 465.415
801 0 52.3444 14.8822 779 113.603 1186.42 465.612
802 0 52.3444 14.8058 775 132.755 1188.46 465.612
803 0 56.3201 14.027 790 116.881 1191.74 463.538
804 0 55.2853 14.5066 802 119.354 1191.88 461.837
805 0 56.389 12.5202 706 123.707 1193.17 459.919
806 0 58.0769 13.3271 774 121.751 1193.14 458.3
807 0 60.0921 13.6624 821 121.519 1193.57 457.811
808 0 63.0944 16.5625 1045 115.988 1195.7 457.759
809 0 65.1478 14.5515 948 120.277 1195.39 455.582
810 0 65.1358 13.9555 909 122.219 1195.72 456.807
811 0 70.1776 18.6954 1312 113.454 1196.59 456.619
812 0 72.1137 15.7945 1139 119.653 1196.2 455.33
813 0 75.1826 17.3976 1308 116.718 1196.99 455.293
814 0 77.2327 15.7964 1220 119.839 1197.69 453.954
815 0 79.3859 15.1286 1201 121.885 1196.72 453.556
816 0 81.4447 16.2319 1322 121.023 1198.03 454.422
817 0 81.4447 16.2933 1327 132.002 1200.07 454.48
818 0 85.2376 15.3219 1306 124.858 1197.34 452.585
819 0 89.5053 17.6973 1584 119.254 1196 455.071
820 0 91.5887 15.1766 1390 124.296 1196.9 452.351
821 1 48.3246 11.5262 557 128.35 1196.01 475.14
822 0 51.4761 12.0444 620 126.213 1194.53 473.803
823 0 51.7108 13.8269 715 123.987 1194.92 473.076
824 0 52.4092 14.0624 737 126.318 1196.64 472.44
825 0 55.1562 15.0482 830 121.661 1195.79 473.357
826 0 58.0236 15.6316 907 120.591 1195.88 471.839
827 0 58.2824 12.5767 733 125.843 1194.99 473.632
828 0 61.1704 15.5794 953 120.183 1195.14 469.702
829 0 63.2644 15.4589 978 119.929 1194.02 471.555
830 0 64.3642 14.5112 934 121.513 1193.65 468.503
831 0 66.1155 16.4712 1089 117.511 1192.56 468.143
832 0 66.1818 14.2184 941 121.97 1192.74 465.112
833 0 71.1478 13.7039 975 118.719 1191.38 466.918
834 0 72.1328 12.8652 928 120.807 1190.93 463.177
835 0 72.1328 12.8513 927 152.833 1190.93 463.367
836 0 72.1328 12.8652 928 152.252 1190.92 463.387
837 0 81.2917 13.7283 1116 118.818 1191.76 457.616
838 0 83.3096 15.2563 1271 118.856 1191.28 451.266
839 0 85.4775 14.4131 1232 118.325 1190.42 456.713
840 0 90.4742 12.4897 1130 121.888 1191.02 453.435
841 0 95.2306 12.79 1218 121.501 1191.17 449.461
842 0 96.4506 17.4701 1685 114.007 1190.23 445.717
843 0 99.1659 15.5094 1538 116.8 1190.49 443.366
844 0 101.282 17.6043 1783 112.574 1190.67 439.601
845 1 52.0354 12.2032 635 117.756 1192.14 464.605
846 0 53.0975 13.4093 712 118.413 1191.43 461.867
847 0 56.0729 12.6621 710 116.851 1191.46 463.892
848 0 58.2203 12.9508 754 117.382 1193.77 460.448
849 0 59.0651 14.12 834 115.713 1194.54 458.267
850 0 58.1114 13.4741 783 120.254 1195.51 455.868
851 0 65.1595 15.4697 1008 114.533 1193.82 456.327
852 0 69.1335 15.7087 1086 112.794 1195.39 457.515
853 0 69.1616 13.7359 950 117.328 1195.05 456.154
854 0 71.2891 13.5785 968 118.013 1196.94 454.337
855 0 71.2891 13.5224 964 151.994 1197.9 454.171
856 0 77.1417 15.2317 1175 113.234 1197.47 454.134
857 0 78.2124 13.5528 1060 118.696 1197.74 449.122
858 0 83.1203 14.7858 1229 114.722 1198.21 450.316
859 0 84.2787 14.7605 1244 115.318 1197.27 452.244
860 1 46.4815 11.7036 544 118.401 1196.14 471.129
861 0 50.6691 11.8613 601 118.468 1196.49 470.636
862 0 53.9043 12.3367 665 117.913 1195.68 471.692
863 0 53.8906 14.7706 796 116.006 1195.62 467.309
864 0 54.7503 14.5022 794 117.194 1195.09 468.123
865 0 56.6472 18.0415 1022 110.528 1194.68 473.958
866 0 58.7319 15.2047 893 117.172 1195.86 470.57
867 0 60.6124 13.6276 826 120.898 1193.39 470.516
868 0 63.7845 16.7282 1067 113.35 1193.95 472.015
869 0 60.4301 13.1226 793 123.091 1193.18 467.415
870 0 62.4248 14.161 884 121.773 1193.5 467.033
871 0 66.4517 15.9364 1059 119.414 1191.65 466.793
872 0 67.5836 13.45 909 124.77 1190.82 463.583
873 0 73.5708 15.4545 1137 118.139 1189.58 468.208
874 0 73.484 13.6628 1004 124.705 1189.02 466.067
875 0 77.53 18.122 1405 116.323 1189.88 464.646
876 0 78.478 16.3995 1287 120.061 1189.67 463.87
877 0 81.2292 14.3791 1168 123.089 1188.65 463.444
878 0 82.48 11.9423 985 129.453 1189.06 457.869
879 0 87.2658 14.6907 1282 124.485 1188.01 454.126
880 1 43.0558 10.08 434 131.276 1187.48 474.256
881 0 47.0905 13.5484 638 123.437 1187.58 472.679
882 0 51.3602 12.5778 646 122.743 1189.99 469.988
883 0 49.2371 12.4093 611 118.175 1190.2 465.252
884 0 48.161 13.1642 634 119.282 1189.98 464.497
885 0 50.2278 13.6578 686 116.888 1190.53 464.242
886 0 52.3289 13.2241 692 117.816 1190.75 461.559
887 0 56.2061 15.0696 847 113.288 1191.64 463.144
888 0 55.2445 11.1142 614 122.725 1190.94 459.282
889 0 58.2028 13.9856 814 119.359 1192.26 457.493
890 0 62.1111 17.4848 1086 111.216 1191.73 456.388
891 0 64.1981 15.5301 997 114.958 1192.28 452.556
892 0 69.2636 15.9247 1103 111.776 1192.7 457.605
893 0 67.1749 14.6632 985 117.463 1193.38 454.744
894 0 70.2421 13.7382 965 118.982 1195 455.432
895 0 72.2936 15.4647 1118 114.603 1194.19 456.534
896 0 73.4071 14.7261 1081 117.923 1193.79 449.502
897 0 76.2696 13.6621 1042 117.526 1192.92 455.939
898 0 78.5273 12.8745 1011 119.997 1193.48 453.385
899 0 85.4066 16.6146 1419 112.102 1193.68 455.076
900 0 83.2991 13.9017 1158 117.738 1194.71 450.087
901 0 86.2963 13.0365 1125 118.909 1194.54 452.431
902 0 89.4367 13.6074 1217 119.002 1195.29 450
903 1 45.0523 11.4978 518 119.025 1193.26 471.193
904 0 50.0722 14.4991 726 114.039 1194.2 472.306
905 0 51.158 12.8817 659 117.815 1193.42 471.08
906 0 51.3129 12.2776 630 118.44 1194.13 473.179
907 0 55.5506 16.6335 924 111.113 1194.48 470.928
908 0 55.4956 14.1453 785 116.732 1193.41 470.692
909 0 57.3175 13.1548 754 118.351 1195.29 470.561
910 0 59.3289 14.5629 864 116.346 1193.71 472.152
911 0 59.3311 12.8769 764 120.859 1193.43 472.585
912 0 64.3749 15.4097 992 113.651 1191.98 472.36
913 0 66.336 14.6376 971 113.925 1192.32 471.51
914 0 67.2989 13.8784 934 117.258 1192.06 467.824
915 0 69.2763 12.2986 852 118.399 1190.55 470.666
916 0 76.374 12.884 984 116.067 1190.7 469.216
917 0 79.4401 17.3212 1376 109.32 1189.67 464.219
918 0 79.4401 17.4723 1388 123.433 1188.68 464.244
919 0 81.4248 16.9727 1382 112.526 1188.8 462.646
920 0 88.3683 17.71 1565 111.134 1188.07 462.385
921 1 45.1616 10.2521 463 119.475 1187.27 477.657
922 0 45.5864 12.065 550 118.942 1188.32 471.596
923 0 49.9101 10.7393 536 119.69 1187.32 472.651
924 0 49.6058 13.8895 689 116.392 1187.85 465.319
925 0 51.0815 17.9321 916 107.59 1185.88 469.391
926 0 52.1034 12.4944 651 116.639 1185.88 470.034
927 0 54.2335 12.9256 701 118.148 1190.2 470.053
928 0 55.0459 14.3517 790 116.135 1190.32 468.549
929 0 55.3043 13.5613 750 118.209 1190.8 466.664
930 0 56.2013 11.9214 670 123.891 1190.51 467.007
931 0 57.1614 11.9661 684 125.069 1191.57 463.427
932 0 59.2173 12.9185 765 123.736 1191.69 460.03
933 0 62.0792 14.5943 906 120.446 1192.59 461.33
934 0 64.0975 13.2142 847 122.791 1192.53 459.285
935 0 69.1934 14.7124 1018 117.901 1193.65 458.333
936 0 71.1357 18.3171 1303 112.031 1193.67 456.053
937 0 70.3868 13.9373 981 121.245 1194.08 455.197
938 0 72.141 13.8617 1000 121.462 1194.79 450.791
939 0 75.108 15.6042 1172 117.372 1195.09 453.135
940 0 79.3431 13.3723 1061 120.381 1195.02 453.57
941 0 79.1916 12.6276 1000 123.728 1195.49 449.461
942 0 85.2737 15.0105 1280 117.864 1196.56 451.182
943 0 87.3881 15.8488 1385 116.884 1196.6 450.972
944 0 89.4079 13.9921 1251 120.385 1197.41 448.945
945 0 93.5923 14.5739 1364 119.384 1197.09 447.679
946 0 97.3869 12.9689 1263 120.26 1197.11 446.935
947 0 100.863 11.4809 1158 122.135 1196.3 444.783
948 1 52.5115 11.1976 588 122.172 1196.21 465.56
949 0 55.4542 12.5329 695 118.96 1196.37 465.858
950 0 57.4866 14.038 807 116.367 1196.29 464.239
951 0 60.5839 14.7234 892 114.385 1195.41 465.031
952 0 62.2085 12.2652 763 118.211 1197.94 465.992
953 0 66.2836 13.925 923 114.56 1196.34 465.947
954 0 67.1818 11.9526 803 118.529 1196.55 464.778
955 0 70.1813 12.7242 893 115.542 1196.59 467.996
956 0 72.2829 12.8799 931 116.35 1195.93 464.77
957 0 75.0986 14.7673 1109 112.69 1195.55 465.567
958 0 77.2167 16.8746 1303 109.7 1194.4 463.563
959 0 79.0767 14.1635 1120 113.469 1194.92 465.7
960 0 85.2247 17.7179 1510 107.206 1192.99 461.309
961 0 84.2718 14.0854 1187 112.494 1192.98 462.874
962 0 87.3358 14.4271 1260 112.069 1192.16 460.361
963 0 89.4201 13.5764 1214 113.881 1192.71 456.264
964 0 90.1262 14.6128 1317 113.383 1191.09 453.73
965 0 93.1973 11.642 1085 118.227 1191.03 451.033
966 0 97.2788 14.7103 1431 113.291 1191.82 447.363
967 0 101.308 13.0691 1324 115.223 1190.29 448.208
968 0 104.386 16.4486 1717 110.596 1190.12 440.373
969 0 104.386 16.4486 1717 141.73 1191.12 440.373
970 0 111.284 13.2544 1475 116.714 1189.95 438.403
971 1 60.3986 12.7817 772 113.565 1190.45 465.872
972 0 58.6145 13.2561 777 115.342 1189.12 461.616
973 0 60.6199 11.5968 703 117.494 1190.65 461.555
974 0 65.5137 16.6988 1094 109.779 1189.85 459.798
975 0 67.3195 14.8397 999 113.263 1189.93 456.766
976 0 69.5141 14.328 996 114.422 1189.62 454.505
977 0 70.4754 12.288 866 119.343 1190.62 453.149
978 0 72.5507 14.0591 1020 116.637 1190.53 451.848
979 0 76.4569 15.6559 1197 112.884 1191.59 451.395
980 0 78.476 13.4818 1058 116.941 1192.47 451.873
981 0 80.4579 13.7712 1108 115.977 1193.99 451.523
982 0 81.4962 11.8042 962 120.475 1192.72 451.359
983 0 87.4222 16.7921 1468 111.533 1194.01 443.147
984 0 87.407 12.7564 1115 116.769 1195.03 447.67
985 0 91.628 13.2274 1212 115.95 1195.42 444.368
986 0 93.4397 12.8425 1200 116.458 1195.78 442.83
987 0 97.3242 12.371 1204 118.304 1195.97 443.345
988 0 102.338 15.5954 1596 113.752 1196.57 441.006
989 1 55.3219 12.1832 674 110.466 1199.18 466.822
990 0 52.4354 11.8431 621 110.52 1199.04 466.13
991 0 57.5407 15.1545 872 107.135 1197.6 465.341
992 0 60.5961 15.298 927 108.047 1197.03 465.319
993 0 60.3783 15.3366 926 105.543 1197.19 466.726
994 0 59.2587 10.3782 615 111.509 1196.81 469.82
995 0 63.3384 13.2463 839 104.899 1195.94 468.243
996 0 62.4654 13.4955 843 101.725 1194.91 466.979
997 0 68.162 12.1915 831 108.699 1195.74 469.523
998 0 70.3681 14.1399 995 104.65 1196.05 456.575
999 0 72.2376 16.7918 1213 104.085 1195.48 461.932
1000 0 72.3313 12.1248 877 112.379 1193.65 456.047
1001 0 73.5228 10.8674 799 115.453 1192.3 455.217
1002 0 79.4586 14.6491 1164 109.954 1193.08 459.475
1003 0 81.4412 13.2734 1081 113.1 1191.1 453.387
1004 0 82.2314 15.9428 1311 109.335 1190.22 461.038
1005 0 85.2488 15.6366 1333 107.842 1190.71 456.221
1006 0 87.3085 12.4386 1086 113.634 1189.18 455.062
1007 0 90.1879 13.7491 1240 111.89 1189.19 453.128
1008 0 94.398 16.3986 1548 109.15 1189.71 447.624
1009 0 94.4694 12.6708 1197 116.759 1188.87 442.21
1010 0 99.4876 14.4943 1442 113.564 1189.51 444.92
1011 1 53.2151 12.3837 659 110.907 1190.84 470.223
1012 0 55.2818 11.161 617 118.637 1190.61 466.538
1013 0 57.4488 12.0455 692 118.129 1190.41 464.847
1014 0 57.4046 13.0826 751 119.776 1190.06 461.048
1015 0 59.3298 13.6188 808 116.366 1192.16 464.65
1016 0 64.3233 15.2355 980 113.351 1191.84 462.439
1017 0 67.2995 14.6658 987 114.097 1191.7 458.343
1018 0 67.3704 13.4332 905 117.144 1192.22 454.362
1019 0 70.5591 15.7173 1109 111.464 1192.19 457.247
1020 0 74.3141 15.4614 1149 113.255 1192.53 452.567
1021 0 74.2515 13.9661 1037 116.595 1193.84 448.787
1022 0 78.2876 14.5234 1137 114.754 1194.01 449.685
1023 0 81.3454 13.3628 1087 116.755 1194.56 448.206
1024 0 83.4064 13.3683 1115 117.296 1194.93 445.675
1025 0 84.5671 11.4111 965 121.349 1194.61 445.655
1026 0 84.5671 11.4229 966 166.711 1194.6 445.479
1027 0 92.7539 13.9832 1297 115.624 1195.93 445.769
1028 0 95.513 14.218 1358 115.372 1195.9 442.334
1029 0 93.6036 10.6727 999 118.414 1195.9 447.392
1030 1 49.3329 11.615 573 115.426 1194.86 461.993
1031 0 53.6174 13.4658 722 111.436 1194.71 462.492
1032 0 56.1576 9.86508 554 113.495 1194.4 468.471
1033 0 54.1406 10.2141 553 114.125 1195.22 466.156
1034 0 54.1052 11.3483 614 113.634 1194.19 465.822
1035 0 57.1659 11.8427 677 111.496 1193.15 468.708
1036 0 59.1378 12.8175 758 114.164 1194.1 465.897
1037 0 56.0793 11.6086 651 111.656 1193.07 460.094
1038 0 60.3615 14.2641 861 106.667 1194.9 462.976
1039 0 61.1598 13.3912 819 108.632 1193.05 461.486
1040 0 62.082 10.6794 663 114.202 1193.54 461.944
1041 0 65.2868 9.48124 619 116.06 1192.82 461.557
1042 0 68.1782 15.5915 1063 106.668 1193.77 458.674
1043 0 69.1405 11.1223 769 114.437 1190.87 458.992
1044 0 75.2012 12.9519 974 110.105 1190.83 458.412
1045 0 78.2766 12.2259 957 112.807 1189.02 456.522
1046 0 79.1746 13.1355 1040 111.22 1188.8 457.038
1047 0 80.0877 12.0243 963 114.251 1189.24 451.582
1048 0 85.6032 13.6677 1170 107.877 1189.67 454.348
1049 0 85.4625 13.9944 1196 107.295 1189.24 454.485
1050 0 87.3599 11.3553 992 111.99 1189.25 452.065
1051 0 86.2427 8.96308 773 113.244 1187.71 457.56
1052 1 53.2178 11.1617 594 115.746 1186.29 473.65
1053 0 53.039 12.142 644 115.905 1185.92 472.662
1054 0 53.0731 11.9835 636 118.145 1186.46 469.734
1055 0 52.1661 10.3516 540 121.152 1186.08 470.02
1056 0 58.1294 11.7496 683 119.375 1185.27 466.996
1057 0 61.685 16.9247 1044 109.61 1186.43 464.213
1058 0 58.3891 12.2112 713 119.818 1187.67 457.492
1059 0 63.5758 12.5677 799 118.244 1187.54 457.657
1060 0 63.5615 12.1929 775 118.868 1188.42 460.679
1061 0 68.4413 14.7718 1011 113.421 1188.53 459.811
1062 0 68.421 12.8615 880 118.036 1187.86 457.044
1063 0 72.5803 14.8939 1081 114.273 1188.56 454.129
1064 0 73.5234 14.5532 1070 114.986 1189.13 450.966
1065 0 77.4343 11.4678 888 120.609 1189.94 449.742
1066 0 78.526 12.5054 982 117.98 1190.44 448.514
1067 0 81.6646 13.7514 1123 116.005 1192.71 447.41
1068 0 84.3937 17.9397 1514 109.201 1192.93 447.104
1069 0 85.4487 16.15 1380 112.558 1192.6 445.475
1070 0 90.4295 14.8292 1341 114.752 1193.24 444.579
1071 0 90.3423 11.4343 1033 121.405 1192.94 446.099
1072 0 94.363 14.2747 1347 116.525 1193.61 441.369
1073 1 53.0735 13.1327 697 111.45 1196.35 468.776
1074 0 55.3683 11.288 625 116.264 1193.33 461.346
1075 0 55.7358 11.0163 614 116.772 1195.67 464.839
1076 0 56.7324 11.0695 628 145.513 1196.67 465.132
1077 0 60.082 13.2985 799 114.367 1192.01 468.7
1078 0 60.0917 13.4794 810 115.969 1193.38 464.022
1079 0 64.164 14.5097 931 113.373 1192.42 465.125
1080 0 66.0677 14.6214 966 112.788 1193.18 464.448
1081 0 64.0856 12.5613 805 117.166 1191.88 465.925
1082 0 69.1014 12.8362 887 115.321 1193.68 465.619
1083 0 73.1646 13.2715 971 115.679 1191.82 461.749
1084 0 73.3358 12.8178 940 116.35 1192.36 461.901
1085 0 77.3348 12.4136 960 112.721 1190.84 467.419
1086 0 80.2869 16.4286 1319 108.334 1190.85 463.356
1087 0 79.3027 12.4586 988 116.659 1189.71 459.535
1088 0 83.418 12.5752 1049 116.281 1190.04 458.02
1089 0 83.3202 15.4584 1288 112.137 1188.76 457.164
1090 0 90.2324 17.5547 1584 107.87 1188.55 457.485
1091 0 89.3049 14.8256 1324 112.141 1187.37 457.939
1092 0 91.2377 11.6838 1066 116.962 1186.74 454.903
1093 0 94.204 15.5195 1462 111.628 1187.08 453.119
1094 0 95.4494 11.7549 1122 117.415 1187.31 447.586
1095 0 100.415 14.9779 1504 110.995 1186.91 445.216
1096 0 100.415 14.9281 1499 134.177 1186.91 445.088
1097 1 54.1754 11.8135 640 112.902 1186.69 470.709
1098 0 55.2117 12.2438 676 112.336 1185.03 470.161
1099 0 55.0527 9.75429 537 105.454 1186.18 464.618
1100 0 58.1184 11.4422 665 102.614 1186.68 463.767
1101 0 62.4634 9.73369 608 103.742 1188.23 462.651
1102 0 63.0986 14.2792 901 97.9789 1187.97 460.484
1103 0 65.3678 12.269 802 101.581 1188.37 456.36
1104 0 64.3819 7.30019 470 109.451 1187.36 455.96
1105 0 73.3198 19.0808 1399 92.4182 1188.07 457.971
1106 0 72.2808 10.7359 776 105.128 1189 453.673
1107 0 76.2132 12.7406 971 102.411 1190.03 455.7
1108 0 77.2539 14.8989 1151 100.775 1189.39 450.302
1109 0 83.3706 12.0306 1003 105.931 1191.28 445.066
1110 0 83.3413 7.82326 652 131.422 1192.75 452.347
1111 0 86.4122 9.96387 861 107.204 1191.73 452.836
1112 1 48.1109 13.4897 649 101.368 1189.87 465.214
1113 0 50.1271 17.8347 894 98.7819 1190.55 470.86
1114 0 51.18 13.5795 695 104.282 1190.59 468.157
1115 0 53.2218 12.4761 664 105.631 1191.64 467.154
1116 0 54.103 16.8567 912 100.523 1191.63 465.778
1117 0 56.2838 7.8353 441 113.791 1194.47 467.855
1118 0 57.1101 11.4341 653 108.802 1196.92 465.461
1119 0 60.1302 12.0239 723 105.391 1197.62 470.337
1120 0 61.1846 14.7096 900 105.453 1197.19 463.789
1121 0 61.0422 10.4026 635 112.175 1196.56 467.277
1122 0 63.3092 10.8357 686 109.404 1196.81 471.067
1123 1 121.051 11.5901 1403 114.701 1195.22 441.287
1124 0 124.599 12.8011 1595 113.975 1194.49 438.414
1125 1 70.1563 13.3131 934 108.815 1195.34 464.792
1126 0 72.1899 9.55812 690 113.783 1195.38 471.3
1127 0 75.1268 14.1228 1061 109.519 1193.84 465.952
1128 0 79.2196 9.01292 714 115.675 1195.41 470.938
1129 0 80.2599 13.8799 1114 110.863 1192.52 465.73
1130 0 76.2475 12.6693 966 116.088 1191.93 465.374
1131 0 86.32 11.8744 1025 114.701 1190.73 463.597
1132 0 86.3952 10.3247 892 118.622 1191.39 463.362
1133 0 91.1529 12.7588 1163 115.214 1189.88 463.337
1134 0 95.2971 13.1903 1257 115.012 1190.26 460.639
1135 0 88.1907 8.83313 779 124.914 1188.67 457.816
1136 1 53.1019 16.5908 881 107.413 1190.44 477.981
1137 0 54.1173 11.937 646 118.184 1189.78 475.735
1138 0 54.0646 13.3174 720 117.957 1188.73 473.501
1139 0 55.0364 11.5923 638 120.091 1188.41 471.784
1140 0 58.1094 14.6276 850 114.304 1189.07 472.459
1141 0 59.085 13.9122 822 116.433 1187.79 471.018
1142 0 60.1376 15.4313 928 115.692 1188.44 469.186
1143 0 63.0371 16.7679 1057 112.414 1187.94 469.151
1144 0 65.0967 14.6398 953 117.105 1187.96 465.831
1145 0 67.116 15.585 1046 115.253 1188.9 463.798
1146 0 68.11 13.581 925 119.941 1189.58 461.281
1147 0 66.1079 14.3402 948 121.135 1189.42 459.916
1148 0 71.0318 13.318 946 121.611 1190.63 459.259
1149 0 69.1164 11.43 790 125.114 1190.59 460.576
1150 0 73.1705 12.0677 883 124.469 1191.01 455.536
1151 0 75.1744 11.7327 882 125.268 1191.14 453.793
1152 0 75.1851 11.771 885 150.621 1191.17 453.814
1153 0 81.3483 12.1822 991 121.592 1193.35 457.418
1154 0 83.311 14.4759 1206 120.698 1192.46 448.981
1155 0 88.2369 14.6877 1296 116.987 1192.78 455.567
1156 0 91.3913 12.0033 1097 124.782 1193.59 445.984
1157 1 50.1744 13.1741 661 120.983 1192.71 468.874
1158 0 51.1864 13.1676 674 121.972 1194.35 466.697
1159 0 51.7875 13.0533 676 121.41 1192.09 463.749
1160 0 54.3729 16.6259 904 108.805 1192.9 465.384
1161 0 55.2985 12.6586 700 117.304 1190.53 468.103
1162 0 56.1086 14.8284 832 113.457 1192.64 467.28
1163 0 59.2006 14.2059 841 113.889 1190.86 470.885
1164 0 57.0932 12.7686 729 118.863 1192.27 468.737
1165 0 61.1064 14.1556 865 115.342 1191.89 469.741
1166 0 60.0686 13.5512 814 117.318 1191.58 470.7
1167 0 63.1418 16.17 1021 112.718 1192.14 467.406
1168 0 66.1549 11.7452 777 118.973 1191.81 471.772
1169 0 69.2049 14.5076 1004 113.883 1192 467.514
1170 0 70.2892 12.3205 866 118.883 1191.99 467.043
1171 0 72.2669 12.7583 922 116.439 1190.94 470.53
1172 0 75.1762 12.2512 921 118.511 1191.6 467.391
1173 0 75.2987 10.5181 792 120.985 1190.39 469.091
1174 0 81.1931 12.9814 1054 115.537 1189.99 467.509
1175 0 84.2446 15.0395 1267 111.3 1190.01 465.137
1176 0 88.1855 16.2045 1429 108.647 1188.33 464.181
1177 0 85.3653 10.1681 868 118.659 1187.63 459.598
1178 0 92.3404 13.9917 1292 112.115 1186.94 458.774
1179 1 56.1501 11.3802 639 114.865 1186.04 476.712
1180 0 54.1425 12.9658 702 113.433 1185.41 475.228
1181 0 53.0834 10.2292 543 116.153 1185.26 476.704
1182 0 55.1028 12.7761 704 113.041 1184.26 476.311
1183 0 55.1235 12.7713 704 137.574 1183.27 476.517
1184 0 59.1602 13.8945 822 115.181 1183.51 470.117
1185 0 59.1975 15.7946 935 112.855 1183.55 465.472
1186 0 59.1975 15.7946 935 130.564 1183.58 465.432
1187 0 61.5107 12.7295 783 118.286 1184.32 461.115
1188 0 63.4627 12.2749 779 119.524 1185.15 458.255
1189 0 63.5272 11.6485 740 121.314 1185.73 454.323
1190 0 69.3376 16.9028 1172 109.686 1185.64 458.484
1191 0 70.408 11.9873 844 119.911 1185.92 451.48
1192 0 72.3639 15.2839 1106 114.781 1186.85 452.581
1193 0 75.4264 13.0061 981 118.992 1187.87 448.436
1194 0 78.4917 14.9697 1175 115.511 1187.84 447.784
1195 0 82.3956 14.9523 1232 114.619 1189.06 447.6
1196 0 84.5014 18.8636 1594 108.578 1188.9 448.851
1197 0 85.3936 12.4248 1061 120.025 1189.81 443.782
1198 0 88.7165 14.7549 1309 117.616 1190.2 441.454
1199 0 91.7994 17.9849 1651 112.828 1191.46 441.013
1200 0 93.5837 14.3935 1347 119.505 1191.99 438.56
1201 0 96.8317 15.5941 1510 117.85 1192.46 433.259
1202 0 97.58 13.4556 1313 119.42 1193.14 434.164
1203 0 100.658 13.2131 1330 120.223 1192.85 436.331
1204 0 104.658 12.8992 1350 119.314 1193.36 440.798
1205 0 106.628 11.798 1258 122.99 1193.71 433.532
1206 0 111.421 14.5125 1617 118.027 1193.73 433.223
1207 0 115.608 13.3901 1548 118.702 1194.08 436.442
1208 0 118.699 14.423 1712 118.553 1193.39 426.019
1209 0 122.592 12.8638 1577 119.968 1193.46 430.969
1210 0 129.734 15.709 2038 115.163 1192.35 430.635
1211 0 139.96 13.2753 1858 118.785 1192.3 428.434
1212 0 138.593 13.0454 1808 120.205 1191.69 422.293
1213 0 140.585 14.7099 2068 116.035 1190.82 425.709
1214 0 148.7 14.8621 2210 116.083 1189.45 416.616
1215 1 83.3044 8.10281 675 117.723 1190.42 455.754
1216 0 86.3692 12.9097 1115 112.587 1190.33 447.958
1217 0 91.5133 12.4244 1137 110.403 1189.97 449.041
1218 0 91.5763 10.09 924 113.453 1189.45 451.607
1219 0 92.3944 11.5916 1071 111.852 1189.28 452.707
1220 0 98.359 12.3527 1215 111.411 1189.02 444.432
1221 0 99.4554 12.6791 1261 111.481 1188.24 443.966
1222 0 104.584 15.2413 1594 107.037 1187.77 444.607
1223 0 103.584 13.0909 1356 127.706 1186.51 441.097
1224 0 108.51 17.4731 1896 105.249 1187.34 439.813
1225 0 111.412 13.1314 1463 112.679 1187.18 435.609
1226 0 114.694 11.7007 1342 115.404 1186.88 437.258
1227 0 121.537 14.2919 1737 111.88 1186.77 433.05
1228 0 123.484 13.8642 1712 115.869 1185.11 427.805
1229 1 64.2787 11.7924 758 116.71 1184.94 454.546
1230 0 67.3007 11.3223 762 116.14 1185.27 453.879
1231 0 71.0886 11.1692 794 115.748 1184.87 454.966
1232 0 76.1204 12.4671 949 116.105 1185.04 456.985
1233 0 79.1607 17.4203 1379 108.886 1184.99 450.948
1234 0 78.1066 12.867 1005 117.275 1184.93 450.81
1235 0 82.0888 15.4345 1267 112.639 1185.55 448.381
1236 0 89.4781 19.1332 1712 106.449 1187.58 444.785
1237 0 92.2944 16.144 1490 110.125 1187.33 446.281
1238 0 95.3348 16.3319 1557 109.631 1188.8 446.682
1239 0 95.2428 15.1403 1442 113.592 1188.51 439.111
1240 0 98.3286 13.5261 1330 116.731 1189.16 435.902
1241 0 102.295 15.0839 1543 113.671 1189.98 436.528
1242 0 106.379 16.4036 1745 111.959 1191.27 434.25
1243 0 106.636 13.1006 1397 118.461 1192.62 433.72
1244 1 58.2593 13.0451 760 112.036 1191.6 459.038
1245 0 59.138 11.6338 688 109.589 1191.61 461.519
1246 0 60.2148 13.1197 790 114.932 1192.37 455.677
1247 0 65.1951 15.2159 992 111.809 1192.87 461.054
1248 0 68.098 15.4043 1049 110.74 1193.31 460.874
1249 0 68.2384 13.6287 930 113.108 1192.69 461.833
1250 0 71.1752 14.2184 1012 112.679 1192.67 461.394
1251 0 76.1137 15.1615 1154 110.664 1192.88 460.367
1252 0 78.1672 17.3986 1360 105.325 1191.67 462.062
1253 0 80.1087 16.4651 1319 107.963 1192.38 459.428
1254 0 80.1061 11.9716 959 152.162 1192.28 458.338
1255 0 86.2512 13.8781 1197 112.245 1191.48 461.274
1256 0 86.1332 11.6331 1002 117.447 1190.6 456.525
1257 0 90.1815 14.7148 1327 111.425 1189.24 460.151
1258 0 92.0675 12.9036 1188 112.687 1189.89 453.597
1259 0 97.1864 12.1107 1177 111.982 1189.26 450.081
1260 0 99.2617 13.0665 1297 112.15 1188.41 446.755
1261 0 103.325 12.2139 1262 113.27 1187.22 444.241
1262 1 56.0984 13.8685 778 103.066 1185.96 472.251
1263 0 57.3777 14.3784 825 104.121 1185.95 471.05
1264 0 59.4982 11.513 685 108.686 1186.43 468.81
1265 0 60.2084 11.8588 714 107.63 1186.41 471.431
1266 0 63.3747 13.507 856 104.48 1185.5 470.458
1267 0 63.2952 11.865 751 107.939 1184.74 466.7
1268 0 68.3133 14.4774 989 102.661 1185.88 466.386
1269 0 68.1693 12.3809 844 105.948 1184.39 465.874
1270 0 66.1947 6.20896 411 115.297 1184.09 459.392
1271 0 74.2801 11.7528 873 106.113 1184.02 458.902
1272 0 73.325 10.5557 774 109.037 1185.55 457.159
1273 0 77.3817 11.4368 885 106.994 1185.57 454.167
1274 0 78.3239 11.9887 939 107.937 1186.74 450.327
1275 0 84.5441 15.0454 1272 102.41 1185.89 452.755
1276 0 84.5441 15.0454 1272 118.011 1185.89 452.767
1277 0 91.6999 12.7481 1169 104.797 1186.72 449.71
1278 0 89.4758 11.925 1067 108.374 1188.49 441.157
1279 0 96.5362 9.92373 958 110.329 1189.05 438.751
1280 0 96.468 9.93076 958 112.08 1189.8 438.015
1281 0 96.468 10.0448 969 138.441 1190.82 438.019
1282 0 102.659 16.3065 1674 103.485 1191.18 437.508
1283 0 105.331 15.7978 1664 106.674 1192.41 436.221
1284 0 105.331 15.8453 1669 123.162 1192.36 436.459
1285 0 112.696 11.5709 1304 110.278 1193.92 432.799
1286 0 115.845 11.7398 1360 112.419 1193.84 430.353
1287 0 119.767 15.238 1825 107.27 1194.08 431.199
1288 1 65.5375 11.0013 721 107.809 1196.37 456.295
1289 0 65.5375 10.9708 719 120.406 1197.37 456.166
1290 0 71.2926 11.7684 839 105.409 1195.16 459.824
1291 0 72.3917 10.8576 786 105.485 1194.24 455.003
1292 0 75.4453 12.3268 930 103.253 1194.12 453.683
1293 0 76.3104 11.4401 873 106.465 1193.81 455.206
1294 0 77.5635 11.294 876 107.455 1193.97 450.194
1295 0 83.4454 13.0744 1091 104.911 1193.06 450.094
1296 0 86.4718 10.6046 917 108.313 1193.62 451.427
1297 0 88.3914 11.517 1018 107.688 1193.27 451.968
1298 0 88.5214 10.6415 942 110.62 1194.32 452.631
1299 0 95.326 11.0673 1055 108.065 1194.24 460.084
1300 0 93.3972 11.6599 1089 110.635 1192.36 454.48
1301 0 99.4032 10.563 1050 111.395 1193.86 459.083
1302 0 100.501 12.4874 1255 111.7 1191.91 451.584
1303 0 109.431 15.0049 1642 105.967 1190.71 453.977
1304 0 109.431 14.9958 1641 131.847 1188.72 453.757
1305 0 112.734 13.5008 1522 111.365 1188.78 448.691
1306 1 59.6538 13.2598 791 108.695 1187.92 468.889
1307 0 61.5612 12.4916 769 111.527 1187.34 468.088
1308 0 67.2398 11.8531 797 109.125 1182.7 466.704
1309 0 68.1068 14.4039 981 105.851 1184.23 460.545
1310 0 69.2479 16.7225 1158 101.794 1184.01 466.366
1311 0 71.2929 11.8806 847 110.214 1184.61 461.106
1312 0 72.2062 13.4476 971 109.231 1184.24 464.568
1313 0 78.2155 16.4162 1284 102.899 1183.73 458.133
1314 0 77.1949 13.1356 1014 109.505 1184.18 456.192
1315 0 82.2135 14.9854 1232 106.14 1182.82 452.454
1316 0 84.206 14.1439 1191 107.474 1185.1 451.507
1317 0 88.6331 18.3114 1623 100.153 1184.68 455.153
1318 0 88.2818 13.355 1179 107.087 1185.89 443.774
1319 0 92.2456 15.7298 1451 103.139 1186.77 444.657
1320 1 51.0597 12.6518 646 104.994 1185.71 466.348
1321 0 53.2171 13.1161 698 103.841 1186.39 463.034
1322 0 52.0553 12.8325 668 107.234 1187.22 460.15
1323 0 52.0553 12.8325 668 119.04 1188.22 460.15
1324 0 57.0976 11.4541 654 106.132 1188.67 460.879
1325 0 57.0976 11.419 652 124.531 1188.68 460.782
1326 0 62.0604 14.921 926 100.984 1188.68 459.046
1327 0 62.1648 16.5849 1031 100.598 1190.52 459.04
1328 0 62.1648 16.6332 1034 110.064 1191.52 459.055
1329 0 65.2423 12.5992 822 107.22 1191.5 458.909
1330 0 69.1624 16.3384 1130 101.04 1191.86 460.018
1331 0 70.3813 11.6792 822 107.157 1190.79 461.308
1332 0 70.1665 11.4585 804 109.454 1192.34 456.927
1333 0 74.2251 13.7959 1024 105.786 1191.72 457.542
1334 0 76.1738 14.8345 1130 105.379 1193.62 456.875
1335 0 79.1549 12.0018 950 109.093 1192.45 454.143
1336 0 82.3623 13.0399 1074 107.885 1192.28 453.741
1337 1 44.1146 11.9688 528 105.419 1190.77 480.663
1338 0 45.2395 12.3122 557 105.201 1189.5 477.298
1339 0 47.2361 10.6275 502 107.857 1190.46 478.446
1340 0 46.2308 8.4143 389 113.175 1189.95 478.488
1341 0 46.2308 8.4143 389 144.666 1189.95 478.488
1342 0 50.2572 12.7743 642 106.921 1190.51 474.78
1343 0 55.3232 15.5631 861 101.808 1189.51 474.344
1344 0 56.4038 14.3075 807 103.741 1189.02 475.803
1345 0 58.256 15.0886 879 103.073 1186.97 478.45
1346 0 57.3503 12.3801 710 108.701 1188.01 475.906
1347 0 57.4102 12.7678 733 108.487 1186.92 470.318
1348 0 60.326 13.195 796 107.794 1186.72 468.116
1349 0 60.3099 13.298 802 123.461 1186.77 467.978
1350 0 63.334 14.0999 893 107.263 1186.68 468.326
1351 0 66.417 14.0627 934 108.155 1186.81 463.764
1352 0 68.4447 12.8133 877 110.003 1185.61 460.954
1353 0 71.2597 16.924 1206 104.143 1184.9 461.903
1354 0 70.1613 12.0294 844 113.06 1184.86 459.538
1355 0 74.4308 14.6042 1087 108.58 1186.24 456.788
1356 0 76.5384 13.9146 1065 110.043 1185.71 454.203
1357 0 79.6673 14.6484 1167 108.74 1186.17 451.201
1358 0 79.4879 11.7125 931 114.857 1185.56 451.452
1359 0 85.0794 13.1524 1119 112.065 1186.1 448.498
1360 0 87.7597 14.4941 1272 110.701 1187.01 447.113
1361 1 50.4373 9.14006 461 114.989 1188.13 465.208
1362 0 51.9374 10.6859 555 114.124 1187.63 463.641
1363 0 49.3768 12.3135 608 108.74 1188.22 458.633
1364 0 54.0759 11.9462 646 103.618 1189.69 458.65
1365 0 53.0802 10.0037 531 107.608 1190.78 455.228
1366 0 53.0923 11.5271 612 105.922 1192.87 457.954
1367 0 60.049 14.4715 869 100.178 1191.77 458.751
1368 0 55.076 9.35072 515 109.94 1192.89 452.596
1369 0 55.076 9.35072 515 128.88 1193.89 452.596
1370 0 66.1947 14.1401 936 101.8 1194.59 454.602
1371 0 66.2052 14.9384 989 101.818 1193.45 454.833
1372 0 69.3115 16.1589 1120 100.187 1194.77 452.277
1373 0 71.2964 16.1579 1152 99.3411 1194.45 456.806
1374 0 72.2425 13.3301 963 104.031 1195.84 454.666
1375 0 73.3377 10.4039 763 107.792 1195.28 453.007
1376 0 81.5403 20.9467 1708 93.8765 1195.43 451.369
1377 0 81.5403 20.9467 1708 102.036 1196.43 451.369
1378 0 83.43 15.0066 1252 102.184 1195.08 454.347
1379 0 83.3339 13.1039 1092 105.79 1193.73 454.282
1380 0 90.1965 16.963 1530 100.018 1194.97 453.592
1381 1 45.0537 6.7475 304 109.618 1195.36 477.51
1382 0 47.1222 13.5817 640 101.062 1195.1 473.308
1383 0 48.1913 12.0561 581 103.754 1193.51 472.461
1384 0 48.2471 9.30627 449 108.138 1193.26 474.367
1385 0 52.3866 8.76178 459 109.93 1191.81 471.246
1386 0 50.2616 11.082 557 107.368 1191.38 473.388
1387 0 53.1321 14.2663 758 102.383 1190.59 472.679
1388 0 54.1813 10.2803 557 114.637 1188.27 478.661
1389 0 57.1681 13.2242 756 110.638 1187.08 474.099
1390 0 62.0828 16.4941 1024 104.598 1186.88 473.635
1391 0 60.1157 13.84 832 110.322 1185.67 474.123
1392 0 63.2228 12.9226 817 111.995 1186.73 471.181
1393 0 64.206 11.027 708 114.486 1186.72 469.863
1394 0 66.1534 13.8164 914 109.791 1185.9 467.508
1395 0 71.1629 14.5019 1032 108.444 1185.79 464.965
1396 0 70.1918 12.7365 894 109.506 1186.15 470.262
1397 0 75.17 13.1701 990 110.123 1183.53 461.963
1398 0 75.17 13.1834 991 133.591 1181.54 461.932
1399 0 78.1302 9.89374 773 114.956 1183.75 455.894
1400 1 44.0666 12.8669 567 110.072 1182.46 470.624
1401 0 44.1815 9.66468 427 112.389 1182.17 473.363
1402 0 48.1979 13.4653 649 106.168 1182.16 467.906
1403 0 47.5717 13.7266 653 107.003 1184.23 466.64
1404 0 49.1908 12.299 605 110.461 1182.81 467.109
1405 0 50.1751 12.3567 620 110.655 1184.16 466.765
1406 0 52.0986 13.1098 683 110.775 1185.63 463.58
1407 0 52.1588 11.9251 622 112.643 1185.85 463.104
1408 0 56.1048 15.2037 853 106.022 1186.44 463.706
1409 0 56.0524 14.9503 838 106.955 1186.75 463.24
1410 0 56.1069 12.6544 710 111.928 1186.4 461.631
1411 0 60.1097 17.5845 1057 103.901 1188.7 462.165
1412 0 58.1656 11.1062 646 115.303 1190.21 460.294
1413 0 63.1569 14.6461 925 108.935 1189.45 458.712
1414 0 66.1499 16.2207 1073 107.966 1190.85 457.045
1415 0 67.1124 12.6057 846 114.215 1190.92 457.826
1416 0 69.1066 15.2229 1052 109.417 1190.46 459.444
1417 0 71.1357 14.1982 1010 111.302 1191.53 459.479
1418 0 74.1034 12.9684 961 113.716 1192.04 456.042
1419 0 78.1928 12.6226 987 113.051 1191.34 458.745
1420 0 78.1504 11.9001 930 112.62 1192.44 463.116
1421 0 81.3666 14.0721 1145 110.238 1192.33 461.314
1422 1 42.271 9.86491 417 117.885 1191.26 477.568
1423 0 47.0155 14.2506 670 109.279 1191.3 478.397
1424 0 46.0611 13.4821 621 110.702 1190.46 475.325
1425 0 48.0332 11.8252 568 112.139 1189.77 472.236
1426 0 50.0733 12.7613 639 106.808 1191.26 469.692
1427 0 51.1222 11.717 599 109.753 1188.67 468.499
1428 0 53.1044 12.7485 677 106.279 1190.48 474.962
1429 0 53.1089 11.467 609 109.279 1187.94 472.351
1430 0 55.1161 13.1541 725 105.777 1187.93 474.568
1431 0 58.2801 10.6211 619 109.679 1186.39 472.225
1432 0 58.2801 10.4495 609 124.112 1184.43 472.089
1433 0 61.1542 14.7006 899 103.884 1185.88 469.245
1434 0 62.1244 12.0564 749 107.948 1186.08 469.123
1435 0 62.0847 12.3702 768 108.659 1185.29 463.307
1436 0 68.1074 11.7462 800 108.878 1185.64 462.269
1437 0 70.0562 14.6026 1023 103.52 1184.82 460.331
1438 0 70.0562 14.731 1032 109.99 1183.82 460.282
1439 0 72.1581 9.03571 652 111.727 1183.98 458.092
1440 0 73.3745 13.8877 1019 107.745 1185.69 456.449
1441 0 76.4656 11.5738 885 110.861 1185.72 453.327
1442 0 79.5437 13.5523 1078 107.789 1186.69 454.618
1443 1 44.143 11.9158 526 105.314 1184.1 469.335
1444 0 45.0611 10.5634 476 112.878 1185.29 473.523
1445 0 47.0693 15.2541 718 107.007 1184.18 470.904
1446 0 49.2603 13.4185 661 110.115 1185.42 468.729
1447 0 49.0478 14.6796 720 104.889 1185.37 469.751
1448 0 50.1868 16.0799 807 106.067 1187.46 465.773
1449 0 52.2197 15.971 834 106.603 1187.3 464.766
1450 0 50.2546 9.77024 491 117.593 1187.85 467.134
1451 0 54.2194 14.7917 802 110.251 1189.73 462.693
1452 0 53.1283 13.6274 724 112.405 1189.81 462.238
1453 0 51.0376 8.85622 452 121.549 1188.08 464.394
1454 0 59.1517 11.479 679 117.351 1188.1 460.23
1455 0 61.0933 12.1617 743 116.734 1188.9 459.639
1456 0 64.0506 13.1146 840 114.164 1189.59 460.507
1457 0 67.143 12.5702 844 115.058 1190.02 457.492
1458 0 69.1326 15.6221 1080 109.955 1191.01 459.315
1459 0 71.1363 17.1923 1223 106.365 1191.54 464.443
1460 0 74.1747 14.2771 1059 111.779 1191.81 458.992
1461 0 77.1786 17.0125 1313 108.104 1192.87 457.458
1462 0 77.2291 13.5053 1043 113.663 1193.23 459.655
1463 0 80.1526 14.9964 1202 111.916 1192.63 453.697
1464 0 86.1591 16.5276 1424 107.291 1192.96 455.718
1465 0 86.479 15.8536 1371 109.244 1192.57 455.992
1466 1 50.2511 14.1688 712 112.725 1192.28 465.456
1467 0 56.641 11.8995 674 114.807 1192.33 463.315
1468 0 49.2348 12.6333 622 118.37 1191.36 462.468
1469 0 54.3773 13.6638 743 114.708 1192.34 462.604
1470 0 60.5924 13.9952 848 111.236 1192.8 468.432
1471 0 63.4873 13.6878 869 112.135 1191.76 467.875
1472 0 64.4094 13.3676 861 113.784 1189.67 468.57
1473 0 68.262 15.8653 1083 108.428 1189.13 470.657
1474 0 65.3161 15.8001 1032 109.664 1188.6 469.044
1475 0 69.3231 13.9347 966 112.924 1188.68 466.564
1476 0 66.1995 15.8007 1046 111.118 1188.85 470.923
1477 0 65.4372 16.6725 1091 111.799 1187.53 467.419
1478 0 68.4465 16.217 1110 112.361 1187.02 464.219
1479 0 70.4689 14.6306 1031 115.505 1186.93 462.517
1480 0 72.4809 15.7559 1142 114.067 1185.75 464.714
1481 0 83.6706 14.3898 1204 114.495 1185.93 459.834
1482 0 83.5402 18.1589 1517 109.032 1185.82 458.834
1483 0 88.0034 17.6357 1552 109.631 1185.44 454.144
1484 0 93.433 14.6736 1371 114.978 1185.37 451.263
1485 0 95.7306 14.7497 1412 113.697 1186.22 453.984
1486 1 53.0891 12.3001 653 115.337 1187.93 469.893
1487 0 54.3848 15.1145 822 113.388 1187.91 463.427
1488 0 53.3912 13.6727 730 109.077 1187.61 469.47
1489 0 54.2183 12.3575 670 110.254 1188.07 467.339
1490 0 57.3503 15.7105 901 107.471 1188.21 465.827
1491 0 58.2759 14.8947 868 108.432 1188.36 465.368
1492 0 60.2767 14.2675 860 110.244 1188.11 460.346
1493 0 59.518 11.8788 707 116.041 1189.63 459.273
1494 0 62.4311 16.2099 1012 107.533 1188.96 464.85
1495 0 64.6647 13.222 855 112.754 1191 463.851
1496 0 66.3295 15.1366 1004 111.478 1191.89 459.977
1497 0 68.483 21.0855 1444 103.253 1191.43 456.717
1498 0 70.3616 16.0599 1130 110.996 1191.58 458.537
1499 0 71.3338 15.3784 1097 112.808 1190.8 455.767
1500 0 75.4945 13.6301 1029 114.394 1193.56 456.342
1501 0 75.4945 13.6699 1032 147.672 1195.57 456.391
1502 0 79.6246 15.3596 1223 112.351 1193.35 457.252
1503 0 80.3559 14.9087 1198 114.437 1194.04 458.473
1504 0 80.3559 14.8091 1190 143.175 1194.03 458.311
1505 0 85.7773 13.9781 1199 116.754 1194 454.167
1506 0 90.6629 17.6368 1599 109.959 1194.23 457.999
1507 0 90.4226 17.7942 1609 111.567 1194.42 452.699
1508 0 94.5478 16.6054 1570 112.496 1193.2 457.138
1509 0 96.4092 19.1787 1849 109.041 1194.06 455.148
1510 1 57.3877 12.4591 715 114.67 1192.3 472.483
1511 0 55.4085 11.695 648 122.637 1192.3 467.094
1512 0 62.4175 13.618 850 117.592 1192.22 468.78
1513 0 58.1031 15.7651 916 115.992 1192.62 474.194
1514 0 61.3846 12.2669 753 120.93 1192.79 474.169
1515 0 61.3422 12.7319 781 121.408 1191.98 476.711
1516 0 65.3123 15.0202 981 118.899 1191.13 470.743
1517 0 67.2571 17.1134 1151 115.79 1189.92 469.462
1518 0 70.2189 17.4597 1226 114.787 1189.2 466.197
1519 0 73.3716 17.7998 1306 112.414 1189.06 469.132
1520 0 74.4019 13.79 1026 119.969 1189.03 463.586
1521 0 77.8162 14.7013 1144 119.08 1188.75 461.66
1522 0 80.4014 16.4922 1326 115.925 1188.4 462.279
1523 0 83.5311 17.0595 1425 113.291 1187.55 463.909
1524 0 83.4127 14.6261 1220 119.469 1187.15 459.257
1525 0 86.424 14.5561 1258 120.795 1187.42 451.789
1526 0 93.576 14.4054 1348 118.918 1186.78 453.986
1527 0 97.4225 15.715 1531 116.522 1187.58 453.377
1528 0 98.5699 17.409 1716 114.941 1187.52 449.64
1529 0 99.481 13.7112 1364 121.823 1187.55 445.996
1530 0 106.472 16.0511 1709 116.144 1187.52 442.981
1531 1 58.3862 11.5952 677 118.49 1188.51 465.536
1532 0 58.1866 9.882 575 120.08 1187.73 460.557
1533 0 60.3033 18.1914 1097 105.977 1187.68 465.346
1534 0 61.4702 13.3723 822 111.766 1187.45 462.495
1535 0 60.0942 11.8481 712 115.33 1186.85 460.076
1536 0 65.2011 13.2206 862 112.146 1186.98 458.81
1537 0 68.3271 16.743 1144 107.841 1188.84 452.685
1538 0 70.4061 14.5726 1026 110.193 1188.78 455.962
1539 0 73.3082 15.278 1120 107.754 1188.71 458.195
1540 0 74.0494 12.9508 959 113.129 1190.01 452.802
1541 0 76.6248 13.2333 1014 114.35 1191.73 450.472
1542 0 82.4193 19.0004 1566 105.831 1191.53 449.837
1543 0 82.1818 14.4314 1186 112.939 1191.65 446.523
1544 0 85.2743 18.2118 1553 106.988 1193.6 442.479
1545 0 91.4791 19.4033 1775 105.017 1193.98 445.321
1546 0 91.4791 19.4252 1777 122.244 1194.98 445.303
1547 0 92.3495 15.7121 1451 115.761 1194.13 450.227
1548 0 96.3332 16.0277 1544 114.335 1194.08 448.016
1549 0 97.2087 13.9391 1355 118.142 1193.83 450.326
1550 0 102.421 15.3581 1573 116.194 1193.81 442.921
1551 0 102.421 15.3581 1573 131.144 1194.81 442.921
1552 0 111.34 14.8824 1657 115.247 1193.51 451.498
1553 1 58.4884 13.9515 816 117.208 1192.21 470.324
1554 0 60.3263 15.4493 932 116.251 1192.55 476.796
1555 0 62.3264 18.3871 1146 111.182 1192.24 473.77
1556 0 61.4141 15.0454 924 117.672 1192.14 470.75
1557 0 66.4033 13.4632 894 118.326 1191.18 469.244
1558 0 71.4611 16.1626 1155 112.428 1189.72 467.217
1559 0 71.5241 16.8754 1207 113.184 1188.94 465.859
1560 0 73.8527 15.4767 1143 114.822 1189.34 463.296
1561 0 75.4636 16.3258 1232 114.535 1187.94 462.075
1562 0 83.6955 20.7299 1735 105.867 1188.58 461.588
1563 0 83.5563 20.573 1719 107.614 1187.32 460.119
1564 0 83.873 16.2984 1367 113.941 1188.2 457.882
1565 0 90.6613 18.3651 1665 109.533 1187.67 458.341
1566 0 89.6864 17.7284 1590 112.251 1187.33 454.299
1567 0 90.9051 16.5667 1506 114.379 1187.24 450.718
1568 0 91.8049 15.9469 1464 116.283 1187.66 452.098
1569 0 96.7524 14.687 1421 117.061 1187.37 449.134
1570 0 98.0936 10.9487 1074 122.004 1187.23 450.98
1571 0 104.781 18.2476 1912 111.842 1186.11 443.58
1572 0 105.633 15.1562 1601 117.588 1185.77 440.284
1573 1 60.4196 15.2268 920 114.517 1185.54 462.301
1574 0 61.262 14.8869 912 116.52 1186.74 465.53
1575 0 62.2849 15.9589 994 114.716 1186.56 460.159
1576 0 64.1198 17.9976 1154 108.771 1188.08 455.038
1577 0 68.2704 15.5265 1060 111.084 1188.35 456.338
1578 0 74.2412 13.2002 980 115.945 1189.36 454.998
1579 0 73.34 15.0123 1101 114.251 1189.42 453.56
1580 0 74.2493 14.9227 1108 114.973 1190.29 450.839
1581 0 77.3939 12.0294 931 120.388 1190.48 448.682
1582 0 79.3529 14.0386 1114 117.811 1190.85 446.25
1583 0 81.1829 12.8352 1042 119.424 1191.69 449.81
1584 0 84.4207 14.4514 1220 118.153 1191.94 446.995
1585 0 89.5427 21.0849 1888 106.963 1192.5 449.546
1586 0 90.5293 14.4152 1305 118.113 1192.88 446.975
1587 0 90.1445 13.2343 1193 121.108 1193.1 445.165
1588 0 97.3845 15.0948 1470 116.629 1193.11 445.784
1589 0 102.378 18.9103 1936 112.492 1193.33 438.353
1590 0 105.446 19.2515 2030 111.917 1193.66 438.301
1591 1 53.2127 11.8017 628 119.239 1193.27 468.046
1592 0 53.2127 11.8769 632 151.821 1193.24 468.104
1593 0 58.2317 14.2019 827 119.403 1195.08 462.669
1594 0 58.2317 14.1847 826 148.276 1195.08 462.605
1595 0 65.3358 14.2801 933 115.382 1192.49 462.528
1596 0 68.3332 15.3073 1046 111.935 1193.44 469.269
1597 0 68.1205 14.812 1009 114.035 1192.72 463.185
1598 0 70.2597 16.1259 1133 114.708 1193.36 464.524
1599 0 72.1721 14.5347 1049 117.521 1192.5 466.423
1600 0 75.3997 15.5571 1173 116.725 1191.35 463.564
1601 0 76.2338 15.1901 1158 117.401 1190.99 465.687
1602 0 80.4465 15.4015 1239 117.467 1189.2 460.474
1603 0 86.1946 12.7618 1100 120.176 1189.12 459.932
1604 0 85.1669 13.3385 1136 120.366 1187.82 459.147
1605 0 90.1304 16.7202 1507 113.561 1187.6 455.91
1606 0 92.2944 12.536 1157 119.758 1187.62 455.08
1607 0 96.1977 14.387 1384 115.895 1186.62 456.158
1608 0 99.3437 11.1532 1108 121.228 1187.49 453.669
1609 0 104.297 16.5105 1722 113.755 1187.19 448.26
1610 1 58.251 13.7852 803 115.111 1186.53 471.533
1611 0 57.4444 13.8743 797 117.748 1186.52 467.082
1612 0 60.1011 16.2393 976 114.011 1184.92 464.914
1613 0 63.2208 13.9353 881 112.449 1185.44 459.532
1614 0 67.2008 17.2915 1162 106.996 1184.05 460.843
1615 0 68.161 17.8254 1215 112.309 1185.17 455.805
1616 0 72.2559 19.3894 1401 108.445 1184.4 455.161
1617 0 72.109 16.7524 1208 109.521 1185.33 448.817
1618 0 77.1816 16.96 1309 109.03 1187.17 448.308
1619 0 76.1961 13.3471 1017 116.313 1185.9 444.892
1620 0 81.3586 14.6758 1194 113.444 1186.14 446.425
1621 0 82.1851 13.7008 1126 115.527 1187.83 441.947
1622 0 85.2526 14.7092 1254 114.536 1187.88 440.466
1623 0 88.256 15.2397 1345 114.322 1189.19 438.627
1624 0 92.278 13.6977 1264 118.971 1188.66 436.195
1625 0 94.459 16.6633 1574 114.766 1189.77 438.781
1626 0 92.5104 13.7498 1272 123.311 1190.44 435.024
1627 0 96.4908 13.1204 1266 123.622 1190.92 437.427
1628 0 103.565 12.9871 1345 124.854 1192.22 435.558
1629 0 103.565 12.9871 1345 149.729 1193.22 435.315
1630 1 59.7434 11.4657 685 119.126 1191.97 460.883
1631 0 59.519 13.2899 791 119.413 1192.57 455.841
1632 0 65.0651 15.7688 1026 114.185 1192.52 458.26
1633 0 65.5923 10.4281 684 123.735 1192.45 457.363
1634 0 69.2792 15.6757 1086 116.4 1192.76 456.657
1635 0 69.2792 15.6324 1083 143.948 1193.76 456.578
1636 0 70.5847 10.8947 769 125.358 1191.9 451.896
1637 0 73.5118 11.8348 870 120.208 1192.61 453.415
1638 0 80.0802 17.5824 1408 109.953 1192.41 461.533
1639 0 74.5784 10.9281 815 125.113 1191.16 453.986
1640 0 80.9016 13.7698 1114 118.556 1192.9 456.081
1641 0 82.5136 14.7248 1215 118.079 1191.1 454.007
1642 0 87.6834 12.7276 1116 121.995 1191.46 450.789
1643 0 91.5521 16.0674 1471 116.259 1190.38 449.806
1644 0 94.8031 14.9679 1419 118.292 1188.86 449.259
1645 0 93.8158 12.0236 1128 124.449 1187.61 442.977
1646 0 96.4818 13.8057 1332 121.166 1187.16 443.437
1647 0 96.4818 13.7539 1327 124.869 1186.13 443.491
1648 1 56.5677 12.4276 703 113.849 1188.56 469.25
1649 0 56.4701 8.58862 485 123.256 1186.68 463.262
1650 0 61.2992 11.5336 707 114.975 1187.19 466.578
1651 0 65.178 14.7903 964 112.73 1188.59 465.849
1652 0 62.1571 10.2804 639 116.257 1185.15 459.502
1653 0 66.501 12.6615 842 110.447 1186.56 458.96
1654 0 71.2774 12.6688 903 110.413 1186.27 458.891
1655 0 71.2696 8.8958 634 115.899 1185.71 453.94
1656 0 75.625 12.7339 963 109.997 1185.24 453.542
1657 0 77.4737 16.0958 1247 105.426 1184.74 453.559
1658 0 78.409 11.0829 869 113.568 1184.59 449.858
1659 0 79.2697 12.0727 957 112.426 1184.79 447.892
1660 0 83.3581 12.8362 1070 110.916 1185.69 441.122
1661 0 87.4253 15.7048 1373 107.773 1186.29 443.396
1662 0 87.6305 11.9023 1043 115.894 1185.87 440.683
1663 0 87.504 12.0794 1057 133.886 1185.87 440.656
1664 0 93.619 15.0717 1411 109.972 1188.9 437.838
1665 0 95.24 15.0357 1432 110.278 1188.3 432.135
1666 0 99.5649 12.7455 1269 113.147 1189.15 433.759
1667 0 98.4244 12.629 1243 115.213 1189.88 429.991
1668 1 56.35 7.59538 428 109.54 1191 458.093
1669 0 61.4161 8.53197 524 106.624 1190.94 458.031
1670 0 58.1898 9.64087 561 108.016 1192.19 453.08
1671 0 63.3681 13.1612 834 102.806 1191.29 455.692
1672 0 66.1519 10.6422 704 105.369 1193.43 457.618
1673 0 66.1648 11.4865 760 105.107 1192.91 454.295
1674 0 68.1612 12.4704 850 104.429 1193.68 451.374
1675 0 72.2856 11.6482 842 105.384 1194.22 454.397
1676 0 74.3108 12.2055 907 104.728 1194.28 454.341
1677 0 74.1809 13.157 976 103.942 1194.92 454.641
1678 0 78.1138 10.1006 789 109.337 1196.13 452.383
1679 0 78.0639 10.8245 845 109.232 1194.75 454.567
1680 0 83.3268 11.4249 952 109.023 1193.78 451.953
1681 0 86.4056 12.3487 1067 108.324 1193.5 451.078
1682 1 43.2921 7.04517 305 115.682 1194 475.587
1683 0 50.6187 13.1967 668 107.587 1192.34 471.397
1684 0 48.1043 12.1403 584 110.932 1193.97 471.32
1685 0 50.2088 10.1775 511 112.916 1192.44 474.053
1686 0 50.1792 11.8176 593 112.811 1192.21 473.673
1687 0 56.2498 10.5067 591 113.58 1191.4 473.629
1688 0 56.2498 10.3823 584 127.663 1191.41 473.45
1689 0 55.3836 11.3752 630 111.171 1190.45 474.371
1690 0 53.3393 10.6863 570 115.24 1189.81 466.716
1691 0 59.3618 11.2362 667 113.099 1188.74 468.024
1692 0 58.1687 19.7185 1147 101.97 1188.58 467.122
1693 1 66.1294 7.16777 474 116.859 1188.17 469.184
1694 0 67.294 9.59967 646 114.293 1188.44 465.029
1695 0 66.2012 12.0844 800 111.16 1186.83 463.179
1696 0 67.2238 11.8113 794 113.009 1187.29 457.918
1697 0 69.0849 12.8393 887 111.893 1186.99 455.384
1698 0 71.0562 10.6676 758 115.007 1187.99 451.104
1699 0 71.0988 11.0832 788 114.414 1187.86 451.089
1700 0 75.1662 13.4369 1010 109.553 1188.69 452.048
1701 0 79.3167 13.6667 1084 108.959 1188.45 451.93
1702 0 79.3167 13.7676 1092 123.905 1188.45 451.885
1703 0 81.3876 11.5128 937 114.083 1186.73 447.527
1704 0 83.3465 11.6262 969 114.486 1187.23 439.848
1705 0 88.3372 13.0975 1157 111.703 1188.11 439.653
1706 0 88.3436 9.76868 863 116.261 1189.27 440.991
1707 1 53.1487 15.2967 813 101.3 1189.36 463.365
1708 0 53.3234 9.03918 482 110.189 1190.05 457.577
1709 0 52.1748 11.7106 611 109.915 1189.14 461.779
1710 0 52.1829 9.79248 511 114.671 1189.82 458.016
1711 0 59.2193 15.9576 945 104.094 1190.4 459.06
1712 0 55.2101 8.78463 485 113.441 1191.09 459.647
1713 0 61.3596 11.1963 687 110.381 1192.53 457.163
1714 0 60.1407 9.29487 559 113.648 1192.23 457.462
1715 0 65.3711 13.2168 864 108.22 1192.61 455.02
1716 0 65.2631 13.0242 850 108.487 1192.63 457.499
1717 0 65.324 11.42 746 111.889 1192.97 454.359
1718 0 69.2057 7.65833 530 118.119 1193.07 448.443
1719 0 74.2164 13.5145 1003 108.214 1194.57 456.551
1720 0 71.318 11.1893 798 112.709 1194.08 455.351
1721 0 75.2515 12.4516 937 111.295 1193.81 454.388
1722 0 81.4237 15.8431 1290 105.93 1192.73 454.95
1723 0 80.5547 9.65803 778 115.517 1192.34 454.366
1724 0 83.3996 16.0313 1337 107.336 1192.52 455.408
1725 0 84.2304 13.4631 1134 111.434 1191.84 455.409
1726 0 90.3226 15.3671 1388 108.635 1192.14 452.525
1727 0 92.3895 12.1659 1124 110.207 1193.33 453.699
1728 0 92.3834 11.9935 1108 124.049 1194.32 453.731
1729 1 50.2371 12.7993 643 105.933 1191.36 474.045
1730 0 56.0329 13.1708 738 105.178 1192.25 473.955
1731 0 54.0405 16.1916 875 104.6 1190.83 472.037
1732 0 55.0471 13.1342 723 109.469 1191.36 469.494
1733 0 58.0776 11.1403 647 111.113 1190.44 471.144
1734 0 57.0625 14.3176 817 108.693 1190.27 466.321
1735 0 61.1666 12.4741 763 110.404 1190.12 468.46
1736 0 62.1427 14.515 902 107.512 1188.59 465.594
1737 0 68.3181 15.34 1048 104.849 1188.05 463.031
1738 0 68.1335 15.7338 1072 106.185 1187.93 461.345
1739 0 69.0766 12.421 858 111.845 1187.9 458.843
1740 0 71.2255 15.458 1101 106.803 1187.44 459.962
1741 0 70.167 14.0807 988 111.204 1188.16 454.147
1742 0 76.2249 13.6045 1037 110.839 1187.38 451.185
1743 0 77.1485 15.1785 1171 108.685 1187.63 451.743
1744 0 79.1691 13.6543 1081 109.953 1187.9 454.172
1745 0 83.2531 14.4019 1199 109.687 1187.76 442.347
1746 0 86.1486 13.7901 1188 110.242 1188.86 445.269
1747 0 88.163 13.8947 1225 110.816 1189.84 439.907
1748 0 88.163 13.804 1217 131.822 1191.87 439.809
1749 0 93.518 12.7569 1193 113.227 1189.31 436.231
1750 0 97.509 14.3474 1399 112.096 1189.47 431.357
1751 1 56.1926 8.25731 464 109.748 1189.31 461.099
1752 0 56.4839 13.2073 746 111.027 1189.64 454.464
1753 0 59.27 14.3243 849 107.908 1189.8 454.855
1754 0 58.3778 12.6075 736 110.689 1190.7 455.3
1755 0 64.465 15.2331 982 107.197 1191.44 450.278
1756 0 64.2587 13.4145 862 110 1192.26 451.236
1757 0 68.2447 13.393 914 109.361 1192.48 452.853
1758 0 73.3116 15.3864 1128 105.812 1194.02 453.929
1759 0 74.5123 10.8975 812 112.698 1193.62 451.767
1760 0 76.2683 16.8222 1283 105.809 1194.52 450.566
1761 0 79.5763 12.5037 995 111.016 1194.79 450.802
1762 0 83.4198 14.1573 1181 108.383 1194.98 452.01
1763 1 44.1331 9.87921 436 106.888 1195.73 474.755
1764 0 44.1331 9.96985 440 127.618 1196.7 474.73
1765 0 50.0809 12.5996 631 106.933 1194.34 472.048
1766 0 50.0809 12.4399 623 135.263 1191.34 471.762
1767 0 54.5021 17.1553 935 99.631 1191.98 468.248
1768 0 54.5021 17.247 940 119.324 1193.97 468.278
1769 0 56.2571 11.7319 660 105.742 1191.75 469.421
1770 0 59.3686 15.7154 933 102.72 1193.45 470.852
1771 0 59.3863 15.677 931 103.779 1191.73 468.085
1772 0 59.2385 13.8255 819 105.172 1191.79 473.836
1773 0 59.2385 13.8255 819 131.453 1191.8 474.028
1774 0 67.5565 19.0359 1286 99.3771 1189.83 467.542
1775 0 67.3946 12.7458 859 108.095 1188.9 468.994
1776 0 68.3853 14.7839 1011 106.851 1188.58 459.257
1777 0 70.4502 12.1362 855 110.202 1188.22 462.552
1778 0 70.4444 12.6057 888 136.52 1187.24 461.768
1779 0 78.6205 17.3492 1364 102.749 1186.91 459.79
1780 0 76.5232 15.4724 1184 107.94 1186.57 455.321
1781 0 77.2811 12.254 947 113.569 1187.54 456.891
1782 0 80.4325 10.5306 847 116.098 1186.96 447.439
1783 1 44.3733 10.4567 464 114.144 1187.55 468.478
1784 0 49.2134 14.4676 712 106.83 1185.79 466.133
1785 0 49.2134 14.4879 713 135.302 1185.78 465.982
1786 0 51.0464 12.5768 642 108.556 1185.01 466.042
1787 0 48.1751 9.67305 466 114.899 1186.46 463.695
1788 0 49.2019 14.0645 692 109.519 1185.33 460.897
1789 0 54.1344 11.8039 639 110.903 1185.62 461.482
1790 0 53.2676 14.1362 753 108.135 1187.54 463.457
1791 0 53.3494 13.0086 694 109.039 1187.54 460.584
1792 0 52.3488 11.8245 619 132.691 1186.47 458.934
1793 0 61.575 15.2659 940 105.486 1187.77 453.414
1794 0 61.334 10.6792 655 111.684 1190.11 453.76
1795 0 63.2503 15.0987 955 105.941 1189.78 454.638
1796 0 65.4351 18.1554 1188 102.527 1190.52 455.44
1797 0 65.3714 12.5437 820 111.813 1190.94 449.883
1798 0 67.4042 14.4056 971 110.187 1191.37 448.816
1799 1 140.482 15.212 2137 110.628 1191.88 418.378
1800 0 148.794 18.1795 2705 106.034 1192.9 415.871
1801 0 150.65 15.0681 2270 111.476 1193.27 412.652
1802 0 155.855 14.3082 2230 112.984 1193.54 412.274
1803 0 165.682 15.8073 2619 110.851 1194.12 407.358
1804 0 167.115 13.9006 2323 112.73 1194.34 410.328
1805 1 48.4842 11.2614 546 106.842 1193.67 469.262
1806 0 50.5028 13.4052 677 105.801 1194.17 471.108
1807 0 53.6562 15.152 813 102.421 1193.45 471.095
1808 0 49.3689 13.1459 649 108.824 1192.51 468.71
1809 0 54.35 13.0635 710 107.003 1193.69 470.168
1810 0 57.446 16.868 969 101.954 1193.18 469.783
1811 0 59.3135 13.8248 820 106.221 1193.85 466.804
1812 0 60.2074 13.0217 784 108.184 1192.45 469.753
1813 0 60.3441 14.2847 862 105.932 1192.47 471.274
1814 0 59.312 12.3247 731 131.99 1191.49 469.29
1815 0 65.4686 16.9089 1107 107.472 1191.08 474.593
1816 0 67.3312 15.2975 1030 110.432 1190.68 470.252
1817 0 77.9814 19.1841 1496 104.421 1189.79 467.289
1818 0 74.8647 16.3228 1222 109.647 1188.36 465.468
1819 0 77.6127 17.9739 1395 108.156 1187.41 457.908
1820 0 80.6636 21.1 1702 102.805 1187.41 462.407
1821 0 81.8349 15.0547 1232 110.908 1186.78 461.235
1822 0 83.5541 16.3726 1368 110.126 1186.62 457.043
1823 0 85.6614 15.7597 1350 111.266 1185.88 453.556
1824 1 44.5348 12.0804 538 112.628 1186.41 473.067
1825 0 47.9919 11.3978 547 113.137 1185.9 471.102
1826 0 53.5403 13.0743 700 103.2 1187.77 468.259
1827 0 52.3652 11.2479 589 107.783 1187.19 462.871
1828 0 52.4816 12.2138 641 106.52 1186.62 464.069
1829 0 53.617 13.2234 709 107.604 1185.66 461.272
1830 0 56.681 15.596 884 102.474 1185.76 462.572
1831 0 59.4666 15.4709 920 103.913 1186.55 458.854
1832 0 59.4859 13.23 787 107.371 1185.53 456.925
1833 0 65.5789 14.8828 976 102.212 1186.82 461.171
1834 0 63.4876 17.0427 1082 101.914 1187.67 456.98
1835 0 67.504 19.0804 1288 100.172 1187.44 454.008
1836 0 72.4869 19.6173 1422 99.5893 1188.46 448.664
1837 0 72.8762 17.2759 1259 103.149 1188.29 445.359
1838 0 76.3941 18.4177 1407 101.478 1190.31 447.675
1839 0 77.4048 12.0406 932 111.309 1190.79 447.14
1840 0 79.5872 14.5375 1157 110.161 1191.87 443.255
1841 0 76.3116 12.9469 988 113.925 1191.7 442.654
1842 0 83.3112 14.0317 1169 112.733 1192.9 439.475
1843 0 89.9896 16.013 1441 108.895 1192.61 440.532
1844 0 92.7886 15.5299 1441 110.765 1193.75 439.239
1845 0 93.5017 14.6949 1374 114.178 1193.58 437.557
1846 0 100.208 12.5738 1260 115.688 1192.97 439.9
1847 0 101.554 15.381 1562 110.184 1193.72 439.075
1848 0 103.585 13.2452 1372 114.372 1193.99 434.63
1849 0 107.193 14.0587 1507 112.285 1193.6 439.265
1850 0 106.608 10.7122 1142 121.21 1193.18 434.384
1851 1 55.1961 11.4501 632 117.242 1193.08 461.445
1852 0 62.5436 12.2954 769 111.834 1192.66 466.91
1853 0 65.4871 13.6363 893 111.311 1193.36 463.335
1854 0 68.4608 10.4731 717 116.404 1192.47 464.954
1855 0 68.3802 12.9716 887 112.843 1192.79 464.864
1856 0 68.4011 9.98522 683 118.126 1192.37 463.767
1857 0 73.5225 15.7503 1158 110.121 1191.34 460.624
1858 0 76.4278 12.6786 969 114.027 1190.77 461.753
1859 0 78.4116 14.3219 1123 109.378 1190.41 463.729
1860 0 81.5402 13.7969 1125 111.299 1189.86 459.404
1861 0 85.5945 13.8794 1188 112.202 1189 456.239
1862 0 88.4182 15.2231 1346 109.602 1188.22 455.187
1863 0 93.5749 15.3353 1435 109.453 1188.18 453.783
1864 0 93.2944 13.4949 1259 112.74 1186.91 450.163
1865 1 55.1805 9.42362 520 112.771 1187.01 468.402
1866 0 55.1694 10.9662 605 110.469 1186.8 470.975
1867 0 58.4799 12.0554 705 109.27 1186.33 462.443
1868 0 59.6777 13.1037 782 114.935 1186.17 462.936
1869 0 60.179 14.6729 883 112.682 1187.29 468.689
1870 0 61.0748 14.0811 860 116.678 1188.53 458.204
1871 0 63.0911 13.108 827 117.369 1188.21 459.36
1872 0 66.0604 13.6542 902 116.439 1188.91 460.537
1873 0 65.0669 14.0471 914 116.922 1188.55 457.607
1874 0 70.0282 13.2804 930 117.154 1189.68 455.806
1875 0 71.102 14.6269 1040 115.262 1189.05 448.83
1876 0 76.1449 13.1329 1000 117.068 1189.68 453.461
1877 0 78.1978 14.8981 1165 114.856 1190.34 451.463
1878 0 78.3623 12.9782 1017 120.275 1189.73 448.804
1879 0 80.5223 11.9346 961 121.949 1190.34 446.499
1880 0 80.3728 14.4327 1160 120.104 1190.43 441.5
1881 0 83.3268 11.9889 999 123.47 1191.14 441.765
1882 0 88.3025 13.148 1161 122.13 1191.77 439.824
1883 0 92.571 15.0263 1391 116.467 1191.43 441.588
1884 0 94.4545 12.2281 1155 122.762 1192.21 433.878
1885 0 97.5421 14.2092 1386 117.571 1192.37 435.07
1886 1 57.0429 11.43 652 112.408 1193.96 454.308
1887 0 56.1803 11.3385 637 112.342 1194.48 460.372
1888 0 59.2425 10.5161 623 116.05 1192.11 451.169
1889 0 62.1055 11.6898 726 107.259 1192.52 457.196
1890 0 62.1197 9.4334 586 108.758 1195.15 462.345
1891 0 62.1197 9.36901 582 128.847 1197.14 462.18
1892 0 66.2152 9.66546 640 111.223 1193.65 452.58
1893 0 69.151 13.5645 938 104.029 1195.83 456.881
1894 0 69.151 13.5501 937 119.003 1197.84 456.878
1895 0 76.1801 11.4334 871 105.574 1195.63 459.766
1896 0 76.0805 12.2765 934 107.764 1194.31 453.945
1897 0 80.2219 10.0347 805 109.968 1194.62 456.065
1898 0 82.1508 9.71384 798 109.055 1193.47 458.654
1899 0 87.2684 14.083 1229 104.195 1192.86 450.93
1900 0 89.3555 9.00896 805 111.47 1193.12 451.706
1901 0 95.21 11.5429 1099 107.653 1191.7 447.177
1902 1 51.0653 8.04852 411 109.08 1194.01 471.185
1903 0 54.1319 9.68006 524 105.685 1191.89 470.074
1904 0 55.0833 12.1271 668 103.597 1190.53 469.305
1905 0 56.2755 13.2562 746 103.532 1188.73 467.916
1906 0 57.0372 10.7824 615 107.049 1188.68 470.286
1907 0 54.1656 6.6832 362 115.169 1188.24 468.395
1908 0 54.1202 6.6149 358 113.737 1188.35 466.316
1909 0 62.0591 8.57248 532 111.203 1187.47 464.188
1910 0 62.2923 10.3705 646 109.06 1187.9 463.15
1911 0 61.1422 10.5655 646 110.121 1187.38 461.946
1912 0 61.0846 11.7215 716 106.149 1186.61 464.162
1913 0 59.2786 9.43004 559 106.987 1186.24 465.914
1914 0 65.164 9.83672 641 109.442 1186.82 454.552
1915 0 71.2542 10.5538 752 105.395 1187.47 459.415
1916 0 71.2542 10.5959 755 114.672 1188.48 459.43
1917 0 72.1683 9.32543 673 108.725 1187.25 454.33
1918 0 76.3052 9.6979 740 107.003 1188.29 454.004
1919 0 79.2188 12.131 961 105.794 1188.63 447.706
1920 0 80.2673 10.4775 841 107.492 1189.05 447.886
1921 0 85.3788 11.8765 1014 105.4 1189.83 446.895
1922 1 167.842 14.4302 2422 106.053 1188.64 415.037
1923 1 89.3614 13.1488 1175 104.747 1190.4 448.394
1924 0 91.4935 8.90773 815 111.348 1190.68 442.04
1925 0 96.3183 9.13637 880 110.251 1190.29 443.62
1926 0 97.5378 11.3597 1108 110.155 1191.82 430.579
1927 1 200.675 13.33 2675 108.232 1190.3 404.84
1928 1 101.383 10.9387 1109 111.594 1192.55 430.566
1929 0 109.355 11.2203 1227 108.204 1193.63 443.415
1930 1 57.1644 10.3386 591 106.467 1194.62 461.217
1931 0 58.1583 10.2651 597 110.436 1193.83 455.156
1932 0 62.1177 12.9754 806 109.785 1196.31 458.272
1933 0 63.0761 11.4623 723 110.715 1195.12 458.546
1934 0 67.1095 13.3811 898 106.872 1195.62 459.517
1935 0 66.1903 14.8964 986 106.547 1194.76 457.787
1936 0 75.0991 15.6859 1178 102.601 1195.63 458.13
1937 0 70.1987 11.7951 828 110.89 1195.2 453.711
1938 0 77.3118 14.7713 1142 103.37 1195.47 463.902
1939 0 79.1206 13.3973 1060 108.004 1194.9 459.616
1940 0 80.1307 12.4047 994 111.47 1194.3 454.843
1941 0 82.3016 13.2197 1088 110.314 1194.15 461.023
1942 0 84.367 12.9434 1092 114.955 1193.91 456.933
1943 0 88.3111 15.5813 1376 111.674 1193.44 455.108
1944 0 95.4131 18.5404 1769 106.349 1192.73 450.512
1945 0 97.3093 16.576 1613 109.364 1190.58 450.444
1946 0 105.374 15.8294 1668 108.71 1191.06 448.205
1947 0 103.327 17.1301 1770 108.49 1189.62 448.121
1948 0 103.206 14.3499 1481 112.03 1189.95 446.788
1949 0 107.208 13.3946 1436 113.483 1190.99 446.515
1950 1 61.0838 14.652 895 107.677 1190.72 469.178
1951 0 61.0776 11.7228 716 110.789 1188.7 467.191
1952 0 63.4171 11.9684 759 109.016 1185.75 462.735
1953 0 65.2745 10.8618 709 110.801 1186.69 459.106
1954 0 65.2745 10.7546 702 138.101 1186.7 459.152
1955 0 68.054 14.1358 962 106.999 1187.75 459.864
1956 0 69.1968 10.7375 743 109.763 1186.87 460.662
1957 0 72.0952 15.327 1105 104.211 1187.06 458.107
1958 0 72.1184 13.9354 1005 105.839 1187.43 454.399
1959 0 77.0643 14.7669 1138 104.202 1187.15 454.431
1960 0 81.0905 13.8364 1122 104.481 1187.98 453.614
1961 0 83.1869 12.538 1043 107.268 1188.09 448.194
1962 0 85.1975 13.8267 1178 105.674 1188.49 440.923
1963 0 87.1606 13.4006 1168 105.955 1188.61 444.455
1964 0 91.2386 13.2181 1206 106.852 1188.84 436.863
1965 0 89.1266 11.3995 1016 111.399 1190.13 432.207
1966 0 95.1318 11.5209 1096 110.201 1190.32 431.912
1967 0 97.3836 12.5586 1223 105.04 1190.43 435.581
1968 0 103.39 13.9181 1439 103.4 1191.4 434.655
1969 0 103.39 13.9375 1441 124.715 1192.39 434.506
1970 1 59.3323 9.42152 559 104.383 1193.2 453.118
1971 0 62.1313 11.1055 690 101.974 1193.18 454.207
1972 0 62.1678 10.6969 665 105.394 1193.35 453.38
1973 0 65.4049 12.3997 811 105.693 1193.68 455.7
1974 0 67.2324 11.2446 756 104.487 1195.21 452.738
1975 0 71.3965 12.7037 907 102.637 1196.35 449.59
1976 0 73.2836 14.8328 1087 100.411 1195.6 451.5
1977 0 73.2836 14.7373 1080 109.787 1195.61 451.581
1978 0 79.2293 13.3536 1058 102.646 1195.5 450.019
1979 0 80.3946 12.364 994 104.361 1195.49 452.095
1980 0 80.3946 12.4386 1000 119.67 1196.5 452.124
1981 0 89.3995 14.8882 1331 101.029 1194.35 449.419
1982 0 91.2614 16.1185 1471 100.203 1194.04 446.311
1983 0 92.2577 16.8983 1559 99.3444 1193.56 445.089
1984 0 94.2116 13.8306 1303 103.863 1194.16 448.81
1985 0 98.4505 11.8435 1166 107.162 1192.68 447.533
1986 0 98.4505 11.8435 1166 131.262 1190.71 447.694
1987 1 56.0363 8.8514 496 109.958 1192.39 472.194
1988 0 60.0604 14.1691 851 104.383 1192.02 462.059
1989 0 59.3571 10.917 648 110.887 1186.74 457.477
1990 0 61.1547 11.6099 710 108.735 1187.01 451.969
1991 0 67.1239 14.9127 1001 104.057 1186.09 457.248
1992 0 67.1239 14.8084 994 123.35 1186.06 457.264
1993 0 67.2856 14.9958 1009 106.179 1184.8 451.659
1994 0 67.2856 14.9809 1008 121.544 1182.78 451.741
1995 0 74.2228 15.5208 1152 104.761 1184.34 451.058
1996 0 76.2149 16.0467 1223 104.555 1184.03 450.146
1997 0 74.2152 13.4743 1000 110.103 1184.52 449.085
1998 0 78.2354 14.6864 1149 108.384 1184.88 446.803
1999 0 82.1124 15.9294 1308 106.901 1183.66 442.652
2000 0 82.0976 17.5523 1441 105.015 1184.66 441.814
2001 0 82.2287 14.5083 1193 109.391 1183.48 445.314
2002 0 86.2729 15.3698 1326 110.734 1184.51 440.253
2003 0 85.2739 16.9337 1444 133.925 1184.3 441.825
2004 0 89.3535 14.9966 1340 109.641 1185.91 440.231
2005 0 95.2262 12.6226 1202 111.993 1188.21 435.34
2006 0 96.2745 13.1187 1263 110.499 1186.42 434.349
2007 0 100.163 15.0255 1505 108.238 1188.69 434.95
2008 0 95.1463 10.7834 1026 115.605 1188.2 432.064
2009 1 57.066 16.5773 946 104.823 1187.63 451.423
2010 0 57.066 16.5423 944 126.805 1187.6 451.268
2011 0 58.0922 9.07178 527 116.112 1190.6 452.254
2012 0 62.1588 14.656 911 106.035 1191.34 454.703
2013 0 64.1682 12.9659 832 109.567 1191.11 451.334
2014 0 64.332 13.8656 892 112.498 1193.01 452.455
2015 0 66.3724 14.6748 974 109.312 1191.86 452.883
2016 0 66.3724 14.6145 970 134.998 1190.84 452.847
2017 0 71.2087 14.0994 1004 109.037 1193.3 453.89
2018 0 74.5248 13.9551 1040 108.525 1193.1 451.834
2019 0 74.2011 16.8866 1253 105.382 1193.54 451.52
2020 0 80.501 14.6458 1179 108.023 1193.97 445.463
2021 0 82.437 15.6362 1289 107.005 1193.95 450.75
2022 0 82.299 15.954 1313 108.161 1194.23 451.963
2023 0 83.4942 15.7256 1313 108.596 1195.15 451.73
2024 0 85.1778 13.6421 1162 112.192 1193.59 451.969
2025 0 88.2361 15.5039 1368 108.699 1192.7 453.097
2026 0 92.2487 12.6072 1163 113.177 1193.01 451.684
2027 0 92.2487 12.6289 1165 140.882 1194.03 451.479
2028 0 98.3125 13.274 1305 113.93 1191.99 446.809
2029 0 99.4533 14.0066 1393 113.07 1191.21 450.762
2030 0 106.271 13.2868 1412 114.53 1189.93 441.75
2031 0 111.256 16.862 1876 109.15 1190.03 443.922
2032 0 111.412 11.7492 1309 117.675 1189.63 438.276
2033 0 119.375 13.6628 1631 116.12 1190.06 436.768
2034 0 119.374 13.73 1639 144.118 1189.06 436.902
2035 1 49.21 12.4162 611 112.247 1188.37 466.692
2037 0 50.3409 11.8393 596 111.517 1188.46 467.183
2038 0 54.1536 11.3197 613 111.137 1188.31 466.639
2039 0 51.1383 11.8893 608 108.215 1187.84 461.243
2040 0 54.1718 12.608 683 104.426 1186.74 460.512
2041 0 58.2873 11.7007 682 104.704 1185.5 461.595
2042 0 58.3991 12.8255 749 102.519 1186.88 460.391
2043 0 61.2632 12.4871 765 105.442 1185.45 456.69
2044 0 61.2121 8.42971 516 111.099 1184.73 461.322
2045 0 63.296 9.71625 615 113.011 1184.19 451.971
2046 0 63.302 8.87807 562 114.98 1184.04 448.101
2047 0 63.302 8.87807 562 130.762 1184.04 448.101
2048 0 70.373 11.908 838 109.187 1186.66 452.11
2049 0 71.164 10.4126 741 113.074 1187.89 447.358
2050 0 75.5065 14.6742 1108 106.256 1187.93 447.143
2051 0 79.3144 10.7925 856 111.785 1189.3 441.718
2052 0 79.097 11.8083 934 111.855 1189.69 441.685
2053 0 84.3628 13.4301 1133 108.378 1191.68 436.837
2054 0 84.3405 14.0976 1189 108.081 1190.7 443.336
2055 0 91.3729 15.2343 1392 106.006 1192.95 431.861
2056 0 94.7204 15.3082 1450 105.503 1191.84 438.27
2057 1 54.1242 9.49668 514 105.909 1193.76 457.753
2058 0 57.2322 14.2577 816 104.596 1193.37 459.977
2059 0 64.3877 14.5525 937 101.864 1195.18 462.901
2060 0 63.3899 16.1698 1025 102.032 1194.95 460.081
2061 0 64.3839 15.1901 978 103.976 1195.33 458.292
2062 0 65.1258 14.449 941 105.319 1195.95 454.615
2063 0 68.3922 14.4315 987 105.648 1195.19 454.493
2064 0 72.1992 12.0223 868 109.461 1195.43 456.35
2065 0 72.1414 12.2537 884 108.542 1194.84 459.958
2066 0 73.2121 13.2082 967 107.652 1195.51 461.778
2067 0 77.2638 12.9038 997 108.821 1193.01 451.506
2068 0 82.5845 17.5941 1453 100.361 1194.44 461.381
2069 0 84.4665 14.2778 1206 105.652 1194.81 460.292
2070 0 87.422 17.2497 1508 102.412 1193.98 452.343
2071 0 88.3312 14.5815 1288 107.186 1192.87 447.141
2072 0 93.3897 14.9053 1392 105.854 1191.49 451.56
2073 0 96.4952 15.4308 1489 105.77 1191.89 450.377
2074 0 95.3095 12.8319 1223 111.06 1189.83 451.248
2075 1 57.2312 13.0873 749 106.586 1190.18 474.698
2076 0 58.59 15.6853 919 106.178 1188.68 471.147
2077 0 57.6011 12.8296 739 137.98 1187.68 468.401
2078 0 61.6434 16.709 1030 105.61 1186.34 466.987
2079 0 64.4587 16.0568 1035 107.322 1185.83 464.562
2080 0 67.8564 14.1033 957 109.462 1185.79 464.988
2081 0 68.776 14.729 1013 109.202 1186.16 464.644
2082 0 67.2256 13.4175 902 111.009 1187.31 459.088
2083 0 71.3247 13.2212 943 110.265 1187.45 458.391
2084 0 70.3201 13.6945 963 110.507 1187.5 454.494
2085 0 73.1969 12.8694 942 111.609 1187.24 453.846
2086 0 77.4525 13.6471 1057 110.284 1187.34 452.61
2087 0 79.1499 13.8345 1095 110.58 1187.37 451.143
2088 0 81.364 16.7273 1361 106.688 1187.22 449.846
2089 0 82.1336 13.8798 1140 111.849 1187.69 449.016
2090 0 87.6139 16.5613 1451 106.286 1188.57 447.053
2091 0 87.419 13.3609 1168 110.963 1189.07 447.896
2092 0 90.2435 9.81788 886 117.35 1189.6 446.94
2093 0 94.1688 14.166 1334 112.055 1190.01 442.702
2094 0 95.2726 16.1956 1543 110.447 1189.9 441.028
2095 0 94.4721 13.4855 1274 118.031 1192.43 436.416
2096 0 99.5711 15.3458 1528 115.045 1191.97 435.12
2097 1 59.1768 11.5586 684 118.953 1192.49 457.428
2098 0 64.256 12.4969 803 117.22 1192.66 454.563
2099 0 62.1954 11.496 715 121.572 1193.65 450.124
2100 0 63.2864 12.9254 818 119.762 1194.15 449.476
2101 0 66.3458 12.9473 859 119.726 1193.76 447.821
2102 0 70.3401 16.1643 1137 113.863 1194.12 448.219
2103 0 74.1476 15.9816 1185 109.592 1194.81 450.965
2104 0 73.3127 14.4586 1060 114.57 1195.29 454.437
2105 0 78.207 16.6609 1303 113.519 1196.21 460.901
2106 0 75.4131 12.0404 908 126.142 1195.47 452.974
2107 0 79.4032 15.8306 1257 120.348 1192.76 453.524
2108 0 82.3722 11.618 957 128.677 1192.75 451.162
2109 0 85.3317 12.7385 1087 126.767 1192.96 451.642
2110 0 90.3607 13.3686 1208 125.381 1192.59 452.221
2111 0 93.5677 16.9824 1589 118.96 1192.71 452.947
2112 0 94.5508 12.7339 1204 128.15 1191.26 446.4
2113 0 98.5392 13.8321 1363 125.417 1191.39 450.062
2114 0 102.518 16.2117 1662 120.914 1189.74 449.748
2115 0 104.332 15.2206 1588 123.76 1189.21 447.591
2116 0 109.314 18.0672 1975 118.585 1188.39 442.44
2117 0 112.447 16.3365 1837 120.527 1187.86 444.559
2118 0 116.329 16.2986 1896 120.021 1187.65 443.677
2119 0 119.641 15.8223 1893 121.695 1186.1 432.982
2120 0 123.433 13.0922 1616 126.334 1187.62 432.592
2121 0 129.479 13.6315 1765 121.916 1186.32 432.099
2122 1 73.2749 12.3235 903 115.564 1187.22 461.579
2123 0 74.4525 12.2226 910 116.864 1186.3 457.812
2124 0 77.3849 14.4989 1122 111.61 1186.29 460.217
2125 0 77.3849 14.3568 1111 129.54 1186.28 460.068
2126 0 80.4258 13.3788 1076 117.778 1185.35 449.018
2127 0 82.5847 16.9402 1399 111.767 1184.26 449.244
2128 0 85.5048 13.9875 1196 115.409 1185.07 449.545
2129 0 87.4214 12.2853 1074 119.592 1184.42 442.074
2130 0 91.5418 13.655 1250 116.342 1184.93 442.977
2131 0 92.3083 13.5308 1249 117.146 1185.44 440.96
2132 0 98.9705 19.3694 1917 106.233 1185.16 440.368
2133 0 96.5547 12.7492 1231 117.518 1185.39 436.89
2134 0 101.606 15.7176 1597 112.312 1185.45 434.755
2135 0 102.719 13.5418 1391 115.574 1186.94 434.588
2136 0 104.755 17.5361 1837 109.388 1186.96 430.848
2137 0 107.759 15.1634 1634 113.021 1188 429.176
2138 0 112.48 15.0337 1691 113.14 1188.11 427.242
2139 0 115.624 16.5364 1912 110.342 1189.61 425.896
2140 0 118.489 15.1828 1799 110.2 1189.79 427.421
2141 0 124.025 15.9322 1976 109.365 1189.37 419.239
2142 0 124.56 14.3786 1791 112.599 1190.56 416.047
2143 0 130.55 10.0268 1309 119.187 1190.29 409.015
2144 0 135.636 13.927 1889 112.017 1191.45 419.336
2145 1 77.3493 10.4849 811 110.276 1192.4 446.318
2146 0 78.2636 10.0174 784 109.057 1193.69 453.983
2147 0 85.4838 13.3593 1142 102.914 1193.46 442.082
2148 0 86.4433 12.6441 1093 103.195 1193.14 449.83
2149 0 86.7548 10.3971 902 107.48 1193.09 447.825
2150 0 92.5179 12.9597 1199 103.947 1193.28 446.405
2151 0 93.3648 12.1245 1132 105.753 1192.14 447.588
2152 0 94.477 13.8129 1305 104.303 1193.38 446.924
2153 0 99.4967 10.0807 1003 108.427 1191.82 451.409
2154 0 105.547 14.4106 1521 103.903 1191.75 448.03
2155 0 107.372 12.4241 1334 106.926 1191.64 446.92
2156 0 114.23 9.81355 1121 109.307 1190.66 449.552
2157 0 115.606 14.2294 1645 105.362 1190.22 439.874
2158 0 120.776 15.3507 1854 106.649 1188.09 440.003
2159 0 125.633 13.611 1710 108.766 1188.07 435.828
2160 0 129.794 16.6649 2163 103.299 1186.8 438.953
2161 1 71.4807 13.8499 990 102.434 1187.21 464.972
2162 0 74.5495 13.87 1034 104.061 1185.39 459.197
2163 0 74.5495 13.9505 1040 126.894 1184.41 459.253
2164 0 76.1632 14.167 1079 105.92 1184.06 455.193
2165 0 80.406 10.6957 860 109.01 1183.74 458.241
2166 0 85.4427 14.2435 1217 104.997 1184.06 451.692
2167 0 87.7183 14.2046 1246 104.583 1184.19 452.833
2168 0 89.6708 15.2893 1371 105.804 1185.75 448.566
2169 0 93.457 16.2642 1520 102.159 1185.14 447.997
2170 0 98.8643 18.7833 1857 99.4803 1185.49 445.931
2171 0 99.1853 17.0388 1690 100.19 1185.53 449.191
2172 0 97.8443 12.1315 1187 108.587 1185.2 443.682
2173 0 103.69 14.9292 1548 105.044 1186.24 439.052
2174 0 103.69 15.0256 1558 146 1188.23 438.982
2175 0 106.637 14.826 1581 106.553 1185.46 431.405
2176 0 108.875 12.8955 1404 107.989 1186.1 434.414
2177 0 113.618 15.869 1803 104.654 1186.28 433.489
2178 0 114.857 12.7115 1460 110.025 1187.47 429.695
2179 0 115.071 13.3483 1536 108.234 1187.45 434.981
2180 0 124.992 16.185 2023 103.885 1189.08 430.162
2181 0 125.829 12.4375 1565 109.942 1190.38 422.359
2182 0 132.611 13.6414 1809 107.967 1190.54 420.065
2183 1 70.5033 12.354 871 106.445 1191.08 452.62
2184 0 75.7128 11.4644 868 106.986 1190.92 452.243
2185 0 76.896 13.5768 1044 104.91 1191.81 448.83
2186 0 79.7277 16.2804 1298 101.133 1193.25 448.752
2187 0 79.7277 16.2553 1296 136.204 1194.25 448.677
2188 0 85.8288 17.5 1502 99.5499 1194.37 443.128
2189 0 88.8003 18.6373 1655 97.5269 1193.85 448.657
2190 0 91.8253 16.6839 1532 101.195 1193.75 440.675
2191 0 95.6835 15.9798 1529 101.661 1193.88 444.947
2192 0 99.8989 17.0472 1703 100.533 1193.72 441.319
2193 0 104.034 17.3405 1804 99.1824 1194.13 448.915
2194 0 103.036 15.0432 1550 142.734 1196.32 445.365
2195 0 110.078 14.6987 1618 104.219 1192.27 441.461
2196 0 113.749 14.8397 1688 104.652 1193.03 433.385
2197 0 118.117 14.7565 1743 104.609 1192.77 438.773
2198 0 122.01 13.8103 1685 105.526 1191.3 440.16
2199 0 130.185 16.4151 2137 102.933 1191.09 432.232
2200 0 131.683 13.3047 1752 105.822 1189.78 441.374
2201 1 74.5404 15.5754 1161 103.87 1189.95 460.852
2202 0 74.9329 12.5179 938 108.307 1187.35 462.892
2203 0 74.9074 12.0949 906 112.599 1187.03 453.894
2204 0 82.0314 12.5806 1032 110.385 1187.1 454.561
2205 0 85.9783 15.2131 1308 105.906 1186.98 454.416
2206 0 89.8427 19.8235 1781 98.8534 1187.8 455.634
2207 0 91.0612 15.4951 1411 106.27 1186.43 452.464
2208 0 91.8415 14.3073 1314 109.768 1185.91 444.522
2209 0 97.7202 11.2157 1096 114.482 1185.81 444.231
2210 0 101.029 15.2431 1540 108.04 1186.21 446.808
2211 0 101.815 13.3772 1362 111.36 1186.26 442.552
2212 0 102.704 13.6119 1398 110.911 1187.37 441.166
2213 0 105.767 15.4963 1639 107.996 1186.56 439.371
2214 0 109.003 14.3665 1566 110.605 1186.8 434.27
2215 0 109.003 14.3115 1560 148.747 1186.82 434.039
2216 0 118.88 16.5714 1970 106.503 1187.31 430.547
2217 0 122.712 18.303 2246 103.897 1186.62 427.679
2218 0 124.769 15.2121 1898 108.918 1186.68 424.774
2219 0 134.785 21.0929 2843 98.4513 1186.26 429.84
2220 1 72.4872 12.954 939 104.785 1187.77 449.307
2221 0 72.4872 13.1058 950 136.568 1187.8 449.312
2222 0 74.2439 14.1964 1054 105.716 1188.4 448.446
2223 0 79.3969 17.7211 1407 103.606 1187.31 443.046
2224 0 79.6947 14.2544 1136 108.614 1188.44 444.813
2225 0 81.739 16.0755 1314 106.211 1190.55 440.459
2226 0 83.4869 14.2657 1191 110.452 1190.93 439.596
2227 0 89.5841 13.5627 1215 110.188 1191.54 444.714
2228 0 87.634 11.685 1024 114.736 1190.37 439.774
2229 0 89.6115 13.2014 1183 110.374 1191.97 434.462
2230 0 93.5953 14.8191 1387 107.644 1190.92 435.378
2231 0 94.4768 13.6965 1294 111.34 1192.89 429.428
2232 0 99.5268 14.2776 1421 109.326 1192.34 430.307
2233 0 96.5378 13.6112 1314 111.643 1192.57 433.012
2234 0 105.377 13.3996 1412 111.356 1192.84 426.142
2235 0 109.574 15.3412 1681 107.574 1193.42 434.18
2236 0 117.598 16.684 1962 104.972 1192.78 433.221
2237 0 121.65 14.9363 1817 108.03 1193.76 429.21
2238 0 123.432 13.319 1644 110.78 1192.78 431.299
2239 0 134.663 11.1761 1505 113.687 1193.32 427.036
2240 1 79.1066 11.7942 933 106.418 1194.36 453.509
2241 0 83.2019 13.3531 1111 103.717 1193.44 453.603
2242 0 84.2331 11.7531 990 111.681 1192.46 457.415
2243 0 88.3136 15.411 1361 106.178 1191.56 454.504
2244 0 92.5369 16.2097 1500 104.855 1189.33 454.49
2245 0 92.5658 15.967 1478 106.151 1189.31 453.969
2246 0 98.2693 15.7018 1543 106.585 1187.82 453.181
2247 0 98.2312 13.3155 1308 111.576 1186.45 446.559
2248 0 101.243 15.4875 1568 108.76 1185.91 444.558
2249 0 101.243 15.5072 1570 127.469 1185.92 444.429
2250 0 107.4 14.4972 1557 110.041 1185.19 444.9
2251 0 112.659 15.1785 1710 110.82 1184.67 435.508
2252 0 115.827 17.8111 2063 106.101 1184.14 437.888
2253 0 114.488 13.9141 1593 113.621 1184.97 434.136
2254 0 120.87 18.0193 2178 106.324 1184.37 436.721
2255 0 123.518 16.5806 2048 109.743 1184.02 430.067
2256 0 126.454 18.0856 2287 108.256 1184.21 425.023
2257 0 128.659 14.8532 1911 112.087 1185.33 427.638
2258 0 129.839 11.368 1476 121.944 1184.43 418.635
2259 0 139.903 14.1884 1985 115.112 1185.73 422.864
2260 0 139.845 12.2493 1713 120.792 1185.61 411.45
2261 0 146.497 13.7818 2019 113.936 1187.3 413.381
2262 0 148.12 13.3473 1977 116.433 1187.56 415.493
2263 0 152.751 14.9851 2289 116.314 1188.36 408.278
2264 0 158.793 15.3408 2436 114.134 1188.36 413.62
2265 1 90.5744 14.0547 1273 112.879 1189.72 436.522
2266 0 91.5495 15.325 1403 111.061 1190.74 437.669
2267 0 91.3181 12.3962 1132 117.656 1190.15 433.8
2268 0 96.2895 13.3244 1283 112.903 1189.69 436.906
2269 0 96.295 14.9021 1435 112.257 1190.45 434.839
2270 0 101.106 15.103 1527 112.074 1189.94 434.654
2271 0 102.248 12.3524 1263 117.396 1189.78 433.318
2272 0 107.36 14.1301 1517 114.136 1191.58 432.477
2273 0 105.205 10.1612 1069 123.319 1191.56 427.934
2274 0 114.125 12.3725 1412 116.431 1192.12 432.449
2275 0 118.23 14.2096 1680 114.861 1191.37 425.564
2276 0 121.406 18.4011 2234 108.784 1190.9 421.534
2277 0 124.222 11.4794 1426 119.365 1190.12 426.128
2278 0 128.284 13.5247 1735 115.423 1191.08 428.666
2279 0 130.58 10.9052 1424 117.975 1191.21 430.074
2280 1 141.472 11.6348 1646 115.939 1192.35 429.443
2281 0 141.472 11.656 1649 144.736 1193.34 429.597
2282 0 150.704 15.0959 2275 113.293 1191.7 426.616
2283 0 158.477 16.1349 2557 112.222 1190.55 415.07
2284 0 158.477 16.1349 2557 135.667 1190.55 415.07
2285 0 169.619 13.8782 2354 116.338 1189.22 410.504
2286 0 175.408 15.7291 2759 113.376 1188.64 410.46
2287 0 182.603 16.6208 3035 112.07 1188.26 406.791
2288 0 186.85 14.6267 2733 115.689 1189.15 400.008
2289 0 190.489 19.8752 3786 107.232 1187.34 405.826
2290 1 47.2551 10.602 501 105.068 1189.85 471.152
2291 0 51.2212 9.97634 511 103.421 1187.81 474.104
2292 0 50.2107 11.0733 556 123.996 1185.81 473.317
2293 0 50.0564 12.1663 609 99.0657 1188.41 471.521
2294 0 50.1101 11.2951 566 101.935 1188.46 469.164
2295 0 55.1539 7.77823 429 108.515 1188.31 462.977
2296 0 53.0828 8.92945 474 106.956 1188.15 461.781
2297 0 56.1058 12.2982 690 102.365 1187.76 463.21
2298 0 59.0881 10.0866 596 104.554 1187.5 463.716
2299 0 65.1959 12.9303 843 100.746 1186.53 460.125
2300 0 64.121 12.6168 809 101.934 1187.35 456.796
2301 0 62.2125 10.4159 648 104.775 1187.15 457.625
2302 0 62.1222 9.09498 565 105.795 1182.35 453.17
2303 1 10.0051 7.59612 76 86.2763 1183.51 482.895
2304 0 10.0201 6.28739 63 87.9683 1184.68 483.064
2305 1 67.3025 7.65202 515 107.883 1184.87 451.19
2306 0 71.1877 12.8112 912 101.353 1185.33 447.11
2307 0 71.2152 9.47831 675 106.536 1184.41 444.757
2308 0 72.1754 10.71 773 104.295 1186.86 448.358
2309 0 77.1141 11.8915 917 104.2 1186.23 442.282
2310 0 78.1473 11.6575 911 104.663 1187.82 443.735
2311 0 79.4137 7.46722 593 110.39 1187.55 441.11
2312 0 76.1715 13.0232 992 103.873 1188.53 441.639
2313 0 80.0865 6.8426 548 109.102 1190.76 447.277
2314 0 84.2583 13.8147 1164 101.925 1190.81 439.492
2315 0 152.853 10.0489 1536 109.174 1192.01 419.027
2316 0 157.734 12.6796 2000 108.84 1191.97 406.848
2317 0 161.011 10.8564 1748 110.141 1192.65 411.894
2318 0 161.767 9.42716 1525 112.384 1193.06 413.251
2319 0 159.472 8.11429 1294 116.655 1192.77 403.594
2320 0 164.65 5.67872 935 112.602 1192.18 437.365
2321 0 169.446 9.66682 1638 114.246 1193.25 417.805
2322 1 120.782 10.5065 1269 111.196 1192.43 443.449
2323 0 119.489 7.07178 845 142.317 1191.89 454.222
2324 0 120.294 12.3364 1484 109.966 1191.69 438.62
2325 1 72.1204 14.2262 1026 103.487 1192.58 460.694
2326 0 72.1587 10.463 755 110.278 1192.29 459.238
2327 0 76.3108 15.7514 1202 101.847 1191.31 461.944
2328 0 79.1823 13.2479 1049 105.654 1190.84 461.615
2329 0 80.0894 12.3612 990 110.002 1189.6 456.613
2330 0 80.0894 12.3487 989 136.879 1189.61 456.518
2331 1 144.397 12.8535 1856 113.595 1187.44 428.035
2332 1 87.1925 13.5677 1183 106.718 1188.04 458.111
2333 0 91.2443 11.5624 1055 111.271 1188.04 454.679
2334 0 89.1302 7.14684 637 116.948 1186.78 454.521
2335 1 52.1374 11.93 622 103.077 1186.48 470.635
2336 0 56.3866 13.8863 783 103.997 1185.64 469.733
2337 0 57.8665 13.6694 791 108.793 1185.64 466.803
2338 0 56.4283 14.1596 799 111.258 1185.36 463.4
2339 0 58.6764 14.7589 866 110.391 1184.21 461.187
2340 0 58.492 13.7968 807 113.352 1184.36 459.395
2341 0 60.5567 13.5576 821 114.523 1185.81 455.028
2342 0 61.4215 14.2947 878 113.556 1185.22 452.284
2343 0 62.5476 13.5577 848 114.468 1185.12 455.178
2344 0 62.5476 13.5257 846 139.021 1184.1 455.214
2345 0 65.4325 12.2263 800 117.564 1186.08 452.11
2346 0 70.6195 15.6756 1107 110.135 1187.14 451.737
2347 0 70.5821 15.8256 1117 111.669 1187.43 449.012
2348 0 70.3852 11.9485 841 118.614 1188.63 446.12
2349 0 77.5448 14.7141 1141 113.368 1188.23 446.475
2350 0 74.3301 11.6642 867 120.355 1189.63 443.854
2351 0 76.4808 9.76716 747 123.584 1189.88 445.212
2352 0 79.4606 14.7243 1170 114.361 1190.81 444.595
2353 0 84.2102 16.7319 1409 109.808 1191.59 438.673
2354 0 90.5148 14.3292 1297 111.443 1193.42 446.787
2355 0 89.2087 18.1597 1620 107.166 1193.26 443.455
2356 0 89.2791 13.8218 1234 115.406 1193.62 438.49
2357 0 95.7716 15.7771 1511 111.563 1194.24 437.693
2358 0 98.2836 18.7112 1839 107.622 1195 439.253
2359 0 98.3134 16.5288 1625 110.721 1194.04 440.627
2360 0 103.521 14.5767 1509 114.001 1194.22 433.677
2361 0 103.521 14.5284 1504 145.362 1196.2 433.667
2362 0 103.53 14.4499 1496 145.103 1198.19 433.767
2363 1 73.2197 11.1309 815 117.573 1193.65 456.191
2364 0 65.4218 12.4882 817 109.716 1191.11 456.029
2365 0 67.3176 13.7408 925 106.531 1191.36 457.752
2366 0 67.3176 13.83 931 135.217 1190.36 457.724
2367 0 77.5183 19.2858 1495 97.8829 1191.39 460.958
2368 0 78.3377 15.0885 1182 104.079 1191.19 457.456
2369 0 77.2611 15.2858 1181 104.14 1188.62 460.463
2370 0 82.5121 12.7496 1052 108.894 1187.94 455.291
2371 0 84.2027 15.1064 1272 107.728 1187.21 452.395
2372 0 87.578 16.8764 1478 106.249 1185.81 450.385
2373 0 92.4334 19.4951 1802 100.621 1185.93 453.322
2374 0 91.8337 15.1034 1387 109.381 1184.69 447.937
2375 0 92.8579 13.3753 1242 114.349 1185.19 438.05
2376 0 96.8628 14.6702 1421 110.97 1184.67 442.782
2377 0 100.309 15.7911 1584 111.665 1185.11 444.973
2378 0 100.309 15.7712 1582 148.174 1186.11 444.831
2379 0 106.258 16.4034 1743 110.874 1184.79 440.912
2380 0 108.242 14.7724 1599 114.798 1184.91 437.338
2381 0 111.214 15.0162 1670 113.428 1185.72 442.253
2382 0 114.606 13.7776 1579 116.625 1185.66 433.575
2383 0 114.606 13.8125 1583 157.716 1184.67 433.452
2384 1 68.2706 12.9778 886 114.129 1184.66 452.88
2385 0 72.5178 15.5962 1131 109.233 1184.26 452.539
2386 0 72.5518 14.5138 1053 112.02 1183.79 451.858
2387 0 74.4298 17.802 1325 107.805 1185.22 447.931
2388 0 78.5392 13.5983 1068 113.765 1184.84 443.331
2389 0 79.5778 15.6702 1247 112.731 1185.88 442.497
2390 0 78.5737 15.4505 1214 135.801 1186.91 442.068
2391 0 84.3578 13.5257 1141 116.305 1185.27 442.926
2392 0 87.4771 16.3929 1434 113.023 1186 443.229
2393 0 86.2871 12.9452 1117 120.132 1187.75 439.749
2394 0 90.2283 14.2195 1283 118.103 1187.32 439.958
2395 0 95.315 18.528 1766 110.023 1189.14 441.252
2396 0 99.5316 15.2615 1519 116.651 1188.15 437.01
2397 0 101.351 14.8396 1504 118.126 1189.14 433.507
2398 0 104.533 14.1295 1477 120.496 1190.65 432.067
2399 0 108.625 18.6974 2031 113.14 1191.87 426.915
2400 0 110.237 17.8706 1970 115.479 1191.64 429.066
2401 0 113.431 11.7869 1337 125.411 1191.72 429.07
2402 0 120.541 15.4802 1866 118.535 1191.81 425.46
2403 0 125.612 16.6147 2087 116.88 1191.13 424.821
2404 0 131.708 15.8685 2090 118.416 1191.1 423.16
2405 1 72.4128 8.02345 581 127.678 1189.72 453.275
2406 0 77.5246 10.2935 798 120.683 1190.37 458.12
2407 0 79.6918 11.7578 937 120.78 1188.93 451.851
2408 0 84.7292 15.8151 1340 114.189 1188.91 449.241
2409 0 88.5238 14.5836 1291 115.363 1188.92 450.189
2410 0 92.5595 17.8156 1649 110.078 1187.5 449.327
2411 0 95.5209 16.7712 1602 110.903 1187.1 448.316
2412 0 99.7666 15.837 1580 113.198 1185.58 442.63
2413 0 102.842 17.7554 1826 110.478 1185.59 441.551
2414 0 107.572 17.2628 1857 110.463 1185.34 440.6
2415 0 109.659 15.2382 1671 114.094 1184.84 436.986
2416 0 111.56 14.6826 1638 115.455 1184.76 431.69
2417 0 117.713 15.4188 1815 113.103 1184.8 430.894
2418 0 116.313 12.2342 1423 118.76 1183.83 430.817
2419 1 65.5488 9.84 645 119.443 1182.54 449.685
2420 0 69.4293 11.2921 784 114.341 1182.58 453.533
2421 0 75.8672 13.9454 1058 109.719 1182.22 452.16
2422 0 77.7602 16.8081 1307 109.542 1184.01 451.828
2423 0 77.7602 16.7952 1306 129.998 1186.01 451.771
2424 0 82.5156 10.9919 907 113.996 1185.51 451.246
2425 0 85.2972 10.0707 859 115.402 1186.05 450.052
2426 0 84.8583 12.3029 1044 113.647 1185.56 446.321
2427 0 90.9339 13.8672 1261 108.806 1185.04 448.701
2428 0 87.5282 12.5902 1102 113.954 1185.58 436.834
2429 0 89.5435 14.7079 1317 131.002 1187.81 440.92
2430 0 89.5547 9.13408 818 117.471 1188.15 442.366
2431 1 102.66 13.1016 1345 111.392 1188.61 437.987
2432 0 104.869 16.554 1736 106.547 1188.99 436.694
2433 0 107.719 12.0592 1299 113.365 1189.67 432.56
2434 0 109.582 14.2542 1562 110.41 1188.97 427.807
2435 0 114.096 13.4799 1538 111.694 1190.08 428.912
2436 0 118.99 15.119 1799 108.64 1189.72 431.628
2437 0 117.598 13.3336 1568 113.744 1190.14 420.282
2438 0 123.931 14.6211 1812 112.533 1189.9 420.738
2439 0 121.935 10.0381 1224 115.276 1189.26 431.313
2440 1 133.759 14.7579 1974 109.928 1191.16 426.495
2441 1 79.477 11.0724 880 109.981 1190.45 450.692
2442 0 80.522 14.6916 1183 105.137 1191.86 448.997
2443 0 82.7292 14.1184 1168 107.117 1191.37 451.924
2444 0 86.5925 13.3268 1154 109.149 1192.01 451.004
2445 0 88.6791 12.2464 1086 111.714 1189.53 449.595
2446 0 92.7248 15.7563 1461 106.822 1190.93 451.186
2447 0 92.7248 15.8641 1471 125.379 1192.94 451.266
2448 0 98.5974 15.0613 1485 108.88 1190.47 447.498
2449 0 103.632 15.9506 1653 108.222 1189.96 444.622
2450 0 102.789 11.1783 1149 116.165 1190.43 444.152
2451 0 108.475 13.2749 1440 114.035 1188.33 439.002
2452 0 112.906 12.2225 1380 115.459 1188.49 441.357
2453 0 117.822 15.8035 1862 110.439 1187.59 440.49
2454 0 120.038 15.9034 1909 109.142 1187.03 444.165
2455 0 125.891 14.8779 1873 111.996 1186.56 437.76
2456 0 128.559 15.1448 1947 111.099 1186.2 436.337
2457 0 128.559 15.1215 1944 136.223 1186.19 436.457
2458 1 83.6336 8.6568 724 110.626 1184.34 462.751
2459 0 82.7197 10.4449 864 109.117 1184.33 460.282
2460 0 80.4436 11.7474 945 110.311 1184.07 454.637
2461 0 84.858 12.244 1039 107.141 1182.95 458.705
2462 0 85.7039 11.143 955 109.514 1183.89 453.462
2463 0 87.7819 15.2081 1335 104.633 1183.11 449.358
2464 0 93.0467 12.929 1203 108.377 1183.65 450.297
2465 0 94.9456 13.9554 1325 107.742 1183.42 451.154
2466 0 93.8852 10.7898 1013 116.115 1183.25 444.787
2467 0 98.7678 13.1723 1301 112.412 1183.6 441.907
2468 0 101.885 12.357 1259 115.538 1184.07 437.263
2469 0 105.139 13.991 1471 113.143 1184.5 435.646
2470 0 104.719 12.1755 1275 117.142 1184.6 436.958
2471 0 110.055 15.2742 1681 113.065 1185.11 433.44
2472 0 113.963 14.2677 1626 115.663 1185.45 428.443
2473 0 118.035 15.8682 1873 112.113 1185.97 432.593
2474 0 120.833 16.1214 1948 112.808 1186.6 426.488
2475 0 123.886 18.3718 2276 110.101 1187.76 424.889
2476 0 125.868 14.825 1866 117.079 1188.32 420.992
2477 0 133.845 16.7433 2241 112.121 1189.37 424.974
2478 0 132.975 13.6041 1809 119.476 1189.36 417.941
2479 0 142.934 17.0569 2438 112.212 1190.22 417.121
2480 1 75.6071 10.6736 807 117.068 1189.09 449.598
2481 0 80.7265 13.5519 1094 111.061 1191.68 448.401
2482 0 82.7091 14.3515 1187 111.928 1191.52 442.468
2483 0 89.4585 15.8174 1415 109.446 1192.02 446.522
2484 0 88.5287 13.2838 1176 115.39 1190.67 442.022
2485 0 91.6963 12.6395 1159 116.779 1191.34 442.019
2486 0 95.8238 16.1025 1543 111.61 1190.95 442.763
2487 0 98.555 14.743 1453 113.714 1190.38 445.888
2488 0 101.85 14.1286 1439 115.013 1190.54 437.095
2489 0 106.654 14.1579 1510 114.618 1190.73 440.766
2490 0 109.642 15.3135 1679 113.214 1190.66 440.372
2491 0 113.584 14.2273 1616 113.129 1189.48 443.116
2492 0 118.841 16.358 1944 109.918 1189.78 441.981
2493 0 122.934 16.09 1978 110.77 1188.56 437.783
2494 0 122.934 16.1876 1990 140.826 1187.56 437.856
2495 0 132.563 15.6077 2069 112.008 1187.79 429.148
2496 0 140.87 14.9145 2101 111.887 1186 433.171
2497 0 144.069 17.2904 2491 109.144 1187.22 428.876
2498 0 147.777 14.5015 2143 112.944 1185.19 427.356
2499 1 85.5039 12.631 1080 111.347 1184.28 455.115
2500 0 86.377 10.1995 881 115.378 1185 456.21
2501 0 91.538 14.3438 1313 109.446 1184.5 450.389
2502 0 94.5815 15.9122 1505 106.799 1184.29 446.118
2503 0 98.427 14.6301 1440 108.196 1184.36 447.936
2504 0 100.474 14.4814 1455 109.131 1184.86 443.536
2505 0 103.384 12.8744 1331 111.204 1185.04 441.288
2506 0 105.367 12.4137 1308 112.884 1184.27 439.73
2507 0 106.377 12.4463 1324 113.532 1184.73 439.213
2508 0 109.288 15.5736 1702 110.407 1185.06 433.433
2509 0 113.57 14.0177 1592 110.294 1184.42 439.191
2510 0 116.627 16.7972 1959 107.651 1184.88 435.163
2511 0 117.433 14.4593 1698 112.545 1184.99 429.243
2512 0 129.47 13.1459 1702 113.88 1185.51 431.018
2513 0 126.751 12.8993 1635 115.635 1185.81 425.508
2514 0 131.342 14.1843 1863 113.762 1186.49 422.493
2515 0 129.331 12.3946 1603 147.18 1186.62 425.393
2516 1 141.488 16.7929 2376 110.011 1187.4 416.506
2517 1 78.366 12.1226 950 105.735 1189.45 453.463
2518 0 82.4913 10.6193 876 109.436 1190 447.361
2519 0 84.2523 13.2578 1117 108.129 1189.49 445.387
2520 0 86.3328 11.1082 959 111.268 1190.86 444.731
2521 0 86.5477 11.9703 1036 112.199 1191.55 442.522
2522 0 90.4118 14.4229 1304 109.171 1190.12 437.389
2523 0 94.2478 11.8836 1120 112.807 1192.5 442.436
2524 0 96.2072 17.8261 1715 105.751 1190.67 440.743
2525 0 103.536 17.4045 1802 105.582 1192.85 439.202
2526 0 106.355 15.2508 1622 109.188 1191.66 439.252
2527 0 110.377 15.7913 1743 108.732 1191.58 437.52
2528 0 111.357 17.3496 1932 107.171 1191.07 435.525
2529 0 118.578 16.487 1955 106.863 1190.52 441.24
2530 0 119.864 13.5737 1627 112.499 1190.4 438.583
2531 0 128.486 16.78 2156 105.65 1190.69 440.5
2532 1 74.35 11.6745 868 107.321 1189.88 463.207
2533 0 78.4568 10.7703 845 108.021 1189.66 462.505
2534 0 79.4028 13.7527 1092 104.883 1190.15 463.147
2535 0 82.3078 10.5458 868 104.669 1186.75 457.577
2536 0 82.1449 11.7841 968 104.991 1187.45 451.489
2537 0 83.1284 12.4025 1031 102.817 1188.06 457.684
2538 0 88.0748 14.3855 1267 102.063 1186.66 448.039
2539 0 91.2397 10.9711 1001 106.926 1186.52 447.706
2540 0 90.1608 12.1006 1091 104.962 1185.43 450.799
2541 0 98.1638 13.7016 1345 103.714 1185.5 444.488
2542 0 101.176 12.6809 1283 104.357 1184.59 443.513
2543 0 105.167 11.4389 1203 105.682 1184.57 440.875
2544 0 104.199 12.9464 1349 104.828 1184.2 441.308
2545 0 108.211 14.98 1621 103.037 1184.97 436.688
2546 0 113.204 12.2522 1387 107.357 1185.57 435.399
2547 0 118.275 13.1811 1559 105.169 1184.67 436.135
2548 0 118.33 11.0031 1302 110.671 1184.54 424.949
2549 0 126.162 13.9186 1756 105.785 1183.58 428.76
2550 0 128.323 13.544 1738 105.946 1184.36 426.976
2551 0 124.3 9.17136 1140 113.233 1184.72 419.097
2552 0 136.336 12.4179 1693 108.872 1184.61 417.888
2553 0 140.658 10.3372 1454 112.1 1186 410.083
2554 1 81.1271 6.75483 548 108.993 1185.72 451.078
2555 0 81.1617 10.4483 848 110.52 1188.46 440.501
2556 0 84.1872 9.95401 838 111.928 1186.41 436.634
2557 0 90.1956 13.1381 1185 102.252 1187.76 441.362
2558 0 90.1956 13.1159 1183 123.489 1188.76 441.547
2559 0 95.7465 11.6871 1119 104.226 1189.84 436.628
2560 0 95.7465 11.708 1121 124.44 1190.84 436.453
2561 0 96.1532 6.33364 609 111.535 1189.73 437.271
2562 0 105.307 15.5071 1633 100.126 1191.02 440.077
2563 0 109.331 13.1436 1437 105.07 1189.67 431.599
2564 0 117.319 11.8822 1394 106.147 1191.1 430.702
2565 0 118.528 11.7103 1388 106.684 1190.88 433.925
2566 0 112.364 5.80256 652 117.804 1190.58 418.104
2567 1 229.775 12.8778 2959 110.742 1191.66 382.348
2568 1 73.1201 14.5788 1066 102.809 1193.32 460.553
2569 0 78.2859 11.8157 925 104.414 1191.43 453.59
2570 0 81.398 10.5039 855 105.959 1191.03 458.032
2571 0 81.2645 11.4687 932 104.411 1190.63 455.462
2572 0 86.4183 12.9834 1122 102.398 1190.75 455.868
2573 0 92.4057 14.5337 1343 100.295 1189.09 454.832
2574 0 93.3805 12.4009 1158 104.357 1189.02 452.872
2575 0 96.5405 13.124 1267 104.334 1188 452.582
2576 0 95.3103 10.9012 1039 108.918 1187.41 449.325
2577 0 97.2583 10.8783 1058 106.634 1185.48 455.717
2578 0 97.2597 12.4101 1207 133.249 1184.37 453.278
2579 0 106.324 13.0732 1390 106.547 1184.8 446.345
2580 0 108.151 13.4997 1460 106.624 1183.76 438.879
2581 0 114.571 11.1546 1278 110.326 1183.65 438.402
2582 0 118.512 15.1546 1796 105.748 1183.6 436.856
2583 0 120.405 16.0541 1933 104.996 1183.18 435.396
2584 1 109.265 9.76526 1067 113.89 1181.7 432.054
2585 1 75.2642 5.6202 423 111.452 1182.54 453.671
2586 0 78.338 16.1225 1263 98.7878 1181.07 450.155
2587 0 78.3458 11.3599 890 105.262 1184.3 451.081
2588 0 81.2758 12.353 1004 104.922 1183.51 448.534
2589 0 81.2758 12.2669 997 140.539 1181.51 448.397
2590 0 81.2954 12.1532 988 140.432 1179.53 448.203
2591 0 86.3977 16.2273 1402 96.5193 1183.36 446.627
2592 0 90.5385 16.689 1511 96.2568 1184.48 446.744
2593 0 91.261 13.6422 1245 100.767 1185.18 444.722
2594 0 94.8463 17.27 1638 96.5977 1185.43 433.102
2595 0 97.4236 15.3967 1500 98.22 1186.72 445.233
2596 0 102.495 15.9129 1631 97.9307 1185.44 441.809
2597 0 100.457 13.9164 1398 102.73 1186.33 432.109
2598 0 100.457 13.8467 1391 131.162 1188.32 432.191
2599 0 109.478 14.3225 1568 101.038 1188.18 433.61
2600 0 112.781 15.9601 1800 101.627 1188.46 434.407
2601 0 114.278 15.5498 1777 103.149 1188.28 427.176
2602 0 115.294 12.8974 1487 106.933 1189.49 432.038
2603 0 122.415 15.9294 1950 103.016 1190.88 425.094
2604 0 125.361 16.7436 2099 102.117 1191.37 429.964
2605 0 132.76 15.4715 2054 103.195 1189.85 420.075
2606 0 134.542 15.0957 2031 102.558 1191.06 421.984
2607 0 139.021 11.5162 1601 104.412 1189.8 426.381
2608 0 139.021 11.6097 1614 147.688 1189.8 426.273
2609 0 141.453 10.9648 1551 108.135 1190.01 426.712
2610 1 82.6694 10.5359 871 105.459 1188.42 454.006
2611 0 84.4026 17.4047 1469 97.7481 1188.99 459.593
2612 0 87.4654 13.6397 1193 104.789 1189.51 450.81
2613 0 93.4409 17.3265 1619 100.508 1189.58 449.946
2614 0 96.5636 16.4037 1584 102.092 1189.36 449.145
2615 0 99.8123 16.8216 1679 101.858 1188.81 450.03
2616 0 102.599 15.2048 1560 101.829 1188.04 453.843
2617 0 105.297 14.4828 1525 106.306 1187.21 443.416
2618 0 107.703 13.8344 1490 107.336 1186.34 443.628
2619 0 115.795 14.7243 1705 105.175 1185.37 442.923
2620 0 118.679 13.9789 1659 106.231 1184.89 441.668
2621 0 122.649 17.3421 2127 103.187 1185.37 434.462
2622 0 122.649 17.2361 2114 137.027 1185.37 434.466
2623 0 128.677 13.7864 1774 107.602 1183.24 430.56
2624 0 137.98 15.0457 2076 106.028 1183.33 424.847
2625 0 144.813 17.6089 2550 102.663 1183.06 415.007
2626 0 146.674 14.9925 2199 105.972 1182.95 421.895
2627 1 85.7149 14.5132 1244 100.4 1183.05 450.797
2628 0 88.4929 13.4361 1189 102.503 1182.04 450.439
2629 0 96.8885 15.9874 1549 97.1117 1182.56 451.558
2630 0 93.1674 12.9122 1203 103.532 1184.19 448.658
2631 0 97.5605 14.0016 1366 102.201 1184.18 442.355
2632 0 99.4394 15.0041 1492 101.536 1184.85 438.679
2633 0 106.408 15.4782 1647 100.736 1184.64 436.613
2634 0 105.63 16.1696 1708 100.02 1185.52 439.446
2635 0 105.63 16.0655 1697 135.709 1185.51 439.404
2636 0 113.58 15.0467 1709 103.016 1186.43 431.696
2637 0 113.58 15.0643 1711 144.186 1188.43 431.725
2638 1 66.3189 12.5454 832 98.7548 1187.77 457.928
2639 0 70.3073 13.2276 930 96.8269 1188.48 457.317
2640 0 73.3369 14.6857 1077 96.3565 1190.65 456.767
2641 0 70.1034 8.92966 626 105.184 1190.39 453.788
2642 1 91.4117 14.4949 1325 96.0498 1191.26 443.81
2643 0 92.546 13.442 1244 95.7532 1194.2 452.445
2644 0 95.4692 14.5701 1391 96.2293 1192.89 445.052
2645 0 99.6449 12.7954 1275 98.6808 1193.03 442.111
2646 0 99.5602 10.0442 1000 102.292 1192.47 446.091
2647 0 106.363 16.3403 1738 94.5765 1191.33 448.24
2648 0 108.459 12.7974 1388 97.9589 1191.13 448.983
2649 0 112.666 16.5001 1859 95.8521 1190.8 447.353
2650 0 114.42 11.7287 1342 101.046 1189.94 440.54
2651 0 120.755 12.4301 1501 100.668 1189.62 438.485
2652 0 128.631 16.901 2174 95.3022 1190.68 440.58
2653 0 128.437 13.6487 1753 99.5043 1188.41 445.591
2654 0 128.437 13.7343 1764 132.474 1186.38 445.774
2655 0 137.633 15.0327 2069 100.178 1186.33 427.798
2656 1 83.2108 12.919 1075 95.7246 1186.28 462.255
2657 0 85.1268 11.4418 974 99.0729 1184.62 451.467
2658 0 88.6348 14.4187 1278 96.0548 1184.93 457.909
2659 0 91.3303 15.0224 1372 96.6706 1184.1 454.873
2660 0 93.763 11.0918 1040 102.442 1184.04 447.612
2661 0 97.7313 12.6265 1234 99.2958 1182.91 448.693
2662 0 98.5701 12.9552 1277 101.192 1181.36 442.758
2663 0 102.817 13.5192 1390 101.063 1182.49 437.473
2664 0 109.712 14.9847 1644 98.997 1182.1 441.593
2665 0 109.481 13.8472 1516 102.733 1182.42 433.119
2666 0 111.669 15.8773 1773 99.7315 1182.81 437.797
2667 0 118.829 14.4998 1723 101.468 1183.14 436.225
2668 0 123.022 15.5419 1912 101.551 1182.94 426.701
2669 0 125.591 14.4039 1809 102.656 1182.09 431.011
2670 0 127.082 15.9582 2028 100.721 1184.42 429.653
2671 0 132.856 16.7701 2228 100.316 1183.97 422.62
2672 0 136.73 15.8634 2169 100.058 1185.14 426.552
2673 0 140.887 12.4922 1760 103.432 1184.68 423.311
2674 0 144.751 13.9965 2026 103.942 1185.44 412.547
2675 1 85.6239 9.58845 821 98.6614 1185.69 451.97
2676 0 88.6094 12.4592 1104 95.8415 1186.82 451.745
2677 0 88.4022 10.769 952 99.9548 1186.99 440.58
2678 0 92.7412 11.2679 1045 98.7742 1187.2 438.413
2679 0 97.5002 15.0154 1464 94.7438 1188 437.143
2680 0 99.553 13.2995 1324 97.8739 1188.16 436.384
2681 0 102.604 13.2549 1360 99.0265 1189.06 438.058
2682 0 105.496 12.3986 1308 100.36 1188.89 431.3
2683 0 106.451 11.517 1226 100.885 1187.9 434.126
2684 0 112.805 12.269 1384 100.199 1190.11 434.433
2685 0 115.752 15.4728 1791 97.1647 1188.62 432.917
2686 0 119.794 13.9072 1666 98.5138 1189.35 431.484
2687 0 124.176 13.2393 1644 99.6277 1188.28 429.376
2688 0 123.977 12.9783 1609 99.6824 1189.34 432.242
2689 0 128.818 12.0247 1549 101.628 1188.55 426.836
2690 0 135.474 13.5893 1841 98.3965 1188.52 425.669
2691 0 139.066 15.1439 2106 95.6752 1188.86 425.073
2692 0 146.25 13.5589 1983 97.3212 1189.22 422.774
2693 1 84.6689 13.7122 1161 90.5711 1188.42 460.572
2694 0 87.8225 8.66521 761 93.933 1188.84 463.715
2695 0 90.8579 18.3583 1668 86.7458 1187.76 460.893
2696 0 92.3636 16.9547 1566 89.2056 1188.39 459.001
2697 0 96.2777 18.5193 1783 87.6568 1188.13 459.932
2698 0 97.3472 13.5905 1323 94.1958 1186.71 448.634
2699 0 100.631 14.5084 1460 91.1644 1186.89 451.542
2700 0 102.486 12.07 1237 94.3816 1187.4 445.318
2701 0 102.203 11.438 1169 96.3285 1184.76 438.368
2702 0 109.935 14.9362 1642 89.771 1184 443.892
2703 0 110.946 17.9186 1988 79.9084 1183.52 452.225
2704 0 110.946 18.0718 2005 121.55 1182.5 452.235
2705 0 118.902 17.4597 2076 81.9104 1182.65 442.117
2706 0 121.781 15.8891 1935 84.6155 1182.66 433.501
2707 0 124.976 19.8839 2485 79.5175 1181.53 447.659
2708 0 127.24 14.7752 1880 86.5718 1182.45 431.764
2709 0 128.971 14.2203 1834 86.2704 1182.63 434.538
2710 0 137.958 26.1529 3608 78.704 1181.55 429.942
2711 0 137.935 13.6442 1882 88.3693 1183.81 428.332
2712 0 141.996 16.0286 2276 86.3392 1183.06 429.324
2713 0 146.934 17.8516 2623 84.6321 1183.74 432.369
2714 0 151.23 18.6404 2819 86.7403 1183.77 414.885
2715 0 154.257 15.2732 2356 90.3362 1184.71 414.998
2716 1 162.858 15.4244 2512 90.0462 1184.98 420.143
2717 0 160.757 21.9338 3526 85.6957 1184.28 416.065
2718 0 166.853 13.8865 2317 92.5274 1186.9 413.013
2719 0 170.049 20.7176 3523 87.308 1186.56 410.215
2720 0 180.949 15.3137 2771 92.0116 1186.91 406.742
2721 0 183.923 19.7366 3630 88.6824 1187.1 393.975
2722 0 187.062 16.6843 3121 92.5848 1188.6 383.872
2723 0 194.113 19.7153 3827 89.0089 1188.1 397.014
2724 1 117.417 9.67489 1136 93.2183 1188.85 435.597
2725 0 120.393 15.6073 1879 87.8728 1189.22 436.857
2726 0 124.471 12.0831 1504 93.3112 1187.69 418.058
2727 0 133.257 16.0366 2137 89.6654 1188.39 413.759
2728 0 133.925 12.1336 1625 91.1108 1188.98 421.706
2729 0 135.845 14.0086 1903 89.9601 1190.84 417.484
2730 0 141.407 23.4854 3321 82.1674 1189.78 430.067
2731 0 150.695 14.5261 2189 86.0507 1189.81 436.951
2732 0 153.645 18.4451 2834 84.7036 1190.04 430.521
2733 0 156.79 12.6602 1985 91.4962 1187.85 410.562
2734 0 163.768 14.5816 2388 88.0921 1188.43 418.636
2735 0 166.764 17.4558 2911 88.1536 1187.78 404.885
2736 0 171.74 12.0822 2075 92.2506 1187.52 410.031
2737 1 101.44 12.0761 1225 89.4433 1186.23 440.48
2738 0 112.567 10.8647 1223 89.2028 1186.38 440.102
2739 0 111.208 10.5388 1172 92.6681 1186.26 431.237
2740 0 118.695 23.0843 2740 81.4281 1185.73 434.741
2741 0 120.315 11.0543 1330 93.479 1184.25 426.982
2742 0 125.448 13.5594 1701 89.1981 1182.98 440.214
2743 0 127.473 15.1483 1931 88.8322 1182.98 433.34
2744 0 133.473 13.6132 1817 90.858 1183.43 417.782
2745 0 136.594 14.7956 2021 88.385 1183.65 432.507
2746 0 140.588 15.2858 2149 88.4644 1183.59 430.223
2747 0 142.536 12.9862 1851 89.7936 1183.31 423.911
2748 0 147.65 13.3153 1966 90.8856 1181.99 415.669
2749 0 151.654 15.5353 2356 88.6558 1183.45 421.756
2750 0 158.588 17.1577 2721 87.0779 1182.81 419.225
2751 0 164.854 18.4952 3049 86.0761 1183.86 414.431
2752 0 166.645 14.1139 2352 91.2232 1183.82 398.551
2753 0 174.999 16.8058 2941 89.4543 1183.31 392.982
2754 0 174.999 16.8058 2941 143.635 1183.31 393.218
2755 0 180.82 16.392 2964 96.7665 1183.51 388.001
2756 0 185.651 16.6441 3090 96.4964 1184.84 389.981
2757 1 195.928 16.1897 3172 97.1207 1184.17 380.082
2758 0 196.943 15.2786 3009 99.4533 1185.74 368.368
2759 0 202.576 12.1238 2456 103.052 1186.63 375.241
2760 0 206.225 14.1447 2917 99.9883 1187.33 378.961
2761 0 212.802 16.903 3597 98.1868 1187.49 365.411
2762 0 220.782 18.4752 4079 96.3243 1187.66 364.838
2763 0 227.028 14.4784 3287 101.19 1189.09 360.576
2764 1 240.078 11.5462 2772 104.441 1189.77 355.096
2765 0 240.838 19.5733 4714 96.1619 1190.33 357.473
2766 1 18.0243 5.27067 95 83.9579 1186.66 469.926
2767 0 24.1818 11.0413 267 79.2022 1189.2 466.502
2768 0 23.089 9.91812 229 90.4891 1192.26 465.393
2769 1 11.0163 9.07745 100 77.93 1186.95 476.49
2770 0 13.0065 5.92014 77 82.8571 1189.95 470.805
2771 0 15.0227 7.18914 108 79.5185 1188.49 479.139
2772 0 13.0395 3.75782 49 82.7551 1189.33 476.163
2773 0 18.0753 6.58356 119 76.0756 1187.23 487.042
2774 0 16.0932 1.73987 28 84.2857 1189.43 482.071
2775 0 7.00112 4.9992 35 79.8286 1188.09 484.171
2776 0 11.0094 3.90574 43 80.7209 1187.91 484.186
2777 0 345.12 19.5468 6746 98.2194 1190.33 307.872
2778 0 349.32 19.0084 6640 97.5667 1190.62 328.523
2779 0 353.21 13.366 4721 104.875 1190.76 319.273
2780 0 306.149 17.2922 5294 100.185 1190.33 320.365
2781 0 316.326 14.1658 4481 104.537 1190.52 325.663
2782 0 327.936 13.9997 4591 104.523 1189.6 309.342
2783 0 340.143 24.8189 8442 91.1387 1189.06 307.054
2784 1 9.00081 2.99973 27 83.4444 1190.56 487.963
2785 0 7.001 4.71362 33 80.4545 1191.24 488.424
2786 0 12.0015 6.41586 77 78.8701 1191.18 484.714
