time division length width area intensity CMx CMy
0 0 65.1455 14.6748 956 150.615 1272.02 458.188
1 0 65.1428 14.6601 955 150.212 1271.01 458.191
2 0 65.1475 14.6591 955 149.86 1270.01 458.191
3 0 65.1316 15.9677 1040 145.725 1269.14 457.026
4 0 65.1316 15.9677 1040 145.647 1268.14 457.026
5 1 38.0553 14.584 555 123.604 1267.85 475.31
6 0 38.0553 14.6103 556 140.545 1267.85 475.209
7 0 40.1827 17.6195 708 121.891 1266.05 472.749
8 0 39.1144 13.4222 525 126.45 1266.77 473.507
9 0 38.1515 15.5695 594 130.189 1266.82 474.019
10 0 40.0879 12.3479 495 139.848 1264.4 471.143
11 0 41.021 13.9197 571 132.177 1263.84 471.478
12 0 43.1741 15.0321 649 130.393 1263.49 468.914
13 0 45.1336 16.2628 734 123.042 1262.53 466.835
14 0 46.0765 14.7146 678 128.291 1263.08 465.417
15 0 50.2446 13.9318 700 125.487 1263.23 465.31
16 0 48.1789 15.1103 728 123.941 1263.52 460.913
17 0 50.3054 16.1812 814 125.445 1263.16 461.263
18 0 53.2446 14.6681 781 129.179 1262.84 459.661
19 0 52.1081 13.779 718 129.645 1263.44 459.911
20 0 55.1171 15.4217 850 123.58 1263.08 456.099
21 0 58.1014 15.7139 913 120.939 1264.26 456.634
22 0 59.0875 16.941 1001 122.465 1263.59 453.367
23 0 64.1751 17.4211 1118 119.95 1265.6 453.508
24 0 63.2003 18.7974 1188 119.663 1265.93 449.418
25 0 64.1918 14.8461 953 127.494 1266.31 448.094
26 0 68.1311 19.0662 1299 118.293 1267.27 445.82
27 0 70.1259 16.1424 1132 124.064 1267.31 446.668
28 0 73.1655 15.3351 1122 124.755 1268.11 444.667
29 0 74.1195 16.6623 1235 122.948 1269.35 441.957
30 0 78.109 16.4002 1281 122.77 1269.07 440.92
31 0 82.294 17.6441 1452 120.207 1270.56 443.496
32 0 81.1732 13.773 1118 128.318 1271.35 439.367
33 0 85.1682 15.1348 1289 125.849 1272.06 441.346
34 0 89.0817 16.3221 1454 122.735 1272.51 437.801
35 0 91.3031 17.6117 1608 120.462 1273.35 438.724
36 0 94.3013 17.794 1678 119.746 1274.65 438.715
37 0 98.4649 17.2752 1701 117.688 1275.68 437.832
38 0 101.403 16.3112 1654 118.715 1276.79 436.368
39 0 105.519 17.9683 1896 115.52 1276.76 439.752
40 0 109.218 16.2335 1773 117.696 1276.89 434.813
41 0 115.308 25.1848 2904 107.405 1276.16 432.486
42 0 118.215 21.3424 2523 109.458 1276.41 435.66
43 0 119.266 16.5177 1970 119.155 1276.1 428.481
44 0 127.387 22.4906 2865 106.496 1275.55 425.833
45 1 56.1822 11.2135 630 121.986 1275.57 459.757
46 0 62.1953 13.3933 833 132.166 1275.53 459.784
47 0 65.2599 14.6491 956 131.703 1275.12 457.42
48 0 68.2014 19.1198 1304 120.922 1273.51 456.538
49 0 71.1501 15.9381 1134 128.529 1272.91 457.26
50 0 73.3278 16.133 1183 125.36 1272.07 460.606
51 0 77.256 18.4969 1429 125.535 1271.34 455.47
52 0 77.2257 15.8626 1225 132.358 1270.41 453.647
53 0 80.2046 15.7348 1262 132.504 1269.29 451.092
54 0 84.3902 16.3171 1377 130.277 1268.62 450.061
55 0 86.4279 17.02 1471 128.118 1268.07 447.339
56 0 89.4435 15.7082 1405 131.115 1267.38 444.15
57 0 95.4637 17.3574 1657 126.909 1267.41 439.41
58 0 97.244 18.1399 1764 125.055 1266.86 441.024
59 0 102.476 16.7258 1714 126.698 1267.63 439.961
60 0 102.373 16.8501 1725 147.634 1268.64 440.02
61 1 53.1068 13.5011 717 125.94 1265.45 460.112
62 0 53.0752 14.6584 778 127.063 1266.12 459.614
63 0 53.0947 13.2593 704 128.666 1266.84 457.32
64 0 57.0598 15.5276 886 120.009 1265.95 459.078
65 0 57.1318 14.1953 811 125.271 1266.04 454.287
66 0 60.1506 13.8486 833 125.568 1265.99 454.265
67 0 63.2214 16.9405 1071 120.444 1266.59 452.441
68 0 63.2839 13.3051 842 128.507 1266.38 450.04
69 0 69.2427 13.1999 914 126.568 1267.47 449.525
70 0 68.264 15.1031 1031 126.448 1267.4 448.317
71 0 71.3229 14.8059 1056 126.654 1269.03 447.79
72 0 73.1361 14.9994 1097 127.049 1269.31 445.465
73 0 76.1993 13.5434 1032 129.068 1269.66 446.037
74 0 79.3131 14.7012 1166 127.49 1269.59 443.978
75 0 79.2557 12.7309 1009 131.409 1269.88 444.61
76 0 82.2898 15.1781 1249 127.241 1269.55 442.69
77 0 86.143 14.8242 1277 126.108 1270.81 443.195
78 0 90.1126 16.4128 1479 123.366 1271.24 441.636
79 0 93.3381 14.0779 1314 128.447 1271.5 438.418
80 1 52.1451 13.3474 696 123.993 1272 461.622
81 0 52.111 13.1258 684 124.595 1272.6 460.406
82 0 53.1449 13.0963 696 121.575 1272.46 465.096
83 0 58.3839 14.4389 843 124.508 1271.63 461.168
84 0 58.2775 14.1049 822 123.498 1272.06 460.377
85 0 61.169 13.9286 852 123.248 1271.1 463.174
86 0 62.1726 14.6849 913 123.823 1271.3 462.286
87 0 64.2232 14.434 927 123.395 1270.62 462.618
88 0 67.3208 15.6118 1051 125.267 1271.18 460.179
89 0 68.3641 13.8816 949 129.117 1270.16 458.061
90 0 72.1155 13.728 990 127.423 1269.69 459.728
91 0 73.3009 13.1513 964 130.397 1269.85 458.869
92 0 76.0953 12.9311 984 128.788 1269.18 457.556
93 0 77.2316 11.3555 877 130.743 1268.52 459.025
94 0 83.2832 14.2166 1184 127.438 1267.98 455.685
95 0 83.3715 13.6617 1139 129.613 1267.23 453.486
96 0 89.2401 16.3043 1455 123.726 1267.06 454.338
97 1 42.0668 9.67509 407 129.941 1265.84 474.243
98 0 42.0668 9.65132 406 140.384 1264.81 474.091
99 0 48.2086 15.7233 758 119.88 1265.19 472.625
100 0 48.184 14.1748 683 120.139 1263.97 471.275
101 0 49.0881 15.1768 745 119.421 1262.83 466.599
102 0 50.264 13.071 657 124.065 1262.14 465.289
103 0 53.0975 12.091 642 125.335 1262.13 464.743
104 0 55.0565 12.6779 698 123.405 1262.15 462.686
105 0 58.1048 15.1278 879 119.499 1261.89 462.144
106 0 59.0636 14.7299 870 119.956 1261.9 459.407
107 0 62.0782 15.2872 949 117.888 1262.65 459.601
108 0 63.2149 13.114 829 123.09 1262.17 456.46
109 0 68.3598 16.5009 1128 116.878 1263.06 453.934
110 0 66.5446 14.1108 939 122.65 1263.23 453.142
111 0 68.2323 12.3402 842 126.145 1263.37 450.525
112 0 71.367 14.4605 1032 121.155 1264.6 451.18
113 0 75.3955 14.3377 1081 122.907 1265.44 445.495
114 0 77.4034 13.3844 1036 125.097 1265.28 445.92
115 0 75.1858 11.0925 834 131.588 1266.32 442.101
116 0 82.4653 13.5572 1118 126.139 1267.58 441.524
117 0 85.3866 14.3582 1226 125.281 1268.03 440.598
118 0 87.4833 13.3397 1167 126.227 1268.84 441.323
119 1 51.174 12.9363 662 121.417 1268.91 460.301
120 0 46.2332 11.5502 534 122.322 1271.14 460.294
121 0 51.1075 12.4248 635 117.794 1272.27 463.118
122 0 55.1239 12.6261 696 118.961 1272.26 459.562
123 0 53.0697 14.415 765 117.761 1272.99 458.157
124 0 54.1168 14.247 771 120.687 1269.54 460.298
125 0 54.0643 11.4308 618 126.047 1269.94 459.895
126 0 58.1102 12.4591 724 123.246 1269.56 459.374
127 0 58.2065 13.2631 772 121.591 1270.14 460.339
128 0 62.2366 13.9789 870 119.733 1270.73 461.876
129 0 64.1979 14.5176 932 119.076 1269.98 461.052
130 0 68.1542 18.3408 1250 113.054 1270.17 462.417
131 0 68.098 15.698 1069 118.417 1269.36 460.514
132 0 72.3492 14.6926 1063 121.568 1270.06 459.437
133 0 73.2779 15.1888 1113 122.156 1269.54 461.327
134 0 74.2466 16.5934 1232 120.957 1268.57 459.755
135 0 76.1735 11.6313 886 128.755 1267.71 461.534
136 0 80.2574 14.1669 1137 125.651 1266.2 457.934
137 0 82.2138 15.703 1291 123.98 1267.91 454.685
138 0 84.3694 16.2618 1372 122.932 1266.74 454.772
139 0 85.3633 18.6731 1594 135.76 1266.84 457.441
140 0 89.2925 11.6471 1040 132.426 1264.42 453.34
141 0 90.381 14.0295 1268 129.675 1265.56 450.996
142 1 51.4196 12.1549 625 127.587 1266.04 466.938
143 0 51.2711 17.3587 890 120.173 1265.03 465.975
144 0 52.1355 14.0595 733 123.57 1265.28 462.809
145 0 53.0937 13.2784 705 125.245 1263.77 464.8
146 0 55.0965 14.6289 806 122.2 1261.59 464.711
147 0 55.1088 11.6315 641 127.487 1261.2 464.237
148 0 59.0587 13.8337 817 122.562 1260.53 464.114
149 0 63.1258 15.7939 997 117.425 1260.46 461.936
150 0 63.1368 15.7119 992 132.426 1259.49 461.901
151 0 63.2262 14.8356 938 121.603 1261.8 454.409
152 0 65.2018 14.6622 956 120.517 1262.28 455.98
153 0 66.1989 14.4867 959 121.488 1262.49 451.906
154 0 67.3335 11.8515 798 126.669 1262.24 449.746
155 0 73.1587 15.2135 1113 120.055 1262.73 447.185
156 0 75.1528 13.1865 991 124.571 1262.87 445.126
157 0 79.1359 15.227 1205 119.046 1263.09 445.366
158 0 82.1063 15.0537 1236 118.652 1264.28 442.1
159 0 84.0632 15.4764 1301 118.465 1265.98 442.41
160 0 86.2722 13.6776 1180 120.546 1265.64 441.064
161 0 88.102 12.0996 1066 123.228 1268.39 441.675
162 1 47.0204 12.5052 588 120.469 1265.46 459.415
163 0 48.1293 13.0274 627 119.724 1269.51 461.27
164 0 49.0789 12.8365 630 121.311 1270 459.454
165 0 49.0809 12.6322 620 119.347 1268.87 458.189
166 0 52.0982 13.4362 700 119.477 1269.48 457.937
167 0 56.0843 15.0488 844 115.194 1270.21 460.348
168 0 57.2224 12.565 719 120.051 1270.01 458.277
169 0 57.2224 12.5825 720 145.29 1271.02 458.2
170 0 59.051 13.1073 774 120.183 1269.97 460.008
171 0 62.033 13.2026 819 119.211 1270.32 459.75
172 0 62.1316 14.7912 919 117.416 1270.08 459.905
173 0 66.3258 15.2128 1009 116.203 1269.55 458.463
174 0 68.0754 13.9404 949 118.77 1269.45 460.525
175 0 70.0893 15.2092 1066 116.966 1268.48 458.894
176 0 73.1574 16.3073 1193 114.873 1268.42 458.931
177 0 76.1339 14.3694 1094 114.509 1268.12 460.227
178 0 76.123 15.2648 1162 113.055 1267.18 456.553
179 0 80.1393 16.7958 1346 111.763 1267.37 450.62
180 0 84.2382 16.5602 1395 112.691 1266.24 453.476
181 0 87.2344 13.1256 1145 119.609 1265.68 453.114
182 0 88.2928 13.3986 1183 119.003 1265.23 451.931
183 0 91.1144 14.3446 1307 113.406 1265.76 453.911
184 0 97.4135 16.6301 1620 111.046 1264.4 449.583
185 0 100.351 18.6943 1876 109.073 1265.2 441.495
186 0 103.425 15.5088 1604 114.002 1264.38 444.53
187 0 106.488 14.8843 1585 115.45 1263.08 442.003
188 1 57.349 15.7631 904 109.001 1263.41 461.355
189 0 58.2742 12.1151 706 113.721 1262.03 462.712
190 0 58.2356 11.1444 649 116.589 1262.35 460.028
191 0 60.1072 11.3131 680 114.232 1261.64 464.488
192 0 61.3111 11.7108 718 116.118 1259.95 458.96
193 0 64.2493 13.0585 839 116.174 1260.11 458.483
194 0 65.1302 19.9293 1298 103.065 1259.38 463.458
195 0 67.1537 12.9256 868 115.969 1260.23 457.815
196 0 68.1903 12.2451 835 119.253 1260.71 454.377
197 0 72.094 16.964 1223 112.725 1261.21 451.758
198 0 75.0848 16.3016 1224 115.457 1262.11 449.748
199 0 79.3218 15.0148 1191 116.458 1263.36 448.139
200 0 81.0811 16.2923 1321 115.164 1264.16 446.239
201 0 83.1555 16.5954 1380 115.89 1264.38 442.292
202 0 84.2612 14.0041 1180 119.341 1264.52 443.208
203 0 89.3755 13.9076 1243 117.405 1265.02 446.581
204 0 89.2701 11.6612 1041 124.12 1264.95 439.708
205 0 98.6285 17.4899 1725 112.343 1266.47 439.357
206 0 99.4984 15.0957 1502 118.099 1267.01 434.395
207 0 99.4984 14.9751 1490 152.716 1267.03 434.363
208 0 106.506 15.2104 1620 117.257 1268.1 440.893
209 0 108.233 16.0026 1732 119.268 1269.17 435.219
210 0 110.537 14.1854 1568 124.007 1269.09 431.468
211 1 56.1228 13.2032 741 118.497 1270.56 460.487
212 0 61.1934 13.2857 813 116.474 1271.27 458.835
213 0 62.188 12.4944 777 117.624 1271.04 459.631
214 0 65.0816 18.1157 1179 108.082 1269.22 463.168
215 0 64.1801 12.4182 797 119.064 1268.97 461.747
216 0 68.1105 19.2041 1308 106.748 1269.43 466.09
217 0 69.0833 16.4439 1136 115.366 1268.78 461.914
218 0 71.2457 15.0465 1072 117.314 1269.15 463.076
219 0 76.1845 18.2058 1387 111.877 1268.61 463.396
220 0 78.3089 15.4005 1206 117.802 1267.43 460.863
221 0 81.2021 15.4676 1256 115.943 1267.32 462.759
222 0 81.3124 14.598 1187 119.238 1266.3 458.503
223 0 82.1543 13.0973 1076 121.38 1265.82 461.744
224 0 89.3457 14.5278 1298 118.211 1265.1 456.587
225 0 91.1327 15.6036 1422 118.06 1263.72 454.852
226 0 95.2663 18.9889 1809 110.968 1263.82 458.145
227 1 46.0647 12.4173 572 123.509 1261.15 475.03
228 0 51.1012 11.3305 579 122.553 1261.21 475.442
229 0 51.1923 10.3141 528 126.795 1261.55 473.134
230 0 54.2984 14.936 811 114.236 1260.17 471.264
231 0 56.1207 21.0439 1181 104.277 1260.16 470.489
232 0 59.1682 17.6108 1042 109.057 1259.98 468.43
233 0 62.4038 20.0148 1249 103.806 1260.57 469.173
234 0 59.189 15.9489 944 113.93 1259.72 464.203
235 0 62.3332 13.7166 855 116.343 1260.64 464.477
236 0 61.256 12.6681 776 119.826 1260.61 460.986
237 0 66.1774 13.9474 923 116.913 1259.24 458.443
238 0 67.2873 16.8977 1137 111.899 1259.71 456.964
239 0 71.2203 15.5012 1104 115.03 1260.06 453.113
240 0 80.3462 15.1967 1221 112.962 1261.37 452.781
241 0 75.2426 15.5763 1172 115.214 1260.6 448.598
242 0 81.1742 18.9469 1538 109.384 1261.79 446.012
243 0 82.2664 14.9514 1230 116.124 1262.5 446.803
244 0 85.1941 15.717 1339 113.842 1262.19 447.135
245 0 85.184 15.1202 1288 116.926 1263.5 440.604
246 0 90.2503 18.6814 1686 111.421 1263.1 441.855
247 0 96.2636 19.1661 1845 109.811 1263.89 439.731
248 0 96.2636 19.1661 1845 130.644 1263.87 439.76
249 1 51.1469 12.3761 633 122.359 1265.9 460.804
250 0 52.1324 13.7534 717 118.827 1267.27 462.598
251 0 55.2201 13.0025 718 119.241 1266.59 460.613
252 0 56.0967 14.9207 837 115.259 1268.43 460.239
253 0 59.1689 16.9515 1003 110.222 1269.08 464.042
254 0 56.1833 19.65 1104 108.2 1268.33 463.602
255 0 59.1427 17.6015 1041 113.004 1268.88 462.378
256 0 60.2271 14.4951 873 118.212 1268.02 461.375
257 0 65.1703 16.618 1083 114.232 1269.19 458.118
258 0 66.289 16.9862 1126 114.049 1267.58 458.767
259 0 68.1994 13.2992 907 119.805 1268.27 460.013
260 0 70.2422 15.8594 1114 115.51 1268.42 461.074
261 0 72.1397 15.2482 1100 112.515 1267.4 459.244
262 0 73.1475 13.0558 955 112.933 1266.26 459.599
263 0 77.3206 11.0449 854 115.411 1266.91 459.574
264 0 83.4699 13.7535 1148 111.228 1268.1 460.729
265 1 42.0325 12.7996 538 110.517 1267.18 477.773
266 0 39.0073 7.48578 292 116.599 1266.7 478.281
267 0 43.0373 9.78222 421 112.746 1265.64 478.002
268 0 44.126 13.3481 589 109.879 1264.85 475.43
269 0 48.2818 14.2497 688 106.908 1262.57 474.1
270 0 50.2589 14.9625 752 106.415 1262.99 471.024
271 0 55.2399 16.021 885 108.897 1262.45 473.293
272 0 56.2817 17.2347 970 107.536 1262.42 470.984
273 0 54.3068 13.9209 756 113.922 1261.69 467.13
274 0 58.3618 18.1454 1059 104.907 1261.47 467.491
275 0 56.1056 9.35735 525 115.223 1261.21 464.928
276 0 61.2795 13.8219 847 109.257 1260.54 461.664
277 0 63.2378 14.3585 908 108.361 1260.38 458.628
278 0 63.1257 13.8137 872 110.198 1260.5 459.856
279 0 68.1103 18.4554 1257 103.279 1260.97 454.636
280 0 69.22 14.2589 987 109.314 1260.13 453.146
281 0 69.2319 12.8987 893 113.282 1260.11 452.959
282 0 75.2476 16.5055 1242 106.772 1260.39 452.139
283 0 75.2476 16.4922 1241 121.686 1260.36 452.213
284 0 82.2815 17.987 1480 107.58 1261.26 446.697
285 0 87.5803 15.2317 1334 110.157 1261.5 445.992
286 0 85.3585 15.2299 1300 113.674 1262.14 439.474
287 1 45.261 9.92023 449 115.243 1263.15 459.61
288 0 45.5057 14.4158 656 112.672 1262.75 452.988
289 0 49.3815 12.9198 638 114.87 1263.91 454.527
290 0 50.3139 14.2903 719 111.812 1265.26 459.508
291 0 51.0751 12.139 620 117.256 1266.49 458.185
292 0 52.1635 14.3587 749 115.184 1267.33 454.307
293 0 54.1256 14.6142 791 115.293 1268.5 453.953
294 0 57.2543 13.9728 800 116.558 1269.36 453.908
295 0 60.7178 15.2509 926 113.022 1270.99 453.969
296 0 60.7178 15.3003 929 139.856 1272.97 454.004
297 0 64.6039 15.1539 979 114.506 1270.73 450.576
298 0 68.591 15.6435 1073 113.593 1271.94 450.76
299 0 70.8385 16.2059 1148 112.581 1271.35 454.14
300 0 68.8207 14.6903 1011 117.508 1272.23 454.269
301 0 71.3853 13.8404 988 120.311 1272.16 451.523
302 0 71.4182 14.3381 1024 120.943 1272.06 451.155
303 0 76.5364 15.0125 1149 118.931 1272.22 450.446
304 0 77.4623 15.2978 1185 118.219 1272.09 454.82
305 0 83.6522 16.7599 1402 115.056 1271.53 455.125
306 0 82.2495 15.0153 1235 121.16 1269.92 449.658
307 0 85.3596 15.1828 1296 122.207 1269.91 449.578
308 0 87.4844 15.5913 1364 121.617 1269.41 449.097
309 0 90.3999 15.6969 1419 120.534 1268.64 449.644
310 0 92.417 12.7358 1177 128.975 1268.43 444.488
311 0 97.4848 16.0025 1560 121.46 1267.33 444.187
312 0 101.439 15.9012 1613 121.245 1266.94 442.96
313 0 103.415 13.5184 1398 125.688 1266.61 442.676
314 1 53.3628 11.2813 602 123.219 1265.65 466.402
315 0 57.375 14.1351 811 117.815 1264.63 464.006
316 0 61.2599 14.3324 878 116.836 1264.79 463.017
317 0 62.5613 14.0982 882 118.874 1263.25 458.363
318 0 61.2389 15.3824 942 116.039 1262.72 463.596
319 0 65.1265 15.6158 1017 117.707 1262.39 459.714
320 0 65.1265 15.7386 1025 144.873 1262.34 459.651
321 0 69.1982 13.2662 918 121.526 1262.03 455.877
322 0 71.25 14.8772 1060 119.495 1262.19 453.047
323 0 75.1244 15.7738 1185 118.667 1260.77 448.057
324 0 78.4655 16.6952 1310 115.785 1261.3 449.018
325 0 80.3709 15.5902 1253 115.239 1262.15 448.519
326 0 84.1417 19.3364 1627 109.9 1262.33 443.385
327 0 83.1943 13.186 1097 120.858 1262.69 441.342
328 0 91.3013 16.4729 1504 113.793 1263.52 441.401
329 0 90.2208 15.0076 1354 118.634 1263.45 438.268
330 0 95.2577 16.9855 1618 115.786 1264.29 435.078
331 0 98.6029 19.4518 1918 112.776 1264.87 432.657
332 0 101.752 15.3707 1564 120.546 1266.26 427.284
333 0 107.537 17.3707 1868 115.4 1266.49 432.309
334 1 52.163 11.8858 620 118.774 1267.44 456.192
335 0 56.7046 15.2898 867 117.043 1268.03 451.992
336 0 56.5992 12.9154 731 119.769 1268.6 450.915
337 0 62.5614 15.6007 976 113.328 1268.43 450.295
338 0 65.477 14.5089 950 113.775 1269.59 452.569
339 0 63.7251 15.0961 962 115.352 1270.83 450.16
340 0 63.7251 15.0176 957 142.498 1271.82 450.22
341 0 66.6463 14.4794 965 117.225 1270.66 446.247
342 0 70.9134 14.8773 1055 114.968 1271.9 445.78
343 0 70.3306 11.8441 833 119.431 1272.41 447.143
344 0 76.6001 14.1253 1082 114.224 1271.68 449.122
345 0 80.8376 12.6921 1026 116.75 1272.25 446.212
346 0 82.8932 15.2606 1265 113.593 1271.88 442.982
347 0 83.7862 14.5728 1221 114.375 1272.09 447.938
348 0 87.2513 18.3837 1604 108.325 1271.22 448.024
349 0 92.4714 16.9566 1568 111.17 1271.31 443.792
350 0 94.1095 15.0038 1412 114.757 1271.35 440.476
351 0 94.6118 11.8379 1120 119.68 1271 439.872
352 0 98.7365 13.1967 1303 117.749 1270.04 439.937
353 0 103.839 14.1469 1469 116.779 1269.5 435.767
354 0 109.126 17.237 1881 111.262 1269.55 432.221
355 1 62.4795 13.2203 826 109.317 1268.04 460.208
356 0 65.4823 12.9653 849 110.093 1268.19 459.284
357 0 66.3428 12.1641 807 112.061 1268.18 460.307
358 0 70.8003 13.2768 940 110.512 1267.47 457.622
359 0 71.3887 12.523 894 112.972 1266.34 455.243
360 0 74.8111 16.6018 1242 105.994 1265.73 454.607
361 0 77.063 12.2886 947 113.323 1264.78 449.119
362 0 79.2495 15.3818 1219 109.715 1265.58 446.519
363 0 81.462 12.7544 1039 113.334 1264.44 446.645
364 0 83.749 12.0718 1011 114.591 1264 442.261
365 0 85.8472 11.7068 1005 116.369 1264.1 441.075
366 0 87.4702 11.2038 980 117.5 1263.9 439.227
367 0 93.8628 15.9382 1496 109.959 1264.08 437.588
368 0 95.8817 11.9939 1150 117.73 1263.94 434.889
369 0 98.7718 13.5059 1334 115.732 1264.11 430.629
370 1 51.4455 9.42744 485 119.245 1264.38 457.666
371 0 55.9262 11.998 671 114.939 1265.22 455.352
372 0 57.5672 13.7405 791 113.173 1266.51 452.793
373 0 57.2082 13.2324 757 116.778 1266.97 452.129
374 0 62.246 12.3542 769 115.704 1268.22 451.869
375 0 64.2005 14.0653 903 112.973 1268.99 449.684
376 0 67.3665 16.9966 1145 108.69 1268.8 446.332
377 0 67.1611 13.1028 880 114.716 1269.97 446.578
378 0 66.184 12.3897 820 118.295 1270.51 443.86
379 0 72.1992 11.5375 833 117.639 1271.73 445.456
380 0 74.2066 12.7482 946 115.465 1272.8 444.362
381 0 75.1055 13.754 1033 111.115 1273.23 446.967
382 0 77.0864 13.5303 1043 112.673 1274.63 445.456
383 0 80.1109 13.5812 1088 114.639 1275 437.327
384 0 84.2391 16.6194 1400 108.591 1274.77 443.718
385 0 85.0899 11.1412 948 118.372 1274.81 444.244
386 0 89.0883 16.7137 1489 108.592 1274.53 446.488
387 0 92.1577 13.976 1288 114.964 1275.05 438.157
388 0 98.7749 13.2726 1311 114.497 1276.01 444.174
389 0 97.3977 14.4254 1405 112.987 1275.07 442.927
390 0 100.6 13.7972 1388 115.678 1274.52 441.661
391 0 105.308 14.7947 1558 114.54 1274.55 440.234
392 1 55.1502 10.009 552 114.676 1275.14 467.966
393 0 54.0255 11.8648 641 107.142 1272.13 466.404
394 0 55.1599 13.2524 731 110.799 1272.51 463.375
395 0 57.0628 12.4424 710 113.965 1269.86 467.023
396 0 60.1912 16.2814 980 114.215 1271.67 464.148
397 0 61.2376 14.8602 910 115.627 1271.91 466.986
398 0 60.1934 11.6624 702 119.497 1270.53 466.43
399 0 63.1926 14.4637 914 115.162 1269.84 463.64
400 0 65.1072 13.9769 910 115.324 1269.17 464.722
401 0 66.2064 10.1501 672 121.679 1268.64 463.876
402 0 69.2422 13.0701 905 114.592 1268.2 464.076
403 0 70.1583 10.3053 723 120.093 1267.52 461.841
404 0 73.1854 12.1336 888 118.908 1267.03 458.575
405 0 76.2081 12.7152 969 116.864 1266.25 457.705
406 0 79.2573 13.0587 1035 116.541 1265.2 451.609
407 0 78.169 13.151 1028 117.075 1264.27 450.905
408 0 84.3078 12.312 1038 116.583 1264.27 451.825
409 0 87.3841 13.5723 1186 116.089 1265.06 442.069
410 0 88.2223 13.2733 1171 116.851 1264.05 441.505
411 1 50.1358 13.3437 669 113.244 1264.22 460.3
412 0 54.2259 12.3188 668 113.118 1264.93 461.889
413 0 52.3495 13.1806 690 112.939 1263.02 458.149
414 0 51.1046 12.719 650 109.775 1264.85 458.623
415 0 54.0602 12.0791 653 112.363 1266.17 457.461
416 0 54.1083 12.1054 655 113.817 1266.43 455.275
417 0 55.0922 11.3265 624 116.705 1266.74 452.159
418 0 60.1112 13.3087 800 110.8 1266.88 451.986
419 0 63.0842 16.7871 1059 104.987 1267.61 450.45
420 0 63.1854 13.5791 858 108.937 1269.3 453.681
421 0 67.1326 15.6258 1049 106.72 1269.38 450.003
422 0 65.1098 13.1624 857 112.184 1270.07 448.277
423 0 66.2242 12.9409 857 112.875 1270.73 448.037
424 0 69.369 14.8625 1031 110.066 1269.97 444.445
425 0 73.3283 14.1282 1036 109.794 1271.44 445.415
426 0 72.342 12.0953 875 113.533 1271.98 448.527
427 0 76.4794 14.4091 1102 109.944 1271.73 445.71
428 0 80.4329 12.6068 1014 112.39 1272.12 445.515
429 1 43.397 12.1898 529 111.382 1273.37 464.524
430 0 46.5212 10.1674 473 113.345 1274.31 463.342
431 0 44.3665 10.4133 462 115.21 1273.63 461.006
432 0 44.3665 10.3682 460 136.098 1273.61 461.176
433 0 51.1319 14.5702 745 107.442 1274.43 465.133
434 0 54.1131 13.7305 743 107.919 1275.7 464.584
435 0 54.0821 15.8278 856 105.653 1275.18 462.501
436 0 55.0698 14.0367 773 108.411 1274.57 466.446
437 0 56.1478 12.663 711 111.793 1273.68 462.584
438 0 59.3285 13.0629 775 110.334 1273.82 460.227
439 0 61.0728 9.85709 602 114.764 1272.33 464.954
440 0 61.1936 11.864 726 113.482 1271.63 461.299
441 0 61.1936 11.8967 728 135.674 1270.65 461.345
442 0 66.0794 14.6642 969 109.147 1270.77 459.166
443 0 70.1576 12.6002 884 112.545 1269.69 460.743
444 0 72.1586 14.9532 1079 109.969 1269.19 457.55
445 0 75.078 15.9301 1196 108.57 1268.02 455.915
446 0 77.093 18.6917 1441 105.247 1268.34 450.8
447 0 81.358 18.6214 1515 105.347 1267.84 448.837
448 1 44.1624 11.1633 493 111.765 1267.22 474.024
449 0 43.291 13.4208 581 109.207 1266.48 471.043
450 0 44.1145 11.1075 490 114.486 1266.2 469.035
451 0 45.0689 11.6932 527 112.402 1267.17 470.053
452 0 45.0689 11.671 526 140.833 1268.19 469.977
453 0 48.1851 15.0046 723 108.633 1265.83 466.777
454 0 48.3142 13.081 632 112.896 1265.84 464.392
455 0 51.1334 12.3012 629 113.687 1266.07 461.45
456 0 54.0434 16.6163 898 104.89 1265.75 462.764
457 0 51.1314 13.1622 673 113.637 1265.93 458.508
458 0 58.2582 13.732 800 109.416 1266.8 460.511
459 0 56.0607 16.9638 951 106.804 1266.06 458.644
460 0 57.0896 14.8363 847 110.996 1266.94 454.256
461 0 59.0819 17.3149 1023 107.992 1267.31 455.627
462 0 60.2146 13.6678 823 114.277 1267.79 454.07
463 0 60.0442 13.107 787 114.36 1267.89 456.038
464 0 66.1922 13.1284 869 113.205 1267.99 453.598
465 0 66.2064 15.0741 998 112.504 1268.55 448.654
466 0 69.1209 14.0189 969 113.378 1270.1 452.559
467 0 70.1296 12.976 910 116.338 1269.64 450.471
468 0 75.1061 13.9003 1044 113.268 1269.85 451.415
469 0 76.0691 13.6718 1040 114.616 1270.77 450.722
470 0 78.0772 16.5093 1289 110.265 1271.22 449.216
471 0 82.1126 16.3312 1341 111.052 1271.38 450.089
472 1 41.0968 8.8328 363 119.548 1272.33 470.207
473 0 43.1403 9.20254 397 119.592 1268.13 471.214
474 0 46.0749 12.0239 554 114.931 1268.64 471.574
475 0 47.0599 12.6435 595 115.897 1267.91 471.267
476 0 49.2206 13.8763 683 114.182 1267.99 469.578
477 0 48.0756 10.7539 517 109.658 1267.94 470.565
478 0 51.0351 11.3843 581 114.014 1267.52 469.898
479 0 50.0448 11.0701 554 115.079 1266.93 468.805
480 0 53.0607 12.9663 688 110.791 1266.46 470.089
481 0 55.0862 14.6316 806 108.434 1265.33 468.763
482 0 56.0741 12.858 721 111.146 1265.29 470.639
483 0 59.2151 11.416 676 112.322 1264.17 471.373
484 0 59.1279 11.6696 690 114.29 1263.81 466.306
485 0 60.1828 14.8215 892 108.794 1261.88 464.352
486 0 65.4565 12.4357 814 111.633 1261.99 467.119
487 0 65.2007 14.279 931 110.546 1261.83 461.859
488 0 68.2686 14.4576 987 108.858 1261.06 463.465
489 0 71.1378 15.3364 1091 107.807 1260.34 461.972
490 0 70.2957 12.4901 878 113.927 1260.33 455.633
491 0 75.3013 15.9625 1202 107.947 1258.75 461.086
492 0 78.3744 16.8422 1320 107.536 1259.12 457.185
493 1 41.0491 8.64818 355 119.994 1259.25 477.338
494 0 44.0636 12.3004 542 114.404 1258.79 475.308
495 0 43.0749 12.4899 538 140.788 1257.81 475.364
496 0 50.2003 16.972 852 105.957 1256.74 470.069
497 0 50.0591 13.2443 663 114.223 1256 473.688
498 0 54.3093 14.5647 791 111.401 1255.68 467.216
499 0 53.1041 13.5583 720 116.085 1256.15 465.183
500 0 55.2717 14.5101 802 113.849 1256.58 461.496
501 0 53.082 12.3206 654 120.26 1256.73 459.685
502 0 57.3053 16.0893 922 112.158 1257.47 459.979
503 0 55.2194 13.8357 764 118.531 1258.81 456.209
504 0 57.2153 13.0385 746 119.501 1258.43 456.749
505 0 60.1789 20.6551 1243 106.755 1259.8 456.566
506 0 60.1789 20.6385 1242 128.591 1259.86 456.506
507 0 66.2586 15.7715 1045 114.169 1260.51 452.761
508 0 65.2413 13.9942 913 117.757 1262.93 453.194
509 0 67.2936 16.3463 1100 115.276 1263.35 449.952
510 0 70.0944 21.7992 1528 107.139 1263.91 451.287
511 0 68.165 15.1104 1030 118.806 1265.42 449.049
512 0 73.2754 17.4274 1277 113.673 1265.86 450.926
513 0 77.2291 17.1826 1327 114.381 1267.28 447.291
514 0 75.3332 13.208 995 122.21 1266.47 447.59
515 0 81.3249 17.0673 1388 115.615 1267.25 446.792
516 0 81.4574 13.5776 1106 122.26 1265.58 447.003
517 0 81.4574 13.6268 1110 150.525 1263.6 446.973
518 0 85.1813 14.9094 1270 120.357 1266.32 445.343
519 0 90.2562 16.4864 1488 115.489 1267.68 454.033
520 0 92.2392 14.148 1305 118.077 1265.09 450.12
521 0 96.3021 14.901 1435 116.602 1267.69 445.382
522 0 98.1833 14.2692 1401 117.614 1267.57 448.662
523 0 102.447 16.1548 1655 113.019 1267.37 448.292
524 1 53.0892 14.5981 775 112.086 1267.51 475.733
525 0 54.1938 12.3077 667 115.25 1266.15 470.514
526 0 56.3319 18.9946 1070 105.414 1265.57 472.242
527 0 57.1648 13.6972 783 110.142 1264.69 471.309
528 0 57.2436 11.7393 672 114.914 1264.51 465.704
529 0 57.2436 11.6869 669 149.525 1264.51 465.614
530 0 65.1292 16.045 1045 108.152 1263.49 462.48
531 0 64.3545 15.3991 991 109.901 1262.92 461.584
532 0 67.2095 13.2273 889 112.523 1261.88 460.808
533 0 72.2659 13.9485 1008 110.341 1261.51 460.7
534 0 73.1883 14.2099 1040 112.304 1261.46 460.433
535 0 76.3918 13.7711 1052 113.324 1259.46 459.554
536 0 76.1436 13.2513 1009 116.785 1259.39 452.703
537 0 81.1869 13.1302 1066 116.32 1259.35 453.545
538 0 82.1513 14.7167 1209 113.91 1258.84 451.348
539 0 83.4275 14.5276 1212 115.019 1259.29 448.729
540 0 87.1779 14.3041 1247 117.345 1259.03 446.789
541 0 91.299 16.0681 1467 114.848 1258.74 443.75
542 0 92.1479 14.1512 1304 119.14 1257.97 441.548
543 0 99.3802 15.8684 1577 120.348 1258.41 441.207
544 0 104.538 17.869 1868 112.148 1257.76 446.564
545 0 104.538 17.7734 1858 133.916 1257.75 446.609
546 1 56.2984 14.0324 790 143.76 1257.26 463.004
547 0 63.0648 13.6685 862 121.288 1260.19 458.891
548 0 63.1781 12.9317 817 124.147 1259.91 455.944
549 0 67.2139 11.575 778 122.762 1260.54 456.569
550 0 71.1822 15.3269 1091 114.811 1261.97 455.055
551 0 72.2975 15.4086 1114 115.044 1262.18 450.46
552 0 75.1104 15.8034 1187 113.757 1262.28 453.672
553 0 77.2397 14.7075 1136 116.071 1262.05 450.056
554 0 80.103 14.8184 1187 115.755 1263.5 448.753
555 0 85.3598 14.7376 1258 114.645 1263.56 450.355
556 0 87.2756 15.9495 1392 113.091 1264.92 448.496
557 0 90.2813 15.208 1373 114.578 1266.07 449.126
558 1 47.1671 11.1942 528 117.508 1265.86 472.051
559 0 50.107 10.278 515 119.336 1265.95 469.951
560 0 50.107 10.298 516 144.329 1265.97 470.004
561 0 54.4454 16.2732 886 110.427 1267.78 466.877
562 0 56.5163 15.5707 880 112.749 1268.64 467.212
563 0 56.5163 15.6769 886 142.349 1269.61 467.196
564 0 58.2763 12.3378 719 119.209 1268.07 468.476
565 0 58.1444 12.1078 704 121.226 1266.69 470.188
566 0 62.4088 13.7801 860 116.564 1266.67 468.841
567 0 62.4088 13.8122 862 144.097 1265.68 468.715
568 0 67.2465 12.4467 837 117.851 1265.81 469.148
569 0 70.4366 14.836 1045 113.506 1265.47 468.545
570 0 71.4234 12.8669 919 118.316 1264.14 464.116
571 0 77.3471 16.0963 1245 110.486 1263.93 467.226
572 0 77.2922 14.8657 1149 114.541 1263.38 463.161
573 0 79.3334 12.7437 1011 115.777 1262.66 460.855
574 0 81.3408 12.6136 1026 145.852 1261.68 461.077
575 0 87.5783 14.0674 1232 113.338 1261.08 456.952
576 1 45.0776 12.3787 558 113.871 1261.89 479.269
577 0 47.0771 16.0588 756 107.569 1261.58 474.188
578 0 46.0326 13.1863 607 114.647 1261.39 474.614
579 0 47.0361 13.1176 617 115.256 1261.51 470.771
580 0 48.0425 14.2998 687 114.632 1260.35 470.681
581 0 51.1257 13.0658 668 113.787 1260.59 474.713
582 0 52.0746 14.556 758 111.4 1260.12 471.162
583 0 54.1883 14.1728 768 111.646 1260.26 469.152
584 0 55.3451 14.0392 777 112.396 1259.92 468.196
585 0 55.2835 13.2951 735 115.231 1261.07 465.219
586 0 60.4302 14.9263 902 110.716 1261.39 467.972
587 0 58.1355 11.9892 697 118.799 1262.48 461.677
588 0 62.2754 13.9542 869 113.138 1262.51 463.55
589 0 62.2381 15.6496 974 112.751 1262.56 457.541
590 0 64.2181 12.5821 808 118.507 1262.32 458.677
591 0 67.1608 13.6538 917 116.763 1264.4 456.656
592 0 68.4435 14.0408 961 120.097 1264.77 457.125
593 0 71.2498 12.9544 923 123.816 1265.36 455.325
594 0 74.2199 13.972 1037 122.517 1265.35 451.799
595 0 77.2564 14.5101 1121 119.787 1265.79 453.814
596 0 78.3631 14.3052 1121 122.374 1267.28 449.638
597 0 82.4088 15.8721 1308 116.894 1267.57 453.305
598 1 43.1265 9.87792 426 124.995 1267.88 466.336
599 0 44.191 10.0699 445 124.616 1268.48 468.375
600 0 46.1706 13.71 633 117.848 1267.28 465.302
601 0 49.1767 12.0992 595 121.017 1268.46 466.723
602 0 50.3723 14.1347 712 116.883 1268.47 470.288
603 0 54.1358 13.3738 724 117.417 1269.14 469.117
604 0 55.2034 13.7129 757 115.933 1269.25 468.503
605 0 57.4642 14.7222 846 115.356 1268.67 467.707
606 0 57.2806 13.7394 787 117.881 1269.08 468.492
607 0 58.3978 13.0142 760 120.08 1269.61 468.042
608 0 61.2353 14.7301 902 116.543 1268.1 467.33
609 0 63.2574 13.3897 847 117.936 1268.27 470.601
610 0 64.1655 13.2782 852 118.241 1268.47 471.189
611 0 65.24 14.5616 950 116.859 1267.9 470.045
612 0 68.2284 14.5541 993 116.862 1267.26 468.093
613 0 70.3716 13.5424 953 118.622 1267.31 462.738
614 0 72.1982 14.0862 1017 117.893 1266.05 465.193
615 0 72.1982 14.0585 1015 136.595 1265.05 465.17
616 1 38.0329 13.0151 495 115.972 1264.72 481.806
617 0 40.0468 10.8373 434 117.97 1264.18 482.528
618 0 42.1196 12.2508 516 116.828 1264.15 480.455
619 0 42.0564 12.9112 543 115.873 1262.71 477.225
620 0 41.0145 14.2145 583 110.158 1259.33 477.696
621 0 43.1066 16.6564 718 104.479 1260.18 480.139
622 0 42.0386 11.2516 473 116.795 1260.06 476.793
623 0 42.1112 11.7308 494 116.67 1260.14 474.818
624 0 45.1016 12.2169 551 114.054 1260.41 476.356
625 0 47.1178 13.8589 653 112.897 1260.02 474.308
626 0 47.0965 11.6782 550 115.705 1259.98 472.353
627 0 49.1219 13.3749 657 114.25 1259.55 467.691
628 0 51.1157 14.2031 726 113.095 1260.33 465.917
629 0 49.1931 10.1844 501 119.421 1260.9 467.158
630 0 57.2686 16.6758 955 105.352 1260.96 467.515
631 0 56.1496 13.0722 734 112.3 1261.93 466.053
632 0 56.0799 12.5 701 116.495 1261.02 462.407
633 0 59.1069 12.9596 766 116.325 1263.31 459.484
634 0 60.3204 14.3235 864 113.99 1263.58 459.897
635 0 62.1462 16.1394 1003 111.197 1263.95 460.602
636 0 65.1393 14.3078 932 114.591 1264.62 459.048
637 0 69.083 17.4572 1206 108.378 1265.1 461.842
638 0 68.2983 15.0077 1025 115.477 1265.05 456.002
639 0 70.2409 14.5072 1019 117.124 1265.73 452.991
640 0 72.2323 15.8378 1144 114.126 1266.58 455.096
641 0 73.519 11.208 824 121.938 1267.59 455.399
642 0 77.2636 14.0558 1086 117.287 1267.95 455.358
643 0 77.4012 10.8784 842 123.968 1269.33 455.248
644 0 82.143 14.5356 1194 118.066 1269.5 452.43
645 0 87.4908 14.8244 1297 117.567 1269.8 449.98
646 0 88.2929 14.9049 1316 118.061 1268.83 450.296
647 1 48.0814 11.7093 563 118.694 1269.35 470.863
648 0 48.1447 13.0232 627 116.45 1267.85 472.427
649 0 49.18 12.7897 629 117.394 1268.48 471.607
650 0 52.0663 14.5776 759 108.52 1266.71 474.584
651 0 53.1761 13.4835 717 109.672 1266.89 474.644
652 0 55.0396 13.8991 765 109.234 1266.3 472.999
653 0 58.1188 14.0746 818 107.512 1266.49 474.297
654 0 58.0416 13.5937 789 109.393 1265.84 471.843
655 0 60.1643 14.3607 864 108.839 1266 470.711
656 0 63.1417 12.9708 819 109.818 1265.15 470.636
657 0 64.1218 12.1799 781 110.574 1263.75 471.996
658 0 65.1629 11.4943 749 113.587 1264.02 468.414
659 0 69.3051 17.0695 1183 104.748 1262.83 469.508
660 0 70.2136 15.3959 1081 108.77 1262.71 465.566
661 0 72.1489 11.9891 865 113.691 1261.91 467.436
662 0 78.3064 11.1357 872 115.555 1261.25 467.247
663 0 78.3382 14.1183 1106 112.631 1260.76 462.448
664 0 79.1873 12.0095 951 116.14 1260.12 456.919
665 1 45.2496 11.2708 510 114.167 1259.9 476.663
666 0 44.0948 11.4526 505 114.513 1260.9 473.053
667 0 48.1866 15.9173 767 106.12 1261.26 472.21
668 0 49.1032 17.3512 852 104.978 1260.97 471.239
669 0 47.0831 12.1062 570 117.284 1261.9 468.556
670 0 50.219 15.2532 766 112.517 1261.56 469.524
671 0 53.3045 12.8319 684 116.332 1261.6 466.768
672 0 53.3338 13.0874 698 116.117 1260.85 467.977
673 0 55.1856 13.7355 758 115.037 1261.35 465.251
674 0 56.1522 14.0867 791 117.077 1262.23 463.616
675 0 57.1897 13.8312 791 118.684 1261.54 461.966
676 0 59.3121 13.1845 782 119.124 1263.03 460.477
677 0 63.0952 13.7411 867 118.428 1263.52 457.286
678 0 65.1318 13.6953 892 117.74 1264.11 457.552
679 0 70.2401 12.6993 892 118.207 1264.57 457.917
680 0 69.2389 13.5329 937 118.152 1265.43 453.93
681 0 70.3275 14.4467 1016 117.057 1265.17 453.901
682 0 74.2812 11.0391 820 122.437 1265.54 452.921
683 0 79.683 12.8007 1020 117.463 1267.07 453.549
684 1 38.324 11.0897 425 120.144 1267.8 471.414
685 0 40.0444 11.5622 463 117.423 1267.85 471.363
686 0 42.0524 12.8887 542 113.458 1265.69 470.09
687 0 44.1701 13.3122 588 112.27 1266.38 470.073
688 0 45.2701 12.7678 578 112.479 1266.36 472.363
689 0 48.2042 12.8827 621 111.863 1266.4 470.341
690 0 50.285 13.9008 699 110.31 1266.69 469.139
691 0 48.2918 11.9482 577 114.669 1266.18 470.418
692 0 51.2948 11.1707 573 115.169 1265.92 471.154
693 0 52.3376 11.9608 626 113.984 1265.95 470.26
694 0 55.2484 13.2312 731 111.624 1266.09 469.064
695 0 54.3545 10.8179 588 116.641 1265.89 471.779
696 0 57.1659 13.5045 772 112.392 1265.69 470.637
697 0 58.2065 11.1671 650 115.772 1265.88 470.405
698 0 61.4538 10.6421 654 115.109 1265.3 473.728
699 0 65.182 13.9149 907 109.768 1264.87 470.92
700 0 66.3585 13.9997 929 110.943 1263.29 465.441
701 1 146.585 15.6224 2290 110.964 1262.87 428.755
702 0 146.585 15.5541 2280 128.107 1261.89 428.648
703 1 72.1975 15.8593 1145 108.357 1263.6 465.143
704 0 75.1097 15.2577 1146 114.084 1260.98 463.412
705 0 74.5416 13.6031 1014 118.287 1260.11 463.688
706 0 78.3972 12.1178 950 119.469 1259.99 463.488
707 0 82.4174 14.6328 1206 115.411 1260.2 457.138
708 0 86.5265 16.18 1400 108.882 1261.48 462.916
709 0 88.7127 13.4592 1194 114.635 1259.87 457.596
710 0 91.395 17.3314 1584 109.16 1259.45 451.436
711 1 47.3982 12.0258 570 116.914 1261.56 470.954
712 0 48.2294 11.6734 563 117.089 1259.08 470.753
713 0 50.3199 14.3482 722 113.046 1260.62 466.683
714 0 50.0981 12.7749 640 115.627 1260.9 467.631
715 0 54.115 15.7073 850 109.902 1261.77 465.666
716 0 54.1177 13.1011 709 115.319 1262.16 462.712
717 0 58.174 15.1442 881 110.718 1262.07 459.84
718 0 63.1749 12.8374 811 112.937 1261.91 461.097
719 0 62.1682 13.4635 837 113.127 1263.36 458.191
720 0 64.055 13.4884 864 113.251 1264.16 460.672
721 0 68.0641 14.8537 1011 110.895 1264.44 459.169
722 0 71.1413 15.2373 1084 110.887 1264.13 457.1
723 0 70.0752 14.8555 1041 112.667 1265.81 451.805
724 0 74.1436 13.2176 980 114.405 1265.87 453.105
725 0 76.0669 11.9369 908 116.616 1265.87 457.768
726 0 79.202 13.9012 1101 114.296 1265.99 452.362
727 0 83.2555 12.4436 1036 116.925 1267.24 451.469
728 1 41.0677 10.9575 450 117.713 1268.11 469.862
729 0 42.0939 9.78764 412 119.398 1268.36 470.755
730 0 42.0321 12.9187 543 106.276 1268.07 467.177
731 0 44.4543 13.0246 579 105.226 1266.64 468.285
732 0 46.233 12.6966 587 102.952 1266.72 474.825
733 0 48.149 11.4437 551 106.37 1266.5 469.24
734 0 48.1471 12.5033 602 105.498 1266.63 468.191
735 0 51.2774 17.1421 879 104.191 1266.3 471.536
736 0 52.119 14.3902 750 107.949 1265.42 474.168
737 0 55.177 12.922 713 109.961 1266.61 472.927
738 0 53.0314 13.3506 708 110.725 1264.04 471.576
739 0 60.1326 16.6632 1002 104.128 1265.05 473.087
740 0 61.1184 13.433 821 108.85 1264.03 471.693
741 0 63.2325 12.2564 775 109.194 1263.8 472.924
742 0 64.1302 10.7282 688 111.442 1262.75 470.032
743 0 69.1415 15.1429 1047 104.216 1262.71 472.154
744 0 69.3463 15.9201 1104 104.205 1262.75 468.503
745 0 73.3075 16.9696 1244 102.17 1261.92 466.461
746 0 72.2869 15.1065 1092 131.892 1260.84 464.77
747 0 75.1259 12.1529 913 109.987 1261.06 463.108
748 0 75.1259 12.1263 911 137.37 1262.08 463.056
749 1 42.1812 15.3623 648 103.586 1261.22 476.948
750 0 40.085 10.802 433 113.508 1260.76 477.575
751 0 45.0577 13.3163 600 108.508 1260.3 476.212
752 0 47.2978 15.7724 746 108.366 1259.89 472.993
753 0 45.1884 13.1671 595 109.529 1259.2 474.287
754 0 46.1394 13.5026 623 110.811 1259.78 470.438
755 0 49.1551 12.9386 636 112.414 1260.03 468.575
756 0 49.1243 14.0257 689 110.72 1260.12 467.99
757 0 52.1261 18.3593 957 103.052 1260.73 470.564
758 0 52.1242 12.9499 675 114.121 1260.66 464.178
759 0 54.344 17.0212 925 105.925 1261.2 467.728
760 0 57.1248 13.9869 799 113.058 1261.69 460.959
761 0 60.3612 14.4961 875 110.595 1261.63 463.445
762 0 62.1633 13.6093 846 112.505 1262.49 461.563
763 0 62.2544 11.6297 724 115.681 1262.36 458.823
764 0 65.3932 14.8792 973 110.347 1263.45 457.512
765 0 66.1659 10.6248 703 116.415 1263.3 457.139
766 0 69.2547 14.3095 991 109.245 1263.38 456.527
767 0 74.1165 13.0875 970 110.494 1264.61 457.815
768 0 77.4434 14.9399 1157 107.221 1265.71 455.326
769 0 78.2487 14.4923 1134 108.774 1265.8 453.997
770 0 83.3055 16.4815 1373 105.817 1265.88 450.484
771 0 84.4878 9.96594 842 115.887 1266.68 453.055
772 0 85.4893 11.5921 991 141.677 1267.66 454.665
773 1 44.201 11.6061 513 110.977 1266.02 472.836
774 0 47.1193 14.6225 689 108.862 1266.88 470.247
775 0 47.021 12.7177 598 114.781 1267.75 471.669
776 0 46.1886 11.3231 523 111.465 1268.97 476.31
777 0 51.2673 13.1468 674 109 1268.89 469.963
778 0 51.0929 10.6668 545 113.094 1268.5 475.037
779 0 51.0929 10.5494 539 137.217 1267.49 475.18
780 0 52.257 12.228 639 112.214 1268.2 473.862
781 0 57.1705 13.5909 777 108.955 1267.21 473.198
782 0 53.1355 8.01724 426 118.552 1267.34 471.941
783 0 56.1521 10.4181 585 114.735 1267.82 470.166
784 0 62.1412 14.4188 896 107.762 1265.6 471.138
785 0 64.7372 13.3308 863 110.972 1265.81 468.066
786 0 64.2601 14.2546 916 108.261 1265.81 471.164
787 0 64.3804 12.1932 785 112.413 1264.59 468.698
788 0 71.3803 12.8747 919 109.886 1264.63 466.746
789 0 72.7515 12.5771 915 110.816 1263.05 464.027
790 0 76.6061 14.085 1079 109.122 1262.59 458.083
791 0 76.4242 13.5559 1036 109.732 1262.35 459.003
792 0 82.3435 15.4839 1275 105.931 1262.81 455.842
793 0 85.3969 14.3799 1228 107.967 1261.5 452.766
794 0 87.1737 13.1576 1147 109.822 1261.77 453.188
795 0 89.268 11.0902 990 112.792 1261.34 453.55
796 1 47.2064 8.49462 401 113.726 1261.81 470.823
797 0 50.091 13.1361 658 107.236 1261.77 469.14
798 0 50.1006 11.2574 564 110.05 1262.01 466.392
799 0 54.2001 14.5387 788 104.173 1261.75 467.596
800 0 54.1054 10.7383 581 108.874 1263.43 467.043
801 0 57.1945 14.8965 852 104.009 1262.56 463.005
802 0 59.1403 17.2979 1023 100.433 1263.2 458.823
803 0 61.1735 13.2901 813 104.795 1263.19 462.399
804 0 63.3324 11.1949 709 107.736 1263.22 460.338
805 0 64.3911 14.6294 942 104.062 1264.2 452.054
806 0 69.4526 14.3839 999 102.663 1264.73 455.543
807 0 68.2037 15.3071 1044 103.95 1265.54 449.58
808 0 70.2386 13.5111 949 106.157 1266.11 451.654
809 0 74.3748 15.4084 1146 103.446 1267.25 448.675
810 0 72.4025 11.3946 825 109.891 1268.2 448.578
811 0 72.4025 11.3118 819 130.841 1270.18 448.667
812 0 78.0774 12.8078 1000 109.782 1269.11 447.752
813 0 78.0757 12.8465 1003 128.416 1267.13 447.779
814 0 85.1556 16.2291 1382 104.446 1268.64 451.441
815 0 88.1004 15.6299 1377 106.328 1269.3 445.296
816 0 89.2018 12.298 1097 111.432 1267.4 443.258
817 1 42.1468 11.3176 477 108.7 1269.2 466.774
818 0 47.0201 12.8668 605 106.539 1267.36 468.846
819 0 49.1982 13.0899 644 105.38 1266.69 467.366
820 0 49.2261 12.3309 607 106.064 1266.6 468.031
821 0 52.1412 10.8935 568 107.218 1265.6 469.887
822 0 51.1864 13.9881 716 106.453 1266.99 466.757
823 0 52.1408 11.0854 578 110.192 1266.2 469.081
824 0 58.3615 14.5644 850 104.511 1265.47 467.902
825 0 58.2066 11.7341 683 108.777 1265.41 467.368
826 0 60.3564 12.9564 782 106.992 1264.77 466.802
827 0 63.1876 15.1296 956 103.071 1265.62 466.925
828 0 64.2476 12.016 772 108.036 1264.61 464.487
829 0 65.2931 19.6652 1284 98.5218 1263.36 466.111
830 0 69.3417 14.0752 976 106.539 1263 459.459
831 0 71.3412 13.6527 974 106.448 1262.56 463.11
832 0 73.4151 13.1308 964 107.985 1262.68 458.999
833 0 75.3268 12.0276 906 108.869 1261.85 460.021
834 0 79.2846 15.4381 1224 104.877 1261.24 454.391
835 0 81.4072 15.2935 1245 106.549 1262.04 451.235
836 0 86.13 13.8395 1192 108.602 1261.34 451.469
837 0 89.2414 15.7662 1407 105.716 1261.73 451.642
838 0 91.3254 15.8773 1450 107.026 1262.26 445.399
839 0 97.5653 17.5472 1712 103.443 1262.26 448.116
840 1 54.2808 13.8355 751 105.655 1262.92 463.226
841 0 50.3023 10.5562 531 111.499 1261.78 463.71
842 0 52.294 12.1238 634 110.069 1261.44 461.355
843 0 59.2776 15.9757 947 102.57 1262.07 458.459
844 0 60.1638 13.6128 819 105.689 1262.32 461.832
845 0 60.1638 13.5962 818 134.978 1261.33 461.658
846 0 65.1192 15.8939 1035 102.543 1263.37 456.876
847 0 64.0958 17.8951 1147 101.656 1264.22 452.997
848 0 67.3485 13.6751 921 106.388 1264.45 454.22
849 0 69.1417 18.2813 1264 99.9486 1264.8 455.612
850 0 70.1577 14.0256 984 106.82 1265.62 452.428
851 0 74.1919 14.2334 1056 105.943 1266.93 453.772
852 0 75.5766 14.3034 1081 107.63 1264.53 445.895
853 0 78.2907 14.51 1136 107.85 1265.96 446.077
854 0 78.2907 14.6505 1147 133.577 1266.95 445.91
855 0 80.2667 13.1811 1058 111.64 1266.78 442.485
856 0 85.3191 14.8384 1266 109.408 1266.23 441.533
857 0 88.2619 15.59 1376 109.516 1267.67 442.126
858 1 46.2011 16.3199 754 106.045 1265.68 464.778
859 0 48.4565 14.5491 705 109.887 1267.43 463.389
860 0 48.1903 14.837 715 110.292 1267.11 465.115
861 0 50.4143 11.3262 571 117.823 1267.99 465.259
862 0 53.356 14.7687 788 112.459 1267.94 465.075
863 0 51.0963 12.0165 614 118.879 1265.97 470.098
864 0 56.1097 13.7409 771 113.859 1267.61 468.54
865 0 59.1476 16.2475 961 110.104 1266.92 469.293
866 0 61.2097 16.1249 987 110.43 1266.44 468.456
867 0 61.13 13.2832 812 115.75 1266.16 468.794
868 0 62.3101 14.8451 925 113.796 1265.22 466.881
869 0 62.1389 13.1319 816 117.621 1265.04 467.188
870 0 66.1762 11.9076 788 119.118 1265.04 466.938
871 0 66.1762 11.9983 794 152.372 1265.06 467.029
872 0 67.1111 13.2765 891 117.343 1264.01 466.602
873 0 70.302 13.7834 969 119.16 1263.37 462.39
874 0 74.389 16.8573 1254 113.668 1263.95 458.57
875 0 75.3095 15.828 1192 114.523 1263.99 462.214
876 0 78.3654 17.2653 1353 113.37 1263.19 456.988
877 0 81.4979 13.1414 1071 120.368 1262.81 457.27
878 0 84.3684 13.7729 1162 116.397 1260.99 449.311
879 0 85.1673 12.223 1041 120.626 1262 450.425
880 1 44.0922 10.478 462 115.225 1261.86 466.024
881 0 46.1716 10.1578 469 115.126 1262.07 465.305
882 0 47.381 10.8693 515 113.204 1261.81 466.282
883 0 50.2312 12.7411 640 110.283 1261.64 462.817
884 0 53.0521 14.3444 761 105.64 1261.16 459.624
885 0 52.1898 16.1718 844 103.963 1261.77 459.636
886 0 53.0779 11.6056 616 110.584 1261.3 458.622
887 0 54.2589 14.2281 772 107.82 1261.67 456.749
888 0 57.1129 13.9023 794 107.542 1262.86 451.782
889 0 62.1732 14.717 915 104.415 1263.19 455.809
890 0 61.158 15.3046 936 105.197 1263.77 452.358
891 0 65.1645 15.5606 1014 104.184 1264.41 452.931
892 0 66.1613 15.3262 1014 106.486 1263.64 446.693
893 0 67.1867 14.1695 952 109.333 1265.44 446.442
894 0 69.1677 14.313 990 109.652 1265.02 445.534
895 0 70.1734 13.7516 965 112.101 1266.07 442.653
896 0 77.2328 16.0165 1237 105.714 1267.04 449.784
897 0 74.1646 12.0947 897 114.633 1267.31 444.926
898 0 76.1574 12.3954 944 115.495 1267.13 441.408
899 0 81.1207 15.4461 1253 109.503 1267.86 442.107
900 1 43.1458 11.2409 485 109.148 1267.91 465.856
901 0 44.1243 9.85851 435 112.037 1268.71 464.575
902 0 44.0848 9.32294 411 114.019 1268.14 465.783
903 0 46.1329 10.8816 502 111.406 1268.95 467.084
904 0 48.1868 12.3478 595 114.069 1270.2 465.976
905 0 51.1765 13.1506 673 118.996 1270.64 470.504
906 0 52.0712 12.0796 629 122.118 1271.03 470.11
907 0 53.1757 11.6783 621 122.095 1270.5 471.419
908 0 56.0736 15.9968 897 115.1 1268.99 469.669
909 0 59.1106 14.8535 878 117.969 1269.83 467.792
910 0 61.0927 13.1276 802 120.808 1269.59 468.833
911 0 63.164 14.9135 942 117.389 1269.01 466.889
912 0 60.1848 11.0659 666 126.333 1269.44 466.312
913 0 65.2133 12.6508 825 121.648 1268.53 465.56
914 0 67.0705 14.3282 961 118.869 1267.27 464.582
915 0 69.1881 14.1932 982 118.835 1266.84 465.491
916 0 73.1301 12.7444 932 120.5 1265.54 464.324
917 0 75.1209 16.1739 1215 115.922 1265.13 460.63
918 0 76.1818 14.9379 1138 117.899 1265.58 462.17
919 0 79.1036 15.4987 1226 115.402 1264.5 464.334
920 0 83.1419 14.0363 1167 119.211 1263.62 458.543
921 0 82.0885 14.326 1176 120.658 1262.84 455.563
922 0 86.224 15.3437 1323 118.269 1263.06 454.19
923 0 88.0765 14.6577 1291 119.905 1262.41 447.118
924 0 90.1478 15.4413 1392 118.024 1262.8 447.47
925 0 93.3136 15.6998 1465 113.17 1262.2 442.99
926 1 50.3573 15.1319 762 109.213 1262.84 469.675
927 0 52.1861 13.1261 685 113.274 1262.02 466.93
928 0 54.3702 14.2725 776 111.53 1262.12 463.95
929 0 56.5291 13.3913 757 117.432 1263.17 460.05
930 0 56.5291 13.3206 753 144.635 1265.18 460.04
931 0 58.0942 12.6519 735 121.21 1261.49 460.858
932 0 59.1 14.5854 862 116.58 1261.57 458.398
933 0 64.1515 16.0401 1029 110.388 1261.68 460.669
934 0 66.1818 14.3091 947 115.967 1262.53 452.663
935 0 67.1523 13.596 913 116.895 1263.05 452.972
936 0 68.1464 12.6199 860 118.464 1264.43 450.605
937 0 72.1208 14.7392 1063 113.308 1264.78 454.499
938 0 73.1864 13.4998 988 116.869 1264.79 448.481
939 0 76.2573 13.3233 1016 116.089 1265.44 450.634
940 0 79.3148 15.4196 1223 111.814 1265.25 449.446
941 0 83.2506 15.7356 1310 108.017 1265.84 448.514
942 0 84.3556 14.2848 1205 112.057 1265.77 444.319
943 0 86.2885 14.2197 1227 112.422 1265.8 443.641
944 0 87.2506 12.8595 1122 115.298 1267.52 446.251
945 0 87.2506 12.9512 1130 116.867 1269.52 446.144
946 0 98.5817 15.794 1557 110.04 1267.02 446.29
947 1 51.1395 9.62074 492 115.512 1266.33 467.435
948 0 51.1395 9.6403 493 133.31 1266.29 467.678
949 0 55.1024 11.8507 653 112.816 1267.62 470.173
950 0 56.168 13.4774 757 111.486 1268.69 467.399
951 0 57.2393 14.5355 832 109.029 1268.93 468.924
952 0 56.0695 10.0768 565 117.602 1269.87 468.712
953 0 60.2152 12.721 766 110.773 1269.77 468.595
954 0 63.156 15.2163 961 107.445 1268.65 467.791
955 0 68.2712 13.8418 945 109.629 1268.55 467.117
956 0 67.1609 10.8099 726 115.233 1267.82 466.318
957 0 73.1643 12.0687 883 112.325 1267.31 467.101
958 0 70.2576 12.2122 858 113.976 1266.6 464.573
959 0 73.2738 13.8794 1017 111.092 1264.9 462.35
960 0 77.2514 13.8768 1072 111.313 1265.43 462.257
961 0 81.528 16.4606 1342 106.001 1264.22 459.428
962 0 80.3854 11.5941 932 116.324 1264.44 456.158
963 1 45.167 12.6198 570 111.986 1265.02 475.828
964 0 45.0805 8.78429 396 118.255 1264.64 476.689
965 0 47.1786 13.2051 623 112.117 1263.99 472.543
966 0 50.4971 11.5452 583 112.636 1264.26 470.065
967 0 50.0489 11.7885 590 113.853 1262.39 471.99
968 0 49.1745 10.8796 535 117.357 1259.62 467.738
969 0 51.3957 14.0089 720 111.107 1259.31 466.444
970 0 53.1922 16.4498 875 107.247 1259.84 465.248
971 0 57.4862 20.2483 1164 97.7225 1259.41 471.036
972 0 58.2394 16.1231 939 105.885 1260.96 463.106
973 0 61.3288 16.0936 987 105.716 1260.04 463.703
974 0 61.2546 16.6355 1019 106.116 1261.07 460.503
975 0 62.1828 16.1459 1004 107.068 1260.98 459.662
976 0 64.269 16.8977 1086 105.955 1262.04 457.018
977 0 67.2906 13.7166 923 109.662 1261.95 459.191
978 0 68.3032 17.4809 1194 106.688 1263.11 454.087
979 0 69.2726 15.3307 1062 109.448 1263.02 453.111
980 0 72.352 14.2774 1033 110.878 1263.56 452.242
981 0 76.2522 13.5734 1035 114.93 1265.19 447.219
982 0 77.3875 13.4647 1042 112.537 1265.07 447.45
983 0 85.2493 19.4137 1655 102.285 1265.68 449.809
984 0 85.3032 15.779 1346 107.306 1266.6 446.543
985 0 85.184 14.2867 1217 110.373 1267.95 445.98
986 0 91.3106 17.4021 1589 104.319 1268.11 442.772
987 0 95.2169 13.317 1268 108.608 1268.21 447.67
988 0 97.2037 14.2999 1390 111.294 1267.8 448.432
989 0 97.2037 14.3719 1397 135.681 1267.76 448.5
990 1 50.3135 12.0842 608 109.586 1266.8 468.1
991 0 49.101 18.7165 919 94.9293 1268.36 466.84
992 0 51.1297 13.8471 708 106.047 1267.85 468.126
993 0 52.4066 11.0101 577 110.388 1267.67 470.196
994 0 52.2403 13.055 682 108.65 1266.9 465.933
995 0 57.3246 14.3394 822 106.601 1266.44 465.575
996 0 58.4383 16.2394 949 104.267 1267.08 468.043
997 0 61.2987 15.2042 932 111.972 1266.49 465.584
998 0 63.2095 16.8646 1066 108.597 1265.5 464.918
999 0 63.2009 14.3511 907 113 1265.3 463.914
1000 0 68.3771 18.8075 1286 105.481 1264.31 465.536
1001 0 70.2367 14.8355 1042 111.879 1264.06 464.714
1002 0 70.2433 14.1366 993 113.89 1262.48 462.992
1003 0 74.2668 14.2998 1062 112.183 1261.47 463.371
1004 0 76.4063 13.0094 994 115.036 1261.81 459.883
1005 0 78.437 14.7634 1158 114.052 1261.39 459.032
1006 0 79.1635 12.2405 969 119.686 1261.27 455.886
1007 0 81.2407 13.9216 1131 117.605 1260.68 452.086
1008 0 81.2407 14.0078 1138 133.397 1260.7 452.163
1009 0 88.2594 17.6412 1557 111.032 1260.61 450.669
1010 0 91.1976 20.8448 1901 106.173 1260.52 447.788
1011 0 94.3319 15.0214 1417 114.833 1260.64 446.013
1012 0 96.349 17.7791 1713 111.28 1260.84 443.668
1013 1 52.0399 10.8571 565 116.324 1259.69 469.358
1014 0 52.3424 12.8959 675 117.413 1259.91 464.376
1015 0 55.1868 13.6808 755 114.997 1253.55 461.264
1016 0 51.3294 8.57209 440 117.48 1257.14 457.73
1017 0 59.3317 13.9217 826 117.036 1262.66 461.054
1018 0 58.1116 12.4416 723 124.438 1262.94 459.129
1019 0 61.4275 16.1817 994 116.383 1262.47 455.989
1020 0 64.4563 15.142 976 118.995 1262.59 454.736
1021 0 63.3232 13.5653 859 124.305 1262.76 452.333
1022 0 67.3726 13.225 891 124.379 1263.36 453.481
1023 0 70.5827 16.2221 1145 117.476 1264.33 455.678
1024 0 71.3613 13.859 989 126.402 1264.46 450.714
1025 0 74.3702 15.1405 1126 123.272 1266.69 452.036
1026 0 74.2049 16.1849 1201 123.29 1266.04 449.32
1027 0 77.2031 14.9476 1154 123.996 1267.56 453.408
1028 1 157.493 17.5944 2771 120.382 1267.71 417.34
1029 1 80.2039 13.9893 1122 129.427 1267.6 449.466
1030 0 84.1827 15.3357 1291 127.569 1267.15 445.022
1031 0 87.2436 14.7403 1286 129.022 1268.67 446.979
1032 0 87.2436 14.7976 1291 158.702 1269.67 446.955
1033 0 93.372 16.9537 1583 124.859 1269.27 448.419
1034 1 46.2162 9.7152 449 135.098 1268.03 473.49
1035 0 49.1426 14.285 702 128.101 1268.57 470.561
1036 0 49.1745 13.6453 671 128.996 1267.51 471.156
1037 0 52.1212 14.0442 732 120.074 1270.35 472.731
1038 0 53.1659 16.9093 899 114.94 1270.18 470.315
1039 0 55.1511 15.1765 837 118.405 1269.78 471.042
1040 0 57.1326 18.3958 1051 112.265 1268.76 469.164
1041 0 59.2057 15.6573 927 116.368 1268.45 473.107
1042 0 62.283 13.6955 853 119.093 1267.41 474.054
1043 0 65.2015 16.9014 1102 112.678 1266.56 470.764
1044 0 65.2315 13.2451 864 120.829 1266.29 470.586
1045 0 65.4796 13.1644 862 122.377 1265.27 466.558
1046 0 70.4034 14.2181 1001 119.892 1265.57 463.352
1047 0 73.2382 17.6684 1294 112.992 1263.78 465.458
1048 0 74.1765 15.3283 1137 117.305 1263.88 463.763
1049 0 76.109 14.1639 1078 120.081 1263.58 461.896
1050 0 80.111 15.2663 1223 117.467 1262.02 461.25
1051 0 80.2073 13.7145 1100 120.34 1262.73 460.734
1052 0 80.2073 13.702 1099 139.431 1263.75 460.675
1053 0 84.114 15.5741 1310 122.076 1261.97 456.373
1054 0 88.1947 15.2617 1346 122.314 1262.42 453.41
1055 0 91.1994 15.3948 1404 121.637 1262.24 452.802
1056 0 94.1877 18.2508 1719 114.882 1262.08 455.774
1057 0 92.1122 14.6452 1349 124.8 1262.44 446.904
1058 0 100.134 15.6191 1564 120.134 1262 447.869
1059 1 49.0402 10.889 534 127.923 1261.97 469.148
1060 0 50.098 9.06224 454 130.8 1262.97 467.727
1061 0 53.1028 15.8937 844 118.677 1262.54 463.568
1062 0 54.0793 15.5512 841 117.784 1261.63 465.552
1063 0 57.1093 14.8312 847 119.321 1261.21 461.318
1064 0 59.1011 17.0724 1009 115.304 1262.31 458.882
1065 0 60.099 13.0285 783 119.572 1263.52 459.078
1066 0 63.1628 14.2014 897 117.909 1263.92 455.191
1067 0 66.1472 14.0142 927 118.415 1263.78 455.286
1068 0 68.0402 14.7413 1003 118.31 1265.51 455.917
1069 0 70.3462 14.1443 995 120.356 1265.09 454.686
1070 0 71.1901 15.2128 1083 119.343 1266.24 450.595
1071 0 75.129 13.4569 1011 122.348 1266.71 454.858
1072 0 78.3293 15.371 1204 119.3 1266.48 451.837
1073 0 82.254 15.902 1308 118.539 1266.84 450.197
1074 0 83.2508 15.6755 1305 117.72 1267.74 454.28
1075 0 85.3415 13.5456 1156 124.142 1267.31 450.767
1076 0 87.3499 14.917 1303 123.112 1267.87 448.535
1077 1 45.1665 12.2436 553 123.931 1267.53 473.148
1078 0 48.14 13.2946 640 124.65 1267.03 471.292
1079 0 50.274 14.5005 729 123.394 1267.62 468.326
1080 0 50.3602 14.9722 754 123.886 1265.86 466.638
1081 0 51.158 13.8395 708 127.309 1266.07 467.781
1082 0 54.2707 13.8749 753 124.141 1266.36 472.313
1083 0 56.3076 14.1189 795 125.062 1267.48 471.52
1084 0 59.1394 14.1192 835 124.486 1266.91 470.526
1085 0 60.128 15.4005 926 121.505 1266.31 472.587
1086 0 62.3722 13.7561 858 124.265 1266.05 470.255
1087 0 63.4243 12.1562 771 128.143 1265.67 468.217
1088 0 65.1421 14.6756 956 122.099 1264.85 471.685
1089 0 69.3439 17.507 1214 116.946 1264.06 466.512
1090 0 71.4399 14.9356 1067 121.765 1262.75 464.54
1091 0 73.2803 18.6817 1369 114.92 1263.67 463.55
1092 0 75.5608 14.9681 1131 121.698 1262.88 462.05
1093 0 76.6405 15.2791 1171 122.247 1262.38 458.618
1094 0 82.5372 15.4112 1272 119.986 1260.82 458.293
1095 0 84.3598 17.6861 1492 114.239 1260.85 456.431
1096 0 84.3598 17.6861 1492 130.192 1260.84 456.479
1097 1 44.6023 12.6675 565 121.327 1260.05 472.667
1098 0 44.6023 12.5778 561 142.278 1259.06 472.465
1099 0 49.6798 12.7416 633 121.16 1259.79 467.934
1100 0 50.1211 11.4922 576 123.269 1258.99 469.521
1101 0 51.2539 13.3844 686 121.402 1259.34 467.73
1102 0 51.3482 13.1456 675 121.367 1259.1 465.17
1103 0 55.2367 15.0081 829 116.634 1259.19 465.895
1104 0 56.3702 15.0434 848 116.861 1260.44 463.619
1105 0 56.208 15.0868 848 117.764 1260 458.792
1106 0 57.3371 13.3247 764 121.236 1260.69 459.287
1107 0 60.5126 13.1047 793 120.812 1258.97 459.11
1108 0 64.3257 17.1782 1105 112.942 1262.2 454.237
1109 0 66.7158 13.9697 932 117.818 1261.72 453.166
1110 0 69.2525 13.8623 960 115.955 1263.09 455.875
1111 0 70.4957 14.6534 1033 116.419 1263.65 451.164
1112 0 71.5303 14.022 1003 116.128 1264.52 448.297
1113 0 76.4433 14.8738 1137 113.648 1265.32 449.985
1114 0 79.5042 16.2004 1288 111.557 1265.23 449.805
1115 0 80.5664 12.7969 1031 116.335 1266.16 450.657
1116 0 85.2946 13.7172 1170 115.394 1266.74 449.985
1117 0 85.2946 13.7523 1173 137.054 1267.72 449.898
1118 0 90.5255 14.3716 1301 115.583 1267.05 447.706
1119 1 46.3129 12.9985 602 115.09 1265.45 468.658
1120 0 49.2938 10.7924 532 119.876 1266.35 467.908
1121 0 50.3158 13.0575 657 117.434 1265.79 468.944
1122 0 52.1059 12.4362 648 122.346 1265.21 469.536
1123 0 54.0914 14.3091 774 118.261 1264.59 470.815
1124 0 54.018 12.5699 679 120.954 1264.71 473.54
1125 0 59.0931 13.2334 782 118.219 1265.15 475.013
1126 0 58.149 12.1412 706 125.388 1264.25 463.976
1127 0 62.2002 11.8328 736 122.88 1263.86 467.36
1128 0 64.2184 13.7811 885 118.282 1262.2 468.866
1129 0 64.2184 13.8745 891 147.191 1260.21 468.911
1130 0 68.1863 12.0112 819 120.247 1261.13 471.297
1131 0 69.3199 11.2955 783 122.714 1261.17 464.727
1132 0 73.4026 14.2774 1048 117.494 1260.14 464.403
1133 0 74.5026 13.5834 1012 119.554 1259.6 463.534
1134 0 77.2704 13.3686 1033 117.239 1257.84 462.647
1135 0 88.4139 9.98712 883 123.988 1259.41 458.646
1136 0 84.5237 15.6406 1322 114.658 1258.35 452.408
1137 0 83.7953 15.5259 1301 114.909 1258.88 457.271
1138 0 86.8425 12.4824 1084 120.399 1258.86 454.509
1139 0 91.0285 15.8192 1440 115.215 1258.21 449.528
1140 0 95.8028 17.9014 1715 110.679 1258.22 450.546
1141 0 98.092 14.1602 1389 118.488 1258.34 446.983
1142 1 51.5659 13.2258 682 117.852 1258.42 467.419
1143 0 52.2857 14.0956 737 113.353 1257.52 464.336
1144 0 50.5162 10.6303 537 120.285 1257.9 466.067
1145 0 53.5383 15.4282 826 112.55 1258.8 464.318
1146 0 55.4878 14.4897 804 113.662 1258.25 465.051
1147 0 56.3459 11.8021 665 118.09 1258.68 464.92
1148 0 59.5647 15.2103 906 112.035 1259.04 461.908
1149 0 60.2771 12.5587 757 115.83 1260.05 462.116
1150 0 63.3459 12.2186 774 116.336 1259.38 458.838
1151 0 64.5203 15.034 970 112.792 1261.11 457.568
1152 0 67.313 14.1132 950 114.679 1261.54 456.711
1153 0 68.3268 10.0839 689 122.158 1261.38 455.993
1154 0 68.3268 10.0985 690 149.17 1261.35 456.162
1155 0 71.2607 12.5034 891 118.809 1263.29 456.926
1156 0 75.3985 13.6607 1030 118.304 1263.26 449.862
1157 0 78.3814 13.6129 1067 119.417 1264.64 449.274
1158 0 77.3106 15.3666 1188 115.609 1264.81 449.099
1159 0 83.4199 13.5579 1131 119.504 1265.24 451.109
1160 0 83.2414 12.3376 1027 122.14 1264.45 450.465
1161 0 88.3157 14.9351 1319 118.017 1266.82 450.307
1162 0 89.1276 13.3853 1193 120.532 1266.26 451.222
1163 0 93.2374 18.3295 1709 112.51 1267.5 444.008
1164 0 96.3442 14.8011 1426 117.785 1266.12 450.759
1165 1 49.0482 11.8863 583 121.537 1265.94 472.456
1166 0 53.1223 11.5394 613 122.104 1266.17 471.465
1167 0 53.2773 12.8009 682 120.859 1267.75 468.94
1168 0 55.3232 12.5806 696 120.843 1267.77 468.986
1169 0 57.1251 14.4245 824 118.126 1267.88 469.89
1170 0 61.1996 15.1308 926 113.471 1267.65 475.674
1171 0 62.2044 14.163 881 118.361 1267.05 471.518
1172 0 63.1386 12.132 766 122.529 1266.37 470.772
1173 0 66.1511 13.2273 875 120.408 1265.58 469.758
1174 0 68.2343 12.501 853 121.682 1264.82 468.423
1175 0 70.2064 11.1956 786 123.93 1264.06 466.767
1176 0 72.2346 14.2453 1029 119.146 1263.54 466.632
1177 0 75.1099 11.9026 894 123.46 1262.49 464.174
1178 0 78.2182 15.5846 1219 116.611 1261.95 461.847
1179 0 81.3275 16.9807 1381 113.538 1261.51 463.282
1180 0 81.3354 12.7866 1040 121.482 1261.11 460.234
1181 0 85.271 13.85 1181 119.211 1259.88 457.041
1182 0 90.1747 14.5717 1314 118.194 1260.14 456.126
1183 0 90.2599 15.3667 1387 119.355 1260.86 454.073
1184 0 94.2625 16.3904 1545 116.326 1260.32 452.551
1185 0 97.1769 15.5181 1508 117.572 1259.8 453.408
1186 0 99.2927 15.4291 1532 119.42 1258.83 442.898
1187 1 51.1523 11.0259 564 126.009 1260.39 467.621
1188 0 51.2069 11.2485 576 153.181 1261.37 467.304
1189 0 54.2345 12.7225 690 116.701 1258.14 458.952
1190 0 56.158 13.6935 769 114.546 1259.42 458.706
1191 0 58.2854 11.3236 660 118.836 1261.27 455.461
1192 0 60.0541 12.3888 744 116.991 1260.95 456.351
1193 0 60.1488 11.8373 712 119.678 1262.44 450.35
1194 0 63.1694 12.7277 804 117.903 1262.92 450.815
1195 0 65.3154 12.7076 830 118.175 1262.4 447.541
1196 0 68.2264 11.8722 810 118.478 1263.54 446.815
1197 0 70.1703 11.2013 786 118.975 1264.39 448.841
1198 0 73.2665 12.6661 928 116.763 1264.04 445.269
1199 0 78.244 17.5477 1373 113.755 1264.74 452.208
1200 0 79.2387 12.1405 962 122.391 1265.07 450.605
1201 0 82.1854 12.2893 1010 122.248 1265.97 450.712
1202 0 87.1681 14.0763 1227 118.485 1267.13 444.356
1203 1 50.1504 11.9441 599 116.357 1265.65 469.245
1204 0 50.2044 10.5768 531 119.147 1265.33 469.1
1205 0 51.1459 12.6305 646 117.415 1265.65 466.317
1206 0 50.1074 10.3578 519 117.104 1265.63 470.63
1207 0 56.0993 12.674 711 114.719 1264.5 468.361
1208 0 58.1117 11.9253 693 117.342 1263.95 468.999
1209 0 58.0849 12.6195 733 118.576 1264.32 466.311
1210 0 60.0956 12.8961 775 116.657 1264.1 466.809
1211 0 61.1103 11.0783 677 120.959 1263.18 468.502
1212 0 64.1554 13.2179 848 117.841 1264.32 465.796
1213 0 64.2877 11.3241 728 121.641 1264.07 461.832
1214 0 68.2317 13.9671 953 116.115 1263.9 466.509
1215 0 71.3638 14.7694 1054 114.965 1263.35 464.174
1216 0 71.2877 14.7431 1051 133.388 1262.35 464.129
1217 0 76.2606 13.0736 997 119 1262.35 461.613
1218 0 76.3662 10.7901 824 123.63 1261.01 460.857
1219 0 81.2648 15.4926 1259 115.054 1260.75 459.263
1220 0 84.2929 14.8292 1250 115.678 1260.43 460.122
1221 1 46.1093 11.6462 537 118.048 1259.01 477.529
1222 0 50.6014 13.8731 702 114.389 1261.12 476.296
1223 0 46.5118 12.685 590 120.432 1260.31 474.371
1224 0 52.4731 15.4365 810 112.654 1259.83 473.177
1225 0 52.4388 14.8363 778 116.864 1259.5 470.17
1226 0 51.454 13.5072 695 121.101 1259.75 469.151
1227 0 57.3457 12.7298 730 120.948 1259.28 469.67
1228 0 57.2538 13.2393 758 121.453 1259.5 466.649
1229 0 56.3547 13.2553 747 122.901 1259.27 462.51
1230 0 60.0908 15.0772 906 117.311 1257.43 466.923
1231 0 59.0762 15.2346 900 116.299 1259.08 461.978
1232 0 63.0254 16.057 1012 113.524 1258.75 463.613
1233 0 62.1002 14.074 874 117.016 1258.71 461.967
1234 0 65.1583 12.9838 846 120.374 1259.67 458.24
1235 0 68.2406 11.6353 794 120.276 1259.66 459.694
1236 0 69.2144 12.064 835 121.041 1259.78 453.794
1237 0 72.315 11.7265 848 121.443 1261.45 454.246
1238 0 74.2071 17.2625 1281 111.064 1260.89 455.612
1239 0 79.0746 16.1114 1274 111.082 1261.9 455.616
1240 0 79.2044 11.9943 950 120.248 1262.07 452.855
1241 0 85.2238 16.1692 1378 114.585 1263 448.115
1242 1 44.3224 12.2286 542 122.046 1263.34 465.328
1243 0 47.274 13.6227 644 118.891 1264.4 465.652
1244 0 45.0181 13.4613 606 122.376 1264.93 467.198
1245 0 45.0181 13.4613 606 158.752 1265.93 467.198
1246 0 49.3333 14.4325 712 119.878 1265.51 464.965
1247 0 51.1166 16.7069 854 113.354 1266.57 469.63
1248 0 51.2469 15.1033 774 119.559 1266.13 463.804
1249 0 54.1824 13.4545 729 120.492 1266.03 469.361
1250 0 54.2948 14.366 780 120.215 1267 468.287
1251 0 56.2015 17.9177 1007 114.628 1266.91 468.557
1252 0 57.3178 17.97 1030 114.329 1266.18 470.197
1253 0 58.407 16.4535 961 119.327 1265.69 467.932
1254 0 58.1255 13.3848 778 127.469 1264.8 468.461
1255 0 62.2751 16.8767 1051 119.954 1264.58 467.951
1256 0 64.2564 16.0607 1032 121.646 1264.61 468.661
1257 0 65.3273 16.6393 1087 121.29 1264.88 467.904
1258 0 66.1997 19.985 1323 115.81 1263.99 464.676
1259 0 69.2225 14.9518 1035 125.51 1263.27 465.348
1260 0 74.4102 17.4573 1299 117.313 1261.24 468.131
1261 0 75.3079 16.4392 1238 121.494 1261.47 459.284
1262 0 76.2803 15.5217 1184 123.6 1261.7 462.895
1263 0 78.2275 16.2091 1268 122.472 1260.75 459.942
1264 0 78.2275 16.2731 1273 148.597 1259.77 459.94
1265 0 84.4328 17.055 1440 120.48 1258.53 456.098
1266 0 84.5584 14.1796 1199 126.751 1259.19 451.513
1267 0 88.4576 15.1937 1344 123.896 1259.12 452.865
1268 0 91.3692 14.1952 1297 124.683 1258.02 453.668
1269 0 92.4231 12.6267 1167 129.16 1258.9 448.086
1270 0 102.473 20.1809 2068 112.691 1257.82 440.205
1271 1 55.551 11.4669 637 125.879 1258.51 466.841
1272 0 54.2736 12.0685 655 124.687 1258.41 464.247
1273 0 58.2868 16.2644 948 116.288 1258.95 460.954
1274 0 60.2968 15.3905 928 116.954 1258.91 460.553
1275 0 64.2235 16.2557 1044 115.499 1259.44 456.613
1276 0 66.1802 13.4632 891 119.502 1258.91 456.328
1277 0 68.1832 15.6637 1068 115.919 1260.54 454.321
1278 0 69.2 11.9364 826 120.669 1259.83 457.184
1279 0 71.3459 15.3478 1095 116.331 1260.77 451.717
1280 0 73.2885 15.8961 1165 114.528 1260.82 451.002
1281 0 78.2383 14.2258 1113 117.969 1262.34 442.266
1282 0 78.2812 14.0008 1096 118.778 1262.37 443.51
1283 0 82.3092 14.9801 1233 117.256 1263.54 441.403
1284 0 84.3226 12.4878 1053 120.354 1264.35 444.269
1285 0 88.2194 13.3757 1180 119.715 1263.81 444.317
1286 0 88.2148 13.0477 1151 121.403 1264.72 439.851
1287 0 92.3911 12.7069 1174 121.931 1266.03 439.319
1288 1 48.3712 10.0473 486 121.895 1265.15 462.154
1289 0 50.2603 11.5399 580 118.881 1266.56 464.014
1290 0 52.1283 11.4333 596 119.629 1267.85 464.384
1291 0 54.3431 13.6172 740 116.057 1267.77 464.841
1292 0 57.1397 14.4383 825 116.413 1268.76 464.387
1293 0 58.0528 12.1958 708 113.826 1269.24 462.247
1294 0 59.0415 13.2788 784 112.024 1269.14 459.071
1295 0 62.192 13.2332 823 112.373 1268.65 459.414
1296 0 65.0981 13.7485 895 111.199 1267.36 458.126
1297 0 67.4613 11.0285 744 114.597 1267.44 456.431
1298 0 71.5638 12.2548 877 112.095 1267.18 460.914
1299 0 71.2193 7.94728 566 119.074 1267.54 456.737
1300 0 76.3583 13.2271 1010 112.038 1266.89 456.455
1301 0 78.3191 9.38468 735 116.354 1266.06 456.535
1302 0 78.3191 9.39745 736 136.236 1265.09 456.351
1303 0 85.3276 9.97333 851 115.61 1264.79 453.461
1304 0 89.4302 12.6691 1133 111.405 1263.78 451.442
1305 0 92.295 16.0464 1481 105.839 1262.63 450.432
1306 0 94.2285 11.7905 1111 113.408 1262.08 440.274
1307 0 94.2285 11.7905 1111 130.427 1261.08 440.212
1308 1 56.0611 13.3426 748 110.179 1256.82 468.976
1309 0 58.2005 11.5635 673 113.021 1258.58 469.881
1310 0 62.1279 13.3112 827 109.514 1257.8 466.291
1311 0 63.0967 13.5506 855 110.827 1257.64 465.511
1312 0 63.0967 13.6299 860 136.084 1256.64 465.492
1313 0 66.2006 13.5346 896 111.208 1257.62 462.036
1314 0 68.0729 15.4393 1051 111.559 1257.68 458.561
1315 0 72.1503 12.0997 873 115.994 1258.1 456.655
1316 0 75.116 16.8273 1264 108.826 1257.4 450.315
1317 0 75.1428 11.7243 881 118.78 1257.86 449.27
1318 0 80.0559 14.3899 1152 113.336 1258.89 448.868
1319 0 83.1662 15.4029 1281 111.994 1259.35 445.849
1320 0 88.3414 15.5533 1374 109.838 1259.47 448.876
1321 0 87.3425 13.4299 1173 114.962 1260.71 444.551
1322 0 89.3518 15.0529 1345 113.431 1260.8 439.209
1323 0 92.2015 13.2536 1222 116.187 1262.44 442.665
1324 0 94.1766 11.9244 1123 118.858 1262.93 438.905
1325 0 98.2505 13.6895 1345 114.314 1263.84 443.187
1326 1 53.2373 13.0735 696 110.29 1264.11 462.158
1327 0 54.2414 12.5181 679 111.664 1263.95 462.451
1328 0 56.4276 16.2332 916 104.766 1265.13 459.347
1329 0 56.1392 15.515 871 107.421 1265.48 460.627
1330 0 56.1051 15.4888 869 107.91 1264.99 462.371
1331 0 55.0448 10.1735 560 118.495 1265.93 462.805
1332 0 55.2192 10.5398 582 117.04 1265.43 462.82
1333 0 61.1445 16.9107 1034 106.603 1266.69 462.587
1334 0 62.1446 13.2916 826 112.484 1264.9 462.72
1335 0 65.0827 11.3241 737 113.742 1266.32 466.7
1336 0 66.3017 8.53674 566 114.311 1265.77 471.058
1337 0 69.1786 12.5617 869 109.879 1265.43 468.239
1338 0 72.3134 11.9895 867 111.87 1265.05 464.474
1339 0 76.2685 11.6693 890 112.016 1264.79 463.522
1340 0 78.2834 12.9146 1011 110.353 1264.41 461.918
1341 0 77.2141 9.29882 718 114.401 1264.46 467.042
1342 0 85.3082 12.2966 1049 111.194 1263.61 454.807
1343 0 88.7929 11.9266 1059 111.893 1264.44 453.817
1344 0 92.6492 13.686 1268 108.878 1262.02 454.235
1345 0 94.532 17.1476 1621 104.745 1262.2 451.456
1346 0 97.8354 15.9349 1559 106.477 1261.41 447.262
1347 1 56.5702 12.9927 735 108.686 1262.17 470.944
1348 0 57.5799 12.8865 742 109.132 1261.82 469.195
1349 0 55.2619 10.7126 592 110.047 1259.82 463.465
1350 0 56.1632 13.7456 772 106.172 1258.23 467.035
1351 0 60.2716 10.5024 633 111.092 1257.8 465.894
1352 0 63.1525 14.0454 887 105.071 1257.93 463.87
1353 0 65.4663 17.4135 1140 102.319 1258.44 457.268
1354 0 68.2715 12.8751 879 112.821 1258.36 463.842
1355 0 70.2968 17.0989 1202 106.549 1258.18 463.661
1356 0 68.2767 13.4746 920 116.888 1258.14 461.665
1357 0 68.1959 14.473 987 113.889 1258.75 459.958
1358 0 78.2629 16.6107 1300 108.332 1258.98 458.25
1359 0 76.3845 18.3545 1402 108.319 1259.24 453.708
1360 0 78.1803 15.9119 1244 112.075 1258.84 455.848
1361 0 82.3872 16.738 1379 110.273 1259.38 455.009
1362 0 82.3872 16.7987 1384 142.218 1259.37 455.062
1363 0 84.3837 14.1022 1190 117.718 1259.98 444.714
1364 0 90.2742 14.4338 1303 116.2 1260.83 442.824
1365 1 48.472 12.0895 586 118.316 1262.04 459.884
1366 0 54.1891 12.9915 704 112.838 1261.83 464.334
1367 0 55.3795 14.3555 795 112.561 1263.48 462.16
1368 0 56.2941 13.9091 783 111.941 1263.77 463.444
1369 0 58.1997 14.4674 842 112.853 1264.53 458.887
1370 0 59.6061 16.3574 975 111.444 1263.52 459.13
1371 0 62.4243 14.1932 886 111.398 1264.93 460.394
1372 0 59.131 12.3793 732 114.59 1264.82 458.363
1373 0 63.1772 16.3983 1036 106.736 1265.53 463.23
1374 0 64.162 14.853 953 110.566 1265.2 461.023
1375 0 66.2324 13.0299 863 113.687 1265.7 459.519
1376 0 69.2104 16.5727 1147 107.906 1266.41 459.217
1377 0 73.2946 19.2238 1409 103.748 1267 459.434
1378 0 77.6573 14.036 1090 111.528 1266.7 460.175
1379 0 76.2829 13.2664 1012 114.068 1267.17 458.552
1380 0 81.2706 19.4658 1582 103.549 1266.22 462.025
1381 0 81.5146 16.3038 1329 108.843 1266.2 460.324
1382 0 90.5959 14.813 1342 109.483 1265.6 458.225
1383 0 89.4866 14.9184 1335 109.74 1266.26 456.555
1384 0 91.3378 13.5869 1241 112.367 1265.56 454.611
1385 0 96.9287 15.465 1499 109.261 1265.56 452.598
1386 0 98.8315 14.2161 1405 111.943 1264.09 451.391
1387 0 99.5064 12.6726 1261 115.394 1264.07 448.874
1388 1 56.6594 10.8367 614 115.484 1262.56 469.948
1389 0 54.4828 11.3614 619 116.709 1261.87 469.368
1390 0 58.5429 15.8516 928 105.904 1261.4 468.608
1391 0 60.5329 17.8581 1081 106.743 1261.12 465.575
1392 0 61.4371 12.3378 758 115.624 1261.36 466.865
1393 0 62.2354 15.827 985 111.33 1259.11 467.107
1394 0 64.2263 15.0094 964 113.444 1259.3 466.722
1395 0 65.3863 13.1679 861 117.258 1258.8 465.274
1396 0 69.666 16.4786 1148 111.851 1258.75 461.995
1397 0 71.2783 14.3803 1025 115.854 1259.12 457.16
1398 0 76.5089 17.0699 1306 109.381 1258.15 459.27
1399 0 78.4453 17.3369 1360 108.65 1259.07 455.165
1400 0 78.5467 16.2578 1277 111.451 1258.68 451.998
1401 0 80.6043 16.6244 1340 111.713 1259.18 449.938
1402 0 84.7056 15.9494 1351 111.825 1259.5 449.837
1403 0 87.5906 18.7006 1638 107.922 1260.14 445.762
1404 0 88.7503 15.3126 1359 114.23 1259.63 445.154
1405 0 90.5551 13.6933 1240 117.215 1260.4 445.223
1406 0 94.9513 14.9445 1419 115.906 1261.37 441.66
1407 0 97.6741 15.5005 1514 116.671 1261.66 436.062
1408 0 100.765 14.8364 1495 117.101 1262.5 434.064
1409 0 105.418 15.9745 1684 110.622 1263.89 435.866
1410 0 108.486 17.394 1887 108.375 1264.96 422.383
1411 0 111.477 17.1335 1910 111.275 1265.65 415.238
1412 0 112.499 14.1868 1596 117.066 1265.68 418.741
1413 0 116.573 17.0452 1987 112.74 1265.95 417.802
1414 0 121.668 15.3532 1868 116.475 1266.3 411.754
1415 0 127.914 16.0263 2050 114.253 1266.74 412.483
1416 0 132.499 17.1473 2272 113.279 1266.91 411.944
1417 0 134.549 15.5482 2092 116.342 1267.51 417.036
1418 0 137.667 14.5569 2004 117.89 1267.28 423.156
1419 0 137.667 14.5859 2008 139.921 1268.28 423.371
1420 1 147.532 14.9527 2206 118.06 1267.1 416.714
1421 0 151.451 14.2026 2151 120.076 1267.47 413.808
1422 0 159.514 16.45 2624 115.498 1267.84 418.329
1423 0 165.692 17.0376 2823 115.109 1267.59 415.078
1424 0 169.457 15.6736 2656 117.123 1266.85 413.999
1425 0 174.719 17.6913 3091 114.06 1266.41 412.863
1426 0 181.568 22.3442 4057 107.142 1265.78 410.713
1427 0 190.254 16.8354 3203 115.216 1265.35 407.276
1428 0 190.254 16.8459 3205 147.762 1264.36 407.457
1429 1 201.387 15.4975 3121 117.283 1264.76 404.854
1430 0 207.581 17.7184 3678 114.759 1263.16 398.65
1431 0 206.572 13.1722 2721 120.986 1262.65 406.39
1432 1 223.696 18.3598 4107 113.132 1261.32 396.565
1433 0 228.355 15.2526 3483 118.508 1262.34 388.893
1434 0 236.649 17.9422 4246 113.101 1261.1 386.835
1435 0 247.71 16.4103 4065 116.042 1260.89 377.895
1436 0 253.491 14.7619 3742 118.653 1259.4 383.455
1437 1 190.669 14.2761 2722 119.747 1259.62 402.101
1438 0 194.671 14.6298 2848 120.135 1259.6 393.028
1439 0 205.509 16.3399 3358 115.044 1259.13 399.073
1440 0 210.566 17.415 3667 115.108 1258.54 389.859
1441 0 217.864 15.7621 3434 115.836 1258.42 393.854
1442 0 225.641 14.6428 3304 118.686 1258.41 375.371
1443 0 235.054 16.1623 3799 115.113 1258.94 380.662
1444 1 62.2605 12.3513 769 111.961 1257.95 453.14
1445 0 64.275 11.7931 758 111.917 1258.3 448.086
1446 0 65.1121 12.4401 810 107.673 1258.45 447.89
1447 0 66.0338 12.1604 803 110.035 1259.12 436.252
1448 0 67.2051 11.6955 786 110.768 1258.27 441.267
1449 0 73.1769 14.1711 1037 105.769 1259.45 442.744
1450 0 76.3094 15.9613 1218 105.036 1260.87 449.64
1451 0 80.2016 14.476 1161 104.113 1261.27 449.03
1452 0 83.3268 16.0453 1337 101.299 1262.15 446.049
1453 0 83.2869 14.7922 1232 104.147 1261.88 450.199
1454 0 89.3579 13.6642 1221 105.71 1263.47 445.5
1455 0 89.329 11.508 1028 110.013 1263.87 442.536
1456 0 94.1998 13.1104 1235 108.052 1264.95 439.002
1457 1 48.0863 11.9785 576 108.667 1265.24 465.422
1458 0 51.4312 11.18 575 106.473 1266.28 467.45
1459 0 55.2163 14.5971 806 102.419 1265.59 465.686
1460 0 57.3342 13.0638 749 108.288 1269.41 462.704
1461 0 66.0821 21.7759 1439 93.0271 1269.29 457.036
1462 0 70.4779 19.0414 1342 95.845 1268.69 457.023
1463 0 69.1468 14.65 1013 103.42 1268.72 456.752
1464 0 68.3241 15.2069 1039 104.416 1269.46 458.336
1465 1 84.4456 19.6221 1657 93.8835 1268.39 453.171
1466 0 78.7794 18.3804 1448 97.9082 1269.47 453.608
1467 0 83.065 22.2958 1852 94.0918 1268.27 458.328
1468 0 76.264 18.3048 1396 102.685 1268.68 459.683
1469 0 72.3175 12.6664 916 114.434 1267.55 459.696
1470 0 72.3175 12.777 924 147.545 1266.58 459.744
1471 0 78.2864 14.8557 1163 109.435 1263.95 467.134
1472 0 82.302 15.431 1270 108.553 1263.88 463.576
1473 0 81.2759 21.79 1771 100.456 1262.71 463.64
1474 0 83.236 11.5575 962 115.339 1262.13 460.873
1475 0 95.2708 19.5548 1863 101.107 1261.23 453.229
1476 0 89.3069 11.1749 998 117.627 1260.62 455.709
1477 0 92.5855 16.7845 1554 107.376 1260.62 452.577
1478 0 90.4307 11.8212 1069 114.524 1259.27 454.777
1479 1 119.411 18.9932 2268 99.2945 1259.77 439.336
1480 0 114.061 23.1016 2635 96.3097 1258.93 438.178
1481 0 113.501 22.687 2575 97.4769 1259.05 432.889
1482 1 57.4014 13.8673 796 106.077 1260.16 467.79
1483 0 62.1402 15.2075 945 100.96 1260.93 465.849
1484 0 63.3321 14.8582 941 101.111 1260.27 464.542
1485 0 62.1237 13.1512 817 104.579 1260.87 463.388
1486 0 65.2402 15.9411 1040 100.102 1261.21 463.621
1487 0 69.1525 14.186 981 101.975 1261.12 463.401
1488 0 65.2942 14.7793 965 104.338 1260.81 456.406
1489 0 71.0759 13.9147 989 103.656 1261.47 462.025
1490 0 71.13 14.6633 1043 104.306 1261.75 455.645
1491 0 73.1719 14.8691 1088 104.324 1262.01 450.271
1492 0 76.2966 14.247 1087 104.956 1262.66 452.276
1493 0 78.1796 17.4982 1368 100.781 1262.84 448.862
1494 0 79.284 16.6869 1323 103.323 1262.68 448.042
1495 0 80.1751 14.4434 1158 106.719 1263.56 446.225
1496 0 83.2296 15.2109 1266 105.662 1264.29 447.28
1497 0 88.2414 15.1063 1333 104.22 1266.01 446.441
1498 0 94.2611 13.8233 1303 105.562 1265.28 442.562
1499 0 94.396 13.2421 1250 106.084 1266.52 442.946
1500 1 186.794 12.1096 2262 111.966 1266.76 403.714
1501 0 187.562 12.2999 2307 113.061 1267.81 394.305
1502 1 54.3621 13.4285 730 104.566 1267.87 461.574
1503 0 59.3585 12.1465 721 105.082 1268.16 463.058
1504 0 60.3925 16.757 1012 99.3992 1267.26 465.361
1505 0 61.7696 19.3946 1198 97.111 1267.47 463.899
1506 0 64.4464 14.5702 939 102.999 1268.22 465.153
1507 0 62.4257 13.0395 814 105.79 1265.83 464.533
1508 0 71.4811 14.4094 1030 101.675 1267.07 462.299
1509 0 70.3329 18.0854 1272 98.1022 1266.5 463.926
1510 0 71.2287 17.3245 1234 98.6807 1266.6 466.828
1511 0 74.3721 15.3956 1145 101.542 1265.41 462.281
1512 0 78.223 15.3152 1198 101.413 1265.15 460.399
1513 0 81.4245 12.748 1038 103.441 1265.78 466.78
1514 0 85.3901 13.5847 1160 103.949 1264.79 461.283
1515 0 83.465 16.438 1372 100.469 1264.36 461.803
1516 0 85.2375 13.0459 1112 106.429 1263.34 459.809
1517 0 88.2236 13.4431 1186 105.69 1262.83 458.154
1518 0 92.2333 17.8027 1642 99.8733 1262.81 457.872
1519 0 95.519 13.903 1328 105.793 1261.93 453.276
1520 0 98.5225 15.6005 1537 103.348 1261.7 450.468
1521 0 101.185 14.1721 1434 106.107 1261.79 445.738
1522 0 103.329 11.0231 1139 109.206 1260.7 446.881
1523 1 56.1679 9.70306 545 106.04 1261.01 473.251
1524 0 60.1088 11.8286 711 103.214 1260.23 471.308
1525 0 61.1908 13.9727 855 103.63 1256.92 467.649
1526 0 64.3095 11.6313 748 107.057 1257.69 464.607
1527 0 64.656 12.8836 833 104.062 1256.76 466.079
1528 0 65.3245 14.7571 964 105.176 1257.77 460.346
1529 0 68.52 12.4927 856 107.148 1257.26 459.148
1530 0 70.3231 19.0833 1342 98.4553 1258.05 456.946
1531 0 70.3231 19.1544 1347 121.321 1259.03 456.955
1532 0 75.4138 12.5972 950 107.481 1259.18 452.957
1533 0 79.1631 12.5311 992 106.591 1258.73 456.374
1534 0 81.0809 17.5997 1427 100.882 1259.37 448.051
1535 0 81.0809 17.427 1413 125.14 1259.38 447.939
1536 0 84.29 12.9197 1089 107.334 1260.9 445.577
1537 0 86.4035 12.5342 1083 108.228 1261.12 443.56
1538 0 90.451 13.7754 1246 105.893 1262.82 444.596
1539 0 91.3366 14.5506 1329 104.659 1263.31 448.786
1540 0 92.2442 14.0497 1296 106.973 1264 448.088
1541 0 91.1306 9.50284 866 113.465 1264.02 447.827
1542 0 99.5663 13.9605 1390 106.97 1264.8 445.309
1543 1 106.369 11.8926 1265 110.298 1265.21 443.094
1544 0 108.736 15.8089 1719 104.952 1266.96 440.767
1545 0 110.582 13.2933 1470 110.239 1267.61 438.877
1546 0 115.568 14.6234 1690 108.17 1267.25 438.587
1547 0 114.337 13.4515 1538 111.623 1266.84 437.631
1548 1 66.2093 12.2792 813 109.246 1267.54 459.485
1549 0 67.2338 12.6722 852 108.83 1267.28 456.903
1550 0 70.3335 12.0426 847 104.226 1266.72 465.426
1551 0 71.1772 12.0685 859 104.417 1265.44 456.822
1552 0 74.211 12.6935 942 103.182 1265.86 457.294
1553 0 76.3179 12.2121 932 103.715 1265.84 459.329
1554 0 78.1992 8.0052 626 110.165 1265.57 457.428
1555 0 80.3019 11.5066 924 106.026 1264.68 456.723
1556 0 83.1853 10.4586 870 107.689 1264.48 455.079
1557 0 86.1863 13.9929 1206 102.984 1264.8 455.623
1558 0 87.2121 10.3311 901 108.905 1264.57 454.274
1559 0 93.428 13.1866 1232 103.472 1262.89 454.615
1560 0 96.1031 13.1838 1267 103.601 1260.94 452.135
1561 0 98.2326 14.0788 1383 103.658 1261.59 447.705
1562 0 100.354 8.60955 864 111.661 1261.13 448.04
1563 0 108.289 11.2846 1222 107.971 1261.2 449.272
1564 0 105.3 11.586 1220 109.73 1260.19 443.439
1565 0 107.169 12.8115 1373 109.653 1259.49 439.499
1566 0 113.295 14.8815 1686 110.387 1260.45 442.738
1567 0 118.365 14.9875 1774 109.86 1259.55 437.775
1568 0 118.4 15.6672 1855 110.28 1258.91 431.729
1569 0 121.389 14.2929 1735 111.761 1258.94 434.69
1570 0 126.555 14.1204 1787 111.862 1258.67 431.614
1571 0 129.495 14.8654 1925 111.816 1260.45 426.046
1572 0 132.376 17.6769 2340 106.949 1260.1 425.769
1573 0 135.379 13.8795 1879 112.499 1260.02 411.714
1574 0 139.51 12.587 1756 114.159 1259.69 413.904
1575 0 147.807 16.3389 2415 108.069 1260.86 407.203
1576 0 150.514 10.9026 1641 115.351 1260.42 410.436
1577 0 154.381 14.9889 2314 110.586 1260.84 399.293
1578 0 160.346 15.7721 2529 109.026 1261.4 402.232
1579 0 161.446 11.459 1850 114.649 1261.82 405.643
1580 0 172.626 14.0535 2426 112.133 1262.98 394.751
1581 0 174.468 13.6415 2380 112.607 1263.28 390.555
1582 0 178.469 12.7417 2274 113.554 1263.78 394.524
1583 0 185.419 13.2942 2465 113.128 1263.81 385.854
1584 0 192.682 15.7928 3043 109.371 1265.16 385.738
1585 0 200.434 15.1821 3043 110.419 1265.64 384.86
1586 0 211.46 13.4021 2834 113.212 1266.62 378.41
1587 0 213.733 15.0328 3213 111.315 1265.24 380.67
1588 0 323.83 26.7393 8659 98.3824 1264.57 332.122
1589 0 327.67 22.306 7309 102.931 1265.57 329.809
1590 1 298.776 10.3188 3083 114.514 1266.48 373.558
1591 1 246.837 14.1713 3498 111.921 1266.62 367.936
1592 1 184.393 12.3378 2275 114.936 1266.67 399.828
1593 0 189.417 12.6176 2390 113.514 1266.06 403.608
1594 0 197.921 15.006 2970 111.674 1265.32 395.229
1595 0 209.857 16.7305 3511 109.449 1265.52 393.541
1596 0 211.682 18.0129 3813 109.085 1265.41 383.568
1597 0 218.589 17.8234 3896 109.484 1265.57 386.119
1598 0 227.798 16.8614 3841 111.201 1265.48 379.901
1599 0 237.657 16.9446 4027 111.468 1264.33 374.939
1600 0 244.868 15.0693 3690 114.373 1264.19 370.287
1601 0 252.615 16.9705 4287 112.399 1262.99 360.979
1602 1 63.1079 10.9337 690 107.954 1263.13 456.48
1603 0 72.38 17.4358 1262 99.8661 1261.46 462.23
1604 0 72.1018 12.524 903 107.7 1263.12 458.693
1605 0 76.2654 14.3971 1098 105.883 1262.1 462.374
1606 0 75.1857 12.3162 926 106.338 1258.78 455.875
1607 0 77.1764 14.888 1149 103.297 1260.92 456.939
1608 0 82.1376 13.7331 1128 104.125 1259.64 457.821
1609 0 86.1077 12.4611 1073 105.344 1259.11 457.166
1610 1 51.2025 7.71447 395 109.339 1259.65 473.215
1611 0 51.1699 12.6637 648 103.326 1259.39 470.438
1612 0 51.1699 12.7028 650 125.338 1259.35 470.569
1613 0 52.1168 11.2056 584 104.269 1258.91 468.81
1614 0 60.2181 14.3645 865 99.2486 1260.49 465.66
1615 0 64.226 15.2898 982 96.2963 1259.97 454.907
1616 0 143.205 23.0788 3305 87.1504 1258.53 411.943
1617 0 141.94 22.2348 3156 88.2161 1259.08 408.015
1618 1 76.2481 24.0793 1836 85.4336 1259.45 455.808
1619 0 78.4029 11.8235 927 99.9838 1261.52 446.963
1620 0 75.098 21.2389 1595 91.2476 1261.98 451.236
1621 0 74.1694 17.1499 1272 97.8404 1263.26 450.714
1622 0 68.1599 10.8275 738 109.21 1263.89 455.079
1623 1 90.3796 22.5715 2040 88.1779 1263.17 438.031
1624 0 91.7716 17.6743 1622 93.0203 1264.98 435.467
1625 0 81.1269 11.5991 941 106.021 1265.98 444.72
1626 0 77.2167 12.834 991 107.448 1266.05 447.091
1627 0 82.3895 14.0309 1156 104.809 1265.96 445.639
1628 0 83.5825 10.3251 863 110.038 1266.42 448.524
1629 0 90.5866 13.5009 1223 104.89 1266.03 438.792
1630 0 90.5866 13.4015 1214 149.36 1266.03 438.679
1631 1 53.7903 12.084 650 103.935 1265.29 463.8
1632 0 54.6913 14.079 770 101.814 1265.66 466.142
1633 0 56.8453 14.2492 810 101.781 1265.48 465.414
1634 0 55.8599 14.5722 814 137.741 1266.52 465.516
1635 0 58.7444 11.6947 687 104.33 1265.67 468.948
1636 0 61.7018 10.6318 656 106.625 1266.46 466.721
1637 0 60.4985 12.7772 773 105.758 1265.43 466.508
1638 0 63.4638 11.4711 728 106.418 1265.02 465.422
1639 0 60.5087 10.1473 614 110.41 1264.64 465.155
1640 0 66.3414 12.3 816 105.23 1263.61 469.907
1641 0 67.6192 11.0028 744 108.199 1264.45 466.024
1642 0 71.3898 13.7695 983 103.492 1262.84 465.875
1643 0 74.4814 14.8896 1109 102.333 1262.69 464.513
1644 0 75.5266 19.5296 1475 95.5586 1262.31 468.54
1645 0 76.6668 14.7261 1129 103.175 1261.3 462.676
1646 0 76.4434 12.0612 922 106.631 1261.16 462.638
1647 0 80.3796 12.951 1041 106.566 1260.07 460.499
1648 0 84.4306 13.6443 1152 103.511 1259.73 462.262
1649 0 84.4286 14 1182 105.074 1260.63 451.524
1650 0 88.3948 14.0845 1245 101.921 1259.46 452.051
1651 1 52.4052 14.426 756 97.6376 1258.4 473.593
1652 0 51.0646 11.789 602 103.437 1258.17 470.349
1653 0 53.2959 12.3274 657 104.152 1258.39 464.344
1654 0 56.5226 11.4821 649 106.173 1258.19 464.991
1655 0 57.1082 11.7321 670 103.34 1257.48 470.097
1656 0 59.1959 13.6158 806 103.38 1257.2 464.057
1657 0 60.124 16.4493 989 100.257 1256.88 457.375
1658 0 63.1989 13.3705 845 104.568 1257.3 455.873
1659 0 65.6306 16.8366 1105 99.2281 1258.33 459.354
1660 0 63.172 10.4635 661 109.791 1258.27 455.315
1661 0 68.4897 14.7322 1009 103.638 1259.01 455.752
1662 0 68.3107 15.2831 1044 104.032 1259.93 453.703
1663 0 69.3613 13.3648 927 107.203 1261.09 451.094
1664 0 71.2652 13.0498 930 107.863 1261.15 451.525
1665 0 73.3212 11.5246 845 110.762 1262.66 449.902
1666 0 75.2723 11.93 898 111.043 1262.38 448.188
1667 0 80.3604 14.7087 1182 106.319 1262.98 448.089
1668 0 81.32 13.5883 1105 108.707 1263.73 446.255
1669 0 82.3161 13.2538 1091 109.905 1264.84 444.775
1670 0 89.2374 16.7643 1496 104.132 1264.84 444.368
1671 0 89.4039 14.071 1258 106.838 1265.34 448.994
1672 0 91.2831 17.0349 1555 103.043 1266.19 450.436
1673 0 96.2948 15.5979 1502 105.377 1267.02 447.312
1674 0 95.2825 12.3317 1175 111.174 1266.89 444.648
1675 0 100.34 15.4375 1549 106.724 1267.33 442.334
1676 0 102.318 16.1262 1650 105.582 1267.6 443.862
1677 0 106.389 15.697 1670 105.189 1267.8 447.307
1678 0 109.386 14.7734 1616 108.707 1268.87 434.402
1679 0 113.76 15.4361 1756 107.218 1267.96 439.866
1680 1 63.3149 14.5937 924 104.755 1267.28 461.121
1681 0 65.4656 12.8312 840 103.429 1267.18 464.765
1682 0 68.1306 14.0906 960 103.204 1267.54 461.269
1683 0 67.1505 13.6261 915 104.024 1266.62 466.481
1684 0 74.2634 14.9468 1110 101.783 1266.54 459.251
1685 0 76.3453 15.2334 1163 104.126 1266.39 460.543
1686 0 76.3453 15.3251 1170 136.139 1265.36 460.485
1687 0 79.2199 13.1911 1045 107.32 1263.97 459.551
1688 1 151.494 11.2215 1700 111.632 1262.88 432.185
1689 1 84.2942 13.5003 1138 107.296 1261.76 454.7
1690 0 87.2904 12.6933 1108 107.923 1262.9 458.468
1691 0 88.5229 12.0873 1070 110.176 1262.37 450.946
1692 0 93.3275 10.0935 942 110.893 1261.89 457.54
1693 1 50.208 7.74777 389 110.959 1261.8 474.92
1694 0 56.285 11.8859 669 103.919 1260.87 473.51
1695 0 57.0929 13.4342 767 104.205 1261.3 469.778
1696 0 60.0633 13.8021 829 107.036 1260.36 468.154
1697 0 62.1075 13.9597 867 108.589 1260.83 464.947
1698 0 64.258 14.1772 911 108.55 1259.86 466.406
1699 0 65.0483 13.5745 883 110.548 1260.65 461.18
1700 0 64.1581 13.4823 865 112.908 1261.68 457.555
1701 0 67.1278 12.9455 869 111.807 1261.66 460.723
1702 0 73.1268 13.9621 1021 109.961 1262.06 455.771
1703 0 74.2672 13.7073 1018 109.113 1262.45 458.068
1704 0 76.1501 16.7301 1274 104.925 1262.17 455.42
1705 0 74.1837 9.28775 689 117.859 1263.64 448.383
1706 0 74.1837 9.40907 698 137.499 1264.64 448.348
1707 0 84.1147 15.0866 1269 107.439 1264.44 446.492
1708 0 88.0755 13.9539 1229 108.718 1264.67 445.982
1709 0 91.116 14.037 1279 108.828 1265.43 441.219
1710 0 93.2949 15.2313 1421 107.726 1265.69 442.286
1711 0 96.3245 13.0704 1259 111.616 1266.38 438.206
1712 0 97.2384 13.3178 1295 111.301 1266.87 438.12
1713 0 101.287 12.4004 1256 112.607 1266.89 438.103
1714 0 105.325 14.631 1541 109.969 1267.31 437.531
1715 0 110.14 16.2793 1793 106.755 1267.57 436.906
1716 0 107.348 13.8242 1484 110.071 1268.11 440.406
1717 0 116.248 17.1186 1990 106.389 1268.15 432.785
1718 0 118.367 14.5479 1722 110.931 1268.66 431.049
1719 1 69.1986 13.324 922 107.991 1269.56 460.497
1720 0 69.2584 10.136 702 108.103 1267.14 452.803
1721 0 72.2115 10.6077 766 107.705 1266.85 454.958
1722 0 75.2661 14.4288 1086 97.6888 1266.1 460.555
1723 0 78.1371 14.1674 1107 100.174 1266.66 455.687
1724 0 78.2272 11.1342 871 104.989 1266.05 453.696
1725 0 83.3821 13.3362 1112 102.289 1266.06 453.415
1726 0 84.2672 13.1012 1104 104.132 1266.47 449.891
1727 0 86.3438 14.0601 1214 102.825 1265.51 455.028
1728 0 93.6199 16.0863 1506 100.221 1264.35 445.817
1729 0 94.2854 13.2894 1253 104.812 1264.59 450.398
1730 0 98.3717 16.0819 1582 101.712 1262.58 447.706
1731 0 100.226 13.5893 1362 105.176 1262.73 447.903
1732 1 56.1123 10.5503 592 106.921 1260.76 465.823
1733 0 58.2834 12.8167 747 105.656 1260.31 463.296
1734 0 59.1202 10.8254 640 113.8 1260.78 465.684
1735 0 59.1202 10.8085 639 147.909 1260.81 465.499
1736 0 63.4098 13.121 832 110.156 1259.89 458.38
1737 0 65.1541 13.0153 848 109.404 1261.6 463.982
1738 0 67.2819 14.4615 973 107.439 1261.58 463.758
1739 0 67.2325 15.9001 1069 106.17 1260.8 458.115
1740 0 70.1955 15.699 1102 106.271 1261.05 458.124
1741 0 70.2045 15.7682 1107 107.064 1259.61 453.376
1742 0 74.2371 14.5749 1082 108.515 1260.29 453.058
1743 0 76.2239 16.3728 1248 105.449 1260.61 448.756
1744 0 78.1521 14.0623 1099 109.171 1261.02 447.895
1745 0 82.1377 17.8116 1463 103.301 1260.97 448.59
1746 0 85.342 14.9165 1273 107.922 1261.52 447.508
1747 0 86.272 17.3869 1500 105.616 1261.17 441.88
1748 0 91.2383 15.6842 1431 107.699 1262.43 440.236
1749 0 93.1504 15.8453 1476 107.353 1263.4 441.112
1750 0 93.1504 15.8239 1474 131.827 1263.39 441.066
1751 0 104.315 17.428 1818 103.589 1264.03 437.785
1752 0 107.416 14.3181 1538 108.636 1265.19 438.731
1753 1 55.067 10.8958 600 114.147 1266.27 456.623
1754 0 57.3712 13.003 746 111.777 1265.81 450.153
1755 0 56.3158 11.7019 659 114.335 1266.38 451.813
1756 0 60.2902 15.0107 905 108.697 1266.44 449.102
1757 0 57.154 10.113 578 115.621 1266.72 449.464
1758 0 61.2336 12.9014 790 108.666 1266.15 456.851
1759 0 64.2126 10.3407 664 112.282 1268.15 456.974
1760 0 68.1964 14.3556 979 105.079 1268.66 457.436
1761 0 71.4621 12.0763 863 109.364 1268.85 454.809
1762 0 71.2078 10.4062 741 112.352 1268.3 452.783
1763 0 76.3165 10.3123 787 112.149 1268.75 455.278
1764 0 80.227 13.6114 1092 108.154 1268.49 449.408
1765 0 82.2128 15.0828 1240 106.069 1267.53 449.823
1766 0 83.3454 13.1381 1095 109.952 1267.87 454.7
1767 0 88.2497 14.8329 1309 107.247 1266.83 455.042
1768 0 94.4592 16.3986 1549 104.997 1267 452.369
1769 0 94.1576 14.2102 1338 109.638 1266.41 450.097
1770 0 99.234 19.1467 1900 101.119 1265.57 453.759
1771 0 103.324 13.8303 1429 110.342 1265.15 448.929
1772 0 106.283 11.1965 1190 114.26 1263.25 449.714
1773 0 113.347 15.404 1746 107.136 1262.79 449.226
1774 0 116.512 15.389 1793 109.823 1260.79 443.682
1775 0 121.543 17.4671 2123 107.122 1260.03 441.809
1776 0 120.497 13.0211 1569 113.416 1259.39 439.24
1777 1 69.3864 14.1526 982 107.202 1257.85 466.489
1778 0 70.2788 14.0441 987 108.881 1257.51 462.965
1779 0 72.2362 14.4387 1043 109.225 1257.49 458.561
1780 0 75.3325 14.0842 1061 108.629 1257.45 460.527
1781 0 75.2387 13.3974 1008 112.13 1257.28 453.208
1782 0 79.2237 14.1624 1122 110.637 1257.13 456.632
1783 0 82.3325 14.9516 1231 109.659 1256.64 452.978
1784 0 84.2131 14.0358 1182 112.327 1256.11 453.324
1785 0 84.1961 15.5827 1312 111.263 1257.62 450.745
1786 0 88.384 13.679 1209 114.406 1257.48 447.66
1787 0 89.3163 16.8278 1503 109.4 1257.01 446.36
1788 0 93.4989 14.3959 1346 113.568 1258.44 443.342
1789 0 96.2522 17.3918 1674 109.621 1259 436.435
1790 0 98.4437 15.6536 1541 113.739 1258.42 438.715
1791 0 103.284 16.6822 1723 111.66 1259.61 438.275
1792 0 105.33 15.6556 1649 114.557 1260.17 433.062
1793 0 107.5 19.972 2147 107.091 1260.59 435.44
1794 0 109.405 14.259 1560 117.301 1261.66 431.22
1795 0 115.329 16.7694 1934 112.388 1262.05 429.742
1796 0 119.461 17.3362 2071 111.711 1262.79 426.573
1797 0 122.352 14.0496 1719 117.08 1264.06 424.586
1798 1 69.3541 12.2127 847 116.89 1263.07 450.333
1799 0 70.3724 11.2118 789 120.93 1263.78 449.577
1800 0 74.286 12.573 934 113.656 1266.98 452.47
1801 0 77.4188 13.7176 1062 108.799 1266.4 452.103
1802 0 81.2195 14.8733 1208 106.888 1267.23 451.106
1803 0 85.4239 12.116 1035 109.357 1267.53 448.971
1804 0 88.4333 12.9476 1145 108.793 1267.71 446.809
1805 0 90.2936 13.6444 1232 107.985 1267.76 445.279
1806 0 93.4388 15.4968 1448 105.095 1268.09 445.807
1807 0 97.3382 11.2597 1096 111.06 1267.41 443.77
1808 0 97.5302 14.17 1382 106.778 1267.95 445.989
1809 0 102.323 14.6692 1501 105.696 1267.74 446.157
1810 0 105.32 14.4037 1517 106.871 1267.26 444.183
1811 0 110.499 16.3984 1812 103.879 1265.19 442.635
1812 0 113.254 11.8318 1340 110.019 1266.37 445.619
1813 0 108.377 11.174 1211 113.279 1265.12 440.666
1814 0 117.654 13.0297 1533 110.837 1263.96 437.853
1815 0 117.7 11.079 1304 112.442 1263.25 443.84
1816 0 124.744 15.8164 1973 107.402 1262.26 432.499
1817 0 129.725 15.1475 1965 108.535 1261.21 428.528
1818 1 68.4405 7.64167 523 114.975 1261.49 460.325
1819 0 73.7607 13.0015 959 106.685 1260.99 457.233
1820 0 75.4173 10.8994 822 111.574 1260.08 456.61
1821 0 79.8196 13.6182 1087 109.937 1259.96 455.534
1822 0 78.5186 10.4434 820 116.049 1260.25 454.832
1823 0 80.5682 11.4065 919 113.929 1259.49 458.748
1824 0 85.6851 17.9611 1539 104.266 1259.43 451.737
1825 0 89.5603 16.5587 1483 105.722 1259.08 452.723
1826 0 93.5691 12.3652 1157 110.809 1257.56 454.864
1827 0 92.3913 14.9365 1380 110.208 1258.1 445.207
1828 0 94.3528 15.7388 1485 109.387 1258.91 444.016
1829 0 98.5133 15.2568 1503 110.238 1259.05 441.709
1830 0 102.346 13.7474 1407 112.332 1258.85 441.75
1831 0 110.538 13.4434 1486 111.681 1259.65 440.095
1832 0 109.542 14.022 1536 111.442 1260.23 437.028
1833 0 112.599 15.3199 1725 109.304 1260 436.17
1834 0 113.342 15.1312 1715 109.685 1260 431.423
1835 0 119.429 15.7834 1885 108.182 1261.21 430.369
1836 0 120.683 13.1667 1589 113.164 1260.58 426.046
1837 1 70.4575 13.1569 927 108.825 1261.87 454.613
1838 0 66.4664 10.983 730 111.301 1263.59 447.303
1839 0 70.3326 12.3414 868 109.374 1264.41 447.506
1840 0 73.0731 12.4259 908 108.809 1264.78 446.54
1841 0 73.0731 12.508 914 135.7 1265.76 446.51
1842 0 72.0642 10.5045 757 143.855 1266.83 443.551
1843 0 79.1339 8.46666 670 115.149 1266.81 447.413
1844 0 80.0509 11.1679 894 114.258 1267.32 441.716
1845 0 84.1994 11.5678 974 112.846 1267.68 445.537
1846 0 84.1994 12.2566 1032 138.163 1267.68 446.103
1847 0 89.383 12.15 1086 113.343 1268.07 442.938
1848 0 94.2535 13.103 1235 111.789 1267.36 441.802
1849 0 96.3884 13.1862 1271 112.634 1267.92 438.355
1850 0 100.32 14.2145 1426 111.522 1267.42 438.767
1851 0 101.186 14.1917 1436 114.487 1268.68 440.431
1852 0 103.332 16.3357 1688 110.31 1265.98 447.711
1853 0 102.325 13.3692 1368 142.389 1264.18 444.303
1854 1 62.0326 8.78571 545 117.154 1263.88 464.95
1855 0 66.1617 14.253 943 107.534 1265.47 466.196
1856 0 67.1375 14.3884 966 107.1 1265.53 464.176
1857 0 70.1141 15.703 1101 109.325 1264.1 462.48
1858 0 71.1042 12.4606 886 114.593 1263.26 463.453
1859 0 73.1344 13.7555 1006 113.244 1262.31 462.477
1860 0 73.1344 13.6461 998 128.736 1262.3 462.44
1861 0 79.1714 13.3255 1055 113.773 1260.7 458.779
1862 0 81.3309 11.9389 971 116.284 1259.86 457.209
1863 0 78.2403 9.6881 758 120.495 1260.85 455.197
1864 0 88.3589 18.6286 1646 105.583 1260.49 453.98
1865 0 90.3772 14.1075 1275 112.514 1260.43 451.692
1866 0 92.3294 16.1379 1490 109.608 1259.88 449.468
1867 0 102.39 10.4405 1069 116.563 1258.66 449.073
1868 0 100.349 11.8984 1194 114.245 1258.65 448.968
1869 0 99.326 14.7796 1468 109.466 1258.68 449.369
1870 0 99.326 12.2526 1217 133.976 1259.72 445.814
1871 0 106.284 16.6723 1772 107.603 1258.19 442.919
1872 0 108.377 14.1266 1531 111.971 1258.43 438.968
1873 1 62.3731 12.1527 758 112.047 1259.54 462.203
1874 0 64.2311 12.0969 777 112.425 1257.95 460.206
1875 0 64.454 11.1087 716 115.363 1258.61 458.517
1876 0 68.2641 15.3521 1048 106.613 1260.58 451.658
1877 0 70.2769 14.9124 1048 107.531 1260.76 448.514
1878 0 71.1814 11.857 844 111.524 1261.25 451.252
1879 0 71.2355 12.8026 912 111.686 1262.1 448.512
1880 0 75.2621 13.5261 1018 109.965 1262.14 447.206
1881 0 79.1791 18.5529 1469 102.705 1263.54 445.931
1882 0 80.2617 14.9885 1203 107.105 1263.78 447.153
1883 0 84.203 14.7382 1241 108.066 1264.11 445.584
1884 0 87.2879 15.3859 1343 106.777 1265.4 445.584
1885 0 90.1122 16.3907 1477 106.387 1265.51 442.313
1886 0 93.1971 16.7173 1558 105.747 1266.04 443.01
1887 0 93.1971 16.8568 1571 133.597 1266.07 443.063
1888 0 98.4099 13.8909 1367 111.482 1267.53 439.762
1889 0 101.17 14.0951 1426 111.163 1268.27 440.493
1890 0 102.145 15.0668 1539 111.743 1268.6 435.627
1891 0 107.327 15.2618 1638 111.759 1267.64 436.824
1892 0 113.249 17.572 1990 108.073 1268.68 438.938
1893 0 116.344 14.5431 1692 113.34 1268.15 425.472
1894 0 120.242 16.7496 2014 110.441 1268.67 432.829
1895 1 64.1206 10.4647 671 119.298 1268.42 462.493
1896 0 68.4159 11.547 790 116.178 1267.51 458.322
1897 0 71.2098 13.2707 945 112.48 1267.62 461.09
1898 0 73.1266 13.7296 1004 111.398 1267.6 463.564
1899 0 75.219 15.3153 1152 109.213 1266.95 460.054
1900 0 76.1286 12.8598 979 113.508 1266.11 462.11
1901 0 82.2615 16.6785 1372 107.375 1265.44 459.405
1902 0 85.1565 15.1368 1289 108.517 1263.35 460.368
1903 0 87.1976 12.8559 1121 112.495 1263.44 459.74
1904 0 91.3287 15.4935 1415 108.954 1262.11 455.912
1905 0 91.1939 13.718 1251 112.279 1261.93 454.625
1906 0 96.2267 16.7937 1616 107.343 1261.62 454.335
1907 0 97.1235 15.3928 1495 110.073 1260.74 454.773
1908 0 101.196 14.9512 1513 111.666 1259.8 448.776
1909 0 102.182 15.9422 1629 110.65 1259.81 444.192
1910 0 107.213 20.5572 2204 104.445 1258.11 442.579
1911 0 108.28 13.2619 1436 115.763 1258.72 442.156
1912 0 109.256 14.0862 1539 116.53 1258.46 436.958
1913 0 114.184 15.3787 1756 113.666 1258.62 438.3
1914 0 114.401 12.9807 1485 116.667 1258.25 437.977
1915 0 114.401 12.9195 1478 150.781 1257.26 437.907
1916 0 124.278 16.447 2044 111.891 1258.79 431.948
1917 1 73.0574 10.4438 763 113.73 1260.12 460.519
1918 0 71.0969 11.5336 820 115.238 1260.82 454.707
1919 0 76.0986 16.5312 1258 106.366 1261.61 451.731
1920 0 77.2023 14.3649 1109 109.702 1262.62 449.887
1921 0 84.4866 17.6004 1487 101.366 1261.58 453.607
1922 0 81.1828 15.7669 1280 107.645 1262.8 447.006
1923 0 84.1862 13.6127 1146 111.746 1263.58 440.736
1924 0 88.1561 19.681 1735 102.114 1262.89 443.49
1925 0 91.2157 17.2668 1575 105.634 1264.38 438.89
1926 0 94.1624 15.7175 1480 107.684 1265.06 442.542
1927 0 98.2898 15.2406 1498 107.195 1265.94 443.468
1928 0 99.3085 13.5739 1348 112.517 1265.83 436.206
1929 0 102.273 15.1555 1550 109.241 1266.35 435.557
1930 0 100.222 13.3105 1334 113.549 1266.71 432.393
1931 0 107.256 13.8919 1490 111.291 1266.93 433.968
1932 0 110.238 14.4505 1593 110.87 1267.76 430.285
1933 0 112.208 14.4019 1616 110.752 1268.77 431.674
1934 0 114.191 14.5195 1658 111.29 1267.81 426.864
1935 0 119.28 13.7911 1645 111.933 1268.51 427.782
1936 0 121.406 13.9696 1696 112.478 1268.12 420
1937 0 128.366 14.9728 1922 110.897 1267.74 425.907
1938 0 130.614 12.556 1640 114.929 1267.56 424.499
1939 0 130.439 13.0022 1696 115.805 1266.5 418.015
1940 1 143.559 14.649 2103 110.864 1266.67 423.748
1941 1 84.5383 10.7998 913 112.001 1265.85 449.055
1942 0 83.1235 12.1386 1009 110.553 1266.47 450.834
1943 0 82.2542 8.1698 672 117.686 1265.4 450.6
1944 0 89.617 15.0864 1352 107.6 1263.89 449.328
1945 0 91.1226 12.4887 1138 110.447 1264.36 451.066
1946 0 94.1853 17.8372 1680 103.492 1263.22 444.163
1947 0 94.114 7.57592 713 115.885 1263.32 451.839
1948 0 98.2709 12.2722 1206 110.106 1262.15 444.801
1949 0 100.293 12.7227 1276 110.066 1260.86 442.855
1950 0 104.169 11.9614 1246 111.345 1259.84 437.39
1951 0 111.209 15.2686 1698 104.987 1259.29 440.862
1952 0 112.227 12.6975 1425 108.842 1259.24 441.234
1953 0 112.17 16.1986 1817 105.832 1258.51 429.245
1954 0 118.22 15.7757 1865 104.873 1259.59 436.032
1955 0 116.494 10.6787 1244 111.562 1259.21 435.234
1956 0 122.461 15.9234 1950 105.471 1259.26 424.429
1957 0 126.561 11.212 1419 111.218 1258.78 426.737
1958 0 131.77 14.9427 1969 107.19 1257.73 412.122
1959 0 130.499 12.889 1682 110.099 1258.63 413.648
1960 0 138.758 13.1596 1826 108.79 1258.12 414.584
1961 0 141.487 16.1923 2291 103.741 1259.66 411.359
1962 0 146.594 10.7712 1579 110.141 1259.1 408.552
1963 0 154.653 14.9561 2313 104.634 1260.07 398.834
1964 1 89.5104 12.1438 1087 103.89 1260.82 435.846
1965 0 90.3448 12.563 1135 105.506 1261.19 428.9
1966 0 94.2849 11.7092 1104 106.621 1261.53 434.101
1967 0 97.5426 14.3732 1402 103.233 1262.67 434.462
1968 0 100.571 10.2018 1026 109.007 1263.84 431.512
1969 0 105.843 12.8493 1360 106.054 1264.06 431.096
1970 0 106.371 11.4693 1220 108.938 1264.78 426.859
1971 0 112.196 12.5049 1403 105.515 1266.45 428.119
1972 0 114.378 12.957 1482 104.856 1265.94 426.389
1973 0 114.644 12.7089 1457 107.193 1266.83 422.986
1974 0 120.49 13.5446 1632 105.591 1266.38 423.688
1975 0 127.49 14.4404 1841 104.616 1266.03 417.645
1976 0 129.713 11.1862 1451 108.024 1266.61 424.598
1977 0 135.438 14.7817 2002 103.764 1266.89 418.949
1978 1 76.3697 13.8144 1055 103.53 1267.02 448.591
1979 0 78.418 11.2984 886 105.184 1267.87 456.498
1980 0 82.3161 10.7755 887 109.148 1267.08 449.172
1981 0 84.3939 9.68079 817 110.382 1267.38 450.233
1982 0 89.3733 15.6087 1395 102.08 1266.68 453.105
1983 0 89.3157 10.6364 950 109.749 1265.97 450.077
1984 0 97.4596 9.12173 889 111.755 1265.54 449.394
1985 0 99.3025 13.5646 1347 106.799 1265.36 447.039
1986 0 102.314 14.4262 1476 106.518 1263.1 442.715
1987 0 108.311 14.8554 1609 104.979 1263.63 445.832
1988 0 110.344 13.8477 1528 107.537 1261.76 442.836
1989 0 114.248 10.6698 1219 111.492 1262.16 444.219
1990 0 118.256 12.3799 1464 110.197 1260.49 436.232
1991 0 119.322 12.6381 1508 110.902 1261.09 436.428
1992 0 129.418 14.148 1831 108.222 1260.82 435.752
1993 0 137.942 12.6937 1751 111.671 1259.35 434.374
1994 1 74.6206 12.9455 966 107.902 1260.84 465.908
1995 0 74.4637 17.1224 1275 104.678 1260.36 457.158
1996 0 75.6188 11.9018 900 112.837 1259.7 455.013
1997 0 81.7032 13.8918 1135 106.985 1260.49 460.553
1998 0 77.5024 12.4512 965 112.851 1259.09 451.231
1999 0 84.2911 18.5785 1566 102.254 1258.95 454.9
2000 0 82.3325 11.8058 972 113.485 1258.37 452.925
2001 0 87.4732 18.7486 1640 101.825 1258.78 454.215
2002 0 86.6581 13.1782 1142 112.065 1258.23 447.223
2003 0 86.6581 13.0744 1133 149.891 1257.23 447.124
2004 0 93.6338 15.6674 1467 108.828 1259.15 443.119
2005 0 93.6162 12.861 1204 114.919 1259.38 439.247
2006 0 93.6162 12.8183 1200 152.453 1259.36 439.168
2007 0 103.467 13.4922 1396 112.599 1260.38 439.866
2008 0 106.804 13.7073 1464 111.508 1260.96 435.849
2009 1 57.4149 8.76079 503 113.37 1261.74 458.143
2010 0 61.5693 11.1094 684 111.13 1261.93 454.466
2011 0 62.2621 11.0822 690 112.852 1263.55 452.514
2012 0 64.2506 15.564 1000 105.795 1262.68 451.384
2013 0 64.3825 12.5034 805 111.857 1265.17 450.591
2014 0 68.3013 13.1916 901 109.475 1264.42 450.816
2015 0 69.4288 12.5452 871 111.288 1264.87 449.471
2016 0 74.3007 15.0335 1117 106.118 1265.27 450.97
2017 0 74.2471 11.8388 879 111.815 1266.15 447.937
2018 0 80.3997 15.6468 1258 104.556 1265.9 450.862
2019 0 80.3088 18.2794 1468 101.809 1266.19 450.198
2020 0 81.4182 11.8155 962 112.632 1267.02 445.638
2021 0 85.4976 12.1056 1035 111.085 1265.96 450.214
2022 0 86.5291 19.427 1681 100.195 1266.29 452.173
2023 0 92.2987 11.1919 1033 114.559 1265.97 454.533
2024 0 96.2828 15.4233 1485 108.982 1265.54 448.659
2025 1 143.56 12.9771 1863 110.809 1264.78 437.61
2026 1 100.175 13.3766 1340 110.955 1263.56 448.712
2027 0 101.213 11.7574 1190 114.602 1263.49 446.66
2028 0 111.198 16.2322 1805 106.383 1263.02 451.499
2029 0 111.198 16.1783 1799 131.251 1263.05 451.449
2030 0 119.299 18.7093 2232 103.436 1262.79 443.465
2031 0 123.379 14.4514 1783 109.692 1261.05 438.697
2032 0 127.597 12.8608 1641 109.914 1261.51 445.116
2033 0 129.638 10.9921 1425 112.859 1260.34 442.342
2034 1 74.2666 11.3241 841 107.754 1260.42 468.14
2035 0 75.3047 12.3764 932 105.739 1260.89 463.237
2036 0 78.2644 14.8727 1164 102.56 1260.33 459.306
2037 0 82.4038 15.9701 1316 100.731 1259.66 457.571
2038 0 82.4038 15.958 1315 129.967 1258.64 457.416
2039 0 87.2994 17.1822 1500 97.3647 1256.52 458.962
2040 0 87.1323 11.5686 1008 106.027 1256.67 457.114
2041 0 92.2344 14.9619 1380 100.944 1256.23 450.161
2042 0 93.3733 15.7433 1470 101.034 1256.94 442.489
2043 0 94.405 13.7493 1298 104.601 1256.82 442.961
2044 0 97.3684 14.933 1454 103.294 1257.64 441.307
2045 0 97.4809 13.4898 1315 105.088 1257.42 442.716
2046 0 102.267 16.9948 1738 101.849 1258.54 439.827
2047 0 102.39 12.804 1311 108.054 1258.56 440.343
2048 0 108.83 14.3159 1558 104.792 1259.18 438.311
2049 0 111.282 15.7259 1750 104.712 1258.98 433.975
2050 0 113.566 14.7051 1670 107.05 1260.26 431.53
2051 0 115.407 15.2417 1759 106.983 1261.04 427.703
2052 0 120.171 15.6776 1884 105.96 1261.94 430.954
2053 0 123.4 14.457 1784 108.348 1262.21 426.661
2054 0 128.239 15.2995 1962 106.858 1263.88 422.071
2055 0 129.277 15.8574 2050 107.52 1263.15 420.092
2056 0 139.196 15.0363 2093 104.578 1265.15 424.302
2057 0 143.468 12.63 1812 110.184 1263.99 416.966
2058 0 148.628 11.485 1707 111.516 1264.66 417.087
2059 0 155.466 14.7428 2292 107.241 1265.77 411.294
2060 1 84.3532 13.9177 1174 105.613 1265.32 452.326
2061 0 88.126 14.6495 1291 105.398 1266.31 449.404
2062 0 88.126 14.502 1278 132.273 1266.31 449.353
2063 0 95.3127 13.9646 1331 106.181 1267.35 450.896
2064 0 98.3506 13.6756 1345 107.967 1266.03 445.998
2065 0 101.412 12.9571 1314 110.514 1267.17 448.332
2066 0 103.264 14.3128 1478 108.884 1265.18 446.745
2067 0 108.595 12.0908 1313 109.946 1266.04 448.315
2068 0 116.305 17.1016 1989 103.51 1265.92 439.92
2069 0 113.573 13.4804 1531 110.715 1265.75 443.249
2070 0 116.771 14.3357 1674 109.351 1264.73 442.253
2071 0 123.749 14.3354 1774 108.519 1264.46 443.16
2072 1 70.244 14.2218 999 108.434 1263.4 465.03
2073 0 70.5503 14.4152 1017 108.406 1261.84 466.675
2074 0 68.2202 11.4482 781 115.48 1260.7 461.793
2075 0 74.4343 12.3196 917 110.195 1259.62 463.54
2076 0 72.333 13.8111 999 108.494 1261.17 458.767
2077 0 80.2451 12.8481 1031 107.644 1260.45 461.697
2078 0 80.3959 12.2021 981 109.715 1260.05 460.177
2079 0 83.2128 13.0389 1085 108.495 1259.15 457.919
2080 0 88.1844 15.6037 1376 105.964 1258.98 453.966
2081 0 90.382 13.5536 1225 107.979 1257.99 456.843
2082 0 88.3716 12.5493 1109 153.082 1257.13 454.928
2083 0 96.7284 17.0477 1649 105.884 1258.06 447.002
2084 0 97.6017 18.0837 1765 104.409 1258.22 447.861
2085 0 99.788 15.8536 1582 108.46 1258.11 444.706
2086 1 113.481 9.34955 1061 115.161 1256.9 447.498
2087 0 114.527 12.9926 1488 146.106 1256.21 437.663
2088 0 105.984 14.6532 1553 112.207 1257.98 432.2
2089 0 109.992 17.1466 1886 108.798 1259.01 429.371
2090 0 110.501 12.5519 1387 116.882 1258.82 427.299
2091 0 114.732 14.6603 1682 114.286 1259.46 421.977
2092 0 118.66 15.7003 1863 111.812 1260.37 429.416
2093 1 65.6241 14.0497 922 115.261 1260.15 447.491
2094 0 66.8763 10.9157 730 118.886 1260.56 451.415
2095 0 69.8083 12.8352 896 117.228 1260.7 450.215
2096 0 73.8002 13.9972 1033 113.578 1261.97 450.272
2097 0 77.825 14.8024 1152 112.688 1262.54 449.937
2098 0 75.9015 11.8707 901 119.663 1263.22 447.705
2099 0 81.65 16.485 1346 112.491 1263.34 444.858
2100 0 79.8874 15.2089 1215 115.309 1264.63 445.895
2101 0 85.7565 15.4041 1321 115.451 1264.29 440.603
2102 0 89.7484 13.3261 1196 117.196 1265.53 446.213
2103 0 92.4972 19.0168 1759 109.778 1265.81 443.599
2104 0 95.4375 17.5508 1675 113.128 1266.34 440.275
2105 0 99.6387 15.9677 1591 115.93 1266.27 440.373
2106 0 104.424 15.7053 1640 116.196 1266.22 440.38
2107 0 105.675 14.4879 1531 119.662 1266.2 436.762
2108 0 109.795 15.7749 1732 117.462 1265.61 437.77
2109 0 113.545 15.6678 1779 118.035 1264.65 437.69
2110 0 118.547 16.4408 1949 116.665 1264.61 437.517
2111 0 123.701 16.7905 2077 117.321 1264.03 435.275
2112 0 127.496 17.0907 2179 116.408 1263.72 436.218
2113 1 76.496 12.8765 985 118.772 1262.45 458.102
2114 0 74.4397 11.2843 840 122.505 1262.16 458.742
2115 0 81.4438 15.9251 1297 114.187 1260.87 456.911
2116 0 82.3018 14.0945 1160 117.265 1260.26 455.863
2117 0 85.4013 15.3159 1308 116.209 1259.88 453.679
2118 0 88.2928 14.8483 1311 116.521 1261.15 451.302
2119 0 88.2928 14.9389 1319 148.7 1262.16 451.277
2120 0 97.4061 13.7158 1336 117.122 1258.85 450.139
2121 0 98.3196 13.5578 1333 118.8 1259.1 444.985
2122 0 100.344 13.4836 1353 119.122 1259.08 443.31
2123 0 104.261 11.5672 1206 122.066 1258.99 441.817
2124 0 108.474 17.2761 1874 112.909 1259.49 439.41
2125 0 114.726 19.1064 2192 108.474 1258.82 441.531
2126 0 116.459 15.1555 1765 113.888 1258.56 443.441
2127 0 116.385 14.1943 1652 118.294 1258.89 429.278
2128 0 116.385 14.2716 1661 146.094 1258.86 429.342
2129 1 77.3802 12.7423 986 111.366 1258.99 454.569
2130 0 77.4884 11.6663 904 115.012 1258 448.742
2131 0 74.3799 10.9841 817 115.887 1258.79 445.512
2132 0 78.1914 13.6204 1065 112.313 1260.2 440.615
2133 0 80.2148 12.7533 1023 114.375 1259.44 446.896
2134 0 85.2993 12.3565 1054 114.531 1259.86 442.551
2135 0 88.1929 15.7949 1393 106.872 1259.79 448.541
2136 0 91.3522 13.2126 1207 111.899 1259.41 444.539
2137 0 92.1405 12.1336 1118 113.363 1259.97 443.597
2138 0 98.3116 13.6708 1344 110.56 1261.24 440.469
2139 0 103.497 19.6237 2031 100.765 1261.66 425.782
2140 0 107.35 13.8333 1485 109.725 1262.81 429.484
2141 0 107.231 13.3544 1432 111.39 1263.27 431.866
2142 0 109.128 14.5517 1588 110.586 1262.78 429.918
2143 0 110.265 11.6175 1281 115.178 1263.23 434.183
2144 0 115.352 13.94 1608 112.649 1264.34 429.324
2145 0 117.217 12.4128 1455 113.869 1263.99 433.693
2146 0 121.49 11.7623 1429 116.263 1265.35 425.81
2147 0 126.449 14.7253 1862 112.023 1263.31 429.301
2148 0 126.449 14.6779 1856 136.905 1260.31 429.08
2149 1 140.29 11.5546 1621 113.918 1264.9 436.028
2150 0 141.439 12.189 1724 115.343 1265 427.715
2151 0 145.398 11.4651 1667 117.867 1265.03 417.632
2152 0 150.597 11.9258 1796 116.712 1264.1 410.69
2153 0 158.322 12.3545 1956 111.961 1264.49 424.388
2154 1 90.1914 13.0279 1175 111.444 1264.18 452.318
2155 0 93.3397 11.2492 1050 108.89 1264.67 454.73
2156 0 93.4296 11.0886 1036 109.413 1264.17 456.955
2157 0 92.3073 9.45754 873 108.011 1263.28 465.558
2158 1 187.659 14.0734 2641 112.509 1262.19 416.25
2159 0 192.087 13.3846 2571 115.843 1261.32 407.761
2160 0 199.664 13.2973 2655 116.719 1260.73 396.114
2161 0 201.94 11.4044 2303 119.791 1260.07 397.656
2162 1 115.489 11.6634 1347 112.034 1258.49 439.868
2163 0 118.452 11.9796 1419 111.611 1257.82 437.044
2164 0 122.388 13.8167 1691 109.946 1258.23 434.322
2165 0 126.486 13.2031 1670 110.408 1256.8 427.65
2166 0 129.568 9.28472 1203 115.385 1256.53 428.846
2167 1 71.1311 11.0641 787 108.042 1256.83 455.795
2168 0 77.0649 7.99326 616 111.185 1255.08 458
2169 0 79.1491 8.19972 649 111.565 1256.78 451.569
2170 0 81.3492 16.2264 1320 104.746 1258.8 451.884
2171 0 84.3528 13.8703 1170 109.056 1258.22 444.246
2172 0 82.1418 11.7358 964 113.743 1257.68 444.358
2173 0 91.7059 13.6196 1249 108.867 1257.5 447.953
2174 0 95.5053 10.5544 1008 112.885 1259.27 448.918
2175 0 94.3439 14.2564 1345 110.093 1259.57 442.228
2176 0 98.3656 14.3241 1409 108.581 1259.85 445.693
2177 0 97.4818 13.6641 1332 111.023 1260.74 444.26
2178 0 100.71 14.4077 1451 111.201 1260.35 438.869
2179 0 102.627 15.5417 1595 109.93 1261.24 436.786
2180 0 103.641 13.9906 1450 113.414 1261.66 432.618
2181 0 109.533 15.9951 1752 108.99 1262.3 434.519
2182 0 108.605 12.1909 1324 116.963 1263.06 431.96
2183 0 113.605 15.3427 1743 112.645 1262.66 427.412
2184 0 118.489 18.2211 2159 103.079 1263.6 431.627
2185 0 121.395 15.0336 1825 107.608 1263.58 428.774
2186 0 120.651 17.0243 2054 106.978 1264.2 426.465
2187 0 123.727 13.4167 1660 113.378 1264.31 420.383
2188 0 131.047 15.0099 1967 110.249 1265.09 422.827
2189 0 134.684 14.6046 1967 111.698 1265.15 421.985
2190 0 135.708 11.3479 1540 118.117 1266 421.479
2191 0 140.712 12.9058 1816 116.354 1265.83 422.96
2192 0 150.429 16.772 2523 111.553 1265.26 417.034
2193 0 151.483 14.0609 2130 115.479 1265.09 417.078
2194 0 157.637 14.73 2322 114.705 1264.46 406.767
2195 1 91.3156 11.8928 1086 118.054 1264.06 443.496
2196 0 94.3947 13.8037 1303 115.251 1264.11 444.682
2197 0 98.5986 12.6168 1244 116.484 1262.75 443.467
2198 0 100.477 13.3165 1338 116.004 1263.7 441.991
2199 0 105.523 16.0439 1693 111.345 1262.97 440.771
2200 0 106.566 17.0317 1815 110.442 1262.82 436.917
2201 0 111.591 13.4509 1501 115.18 1260.72 441.582
2202 0 111.591 13.3972 1495 153.531 1259.72 441.578
2203 0 116.324 14.4338 1679 110.982 1259.65 429.824
2204 0 121.364 13.3154 1616 112.871 1259.02 427.034
2205 0 127.564 14.9729 1910 110.793 1258.27 421.829
2206 0 127.514 16.1159 2055 109.597 1258.2 418.847
2207 0 131.529 12.5524 1651 114.343 1258.09 423.086
2208 0 135.502 15.6603 2122 111.039 1258.5 415.381
2209 0 139.315 14.9661 2085 112.639 1258.06 425.822
2210 0 143.468 16.4984 2367 110.343 1258.29 425.179
2211 0 147.306 13.7537 2026 115.254 1258.47 417.329
2212 0 153.241 16.1706 2478 109.539 1258.02 424.894
2213 0 156.409 15.4531 2417 113.024 1258.68 412.334
2214 0 159.436 18.5592 2959 107.536 1257.99 415.162
2215 0 163.414 13.7871 2253 115.838 1259.24 402.097
2216 0 169.34 16.4757 2790 111.211 1258.2 402.569
2217 0 172.539 15.2429 2630 113.934 1259.32 397.265
2218 0 177.462 17.029 3022 111.508 1258.93 399.517
2219 0 182.338 17.0123 3102 112.035 1259.72 400.309
2220 0 186.42 15.0735 2810 116.063 1259.57 394.735
2221 0 184.475 13.4761 2486 119.678 1259.93 395.905
2222 0 178.688 12.049 2153 121.35 1260.1 398.572
2223 1 149.543 14.7851 2211 120.128 1261.9 401.462
2224 0 154.796 15.3105 2370 119.522 1262.31 401.398
2225 0 162.521 16.5825 2695 117.116 1262.21 399.59
2226 0 161.436 14.7798 2386 119.376 1262.6 394.397
2227 0 171.574 17.794 3053 112.776 1261.98 399.17
2228 0 165.264 13.7235 2268 122.135 1263.79 392.461
2229 0 176.44 14.1748 2501 120.824 1263.77 391.522
2230 0 187.655 14.5799 2736 119.849 1265.05 389.927
2231 0 193.577 16.505 3195 117.507 1263.78 390.592
2232 0 198.484 16.7973 3334 118.67 1264.81 387.232
2233 0 209.708 15.4596 3242 120.495 1265.11 384.05
2234 0 213.771 15.6148 3338 121.178 1264.85 381.801
2235 0 222.927 16.0726 3583 121.574 1265.12 370.985
2236 0 230.73 14.8615 3429 123.01 1265.06 378.98
2237 0 239.802 14.8497 3561 123.461 1264.23 372.613
2238 0 248.742 17.6689 4395 119.822 1265.51 359.705
2239 1 322.85 13.8237 4463 122.848 1264.58 364.009
2240 0 323.716 17.2466 5583 119.874 1263.53 348.471
2241 0 334.142 17.7768 5940 120.42 1263.24 332.506
2242 1 314.58 10.6014 3335 128.496 1262.95 363.542
2243 0 313.771 10.0647 3158 130.409 1262.11 354.4
2244 1 229.395 13.3612 3065 127.571 1260.92 362.321
2245 0 233.477 15.1578 3539 125.492 1259.72 367.934
2246 0 243.587 15.9368 3882 123.279 1259.96 375.531
2247 0 248.689 14.5001 3606 127.94 1259.39 356.446
2248 0 258.482 16.0437 4147 125.122 1258.83 356.313
2249 1 317.612 15.7802 5012 126.622 1258.05 333.513
2250 0 314.55 11.7406 3693 130.157 1258.29 357.381
2251 0 319.486 23.6411 7553 108.609 1257.27 326.266
2252 0 307.723 24.4084 7511 109.823 1257.02 313.746
2253 1 14.0331 4.48939 63 100.016 1255.38 482.698
2254 0 15.0465 4.45286 67 102.806 1253.21 482.672
2255 0 10.0064 4.49712 45 98.3333 1258.33 481.533
2256 0 16.039 3.17975 51 99 1257.78 478.745
2257 0 24.0279 7.03349 169 96.2189 1258.68 472.58
2258 1 254.676 18.0936 4608 120.31 1257.92 332.299
2259 0 254.442 19.5212 4967 120.184 1258 340.157
2260 1 22.0189 3.36075 74 99.8108 1260.43 473.797
2261 0 16.0085 1.93647 31 99.2258 1259.71 473.161
2262 0 21.0257 2.52072 53 97.3208 1261 475.906
2263 0 11.0056 4.99744 55 98.4727 1260.29 468.345
2264 0 16.1889 5.49758 89 98.4045 1262.27 470.213
2265 0 15.0081 6.46319 97 95.835 1262.21 469.474
2266 0 22.0377 7.44179 164 96.0061 1262.18 467.201
2267 0 16.0021 2.68716 43 100.093 1262.23 470.954
2268 0 15.0076 5.06411 76 96.5526 1262.14 467.592
2269 0 17.0915 6.49444 111 95.0811 1261.05 469.532
2270 0 264.756 12.5512 3323 128.876 1263.49 328.788
2271 0 270.898 8.28357 2244 132.721 1264.39 347.616
2272 0 275.678 6.84494 1887 132.429 1264.85 358.703
2273 0 275.057 6.7477 1856 132.551 1264.8 353.417
2274 0 317.937 20.4317 6496 114.775 1265.48 307.762
2275 1 245.464 7.31267 1795 127.509 1266.76 362.659
2276 0 253.449 13.2098 3348 117.951 1266.69 360.885
2277 0 261.609 13.115 3431 118.277 1267.26 355.434
2278 0 270.954 10.0977 2736 123.261 1266.43 341.295
2281 0 308.088 15.4015 4745 114.282 1265.41 319.966
2282 0 314.953 14.9292 4702 115.745 1264.42 324.105
2283 0 324.985 21.8102 7088 104.456 1264.14 324.429
2284 0 337.912 19.7359 6669 106.924 1263.73 323.409
2285 0 347.037 16.4968 5725 112.23 1263.07 291.246
2286 0 359.219 22.1508 7957 103.839 1261.75 310.642
2287 1 311.184 10.2287 3183 117.182 1261.82 341.271
2288 1 16.0076 5.24752 84 92.7738 1255.25 484.952
2289 0 21.0044 4.95135 104 95.3558 1257.27 474.413
2290 0 340.234 14.2608 4852 113.298 1259.99 298.892
2291 0 352.918 21.6679 7647 102.508 1259.81 301.526
2292 0 365.217 20.0867 7336 104.325 1259.5 285.545
2293 0 365.217 20.1524 7360 130.557 1259.5 285.301
2294 0 359.013 15.6847 5631 110.067 1257.85 274.076
2295 0 366.787 25.4235 9325 97.4775 1257.35 285.535
2298 0 345.867 20.7421 7174 100.648 1258.2 272.407
2299 0 84.2051 13.8828 1169 90.6099 1256.44 429.474
2300 0 83.4335 8.30602 693 96.5584 1256.65 433.088
2301 0 83.4335 8.42587 703 122.343 1257.68 433.02
2302 0 89.1394 9.17664 818 97.2335 1255.34 440.436
2303 0 100.277 15.0283 1507 88.8573 1255.4 440.356
2304 0 103.401 15.5898 1612 88.5465 1255.95 435.239
2305 0 102.321 21.8527 2236 82.6923 1257.14 437.828
2306 0 106.424 27.7851 2957 78.8454 1256.39 436.511
2307 0 108.781 23.5519 2562 81.228 1257.01 432.411
2308 0 118.086 20.8407 2461 82.9533 1257.38 433.468
2309 0 112.536 19.8869 2238 84.7091 1258.72 438.291
2310 0 119.929 23.5473 2824 81.8205 1257.26 430.575
2311 0 120.849 25.6105 3095 80.0016 1257.06 426.922
2312 0 129.473 24.6384 3190 80.1721 1257.37 428.403
2313 0 123.634 14.1385 1748 91.7889 1262.04 431.264
2314 0 123.5 18.1458 2241 88.7796 1262.13 421.21
2315 0 132.22 19.7322 2609 86.6677 1262.47 426.234
2316 0 135.62 19.5767 2655 88.2215 1263.02 415.892
2317 0 136.828 22.3272 3055 86.2524 1262.6 421.629
2318 0 144.092 23.9292 3448 84.527 1261.64 420.903
2319 0 143.816 20.6028 2963 89.1353 1263.94 416.565
2320 1 83.4339 11.4582 956 95.3504 1264.56 449.912
2321 0 83.3466 12.0821 1007 96.0328 1263.85 448.321
2322 0 86.3485 13.5497 1170 91.9564 1264.36 453.693
2323 0 88.4111 12.5097 1106 90.7405 1265.69 455.59
2324 0 88.4696 15.3273 1356 88.587 1265.25 462.92
2325 0 90.4279 12.286 1111 93.2754 1264.82 458.289
2326 0 92.2987 13.0446 1204 93.3389 1264.74 458.132
2327 0 93.3565 14.1286 1319 92.6459 1263.41 459.673
2328 0 94.1908 11.9226 1123 99.9101 1263.73 449.016
2329 0 95.1927 11.9442 1137 100.997 1262.55 446.666
2330 0 104.361 14.8236 1547 96.6412 1262.12 449.926
2331 0 101.173 11.5446 1168 101.676 1261.86 449.14
2332 0 105.268 15.7788 1661 96.8164 1260.6 446.761
2333 0 106.291 11.9012 1265 102.634 1259.81 443.397
2334 0 109.138 11.1602 1218 104.115 1260.51 440.697
2335 0 111.345 13.4537 1498 100.519 1259.31 442.374
2336 0 117.337 18.2125 2137 95.8451 1259.52 437.942
2337 0 117.286 15.603 1830 99.3913 1259.45 436.599
2338 0 123.283 16.5716 2043 98.9134 1259.15 428.735
2339 0 128.668 12.2097 1571 105.122 1258.96 429.722
2340 0 124.357 17.0476 2120 99.784 1258.76 426.143
2341 0 129.289 15.8018 2043 102.302 1258.69 422.403
2342 0 129.555 13.8166 1790 105.694 1259.38 415.586
2343 0 138.882 14.6311 2032 103.428 1259.14 415.307
2344 1 196.232 11.2112 2200 110.369 1259.8 388.984
2345 1 141.51 15.5325 2198 103.969 1260 409.752
2346 0 144.671 15.7599 2280 103.171 1259.82 409.094
2347 0 148.757 14.9841 2229 104.345 1260.36 408.217
2348 0 146.66 11.4823 1684 110.401 1260.29 405.344
2349 0 156.276 18.5889 2905 100.907 1261.89 402.506
2350 0 156.728 13.9733 2190 107.186 1261.33 402.4
2351 0 164.66 12.4742 2054 108.037 1262.8 406.302
2352 1 99.5786 12.583 1253 104.107 1263.28 431.519
2353 0 100.324 15.9682 1602 99.8826 1263.78 428.856
2354 0 103.53 17.7919 1842 97.5776 1264.25 427.157
2355 0 108.407 14.1965 1539 103.144 1265.85 421.203
2356 0 106.669 9.46855 1010 110.797 1266.97 420.032
2357 0 110.618 11.2007 1239 107.94 1267.23 425.952
2358 0 115.429 11.8168 1364 108.067 1266.61 420.93
2359 0 122.606 15.3826 1886 103.101 1267.11 420.54
2360 1 215.736 14.3462 3095 111.733 1265.78 371.653
2361 0 225.719 16.2902 3677 108.425 1266.14 368.299
2362 1 134.694 21.3373 2874 95.7575 1266.41 422.235
2363 0 135.614 13.6195 1847 105.61 1266.44 412.334
2364 0 143.551 12.9432 1858 105.631 1265.1 423.195
2365 0 147.329 15.5163 2286 103.16 1265.42 417.885
2366 0 151.288 12.1159 1833 107.647 1264.5 407.609
2367 0 161.433 13.4421 2170 105.646 1264.37 408.386
2368 0 163.722 14.6345 2396 104.016 1263.67 405.894
2369 1 98.335 13.2811 1306 102.294 1262.8 443.257
2370 0 102.255 15.5201 1587 98.4014 1263.51 447.142
2371 0 103.409 11.7301 1213 103.994 1262.38 444.349
2372 0 107.319 12.4489 1336 101.153 1261.64 451.374
2373 0 109.236 13.2191 1444 102.96 1260.34 439.389
2374 0 110.474 10.8351 1197 106.15 1260.12 432.551
2375 0 114.348 11.981 1370 105.73 1258.81 431.961
2376 0 118.311 13.0841 1548 103.813 1258.54 435.052
2377 0 122.618 12.4533 1527 104.071 1258.41 437.614
2378 0 125.334 15.6143 1957 102.536 1257.31 429.139
2379 0 127.387 14.2479 1815 106.622 1257.35 426.544
2380 0 133.547 13.6731 1826 107.292 1257.06 424.167
2381 0 135.536 12.3141 1669 108.809 1257.3 422.131
2382 0 138.417 13.4377 1860 109.01 1256.89 413.12
2383 0 143.307 15.5261 2225 106.439 1257.71 413.311
2384 0 148.621 19.0283 2828 102.126 1257.68 402.328
2385 0 153.767 18.1833 2796 102.254 1257.19 410.056
2386 0 156.517 17.0589 2670 104.334 1258.37 407.771
2387 0 158.649 14.0436 2228 110.252 1257.81 396.649
2388 0 165.748 18.5764 3079 103.903 1259.14 400.139
2389 0 168.533 15.9375 2686 105.965 1259.21 408.734
2390 0 174.754 16.8236 2940 107.482 1258.88 391.595
2391 0 179.472 13.1329 2357 110.651 1259.66 400.608
2392 0 183.907 15.1163 2780 109.392 1260.21 391.08
2393 1 109.552 6.74568 739 112.18 1260.51 435.474
2394 0 116.739 12.1468 1418 106.96 1262.11 426.672
2395 0 118.059 14.3911 1699 103.604 1261.34 425.793
2396 0 118.412 9.99903 1184 111.378 1262.88 421.996
2397 0 123.6 13.9401 1723 106.081 1263.19 422.991
2398 0 127.828 13.5651 1734 107.353 1264.85 417.476
2399 0 131.096 13.6617 1791 106.979 1265.03 424.709
2400 0 134.355 11.6855 1570 110.764 1264.93 421.404
2401 0 139.786 17.1978 2404 104.4 1265.2 419.056
2402 0 148.238 15.3268 2272 107.739 1264.92 413.93
2403 0 151.085 15.3357 2317 108.528 1265.07 411.63
2404 0 157.146 15.1515 2381 108.871 1263.64 415.168
2405 0 155.943 13.9217 2171 111.401 1263.59 417.537
2406 1 95.7527 12.5845 1205 108.207 1263.13 446.387
2407 0 97.6953 11.8532 1158 110.397 1262.82 439.497
2408 0 103.825 14.4185 1497 105.979 1262.91 441.292
2409 0 105.465 13.0091 1372 109.02 1262.32 440.402
2410 0 108.454 14.9095 1617 107.226 1261.71 434.913
2411 0 114.737 13.7358 1576 107.946 1260.37 433.531
2412 0 115.571 11.4475 1323 112.144 1260.41 432.249
2413 0 121.729 12.7743 1555 109.842 1259.57 432.844
2414 0 123.536 12.4984 1544 110.637 1258.45 428.334
2415 0 130.778 12.1121 1584 110.744 1257.72 425.2
2416 0 136.125 18.8503 2566 100.792 1257.61 427.161
2417 1 191.931 11.2801 2165 111.852 1257.63 408.85
2418 1 79.1428 13.5957 1076 109.268 1257.66 443.72
2419 0 82.6961 11.2702 932 112.373 1256.93 440.736
2420 0 87.3766 12.8181 1120 108.987 1257.2 444.414
2421 0 91.4837 15.8608 1451 105.235 1257.48 440.591
2422 0 90.6636 12.8718 1167 111.195 1256.59 440.961
2423 0 94.8285 14.2573 1352 108.92 1257.33 439.698
2424 0 95.7065 10.668 1021 115.099 1257.34 438.814
2425 0 99.5009 15.4572 1538 108.13 1256.3 436.766
2426 0 103.863 12.4299 1291 113.229 1257.71 431.222
2427 0 102.691 13.2728 1363 113.935 1257.94 427.916
2428 0 108.554 16.8672 1831 108.327 1257.93 426.724
2429 0 109.504 14.3465 1571 112.125 1258.64 428.344
2430 1 204.892 18.2438 3738 108.8 1258.99 385.073
2431 1 118.627 13.926 1652 113.312 1259.88 424.883
2432 0 117.58 14.6538 1723 145.121 1260.78 425.704
2433 0 123.694 15.7809 1952 110.787 1261.12 422.983
2434 0 127.736 12.3771 1581 117.502 1261.54 421.04
2435 0 132.508 15.1009 2001 114.262 1261.89 414.937
2436 0 137.533 15.2909 2103 114.497 1261.61 413.063
2437 0 138.437 16.2024 2243 113.065 1262.95 415.443
2438 0 149.783 15.2287 2281 115.115 1263.64 410.426
2439 0 148.781 14.975 2228 150.885 1264.65 410.834
2440 0 149.657 10.8915 1630 119.674 1264.42 421.083
2441 0 146.506 11.003 1612 123.917 1265.29 409.803
2442 1 96.1486 13.4479 1293 116.189 1263.9 436.923
2443 0 100.406 13.5052 1356 115.212 1264.91 439.462
2444 0 104.252 11.8751 1238 118.638 1263.21 437.193
2445 0 107.356 11.8298 1270 118.427 1263.12 438.328
2446 0 108.657 18.1304 1970 110.515 1262.26 433.687
2447 0 108.657 18.0383 1960 135.468 1262.28 433.663
2448 0 114.421 11.8772 1359 121.506 1262.2 431.819
2449 0 123.411 16.1007 1987 114.537 1262.43 429.421
2450 0 123.411 16.0764 1984 144.411 1261.44 429.359
2451 1 77.1653 8.73449 674 113.377 1261.85 462.174
2452 0 77.2879 8.83709 683 119.796 1260.64 452.022
2453 0 81.1082 9.90036 803 116.592 1260.31 451.55
2454 0 75.1973 8.57744 645 122.175 1259.67 440.626
2455 0 84.2041 9.65512 813 117.723 1258.38 440.756
2456 0 87.2488 11.0374 963 114.172 1257.59 448.885
2457 0 83.3032 8.88322 740 123.123 1257.61 434.464
2458 0 97.3579 12.0381 1172 113.722 1257.19 440.753
2459 0 95.4105 14.1599 1351 110.973 1256.15 442.19
2460 0 98.3577 12.6782 1247 115.298 1256.56 433.432
2461 0 98.5632 14.7722 1456 111.38 1255.77 441.834
2462 0 102.491 12.2548 1256 117.149 1255.41 432.592
2463 0 105.597 14.7258 1555 116.922 1256.01 435.282
2464 0 105.488 11.8591 1251 123.007 1256.2 424.952
2465 0 111.537 14.3091 1596 116.688 1256.04 432.286
2466 0 111.549 11.7885 1315 121.922 1256.62 423.551
2467 0 115.483 15.5521 1796 115.834 1256.46 423.611
2468 0 118.37 8.99721 1065 125.733 1256.3 425.024
2469 0 120.347 12.3892 1491 122.754 1255.86 416.684
2470 1 175.63 10.6759 1875 132.202 1257.51 384.485
2471 1 124.274 12.6736 1575 123.61 1257.4 414.737
2472 0 129.286 13.1878 1705 122.69 1258.12 410.503
2473 0 132.23 18.3922 2432 114.035 1257.72 412.453
2474 0 138.496 13.1123 1816 121.802 1258.6 397.65
2475 0 143.415 15.117 2168 119.226 1259.67 393.928
2476 0 147.435 16.5971 2447 115.779 1260.84 402.338
2477 0 147.435 16.6243 2451 130.824 1261.86 402.462
2478 0 155.47 11.8994 1850 124.436 1261.33 401.49
2479 0 154.32 11.1457 1720 126.586 1261.28 402.132
2480 1 166.358 12.7436 2120 124.404 1262.59 392.387
2481 0 172.432 11.3436 1956 127.633 1263.45 392.236
2482 0 176.5 13.7564 2428 122.92 1263.93 385.413
2483 0 180.435 12.9132 2330 124.683 1263.25 380.152
2484 0 189.455 14.2303 2696 120.925 1264.32 392.82
2485 0 195.421 14.4304 2820 123.025 1263.08 380.066
2486 0 200.487 14.0956 2826 124.839 1263.01 376.545
2487 0 210.458 13.3376 2807 125.486 1263.47 378.123
2488 0 210.458 13.3518 2810 145.306 1264.47 377.886
2489 0 209.881 8.49529 1783 130.816 1263.64 380.098
2490 0 209.885 10.7773 2262 150.588 1261.56 376.222
2491 1 176.474 10.1771 1796 119.652 1262.86 409.394
2492 1 20.0729 3.78619 76 101.605 1261.26 488.461
2493 0 17.0068 4.70401 80 100.838 1261.66 490.15
2494 0 16.0064 11.0581 177 94.7571 1260.06 487.864
2495 0 19.0014 3.4208 65 104.523 1258.52 486.538
2496 0 22.0788 7.38264 163 99.3252 1258.9 485.184
2497 0 17.0119 4.46745 76 104.263 1257.54 486.539
2498 0 27.0852 8.9717 243 96.8889 1258.05 486.062
2499 0 16.0087 5.49702 88 100.943 1257.49 486.602
2500 0 18.0083 9.4401 170 98.9824 1255.66 482.571
2501 0 15.0043 5.86497 88 102.591 1255.22 483.92
2502 0 19.0116 5.89115 112 99.7143 1255.46 486.268
2503 0 14.0067 7.71061 108 101.306 1255.57 485.389
2504 0 9 0.666667 6 115.667 1255.67 483
2505 0 11.0011 5.99938 66 101.636 1255.59 483.879
2506 0 8.0026 5.37325 43 103.093 1256.23 483.721
2507 0 17.0117 3.64454 62 106.565 1256.5 481.387
2508 0 17.0423 6.04378 103 102.34 1256.33 479.485
2509 0 14.005 5.85504 82 103.317 1257.41 477.756
2510 0 18.0037 4.6657 84 106.357 1257.27 475.226
2511 0 23.0151 6.51747 150 101.253 1257.72 478.64
2512 1 82.2508 8.54703 703 109.3 1256.7 450.195
2513 0 84.2501 8.71216 734 110.33 1257.05 439.341
2514 0 86.1903 11.289 973 106.768 1257.72 446.892
2515 0 90.349 11.201 1012 107.312 1257.95 441.806
2516 0 89.1223 8.95399 798 110.338 1258.71 446.199
2517 0 90.2222 11.1613 1007 108.957 1258.9 436.414
2518 0 93.3076 7.5878 708 114.226 1259.72 436.492
2519 0 98.2783 11.386 1119 107.503 1260.06 443.143
2520 0 103.519 12.7029 1315 107.043 1261.36 439.491
2521 0 104.304 12.4732 1301 107.676 1261.11 441.031
2522 0 108.28 15.7463 1705 103.636 1262.16 438.119
2523 0 114.201 14.7197 1681 107.991 1260.69 430.957
2524 0 114.144 13.1938 1506 111.248 1261.89 436.098
2525 0 119.178 14.7091 1753 109.506 1261.54 434.577
2526 0 207.733 8.13544 1690 114.32 1261.82 411.272
2527 0 211.808 11.5812 2453 111.698 1262.92 403.822
2528 1 130.957 14.6308 1916 109.808 1263.65 427.978
2529 0 131.494 10.8674 1429 115.048 1262.43 421.852
2530 0 131.494 10.8674 1429 142.305 1259.42 422.164
2531 0 143.962 15.5111 2233 107.225 1261.94 431.72
2532 1 84.3024 12.2535 1033 108.119 1260.26 457.441
2533 0 84.2091 14.1552 1192 104.003 1260.34 463.832
2534 0 87.297 11.6728 1019 106.881 1257.71 463.862
2535 0 88.1956 14.5245 1281 105.308 1259.05 459.414
2536 0 91.2047 12.9708 1183 108.051 1257.82 457.981
2537 0 94.0537 15.9271 1498 104.849 1257.37 454.421
2538 0 94.1526 14.8376 1397 107.709 1257.36 451.182
2539 0 97.1802 14.3959 1399 109.337 1256.56 449.532
2540 0 98.0922 14.0072 1374 110.688 1256.07 445.825
2541 0 103.394 17.3802 1797 105.993 1257.19 448.196
2542 0 108.387 16.644 1804 107.185 1256.34 444.009
2543 0 107.458 14.4242 1550 112.201 1255.82 438.353
2544 0 109.302 13.0555 1427 114.688 1255.53 442.312
2545 0 111.333 12.3862 1379 116.714 1255.16 441.146
2546 0 113.44 12.5969 1429 118.556 1254.99 433.214
2547 0 117.423 16.9644 1992 111.866 1255.92 435.75
2548 0 120.39 15.6824 1888 113.576 1255.26 434.925
2549 0 124.393 15.2501 1897 115.63 1255.86 426.92
2550 0 124.435 13.8064 1718 117.469 1256.15 431.64
2551 0 127.429 14.9024 1899 116.051 1254.42 426.876
2552 1 77.1776 13.605 1050 110.72 1256.08 454.952
2553 0 75.1872 9.34999 703 118.054 1255.28 450.558
2554 0 78.1392 14.5638 1138 109.71 1256.77 449.714
2555 0 80.2007 12.2568 983 114.711 1257.25 447.196
2556 0 81.1486 12.7051 1031 111.754 1258.51 444.269
2557 0 83.2976 12.4613 1038 112.926 1258.39 445.204
2558 0 86.3078 12.0847 1043 113.155 1259.56 447.019
2559 0 91.2396 15.7826 1440 107.656 1259.52 444.888
2560 0 93.2567 13.4682 1256 112.205 1261.89 442.943
2561 0 95.2704 14.0232 1336 112.111 1261.09 442.662
2562 0 96.2211 14.1965 1366 113.341 1262.44 438.922
2563 0 100.274 14.3606 1440 111.832 1263.11 444.183
2564 0 101.294 13.061 1323 116.899 1262.96 434.558
2565 0 106.311 16.4893 1753 111.334 1263 438.24
2566 0 106.224 12.935 1374 119.583 1263.08 430.097
2567 0 112.194 17.2381 1934 112.4 1262.47 435.75
2568 0 118.392 16.344 1935 113.028 1262.24 441.367
2569 0 119.293 19.7246 2353 107.577 1262.88 446.153
2570 0 128.44 12.9632 1665 119.002 1262.55 436.696
2571 0 127.329 16.4612 2096 114.823 1263.59 432.44
2572 0 135.187 13.877 1876 118.766 1263.29 431.928
2573 1 80.2331 9.54718 766 119.422 1263.32 452.94
2574 0 84.2623 13.3274 1123 111.774 1261 460.515
2575 0 88.3126 12.9087 1140 111.873 1260.78 461.21
2576 0 87.2364 11.6236 1014 115.843 1259.6 457.01
2577 0 90.1126 13.4388 1211 113.717 1259.41 450.299
2578 0 96.2966 14.8292 1428 111.081 1258.11 452.166
2579 0 99.1645 13.4121 1330 112.871 1258.34 450.443
2580 0 100.227 13.1501 1318 114.467 1257.58 446.224
2581 0 103.187 15.2441 1573 110.61 1256.12 446.945
2582 0 106.334 14.8307 1577 111.35 1257.14 446.226
2583 0 109.247 13.6297 1489 114.357 1257.23 440.887
2584 0 112.177 14.2632 1600 113.662 1256.24 440.868
2585 0 112.177 14.3078 1605 145.138 1255.24 441.026
2586 0 112.177 14.3078 1605 144.627 1254.24 441.026
2587 1 123.176 15.2383 1877 110.772 1255.77 428.872
2588 0 123.176 15.2464 1878 142.312 1256.77 428.744
2589 0 131.279 12.5839 1652 114.696 1256.27 430.812
2590 1 78.265 8.57343 671 113.441 1256.7 457.097
2591 0 82.3384 13.0559 1075 106.19 1256.61 448.986
2592 0 84.1562 14.8652 1251 104.046 1256.27 448.075
2593 0 85.1866 13.3237 1135 105.603 1257.28 450.873
2594 0 86.21 12.7711 1101 107.262 1257.46 442.718
2595 0 92.2336 12.8153 1182 106.83 1256.84 444.362
2596 0 91.2267 14.9189 1361 104.201 1258.23 443.506
2597 0 96.2225 13.2713 1277 104.944 1257.94 442.719
2598 0 96.2225 13.2505 1275 125.986 1256.96 442.592
2599 0 103.36 13.632 1409 103.324 1260.17 438.906
2600 0 104.258 13.2843 1385 103.862 1260.31 434.626
2601 0 109.337 13.3075 1455 102.39 1261.36 439.304
2602 0 113.271 15.4939 1755 100.96 1262.45 432.407
2603 0 113.267 10.1883 1154 107.19 1262.47 431.867
2604 0 117.393 14.4472 1696 102.508 1262.96 434.032
2605 0 121.3 14.4353 1751 100.523 1263 427.834
2606 0 127.593 19.6562 2508 93.5873 1262.3 429.477
2607 0 127.593 19.4995 2488 108.26 1261.29 429.504
2608 1 186.599 10.8307 2021 107.607 1262.51 397.009
2609 1 140.379 11.3763 1597 104.318 1262.2 423.796
2610 0 146.59 14.4826 2123 100.549 1262.08 426.192
2611 0 152.537 13.8262 2109 102.088 1261.97 418.708
2612 0 160.779 14.3489 2307 99.8747 1262.61 417.599
2613 0 164.706 15.6946 2585 101.172 1262.34 404.092
2614 0 174.72 16.1344 2819 98.6758 1262.23 422.665
2615 0 177.682 13.6874 2432 104.331 1261.3 406.583
2616 0 184.773 15.1104 2792 100.802 1260.9 417.745
2617 0 188.646 19.5551 3689 97.109 1259.21 412.221
2618 0 198.497 15.7786 3132 102.049 1258.71 401.231
2619 0 204.458 16.2234 3317 101.688 1258.44 402.08
2620 0 211.769 16.9619 3592 100.18 1257.55 399.684
2621 0 215.459 17.646 3802 101.097 1256.75 378.236
2622 0 224.656 18.7932 4222 98.8657 1257.05 382.21
2623 0 231.75 17.2816 4005 100.447 1256.7 385.98
2624 0 239.834 15.3606 3684 103.281 1256.65 374.072
2625 0 248.06 12.243 3037 107.199 1255.96 371.709
2626 0 253.62 12.9091 3274 104.964 1255.1 376.345
2627 0 263.946 12.9004 3405 106.574 1254.95 358.085
2628 1 62.5132 13.8371 865 92.4636 1255.58 461.498
2629 0 65.4602 10.4185 682 96.0924 1256.7 464.677
2630 0 64.253 15.8903 1021 90.7894 1256.26 465.129
2631 0 68.5693 14.7296 1010 91.0564 1256.85 463.817
2632 0 68.465 14.9127 1021 93.0989 1258.57 457.369
2633 0 68.072 13.2213 900 94.5822 1259.13 459.952
2634 0 69.2565 12.1577 842 96.5713 1260.33 453.596
2635 0 73.2474 16.3282 1196 92.4992 1259.35 455.62
2636 0 71.081 11.0156 783 99.6552 1260.24 451.547
2637 0 78.1077 13.8271 1080 94.7093 1262.04 452.54
2638 0 85.2064 20.8083 1773 86.7298 1260.95 444.736
2639 0 86.1738 16.2114 1397 91.7502 1262.49 445.843
2640 0 81.2674 14.36 1167 95.7661 1262.81 451.041
2641 0 84.2672 12.8638 1084 97.6559 1262.59 448.633
2642 0 181.951 13.762 2504 92.9533 1265.8 399.955
2643 0 187.649 19.6856 3694 87.5555 1266.43 397.157
2644 0 185.846 28.9165 5374 81.0117 1265.75 398.555
2645 1 111.51 13.3172 1485 93.0539 1265.17 439.89
2646 0 111.291 15.2033 1692 89.8611 1265.32 445.394
2647 0 112.431 16.748 1883 90.1657 1263.94 443.843
2648 0 115.751 20.3972 2361 87.3876 1263.93 445.766
2649 0 120.353 18.4707 2223 90.247 1263.84 438.162
2650 0 119.384 14.7507 1761 94.3288 1262.2 436.564
2651 0 130.35 20.3988 2659 88.6202 1262.43 442.709
2652 0 129.493 13.9853 1811 96.5505 1260.7 436.065
2653 0 135.691 19.1759 2602 92.4485 1259.85 431.493
2654 0 136.924 13.7594 1884 97.7988 1258.78 434.105
2655 0 143.819 15.8881 2285 95.5637 1258.03 432.16
2656 1 84.3889 11.5536 975 96.0246 1257.64 458.517
2657 0 89.3487 11.9867 1071 95.0719 1256.9 457.013
2658 0 88.4771 15.1565 1341 93.437 1254.85 454.447
2659 0 89.2768 12.0188 1073 97.7223 1255.49 450.176
2660 0 96.2499 15.4494 1487 93.8211 1254.41 450.592
2661 0 96.2249 10.3819 999 100.095 1255.14 448.633
2662 0 100.599 16.5409 1664 94.4056 1255.45 449.581
2663 0 100.27 15.7275 1577 96.1503 1254.97 446.696
2664 0 105.269 14.1637 1491 97.2079 1255.25 448.164
2665 0 108.445 17.8893 1940 94.9418 1254.4 445.443
2666 0 109.266 17.2606 1886 94.473 1254.66 448.779
2667 0 111.265 15.7372 1751 99.0714 1255.17 438.802
2668 0 117.352 14.759 1732 100.31 1253.74 428.533
2669 0 118.517 20.36 2413 95.191 1254.38 431.397
2670 0 122.682 18.3401 2250 96.468 1254.76 432.875
2671 0 124.448 17.3084 2154 98.4721 1256.42 428.49
2672 0 129.605 15.0226 1947 101.583 1256.45 420.053
2673 0 131.635 15.4898 2039 101.601 1257.15 421.239
2674 0 138.562 14.6721 2033 103.584 1257.18 419.007
2675 0 142.684 18.4674 2635 98.6596 1258.43 420.655
2676 0 145.347 17.5993 2558 101.476 1258.84 409.457
2677 0 150.416 17.4117 2619 101.116 1258.76 414.042
2678 0 155.474 20.5951 3202 97.2224 1259.83 416.194
2679 0 159.429 14.7714 2355 103.546 1260.65 416.248
2680 0 166.525 12.1123 2017 108.436 1261.13 404.756
2681 0 169.571 16.5241 2802 102.8 1261.78 408.48
2682 0 173.821 19.0886 3318 100.797 1261.76 404.136
2683 0 180.895 19.3151 3494 101.194 1261.73 396.956
2684 0 182.609 15.9959 2921 106.248 1260.58 397.484
2685 0 189.649 16.5463 3138 105.889 1261.88 391.887
2686 0 192.485 16.0116 3082 107.509 1262.3 384.387
2687 0 198.804 14.7683 2936 109.082 1262.55 388.563
2688 0 205.868 18.4487 3798 104.481 1262.12 392.9
2689 0 208.857 14.9671 3126 109.944 1262.18 390.626
2690 1 223.283 19.7642 4413 101.387 1262.46 393.936
2691 1 47.0757 10.5787 498 101.739 1263.62 470.725
2692 0 52.1419 12.8496 670 100.443 1262.67 473.158
2693 0 53.1079 12.7288 676 97.1967 1263.65 477.797
2694 0 54.1458 12.4109 672 98.4107 1262.41 475.4
2695 0 57.114 10.8905 622 98.9309 1261.81 478.796
2696 0 54.0897 6.61863 358 105.26 1262.18 474.14
2697 0 58.3626 12.5251 731 97.3912 1260.03 476.387
2698 0 58.3626 10.9659 640 125.1 1259.27 474.82
2699 0 58.1694 10.5554 614 96.4756 1259.79 476.502
2700 0 63.0905 20.7004 1306 87.7098 1258.29 468.826
2701 0 67.1609 25.0592 1683 84.5859 1257.3 471.238
2702 0 67.4298 9.78796 660 85.4 1256.88 472.241
2703 0 69.358 14.1152 979 85.142 1256.68 465.58
2704 0 71.4121 11.4126 815 86.9374 1255.71 462.945
2705 0 72.1 13.0929 944 87.375 1255.67 463.3
2706 0 74.4155 21.3531 1589 81.9245 1254.06 464.298
2707 0 78.1335 14.68 1147 84.8117 1254.47 466.415
2708 0 78.4427 17.9239 1406 84.2944 1254.17 459.987
2709 0 83.4545 18.3453 1531 82.4742 1254.16 461.08
2710 0 83.3231 12.5535 1046 89.1119 1254.38 454.208
2711 0 85.6917 16.8744 1446 85.7524 1254.91 452.477
2712 0 86.469 13.6234 1178 88.6817 1255.95 449.115
2713 0 92.586 13.1121 1214 88.9687 1256.41 444.675
2714 0 93.6111 15.2546 1428 87.7689 1256.54 439.589
2715 0 97.5712 14.451 1410 88.8553 1257.77 438.338
2716 0 95.5477 17.2689 1650 86.3667 1257.67 444.851
2717 1 135.724 20.9838 2848 82.8915 1257.52 431.247
2718 0 139.043 12.2408 1702 90.5212 1257.76 429.667
2719 1 107.646 19.8706 2139 85.1692 1259.28 436.504
2720 0 110.394 13.9953 1545 90.6997 1260.36 432.478
2721 0 115.513 19.764 2283 85.5427 1260.94 438.424
2722 0 116.428 12.8491 1496 92.2112 1261.44 422.106
2723 1 72.8751 22.6964 1654 80.8966 1260.47 456.878
2724 0 77.4164 14.6739 1136 87.2896 1261.54 456.127
2725 0 73.333 12.5319 919 90.8313 1261.15 452.152
2726 0 76.6684 15.104 1158 86.9214 1261.65 460.224
2727 0 83.3597 18.4981 1542 85.2335 1262.01 449.417
2728 0 85.9546 15.8921 1366 86.9766 1262.27 455.34
2729 0 89.1728 20.6453 1841 83.0739 1262.49 455.369
2730 0 86.3735 14.5415 1256 89.2914 1262 454.889
2731 0 91.61 15.8825 1455 88.5491 1262.35 450.957
2732 0 94.0643 16.1592 1520 88.9263 1261.56 447.96
2733 0 96.9303 20.3755 1975 84.2248 1261.24 456.454
2734 0 99.7158 13.7892 1375 91.0756 1261.08 444.199
2735 0 103.683 17.8042 1846 87.675 1261.09 448.424
2736 0 106.749 18.4545 1970 87.2518 1261.34 446.423
2737 0 106.373 16.3858 1743 88.7206 1260.15 452.065
2738 0 115.061 17.7471 2042 86.5024 1260.26 455.19
2739 0 114.586 14.8622 1703 91.9865 1259.1 438.42
2740 0 117.606 26.5122 3118 82.4317 1258 446.422
2741 0 121.492 14.1737 1722 93.6899 1258.5 441.974
2742 0 123.859 14.6134 1810 93.6597 1257.58 438.032
2743 0 130.979 17.751 2325 90.1028 1257.69 429.888
2744 0 127.973 17.996 2303 91.1598 1256.88 433.371
2745 0 137.943 16.5359 2281 91.2043 1256.5 437.045
2746 0 141.373 15.9436 2254 92.8629 1256.87 430.215
2747 0 146.829 17.1901 2524 91.7211 1255.17 427.048
2748 0 151.86 17.549 2665 91.3212 1255.45 424.472
2749 0 154.074 14.6423 2256 95.0647 1254.47 420.457
2750 1 87.2139 10.7322 936 97.6774 1255.54 446.64
2751 0 90.6775 13.3109 1207 93.6321 1255.23 450.823
2752 0 98.0941 16.5046 1619 91.0698 1255.79 443.904
2753 0 98.453 10.604 1044 98.1772 1256 434.894
2754 0 102.664 24.1273 2477 90.1494 1255.54 441.685
2755 0 108.744 14.6399 1592 99.5817 1257.46 439.121
2756 0 108.744 15.5042 1686 100.331 1257.5 431.312
2757 0 111.285 17.9898 2002 97.0365 1258.42 433.487
2758 0 114.494 15.9047 1821 98.3553 1258.38 436.393
2759 0 119.888 12.2782 1472 102.987 1259.85 429.623
2760 0 123.615 15.4107 1905 99.1213 1259.94 426.756
2761 0 127.656 11.9305 1523 101.006 1260.86 431.76
2762 0 134.676 21.1694 2851 93.4297 1260.79 416.639
2763 0 138.439 17.8201 2467 96.2882 1261.31 425.993
2764 1 79.6486 10.5714 842 100.032 1262.52 451.376
2765 0 83.8111 9.58107 803 101.604 1262.49 449.316
2766 0 84.3066 17.4126 1468 94.7302 1263.59 447.243
2767 0 90.51 13.8548 1254 97.7344 1263.77 443.382
2768 0 87.6141 9.11954 799 104.593 1264.19 438.094
2769 0 96.6507 16.2337 1569 95.7183 1265.13 442.41
2770 0 96.616 14.2937 1381 98.168 1265.04 442.681
2771 0 103.83 14.0325 1457 97.9334 1264.73 443.332
2772 0 102.343 13.572 1389 99.3924 1264.4 441.967
2773 0 106.785 13.8503 1479 99.0047 1264.53 443.765
2774 0 112.484 16.1089 1812 97.5188 1265.37 441.538
2775 0 114.744 17.064 1958 96.359 1264.43 445.065
2776 0 117.442 16.8169 1975 98.2972 1264.74 436.446
2777 0 119.412 20.2492 2418 94.7895 1264.66 441.471
2778 0 121.647 18.5537 2257 97.4958 1264.74 438.809
2779 0 130.924 17.0633 2234 98.111 1264.19 442.089
2780 0 131.603 17.1425 2256 98.7318 1263.1 441.696
2781 0 135.698 13.7806 1870 104.88 1262.3 424.576
2782 0 137.587 12.6247 1737 106.914 1261.75 428.26
2783 0 144.955 16.3085 2364 102.289 1262.04 425.525
2784 1 82.3183 14.5897 1201 97.7727 1261.44 462.035
2785 0 88.5906 17.1576 1520 95.1632 1261.48 460.906
2786 0 89.277 16.3424 1459 98.3687 1259.88 455.446
2787 0 89.277 16.32 1457 139.206 1259.88 455.27
2788 0 92.3976 15.7147 1452 100.65 1259.92 447.966
2789 0 98.487 14.4791 1426 100.734 1259.28 450.075
2790 0 96.461 12.6994 1225 103.971 1258.57 449.442
2791 0 99.3384 14.3852 1429 102.625 1258.21 446.491
2792 0 99.3384 14.4355 1434 146.58 1258.21 446.45
2793 0 106.474 16.0696 1711 101.091 1256.98 440.071
2794 0 111.489 15.562 1735 102.064 1257.84 438.417
2795 0 111.907 14.798 1656 104.42 1257.49 429.785
2796 0 119.736 21.9817 2632 94.2869 1257.45 438.844
2797 0 124.498 16.2493 2023 101.53 1258.03 433.044
2798 0 126.311 13.2055 1668 105.991 1258.38 423.592
2799 0 131.334 14.7029 1931 103.73 1258.85 423.743
2800 0 133.384 13.4649 1796 105.981 1259.54 416.126
2801 1 80.3239 13.4082 1077 99.8087 1260.42 448.03
2802 0 81.4663 12.275 1000 102.852 1259.94 445.962
2803 0 83.4138 14.1823 1183 101.686 1260.34 441.535
2804 0 90.4699 15.8837 1437 97.3257 1262.06 447.042
2805 0 92.4775 14.5008 1341 100.661 1263.78 441.761
2806 0 88.1965 13.2091 1165 104.407 1262.11 438.905
2807 0 93.1919 17.362 1618 99.3894 1263.74 435.739
2808 0 99.7808 16.5162 1648 97.9958 1263.83 443.004
2809 0 102.487 16.4411 1685 99.5502 1264.93 436.424
2810 0 106.547 18.6208 1984 97.0438 1265.06 437.825
2811 0 108.946 18.6698 2034 95.4479 1264.31 443.817
2812 0 110.557 14.4903 1602 103.471 1264.57 434.482
2813 0 113.703 14.8193 1685 103.724 1265.44 430.375
2814 0 116.517 15.3282 1786 103.686 1265.56 429.812
2815 0 122.469 20.2092 2475 96.9964 1264.85 436.619
2816 0 120.407 13.3713 1610 106.707 1265.1 430.966
2817 0 124.444 16.8349 2095 102.687 1265.02 425.172
2818 0 130.468 16.004 2088 101.014 1266.25 434.886
2819 0 136.285 18.476 2518 99.4158 1264.56 429.631
2820 0 139.359 18.2694 2546 99.943 1264.86 425.702
2821 0 143.409 14.5318 2084 104.261 1264.05 426.845
2822 1 82.2892 15.6643 1289 97.3949 1264.07 458.988
2823 0 87.2523 14.0054 1222 100.414 1264.16 458.349
2824 0 88.1584 15.6423 1379 99.1922 1263.93 455.358
2825 0 94.3677 13.6169 1285 101.295 1263.39 455.398
2826 0 95.1472 15.8176 1505 100.84 1262.79 447.928
2827 0 99.3917 14.951 1486 100.308 1261.66 450.773
2828 0 101.333 16.4408 1666 99.7545 1262.07 443.058
2829 0 106.562 14.7988 1577 100.722 1260.49 446.911
2830 0 107.182 17.7921 1907 97.9297 1261.08 446.679
2831 0 112.397 14.3421 1612 102.833 1261.32 442.672
2832 0 114.507 16.4183 1880 100.781 1259.8 437.672
2833 0 119.667 15.6184 1869 101.715 1258.72 434.317
2834 0 120.697 13.273 1602 105.939 1258.52 430.805
2835 0 127.614 16.3462 2086 101.418 1257.04 428.085
2836 0 131.505 17.353 2282 99.7296 1256.78 429.741
2837 0 136.503 19.2743 2631 97.8788 1256.64 428.33
2838 0 136.503 19.4135 2650 140.194 1256.61 428.343
2839 0 143.408 13.3326 1912 104.292 1256.42 423.834
2840 0 147.464 17.2245 2540 100.499 1257.3 418.063
2841 0 155.109 17.1686 2663 99.8532 1256.88 421.266
2842 0 153.594 13.6855 2102 107.57 1258.61 406.388
2843 0 163.707 18.7591 3071 100.237 1258.27 405.127
2844 0 167.489 18.8251 3153 100.291 1257.77 396.593
2845 0 169.349 15.7545 2668 104.582 1259 392.496
2846 1 100.418 13.0056 1306 102.214 1259.68 438.337
2847 0 107.542 17.5652 1889 97.1011 1260.58 435.229
2848 0 109.508 14.6473 1604 100.686 1260.76 434.614
2849 0 112.626 16.0442 1807 99.5949 1261.35 426.483
2850 0 115.285 13.6531 1574 103.28 1261.79 429.371
2851 0 119.394 14.2051 1696 103.172 1262.29 424.547
2852 0 124.639 18.381 2291 97.8031 1263.4 428.213
2853 0 126.493 11.716 1482 107.055 1263.79 418.663
2854 0 133.491 18.1736 2426 99.2119 1263.98 421.384
2855 0 138.804 16.4981 2290 99.6144 1263.85 428.024
2856 0 140.532 13.3137 1871 105.154 1263.62 421.648
2857 1 76.315 14.0208 1070 102.656 1265.07 448.847
2858 0 76.315 13.9946 1068 136.516 1267.09 448.721
2859 0 84.3012 12.0757 1018 104.662 1265.27 448.269
2860 0 90.3807 14.4389 1305 99.8582 1265.51 452.202
2861 0 95.6315 18.8223 1800 95.2611 1265.13 453.851
2862 0 93.4014 11.7664 1099 105.543 1265.24 452.006
2863 0 96.3414 13.0785 1260 104.843 1264.87 448.883
2864 0 99.5107 15.6767 1560 102.079 1264.56 445.061
2865 0 99.4235 13.3067 1323 104.896 1264.47 448.211
2866 0 105.473 12.8469 1355 106.303 1264.31 444.597
2867 0 108.34 11.9162 1291 107.74 1263.85 441.294
2868 0 109.376 13.9245 1523 106.554 1263.8 441.185
2869 0 116.515 14.7363 1717 106.639 1263.07 440.96
2870 0 119.658 15.7532 1885 104.92 1262.23 441.42
2871 0 122.48 14.8922 1824 106.553 1260.6 436.713
2872 0 128.455 17.9441 2305 101.773 1261.25 440.316
2873 0 131.509 14.7823 1944 106.081 1259.5 432.882
2874 0 133.331 15.5103 2068 106.381 1259.63 430.4
2875 0 137.676 17.5266 2413 100.05 1259.5 433.055
2876 0 142.514 18.6227 2654 99.081 1260.02 419.414
2877 0 148.559 15.6504 2325 101.889 1259.29 423.033
2878 0 151.809 19.8472 3013 98.0279 1258.91 416.757
2879 0 157.537 16.8088 2648 101.415 1258.84 412.048
2880 1 93.2606 12.7171 1186 102.263 1258.95 444.918
2881 0 95.2396 12.8833 1227 104.091 1258.86 431.984
2882 0 97.2877 14.6164 1422 101.605 1258.11 437.16
2883 0 98.2073 10.3964 1021 108.08 1257.06 432.579
2884 0 102.362 14.0775 1441 103.974 1258.34 432.378
2885 0 105.171 13.188 1387 105.304 1259.2 428.058
2886 0 108.356 15.5598 1686 102.381 1259.03 425.348
2887 0 114.583 13.5709 1555 104.023 1258.44 424.559
2888 0 114.237 13.4282 1534 102.196 1260.21 422.286
2889 0 118.448 15.2134 1802 100.103 1260.41 421.172
2890 0 124.579 17.7076 2206 97.267 1260.99 421.43
2891 1 244.033 13.3588 3260 107.283 1261.84 383.159
2892 1 131.417 14.1762 1863 105.388 1262.57 420.192
2893 0 135.543 17.8394 2418 99.5409 1262.51 418.853
2894 0 141.516 16.0406 2270 102.359 1261.93 409.894
2895 0 146.566 17.2209 2524 100.632 1262.92 418.738
2896 0 146.566 17.2278 2525 128.363 1263.93 418.813
2897 0 153.765 18.3983 2829 100.66 1263.84 414.633
2898 0 156.551 16.8891 2644 103.477 1264.8 412.906
2899 0 162.388 18.0493 2931 102.541 1264.32 399.917
2900 0 162.388 18.0493 2931 140.859 1263.32 399.917
2901 0 170.967 14.8976 2547 106.552 1265.8 407.91
2902 0 176.683 16.3966 2897 105.244 1265.41 402.641
2903 0 184.842 24.1396 4462 96.8012 1265.65 402.105
2904 0 188.511 17.6329 3324 105.385 1265.71 390.724
2905 0 192.7 19.8962 3834 100.788 1265.25 411.829
2906 0 194.498 14.7971 2878 110.29 1265.97 390.318
2907 0 198.521 17.5498 3484 105.33 1265.59 401.695
2908 0 192.722 9.81207 1891 114.303 1264.97 405.705
2909 1 218.805 16.2747 3561 107.261 1265.42 394.916
2910 0 224.06 16.4465 3685 108.447 1265.05 377.8
2911 0 236.729 18.443 4366 105.373 1264.49 380.528
2912 0 242.661 18.4825 4485 105.683 1264.63 369.69
2913 1 192.507 10.8724 2093 113.878 1263.45 394.182
2914 0 200.759 14.6942 2950 110.727 1262.08 381.083
2915 0 204.857 16.3041 3340 107.837 1261.93 393.846
2916 0 215.795 21.8726 4720 100.972 1260.58 390.233
2917 0 222.603 16.3206 3633 108.369 1260.97 381.362
2918 0 229.674 18.5785 4267 105.487 1260.23 381.96
2919 0 229.674 18.5785 4267 149.948 1260.23 381.85
2920 0 229.031 12.9502 2966 111.722 1259.24 386.421
2921 0 226.924 13.7403 3118 109.657 1258.96 395.284
2922 0 223.991 13.0809 2930 112.911 1258.71 387.348
2923 0 223.991 13.0988 2934 144.863 1258.73 387.738
2924 1 281.155 20.7395 5831 102.618 1258.01 366.984
2925 0 280.098 15.6481 4383 108.271 1257.7 368.428
2926 0 280.098 15.6552 4385 161.601 1257.69 368.823
2927 0 333.437 28.95 9653 93.5484 1256.48 309.526
2928 1 230.058 13.5966 3128 113.546 1258.51 366.134
2929 0 241.051 17.7721 4284 107.261 1258.81 369.053
2930 0 250.788 16.6236 4169 109.33 1259.22 362.92
2931 0 259.132 18.6391 4830 106.516 1260.45 363.331
2932 0 268.222 15.9979 4291 111.82 1261.26 350.668
2933 0 278.128 19.7104 5482 106.687 1261.67 350.214
2934 1 210.881 12.6849 2675 113.489 1262.23 390.437
2935 0 214.888 16.9809 3649 109.747 1263.09 381.348
2936 0 219.695 17.9476 3943 109.873 1263.29 374.055
2937 0 227.754 16.4124 3738 112.171 1263.84 368.167
2938 0 235.725 17.5246 4131 110.6 1263.87 369.224
2939 0 243.989 16.2794 3972 112.656 1264.82 366.422
2940 0 257.121 24.0276 6178 101.991 1264.74 372.63
2941 0 263.297 19.252 5069 109.814 1265.04 357.073
2942 1 211.95 16.6549 3530 113.263 1265.7 380.563
2943 0 219.806 16.3827 3601 112.894 1265.78 376.922
2944 0 228.281 23.7207 5415 101.461 1265.99 388.48
2945 0 232.041 17.5486 4072 111.313 1266.37 367.168
2946 0 239.037 18.541 4432 109.609 1266.26 368.98
2947 0 247.012 16.1733 3995 113.425 1266.46 367.372
2948 0 257.664 15.9199 4102 113.379 1266.33 366.77
2949 0 266.159 15.5433 4137 114.046 1265.24 357.669
2950 1 304.934 10.3432 3154 118.487 1265.62 364.696
2951 0 306.277 12.5932 3857 116.966 1265.1 346.57
2952 0 305.327 9.80589 2994 121.659 1265.07 342.884
2953 0 306.255 20.323 6224 105.153 1265.03 358.222
2954 0 317.584 17.693 5619 109.664 1264.96 333.946
2955 1 327.039 16.4476 5379 111.463 1262.87 319.988
2956 0 359.093 26.8399 9638 95.6758 1262.89 304.935
2957 0 347.687 18.0967 6292 108.808 1262.09 315.117
2958 0 356.348 19.2368 6855 107.235 1262.73 310.962
2959 0 370.016 26.1827 9688 98.821 1262.05 303.053
2960 0 357.343 10.8775 3887 115.27 1261.86 336.357
2961 0 357.08 10.8323 3868 115.98 1260.82 330.615
2962 0 360.313 11.3402 4086 115.253 1261.71 332.603
2963 0 364.16 11.8547 4317 113.314 1260.55 343.624
2966 0 241.852 14.2897 3456 111.494 1259.48 371.667
2967 0 253.717 17.2752 4383 108.386 1259.42 367.109
2968 0 370.254 20.7452 7681 104.9 1258.89 294.247
2969 0 277.33 24.8873 6902 98.5482 1259.92 342.619
2970 0 281.006 23.3305 6556 100.922 1259.34 326.507
2971 0 294.489 27.2947 8038 96.5474 1257.46 332.007
2972 0 294.489 27.1861 8006 131.693 1257.49 332.307
2973 0 310.626 19.8438 6164 105.709 1258.53 315.928
2974 0 319.283 20.9062 6675 104.996 1259.24 319.966
2975 0 334.27 23.846 7971 101.872 1258.67 311.728
2976 0 342.808 17.7446 6083 109.855 1260.88 291.899
2977 0 357.646 19.03 6806 107.953 1261.05 288.163
2978 0 364.739 30.2765 11043 94.6341 1257.9 296.956
2979 0 362.343 26.6046 9640 99.1615 1259.36 292.716
2980 0 360.303 17.9321 6461 110.903 1262.47 288.278
2984 0 361.424 20.1509 7283 107.203 1263.31 286.207
2986 0 314.999 16.9937 5353 111.7 1264.96 259.145
2987 0 262.194 23.8831 6262 100.024 1265.55 239.312
2993 0 290.265 18.6726 5420 107.087 1264.94 249.051
2994 0 292.293 12.1693 3557 116.6 1264.65 237.571
2996 0 318.873 24.8751 7932 99.6865 1263.49 263.078
2999 0 50.3642 12.2905 619 87.9693 1262.82 405.058
3000 0 51.0853 10.8446 554 90.3881 1260.61 401.708
3001 0 59.2389 13.741 814 85.2408 1259.85 389.365
3002 0 52.3217 9.69005 507 93.2643 1260.49 389.678
3003 0 53.1293 9.27926 493 94.7769 1260.03 389.89
3004 0 54.1814 10.1326 549 93.8142 1258.79 393.155
3005 0 54.1293 13.0244 705 91.4794 1258.26 398.613
3006 0 55.1447 10.8079 596 93.9799 1258.27 403.331
3007 0 55.0845 12.1994 672 92.1548 1256.88 405.823
3008 0 132.089 26.1262 3451 83.1996 1256.72 366.488
3009 1 60.3089 14.6081 881 89.7094 1255.82 415.555
3010 0 59.2013 11.0639 655 93.9618 1256.86 418.078
3011 0 62.2401 16.1311 1004 88.8088 1257.01 415.369
3012 0 59.1204 12.8044 757 93.2629 1256.37 419.47
3013 0 59.2496 11.3925 675 94.957 1256.23 416.72
3014 0 60.2832 14.8798 897 91.5641 1257.02 411.658
3015 0 62.3541 14.7384 919 90.9314 1257.16 409.923
3016 0 65.1819 21.2175 1383 84.3724 1257.31 409.96
3017 0 62.7238 13.0732 820 92.9634 1258.12 408.638
3018 0 64.5392 14.6423 945 91.618 1258.65 407.758
