time division length width area intensity CMx CMy
0 0 35.1327 16.1673 568 125.81 1351.12 473.005
1 0 34.0375 16.7756 571 126.046 1350.43 473.074
2 0 37.1093 17.8662 663 114.578 1349.53 475.321
3 0 35.1372 13.49 474 132.426 1349.29 473.996
4 0 37.047 15.3049 567 121.963 1348.47 475.3
5 0 39.2036 16.0444 629 121.048 1347.75 472.194
6 0 40.0881 17.0125 682 119.126 1346.58 472.081
7 0 39.1343 14.1819 555 131.286 1345.91 471.463
8 0 42.066 16.2601 684 120.886 1346.15 473.212
9 0 43.1255 15.7911 681 126.819 1343.57 469.781
10 0 44.038 18.8019 828 121.721 1343.78 469.542
11 0 43.0307 15.4076 663 126.083 1341.69 468.605
12 0 47.0778 15.2301 717 126.432 1342.16 468.088
13 0 49.0417 18.8819 926 119.923 1342.07 464.446
14 0 47.1123 16.0468 756 128.009 1341.94 462.041
15 0 51.2042 14.6082 748 128.35 1342.19 461.119
16 0 53.1596 16.8361 895 125.644 1342.48 459.59
17 0 52.0945 16.2205 845 122.66 1342.66 459.27
18 0 56.189 19.3276 1086 116.226 1342.88 459.673
19 0 56.1892 19.4165 1091 148.806 1343.86 459.72
20 0 58.1965 16.0319 933 129.628 1342.29 452.278
21 0 61.0768 19.8602 1213 120.083 1343.49 452.351
22 0 63.1009 15.9586 1007 129.399 1342.98 450.347
23 0 65.0414 15.7131 1022 129.34 1346.07 449.733
24 0 67.1902 21.2233 1426 119.954 1344.13 449.02
25 0 71.1435 17.0641 1214 127.095 1347.2 445.356
26 0 74.2244 15.8573 1177 127.106 1346.75 445.584
27 0 75.1822 19.3929 1458 122.187 1347.83 443.217
28 1 38.0964 17.0357 649 123.063 1348.95 460.957
29 0 41.2033 14.4163 594 121.54 1349.88 460.165
30 0 41.2033 14.3921 593 160.944 1351.89 460.17
31 0 44.2506 15.706 695 121.653 1352.03 455.807
32 0 44.0679 13.3884 590 125.253 1352.13 459.566
33 0 49.2174 15.8277 779 120.019 1353.42 457.434
34 0 48.1002 14.9064 717 122.105 1353.55 456.43
35 0 51.1171 16.2959 833 121.307 1354.94 456.423
36 0 53.1294 15.1517 805 121.301 1353.61 455.494
37 0 56.0474 14.1487 793 121.151 1355.58 457.115
38 0 59.2464 18.364 1088 111.329 1354.58 457.198
39 0 59.2464 18.1783 1077 140.102 1353.55 457.135
40 0 61.1225 16.2461 993 113.955 1355.44 456.786
41 0 65.1051 18.2013 1185 111.312 1354.89 459.187
42 0 65.1051 18.2013 1185 144.138 1354.91 459.144
43 0 69.2486 16.0725 1113 115.155 1352.95 454.45
44 0 67.3359 13.0985 882 121.15 1352.24 451.632
45 0 74.154 19.028 1411 115.186 1351.49 456.513
46 0 74.154 18.9201 1403 142.062 1350.5 456.528
47 0 76.2205 16.4654 1255 129.802 1350.18 451.18
48 0 78.6532 14.939 1175 129.472 1349.38 452.422
49 0 82.358 16.2704 1340 130.152 1348.7 451.717
50 0 84.4963 17.267 1459 126.964 1349.31 451.029
51 1 41.2567 11.3678 469 135.171 1347.34 470.286
52 0 41.2567 11.3921 470 139.626 1346.34 470.323
53 0 45.0675 13.1137 591 130.142 1346.11 469.511
54 0 47.0803 13.7425 647 128.19 1347.02 470.009
55 0 47.0437 13.7957 649 128.8 1345.84 466.729
56 0 51.051 15.083 770 125.269 1345.14 466.336
57 0 54.152 14.2008 769 124.544 1344.59 466.39
58 0 55.0448 13.3891 737 126.672 1344.26 464.887
59 0 57.0969 17.3915 993 121.135 1343.82 461.369
60 0 57.0659 14.2817 815 127.609 1344.33 458.509
61 0 61.0685 15.1633 926 124.45 1344.44 456.119
62 0 63.0743 13.9835 882 127.889 1343.57 453.804
63 0 66.0723 15.029 993 126.348 1343.29 453.208
64 0 66.0723 15.029 993 141.426 1343.29 453.183
65 0 69.1227 12.9191 893 129.693 1344.49 451.156
66 0 71.2011 14.6767 1045 127.758 1343.71 446.908
67 0 75.1919 14.2303 1070 126.727 1345.06 448.279
68 0 77.1841 15.3658 1186 126.177 1345.5 443.707
69 0 78.4186 13.7595 1079 129.891 1345.11 442.55
70 0 83.2765 15.7908 1315 125.611 1346.18 442.727
71 0 85.1986 18.5919 1584 122.056 1345.11 435.973
72 0 86.1636 15.076 1299 128.286 1346.54 435.435
73 1 144.355 13.3421 1926 132.532 1346.37 413.037
74 1 94.3792 14.8868 1405 126.011 1346.89 430.744
75 1 48.1633 11.1288 536 124.308 1346.89 455.121
76 0 48.1854 8.98613 433 122.316 1348.05 449.637
77 0 52.1576 12.2513 639 120.061 1348.88 458.883
78 0 53.138 15.8832 844 115.75 1348.43 456.601
79 0 55.1407 14.9799 826 116.96 1349.16 457.564
80 0 54.0999 11.4788 621 125.641 1351.55 456.878
81 0 60.0838 14.3633 863 119.132 1351.56 459.494
82 0 61.0911 13.2753 811 121.073 1350.85 460.456
83 0 64.0454 17.0816 1094 116.298 1350.37 456.492
84 0 65.2619 14.4801 945 120.611 1350.49 459.514
85 0 65.0385 14.0225 912 123.578 1349.99 457.827
86 0 70.2315 15.8191 1111 118.769 1350.51 460.038
87 0 73.1424 13.9591 1021 123.116 1349.65 457.917
88 0 74.0962 12.6727 939 126.098 1350.33 455.914
89 0 77.113 12.8902 994 125.898 1349.26 455.575
90 0 80.0951 14.695 1177 121.198 1348.79 456.174
91 0 84.1451 15.5921 1312 120.218 1348.43 453.591
92 0 86.3424 14.1066 1218 121.409 1348.99 455.206
93 1 44.0635 11.3246 499 125.978 1347.91 474.569
94 0 48.0632 15.979 768 117.815 1346.25 473.595
95 0 47.0365 13.3301 627 122.585 1346.02 472.644
96 0 48.0368 11.6785 561 121.449 1342.43 474.57
97 0 53.3743 17.3866 928 109.992 1344.56 473.544
98 0 51.3831 14.8882 765 143.481 1347.47 471.071
99 0 56.1335 14.3408 805 115.576 1341.66 466.616
100 0 56.1701 13.6193 765 116.531 1341.56 466.319
101 0 59.3126 16.4383 975 111.925 1340.95 462.206
102 0 59.3126 16.4383 975 128.759 1340.95 462.217
103 0 63.0812 15.2026 959 115.826 1341.3 461.147
104 0 67.1515 13.8493 930 117.111 1341.24 460.135
105 0 69.1323 15.3619 1062 117.003 1341.6 456.272
106 0 69.1323 15.4197 1066 143.13 1342.6 456.212
107 0 69.275 14.6373 1014 123.379 1340.15 451.609
108 0 75.1963 13.7507 1034 123.73 1340.09 452.074
109 0 74.2526 12.7942 950 127.896 1340.1 449.702
110 1 37.0338 10.1799 377 127.724 1341.42 467.074
111 0 41.0568 15.1254 621 118.089 1341.68 464.805
112 0 43.11 12.6885 547 124.59 1342.39 462.499
113 0 41.0577 10.9845 451 130.783 1343.49 462.244
114 0 44.0634 12.2324 539 127.894 1345.09 461.054
115 0 44.0683 13.116 578 123.867 1344.61 461.471
116 0 42.1893 11.7802 497 128.922 1343.2 460.316
117 0 46.0791 13.3683 616 124.891 1344.65 462.183
118 0 48.3575 15.4888 749 120.555 1345.7 459.561
119 0 48.3575 15.5922 754 144.149 1346.68 459.692
120 0 50.0963 14.9512 749 123.32 1347.06 459.328
121 0 52.0988 15.0675 785 124.594 1346.64 457.628
122 0 53.1413 12.4385 661 128.868 1347.73 458.743
123 0 54.134 15.8311 857 124.32 1347.49 458.564
124 0 56.1442 13.59 763 127.636 1347.71 456.759
125 0 59.2866 16.4118 973 119.41 1347.78 461.037
126 0 60.1808 14.1075 849 125.485 1348.57 458.472
127 0 61.1472 15.062 921 123.687 1348.41 459.367
128 0 65.3773 13.8274 904 124.517 1347.73 460.854
129 0 65.2972 14.0282 916 125.59 1348.15 460.417
130 0 69.3575 12.5293 869 128.142 1346.85 460.142
131 0 68.1569 11.3562 774 130.162 1347.74 460.561
132 0 74.3863 15.2716 1136 121.364 1345.84 458.881
133 0 76.3401 18.5486 1416 115.759 1346.01 458.66
134 0 78.3591 14.3442 1124 123.425 1345.93 458.625
135 1 41.0312 11.4303 469 126.499 1345.27 476.119
136 0 43.1537 12.8147 553 121.987 1346.47 477.447
137 0 44.0333 14.5118 639 120.127 1343.71 473.858
138 0 47.1161 13.8594 653 119.521 1345.22 476.51
139 0 47.0753 12.788 602 121.809 1344.85 472.563
140 0 46.0616 14.5023 668 118.981 1344.13 471.969
141 0 47.05 13.9214 655 120.31 1343.76 473.528
142 0 49.0991 15.2752 750 118.427 1343.36 470.112
143 0 49.0991 15.2141 747 129.691 1342.33 470.064
144 0 53.1219 12.5937 669 123.625 1343.15 470.178
145 0 52.1272 14.9442 779 120.941 1341.47 464.488
146 0 55.0477 15.7136 865 118.842 1341.23 464.148
147 0 57.0898 13.5926 776 122.964 1340.26 463.36
148 0 56.2845 14.1069 794 122.997 1339.8 462.68
149 0 61.1982 16.9286 1036 116.996 1340.05 459.586
150 0 62.1228 15.0669 936 121.113 1337.99 457.62
151 0 62.1151 13.9097 864 123.929 1339.07 456.731
152 0 66.2919 15.5373 1030 119.505 1339.77 455.534
153 0 68.2264 14.5691 994 120.551 1340.29 454.671
154 0 73.0808 16.9128 1236 113.769 1341.49 455.659
155 0 72.2564 16.0678 1161 117.088 1340.57 450.822
156 0 75.3312 14.5093 1093 119.504 1342.01 448.532
157 0 75.1958 13.7242 1032 121.156 1342.76 446.036
158 0 80.2731 15.4473 1240 117.568 1343.04 443.777
159 0 80.2652 12.1223 973 123.366 1343.76 445.629
160 1 43.05 11.3821 490 121.145 1344.91 462.624
161 0 43.1594 12.4191 536 119.123 1344.53 461.877
162 0 44.3274 11.2346 498 118.865 1344.63 458.48
163 0 47.797 11.9882 573 115.551 1345.03 455.731
164 0 46.2211 16.3994 758 111.284 1345.91 461.831
165 0 46.2211 16.3129 754 129.79 1346.91 461.76
166 0 47.1834 13.7972 651 117.081 1347.02 460.306
167 0 47.1834 13.8184 652 141.876 1348.03 460.359
168 0 50.1743 10.2842 516 121.649 1346.47 461.921
169 0 50.1743 10.2244 513 151.285 1344.47 461.945
170 0 57.2362 16.8599 965 110.223 1348.3 463.148
171 0 57.2362 16.9298 969 132.688 1351.29 463.146
172 0 58.0758 10.0042 581 122.437 1348.3 464.492
173 0 62.0833 14.545 903 114.955 1346.89 463.461
174 0 64.2806 13.8611 891 116.257 1346.11 466.547
175 0 67.2556 13.7684 926 118.032 1346.05 461.884
176 0 69.169 13.6477 944 117.749 1344.71 463.998
177 0 71.2243 14.1665 1009 117.805 1345.72 463.35
178 0 73.1853 12.0243 880 121.811 1345.84 461.422
179 0 77.26 15.4284 1192 118.258 1343.86 456.082
180 0 78.1593 14.3937 1125 118.724 1343.7 458.153
181 0 84.2788 16.4929 1390 113.66 1342.89 460.823
182 0 84.2788 16.5047 1391 139.751 1341.9 460.912
183 1 44.0417 12.2157 538 116.314 1340.96 475.701
184 0 45.1153 10.8832 491 120.24 1340.68 474.183
185 0 45.0786 11.3801 513 120.212 1339.32 472.4
186 0 46.1436 13.523 624 115.324 1338.33 470.657
187 0 48.2453 14.2812 689 115.942 1339.25 467.866
188 0 49.1146 12.8679 632 118.726 1338.35 467.299
189 0 52.2555 14.1229 738 115.31 1338.24 467.244
190 0 49.2089 11.4004 561 121.913 1337.42 465.33
191 0 54.1851 12.4019 672 118.305 1336.84 464.534
192 0 54.1851 12.4573 675 136.596 1335.85 464.563
193 0 57.2695 13.2706 760 115.212 1336.63 462.746
194 0 61.224 16.4805 1009 109.011 1339.98 458.111
195 0 63.0662 11.813 745 116.874 1340.05 456.397
196 0 64.0546 13.1919 845 115.525 1339.8 456.193
197 0 66.2202 12.5037 828 116.246 1340 455.274
198 0 67.3019 13.9372 938 115.299 1341.05 450.666
199 0 69.1745 16.4656 1139 111.648 1341.6 446.948
200 0 73.0977 14.8295 1084 114.579 1342.04 448.156
201 0 74.214 13.1107 973 117.454 1341.86 447.521
202 0 77.4058 14.0687 1089 115.424 1341.86 447.504
203 1 43.1444 8.96987 387 117.755 1341.96 465.08
204 0 41.0804 11.5383 474 113.667 1343.87 464.502
205 0 45.1352 10.3688 468 113.951 1345.2 465.962
206 0 45.1209 10.5051 474 140.224 1345.15 465.928
207 0 47.0611 14.2581 671 110.52 1346.01 464.583
208 0 47.0873 13.7192 646 112.585 1346.78 462.324
209 0 52.0824 14.9763 780 106.206 1347.81 463.52
210 0 52.3376 13.2601 694 110.859 1348.31 463.347
211 0 55.1686 13.6853 755 108.645 1347.21 465.723
212 0 56.2737 14.4828 815 108.658 1347.1 464.519
213 0 55.632 12.9602 721 112.01 1346.93 464.354
214 0 58.2699 15.7543 918 106.668 1347.07 466.93
215 0 60.1326 14.2851 859 109.615 1348.38 466.031
216 0 61.3248 11.8712 728 112.696 1348.45 467.376
217 0 63.2599 13.3892 847 111.602 1348.27 462.214
218 0 67.2416 15.6897 1055 107.874 1347.27 463.521
219 0 68.2718 15.3065 1045 110.187 1347.51 463.66
220 0 69.0769 13.9699 965 111.699 1348.56 466.616
221 0 72.1728 14.3683 1037 117.391 1346.58 461.247
222 0 73.1958 12.0635 883 122.054 1346.76 463.477
223 0 77.4628 16.6403 1289 115.015 1343.3 459.148
224 0 78.2884 12.2879 962 122.964 1341.39 460.632
225 0 84.4007 15.0236 1268 116.655 1340.09 459.539
226 0 86.4095 14.6859 1269 118.942 1338.97 454.935
227 1 43.0346 9.17867 395 119.195 1338.1 478.035
228 0 44.0564 12.711 560 112.779 1336.76 474.316
229 0 46.1411 16.7096 771 104.693 1337.25 471.331
230 0 48.1759 13.2016 636 108.69 1338.32 473.838
231 0 49.1799 15.5551 765 107.924 1338.57 473.345
232 0 51.1649 15.2057 778 107.643 1337.57 473.144
233 0 54.1617 14.2167 770 109.342 1337.55 469.748
234 0 55.154 14.5774 804 109.05 1338.17 466.502
235 0 56.1629 15.4194 866 106.791 1337.37 468.47
236 0 56.2599 14.2019 799 110.478 1338.28 465.048
237 0 55.1696 13.4676 743 113.061 1337.6 462.104
238 0 59.2512 12.1854 722 113.395 1337.29 462.492
239 0 59.2031 13.1074 776 113.09 1338.06 458.995
240 0 64.1532 20.4199 1310 100.186 1336.66 459.322
241 0 64.2325 13.311 855 112.064 1338.86 453.897
242 0 65.1977 8.86535 578 117.633 1339.42 457.827
243 0 68.2036 15.3511 1047 110.2 1338.71 452.051
244 0 68.1962 10.6458 726 117.858 1339.92 450.099
245 0 73.2443 16.9569 1242 106.016 1339.52 452.576
246 0 74.2359 13.6592 1014 112.94 1341.89 450.652
247 0 76.3402 14.3044 1092 111.939 1341.1 447.52
248 0 78.2062 7.71038 603 117.927 1342.43 453.04
249 0 78.2062 7.60809 595 142.497 1343.43 453.108
250 0 83.1472 13.9512 1160 112.722 1341.48 444.464
251 0 89.3129 14.7347 1316 110.939 1343.09 446.157
252 0 90.4264 13.0825 1183 116.325 1344.51 443.046
253 0 94.2073 12.9077 1216 116.32 1345.63 441.78
254 0 96.1864 14.5759 1402 114.96 1346.08 436.581
255 0 101.493 15.0158 1524 113.135 1344.43 438.848
256 0 102.229 16.3848 1675 111.916 1345.76 438.134
257 0 106.213 13.2564 1408 117.2 1345.42 437.668
258 0 110.615 19.3373 2139 107.213 1346.08 438.076
259 1 58.2091 12.833 747 110.257 1346.53 467.38
260 0 61.1713 17.6226 1078 103.855 1346.09 463.473
261 0 64.1965 14.9541 960 107.577 1345.07 466.884
262 0 64.0837 14.3406 919 111.17 1345.32 465.203
263 0 67.1385 17.3224 1163 106.552 1344.69 464.278
264 0 68.3341 14.5023 991 111.905 1342.53 465.285
265 0 71.2463 15.4815 1103 109.395 1344.38 463.792
266 0 70.2865 14.2417 1001 111.713 1342.9 464.009
267 0 73.3007 14.5974 1070 114.861 1343.65 459.146
268 0 76.2363 15.0847 1150 113.237 1341.91 459.412
269 0 78.3963 15.0645 1181 112.967 1341.37 461.862
270 0 82.4679 15.7273 1297 112.802 1340.14 456.142
271 0 83.4159 16.7954 1401 111.767 1339.73 453.435
272 0 84.5096 12.3655 1045 118.389 1338.34 453.139
273 0 92.284 14.4445 1333 110.688 1339.1 451.391
274 0 92.267 12.2796 1133 115.748 1338.18 449.002
275 1 51.2245 14.9147 764 107.848 1338.05 468.918
276 0 55.1225 15.1481 835 106.199 1337.43 468.492
277 0 54.2564 12.3119 668 113.448 1336.13 461.391
278 0 57.1987 13.8115 790 111.405 1336.53 461.787
279 0 60.1242 13.7382 826 111.344 1335.12 461.22
280 0 58.1113 14.9196 867 110.645 1335.76 460.403
281 0 63.1187 15.7481 994 109.673 1334.22 456.121
282 0 64.0728 13.1569 843 114.119 1335.48 453.779
283 0 65.0627 12.803 833 114.112 1336.12 454.886
284 0 70.2042 15.9677 1121 109.551 1336.32 452.101
285 0 71.1247 15.5783 1108 111.155 1336.07 446.088
286 0 74.1876 15.7439 1168 109.124 1337.02 446.718
287 0 76.1838 15.9351 1214 109.285 1338.09 442.89
288 0 78.1182 17.4991 1367 107.097 1339.07 443.189
289 0 83.2083 13.8928 1156 113.471 1340.44 442.26
290 0 84.2205 15.8394 1334 110.774 1340.55 438.267
291 1 45.07 13.9561 629 107.297 1340.44 458.677
292 0 43.0389 10.5254 453 114.011 1342.06 459.676
293 0 46.0706 13.0886 603 107.887 1343.57 461.766
294 0 46.1396 11.3569 524 112.504 1345.23 460.13
295 0 48.1244 12.7378 613 105.525 1343.98 459.998
296 0 48.0516 14.7966 711 104.083 1344.8 458.675
297 0 48.0516 14.8798 715 126.934 1345.78 458.629
298 0 50.0495 10.6095 531 111.501 1346.96 459.817
299 0 56.0624 22.5463 1264 94.2223 1348.73 458.657
300 0 55.0633 14.4016 793 105.491 1349.79 461.237
301 0 59.1619 15.0266 889 104.291 1349.05 462.003
302 0 59.1376 17.6199 1042 101.745 1349.11 460.091
303 0 59.1866 14.0403 831 107.096 1349.04 463.715
304 0 62.0544 13.8266 858 108.076 1348.6 463.393
305 0 62.0544 13.9555 866 140.425 1348.6 463.415
306 0 66.0713 14.6054 965 106.359 1347.82 464.78
307 0 72.2021 16.5508 1195 104.607 1346.47 462.512
308 0 71.2399 14.1494 1008 109.728 1346.69 461.837
309 0 75.0822 17.6473 1325 102.368 1345.66 464.955
310 0 76.272 15.1956 1159 110.94 1345.69 457.42
311 0 76.272 15.0776 1150 141.013 1344.69 457.302
312 1 43.1228 11.3861 491 109.727 1344.62 478.802
313 0 45.073 15.9297 718 103.964 1344.23 474.762
314 0 46.0763 13.7815 635 105.654 1344.29 475.617
315 0 45.232 14.702 665 107.382 1342.95 472.128
316 0 46.1244 12.488 576 108.832 1342.74 470.733
317 0 48.2346 13.1855 636 107.31 1340.82 468.569
318 0 49.0883 14.1785 696 105.806 1339.91 467.879
319 0 53.1791 15.9649 849 101.23 1340.02 468.55
320 0 54.4516 12.6534 689 108.505 1339.49 464.042
321 0 54.4239 14.0747 766 130.116 1339.52 465.189
322 0 58.2738 11.875 692 108.238 1339.58 466.046
323 0 58.4381 13.1763 770 106.934 1339.1 463.536
324 0 59.1671 12.9464 766 109.419 1338.86 458.42
325 0 61.1887 13.9568 854 109.961 1339.65 454.659
326 0 63.4409 16.0622 1019 106.854 1340.62 452.664
327 0 65.2095 19.8744 1296 102.263 1340.79 448.775
328 0 68.275 14.4709 988 109.889 1341.25 449.458
329 0 70.1888 12.1814 855 117.954 1340.5 448.418
330 1 37.0898 8.8434 328 114.216 1340.93 466.997
331 0 39.1059 11.0725 433 112.838 1343.35 464.538
332 0 39.1126 9.71554 380 118.392 1344.48 460.508
333 0 39.0466 10.5259 411 112.766 1343.78 461.939
334 0 40.1151 14.259 572 108.021 1343.08 461.467
335 0 40.0614 15.2266 610 105.349 1343.71 464
336 0 42.0822 12.7132 535 111.129 1344.2 461.981
337 0 42.0822 12.6657 533 135.891 1345.19 462.088
338 0 42.0743 11.7411 494 113.739 1344.32 462.447
339 0 43.0874 12.4862 538 112.491 1346.62 461.827
340 0 46.0453 14.8115 682 108.796 1347.36 461.925
341 0 48.0456 14.2989 687 109.771 1349.21 461.447
342 0 48.0759 14.0403 675 110.788 1348.81 461.446
343 0 48.0759 14.1859 682 130.808 1347.83 461.548
344 0 51.114 12.3254 630 111.886 1350.37 464.898
345 0 55.07 13.5464 746 108.776 1349.43 466.306
346 0 55.161 11.4392 631 115.071 1348.29 464.128
347 0 53.2003 13.1766 701 112.97 1349.06 466.484
348 0 57.1682 12.2796 702 114.319 1350.45 463.162
349 0 60.2279 13.1501 792 111.9 1348.94 465.663
350 0 61.0723 10.8396 662 117.077 1348.04 460.87
351 0 65.0603 19.4896 1268 102.689 1348.03 465.22
352 0 66.077 13.6053 899 111.692 1348.88 465.01
353 0 68.3111 14.4925 990 111.094 1348.22 461.165
354 0 71.1987 14.0452 1000 111.008 1347.73 461.702
355 0 73.2042 13.4009 981 112.868 1346.17 457.89
356 0 76.1608 15.3491 1169 109.382 1344.8 457.107
357 0 80.3069 15.9015 1277 107.865 1344.41 457.458
358 1 42.194 10.5465 445 115.838 1345.4 473.948
359 0 40.0976 12.4446 499 114.689 1342.62 472.561
360 0 40.0976 12.4696 500 138.034 1340.6 472.578
361 0 40.0976 12.4446 499 137.583 1338.59 472.607
362 0 43.0841 13.4388 579 114.774 1340.41 469.34
363 0 47.1974 14.0686 664 112.47 1341.11 467.044
364 0 46.0949 12.561 579 115.815 1338.78 464.494
365 0 50.1145 14.1676 710 111.932 1339.16 462.958
366 0 46.06 12.0712 556 116.444 1340.6 464.446
367 0 47.1019 14.7552 695 142.085 1341.37 462.332
368 0 50.0191 11.0958 555 117.897 1339.5 459.578
369 0 54.1979 16.0154 868 109.225 1340.11 457.363
370 0 57.2025 17.6915 1012 105.637 1340.17 457.94
371 0 54.2563 14.3209 777 112.716 1339.68 455.512
372 0 58.0511 14.6078 848 110.991 1340.39 454.593
373 0 57.2439 13.6783 783 112.752 1342.25 452.356
374 0 61.1184 15.4454 944 109.811 1342.31 449.873
375 0 64.2827 12.9584 833 114.297 1340.45 447.625
376 0 67.3095 15.347 1033 111.561 1342.89 445.479
377 0 68.2038 13.2837 906 114.121 1341.8 447.264
378 0 68.2038 13.313 908 158.409 1340.82 447.323
379 0 73.2244 15.9237 1166 110.804 1347.36 444.23
380 0 75.3433 14.7989 1115 112.271 1347.56 444.701
381 0 76.4102 15.1681 1159 113.087 1347.36 441.148
382 0 81.4722 15.1708 1236 111.596 1349.25 441.805
383 0 82.5392 12.3699 1021 116.708 1349.19 441.379
384 0 84.4567 15.9845 1350 111.357 1349.83 440.861
385 0 85.2623 12.5026 1066 116.962 1348.89 439.573
386 1 47.0438 14.4546 680 108.332 1349.88 463.206
387 0 50.0911 12.4573 624 111.721 1351.28 460.715
388 0 51.0261 11.9351 609 110.478 1351.94 463.463
389 0 51.0261 11.8371 604 141.161 1352.96 463.397
390 0 54.0767 16.5506 895 103.353 1350.73 464.36
391 0 53.1039 12.2778 652 111.158 1351.26 462.477
392 0 59.1903 15.5262 919 103.481 1351.32 466.062
393 0 57.1666 11.5452 660 111.536 1349.99 464.445
394 0 61.2279 14.2255 871 106.907 1348.51 462.751
395 0 64.2544 17.7264 1139 102.438 1348.09 459.947
396 0 66.1043 14.704 972 105.514 1348.96 462.302
397 0 68.191 14.6647 1000 106.089 1348.5 462.04
398 0 68.191 14.7673 1007 142.946 1347.47 461.912
399 0 71.2975 11.9219 850 111.531 1346.16 461.542
400 0 76.2495 17.6788 1348 101.752 1345.46 458.778
401 0 79.3175 18.0036 1428 99.4251 1345.67 463.334
402 0 75.1755 11.7991 887 112.324 1345.03 453.766
403 0 80.1792 14.1059 1131 107.772 1344.18 455.317
404 0 86.2911 20.7901 1794 99.223 1343.93 446.714
405 0 91.2792 14.8993 1360 107.23 1343.62 450.46
406 0 92.3912 21.2683 1965 99.0743 1342.62 448.725
407 1 51.2558 12.4279 637 114.319 1343.15 463.611
408 0 51.2558 12.5059 641 155.721 1343.14 463.529
409 0 55.0971 13.5216 745 115.272 1338.03 461.823
410 0 58.099 17.0399 990 108.183 1339.41 458.755
411 0 58.0432 12.9903 754 116.777 1337.38 456.781
412 0 61.2389 15.9212 975 110.102 1338.81 458.776
413 0 63.0838 13.807 871 114.579 1339.42 456.8
414 0 64.1515 14.2319 913 114.286 1339.77 454.854
415 0 66.1796 18.1476 1201 108.792 1340.54 454.126
416 0 68.3957 14.1237 966 116.317 1340.62 450.131
417 0 72.2829 17.7082 1280 110.731 1342.4 444.923
418 0 72.2829 17.6114 1273 140.991 1343.39 444.895
419 0 74.27 14.3665 1067 117.871 1344.67 442.093
420 0 77.5183 14.6804 1138 116.687 1344.49 441.942
421 0 80.2703 16.7185 1342 113.13 1344.58 441.958
422 0 81.2772 13.4601 1094 118.964 1346.8 441.368
423 0 83.4435 11.8284 987 121.942 1346.73 438.303
424 0 83.4435 11.8523 989 163.038 1346.74 438.343
425 0 89.4486 14.9695 1339 115.679 1348.24 431.362
426 0 92.3311 14.8487 1371 113.947 1349.39 437.06
427 0 97.24 13.7392 1336 117.479 1349.41 432.106
428 0 101.262 16.6993 1691 112.716 1348.54 426.605
429 0 102.294 12.4446 1273 118.352 1350.12 433.54
430 0 109.54 14.1866 1554 115.155 1350.4 430.115
431 1 51.1088 12.3462 631 106.301 1352.17 461.425
432 0 51.1088 12.2288 625 131.016 1353.12 461.21
433 0 54.1875 12.4198 673 110.695 1350.27 464.391
434 0 56.083 14.8352 832 107.2 1350.98 464.346
435 0 60.2358 13.1151 790 108.941 1350.19 464.319
436 0 56.2105 12.2931 691 112.949 1350.12 464.203
437 0 63.236 15.798 999 105.979 1349.6 460.29
438 0 65.4643 15.7338 1030 105.019 1349.94 463.398
439 0 68.1453 13.0456 889 108.82 1349.11 463.724
440 0 66.102 12.9346 855 111.537 1348.37 459.227
441 0 70.3044 14.935 1050 108.071 1348 460.159
442 0 69.088 13.6348 942 111.611 1346.59 459.879
443 0 73.0951 14.6932 1074 109.476 1346.96 460.438
444 0 74.1254 16.0269 1188 108.739 1346.54 456.822
445 0 81.106 22.1315 1795 98.9309 1345.53 455.515
446 0 81.0875 12.135 984 113.236 1344.67 454.404
447 0 83.2717 15.1072 1258 109.754 1344.35 447.112
448 0 86.2956 12.7469 1100 117.18 1343.59 447.475
449 0 86.2956 12.6658 1093 144.446 1341.6 447.448
450 0 90.2154 13.8446 1249 116.159 1342.89 440.729
451 0 95.1233 13.9608 1328 114.516 1341.84 443.201
452 0 96.2978 15.5248 1495 112.369 1341.49 437.998
453 0 102.576 14.6623 1504 113.303 1340.81 438.722
454 0 106.436 16.2351 1728 109.682 1341.31 440.052
455 0 109.322 14.5624 1592 111.452 1340.99 436.732
456 0 107.287 11.2875 1211 116.593 1339.99 436.95
457 1 62.0709 11.068 687 110.287 1341.49 456.297
458 0 66.068 11.4428 756 110.31 1338.16 454.016
459 0 66.1029 12.3595 817 107.603 1339.43 453.46
460 0 69.2428 13.3443 924 102.342 1339.9 447.148
461 0 74.4137 12.9008 960 100.924 1340.89 450.302
462 0 73.2166 10.4484 765 104.531 1341.38 446.345
463 0 79.397 11.3354 900 103.109 1340.88 449.01
464 0 82.4316 13.9874 1153 98.634 1342.37 445.84
465 0 83.2319 10.4167 867 102.104 1342.71 448.21
466 0 83.2319 10.2004 849 125.723 1343.69 448.18
467 0 90.5761 13.37 1211 99.2221 1343.12 437.633
468 0 90.5761 13.2044 1196 110.86 1342.12 437.757
469 0 91.4188 11.1793 1022 107.948 1343.75 444.521
470 0 97.199 10.0721 979 105.105 1344.96 450.264
471 0 101.431 12.087 1226 106.944 1346.09 437.971
472 0 104.472 13.2954 1389 105.447 1345.41 434.224
473 0 108.229 12.6399 1368 101.185 1347.13 439.823
474 1 57.258 12.2079 699 100.119 1347.08 460.532
475 0 61.3044 10.0645 617 102.089 1347.18 466.003
476 0 61.4465 11.8314 727 100.036 1347.06 464.609
477 0 65.2772 12.9601 846 100.56 1346.88 465.764
478 0 64.4375 12.4462 802 102.551 1346.8 468.18
479 0 68.3453 15.4656 1057 97.3378 1344.88 462.86
480 0 71.2592 14.9595 1066 98.454 1345.04 466.791
481 0 70.2006 9.84322 691 104.58 1344.85 468.203
482 0 72.3665 10.0046 724 104.006 1343.98 465.859
483 0 72.3665 9.97699 722 139.504 1342.96 465.677
484 0 81.4702 14.5575 1186 97.9359 1341.23 465.97
485 0 81.4586 15.8731 1293 96.7889 1340.96 463.442
486 0 82.2705 14.5739 1199 98.3828 1340 461.658
487 0 87.3216 20.8769 1823 91.5107 1339.66 460.281
488 0 90.2964 19.3474 1747 92.5902 1339.31 456.815
489 0 91.2677 11.9867 1094 100.762 1338.28 455.785
490 0 91.2677 12.0196 1097 123.17 1337.26 455.578
491 0 96.3104 13.5084 1301 100.45 1337.58 450.992
492 0 99.3374 13.3182 1323 100.992 1336.74 445.627
493 0 104.239 15.7523 1642 97.3855 1336.19 451.269
494 0 106.542 12.8963 1374 101.721 1335.76 446.621
495 0 110.391 13.6968 1512 100.393 1335.05 444.219
496 0 110.391 13.6877 1511 123.408 1335.08 444.388
497 1 60.4379 11.3505 686 103.378 1336.04 462.528
498 0 67.2466 13.8446 931 101.315 1334.5 461.657
499 0 67.2909 13.2113 889 104.214 1334.84 457.845
500 0 70.5134 18.3653 1295 97.8981 1335.3 458.978
501 0 71.3898 11.4022 814 107.929 1335.56 455.697
502 0 73.4137 14.7929 1086 106.004 1336.08 451.877
503 0 77.3682 15.4456 1195 103.723 1336.12 448.877
504 0 79.5892 14.512 1155 105.348 1337.69 447.383
505 0 81.2547 16.5406 1344 103.049 1337.53 442.888
506 0 91.4724 15.0865 1380 103.427 1338.06 447.362
507 0 88.9058 16.0844 1430 102.822 1339.41 446.414
508 0 91.0156 15.2611 1389 105.382 1340.09 436.428
509 0 94.8203 14.1425 1341 106.852 1340.4 436.531
510 0 97.8738 16.1943 1585 103.313 1341.3 437.388
511 0 99.5121 12.9934 1293 104.229 1341.29 438.927
512 1 54.5784 17.8459 974 93.6509 1341.48 462.508
513 0 53.696 13.744 738 100.637 1343.27 458.721
514 0 50.5464 8.11136 410 109.259 1343.32 459.059
515 0 58.2374 14.9904 873 98.7617 1343.34 463.671
516 0 59.2883 17.3896 1031 97.0301 1344.29 460.747
517 0 62.2641 13.0734 814 102.613 1344.2 462.077
518 0 66.3949 14.715 977 98.5486 1344.64 468.641
519 0 68.2152 17.9579 1225 97.062 1344.39 463.736
520 0 67.3489 13.3039 896 104.568 1343.18 462.119
521 0 72.1951 14.9179 1077 101.626 1343.26 464.847
522 0 75.4087 17.8494 1346 98.1887 1342.7 464.189
523 0 74.2653 14.4617 1074 104.421 1342.1 465.911
524 0 76.286 13.8689 1058 104.922 1340.91 464.862
525 0 77.2083 14.1824 1095 105.847 1341.18 460.684
526 0 82.3411 15.7516 1297 103.288 1340.65 463.453
527 0 83.2093 13.9888 1164 106.433 1339.73 464.496
528 0 86.272 15.3584 1325 104.488 1340.15 461.459
529 0 89.3461 15.5127 1386 106.105 1339.6 457.544
530 0 90.3763 13.9638 1262 108.319 1337.92 456.222
531 0 95.6801 16.4193 1571 105.017 1337.21 453.266
532 0 95.3529 13.8433 1320 109.573 1336.86 455.088
533 0 100.212 14.6789 1471 108.171 1336.1 451.54
534 0 106.533 16.0889 1714 106.296 1336.18 449.352
535 1 56.1102 12.5824 706 107.448 1334.91 471.861
536 0 57.0806 15.7672 900 101.432 1337.47 469.027
537 0 60.139 14.8489 893 103.446 1336.53 467.657
538 0 59.0714 12.9504 765 105.49 1335.76 468.292
539 0 61.1593 10.9223 668 106.376 1336.88 469.82
540 0 63.1202 11.6761 737 106.988 1335.47 463.634
541 0 68.4207 17.2901 1183 98.8631 1335.58 462.541
542 0 71.0729 12.452 885 104.44 1336.04 461.782
543 0 75.1662 14.754 1109 101.959 1336.69 456.768
544 0 77.1389 14.2211 1097 102.553 1337.44 456.55
545 0 79.176 17.0254 1348 100.983 1338.25 452.459
546 0 82.2525 14.9661 1231 101.862 1338.5 453.348
547 0 82.2525 14.8445 1221 133.713 1337.5 453.284
548 0 83.1006 12.2863 1021 107.862 1338.94 442.6
549 0 86.1537 13.9402 1201 105.266 1339.51 444.322
550 0 91.1542 17.0919 1558 100.909 1339.59 439.698
551 0 93.2515 13.0507 1217 105.112 1341.03 442.551
552 1 53.1191 10.2411 544 108.711 1341.09 463.167
553 0 54.0863 14.5878 789 102.262 1340.81 462.382
554 0 57.3926 18.8003 1079 94.8184 1341.1 466.759
555 0 60.0806 16.1949 973 96.2282 1341.95 462.172
556 0 61.1386 12.9215 790 102.337 1343.97 462.797
557 0 61.1729 13.2575 811 102.73 1344.89 457.895
558 0 63.0841 12.7925 807 103.848 1346.09 460.31
559 0 68.2448 14.829 1012 99.9931 1345.45 461.445
560 0 67.1353 12.4525 836 104.614 1344.93 456.538
561 0 76.3648 19.0271 1453 99.5196 1345.78 456.257
562 0 73.2062 12.9361 947 109.608 1345.17 457.031
563 0 75.2719 13.883 1045 109.095 1345.34 457.095
564 0 79.1319 14.0778 1114 108.236 1344.63 459.19
565 0 82.3156 16.8498 1387 104.136 1344.21 458.226
566 0 85.3815 14.5348 1241 107.763 1344.6 455.826
567 0 89.3336 14.2052 1269 107.868 1344.28 457.52
568 0 90.3606 15.9029 1437 106.753 1344.18 456.31
569 0 93.3743 15.0684 1407 107.473 1341.05 455.661
570 0 94.4064 12.4144 1172 112.235 1341.11 451.709
571 0 99.4974 15.0255 1495 108.936 1341.01 454.558
572 0 99.4974 14.915 1484 135.65 1341.02 454.662
573 1 53.1386 9.3529 497 113.211 1340.34 474.189
574 0 50.2887 12.3487 621 107.844 1339.42 469.614
575 0 56.0497 15.5755 873 104.678 1336.3 471.367
576 0 58.0329 11.3212 657 110.487 1337.91 471.482
577 0 60.0518 14.2044 853 105.411 1338.11 471.032
578 0 62.173 13.2373 823 109.157 1337.96 464.684
579 0 61.1321 11.8105 722 110.422 1338.29 464.514
580 0 65.1319 14.3248 933 105.732 1339.02 463.458
581 0 65.1605 9.80656 639 113.603 1337.73 460.983
582 0 72.2347 14.3421 1036 105.629 1337.64 459.75
583 0 72.2347 14.439 1043 141.327 1337.63 459.575
584 0 76.1769 15.3327 1168 101.575 1338.97 462.67
585 0 75.2263 11.2461 846 109.584 1339.11 455.527
586 0 78.1045 13.3667 1044 105.662 1339.16 454.67
587 0 79.2282 15.0451 1192 104.104 1339.73 450.325
588 0 83.1787 16.4826 1371 101.468 1340.74 450.283
589 0 82.2138 11.0322 907 111.122 1340.4 445.537
590 0 87.2298 13.2982 1160 107.626 1339.78 445.003
591 0 92.1028 15.2004 1400 103.659 1339.68 444.605
592 0 89.2047 12.1518 1084 109.503 1342.02 442.174
593 0 89.2047 12.1182 1081 134.135 1345.02 442.253
594 0 99.2438 15.4468 1533 101.217 1342.23 444.644
595 0 100.13 11.8946 1191 106.037 1342.92 443.411
596 0 104.349 13.7807 1438 104.695 1342.31 435.951
597 0 104.349 13.8765 1448 132.581 1342.32 435.869
598 1 55.3379 12.7038 703 104.309 1344.85 457.797
599 0 60.2675 12.7598 769 101.113 1345.1 462.443
600 0 62.2517 15.5658 969 98.7626 1345.76 456.706
601 0 61.1369 11.7605 719 102.737 1346.03 462.273
602 0 61.1369 11.7769 720 123.374 1346.04 462.307
603 0 65.2745 12.5777 821 99.7442 1345.96 463.681
604 0 65.3031 11.7759 769 103.105 1345.92 460.897
605 0 70.29 14.2268 1000 98.969 1345.82 461.092
606 0 70.0958 9.40142 659 103.467 1346.13 467.404
607 0 71.3608 10.2858 734 102.914 1344.69 465.933
608 0 72.29 10.2504 741 102.942 1345.48 467.385
609 0 78.3649 13.6286 1068 98.0272 1344.79 463.735
610 0 80.2058 8.77742 704 103.469 1344.08 466.719
611 0 82.3453 11.3182 932 101.18 1342.79 461.251
612 0 82.3461 10.8566 894 131.686 1341.86 462.038
613 0 84.4804 10.2272 864 100.575 1343.31 466.557
614 0 84.4804 8.84229 747 122.201 1345.49 470.199
615 1 52.2284 16.2172 847 93.2928 1342.31 476.418
616 0 53.1044 13.2569 704 97.6349 1341.05 475.514
617 0 53.1279 12.3099 654 99.5979 1340.07 470.83
618 0 53.1279 12.3099 654 119.65 1339.07 470.83
619 0 55.1354 14.2377 785 99.5745 1338.7 471.683
620 0 54.1184 11.8075 639 103.282 1338.79 473.595
621 0 60.1184 11.3443 682 103.717 1339.37 468.809
622 0 59.1479 9.77212 578 104.678 1338.04 472.026
623 0 63.2599 11.682 739 102.889 1338.14 467.517
624 0 71.2335 15.4422 1100 97.2564 1337.41 463.865
625 0 70.2617 13.9336 979 99.5107 1337.22 464.017
626 0 71.0891 9.12938 649 106.723 1338.7 462.475
627 0 70.153 10.3346 725 106.945 1337.87 457.204
628 0 73.2791 12.6093 924 105.499 1338.38 452.88
629 0 75.2074 9.85275 741 108.188 1338.32 454.733
630 0 79.2761 15.2505 1209 99.9793 1337.45 451.466
631 0 79.2761 15.2631 1210 127.972 1337.41 451.597
632 0 85.1284 11.3711 968 107.423 1339.6 449.286
633 0 89.369 12.4316 1111 104.789 1337.9 448.844
634 1 49.2273 12.8181 631 103.685 1339.74 463.014
635 0 50.265 13.9859 703 98.6245 1338.6 465.898
636 0 51.285 11.4848 589 103.368 1339.94 463.289
637 0 52.2159 14.0187 732 103.253 1341.77 462.825
638 0 56.0791 13.1778 739 106.099 1342.84 464.25
639 0 51.1543 12.433 636 110.664 1343.16 462.725
640 0 59.0937 13.9609 825 106.194 1343.93 462.424
641 0 62.1897 15.4045 958 104.186 1344.37 456.894
642 0 64.2702 9.83348 632 111.177 1345.92 461.033
643 0 64.0556 11.2246 719 109.263 1346.32 460.837
644 0 67.1128 11.0262 740 110.305 1346.35 457.116
645 0 68.0737 13.5735 924 106.11 1346.3 459.58
646 0 70.1932 14.1894 996 106.012 1346.03 455.34
647 0 72.1095 12.4256 896 107.825 1345.56 461.231
648 0 74.2145 16.5332 1227 101.322 1345.97 461.683
649 0 76.1486 10.9785 836 109.226 1345.96 459.565
650 0 79.1464 13.4055 1061 106.126 1345.98 456.553
651 0 82.1333 15.3044 1257 103.504 1345.01 453.71
652 0 84.1952 11.022 928 109.732 1345.91 454.145
653 1 43.0597 9.73068 419 106.401 1345.71 478.401
654 0 44.0468 8.51367 375 108.264 1344.87 478.997
655 0 47.3409 12.8219 607 102.547 1342.17 472.394
656 0 48.1231 11.4914 553 104.163 1343.43 472.503
657 0 48.0481 12.2377 588 106.226 1342.7 478.265
658 0 51.167 15.7523 806 101.423 1341.49 473.347
659 0 54.3407 12.4952 679 105.003 1341.89 475.186
660 0 54.4137 12.6806 690 103.194 1339.58 476.777
661 0 54.1551 12.2611 664 105.967 1339.51 472.358
662 0 56.1204 13.5958 763 104.679 1339.91 469.548
663 0 60.1275 17.6625 1062 97.5603 1339.47 465.053
664 0 62.2455 15.1336 942 102.41 1338.79 467.893
665 0 60.2412 13.2467 798 128.604 1337.82 469.962
666 0 63.3043 15.7651 998 102.664 1338.14 462.867
667 0 66.211 16.1152 1067 102.571 1338.2 462.267
668 0 66.078 14.0289 927 105.299 1336.94 460.029
669 0 67.2943 13.7753 927 105.764 1337.79 460.115
670 0 71.3 13.899 991 105.024 1338.24 456.586
671 0 72.3104 11.5198 833 104.975 1338.09 456.319
672 0 73.275 14.1112 1034 102.247 1338.22 455.196
673 0 79.3276 12.8455 1019 103.81 1338.3 448.982
674 0 82.2164 18.9987 1562 96.4129 1338.75 448.324
675 0 82.3517 12.4223 1023 105.509 1339.14 445.937
676 0 88.2653 13.0176 1149 104.431 1339.67 447.733
677 0 90.3415 12.652 1143 104.905 1340.27 446.78
678 0 96.369 17.1321 1651 98.8177 1340.36 446.248
679 0 98.3517 14.5702 1433 103.808 1341.73 441.208
680 1 51.1061 9.5292 487 108.657 1342.88 466.002
681 0 51.1061 9.39223 480 133.644 1343.88 466.04
682 0 56.2658 12.6009 709 104.554 1342.39 464.258
683 0 55.1646 9.53511 526 110.629 1342.7 463.759
684 0 59.1476 13.2212 782 105.514 1344.03 461.379
685 0 58.1482 10.7312 624 110.401 1344.95 462.314
686 0 62.4237 15.5069 968 102.898 1346.08 463.156
687 0 63.1656 12.016 759 109.291 1345 461.344
688 0 63.1656 12.0319 760 133.345 1344.02 461.487
689 0 67.2698 11.0005 740 110.012 1345.45 462.462
690 0 72.1944 13.3667 965 105.727 1345.83 460.953
691 0 74.3123 12.6762 942 107.866 1344.36 454.997
692 0 78.306 13.4345 1052 106.061 1345.19 455.697
693 0 81.2771 11.3439 922 109.156 1345.15 452.495
694 0 81.2771 11.3439 922 137.767 1344.17 452.591
695 0 90.2057 13.2032 1191 105.5 1345.18 457.424
696 0 91.3966 13.1624 1203 106.993 1344.56 454.249
697 0 95.3662 13.9148 1327 106.601 1342.76 451.573
698 1 48.0872 9.08766 437 110.531 1344.68 477.943
699 0 52.062 10.3723 540 108.196 1342.63 477.026
700 0 57.1303 11.2025 640 106.144 1341.3 477.408
701 0 55.2005 10.7064 591 108.157 1339.81 476.169
702 0 56.133 10.9917 617 107.421 1340.94 475.452
703 0 61.0857 14.717 899 102.416 1341.33 471.342
704 0 62.222 14.4001 896 107.21 1340.92 469.802
705 0 62.1878 12.4783 776 111.054 1339.39 468.124
706 0 64.0999 12.6833 813 110.913 1339.17 466.74
707 0 67.1886 13.6481 917 108.601 1338.54 463.976
708 0 72.0923 16.9921 1225 102.593 1337.9 465.466
709 0 72.1288 14.8207 1069 106.848 1338.36 460.675
710 0 73.0454 15.0318 1098 107.125 1338.79 460.933
711 0 76.077 14.4459 1099 107.77 1338.48 457.786
712 0 79.0758 14.8592 1175 107.102 1338.41 457.586
713 0 78.1576 13.4472 1051 109.52 1337.38 458.458
714 0 84.0947 16.6241 1398 105.205 1339.33 452.701
715 0 83.1251 11.9819 996 114.138 1337.7 451.69
716 0 87.0899 14.973 1304 109.107 1339.37 445.893
717 0 91.3981 17.1995 1572 105.588 1339.09 444.562
718 0 94.0739 15.2114 1431 109.166 1339.98 445.17
719 0 96.1152 14.7843 1421 109.963 1339.32 442.384
720 0 98.1817 14.2389 1398 112.059 1341.07 439.232
721 0 101.283 15.3135 1551 110.639 1340.01 441.05
722 0 104.161 21.8701 2278 101.21 1340.62 438.245
723 0 107.263 14.4505 1550 110.67 1341.08 436.603
724 0 111.411 17.799 1983 104.962 1341.03 432.513
725 0 113.452 14.9138 1692 109.235 1342.08 430.525
726 1 62.1332 9.15774 569 109.571 1343.23 456.898
727 0 61.0912 12.3422 754 104.871 1344.09 452.903
728 0 67.1338 14.8509 997 99.5607 1343.82 453.379
729 0 69.0786 13.8104 954 98.7306 1344.38 462.2
730 0 68.2679 10.7371 733 104.172 1344.4 457.109
731 0 72.1456 11.352 819 103.186 1345.05 457.437
732 0 76.4425 12.2968 940 102.706 1343.53 453.854
733 0 78.3132 11.7732 922 103.703 1344.35 455.157
734 0 81.2353 12.8762 1046 102.843 1343.34 450.512
735 0 81.3106 12.5814 1023 104.755 1342.78 450.66
736 0 86.4608 14.0179 1212 103.222 1343.67 449.153
737 0 89.2532 14.1507 1263 102.979 1343.57 449.565
738 0 89.2532 14.1844 1266 119.875 1342.53 449.388
739 0 96.3023 14.4129 1388 103.734 1342.67 449.865
740 0 98.3739 12.1374 1194 109.756 1342.96 450.073
741 0 104.484 11.5424 1206 114.708 1342.43 453.918
742 1 54.0438 13.6186 736 105.863 1344.03 472.658
743 0 55.0721 12.2204 673 108.426 1342.57 476.75
744 0 56.1507 10.8102 607 111.433 1341.75 471.634
745 0 61.1486 14.2113 869 105.475 1341.39 471.511
746 0 62.0898 15.0749 936 104.19 1340.99 469.597
747 0 62.2663 12.4305 774 108.999 1339.69 466.123
748 0 62.2663 12.4305 774 124.129 1338.69 466.123
749 0 67.1778 13.5015 907 106.971 1338.98 465.465
750 0 69.336 15.8792 1101 104.154 1339 459.522
751 0 71.1125 12.4732 887 108.77 1338.27 460.676
752 0 74.3484 17.9695 1336 100.23 1337.96 458.623
753 0 77.4244 15.0728 1167 104.681 1338.22 454.42
754 0 77.1676 13.2309 1021 108.416 1339.12 453.53
755 0 78.1841 13.1612 1029 109.167 1337.82 451.688
756 0 80.1605 11.2524 902 112.428 1337.15 452.341
757 0 83.2792 11.4674 955 112.615 1338.23 448.353
758 0 87.1647 14.1112 1230 109.086 1338.4 448.728
759 0 90.2703 13.4596 1215 110.284 1339.24 443.438
760 0 95.2579 15.3163 1459 106.867 1338.49 440.878
761 0 95.1808 13.217 1258 110.692 1339.61 442.653
762 1 49.0481 10.398 510 112.555 1340.86 464.953
763 0 53.0528 10.7629 571 111.604 1342.12 464.636
764 0 53.0832 12.3391 655 110.831 1341.99 461.91
765 0 53.0795 10.8328 575 113.598 1344.27 459.117
766 0 54.3257 12.7196 691 110.052 1343.49 458.928
767 0 56.1754 10.2358 575 115.419 1344.15 459.148
768 0 60.0655 13.1523 790 115.444 1344.16 459.591
769 0 62.0693 13.1144 814 115.139 1345.32 460.448
770 0 64.0605 13.9087 891 113.457 1346.45 458.221
771 0 66.0796 12.5455 829 116.263 1346.48 457.037
772 0 65.1416 12.1735 793 119.184 1345.5 453.063
773 0 69.3146 13.2728 920 115.852 1346.55 457.716
774 0 71.0756 12.4656 886 117.582 1346.56 457.323
775 0 75.1308 17.4096 1308 108.146 1346.8 455.242
776 0 75.1935 11.743 883 118.911 1347.24 455.037
777 0 77.2072 11.4368 883 120.873 1346.72 453.738
778 0 81.099 12.8608 1043 114.876 1346.88 459.143
779 0 84.283 12.1733 1026 117.657 1346.71 456.284
780 0 85.0724 12.3542 1051 118.906 1346.36 452.232
781 0 91.1638 12.3953 1130 117.602 1346.04 454.991
782 0 94.2045 14.649 1380 114.354 1345.24 453.557
783 0 98.2451 15.4613 1519 112.659 1345.63 453.14
784 0 98.2451 15.5631 1529 134.946 1345.65 453.216
785 1 52.0439 7.85876 409 121.78 1343.62 474.455
786 0 55.1816 11.3987 629 116.413 1342.9 472.971
787 0 55.1816 11.3987 629 138.682 1342.9 472.971
788 0 56.6186 10.7738 610 113.926 1340.17 463.856
789 0 60.7098 12.9468 786 115.444 1338.97 467.461
790 0 60.7098 12.9304 785 142.26 1337.99 467.516
791 0 64.3363 14.16 911 110.323 1337.25 466.78
792 0 64.0803 11.6104 744 115.773 1336.17 463.707
793 0 67.116 11.9346 801 114.77 1336.93 464.521
794 0 70.0823 12.8991 904 114.938 1336.64 461.012
795 0 75.2769 16.1404 1215 108.168 1335.77 460.175
796 0 72.1628 10.0606 726 118.402 1336.15 458.966
797 0 77.0486 13.6018 1048 114.061 1336.78 454.623
798 0 81.1642 14.3413 1164 111.303 1336.69 455.057
799 0 81.3062 12.6928 1032 114.705 1336.67 454.567
800 0 85.2028 12.0419 1026 114.787 1335.58 452.771
801 0 87.1755 14.1095 1230 113.761 1336.78 445.812
802 0 89.234 13.0332 1163 115.124 1335.93 441.887
803 1 47.1017 10.1907 480 117.223 1335.6 465.55
804 0 49.0992 10.6519 523 116.331 1336.9 465.463
805 0 50.0588 13.8837 695 108.157 1338.35 465.358
806 0 51.109 12.4049 634 107.427 1338.8 462.573
807 0 52.2846 11.074 579 110.945 1338.92 462.13
808 0 53.2084 11.8214 629 110.208 1340.69 463.938
809 0 55.1267 12.6617 698 109.112 1341.4 463.287
810 0 56.211 11.0299 620 113.068 1341.95 460.566
811 0 57.2651 10.5125 602 110.922 1341.67 466.512
812 0 60.085 13.3311 801 108.478 1342.24 460.836
813 0 61.2903 16.5279 1013 102.937 1343.43 460.794
814 0 62.4562 12.3446 771 109.261 1343.69 459.506
815 0 67.3391 12.89 868 107.392 1343.77 460.389
816 0 69.1514 12.0171 831 109.513 1343.65 459.13
817 0 69.1514 11.9448 826 129.167 1343.69 459.088
818 0 74.4287 15.8272 1178 103.721 1343.32 456.63
819 0 72.2678 10.2674 742 112.699 1343.14 459.699
820 0 77.2811 18.3745 1420 99.5063 1343.98 460.732
821 0 77.2811 18.2192 1408 113.555 1345.97 460.803
822 0 81.2641 13.2039 1073 106.782 1343.68 460.314
823 0 83.3459 12.3821 1032 109.278 1343.69 455.89
824 0 87.2466 12.4246 1084 108.75 1343.47 453.329
825 0 91.2583 17.0724 1558 101.725 1342.52 456.376
826 0 92.3559 10.5353 973 111.76 1343.62 458.15
827 1 48.0443 13.55 651 106.662 1341.09 473.708
828 0 51.076 11.2577 575 111.024 1342.24 476.348
829 0 52.2548 13.7404 718 108.017 1342.9 468.735
830 0 52.0395 11.0685 576 107.469 1343.56 469.646
831 0 53.0483 10.8392 575 107.53 1342.89 471.494
832 0 54.0551 13.4307 726 105.025 1342.29 467.303
833 0 54.1074 9.35177 506 111.206 1341.64 468.814
834 0 60.1034 12.2456 736 106.027 1341.42 468.349
835 0 61.1404 11.4654 701 107.247 1341.82 466.264
836 0 61.1404 11.4327 699 121.097 1340.8 466.107
837 0 64.0564 12.7075 814 105.611 1341.58 461.944
838 0 66.0814 9.45802 625 110.352 1339.35 460.509
839 0 64.1465 10.8346 695 108.922 1338.09 462.997
840 0 70.1341 13.5883 953 106.157 1338.19 458.716
841 0 74.134 15.3101 1135 104.258 1339.27 451.857
842 0 73.1327 11.1031 812 112.186 1339.7 455.075
843 0 78.0772 14.4729 1130 105.643 1339.16 454.796
844 0 80.1208 13.0678 1047 108.805 1340.01 450.513
845 0 84.2806 11.0346 930 110.728 1340.27 445.359
846 0 85.1306 14.2252 1211 107.045 1338.78 444.269
847 0 87.1789 13.0422 1137 105.78 1340.53 442.532
848 0 93.3953 14.5939 1363 104.839 1341.61 445.037
849 0 91.3857 11.6101 1061 111.309 1342.31 442.248
850 0 95.5278 13.5877 1298 110.112 1343.55 442.085
851 0 96.8682 12.7596 1236 112.9 1342.89 437.258
852 0 100.755 13.0019 1310 113.311 1344.45 436.368
853 1 111.124 12.2026 1356 113.037 1342.59 437.583
854 0 112.852 12.698 1433 111.675 1344.93 440.809
855 0 109.764 12.4449 1366 115.079 1344.86 435.539
856 0 113.179 13.6863 1549 113.969 1345.35 432.247
857 0 117.639 13.992 1646 113.391 1345.66 429.797
858 1 61.1399 12.2342 748 111.009 1346.24 459.024
859 0 61.1399 12.267 750 131.793 1346.2 459.043
860 0 68.2736 15.0863 1030 106.321 1345.6 461.763
861 1 133.612 14.4373 1929 114.386 1347.05 423.857
862 0 139.945 12.3406 1727 118.227 1346.39 423.554
863 0 140.619 13.4334 1889 115.06 1346.07 431.155
864 0 140.907 8.13301 1146 122.992 1344.73 434.921
865 0 143.598 10.4389 1499 111.773 1344.83 450.015
866 1 43.0488 11.3127 487 114.448 1347.7 472.602
867 0 43.0488 11.3127 487 147.287 1348.73 472.639
868 0 47.133 12.3268 581 113.114 1346.65 474.422
869 0 48.0593 14.8774 715 106.418 1345.61 471.608
870 0 48.1386 14.2297 685 109.164 1343.78 477.855
871 0 50.077 15.8156 792 105.854 1343.45 478.191
872 0 51.0467 18.7671 958 101.911 1342.48 479.21
873 0 53.1196 13.7991 733 111.911 1342.16 477.126
874 0 53.1196 13.7802 732 140.836 1342.17 477.18
875 0 52.0509 11.4119 594 119.391 1341.86 471.769
876 0 56.1186 15.5207 871 112.259 1342.02 471.651
877 0 57.0324 15.1142 862 113.078 1340.9 468.862
878 0 59.1921 14.5628 862 113.51 1338.74 469.732
879 0 62.0924 13.0612 811 117.562 1336.83 461.826
880 0 66.1863 15.819 1047 111.976 1337.73 461.245
881 0 67.1426 15.8022 1061 113.273 1336.08 459.357
882 0 68.192 13.9606 952 117.313 1335.76 459.118
883 0 73.1221 17.0126 1244 110.539 1335.74 459.739
884 0 75.2381 14.1019 1061 118.046 1335.99 451.966
885 0 78.254 16.472 1289 111.079 1335.97 456.717
886 0 79.101 14.0833 1114 117.735 1336.64 451.192
887 0 82.1453 15.4239 1267 116.039 1337.53 445.944
888 0 83.2629 14.184 1181 119.322 1337.12 444.755
889 0 83.2629 14.196 1182 153.527 1337.14 444.798
890 0 87.3365 13.0072 1136 122.72 1338.02 443.858
891 0 91.3633 14.0976 1288 121.809 1339.38 437.666
892 1 46.2591 10.3979 481 122.919 1338.79 464.507
893 0 50.2537 11.5812 582 123.222 1339.54 459.962
894 0 55.2391 12.5636 694 119.242 1340.71 461.808
895 0 56.1646 12.588 707 118.88 1340.59 462.825
896 0 56.1506 15.8324 889 115.202 1340.57 459.395
897 0 55.1588 12.1286 669 119.003 1341.32 463.223
898 0 55.1588 12.1105 668 150.635 1342.33 463.252
899 0 58.1575 12.6553 736 118.098 1341.92 462.075
900 0 58.1061 12.4944 726 119.532 1342.38 462.187
901 0 61.1391 12.2671 750 121.059 1342.4 456.632
902 0 64.1709 12.0771 775 117.973 1343.42 461.506
903 0 65.0664 13.7244 893 117.045 1343.22 457.015
904 0 69.109 15.5841 1077 111.954 1344.25 463.323
905 0 69.109 15.5841 1077 130.634 1345.26 463.449
906 0 78.2538 12.7917 1001 115.19 1342.85 460.136
907 0 75.3172 11.1794 842 119.627 1342.99 460.609
908 0 77.2943 11.1392 861 119.596 1342.59 462.495
909 0 80.1841 13.1946 1058 116.021 1342.65 460.84
910 0 85.3078 13.1524 1122 114.802 1341.94 459.931
911 0 87.1166 14.1994 1237 114.635 1341.9 458.072
912 0 90.2358 17.6427 1592 109.693 1341.79 453.344
913 0 96.2114 10.6848 1028 119.8 1339.62 456.75
914 1 52.171 13.5324 706 114.193 1339.67 474.142
915 0 55.0502 13.9872 770 114.527 1339.97 472.135
916 0 55.086 11.5274 635 117.222 1338.41 471.112
917 0 60.0573 14.8858 894 109.16 1337.07 474.597
918 0 58.0396 12.6293 733 116.588 1335.89 471.13
919 0 63.0544 12.3703 780 116.513 1336.68 467.628
920 0 63.087 12.8711 812 115.511 1336.03 465.164
921 0 64.1213 15.6266 1002 110.169 1336.53 469.096
922 0 67.1464 12.6291 848 117.453 1335.88 461.472
923 0 70.0806 14.2693 1000 115.791 1336.09 460.791
924 0 71.0966 11.7868 838 119.294 1335.14 459.667
925 0 74.0501 14.8683 1101 114.883 1335.39 458.19
926 0 76.1876 14.5168 1106 113.988 1335.32 457.617
927 0 81.1475 14.1594 1149 113.487 1335.72 456.164
928 0 80.1041 15.6422 1253 114.7 1336.4 448.109
929 0 84.0974 14.5189 1221 115.434 1337.03 449.585
930 0 85.1781 11.9984 1022 120.771 1335.95 444.812
931 1 46.3098 11.3367 525 117.398 1336.32 463.225
932 0 48.0852 11.0845 533 116.602 1336.15 460.833
933 0 49.1024 11.7102 575 117.275 1337.55 459.739
934 0 52.0576 12.6975 661 114.425 1337.37 462.174
935 0 50.0818 12.8789 645 115.211 1337.92 461.18
936 0 54.1 16.0259 867 111.46 1339.12 461.68
937 0 57.0394 14.4111 822 113.967 1339.39 460.26
938 0 57.0603 12.9512 739 117.564 1340.09 458.843
939 0 58.0337 16.9557 984 111.295 1340.67 459.664
940 0 58.0983 14.0279 815 118.229 1340.6 456.648
941 0 61.0726 13.2629 810 118.683 1341.06 460.533
942 0 66.1217 10.768 712 122.851 1341.78 459.131
943 0 66.1487 15.45 1022 114.8 1341.75 459.218
944 0 68.1011 16.0497 1093 113.975 1343.01 456.665
945 0 71.081 13.6886 973 117.154 1342.68 453.992
946 0 75.1317 14.3614 1079 115.766 1341.6 458.116
947 0 77.0618 14.7414 1136 115.396 1342.5 458.687
948 0 80.221 16.6291 1334 113.366 1342.82 453.433
949 0 82.0484 12.907 1059 119.737 1343.29 457.629
950 0 84.0956 14.4359 1214 117.676 1342.94 456.278
951 1 45.0661 11.6274 524 114.676 1342.08 479.065
952 0 45.1081 8.7124 393 121.588 1342.42 478.865
953 0 47.1003 11.2101 528 118.061 1341.79 477.102
954 0 49.3468 11.2469 555 118.081 1341.26 476.459
955 0 50.3266 13.1739 663 116.101 1343.75 476.391
956 1 102.591 11.5605 1186 123.393 1344.2 451.036
957 0 105.684 18.9337 2001 110.394 1342.88 455.094
958 0 111.185 16.5669 1842 113.353 1343.05 448.287
959 1 60.0843 15.6613 941 111.436 1342.92 471.865
960 0 60.121 14.9033 896 113.952 1341.59 471.499
961 0 61.1894 16.0649 983 111.598 1340.34 471.538
962 0 58.0863 10.691 621 121.224 1339.19 472.145
963 0 64.1496 14.9962 962 114.038 1341.1 469.609
964 0 66.1066 14.6128 966 115.524 1339.12 464.796
965 0 69.1992 12.2256 846 118.285 1339.53 465.812
966 0 69.0981 12.6921 877 117.465 1339.72 463.219
967 0 73.2519 14.1976 1040 114.49 1339.88 461.572
968 0 79.1873 12.1737 964 116.415 1339.63 459.841
969 0 76.5674 13.2432 1014 116.527 1337.78 456.226
970 1 40.1049 10.672 428 116.362 1334.11 473.381
971 0 43.1241 12.6843 547 112.839 1335.39 470.04
972 0 44.0924 12.9954 573 112.818 1334.87 468.223
973 0 45.0423 13.01 586 113.003 1335.84 468.57
974 0 43.1026 12.1802 525 112.465 1336.75 468.684
975 0 48.1918 14.5046 699 105.884 1335.85 465.651
976 0 45.0364 12.6564 570 110.284 1337.61 467.305
977 0 49.0933 14.2993 702 106.943 1337.08 465.074
978 0 50.152 16.7491 840 104.506 1337.66 461.151
979 0 52.1076 14.3165 746 105.706 1338.99 462.897
980 0 55.1342 14.3831 793 104.835 1339.66 457.738
981 0 53.1025 11.8074 627 112.142 1340.3 462.702
982 0 52.0989 11.0943 578 115.443 1339.42 462.247
983 0 55.2899 14.1617 783 106.882 1340.76 459.064
984 0 55.1623 13.4512 742 108.319 1341.78 460.795
985 1 120.415 14.8652 1790 105.812 1343.1 438.093
986 0 120.332 15.9227 1916 105.344 1344.52 433.892
987 0 122.289 12.2006 1492 112.198 1343.35 437.759
988 0 125.853 12.9993 1636 110.666 1344.45 431.441
989 1 66.1899 15.7728 1044 104.499 1343.54 459.939
990 0 67.1519 14.5193 975 105.218 1344.88 465.165
991 0 72.3603 18.2006 1317 101.871 1344.1 460.811
992 0 73.1588 20.5033 1500 99.0927 1344.24 460.595
993 0 73.0926 13.5855 993 107.554 1343.9 457.243
994 0 77.2283 14.7096 1136 108.461 1343.77 457.822
995 1 40.0458 12.3858 496 109.012 1342.79 477.23
996 0 42.0347 11.7522 494 112.316 1341.18 475.737
997 0 42.0764 14.8539 625 112.248 1342 475.686
998 0 44.0496 13.0308 574 111.066 1342.46 479.023
999 0 45.0946 15.1681 684 106.994 1342.1 478.509
1000 0 43.0773 10.7481 463 116.24 1340.24 479.216
1001 0 49.1636 12.5092 615 110.878 1338.84 479.636
1002 0 50.2033 12.7083 638 112.345 1338.73 474.547
1003 0 51.1464 16.7558 857 106.902 1338.18 473.158
1004 0 50.0562 12.3062 616 114.994 1336.61 473.338
1005 0 53.1856 13.4811 717 113.915 1336.57 471.948
1006 0 56.1334 17.1377 962 108.201 1336.94 469.035
1007 0 55.1863 17.1057 944 109.339 1337.2 471.268
1008 0 58.15 14.7377 857 114.186 1335.96 467.312
1009 0 59.1073 14.3975 851 114.615 1335.27 464.718
1010 0 61.1557 12.8851 788 115.896 1335.78 470.881
1011 0 62.093 13.3992 832 117.822 1335.73 462.206
1012 0 65.29 15.4541 1009 113.045 1335.08 461.958
1013 0 65.1258 15.1553 987 114.666 1335.73 459.087
1014 0 69.1534 16.9623 1173 111.644 1335.78 455.2
1015 0 70.0826 13.6696 958 117.59 1330.86 454.59
1016 0 74.1175 17.4723 1295 110.541 1332.02 453.532
1017 0 75.2283 16.5629 1246 112.639 1333.01 448.994
1018 0 78.1085 16.4003 1281 112.792 1333.56 450.57
1019 0 79.1936 14.6477 1160 116.94 1337.42 448.559
1020 0 83.1405 13.7598 1144 117.758 1337.71 447.031
1021 1 43.0508 11.6142 500 121.208 1337.79 465.314
1022 0 44.0318 10.4243 459 123.525 1337.82 464.654
1023 0 47.044 14.986 705 112.675 1338.28 464.335
1024 0 49.0731 13.3882 657 116.139 1339.64 460.543
1025 0 50.0279 15.6912 785 111.632 1339.87 462.166
1026 0 51.1044 15.9477 815 112.025 1341.47 460.955
1027 0 52.1399 13.1761 687 116.668 1342.63 461.962
1028 0 53.1181 13.8183 734 115.952 1342.79 462.816
1029 0 57.1216 16.2985 931 111.101 1343.67 460.578
1030 0 57.1216 16.3686 935 126.046 1344.67 460.548
1031 0 61.1013 14.1241 863 116.268 1345.12 461.219
1032 0 64.0579 17.4061 1115 111.007 1345.17 460.666
1033 0 65.1541 14.1357 921 115.506 1345.87 462.757
1034 0 67.08 13.4914 905 117.885 1344.39 460.982
1035 0 69.0931 16.9192 1169 113.304 1344.19 459.104
1036 0 72.0898 14.038 1012 118.35 1344.61 464.122
1037 0 74.0853 13.7409 1018 119.038 1342.06 463.304
1038 0 79.1853 16.0383 1270 115.447 1344.75 459.515
1039 0 81.0968 18.6814 1515 110.618 1342.91 464.798
1040 0 85.3036 17.3264 1478 114.012 1342.66 459.64
1041 0 87.1797 15.8523 1382 117.567 1341.87 460.831
1042 0 89.2332 16.0927 1436 118.155 1341.73 456.774
1043 1 48.0651 13.0864 629 121.224 1340.19 476.749
1044 0 49.0356 11.9097 584 122.663 1339.62 478.687
1045 0 53.0366 13.2361 702 118.182 1338.48 478.484
1046 0 53.1238 13.4968 717 121.728 1338.71 472.979
1047 0 55.0793 16.9029 931 116.227 1338.52 476.739
1048 0 58.1977 14.004 815 121.317 1337.41 475.082
1049 0 56.0644 13.4667 755 123.985 1336.35 474.307
1050 0 59.2016 16.3509 968 119.625 1336.79 469.987
1051 0 60.0762 15.5136 932 121.865 1335.18 467.792
1052 0 64.1301 16.6225 1066 119.074 1335.8 468.566
1053 0 64.0798 13.5924 871 126.208 1335.66 465.263
1054 0 64.0798 13.5144 866 154.685 1334.66 465.315
1055 0 70.487 13.3783 943 125.826 1336.26 463.146
1056 0 72.2493 16.6092 1200 121.663 1335.35 458.985
1057 0 76.2742 14.6183 1115 125.084 1336.07 459.264
1058 0 79.1393 16.9322 1340 122.011 1336.53 452.702
1059 0 82.2133 16.2626 1337 121.542 1336.5 456.732
1060 0 82.2133 16.2869 1339 147.709 1336.5 456.774
1061 0 87.7241 16.0845 1411 119.841 1337.72 454.31
1062 0 90.2639 15.1999 1372 123.871 1336.79 452.095
1063 0 90.2639 15.2774 1379 154.68 1335.77 452.096
1064 1 47.4129 16.0294 760 123.645 1337.5 466.318
1065 0 49.4141 16.3921 810 117.328 1339.51 467.888
1066 0 48.4291 11.4601 555 122.568 1340.68 460.308
1067 0 49.1223 14.6166 718 118.426 1342.54 460.56
1068 0 51.1233 13.9858 715 118.052 1342.95 461.256
1069 0 53.1632 13.9382 741 122.306 1343.52 460.143
1070 0 52.2414 12.4422 650 126.568 1343.03 466.103
1071 0 56.312 14.686 827 121.244 1343.41 464
1072 0 57.3295 13.2916 762 123.807 1343.27 466.273
1073 0 61.1295 14.2157 869 122.032 1343.76 464.61
1074 0 63.2793 15.7556 997 117.555 1345.25 466.985
1075 0 62.3403 14.9983 935 121.421 1345.01 465.484
1076 0 64.1749 14.0398 901 122.72 1344.92 465.948
1077 0 67.2685 15.5348 1045 117.596 1344.46 462.359
1078 0 68.4458 12.9445 886 122.062 1345.21 463.091
1079 0 72.1494 13.7908 995 121.098 1344.57 462.766
1080 0 75.3315 21.0138 1583 109.432 1345.4 463.738
1081 0 77.4568 13.4914 1045 121.949 1343.7 461.967
1082 1 38.3502 10.8213 415 124.467 1345.81 480.913
1083 0 41.3077 12.8547 531 123.863 1343.44 479.092
1084 0 42.4961 12.8012 544 122.726 1343.69 479.811
1085 0 44.4476 15.4564 687 122.429 1342.65 476.397
1086 0 48.4201 11.9785 580 126.65 1343.51 477.312
1087 0 48.2633 14.3173 691 127.829 1342.66 477.562
1088 0 52.5114 18.4341 968 118.326 1342.66 477.072
1089 0 50.2187 14.3373 720 128.807 1341.28 473.55
1090 0 53.3378 15.6924 837 126.323 1341.44 471.489
1091 0 55.1594 13.6695 754 128.981 1340.39 474.281
1092 0 56.6212 15.118 856 127.444 1339.23 472.792
1093 0 58.389 15.294 893 127.105 1340.09 468.779
1094 0 61.5154 19.4423 1196 118.014 1339.83 467.465
1095 0 63.5203 14.9873 952 126.143 1339.52 466.392
1096 0 64.2294 16.5968 1066 124.107 1339.01 464.712
1097 0 70.7524 15.4058 1090 125.842 1339.09 464.397
1098 0 69.4771 17.5741 1221 123.681 1339.41 457.948
1099 0 72.3299 16.328 1181 125.614 1338.59 458.314
1100 0 74.3598 14.1205 1050 130.711 1338.5 457.99
1101 0 76.2426 16.5262 1260 126.902 1338.74 453.866
1102 0 81.2613 16.933 1376 124.89 1339.7 453.381
1103 0 81.51 15.2006 1239 130.43 1339.35 449.504
1104 1 42.3462 11.5477 489 135.695 1338.8 466.305
1105 0 44.3298 14.4598 641 130.335 1339.24 463.87
1106 0 46.2582 13.7273 635 132.257 1339.62 465.146
1107 0 50.3884 16.8491 849 124.641 1341.52 463.267
1108 0 51.1947 14.5523 745 128.989 1340.87 463.689
1109 0 49.2452 13.0571 643 134.995 1342.94 461.792
1110 0 53.1313 14.3606 763 132.1 1343.39 460.887
1111 0 54.1888 14.7632 800 131.672 1342.71 460.69
1112 0 57.1738 15.1818 868 130.959 1343.57 458.83
1113 0 60.2522 13.709 826 132.782 1344.69 458.718
1114 0 60.1344 12.7215 765 135.736 1344.89 456.81
1115 0 62.2834 13.8881 865 133.632 1346.27 458.568
1116 0 65.251 19.9691 1303 120.784 1345.13 457.373
1117 0 69.2047 15.4469 1069 129.41 1346.33 456.486
1118 0 70.2823 14.1857 997 132.224 1345.5 456.691
1119 0 72.0614 14.335 1033 130.48 1346.64 457.383
1120 0 76.1445 17.2304 1312 125.484 1346.31 455.012
1121 0 79.3331 16.4874 1308 126.384 1345.78 455.226
1122 0 84.1075 15.8369 1332 127.203 1345.68 453.048
1123 0 85.1512 15.9011 1354 127.403 1346.23 453.772
1124 0 88.3053 14.5631 1286 130.187 1345.43 449.617
1125 0 92.1972 16.3671 1509 125.853 1345.57 450.675
1126 1 46.0866 6.3142 291 132.608 1344.3 472.529
1127 0 46.5837 9.66003 450 128.473 1341.89 471.744
1128 0 49.4753 12.289 608 122.482 1341.81 470.771
1129 0 51.1588 8.95251 458 120.574 1338.93 470.321
1130 0 51.1294 10.3267 528 123.064 1337.53 477.32
1131 0 53.04 10.1244 537 121.601 1338.72 478.147
1132 0 54.0755 11.3545 614 122.58 1338.75 473.837
1133 0 57.2007 8.81108 504 126.052 1339.74 477.349
1134 0 62.138 11.0238 685 123.731 1340.03 471.85
1135 0 63.3024 11.2792 714 124.503 1337.26 469.999
1136 0 61.2249 9.24461 566 127.057 1338.51 471.466
1137 0 67.2929 11.5465 777 124.229 1337.66 466.541
1138 0 67.2929 11.6803 786 131.794 1337.68 466.519
1139 0 70.3105 10.6954 752 124.285 1337.38 466.689
1140 0 71.2762 11.7571 838 124.041 1337.18 459.926
1141 0 74.1454 12.1653 902 123.574 1336.61 458.263
1142 0 78.3214 9.42272 738 126.129 1337.15 461.32
1143 0 83.2486 8.91306 742 127.853 1336.19 456.236
1144 0 86.5515 7.94902 688 125.169 1335.07 458.247
1145 1 125.78 10.415 1310 138.439 1334.19 425.842
1146 1 83.328 10.7647 897 129.828 1335.93 446.08
1147 1 44.0986 9.86427 435 121.736 1334.11 470.315
1148 0 48.1503 9.55342 460 121.93 1334.97 468.526
1149 0 50.249 9.55243 480 121.617 1335.22 466.704
1150 0 51.1098 11.7199 599 118.576 1337.51 465.125
1151 0 49.1435 10.1336 498 123.371 1338.16 464.628
1152 1 103.751 11.1036 1152 127.748 1338.74 441.447
1153 0 104.472 9.80171 1024 131.241 1341 435.635
1154 0 105.476 10.7513 1134 131.907 1341.95 437.093
1155 1 59.2153 11.0951 657 121.298 1341.02 461.944
1156 0 59.1911 12.9918 769 118.811 1341.37 461.09
1157 0 58.0862 12.0166 698 122.653 1340.89 459.079
1158 0 60.112 14.0072 842 116.961 1341.94 462.55
1159 0 60.1884 11.7465 707 120.683 1342.54 460.608
1160 0 67.0588 9.99123 670 122.433 1344.75 459.513
1161 0 67.0614 8.75317 587 125.86 1343.47 459.826
1162 0 72.229 11.5189 832 120.667 1345.35 456.197
1163 1 37.04 9.44924 350 119.629 1345.61 475.56
1164 0 39.1958 9.72044 381 118.525 1346.13 476.735
1165 0 41.1559 10.5696 435 116.692 1346.44 477.708
1166 0 42.1983 12.2991 519 112.869 1345.76 476.572
1167 0 41.1345 10.0159 412 115.461 1344.39 479.189
1168 0 41.0579 10.2538 421 115.19 1343.97 482.399
1169 0 42.0304 14.3467 603 110.627 1343.37 479.502
1170 0 43.0749 9.23971 398 118.683 1342.33 480.714
1171 0 44.057 10.4637 461 117.403 1341.63 480.813
1172 0 47.0395 8.56726 403 119.635 1342.18 481.675
1173 0 47.2932 9.68426 458 119.009 1340.84 481.659
1174 0 51.2247 14.1533 725 112.244 1339.3 479.538
1175 0 52.0426 11.798 614 114.342 1340.3 482.184
1176 1 223.716 8.56442 1916 135.077 1339.26 399.364
1177 0 232.242 11.9832 2783 128.642 1339.1 394.441
1178 0 236.493 10.8206 2559 131.317 1337.53 382.487
1179 0 245.756 10.8767 2673 130.4 1338.18 382.874
1180 0 252.998 15.767 3989 122.123 1337.35 380.337
1181 0 259.925 12.0227 3125 127.908 1337.39 378.622
1182 0 259.289 13.294 3447 126.955 1337.2 374.613
1183 1 333.234 12.8318 4276 130.861 1337.28 341.852
1184 0 358.941 15.8578 5692 126.627 1337.16 316.175
1185 0 371.275 15.366 5705 127.828 1336.64 305.509
1186 1 71.1236 12.7243 905 118.266 1336.81 458.812
1187 0 75.2157 11.0083 828 119.174 1336.88 460.315
1188 0 73.1989 10.4783 767 122.404 1337.5 456.707
1189 0 80.2538 14.6037 1172 116.361 1337.71 452.905
1190 0 82.2713 14.7317 1212 116.861 1338.26 450.673
1191 0 84.2255 13.0364 1098 119.798 1338.44 452.031
1192 0 85.3479 12.0917 1032 121.734 1339.47 442.691
1193 0 87.185 14.7388 1285 115.918 1339.89 444.974
1194 1 43.1419 7.5101 324 121.022 1337.5 460.506
1195 0 49.5067 9.37246 464 110.935 1338.42 456.261
1196 0 50.3433 15.6724 789 103.222 1338.44 456.184
1197 0 51.2807 9.73075 499 111.192 1339.56 457.323
1198 0 52.381 12.3709 648 107.591 1340.3 455.779
1199 0 54.3146 14.9499 812 103.629 1339.93 457.669
1200 0 56.388 10.6938 603 110.977 1341.21 456.63
1201 0 57.2277 11.5329 660 110.132 1341.49 458.094
1202 0 56.2104 13.1648 740 107.788 1341.69 459.307
1203 0 61.3094 15.9519 978 103.866 1341.97 459.245
1204 0 61.2797 12.8264 786 109.234 1341.96 455.081
1205 0 64.4828 15.384 992 105.223 1342.37 453.818
1206 0 65.1559 12.2015 795 109.286 1343.03 459.172
1207 0 69.2728 11.5485 800 111.175 1344.01 454.048
1208 0 72.1064 14.229 1026 106.77 1343.39 453.758
1209 0 75.3116 16.1861 1219 102.673 1343.36 460.096
1210 0 76.2217 14.5497 1109 106.744 1341.48 452.234
1211 0 77.2689 15.2066 1175 105.942 1341.99 455.708
1212 0 78.4626 14.44 1133 105.453 1341.94 458.599
1213 0 80.1092 11.1722 895 112.165 1341.69 451.637
1214 0 85.1958 11.6672 994 112.11 1340.98 448.138
1215 1 44.2068 11.9439 528 107.227 1340.47 473.494
1216 0 48.329 13.0357 630 104.675 1339.23 475.362
1217 0 48.2668 11.3743 549 106.069 1339.9 474.838
1218 0 49.2102 11.7658 579 107.351 1338.73 473.51
1219 0 50.38 13.0409 657 105.553 1339.79 469.744
1220 0 50.2468 13.0954 658 107.704 1338.03 468.959
1221 0 51.389 12.9211 664 107.825 1337.55 469.667
1222 0 53.3322 12.9003 688 106.785 1336.4 466.876
1223 0 53.1676 10.4763 557 112.287 1337.16 462.522
1224 0 57.3391 14.859 852 104.781 1336.37 463.372
1225 0 59.4137 12.6738 753 108.849 1334.88 463.276
1226 0 57.2836 14.3322 821 108.097 1334.74 460.392
1227 0 60.2163 14.9129 898 106.873 1335.08 462.48
1228 0 62.2532 12.0154 748 112.004 1335.2 457.036
1229 0 68.2293 13.0296 889 108.899 1335.61 459.236
1230 0 69.3436 14.4065 999 108.362 1335.46 453.451
1231 0 74.3406 14.6488 1089 107.446 1336.4 455.26
1232 0 73.2542 13.774 1009 110.32 1336.48 452.148
1233 0 76.5388 18.2783 1399 104.069 1335.99 449.295
1234 0 80.4109 14.998 1206 108.758 1336.46 445.235
1235 1 42.1665 11.1463 470 111.426 1337.1 467.338
1236 0 45.041 11.6338 524 119.168 1339.69 467.672
1237 0 47.2589 12.0824 571 119.303 1340.5 464.005
1238 0 47.2574 12.7599 603 117.557 1341.03 463.113
1239 0 48.1094 11.3491 546 119.511 1341.81 462.841
1240 0 50.1863 14.5259 729 112.658 1341.73 465.488
1241 0 53.1234 13.8169 734 114.456 1343 462.497
1242 0 53.1234 15.4358 820 120.307 1344.03 463.763
1243 0 56.1031 16.2023 909 110.583 1343.64 463.733
1244 0 60.0598 13.5365 813 112.316 1344.02 465.464
1245 0 60.07 14.8493 892 113.455 1344.5 461.751
1246 0 61.0391 13.0244 795 117.294 1346.01 461.399
1247 0 64.0605 15.9693 1023 112.163 1346.95 459.521
1248 0 66.2029 13.3076 881 117.506 1346.23 463.015
1249 0 69.1697 15.4258 1067 113.272 1346.75 463.345
1250 0 70.2304 11.3484 797 121.38 1345.09 465.196
1251 0 73.1025 13.7341 1004 116.832 1347.09 464.169
1252 1 39.2487 11.4653 450 122.518 1345.1 479.829
1253 0 36.1656 11.3644 411 123.44 1344.41 480.827
1254 0 42.63 13.582 579 115.278 1342.5 478.903
1255 0 42.6523 13.7625 587 114.807 1341.58 479.438
1256 0 43.1683 12.1385 524 116.689 1340.72 482.592
1257 0 45.2082 11.7235 530 119.174 1340.21 479.143
1258 0 49.1664 14.6848 722 112.627 1339.9 479.058
1259 0 49.095 14.1155 693 115.43 1339.31 476.545
1260 0 51.1693 11.1395 570 120.768 1338.1 476.477
1261 0 53.3406 14.8667 793 113.999 1337.37 476.673
1262 0 51.5234 12.6739 653 118.211 1336.63 478.417
1263 0 52.244 11.9248 623 123.287 1336.73 475.978
1264 0 54.1634 13.847 750 119.856 1336.52 476.667
1265 0 52.1876 9.14009 477 128.023 1336.6 476.203
1266 0 58.2994 12.9332 754 121.887 1335.26 468.098
1267 0 59.2795 14.3895 853 119.762 1336.06 465.95
1268 0 59.2803 14.2543 845 130.477 1337.1 465.831
1269 0 62.227 13.274 826 121.183 1335.06 466.317
1270 0 64.3564 11.7782 758 123.844 1334.81 461.941
1271 0 67.2191 13.88 933 119.673 1334.64 462.375
1272 0 69.3002 13.7518 953 120.619 1335.55 459.083
1273 0 72.2135 12.74 920 121.972 1335.04 455.979
1274 0 77.2307 14.3725 1110 118.862 1335.96 455.933
1275 0 78.3975 11.7351 920 124.542 1335.2 451.666
1276 1 39.0107 10.1511 396 125.364 1334.88 471.871
1277 0 44.0679 13.1842 581 120.738 1335.12 468.12
1278 0 42.124 11.0626 466 125.753 1335.83 470.054
1279 0 46.2676 12.2332 566 122.323 1336.55 463.057
1280 0 48.2149 14.622 705 115.732 1336.91 469.216
1281 0 46.0948 12.8865 594 120.428 1337.62 464.549
1282 0 50.067 15.0199 752 115.449 1339.41 460.484
1283 0 52.0529 14.9848 780 116.112 1338.68 460.42
1284 0 52.0976 13.3212 694 119.89 1340.27 461.647
1285 0 53.0757 15.996 849 115.415 1341.12 458.462
1286 0 55.1185 15.4939 854 116.178 1341.93 461.712
1287 0 56.1242 12.9356 726 121.088 1340.89 461.763
1288 0 59.1188 14.1918 839 118.756 1342.01 461.362
1289 0 60.1914 13.9887 842 119.176 1342.69 459.697
1290 0 60.077 12.1844 732 121.29 1342.51 465.619
1291 0 64.0556 14.3469 919 116.286 1343.21 465.062
1292 0 68.1636 15.7415 1073 113.756 1343.42 463.92
1293 0 68.0733 14.0878 959 117.945 1343.25 463.605
1294 0 73.1576 15.4324 1129 115.406 1342.34 461.452
1295 0 74.2061 16.8315 1249 113.992 1342.33 460.094
1296 1 39.056 10.933 427 123.424 1342.38 478.122
1297 0 40.0298 10.6171 425 123.576 1341.77 480.784
1298 0 42.0533 9.98732 420 123.743 1343.09 482.567
1299 0 43.1068 10.3464 446 123.856 1342.31 481.276
1300 0 45.123 12.2775 554 120.626 1340.38 480.601
1301 0 46.1396 12.9173 596 120.267 1340.36 479.117
1302 0 50.1464 13.5204 678 115.891 1338.74 480.215
1303 0 49.1169 12.1954 599 120.212 1338.2 479.728
1304 0 49.1356 11.336 557 121.544 1336.83 479.399
1305 0 52.3537 16.4076 859 114.019 1336.6 476.061
1306 0 51.283 12.2848 630 120.214 1335.94 479.002
1307 0 52.1548 10.8523 566 124.187 1336.14 474.087
1308 0 60.2335 11.8871 716 121.939 1334.22 467.532
1309 0 60.2335 11.9203 718 149.306 1331.22 467.528
1310 0 68.1159 18.586 1266 108.274 1334.33 466.829
1311 0 67.1039 11.7877 791 121.234 1333.92 463.693
1312 0 69.26 12.7635 884 118.774 1334.29 463.105
1313 0 70.0857 14.8104 1038 116.645 1333.51 461.501
1314 0 75.2314 14.3823 1082 117.172 1334.06 456.831
1315 0 79.1504 13.0132 1030 118.264 1333.59 458.123
1316 1 39.1726 11.6153 455 122.945 1333.44 469.679
1317 0 40.323 14.0119 565 119.492 1334.29 465.765
1318 0 42.7714 13.841 592 116.012 1334.52 465.287
1319 0 44.659 12.2932 549 122.118 1336.24 466.439
1320 0 45.4777 12.9514 589 121.058 1336.54 466.421
1321 0 46.5119 13.2654 617 120.395 1337.04 465.716
1322 0 47.6746 12.6063 601 122.035 1337.67 462.807
1323 0 50.4475 13.8362 698 118.242 1338.43 463.865
1324 0 50.4743 15.3742 776 117.55 1340.19 461.122
1325 0 52.415 15.797 828 114.975 1341.18 463.196
1326 0 52.3035 13.9379 729 118.894 1339.77 462.432
1327 0 52.3035 13.8805 726 141.668 1337.77 462.373
1328 0 56.5028 13.9993 791 118.154 1342.86 463.391
1329 0 56.5028 13.8931 785 143.334 1347.89 463.389
1330 0 60.4657 16.3729 990 113.449 1343.03 464.634
1331 0 59.3438 13.6156 808 119.856 1341.48 464.744
1332 0 63.3834 14.4044 913 118.281 1343.2 463.848
1333 0 63.3074 14.4533 915 117.922 1342.35 463.68
1334 0 65.239 13.7648 898 119.582 1342.74 464.7
1335 0 69.3139 15.6823 1087 115.937 1341.96 463.943
1336 0 70.2322 16.7587 1177 114.523 1342.2 462.454
1337 0 71.6368 14.3222 1026 118.337 1341.75 466.258
1338 0 75.3878 16.9523 1278 113.826 1341 464.988
1339 0 76.4431 13.0947 1001 122.334 1341.71 463.005
1340 0 81.4085 15.5635 1267 116.651 1341.05 463.126
1341 0 82.4429 13.1728 1086 121.298 1340.76 461.029
1342 0 84.6809 16.2729 1378 116.512 1341.02 460.906
1343 0 83.49 11.9895 1001 124.689 1339.42 459.851
1344 1 46.2413 10.8561 502 121.592 1338.84 479.506
1345 0 48.1542 11.6708 562 120.714 1336.99 479.093
1346 0 48.2862 11.1419 538 122.039 1338.18 476.197
1347 0 51.4198 14.0024 720 115.626 1338.11 472.474
1348 0 51.4198 13.9635 718 130.942 1338.08 472.386
1349 0 53.3421 12.4854 666 111.808 1337 467.635
1350 0 54.3632 13.6121 740 109.607 1337.73 469.689
1351 0 57.3308 11.6168 666 113.829 1337.48 464.931
1352 0 57.3481 13.8976 797 111.512 1336.25 463.991
1353 0 59.2412 12.5757 745 113.019 1337.63 464.969
1354 0 61.284 11.1611 684 117.3 1335.78 461.053
1355 0 64.2871 12.8486 826 113.381 1336.5 463.395
1356 0 62.4514 12.0093 750 118.176 1336.06 462.351
1357 0 67.1876 12.8595 864 115.913 1335.85 461.25
1358 0 69.2367 12.7967 886 117.237 1336.23 458.902
1359 0 71.321 12.8433 916 117.324 1336.34 456.813
1360 0 75.2526 13.5676 1021 116.212 1337.01 457.088
1361 0 76.442 11.8521 906 120.429 1337.48 452.961
1362 0 80.3667 14.7076 1182 116.301 1337.75 450.332
1363 0 82.2766 14.1717 1166 118.015 1338.72 449.829
1364 0 83.286 13.2315 1102 119.987 1338.16 445.477
1365 0 87.24 14.1678 1236 118.503 1340.39 445.703
1366 1 45.0626 11.8502 534 120.412 1342.56 467.208
1367 0 48.0546 13.7552 661 119.52 1340.85 463.595
1368 0 50.2184 11.7686 591 115.384 1340.87 460.137
1369 0 50.1402 12.5249 628 121.443 1343.09 462.968
1370 0 55.1344 14.5281 801 118.789 1343.81 462.12
1371 0 55.1344 14.4556 797 131.439 1344.85 462.136
1372 0 58.1588 15.217 885 114.434 1345.13 463.686
1373 0 61.0982 12.93 790 119.224 1344.23 463.746
1374 0 65.2296 14.2267 928 115.572 1345.83 462.915
1375 0 64.2559 13.8664 891 116.914 1344.77 459.73
1376 0 68.2521 18.5782 1268 108.405 1345.63 463.093
1377 0 66.218 12.2323 810 119.754 1345.97 464.695
1378 0 71.149 15.6713 1115 113.478 1345.73 462.789
1379 0 75.2503 13.5415 1019 116.394 1344.57 462.382
1380 0 78.1481 12.8602 1005 117.129 1342.8 461.628
1381 0 80.2954 13.7741 1106 115.784 1342.45 458.58
1382 0 81.2193 12.1153 984 119.505 1343.06 460.626
1383 0 81.2193 12.1523 987 137.257 1343.05 460.553
1384 0 88.3616 11.5548 1021 119.329 1342.08 458.186
1385 1 50.1347 11.8082 592 116.78 1340.25 480.622
1386 0 50.2619 12.3752 622 117.633 1338.64 474.514
1387 0 51.0471 12.5962 643 113.614 1336.78 477.594
1388 0 54.0881 12.9234 699 112.701 1337.13 475.664
1389 0 54.1689 12.8118 694 113.611 1335.44 474.787
1390 0 54.1689 12.8118 694 128.065 1333.44 474.854
1391 0 57.1183 11.5725 661 115.74 1335.42 469.864
1392 0 60.1185 13.49 811 112.038 1335.61 466.557
1393 0 62.1178 14.4242 896 110.741 1335.8 467.789
1394 0 61.1574 9.95791 609 119.13 1335.65 469.915
1395 0 64.1327 11.8192 758 115.625 1333.65 463.883
1396 0 68.139 12.768 870 112.329 1334.97 457.588
1397 0 71.3595 16.1997 1156 107.394 1333.09 457.456
1398 0 73.1032 13.5698 992 112.145 1333.75 456.067
1399 0 78.0442 14.9915 1170 109.061 1333.41 453.21
1400 0 79.1301 16.0874 1273 107.771 1333.73 451.976
1401 1 37.0422 10.3936 385 117.566 1333.31 470.597
1402 0 38.0195 11.2311 427 117.665 1333.9 468.014
1403 0 38.1353 11.3019 431 117.434 1334.75 469.77
1404 0 40.0393 13.0871 524 109.452 1336.79 468.868
1405 0 44.0754 13.7492 606 106.835 1338.43 470.238
1406 0 41.0605 9.25463 380 115.961 1340.16 471.142
1407 0 41.0349 11.8192 485 113.637 1341.16 468.34
1408 0 43.1865 11.9713 517 111.52 1341.03 468.157
1409 0 44.1303 8.08968 357 116.801 1341.43 469.176
1410 0 45.0553 9.74357 439 112.219 1341.1 472.207
1411 0 45.0553 9.81016 442 134.19 1341.11 472.115
1412 0 51.172 11.8619 607 110.715 1342.76 466.829
1413 0 50.1111 8.08204 405 115.03 1342.44 467.531
1414 0 50.1096 7.96255 399 134.273 1342.43 467.622
1415 0 55.2194 13.0751 722 108.447 1344.1 465.288
1416 0 53.2919 11.4652 611 112.414 1344.22 461.908
1417 0 53.2919 11.4652 611 129.75 1344.22 461.908
1418 0 57.4883 12.2982 707 111.728 1344.37 462.368
1419 0 63.1403 13.3987 846 108.504 1344.52 465.096
1420 0 64.5006 12.8061 826 109.121 1345.33 463.769
1421 0 64.5006 12.6355 815 137.266 1346.34 463.744
1422 0 67.3548 10.6006 714 112.664 1344.43 469.16
1423 0 70.2847 12.6485 889 110.031 1343.84 468.93
1424 0 71.3819 11.4315 816 113.077 1342.99 464.956
1425 0 75.3173 15.6139 1176 107.569 1342.99 464.065
1426 0 77.4363 14.0115 1085 109.536 1343.02 463.841
1427 0 81.5769 15.5436 1268 107.505 1341.11 463.224
1428 0 84.4114 14.2398 1202 109.283 1341.74 463.814
1429 1 44.3437 10.7569 477 112.788 1340.82 482.31
1430 0 46.2014 12.4455 575 111.209 1340.67 478.624
1431 0 49.3514 13.5356 668 106.966 1338.68 477.951
1432 0 48.2753 12.9051 623 109.541 1337.07 475.425
1433 0 52.3078 13.8794 726 106.84 1338.2 478.92
1434 0 54.1796 16.2792 882 102.52 1338.21 474.423
1435 0 53.2011 16.9545 902 101.421 1336.46 477.125
1436 0 56.2401 15.3271 862 104.146 1337.51 473.858
1437 0 54.1584 10.5247 570 108.312 1336.28 472.335
1438 0 56.148 11.256 632 109.403 1335.88 469.019
1439 0 59.1602 13.5902 804 108.414 1334.72 471.142
1440 0 61.124 12.6791 775 105.705 1333.4 465.959
1441 0 55.3607 9.17619 508 98.9075 1334.56 457.679
1442 0 55.5244 9.49133 527 94.4915 1334.41 454.01
1443 1 105.024 11.445 1202 109.933 1335.78 411.067
1444 1 69.2729 14.1181 978 115.697 1336.68 391.362
1445 0 72.2322 20.4895 1480 105.223 1335.27 394.136
1446 0 76.3583 16.6059 1268 110.738 1336.99 386.681
1447 0 75.5499 16.1483 1220 110.53 1338.06 386.832
1448 0 76.3236 13.3904 1022 114.737 1337.01 388.308
1449 1 44.1031 14.1487 624 108.537 1336.45 394.231
1450 0 44.1515 14.2237 628 110.146 1338.36 394.608
1451 0 43.1787 12.9693 560 112.32 1339.54 398.559
1452 0 46.1212 15.2641 704 112.615 1339.88 395.27
1453 0 46.1212 15.3725 709 156.223 1340.89 395.224
1454 0 45.2718 15.7493 713 108.285 1340.93 392.944
1455 0 51.2902 12.634 648 112.218 1341.47 394.65
1456 0 47.0614 12.4306 585 116.668 1342.45 391.853
1457 0 54.1026 11.8109 639 114.64 1343.12 393.354
1458 0 54.4289 11.0419 601 115.253 1342.81 394.792
1459 0 54.1351 13.9835 757 112.761 1344.1 396.429
1460 0 59.1997 19.3582 1146 102.051 1343.7 402.591
1461 0 58.1022 14.1303 821 113.703 1345.81 397.026
1462 0 61.1269 19.6804 1203 105.151 1345.78 398.774
1463 0 61.1269 19.8603 1214 127.829 1344.74 398.817
1464 0 65.3529 13.7408 898 114.234 1344.02 387.458
1465 0 67.179 15.0791 1013 111.942 1343.63 387.281
1466 0 69.1196 14.3664 993 112.677 1343.35 387.648
1467 0 70.1031 16.4187 1151 110.297 1343.81 388.33
1468 0 75.1971 15.2133 1144 109.938 1342.77 392.651
1469 0 77.34 15.6323 1209 110.779 1342.7 391.398
1470 0 77.0987 12.3219 950 116.119 1342.34 392.233
1471 0 80.3778 15.0041 1206 112.849 1341.87 392.34
1472 0 76.3641 12.2309 934 117.39 1340.65 391.809
1473 0 86.2274 13.3484 1151 113.497 1339.24 400.745
1474 0 86.3137 15.0498 1299 112.975 1339.08 392.952
1475 0 91.2874 20.3533 1858 106.107 1338.79 396.484
1476 0 91.2934 13.2978 1214 117.199 1338.45 395.083
1477 0 94.2966 16.0557 1514 113.945 1336.76 390.778
1478 0 102.481 24.9803 2560 101.377 1336.36 388.455
1479 0 104.413 20.4286 2133 107.191 1336.59 385.291
1480 0 106.674 14.6334 1561 114.68 1335.44 385.816
1481 0 109.296 21.5469 2355 104.233 1335.67 386.627
1482 1 61.3027 13.4578 825 112.103 1335.27 406.058
1483 0 60.1834 9.58735 577 119.147 1335.12 398.284
1484 0 67.3748 16.0594 1082 108.432 1335.59 396.14
1485 0 67.1904 11.326 761 114.399 1336.34 395.511
1486 0 72.3064 15.3099 1107 108.952 1336.82 395.385
1487 0 75.1923 13.6982 1030 111.224 1336.86 390.506
1488 0 75.1923 13.6982 1030 136.112 1336.88 390.392
1489 0 77.2282 14.373 1110 112.379 1338.17 383.484
1490 0 80.3511 14.698 1181 110.722 1338.8 386.823
1491 0 85.3985 17.5062 1495 107.637 1338.6 382.676
1492 0 89.1437 15.4021 1373 110.33 1338.33 381.639
1493 0 94.1777 14.547 1370 109.471 1339.85 385.275
1494 0 94.1185 13.653 1285 114.549 1339.13 375.29
1495 0 96.5679 12.6647 1223 117.299 1339.93 375.526
1496 0 104.452 15.701 1640 112.582 1340.93 383.478
1497 1 58.1832 17.1527 998 107.472 1340.78 404.193
1498 0 58.3514 15.2181 888 109.506 1341.11 403.642
1499 0 60.3406 16.2577 981 109.562 1341.37 402.943
1500 0 61.2938 11.4041 699 117.866 1342.35 402.431
1501 0 67.3445 17.5218 1180 108.331 1342.53 394.519
1502 0 67.3463 19.1993 1293 106.834 1342.61 388.801
1503 0 68.3515 16.1079 1101 111.578 1342.19 388.109
1504 0 73.2505 15.9453 1168 111.219 1342.78 391.366
1505 0 73.357 16.4947 1210 111.425 1343.02 391.218
1506 0 75.3921 16.2749 1227 112.276 1342.51 387.582
1507 0 77.235 17.259 1333 111.206 1343.28 391.764
1508 0 81.3614 18.4117 1498 107.285 1341.85 395.783
1509 0 84.4055 13.7313 1159 114.181 1343.41 396.99
1510 0 84.4055 13.7076 1157 150.901 1344.4 396.912
1511 1 46.0413 10.4037 479 117.58 1341.85 408.795
1512 0 50.1681 12.9764 651 111.392 1343.65 410.253
1513 0 53.2526 14.835 790 104.757 1343.88 410.11
1514 0 53.0753 15.5816 827 103.117 1344.26 412.437
1515 0 55.3381 16.6251 920 101.847 1343.53 414.513
1516 0 53.1315 11.7633 625 110.877 1341.91 414.827
1517 0 57.2512 12.9604 742 108.381 1341.29 412.491
1518 0 54.3221 13.2543 720 110.646 1339.43 414.133
1519 0 59.2784 12.8209 760 109.172 1339.45 418.13
1520 0 58.1469 12.9672 754 109.631 1338.77 414.306
1521 0 59.1334 10.7215 634 113.748 1337.85 413.216
1522 0 65.2694 15.0607 983 107.124 1337.95 409.072
1523 0 66.4238 14.4075 957 107.995 1337.8 407.288
1524 0 66.3013 14.6905 974 105.691 1337.98 411.724
1525 0 71.3335 16.1775 1154 104.019 1338.07 408.133
1526 0 72.263 20.4116 1475 100.936 1336.59 399.602
1527 0 73.1891 14.5104 1062 108.976 1337.7 399.864
1528 0 75.1789 14.4056 1083 109.244 1337.62 397.125
1529 0 78.2714 13.1466 1029 111.073 1337.87 395.989
1530 0 81.4147 15.6728 1276 106.829 1337.21 394.419
1531 0 82.1814 18.3983 1512 103.388 1338.04 394.144
1532 0 83.2051 14.3861 1197 109.871 1338.48 391.077
1533 0 85.1634 13.2686 1130 111.153 1339.12 392.298
1534 0 91.4923 22.6686 2074 98.5651 1339.01 397.718
1535 0 95.6111 15.0192 1436 108.185 1340.03 387.792
1536 1 54.2941 13.4269 729 107.259 1341.63 409.682
1537 0 53.1621 14.3711 764 108.118 1342.58 409.414
1538 0 57.3058 12.7561 731 108.419 1344.16 409.695
1539 0 55.3503 11.7253 649 111.304 1342.65 406.71
1540 0 56.3389 11.8923 670 111.667 1344.1 405.139
1541 0 60.1383 15.1817 913 106.41 1344.41 403.916
1542 0 60.0879 13.9296 837 108.799 1345.1 404.122
1543 0 60.0879 13.9795 840 142.793 1346.09 403.973
1544 0 67.0918 19.8534 1332 99.4009 1345.22 406.433
1545 0 67.0918 19.7342 1324 123.727 1344.23 406.393
1546 0 73.1684 18.2592 1336 102.377 1345.25 400.707
1547 0 74.1728 14.5067 1076 106.757 1345.19 405.375
1548 0 78.3697 20.4543 1603 99.9676 1344.96 404.023
1549 0 77.2863 12.8613 994 110.502 1344.89 405.314
1550 0 83.8938 19.2624 1616 101.742 1344.75 403.337
1551 0 82.2625 14.4051 1185 107.059 1344.43 399.285
1552 0 90.6954 15.9655 1448 102.946 1343.43 395.499
1553 0 87.2704 14.0712 1228 108.73 1343.66 383.71
1554 0 91.3472 16.2786 1487 105.328 1343.26 389.058
1555 0 97.6185 15.1508 1479 105.892 1342.67 397.412
1556 0 95.2926 13.6212 1298 111.329 1342.21 388.364
1557 0 101.293 15.549 1575 108.267 1341.26 386.106
1558 1 52.1202 12.5863 656 111.038 1340.95 411.672
1559 0 54.1052 12.1061 655 112.255 1340.77 411.592
1560 0 56.1857 11.818 664 112.875 1340.6 416.648
1561 0 61.1532 15.1096 924 106.779 1339.78 416.662
1562 0 61.101 18.0357 1102 104.515 1339.45 413.497
1563 0 64.2399 22.0268 1415 99.795 1338.4 408.406
1564 0 65.0921 13.5808 884 110.788 1339.13 409.982
1565 0 67.1395 20.0627 1347 101.92 1338.29 410.395
1566 0 68.5681 15.3862 1055 104.954 1338.41 413.992
1567 0 73.0827 18.7459 1370 102.352 1337.77 406.947
1568 0 72.0891 14.6208 1054 110.964 1338.38 399.808
1569 0 74.0805 13.2424 981 113.863 1337.97 398.93
1570 0 80.1237 17.7351 1421 105.488 1337.55 397.552
1571 0 79.171 13.414 1062 113.811 1335.96 392.702
1572 0 84.2379 16.2635 1370 109.259 1335.65 389.766
1573 0 85.1156 16.4247 1398 107.389 1337.01 393.744
1574 0 88.2627 14.049 1240 112.151 1337.1 387.478
1575 0 91.1138 15.2995 1394 109.001 1336.92 387.482
1576 0 105.374 15.4402 1627 106.219 1338.17 386.371
1577 0 104.329 15.6811 1636 107.146 1339.44 382.676
1578 0 104.329 15.8536 1654 141.204 1340.42 382.635
1579 1 54.107 11.0152 596 110.688 1340.61 404.164
1580 0 57.0904 12.4539 711 111.88 1341.85 401.55
1581 0 60.4094 17.8615 1079 103.671 1341.35 400.513
1582 0 57.4214 12.8349 737 112.324 1341.86 403.798
1583 0 58.1138 11.3054 657 114.084 1343.14 398.422
1584 0 62.3254 12.9963 810 109.296 1342.72 401.874
1585 0 68.0864 15.8328 1078 104.831 1343.9 390.143
1586 0 69.2326 16.4085 1136 104.452 1344.4 392.64
1587 0 72.0476 20.0978 1448 100.456 1344.99 386.517
1588 0 70.2252 15.8348 1112 106.933 1345.11 392.215
1589 0 70.0986 10.0573 705 116.312 1345.03 389.665
1590 0 75.3346 15.4643 1165 107.407 1345.02 392.863
1591 0 79.2621 17.4358 1382 103.487 1345.4 397.368
1592 0 81.1363 15.9978 1298 107.048 1345.22 393.463
1593 0 80.3 12.6401 1015 112.908 1344.8 397.819
1594 1 164.429 9.94352 1635 116.829 1344.82 365.181
1595 1 88.1995 14.1157 1245 110.212 1343.31 392.9
1596 0 91.347 14.8226 1354 109.272 1343.82 391.846
1597 0 90.0916 14.1079 1271 110.517 1342.65 391.102
1598 0 96.3956 18.4241 1776 104.621 1342.61 389.355
1599 0 98.6158 11.5904 1143 114.698 1342.69 397.152
1600 1 52.206 12.374 646 109.469 1341.37 416.608
1601 0 51.2962 7.6419 392 113.793 1340.49 422.184
1602 0 54.2903 17.7011 961 102.889 1339.74 412.737
1603 0 56.0662 14.5721 817 107.193 1340.68 404.562
1604 0 56.1128 13.4016 752 107.92 1338.45 407.505
1605 0 62.2591 14.279 889 107.443 1339.43 400.7
1606 0 63.2843 13.6053 861 139.652 1338.44 400.908
1607 0 61.082 10.3304 631 115.125 1337.91 400.076
1608 0 64.0371 15.7253 1007 107.56 1338.49 397.303
1609 0 68.1264 13.5777 925 109.601 1336.89 399.507
1610 0 69.1346 14.1897 981 109.31 1337.38 396.01
1611 0 72.0711 14.9991 1081 107.575 1337.48 398.929
1612 0 74.1579 16.5458 1227 105.279 1337.07 399.52
1613 0 77.0679 13.4427 1036 110.286 1337.8 398.035
1614 0 80.3914 10.9589 881 113.404 1336.65 397.49
1615 0 84.1742 19.4953 1641 102.453 1336.73 388.424
1616 0 86.1987 18.8982 1629 102.923 1336.55 378.769
1617 1 45.4007 14.5592 661 102.566 1337.4 399.514
1618 0 44.2196 11.1489 493 110.318 1339.14 394.929
1619 0 47.321 12.785 605 107.06 1338.96 392.124
1620 0 49.4365 15.4744 765 100.974 1338.28 399.25
1621 0 48.3321 14.5452 703 100.669 1338.75 403.054
1622 0 49.2132 10.485 516 106.037 1339.17 404.829
1623 0 52.4272 14.2865 749 101.254 1340.32 401.023
1624 0 52.0826 13.1138 683 102.988 1340.13 402.108
1625 0 55.2411 14.6992 812 101.266 1339.72 403.135
1626 0 57.2818 16.3752 938 99.3177 1340.65 403.655
1627 0 57.5018 12.7822 735 105.532 1340.52 400.452
1628 0 59.0918 17.4474 1031 99.9205 1341.86 398.978
1629 0 63.1117 15.1953 959 102.751 1342.42 400.521
1630 0 63.3134 12.6198 799 108.342 1342.88 400.001
1631 0 65.5064 15.3725 1007 104.916 1342.89 401.228
1632 0 71.3459 18.6556 1331 99.4388 1342.51 404.374
1633 0 73.8395 19.2851 1424 100.871 1342.87 398.935
1634 0 74.3008 13.8222 1027 110.01 1343.86 401.961
1635 0 75.2541 12.3183 927 114.871 1344.09 399.357
1636 0 77.4277 13.9485 1080 112.869 1341.81 398.744
1637 0 80.2716 14.5132 1165 112.071 1342.58 399.53
1638 0 82.2989 12.7827 1052 116.607 1342.88 406.677
1639 0 85.5006 16.8303 1439 112.582 1341.72 406.944
1640 0 85.4817 12.0143 1027 122.33 1341.78 404.923
1641 0 91.4731 12.255 1121 120.283 1340.12 409.706
1642 0 95.8524 16.4524 1577 115.66 1340 401.263
1643 0 98.2621 14.8989 1464 119.811 1339.31 401.602
1644 1 54.2359 10.3068 559 122.066 1337.74 425.623
1645 0 58.5213 15.4132 902 114.608 1337.96 424.947
1646 0 55.4108 12.4344 689 123.7 1336.88 421.536
1647 0 58.1016 14.9738 870 117.69 1336.97 415.378
1648 0 62.2385 14.4123 897 117.115 1336.51 417.565
1649 0 62.2109 15.785 982 115.545 1334.82 414.872
1650 0 64.3512 15.1046 972 113.198 1335.56 417.692
1651 0 69.1726 12.8519 889 119.735 1334.27 410.31
1652 0 68.1243 14.4002 981 119.04 1334.89 408.71
1653 0 70.285 19.9331 1401 109.269 1334.02 410.948
1654 0 74.399 15.4034 1146 116.367 1334.08 409.129
1655 0 76.2579 23.4074 1785 105.248 1333.69 406.347
1656 0 80.2525 15.8749 1274 116.132 1334.18 403.029
1657 0 80.3948 15.6851 1261 118.312 1333.7 400.823
1658 0 82.4877 14.4021 1188 121.675 1334.87 398.918
1659 0 86.3916 21.1247 1825 111.522 1333.95 392.304
1660 0 85.2448 14.2413 1214 124.421 1335.68 388.458
1661 0 92.3792 16.3998 1515 118.657 1336.69 390.451
1662 0 96.1916 15.6459 1505 121.684 1336.32 386.993
1663 0 95.4077 13.4056 1279 126.83 1336.06 387.001
1664 0 101.393 16.2438 1647 119.73 1338.01 389.287
1665 1 52.3305 11.4847 601 127.8 1337.17 408.922
1666 0 57.2069 12.4635 713 124.003 1337.81 405.626
1667 0 57.1202 12.6575 723 122.979 1338.56 407.981
1668 0 58.5278 12.8657 753 123.688 1339.82 401.661
1669 0 57.469 13.1549 756 124.623 1341.23 399.766
1670 0 57.469 14.0772 809 151.805 1342.32 399.35
1671 0 66.4854 17.3421 1153 112.938 1341.44 407.301
1672 0 66.3477 13.1579 873 122.958 1342.96 403.384
1673 0 70.4646 17.2853 1218 112.431 1342.76 408.585
1674 0 72.4339 15.1448 1097 117.825 1344.36 400.007
1675 0 73.441 17.429 1280 114.674 1344.5 401.625
1676 0 74.4505 13.969 1040 120.894 1343.6 403.255
1677 0 76.3742 16.2489 1241 116.409 1343.76 403.631
1678 0 80.5755 15.1907 1224 118.578 1344.01 402.223
1679 0 82.3135 14.4812 1192 119.257 1344.15 400.612
1680 0 85.2734 11.7035 998 123.873 1343.05 395.057
1681 0 87.4781 11.843 1036 121.723 1341.57 387.395
1682 0 93.339 16.3597 1527 114.749 1340.44 378.614
1683 1 51.2805 12.3049 631 117.937 1340.02 397.074
1684 0 53.1855 16.0382 853 111.267 1339.77 397.923
1685 0 54.3958 15.1666 825 112.55 1339.18 406.401
1686 0 55.5397 14.116 784 116.221 1338.61 407.103
1687 0 56.6501 14.263 808 116.045 1338.85 404.017
1688 0 57.5894 13.0232 750 118.144 1338.46 407.945
1689 0 58.349 14.4304 842 116.162 1337.86 415.023
1690 0 59.6451 16.2629 970 112.505 1336.97 415.526
1691 0 62.5191 13.8518 866 117.089 1336.63 410.485
1692 0 64.5109 17.4234 1124 111.027 1336.27 412.188
1693 0 66.4715 13.1034 871 117.427 1335.18 413.111
1694 0 66.5699 12.0325 801 119.62 1335.07 411.295
1695 0 68.4353 12.1575 832 118.958 1334.42 412.923
1696 0 71.4575 15.0579 1076 114.297 1333.67 409.204
1697 0 74.5674 15.6234 1165 115.148 1335.11 403.583
1698 0 74.5674 15.6368 1166 144.524 1337.13 403.694
1699 0 77.5706 14.735 1143 118.183 1335.12 397.458
1700 0 78.3065 14.2772 1118 120.094 1335.45 393.149
1701 0 83.4566 15.9125 1328 116.094 1335.31 391.321
1702 1 43.0594 8.40699 362 123.674 1335.77 413.552
1703 0 48.2668 13.4254 648 114.185 1335.12 409.566
1704 0 46.4712 12.61 586 112.869 1338.88 407.208
1705 0 50.6875 13.8693 703 109.488 1338.38 406.386
1706 0 51.2774 11.8961 610 112.174 1341.22 409.49
1707 0 50.2644 11.3599 571 114.76 1340.36 410.799
1708 0 51.1503 11.8474 606 114.962 1340.92 409.807
1709 0 51.1503 11.7888 603 133.607 1340.92 409.834
1710 0 58.3507 14.8584 867 109.893 1341.54 404.098
1711 0 57.2827 12.9708 743 114.576 1343.37 405.834
1712 0 57.2827 13.0057 745 134.644 1344.39 405.902
1713 0 56.1836 12.6549 711 117.058 1344.29 405.12
1714 0 61.1522 15.5023 948 111.511 1344.52 401.658
1715 0 61.1522 15.5841 953 126.791 1344.52 401.683
1716 0 66.247 14.5516 964 112.194 1345.01 402.437
1717 0 65.1334 11.4995 749 119.338 1344.79 399.114
1718 0 69.3505 12.3143 854 117.403 1344.84 402.052
1719 0 71.1789 16.9011 1203 110.055 1345.8 401.993
1720 0 75.291 18.9266 1425 106.253 1345.49 404.173
1721 0 75.1561 17.457 1312 109.575 1346.3 403.106
1722 0 78.1465 15.0743 1178 112.279 1345.43 406.732
1723 0 80.2032 15.5979 1251 113.935 1344.52 385.234
1724 0 85.2023 16.2906 1388 111.8 1344.69 383.492
1725 1 46.0375 11.9902 552 118.116 1345.73 401.339
1726 0 46.0375 12.012 553 135.304 1345.72 401.326
1727 0 48.3349 12.0203 581 120.167 1344.13 399.312
1728 0 48.3349 11.9168 576 149.738 1344.13 399.274
1729 0 55.0921 19.2223 1059 105.051 1341.85 405.165
1730 0 54.2487 12.9404 702 114.486 1342.12 416.863
1731 0 56.104 13.9741 784 113.778 1338.86 417.3
1732 0 56.104 14.1166 792 138.28 1335.84 417.212
1733 0 61.2171 15.3388 939 110.848 1338.99 417.283
1734 0 61.0886 17.4992 1069 108.735 1338.5 412.217
1735 0 60.107 13.0933 787 116.199 1336.85 412.116
1736 0 65.2093 16.148 1053 110.855 1338.06 411.106
1737 0 65.1751 15.7729 1028 112.596 1337.75 405.54
1738 0 68.5386 14.1964 973 115.006 1338.2 406.342
1739 0 68.1094 13.1847 898 117.592 1337.27 407.704
1740 0 73.1517 15.6934 1148 111.297 1337.96 408.426
1741 0 78.1457 16.5332 1292 109.57 1337.12 405.592
1742 0 76.3466 15.7047 1199 112.838 1337.71 402.556
1743 0 83.306 21.271 1772 102.701 1336.96 392.586
1744 1 39.023 11.3523 443 121.242 1338.67 396.846
1745 0 42.1801 11.5457 487 119.232 1337.12 393.548
1746 0 45.1084 15.097 681 110.51 1338.28 400.087
1747 0 48.2089 14.1883 684 112.249 1339.25 399.532
1748 0 47.0811 13.5723 639 113.366 1339.15 405.405
1749 0 50.0552 14.3042 716 111.413 1339.76 404.846
1750 0 51.1681 13.3482 683 113.438 1340.03 405.805
1751 0 51.0926 16.108 823 109.656 1340.41 402.361
1752 0 55.2336 13.5606 749 112.689 1340.96 406.203
1753 0 56.1519 14.2114 798 111.499 1341.73 405.287
1754 0 58.175 15.8831 924 109.047 1341.79 403.567
1755 0 61.1308 14.9516 914 110.596 1343.15 404.06
1756 0 62.1326 18.7019 1162 104.666 1342.64 404.76
1757 0 62.0924 17.4417 1083 108.38 1342.91 403.569
1758 0 63.0788 14.6325 923 113.101 1344.01 399.778
1759 0 64.0872 18.6465 1195 107.775 1344.14 397.212
1760 0 69.2298 15.0947 1045 111.336 1344.66 401.607
1761 0 69.3505 15.2558 1058 108.33 1343.17 401.181
1762 0 73.2956 17.0269 1248 105.758 1343.34 400.414
1763 0 73.4621 17.8595 1312 104.976 1344.3 404.359
1764 0 76.199 22.1919 1691 101.224 1343.27 399.321
1765 0 78.1912 13.5693 1061 111.841 1343.44 402.926
1766 0 78.1912 13.6844 1070 135.32 1342.46 402.979
1767 1 43.2219 17.3292 749 102.063 1342.05 424.817
1768 0 45.1644 12.9748 586 110.362 1342.71 420.49
1769 0 45.1237 12.1222 547 115.777 1344.37 422.673
1770 0 49.2124 15.9919 787 104.454 1343.44 430.692
1771 0 51.2712 15.1937 779 108.341 1341.11 425.046
1772 0 50.1944 13.5672 681 111.402 1340.76 428.457
1773 0 55.209 16.1568 892 107.673 1338.91 422.442
1774 0 53.0509 13.5153 717 110.138 1338.94 417.66
1775 0 53.0932 12.883 684 112.442 1337.82 415.437
1776 0 53.0932 12.9018 685 146.091 1336.83 415.528
1777 0 62.1659 15.1047 939 109.323 1337.89 420.477
1778 0 63.2069 16.09 1017 108.281 1337.36 416.596
1779 0 64.2826 13.9384 896 111.169 1336.24 417.114
1780 0 65.2753 19.3795 1265 102.579 1335.05 407.453
1781 0 65.2753 19.3795 1265 124.108 1335.05 407.453
1782 0 69.1513 15.4733 1070 108.491 1336.28 407.661
1783 0 71.181 13.2479 943 112.033 1336.17 406.356
1784 0 71.3703 16.7577 1196 107.263 1335.09 406.911
1785 0 75.4209 12.8214 967 112.59 1334.36 404.138
1786 0 78.7477 14.6036 1150 109.984 1335.36 401.353
1787 0 80.4013 12.7983 1029 112.845 1336.12 397.223
1788 0 86.3454 15.2411 1316 109.879 1335.86 394.919
1789 1 48.1666 12.0623 581 111.482 1335.88 413.769
1790 0 47.1322 9.46275 446 114.729 1338.18 418.614
1791 0 52.3049 18.9657 992 99.1522 1337.73 420.876
1792 0 51.2711 13.4384 689 107.408 1339.16 416.311
1793 0 51.1461 14.4097 737 109.97 1338.32 408.849
1794 0 52.2146 13.253 692 112.734 1340.29 410.564
1795 0 54.2358 14.437 783 110.349 1341.06 410.511
1796 0 55.2081 13.8567 765 111.927 1340.21 409.345
1797 0 55.2081 13.8567 765 133.742 1339.21 409.392
1798 0 60.1255 16.9645 1020 106.978 1341.66 409.252
1799 0 60.1816 13.1768 793 114.198 1341.67 407.913
1800 0 65.1718 14.5155 946 109.502 1342.25 401.882
1801 0 67.1229 17.5946 1181 105.681 1343.26 400.555
1802 0 69.2627 13.225 916 111.709 1344.01 402.932
1803 0 69.1437 13.3346 922 113.111 1344.14 401.632
1804 0 71.2289 12.4669 888 114.63 1343.22 405.244
1805 0 74.2375 15.5851 1157 109.373 1343.21 407.87
1806 0 81.3448 22.4476 1826 100.378 1343.47 402.798
1807 0 83.2 17.4279 1450 105.775 1344.03 408.332
1808 0 82.2203 11.7611 967 114.589 1343.63 406.909
1809 0 85.2447 16.8691 1438 106.14 1343.96 407.838
1810 0 85.2447 16.74 1427 129.756 1344.94 407.851
1811 0 89.2757 10.5068 938 115.554 1343.15 395.922
1812 1 48.2024 12.5098 603 110.803 1342.51 416.209
1813 0 50.104 14.6096 732 109.617 1342.44 415.362
1814 0 51.1612 16.5555 847 109.216 1342.55 418.403
1815 0 52.0457 12.0855 629 117.267 1341.34 421.623
1816 0 55.3214 15.2925 846 111.553 1340.06 421.764
1817 0 57.3543 16.7381 960 108.968 1338.41 423.407
1818 0 57.31 10.6264 609 118.795 1338.45 418.714
1819 0 61.3605 17.3401 1064 107.724 1337.15 416.065
1820 0 63.4433 16.5187 1048 109.365 1337.58 415.076
1821 0 62.1096 17.6784 1098 108.907 1337.09 414.677
1822 0 63.2187 11.7845 745 119.162 1338.33 412.281
1823 0 66.1416 14.3178 947 114.354 1337.08 411.43
1824 0 67.084 14.1613 950 115.068 1336.48 410.905
1825 0 70.1226 15.1592 1063 113.407 1336.38 408.689
1826 0 74.2086 14.8905 1105 113.298 1337.1 407.688
1827 0 73.0768 13.3969 979 117.449 1337.19 404.55
1828 0 77.1325 16.4263 1267 112.938 1336.09 402.828
1829 0 82.1964 20.9376 1721 105.877 1335.72 391.905
1830 0 85.2295 16.1094 1373 114.098 1337.34 385.731
1831 0 87.175 14.5454 1268 115.875 1337.93 387.678
1832 1 47.0476 15.1336 712 112.736 1337.97 401.504
1833 0 47.134 11.6476 549 119.88 1338.81 395.982
1834 0 49.2296 15.1941 748 114.441 1335.75 395.489
1835 0 49.2296 15.1129 744 126.102 1334.72 395.585
1836 0 52.1121 14.8718 775 111.279 1336.63 402.406
1837 0 57.1912 15.0373 860 110.097 1335.36 408.287
1838 0 55.1755 14.4086 795 112.953 1337.86 405.138
1839 0 55.206 15.9946 883 111.726 1338.51 405.375
1840 0 58.1104 11.9256 693 116.619 1338.42 406.395
1841 0 59.2699 12.8733 763 115.37 1337.9 405.151
1842 0 64.1373 17.3066 1110 104.673 1339.42 400.239
1843 0 64.093 18.3171 1174 104.732 1339.58 400.426
1844 0 67.1193 15.1521 1017 107.688 1340.88 402.953
1845 0 69.178 16.1034 1114 105.338 1339.59 405.656
1846 0 69.2276 13.6506 945 110.516 1341.11 394.267
1847 0 72.1605 15.909 1148 106.571 1340.46 398.307
1848 0 77.1295 15.4156 1189 107.433 1341.25 398.185
1849 0 78.1551 15.2901 1195 107.915 1340.37 402.765
1850 0 82.0458 17.4415 1431 104.132 1340.97 403.75
1851 1 44.055 11.6899 515 111.518 1340.84 408.87
1852 0 44.055 11.7353 517 141.855 1340.84 408.892
1853 0 45.0764 12.2237 551 137.608 1340.97 409.742
1854 0 52.4106 18.1261 950 102.114 1341.26 411.759
1855 0 55.4183 11.6027 643 111.258 1342.15 416.785
1856 0 53.3705 14.8959 795 110.024 1340.64 418.874
1857 0 54.4381 17.6714 962 105.993 1339.56 418.361
1858 0 57.4148 14.5085 833 109.965 1339.58 419.355
1859 0 56.3578 15.9162 897 109.899 1338.53 415.826
1860 0 61.437 14.6492 900 111.804 1338.35 414.023
1861 0 64.316 20.3215 1307 100.82 1338.27 419.498
1862 0 64.3355 15.2948 984 110.882 1336.73 412.372
1863 0 67.4574 15.0169 1013 109.918 1336.5 412.413
1864 0 69.4265 17.4573 1212 106.742 1335.15 410.823
1865 0 71.2191 17.3128 1233 106.061 1334.33 408.788
1866 0 72.2819 15.1213 1093 109.933 1335.2 406.364
1867 0 73.3533 15.7866 1158 108.988 1334.46 404.358
1868 0 77.227 18.8017 1452 104.031 1334.67 407.885
1869 0 77.4472 11.9953 929 114.431 1334.63 405.446
1870 0 81.4703 18.1907 1482 105.694 1334.03 402.221
1871 1 43.3964 11.4756 498 114.359 1335.58 413.869
1872 0 42.2411 12.4287 525 112.143 1335.25 419.177
1873 0 42.2411 12.405 524 143.048 1334.23 419.109
1874 0 47.1265 16.9331 798 103.37 1335.8 411.91
1875 0 49.1423 15.5263 763 104.832 1337.11 415.613
1876 0 48.0203 13.3277 640 109.619 1336.54 412.581
1877 0 51.0733 13.2946 679 109.485 1337.87 411.999
1878 0 53.1695 16.0054 851 106.012 1338.05 409.302
1879 0 55.1717 17.0015 938 103.588 1337.92 410.058
1880 0 53.2466 14.461 770 110.023 1338.98 406.997
1881 0 58.0994 16.2136 942 106.293 1339.22 404.55
1882 0 57.1088 14.9539 854 110.327 1340.55 402.583
1883 0 59.4323 16.4557 978 107.695 1340.45 405.313
1884 0 66.1501 20.7709 1374 100.302 1340.73 401.898
1885 0 64.2808 23.3351 1500 98.9153 1341.27 402.318
1886 0 64.2808 23.0084 1479 114.215 1341.32 402.22
1887 0 68.0989 17.8564 1216 105.948 1343.59 397.384
1888 0 69.2238 16.7572 1160 108.684 1343.34 397.595
1889 0 68.1204 14.8414 1011 112.99 1344.58 398.184
1890 0 75.1812 14.6712 1103 109.99 1344.59 402.762
1891 0 79.3986 16.4738 1308 108.123 1345.08 397.363
1892 0 77.1326 15.4539 1192 111.717 1343.15 394.443
1893 0 80.1615 15.0072 1203 112.614 1344.88 394.189
1894 0 82.1046 15.6142 1282 112.289 1343.35 401.227
1895 0 87.191 14.4166 1257 113.38 1343.41 391.993
1896 0 90.0986 15.2278 1372 113.576 1342.51 390.343
1897 0 96.2581 18.8036 1810 106.81 1343.34 391.023
1898 1 46.0839 12.1518 560 113.755 1342.98 419.193
1899 0 51.0877 15.1308 773 107.664 1343.2 418.44
1900 0 50.2882 10.937 550 117.638 1341.94 415.709
1901 0 53.0503 17.1912 912 102.531 1339.52 419.247
1902 0 51.1674 11.7849 603 111.317 1339.88 418.778
1903 0 53.138 12.7028 675 110.176 1338.29 417.135
1904 0 57.2784 14.6652 840 106.031 1336.96 419.156
1905 0 58.1348 15.4641 899 105.108 1335.94 416.202
1906 0 59.1262 11.7038 692 110.767 1335.93 417.61
1907 0 61.2054 14.868 910 106.309 1335.67 415.511
1908 0 64.1735 15.4425 991 106.302 1334.71 403.855
1909 0 65.153 13.4453 876 108.158 1334.39 405.151
1910 0 68.2563 17.8592 1219 102.737 1334.77 403.91
1911 0 68.2563 17.8005 1215 129.802 1335.75 403.994
1912 0 73.3774 15.9586 1171 106.548 1334.76 405.079
1913 0 75.2481 17.2097 1295 105.57 1333.93 404.532
1914 0 74.2459 13.3206 989 113.153 1335.3 402.048
1915 0 77.1365 17.7089 1366 106.532 1335.41 400.196
1916 0 80.2646 21.6285 1736 101.157 1335.59 401.983
1917 0 83.2935 16.0517 1337 109.838 1335.05 396.674
1918 0 85.174 16.1082 1372 109.59 1335.4 394.26
1919 0 85.3371 16.5461 1412 114.805 1334.68 390.924
1920 1 49.1602 14.1171 694 109.759 1334.82 412.765
1921 0 46.1278 8.845 408 117.554 1335.75 414.848
1922 0 47.0985 12.5269 590 111.241 1336.41 413.971
1923 0 48.0419 18.359 882 102.779 1335.47 413.729
1924 0 51.0406 13.6166 695 108.636 1338.82 410.285
1925 0 50.039 14.7485 738 110.084 1338.82 408.322
1926 0 54.0697 13.2607 717 110.7 1339.65 399.085
1927 0 55.0612 13.3306 734 108.695 1339.86 404.388
1928 0 55.1672 13.8126 762 111.941 1341.27 395.581
1929 0 55.1672 13.8126 762 144.723 1342.26 395.657
1930 0 61.2288 15.5972 955 109.889 1343.18 390.405
1931 0 59.1673 13.4365 795 113.624 1342.05 386.52
1932 0 63.359 14.1101 894 112.039 1343.85 393.143
1933 0 61.1298 15.6552 957 111.656 1344.27 392.982
1934 0 67.1209 15.6732 1052 110.227 1343.21 392.724
1935 0 69.3006 18.6723 1294 106.869 1342.65 388.798
1936 0 69.2518 16.7505 1160 110.958 1342.93 398.533
1937 0 71.2125 13.9863 996 115.158 1342.25 406.542
1938 0 72.1773 16.5564 1195 112.73 1341.78 406.264
1939 0 73.0793 16.3521 1195 116.315 1342.02 395.893
1940 0 76.2663 14.987 1143 118.476 1341.03 396.949
1941 0 81.5914 18.1024 1477 113.153 1342.33 396.787
1942 0 83.3119 22.7698 1897 106.07 1340.61 403.462
1943 0 85.2928 21.1272 1802 109.969 1340.77 396.883
1944 0 90.3917 19.3491 1749 111.714 1340.03 396.905
1945 0 94.2809 17.8403 1682 113.08 1337.01 401.457
1946 1 48.4205 13.7752 667 119.178 1337.5 421.667
1947 0 50.0592 13.5639 679 120.007 1336.97 422.711
1948 0 55.5238 14.9305 829 110.937 1335.98 427.683
1949 0 54.073 17.4209 942 108.88 1336.13 432.559
1950 0 59.265 17.7002 1049 107.763 1335.96 434.559
1951 0 58.09 14.03 815 114.118 1334.72 433.844
1952 0 60.1127 14.9885 901 113.078 1334.57 431.269
1953 0 62.2012 16.0447 998 111.627 1334.76 429.764
1954 0 64.2338 14.6185 939 114.234 1335.4 427.115
1955 0 66.2461 14.1744 939 113.866 1333.68 422.392
1956 0 68.4643 15.3657 1052 112.223 1333.33 416.249
1957 0 67.1981 12.5152 841 116.29 1334.2 419.652
1958 0 72.3513 19.2809 1395 105.836 1334.71 418.578
1959 0 71.1184 12.6409 899 118.13 1335.32 414.594
1960 0 74.1706 14.561 1080 114.672 1335.48 416.824
1961 0 78.2125 15.8415 1239 113.5 1335.37 410.429
1962 0 81.1525 17.1159 1389 110.801 1336.09 411.746
1963 0 85.1551 15.1253 1288 114.327 1336.14 409.408
1964 0 87.1687 13.3993 1168 116.917 1336.49 411.026
1965 1 50.3309 15.4577 778 106.184 1338.68 432.94
1966 0 51.0702 15.2339 778 108.455 1338.78 427.501
1967 0 51.3425 15.2505 783 108.281 1339.5 434.185
1968 0 52.1573 13.21 689 109.395 1339.27 418.652
1969 0 53.0923 11.7343 623 110.878 1340.28 417.958
1970 0 56.278 14.9437 841 106.385 1340.32 420.642
1971 0 56.1558 13.694 769 110.176 1340.75 415.897
1972 0 59.1718 11.661 690 110.77 1341.29 420.951
1973 0 62.1567 11.0688 688 113.382 1342.11 425.278
1974 0 64.3103 14.3367 922 109.35 1340.88 414.095
1975 0 64.2992 11.291 726 110.609 1341.52 422.052
1976 0 68.4325 14.4376 988 108.046 1342.68 418.08
1977 0 76.3303 21.3284 1628 98.7531 1342.15 408.937
1978 0 80.4143 22.4711 1807 97.839 1342.41 408.567
1979 0 80.3224 16.4462 1321 106.403 1342.91 417.254
1980 1 41.5046 12.1432 504 111.829 1344.05 434.087
1981 0 42.3344 12.0233 509 113.067 1342.38 432.859
1982 0 46.2811 14.3039 662 107.823 1342.27 433.44
1983 0 47.1099 11.781 555 112.032 1342.26 435.022
1984 0 48.0894 11.8737 571 113.009 1342.4 434.205
1985 0 51.1103 16.4742 842 105.315 1340.93 436.926
1986 0 53.0841 11.6607 619 113.242 1341.56 435.51
1987 0 53.166 13.4485 715 111.517 1338.64 435.09
1988 0 57.2959 15.9348 913 107.152 1339.45 434.131
1989 0 57.11 14.6734 838 110.475 1337.72 428.857
1990 0 60.2752 12.8245 773 113.277 1338.61 430.281
1991 0 62.1055 14.3949 894 109.112 1338.37 432.61
1992 0 65.2632 17.0234 1111 107.088 1337.21 427.403
1993 0 66.1164 14.7467 975 111.023 1336.96 425.914
1994 0 66.123 14.715 973 111.565 1337.42 427.713
1995 0 68.2336 14.9633 1021 111.913 1334.9 422.191
1996 0 72.1442 16.7026 1205 107.893 1335.66 419.642
1997 0 73.1371 14.8078 1083 111.777 1334.91 416.953
1998 0 75.1533 15.4484 1161 111.469 1336.35 409.966
1999 0 77.1933 16.1154 1244 110.393 1335.69 407.287
2000 0 77.1933 16.1931 1250 133.531 1335.69 407.332
2001 0 81.1781 13.5012 1096 114.559 1333.39 400.13
2002 0 83.1286 15.6023 1297 110.525 1335.29 403.781
2003 0 83.162 15.3556 1277 111.83 1334.51 404.124
2004 1 45.0514 11.7865 531 112.471 1337.96 421.164
2005 0 47.091 13.527 637 110.972 1337.92 415.652
2006 0 45.2642 12.1509 550 113.44 1336.84 415.32
2007 0 47.2984 14.6516 693 109.042 1338.31 408.574
2008 0 50.2228 13.46 676 108.839 1338.14 409.414
2009 0 51.3094 14.0325 720 108.889 1339.31 407.05
2010 0 52.1447 13.3475 696 110.125 1340.28 408.687
2011 0 54.5376 14.4854 790 104.504 1339.6 401.434
2012 0 53.2612 11.453 610 108.192 1339.3 404.243
2013 0 55.1833 16.1099 889 103.39 1340.01 401.251
2014 0 59.1646 15.1949 899 103.597 1340.83 402.574
2015 0 59.2304 13.2702 786 107.333 1340.85 398.487
2016 0 64.4783 17.5253 1130 100.104 1342.06 401.079
2017 0 65.2453 18.622 1215 99.2494 1341.77 397.49
2018 0 65.3105 14.1478 924 104.476 1342.46 398.222
2019 0 68.4204 11.0347 755 109.05 1343.43 399.763
2020 0 71.2486 13.8669 988 105.95 1343.53 398.605
2021 0 70.2267 14.026 985 107.687 1342.78 396.153
2022 0 74.3294 14.9873 1114 106.164 1343.36 399.128
2023 0 79.1266 13.8891 1099 107.286 1343 412.591
2024 0 80.2502 16.2616 1305 104.836 1343.14 421.33
2025 0 82.3716 11.7759 970 111.265 1341.7 424.429
2026 1 97.4132 24.2472 2362 92.95 1341.96 408.242
2027 0 95.3935 21.0287 2006 108.943 1342.03 405.561
2028 0 99.4993 23.1459 2303 95.3873 1341.28 407
2029 1 48.1373 11.5503 556 112.698 1341.5 436.63
2030 0 50.3234 14.2876 719 109.605 1339.63 434.584
2031 0 51.0389 13.2252 675 111.767 1340.11 425.692
2032 0 53.0529 13.0247 691 112.165 1339.25 430.31
2033 0 56.0821 13.7834 773 110.812 1339.68 428.135
2034 0 60.0975 16.024 963 107.364 1339.04 425.997
2035 0 59.0624 18.8614 1114 103.499 1337.25 425.086
2036 0 60.0756 14.5983 877 110.383 1336.93 417.74
2037 0 63.0799 16.6772 1052 106.274 1336.43 416.704
2038 0 64.2079 14.4219 926 110.768 1335.78 420.215
2039 0 67.0822 13.0735 877 112.74 1335.86 422.273
2040 0 68.1801 16.0897 1097 108.885 1334.96 416.647
2041 0 73.1108 15.6612 1145 109.171 1335.68 418.601
2042 0 74.0743 13.284 984 112.847 1336.04 417.35
2043 0 73.1888 13.431 983 114.627 1335.68 413.513
2044 0 75.044 14.7114 1104 112.881 1335.68 413.161
2045 0 80.3652 18.5155 1488 106.61 1335.34 411.632
2046 0 83.2927 15.4515 1287 109.838 1335.59 410.545
2047 0 85.1281 16.8217 1432 108.497 1336.11 405.841
2048 0 87.2811 14.5965 1274 111.094 1335.85 407.335
2049 1 45.0341 12.3906 558 111 1338.9 426.581
2050 0 48.1951 11.5364 556 108.716 1337.68 422.367
2051 0 50.1569 13.6771 686 101.671 1337.33 420.573
2052 0 49.091 12.5277 615 104.961 1338.54 415.2
2053 0 51.0614 13.7286 701 102.11 1338.73 417.452
2054 0 53.1078 14.6306 777 100.907 1338.81 416.076
2055 0 55.0672 10.7868 594 105.199 1341.18 416.313
2056 0 55.0672 10.8413 597 127.25 1344.17 416.318
2057 0 57.1114 13.5875 776 102.689 1341.72 408.34
2058 0 57.1114 13.7276 784 126.033 1338.76 408.314
2059 0 60.1536 10.3402 622 105.907 1342.25 408.556
2060 0 62.2535 12.0796 752 104.097 1342.6 403.375
2061 0 65.1816 13.8383 902 101.961 1342.2 408.234
2062 0 70.246 15.0614 1058 99.9301 1341.98 405.539
2063 0 70.1365 14.0155 983 101.678 1341.51 401.616
2064 0 76.3961 16.8857 1290 99.0954 1342.43 402.597
2065 0 78.2062 15.0372 1176 101.358 1342.78 402.712
2066 0 79.2432 12.1777 965 106.593 1343.39 406.996
2067 0 80.3336 11.9751 962 107.137 1342.32 405.993
2068 1 44.1374 12.5064 552 104.73 1342.57 422.21
2069 0 42.2554 9.25326 391 110.908 1341.94 428.113
2070 0 49.207 12.4373 612 107.41 1342.19 437.101
2071 0 49.1858 15.106 743 105.953 1341.81 433.182
2072 0 49.1858 15.167 746 114.48 1340.79 433.225
2073 0 49.1029 10.3252 507 114.069 1340.94 437.322
2074 0 49.1029 10.3252 507 140.821 1340.94 437.353
2075 0 49.1029 10.4067 511 140.043 1340.93 437.393
2076 0 49.0952 10.4084 511 139.609 1340.93 437.393
2077 0 64.4278 18.8738 1216 104.428 1335.53 429.387
2078 1 94.3154 8.49278 801 112.418 1334.44 430.759
2079 1 82.2411 9.36272 770 115.635 1334.78 417.258
2080 0 72.3176 22.6639 1639 100.712 1333.39 396.092
2081 0 71.1592 17.9738 1279 108.521 1334.32 399.988
2082 0 72.2636 14.6132 1056 114.564 1334.15 395.208
2083 1 37.0599 11.8187 438 112.354 1331.79 411.11
2084 0 38.0781 13.1046 499 114.299 1333.4 404.918
2085 0 40.1792 13.3153 535 114.893 1332.93 407.936
2086 0 40.026 16.914 677 105.52 1333.17 414.628
2087 0 39.0656 12.2614 479 115.046 1335.46 414.28
2088 0 42.1634 12.5939 531 109.878 1334.52 415.471
2089 0 43.4123 14.9267 648 107.611 1334.16 404.897
2090 0 43.3014 11.8934 515 112.87 1335.38 406.41
2091 0 42.0578 12.459 524 114.134 1336.65 403.8
2092 0 50.3601 15.7664 794 105.084 1336.51 401.832
2093 0 47.1449 17.3932 820 106.005 1336.8 397.837
2094 0 49.1447 15.0983 742 110.115 1337.48 402.286
2095 0 51.2412 15.8661 813 108.014 1338.85 403.298
2096 0 52.0968 12.8031 667 113.471 1340.04 406.933
2097 0 52.0847 13.4972 703 113.576 1339.23 409.413
2098 0 56.0691 14.3573 805 112.216 1340.16 412.59
2099 0 55.1376 12.3509 681 116.167 1339.92 419.643
2100 0 59.1884 16.5066 977 107.14 1341.33 423.192
2101 0 60.0673 14.9 895 112.463 1342.15 418.144
2102 0 61.0964 13.1268 802 116.106 1341.99 418.673
2103 0 65.1381 14.6151 952 114.119 1342.58 417.129
2104 0 69.1036 16.5693 1145 110.464 1342.3 416.603
2105 0 69.1263 14.0902 974 116.222 1342.46 412.017
2106 0 69.1263 14.1914 981 158.944 1344.45 412.014
2107 0 75.2728 17.2572 1299 112.045 1341.77 407.918
2108 0 80.2005 19.3515 1552 108.512 1341.5 408.004
2109 0 84.1809 20.7767 1749 106.977 1341.34 404.88
2110 0 85.205 16.7948 1431 114.423 1340.59 393.824
2111 1 45.1113 16.4926 744 112.25 1341.58 422.93
2112 0 46.1948 14.8934 688 117.958 1340.47 423.384
2113 0 48.1644 14.6166 704 115.506 1340.24 428.126
2114 0 50.0726 15.4176 772 113.071 1339.42 431.076
2115 0 50.1288 11.9692 600 121.603 1338.41 427.505
2116 0 55.1197 15.929 878 112.639 1337.06 433.856
2117 0 55.3131 13.0891 724 116.686 1336.24 431.997
2118 0 61.1399 15.0638 921 111.206 1336.9 430.99
2119 0 58.118 15.6578 910 114.223 1336.41 423.204
2120 0 60.1605 11.1369 670 120.057 1336.7 424.402
2121 0 65.1875 21.4151 1396 104.263 1335.36 423.352
2122 0 63.1308 14.0977 890 117.658 1334.63 418.69
2123 0 65.2276 12.1574 793 120.683 1334.75 415.755
2124 0 70.299 14.4241 1014 116.156 1334.74 414.472
2125 0 73.138 17.05 1247 113.27 1335.23 410.151
2126 0 71.1995 14.5507 1036 117.84 1335.11 410.831
2127 0 76.1595 16.925 1289 114.283 1333.86 404.032
2128 0 78.108 19.2682 1505 108.791 1334.74 410.561
2129 0 79.0792 14.6941 1162 118.357 1333.27 404.987
2130 0 83.1557 16.403 1364 114.782 1334.64 401.786
2131 1 41.0912 9.90481 407 122.946 1335.42 419.732
2132 0 42.0687 12.123 510 119.253 1334.59 418.653
2133 0 42.1168 12.5366 528 119.634 1336.82 415.413
2134 0 44.0545 11.395 502 121.189 1337.27 421.191
2135 0 45.1468 16.4353 742 113.089 1337.67 420.434
2136 0 45.2358 13.1754 596 118.862 1337.45 416.218
2137 0 43.1336 12.612 544 122.094 1338.63 417.971
2138 0 43.1336 12.6584 546 155.077 1339.64 417.905
2139 0 49.096 13.3208 654 119.434 1339.55 411.431
2140 0 49.1983 14.1468 696 119.608 1340.96 413.588
2141 0 49.1983 14.1875 698 150.731 1342.95 413.636
2142 0 55.0998 16.3522 901 115.39 1340.78 411.153
2143 0 58.3372 15.5304 906 116.339 1340.74 411.711
2144 0 58.5015 14.9398 874 118.892 1341.18 409.074
2145 0 59.0616 14.9844 885 118.305 1342.49 415.268
2146 0 61.2173 15.8289 969 118.88 1341.88 411.485
2147 0 66.3822 17.8512 1185 114.639 1343.26 406.121
2148 0 67.274 18.2091 1225 114.626 1342.29 410.767
2149 0 72.6261 16.6607 1210 115.597 1342.6 411.438
2150 0 72.2188 18.9147 1366 114.053 1342.27 410.645
2151 0 74.137 14.9993 1112 120.925 1341.04 409.405
2152 0 80.4245 19.0116 1529 114.166 1341.84 409.611
2153 0 77.1942 14.7679 1140 123.615 1342.06 406.452
2154 0 85.353 18.4996 1579 116.036 1341.85 402.987
2155 0 88.3293 19.2688 1702 115.772 1340.46 405.596
2156 0 88.3293 19.3141 1706 136.772 1339.44 405.644
2157 1 49.2387 16.2474 800 114.614 1339.17 430.406
2158 0 49.1408 16.239 798 118.1 1336.67 427.091
2159 0 51.0165 14.3875 734 120.759 1337.58 428.492
2160 0 51.1231 14.1619 724 121.738 1335.71 430.124
2161 0 53.2204 14.1675 754 120.711 1336.51 431.503
2162 0 54.1892 13.0469 707 124.334 1335.61 433.45
2163 0 58.5902 13.7566 806 122.066 1335.57 434.223
2164 0 58.1089 17.4156 1012 117.358 1335.3 429.372
2165 0 60.0781 14.9805 900 121.382 1334.08 431.381
2166 0 66.279 15.4498 1024 123.25 1335.1 428.961
2167 0 66.2184 21.5348 1426 114.972 1336.03 424.917
2168 0 67.0931 15.5903 1046 123.612 1335.28 427.672
2169 0 71.4522 16.6265 1188 120.191 1334.56 427.003
2170 0 71.4924 13.5259 967 126.988 1335.17 424.408
2171 0 71.3126 14.3172 1021 127.391 1334.32 421.452
2172 0 75.4459 15.0571 1136 125.004 1334.6 419.041
2173 0 75.4459 15.0836 1138 151.243 1334.6 419.145
2174 0 83.4429 15.987 1334 121.827 1335.66 415.509
2175 0 83.4429 15.8911 1326 150.653 1335.63 415.39
2176 1 45.491 16.9484 771 117.524 1335.57 429.825
2177 0 49.3955 15.5682 769 119.242 1336.34 430.603
2178 0 48.5584 12.9741 630 125.706 1336.56 432.157
2179 0 49.2762 17.4729 861 118.377 1337.91 430.848
2180 0 51.2471 14.0106 718 123.747 1339.15 430.592
2181 0 53.8675 13.2547 714 124.036 1339.7 431.958
2182 0 55.8089 14.908 832 121.522 1340.03 430.547
2183 0 55.4522 15.4006 854 121.998 1340.91 427.424
2184 0 58.3935 14.0255 819 122.101 1340.18 429.72
2185 0 62.578 17.7219 1109 116.648 1340.44 426.988
2186 0 61.6019 12.9541 798 124.728 1341.28 428.868
2187 0 66.4982 15.5042 1031 120.619 1341.37 425.917
2188 0 66.9506 14.0551 941 124.002 1343.02 426.325
2189 0 70.754 13.8932 983 124.083 1343.68 428.284
2190 0 70.6843 13.9494 986 149.361 1344.7 428.16
2191 0 75.2584 15.2541 1148 121.591 1342.77 428.218
2192 0 78.3986 13.5972 1066 124.481 1342.1 428.038
2193 0 81.5878 15.995 1305 120.757 1342.99 425.648
2194 0 85.6126 17.4741 1496 117.432 1343.33 426.246
2195 0 89.3597 13.9325 1245 123.573 1341.87 426.796
2196 0 91.7931 15.6112 1433 120.067 1341.67 425.888
2197 0 95.407 14.087 1344 123.012 1341.91 420.177
2198 0 105.549 18.5506 1958 112.501 1340.47 412.671
2199 1 49.4455 13.5705 671 120.119 1340.42 444.341
2200 0 53.3134 12.3796 660 120.564 1339.17 446.691
2201 0 54.2532 11.9071 646 123.026 1339.52 440.78
2202 0 57.361 13.8422 794 119.71 1337.22 439.164
2203 0 57.4495 13.0375 749 123.096 1336.67 434.591
2204 0 62.6521 13.5191 847 120.574 1337.54 438.158
2205 0 61.4623 13.0486 802 123.081 1337.14 434.373
2206 0 65.6208 16.4277 1078 115.355 1336 436.839
2207 0 70.584 13.19 931 119.762 1335.81 436.516
2208 0 69.6817 14.0209 977 121.906 1334.87 432.801
2209 0 71.4687 13.8102 987 120.396 1334.45 435.583
2210 0 81.8374 18.2557 1494 111.268 1334.35 426.232
2211 0 90.7792 18.176 1650 108.988 1334.04 422.046
2212 0 86.6601 15.6243 1354 115.58 1335.28 425.155
2213 0 87.4491 19.7029 1723 109.835 1334.38 419.961
2214 1 204.2 14.5446 2970 119.237 1334.61 362.362
2215 0 210.629 11.3944 2400 124.94 1333.89 367.225
2216 0 205.631 10.7814 2217 154.893 1332.84 352.149
2217 0 202.899 12.8882 2615 124.837 1334.08 371.181
2218 0 199.909 7.2533 1450 128.279 1335.51 393.469
2219 0 200.971 8.46886 1702 161.12 1336.5 382.095
2220 0 199.491 8.21591 1639 128.026 1337.01 389.962
2221 1 109.172 20.8844 2280 109.143 1338.41 398.989
2222 0 107.772 15.3658 1656 117.703 1336.49 395.074
2223 0 108.774 15.4448 1680 141.485 1334.48 395.47
2224 0 112.823 10.9375 1234 125.189 1337.99 393.143
2225 0 119.103 13.8787 1653 119.064 1339.49 393.876
2226 1 64.43 13.7048 883 112.959 1339.06 418.462
2227 0 70.4299 16.4419 1158 106.96 1339.61 416.718
2228 0 73.4615 16.0628 1180 107.243 1338.63 414.039
2229 0 75.7947 21.7297 1647 98.4608 1339.97 408.835
2230 0 82.4032 19.1497 1578 101.731 1340.69 416.785
2231 0 85.5584 17.2747 1478 102.953 1341.36 412.509
2232 0 83.416 23.6645 1974 97.5208 1340.9 413.988
2233 0 90.6668 22.0588 2000 97.741 1341.22 400.564
2234 0 88.4583 14.5605 1288 109.682 1342.56 397.075
2235 0 86.3776 13.8346 1195 114.18 1342.23 395.378
2236 0 92.7446 14.017 1300 112.598 1341.7 402.103
2237 0 94.4704 14.0044 1323 112.57 1341.43 402.16
2238 1 42.4417 13.76 584 104.683 1338.18 437.351
2239 0 49.4768 13.1577 651 107.587 1340.58 439.839
2240 0 51.628 13.3261 688 105.808 1339.29 441.977
2241 0 53.7699 12.4047 667 110.097 1339.57 432.282
2242 0 56.358 11.6044 654 112.544 1338.09 432.058
2243 0 58.4352 12.4925 730 111.381 1338.43 424.225
2244 0 61.485 11.5313 709 113.061 1337.17 416.766
2245 0 64.5813 12.5733 812 111.569 1336.55 416.27
2246 0 62.327 10.1401 632 116.359 1336.24 414.375
2247 0 70.3401 18.0694 1271 103.829 1335.31 417.846
2248 0 72.7506 15.5325 1130 107.508 1335.6 422.683
2249 0 73.5238 12.2001 897 112.634 1334.41 424.684
2250 0 78.7967 15.4321 1216 106.67 1334.53 425.3
2251 0 81.3859 15.5555 1266 106.731 1334.28 426.152
2252 0 84.5026 15.751 1331 107.147 1333.75 416.963
2253 0 87.4114 16.7255 1462 105.763 1333.19 417.249
2254 0 89.856 17.6616 1587 105.039 1332.31 404.668
2255 0 91.391 14.3231 1309 111.154 1332.42 396.288
2256 1 49.4707 12.2497 606 111.347 1332.59 420.515
2257 0 50.313 10.3154 519 111.26 1332.47 426.557
2258 0 52.2727 10.8087 565 106.465 1333.92 429.404
2259 0 52.4377 14.665 769 106.827 1333.83 432.601
2260 0 54.6668 14.6341 800 109.114 1334.39 434.962
2261 0 58.5618 13.1997 773 110.396 1335.39 428.933
2262 0 58.6225 14.4313 846 110.527 1334.43 427.266
2263 0 58.467 11.6818 683 114.76 1336.03 426.669
2264 0 58.4846 11.6612 682 137.142 1337.06 426.657
2265 0 60.5579 14.4655 876 110.621 1337.02 426.074
2266 0 62.5317 13.1773 824 112.64 1337.87 420.415
2267 0 65.5733 16.5769 1087 107.872 1336.98 411.51
2268 0 65.542 11.9923 786 115.366 1337.13 410.954
2269 0 69.3477 18.0251 1250 105.065 1338.62 415.827
2270 0 69.702 14.7198 1026 110.79 1338.65 417.787
2271 0 70.3595 12.763 898 113.952 1339.38 415.428
2272 0 75.4081 15.5288 1171 106.366 1341.46 414.996
2273 0 75.4081 15.3564 1158 144.156 1343.49 414.893
2274 0 76.4242 15.0999 1154 143.84 1345.53 414.858
2275 0 83.3505 19.52 1627 101.658 1342.33 405.503
2276 0 82.3636 10.4051 857 115.133 1341.35 417.547
2277 0 85.3289 12.0006 1024 113.921 1340.98 418.845
2278 0 93.2702 15.1495 1413 108.359 1342.45 414.008
2279 0 93.2636 14.207 1325 111.003 1342.49 408.595
2280 0 99.3752 13.2226 1314 111.736 1343.24 410.907
2281 1 52.1923 13.776 719 103.431 1341.58 434.675
2282 0 57.43 14.7484 847 101.586 1342.05 431.603
2283 0 57.1992 15.5247 888 100.783 1341.82 436.888
2284 0 58.1072 11.9951 697 106.353 1341.2 431.195
2285 0 62.157 13.8681 862 102.5 1340.94 428.991
2286 0 63.2907 18.7705 1188 96.2062 1339.71 424.525
2287 0 66.3747 15.1564 1006 101.169 1338.93 420.974
2288 0 69.3093 15.6545 1085 101.02 1338.54 416.31
2289 0 69.1716 12.563 869 105.99 1337.63 408.679
2290 0 71.1448 12.6924 903 106.265 1337.57 409.042
2291 0 73.2581 12.9269 947 105.94 1335.2 408.117
2292 0 78.3202 15.0919 1182 102.453 1337.08 409.353
2293 0 79.2178 14.6432 1160 103.478 1335.81 412.426
2294 0 79.2707 15.4912 1228 104.423 1333.72 390.999
2295 0 81.3769 11.9321 971 111.309 1332.31 387.108
2296 0 85.4744 16.6015 1419 103.333 1333.65 395.546
2297 0 85.4744 16.5079 1411 137.084 1335.67 395.389
2298 1 47.2513 10.9415 517 105.965 1334.55 409.046
2299 0 51.4497 16.8125 865 95.8197 1334.47 412.139
2300 0 47.2564 9.45904 447 105.597 1335.41 412.414
2301 0 54.543 13.9523 761 102.606 1335.71 399.884
2302 0 48.1897 12.6376 609 106.673 1335.93 407.13
2303 0 48.1897 12.5961 607 136.97 1335.93 407.066
2304 0 55.1669 12.6706 699 107.481 1337.15 408.575
2305 0 55.1669 12.7794 705 136.145 1338.18 408.596
2306 0 58.2466 11.6917 681 109.034 1338.71 421.421
2307 0 60.1551 12.6672 762 108.928 1337.77 421.937
2308 0 62.2643 12.8324 799 107.686 1340.34 423.267
2309 0 62.2643 12.7842 796 131.675 1342.32 423.261
2310 0 64.2256 13.4682 865 108.946 1341.56 420.697
2311 0 68.1556 14.0707 959 106.244 1341.56 419.369
2312 0 68.1914 10.5292 718 114.153 1341.77 412.635
2313 0 72.1556 15.8962 1147 105.074 1342.69 419.137
2314 0 75.3943 11.1945 844 111.429 1343.07 418.435
2315 0 75.2443 13.4761 1014 110.569 1343.23 409.843
2316 0 77.2122 13.1197 1013 112.149 1343.84 412.364
2317 0 83.2962 14.1663 1180 110.141 1343.23 410.568
2318 0 83.2249 10.6098 883 115.434 1344.12 412.781
2319 0 89.3262 15.4826 1383 108.618 1343.06 410.63
2320 0 92.2435 11.8708 1095 112.441 1342.58 416.231
2321 0 97.3994 14.2917 1392 110.828 1342.35 413.425
2322 1 53.1045 12.4472 661 106.08 1343.66 432.648
2323 0 56.0792 12.8033 718 108.714 1342.05 432.242
2324 0 55.1507 13.1277 724 109.043 1342.78 434.38
2325 0 57.5013 10.7128 616 111.794 1340.7 440.904
2326 0 60.1643 13.4631 810 107.383 1341.91 433.668
2327 0 63.1313 14.2243 898 106.313 1341.27 430.883
2328 0 66.14 16.2836 1077 103.406 1340.58 432.224
2329 0 67.1842 14.7952 994 105.899 1339.35 430.212
2330 0 73.3174 17.1992 1261 99.521 1338.8 435.141
2331 0 72.2034 12.4925 902 108.733 1337.88 429.663
2332 0 76.2615 15.0666 1149 105.65 1337.69 416.06
2333 0 78.2416 14.6214 1144 106.256 1337.96 416.475
2334 0 83.3312 23.3886 1949 95.178 1336.45 417.56
2335 0 81.25 18.3754 1493 100.281 1336.27 421.11
2336 0 85.3497 15.747 1344 105.565 1335.68 417.048
2337 0 88.3481 14.0693 1243 107.963 1335.94 417.99
2338 0 89.1946 10.976 979 113.473 1336.25 413.132
2339 0 94.1886 17.2314 1623 104.486 1335.27 409.729
2340 1 50.2323 13.1589 661 106.599 1336.32 432.126
2341 0 53.2856 12.1421 647 108.301 1337.46 430.949
2342 0 55.1494 14.2341 785 102.968 1336.45 438.921
2343 0 51.0697 16.7418 855 103.843 1336.09 432.266
2344 0 54.0888 14.5871 789 106.487 1337.09 432.572
2345 0 55.1521 13.5988 750 108.319 1337.54 427.996
2346 0 57.1075 13.676 781 108.255 1338.04 424.766
2347 0 59.1585 12.2383 724 109.804 1337.73 424.819
2348 0 59.245 18.4657 1094 102.426 1338.6 420.301
2349 0 59.3534 13.8493 822 108.378 1339.29 425.318
2350 0 61.1609 14.094 862 109.051 1340.23 419.908
2351 0 61.1609 14.094 862 128.056 1341.23 419.908
2352 0 63.2272 12.3997 784 113.283 1340.58 417.649
2353 0 68.1907 14.958 1020 107.899 1342.16 419.911
2354 0 71.3902 15.2262 1087 107.055 1342.85 417.164
2355 0 70.1771 15.2899 1073 107.689 1342.71 418.686
2356 0 73.1429 14.2734 1044 109.078 1343.1 416.827
2357 0 71.1666 11.6206 827 114.267 1342.49 415.842
2358 0 80.4265 13.3662 1075 107.833 1344.77 419.939
2359 0 79.1666 13.5032 1069 111.119 1344.55 414.047
2360 0 84.2324 15.1486 1276 107.633 1344.36 416.634
2361 0 92.1828 9.35098 862 115.368 1343.13 421.813
2362 0 91.2831 15.3259 1399 107.3 1343.71 412.131
2363 0 93.1166 15.733 1465 107.483 1342.64 410.382
2364 0 95.3146 12.485 1190 112.306 1344.03 415.608
2365 1 50.1065 10.0586 504 112.302 1343.77 436.175
2366 0 55.1895 11.7414 648 107.875 1343.02 436.315
2367 0 59.1944 16.0488 950 101.4 1339.26 437.946
2368 0 54.152 11.7447 636 110.569 1337.85 437.47
2369 0 60.1993 13.1397 791 105.965 1335.48 441.224
2370 0 63.1526 12.8894 814 107.713 1335.54 417.6
2371 0 61.137 10.8936 666 112.317 1334.97 413.635
2372 0 71.2845 16.2167 1156 101.529 1332.76 423.421
2373 0 67.0915 12.2072 819 108.877 1333.88 422.777
2374 1 137.641 14.6177 2012 111.317 1333.4 389.209
2375 1 72.1398 14.1947 1024 107.759 1331.68 420.514
2376 0 72.1398 14.1392 1020 138.251 1330.67 420.523
2377 0 76.1711 16.1085 1227 105.678 1331.14 415.776
2378 0 79.2783 17.3187 1373 103.549 1330.88 412.645
2379 0 80.0637 16.1496 1293 106.287 1330.18 411.458
2380 0 83.18 13.5369 1126 109.054 1330.55 421.345
2381 0 87.3499 15.5352 1357 107.33 1332.9 417.619
2382 0 88.3835 18.9741 1677 103.081 1332.72 421.698
2383 0 89.4256 12.2113 1092 112.803 1331.36 417.983
2384 0 94.4989 12.1589 1149 110.8 1332.19 422.921
2385 1 53.4914 11.1046 594 111.838 1333.5 438.653
2386 0 50.4671 13.5138 682 109.729 1333.57 436.359
2387 0 54.3284 15.9401 866 104.965 1334.75 436.068
2388 0 54.313 12.9435 703 139.279 1336.21 437.861
2389 0 56.5762 13.0443 738 110.923 1334.72 425.598
2390 0 60.374 17.2922 1044 104.523 1335.41 425.216
2391 0 62.5549 15.5703 974 106.153 1336.24 425.148
2392 0 62.3901 14.794 923 109.137 1335.85 420.769
2393 0 62.297 13.227 824 112.801 1337.72 420.01
2394 0 67.3023 15.4378 1039 108.632 1338.08 419.823
2395 0 70.384 15.6996 1105 108.071 1339.36 422.068
2396 0 71.3861 17.2162 1229 107.398 1338.99 417.517
2397 0 72.31 14.1474 1023 113.335 1340.28 415.682
2398 0 75.3518 13.9479 1051 113.637 1340.66 418.686
2399 0 78.2931 13.4111 1050 115.572 1340.69 420.514
2400 0 83.3442 18.4776 1540 108.254 1341.27 420.243
2401 0 82.3857 16.0829 1325 114.334 1340.9 413.862
2402 0 87.2766 15.4452 1348 114.914 1339.3 412.544
2403 0 90.2661 13.5267 1221 118.963 1339.07 418.789
2404 0 93.2903 16.9685 1583 114.066 1340.03 415.406
2405 1 51.1843 11.527 590 119.283 1340.99 439.907
2406 0 51.1797 10.7269 549 122.696 1340.66 444.288
2407 0 53.3209 12.3966 661 121.927 1338.31 442.422
2408 0 57.3986 13.0491 749 119.773 1339.23 437.362
2409 0 59.4381 14.9736 890 115.97 1340.67 438.824
2410 0 62.3477 13.4728 840 119.201 1338.05 435.539
2411 0 63.2532 15.0348 951 117.364 1337.51 436.056
2412 0 64.2735 14.9206 959 118.596 1336.35 429.333
2413 0 69.6492 14.6735 1022 116.035 1335.68 436.084
2414 0 72.4358 15.3239 1110 116.773 1334.56 430.804
2415 0 72.3494 14.8032 1071 118.079 1334.58 431.739
2416 0 75.287 14.9428 1125 119.277 1333.57 422.02
2417 0 79.6336 16.4755 1312 116.796 1333.42 421.861
2418 0 78.3342 15.6509 1226 119.918 1332.47 422.94
2419 0 83.4784 14.6745 1225 119.962 1332 422.708
2420 0 82.4065 16.2245 1337 119.301 1331.98 416.811
2421 0 88.4292 15.3795 1360 120.087 1332.51 418.844
2422 1 50.57 12.0229 608 120.962 1333.88 438.597
2423 0 46.4349 9.28181 431 128.202 1333.49 441.392
2424 0 52.1774 13.4541 702 114.93 1334.52 440.865
2425 0 55.5051 12.4313 690 116.319 1334.09 437.513
2426 0 55.2594 13.0295 720 117.61 1333.92 436.45
2427 0 56.279 15.3521 864 112.95 1334.18 432.418
2428 0 55.2446 11.5305 637 120.022 1334.68 434.049
2429 0 60.1661 18.4822 1112 106.665 1335.46 427.035
2430 0 61.144 13.2965 813 114.619 1336.94 427.829
2431 0 65.1818 16.7532 1092 108.859 1337.57 420.897
2432 0 65.1818 16.7071 1089 125.93 1338.57 420.85
2433 0 65.1366 13.8939 905 115.072 1338.87 407.838
2434 0 68.2239 13.1772 899 116.89 1338.94 405.443
2435 0 70.3958 13.5662 955 115.33 1339.73 405.869
2436 0 72.1664 15.7968 1140 112.939 1340.45 404.693
2437 0 74.2265 10.8856 808 120.99 1340.45 400.379
2438 0 74.2265 10.8856 808 145.818 1340.47 400.629
2439 0 81.1244 16.259 1319 112.026 1340.94 397.71
2440 1 40.0785 10.1301 406 117.355 1343.2 418.889
2441 0 45.1542 13.62 615 111.541 1342.08 416.912
2442 0 47.0512 10.4142 490 115.076 1342.29 416.635
2443 0 48.1482 14.6838 707 111.052 1341.29 426.301
2444 0 48.1097 11.8271 569 116.508 1342.83 437.114
2445 0 48.2641 14.9386 721 113.019 1340.78 439.505
2446 0 51.2992 12.7682 655 116.719 1341.24 441.16
2447 0 54.3643 14.2557 775 113.16 1341.81 442.196
2448 0 56.0843 12.3564 693 117.802 1341.32 437.642
2449 0 55.1873 11.9593 660 119.503 1340.5 429.3
2450 0 58.1549 13.8939 808 116.257 1340.61 426.89
2451 0 62.2357 16.5018 1027 110.397 1338.84 432.888
2452 0 62.2357 16.4214 1022 128.05 1337.85 432.866
2453 0 64.1276 14.2996 917 115.471 1337.35 434.648
2454 0 66.0779 13.6657 903 115.41 1336.57 434.971
2455 0 71.1608 12.7598 908 117.424 1336.45 422.284
2456 0 71.1796 12.4052 883 119.173 1334.56 419.668
2457 0 74.2396 16.0965 1195 113.212 1334.11 421.275
2458 0 78.1717 14.6217 1143 114.735 1333.56 416.119
2459 0 81.1313 13.8664 1125 116.451 1334.36 414.017
2460 0 82.2029 13.5032 1110 117.426 1333.97 412.285
2461 0 86.208 16.6342 1434 113.069 1334.14 395.121
2462 1 47.0683 10.028 472 118.335 1335.15 414.337
2463 0 48.0336 10.2637 493 119.442 1335.75 412.787
2464 0 48.0584 10.6745 513 114.596 1334.02 414.712
2465 0 45.0408 10.3462 466 118.489 1334.03 410.543
2466 0 49.1025 10.2031 501 113.028 1331.61 413.691
2467 0 51.0283 12.5225 639 109.754 1331.74 414.135
2468 0 50.2189 9.9365 499 112.838 1332.95 414.858
2469 0 54.0852 13.83 748 107.057 1333.59 418.029
2470 0 54.135 11.4529 620 111.276 1333.81 415.244
2471 0 55.0686 15.0358 828 106.227 1335.11 416.169
2472 0 58.1282 14.4164 838 107.137 1335.16 415.732
2473 0 61.1636 11.2976 691 111.69 1335.58 411.731
2474 0 62.1176 15.0038 932 106.678 1336.3 400.43
2475 0 64.152 14.263 915 107.092 1337.64 402.166
2476 0 66.1001 15.9153 1052 105.322 1338.22 397.6
2477 0 68.1264 16.029 1092 105.111 1339.51 398.158
2478 0 69.2361 13.8512 959 108.347 1339.74 401.63
2479 0 72.0866 15.1346 1091 106.958 1340.25 402.959
2480 0 73.0698 14.1235 1032 107.859 1339.12 409.967
2481 0 78.1581 15.8397 1238 106.334 1340.38 404.876
2482 0 79.1919 15.936 1262 107.258 1339.75 404.934
2483 0 84.1737 14.3037 1204 109.422 1340.36 406.751
2484 0 83.1222 13.4381 1117 111.42 1338.22 412.49
2485 0 83.1222 13.5584 1127 131.111 1335.21 412.574
2486 0 88.2062 11.6092 1024 115.457 1339 409.272
2487 0 93.3161 13.3203 1243 113.114 1338.93 408.646
2488 0 96.1276 12.9203 1242 113.899 1338.09 409.179
2489 0 100.253 13.9946 1403 112.633 1339.5 408.747
2490 0 104.183 16.471 1716 109.652 1338.86 408.754
2491 0 104.38 13.2784 1386 116.004 1337.68 406.835
2492 0 110.449 14.5316 1605 113.906 1338.4 406.206
2493 0 116.391 18.1716 2115 109.269 1337.32 403.909
2494 0 121.214 14.7178 1784 113.714 1336.18 399.845
2495 0 121.214 14.6848 1780 147.454 1335.18 399.739
2496 0 129.401 19.9149 2577 108.175 1334.15 382.88
2497 0 135.361 16.6666 2256 111.899 1334.36 387.639
2498 0 139.361 14.8679 2072 116.124 1333.8 377.647
2499 0 140.393 14.2529 2001 118.705 1333.69 371.229
2500 0 152.673 19.8595 3032 109.496 1334.31 374.003
2501 0 152.459 14.4694 2206 119.236 1333.35 372.004
2502 0 160.441 15.4137 2473 118.167 1333.55 364.41
2503 0 164.617 18.9591 3121 113.489 1333.29 369.082
2504 0 167.573 16.9419 2839 117.244 1333.12 371.992
2505 0 174.844 18.548 3243 115.467 1332.91 370.197
2506 0 177.688 15.5103 2756 122.207 1332.68 371.714
2507 0 186.585 20.8752 3895 113.207 1333.06 363.728
2508 0 190.049 16.5484 3145 120.803 1333.21 357.495
2509 0 194.427 15.003 2917 124.282 1333.63 360.43
2510 0 194.427 14.9773 2912 156.611 1334.62 360.348
2511 1 260.808 16.3875 4274 122.564 1332.72 333.934
2512 0 271.805 20.6435 5611 116.126 1333.61 328.101
2513 0 279.783 17.5887 4921 120.207 1335.2 332.884
2514 0 286.077 20.8545 5966 116.271 1336.38 317.788
2515 0 287.039 14.2141 4080 126.952 1336.28 319.923
2516 1 267.104 10.6064 2833 132.312 1337.38 332.216
2517 0 265.912 8.54794 2273 173.91 1338.43 343.244
2518 1 195.673 14.8615 2908 121.933 1337.48 366.345
2519 0 203.053 16.3406 3318 120.434 1337.6 363.013
2520 0 210.831 14.495 3056 124.71 1338.23 355.585
2521 0 218.683 14.066 3076 125.772 1339.01 350.702
2522 0 226.097 15.8693 3588 122.669 1338.72 346.965
2523 0 236.038 15.561 3673 124.285 1340.42 341.342
2524 0 245.817 15.243 3747 124.592 1339.26 330.994
2525 0 254.96 15.7986 4028 123.732 1339.8 332.273
2526 1 62.422 10.7494 671 110.095 1339.4 439.76
2527 0 65.3547 12.0114 785 109.65 1338.61 436.824
2528 0 69.5862 12.2007 849 108.496 1338.49 436.155
2529 0 74.5277 13.4849 1005 106.475 1338.33 433.903
2530 0 74.4153 10.7774 802 110.956 1338.12 429.976
2531 0 78.4999 13.5414 1063 106.357 1337.74 433.053
2532 0 82.4312 13.2474 1092 106.777 1338.26 430.051
2533 1 47.3744 9.51992 451 108.164 1335.35 452.876
2534 0 48.4209 9.2935 450 106.551 1337.69 439.162
2535 0 52.058 10.373 540 102.352 1336.81 438.5
2536 0 52.085 12.5564 654 100.44 1335.43 437.323
2537 0 52.1455 11.7748 614 102.423 1334.11 433.888
2538 0 53.2546 10.7221 571 104.697 1333.29 430.541
2539 0 57.17 12.2092 698 101.699 1332.65 431.629
2540 0 59.1868 12.3169 729 101.516 1332.57 431.418
2541 1 95.0724 15.1674 1442 89.3759 1331.55 419.54
2542 0 98.7183 28.0394 2768 78.8761 1331.2 413.141
2543 0 93.3912 27.0903 2530 81.013 1331.57 413.249
2544 0 93.9299 12.9458 1216 94.5123 1332.28 420.595
2545 0 89.7089 18.9836 1703 88.8068 1332.34 414.601
2546 0 92.1396 22.3791 2062 86.0645 1332.54 412.824
2547 0 87.458 19.4722 1703 90.0206 1331.83 417.019
2548 0 88.819 18.1943 1616 91.1745 1331.7 402.324
2549 0 85.4347 20.3547 1739 91.6049 1331.79 405.784
2550 0 79.6154 15.3865 1225 98.88 1331.67 407.131
2551 0 81.56 12.7146 1037 103.137 1332.86 402.425
2552 0 83.5619 16.7421 1399 98.0751 1331.92 407.55
2553 0 86.3124 17.9001 1545 97.4505 1333.98 402.656
2554 0 89.3661 14.1441 1264 101.753 1334.02 404.732
2555 0 91.2954 14.9405 1364 103.264 1335.47 397.497
2556 0 93.4642 14.0802 1316 104.12 1336.02 394.765
2557 0 96.3586 15.8367 1526 104.1 1337.33 385.892
2558 0 99.4657 16.2066 1612 103.953 1337.34 381.696
2559 0 101.551 13.4612 1367 108.617 1339.23 382.016
2560 0 104.341 11.4145 1191 111.514 1338.6 386.804
2561 0 104.341 11.472 1197 142.551 1337.6 386.804
2562 1 58.577 9.88443 579 110.53 1339.3 412.371
2563 0 63.3498 12.1863 772 106.477 1339.43 417.427
2564 0 62.4674 16.2965 1018 103.305 1340.07 415.799
2565 0 66.4568 18.3427 1219 100.797 1338.72 414.776
2566 0 64.2519 15.1279 972 108.367 1339.09 412.158
2567 0 68.387 13.058 893 110.483 1338.54 419.228
2568 0 69.3464 12.3583 857 111.064 1340.23 419.863
2569 0 74.3292 15.6197 1161 107.381 1339.77 408.426
2570 0 77.332 13.5649 1049 110.316 1338.48 410.237
2571 0 77.332 13.552 1048 160.297 1336.47 410.121
2572 0 82.2602 15.1714 1248 109.122 1338.59 397.189
2573 0 84.2368 20.6204 1737 101.17 1338.36 410.985
2574 0 87.1458 19.2321 1676 103.547 1337.96 415.036
2575 0 85.1877 14.2861 1217 112.802 1336.88 427.379
2576 0 88.2526 12.8042 1130 115.732 1336.73 428.013
2577 0 94.2248 17.4583 1645 109.074 1335.17 403.229
2578 0 96.246 17.0916 1645 109.601 1335.28 410.622
2579 0 97.3085 17.1003 1664 109.197 1334.05 421.299
2580 0 102.391 14.4642 1481 112.829 1334.13 423.198
2581 0 104.318 13.5547 1414 113.914 1334.48 410.465
2582 0 109.282 14.5038 1585 111.22 1333.76 416.013
2583 0 111.348 12.9953 1447 115.238 1332.76 404.247
2584 0 114.237 13.5858 1552 114.853 1332.15 400.605
2585 0 120.512 18.4213 2220 104.091 1332.56 406.192
2586 0 120.529 15.5979 1880 107.529 1331.31 402.324
2587 0 125.326 13.5407 1697 112.575 1332.31 394.411
2588 1 71.3028 15.4692 1103 100.992 1330.51 422.77
2589 0 72.1251 15.2513 1100 101.94 1331.3 421.076
2590 0 74.0894 16.696 1237 98.1156 1330.73 429.717
2591 0 75.259 11.6797 879 107.852 1331.93 415.556
2592 0 80.3339 16.4065 1318 99.6745 1332.38 418.884
2593 0 79.2067 11.0723 877 109.903 1331.93 409.346
2594 0 83.1812 13.681 1138 106.79 1332.58 409.143
2595 0 83.1812 13.5848 1130 147.015 1333.62 408.995
2596 0 88.3222 18.0362 1593 101.875 1332.24 408.654
2597 0 92.2213 12.9688 1196 107.149 1333.72 413.436
2598 0 93.4021 14.293 1335 105.328 1335.26 408.847
2599 0 97.4394 19.4069 1891 97.9889 1335.27 406.254
2600 0 102.29 14.6544 1499 104.66 1336.48 403.449
2601 0 107.759 15.776 1700 103.041 1336.31 403.215
2602 0 108.346 14.2692 1546 104.734 1335.56 402.529
2603 0 110.394 13.9501 1540 105.83 1336.79 395.166
2604 0 117.384 14.9509 1755 103.88 1337.14 403.1
2605 0 120.696 11.7816 1422 109.15 1337.68 397.074
2606 0 127.536 12.1064 1544 109.163 1338.2 401.168
2607 1 67.357 17.7264 1194 98.8735 1337.74 427.807
2608 0 67.357 17.86 1203 135.934 1337.77 427.855
2609 0 72.536 18.2392 1323 100.792 1337.95 428.658
2610 0 75.3262 14.7094 1108 105.354 1337.51 429.082
2611 0 78.8018 12.6393 996 108.077 1338.42 431.765
2612 0 81.8213 18.6748 1528 100.454 1338.11 429.604
2613 0 83.6689 17.8083 1490 103.485 1336.94 431.581
2614 0 83.6689 17.9398 1501 141.157 1335.99 431.548
2615 0 91.5794 14.4683 1325 110.091 1335.95 416.546
2616 0 95.2863 14.3357 1366 107.059 1333.94 422.118
2617 0 97.5367 13.3898 1306 107.963 1333.73 422.143
2618 0 97.5367 13.4513 1312 145.244 1332.7 422.191
2619 0 106.585 17.0004 1812 105.166 1332.11 416.719
2620 0 110.599 14.3854 1591 108.222 1331.89 415.966
2621 1 55.4012 14.9816 830 101.142 1332.14 437.716
2622 0 57.2231 12.3726 708 102.016 1331.33 439.525
2623 0 59.2037 10.1007 598 106.928 1331.48 433.736
2624 0 62.2507 16.5621 1031 98.3356 1330.58 434.964
2625 0 61.1798 18.3067 1120 95.4018 1330.95 435.701
2626 0 62.3105 14.4438 900 102.302 1331.91 430.998
2627 0 67.1844 12.5029 840 103.964 1330.5 429.327
2628 0 68.3201 12.6171 862 105.067 1331.36 423.077
2629 0 71.1046 14.1904 1009 103.292 1330.33 422.617
2630 0 75.2417 15.7625 1186 101.755 1331.91 419.702
2631 0 76.2315 14.8233 1130 102.144 1332.39 419.83
2632 0 78.4547 13.9571 1095 104.456 1332.62 414.005
2633 0 81.3639 15.3262 1247 102.085 1332.33 415.377
2634 0 82.2875 10.9737 903 109.321 1333.61 414.557
2635 0 83.2246 17.1343 1426 102.187 1333.47 409.994
2636 0 85.3557 13.9182 1188 106.649 1334.85 407.862
2637 0 89.4522 16.3216 1460 102.808 1334.77 408.758
2638 0 92.4285 13.9026 1285 105.405 1336.29 401.578
2639 0 92.4 17.3593 1604 100.605 1335.49 400.944
2640 0 99.4329 17.3685 1727 102.662 1337.62 393.152
2641 0 100.332 13.5749 1362 107.3 1336.45 398.159
2642 1 123.482 14.4393 1783 103.063 1338.11 400.623
2643 0 126.408 20.3943 2578 96.0054 1338.74 407.179
2644 0 131.528 17.7377 2333 100.775 1339.21 403.687
2645 0 135.324 14.5724 1972 103.412 1338.52 398.099
2646 0 139.741 18.6631 2608 99.2696 1338.74 397.204
2647 0 140.83 11.1482 1570 108.034 1338.33 399.555
2648 0 147.899 16.9507 2507 100.798 1337.71 400.522
2649 0 154.748 17.06 2640 101.559 1337.63 397.974
2650 0 158.845 14.19 2254 104.981 1336.05 395.345
2651 0 164.058 17.6401 2894 102.87 1335.59 383.492
2652 0 165.857 16.0499 2662 104.541 1336.27 390.852
2653 0 172.14 19.0891 3286 101.936 1333.16 390.99
2654 0 175.843 21.7012 3816 100.134 1332.65 382.181
2655 0 178.758 14.6176 2613 107.55 1332.28 390.199
2656 0 184.907 16.1919 2994 106.9 1331.49 370.175
2657 0 188.925 15.9005 3004 106.662 1330.79 379.755
2658 0 197.96 24.308 4812 97.5854 1330.49 373.027
2659 0 201.523 12.9762 2615 111.309 1330.43 364.966
2660 0 201.523 12.9911 2618 145.891 1329.42 364.697
2661 1 215.141 21.0094 4520 103.187 1329.83 355.802
2662 0 220.092 16.9111 3722 107.6 1329.5 363.242
2663 0 220.092 16.902 3720 151.062 1329.49 363.32
2664 1 231.895 20.5826 4773 104.478 1329.92 351.151
2665 0 231.895 20.5524 4766 138.151 1328.9 351.363
2666 0 231.904 20.4481 4742 137.877 1327.92 351.522
2667 1 248.293 15.0226 3730 112.989 1330.62 342.919
2668 0 258.925 18.3799 4759 109.56 1330.99 329.894
2669 0 266.322 20.5916 5484 106.959 1329.7 323.229
2670 0 276.038 23.12 6382 104.259 1331.39 322.447
2671 0 280.882 24.1774 6791 103.678 1330.16 321.753
2672 0 286.956 19.8149 5686 109.274 1330.89 315.576
2673 0 295.832 22.8238 6752 105.734 1331.03 313.448
2674 0 306.439 24.1875 7412 104.401 1331.63 307.892
2675 0 315.19 27.4501 8652 101.132 1330.52 296.777
2676 0 317.318 22.4633 7128 107.372 1332.54 292.984
2677 0 325.053 18.8708 6134 111.622 1334.47 287.195
2678 0 335.178 20.9083 7008 108.598 1334.64 279.327
2680 0 340.855 25.2629 8611 103.941 1334.51 279.67
2682 0 338.86 22.2363 7535 108.989 1336.23 275.142
2683 0 325.643 19.8807 6474 113.468 1337.14 268.851
2684 0 335.747 18.0166 6049 115.746 1338.17 273.543
2685 0 347.631 26.0104 9042 105.171 1334.53 281.408
2687 0 341.896 28.5876 9774 101.679 1333.51 279.374
2688 0 348.982 18.5224 6464 114.478 1337.62 278.258
2690 0 358.968 26.4536 9496 103.784 1334.28 284.767
2691 0 353.929 19.7723 6998 112.28 1337.54 279.377
2692 0 354.887 21.6069 7668 109.906 1336.63 280.556
2693 0 357.844 30.9996 11093 99.1113 1332.42 287.103
2696 0 344.262 14.8898 5126 121.051 1334.46 270.678
2697 0 344.262 14.8898 5126 161.081 1334.46 270.678
