time division length width area intensity CMx CMy
0 0 47.1427 15.6122 736 138.147 1274.73 468.236
1 0 49.0603 15.7765 774 136.013 1273.54 468.615
2 0 50.0767 15.1368 758 130.338 1272.88 469.422
3 0 48.0521 12.424 597 146.643 1272.33 469.08
4 0 53.13 16.8078 893 128.579 1271.61 468.657
5 0 56.0803 14.3187 803 131.321 1270.91 467.729
6 0 54.103 15.0454 814 133.704 1269.61 465.33
7 0 56.2275 13.9611 785 140.124 1269.21 466.214
8 0 57.1992 13.5316 774 137.233 1269.41 466.563
9 0 58.0831 15.4434 897 136.566 1267.2 463.484
10 0 61.1192 13.9563 853 139.103 1267.65 464.009
11 0 62.0916 15.0745 936 133.797 1265.66 461.838
12 0 65.1802 14.6977 958 135.936 1265.89 461.405
13 0 66.3227 15.9222 1056 135.23 1266.13 455.33
14 0 67.2307 15.0675 1013 133.909 1265.92 459.769
15 0 72.2816 16.6847 1206 131.386 1266.21 454.032
16 0 73.3843 14.9487 1097 137.981 1266.11 449.254
17 1 40.0814 11.6014 465 135.551 1267.01 466.819
18 0 43.0668 11.308 487 134.409 1267.46 464.632
19 0 43.0668 11.3312 488 156.471 1267.49 464.721
20 0 47.0819 12.2552 577 137.629 1266.7 461.251
21 0 47.2141 14.4025 680 134.075 1268.25 457.537
22 0 48.2516 13.6783 660 136.908 1265.92 456.829
23 0 48.0672 14.3341 689 131.637 1270.09 456.544
24 0 50.0311 14.431 722 131.345 1267.93 456.133
25 0 54.074 15.9781 864 126.721 1270.92 453.025
26 0 53.0216 14.7298 781 129.379 1270.7 452.898
27 0 56.1178 17.0712 958 123.995 1271.7 454.511
28 0 57.0827 14.2775 815 130.151 1272.48 451.211
29 0 62.1702 15.7632 980 123.9 1274.38 447.883
30 0 65.0894 16.1931 1054 122.027 1275.13 449.686
31 0 66.1143 15.3371 1014 126.222 1275.78 446.712
32 0 66.0932 13.5415 895 128.732 1276.01 446.474
33 0 71.1816 16.184 1152 122.12 1277.34 446.78
34 0 70.3015 15.2486 1072 124.085 1277.51 445.346
35 0 74.1477 15.5096 1150 126.741 1278.85 444.778
36 0 77.1374 13.5862 1048 127.974 1277.45 444.488
37 0 79.2066 15.7563 1248 123.748 1279.78 444.327
38 0 84.3222 19.4374 1639 114.147 1278.83 446.538
39 0 84.3222 19.6271 1655 131.231 1277.81 446.541
40 0 89.3409 14.5734 1302 118.521 1279.7 445.916
41 0 92.2358 16.5554 1527 120.016 1279.3 442.226
42 1 47.0458 13.6463 642 148.07 1278.28 464.749
43 0 49.1131 13.7031 673 118.325 1277.1 464.553
44 0 54.2494 15.6131 847 113.247 1276.98 464.275
45 0 53.15 16.4817 876 119.079 1276.27 465.998
46 0 53.15 16.5193 878 132.108 1275.29 465.987
47 0 57.1831 16.1236 922 126.992 1274.7 461.869
48 0 59.0859 13.675 808 130.066 1273.99 461.479
49 0 62.1909 16.2725 1012 126.992 1273.3 463.147
50 0 64.1374 14.6092 937 129.529 1273.82 463.644
51 0 68.1202 16.4269 1119 127.386 1272.4 462.872
52 0 68.1202 16.5003 1124 136.55 1271.42 462.738
53 0 72.0483 15.4618 1114 131.878 1269.5 460.013
54 0 73.1471 14.8741 1088 135.699 1270.1 457.573
55 0 74.1311 13.1119 972 139.466 1269.5 456.497
56 0 77.1445 14.4015 1111 135.744 1269.85 450.295
57 0 80.2235 15.8557 1272 131.244 1269.19 452.171
58 0 84.0698 13.8218 1162 134.677 1269.08 450.828
59 0 89.1805 14.8687 1326 135.005 1268.51 445.448
60 0 90.414 15.7608 1425 134.368 1269.12 443.1
61 1 50.0488 13.8065 691 128.848 1269.67 463.67
62 0 50.1814 10.8008 542 135.214 1268.99 459.411
63 0 53.1009 12.9376 687 130.048 1268.27 459.263
64 0 56.1406 14.2143 798 129.658 1269.09 457.074
65 0 55.1459 16.3203 900 126.622 1267.28 458.707
66 0 57.1088 12.8351 733 133.869 1266.69 457.939
67 0 57.0755 12.1593 694 135.932 1267.9 455.399
68 0 62.1605 16.8596 1048 124.461 1268.56 454.835
69 0 63.0785 15.235 961 128.797 1268.19 451.53
70 0 65.2555 18.0828 1180 122.293 1269.43 452.47
71 0 68.0692 15.3961 1048 129.666 1268.06 447.188
72 0 71.2777 15.5168 1106 127.37 1269.72 448.064
73 0 72.1633 14.2593 1029 131.36 1269.97 445.587
74 0 74.1271 17.9422 1330 124.944 1270.29 443.486
75 0 77.2058 16.333 1261 126.233 1271.17 445.616
76 0 81.1854 16.6409 1351 125.319 1271.92 442.944
77 0 81.165 14.144 1148 131.199 1271.76 443.328
78 0 87.1617 15.4426 1346 129.482 1272.19 442.322
79 0 88.1511 16.1881 1427 128.89 1273.1 442.849
80 0 94.1645 15.7066 1479 129.299 1274.64 441.982
81 1 47.1314 11.9878 565 131.991 1274.27 465.388
82 0 48.1618 12.022 579 130.717 1273.55 465.687
83 0 52.0696 11.0621 576 133.316 1273.24 465.042
84 0 54.2004 13.653 740 129.216 1273.89 462.98
85 0 54.0812 13.7941 746 130.685 1272.99 463.495
86 0 53.0633 13.1353 697 133.987 1273.6 464.547
87 0 56.1226 13.5774 762 132.688 1272.8 466.322
88 0 59.1095 12.2484 724 134.899 1272.66 467.579
89 0 60.1213 14.5872 877 131.14 1272.38 466.407
90 0 62.2774 14.9492 931 131.201 1273.22 461.031
91 0 65.1258 16.6754 1086 121.453 1273.53 465.075
92 0 65.2464 13.1808 860 129.221 1273.55 464.664
93 0 70.1911 15.7427 1105 122.907 1273.1 464.655
94 0 70.2089 14.5993 1025 127.898 1271.1 462.826
95 0 73.113 13.4449 983 130.621 1271.45 460.957
96 0 74.2166 15.32 1137 127.452 1268.01 459.691
97 0 77.1304 14.9098 1150 126.48 1270.47 457.594
98 0 77.1304 14.8061 1142 143.161 1273.47 457.524
99 1 45.0916 10.1127 456 134.757 1265.78 474.235
100 0 45.1416 14.1554 639 125.537 1265.9 472.188
101 0 46.0504 13.3332 614 123.22 1265.48 472.047
102 0 47.0567 14.6207 688 136.068 1264.42 471.166
103 0 47.0774 12.8512 605 126.015 1264.59 470.729
104 0 48.0917 13.6614 657 123.152 1264.58 470.216
105 0 51.0673 15.2544 779 120.027 1265.18 467.286
106 0 51.0603 15.1585 774 134.093 1265.16 467.171
107 0 55.1166 12.6459 697 127.813 1263.33 461.736
108 0 56.0769 14.6228 820 121.088 1263.61 463.672
109 0 60.1064 14.9734 900 121.427 1263.95 461.218
110 0 60.1743 14.0259 844 124.3 1264.7 457.786
111 0 60.0497 13.4389 807 126.986 1265.7 456.196
112 0 63.0809 16.9465 1069 119.627 1264.53 454.1
113 0 65.0367 14.192 923 125.557 1266.99 451.65
114 0 66.1585 14.435 955 124.949 1268.09 452.467
115 0 67.0618 12.4661 836 130.238 1268.2 448.764
116 0 71.1705 14.2896 1017 125.911 1268.43 448.286
117 1 42.0393 10.5853 445 131.984 1270.22 462.62
118 0 42.0367 11.8706 499 128.515 1271.83 462.341
119 0 42.0367 11.8944 500 154.456 1273.81 462.318
120 0 45.0825 11.7119 528 126.761 1274.35 461.845
121 0 45.0811 12.2446 552 129.083 1270.42 463.11
122 0 47.0931 12.5284 590 128.576 1275.29 461.256
123 0 43.1811 12.3897 535 127.927 1270.81 462.378
124 0 49.1547 12.9794 638 122.87 1271.23 465.536
125 0 50.0983 15.2301 763 121.09 1271.77 462.917
126 0 48.0753 14.0821 677 124.075 1272.43 462.758
127 0 51.1487 16.3641 837 118.914 1272.4 462.581
128 0 51.0646 12.964 662 125.408 1271.32 466.64
129 0 54.0774 12.1308 656 125.631 1271.91 467.137
130 0 55.1531 15.4298 851 120.38 1270.83 467.477
131 0 57.123 13.9874 799 122.593 1271.39 466.531
132 0 59.1087 14.1096 834 122.079 1269.36 466.813
133 0 61.1923 13.9233 852 123.032 1269.53 466.244
134 0 61.1895 14.2835 874 123.775 1269.51 466.098
135 0 62.0604 14.7437 915 121.56 1269.32 464.649
136 0 65.1798 13.7773 898 122.571 1269.87 466.197
137 0 67.1001 13.6214 914 122.633 1267.38 464.177
138 0 68.1256 12.3595 842 126.102 1268.18 462.886
139 0 71.054 13.9049 988 123.157 1266.47 461.485
140 0 73.2252 14.6261 1071 123.195 1265.99 459.045
141 0 77.1125 14.6799 1132 123.612 1265.61 458.125
142 0 79.1908 15.3932 1219 122.16 1265.44 457.037
143 0 79.1908 15.3427 1215 138.432 1265.47 456.904
144 0 84.0811 11.8695 998 129.802 1266.97 456.182
145 1 47.1694 10.9817 518 127.811 1265.73 471.137
146 0 47.1694 11.1089 524 154.842 1263.72 471.242
147 0 52.4413 12.2613 643 128.437 1264.51 465.467
148 0 56.0645 16.267 912 120.571 1264.5 465.289
149 0 56.4079 13.8101 779 126.719 1263.93 463.257
150 0 55.3947 13.5572 751 128.999 1261.09 462.609
151 0 56.5735 11.4364 647 132.325 1262.17 461.743
152 0 61.4683 17.3911 1069 117.682 1263.1 461.365
153 0 61.2913 17.1639 1052 119.054 1263.19 457.224
154 0 62.683 14.5973 915 124.089 1264.51 455.199
155 0 65.5098 15.9213 1043 120.247 1263.73 453.897
156 0 66.5941 13.74 915 125.478 1265.1 449.516
157 0 70.397 13.9921 985 124 1265.85 449.454
158 0 71.2268 13.2675 945 125.925 1266.26 446.237
159 0 74.3241 12.755 948 125.474 1267 447.19
160 0 78.2022 18.7974 1470 113.557 1267.98 448.18
161 0 79.4462 10.6613 847 125.544 1267 445.847
162 0 83.344 14.0262 1169 121.18 1268.79 441.878
163 0 87.2317 14.2494 1243 119.695 1270.39 439.041
164 0 88.2173 12.3445 1089 122.588 1270.71 442.388
165 0 88.2173 12.2992 1085 141.942 1271.7 442.408
166 1 50.0861 11.5002 576 116.484 1272.31 464.191
167 0 49.0925 9.96079 489 132.785 1271.36 463.266
168 0 51.0468 12.5767 642 119.428 1272.37 460.064
169 0 51.0468 12.5375 640 124.531 1273.39 459.852
170 0 58.0595 15.1741 881 111.549 1273.8 460.653
171 0 58.0595 15.0191 872 114.31 1274.79 460.627
172 0 60.3705 14.0135 846 114.682 1273.5 464.057
173 0 61.3111 12.1185 743 118.642 1272.23 464.351
174 0 64.2011 13.8627 890 116.648 1271.52 462.513
175 0 67.3053 14.3079 963 116.24 1271.16 461.194
176 0 69.1565 15.2697 1056 114.343 1269.93 462.884
177 0 71.1758 11.8158 841 121.083 1270.81 462.168
178 0 76.17 15.3341 1168 114.83 1270.86 461.434
179 0 79.2694 16.8413 1335 111.804 1268.67 461.391
180 0 81.2512 13.5506 1101 116.579 1268.63 457.78
181 0 82.2139 14.1704 1165 118.316 1267.24 454.776
182 0 82.2139 14.1339 1162 138.073 1266.23 454.678
183 0 89.3218 17.9687 1605 112.269 1267.85 450.351
184 0 95.184 13.7313 1307 117.701 1267.19 453.536
185 0 96.3352 14.9478 1440 117.523 1265.67 448.101
186 0 97.4339 13.2911 1295 121.812 1263.9 442.534
187 0 104.463 15.8143 1652 116.174 1264.41 444.233
188 0 105.574 12.2094 1289 123.083 1263.53 438.838
189 1 58.1748 10.881 633 114.513 1264.93 468.449
190 0 59.2195 14.0157 830 111.92 1263.88 463.49
191 0 64.2405 15.1774 975 111.983 1261.15 461.829
192 0 64.2405 15.0528 967 139.824 1260.18 461.83
193 0 64.2416 13.4648 865 116.925 1259.93 455.376
194 0 70.4122 17.6816 1245 107.524 1261.24 454.974
195 0 72.3446 16.3108 1180 110.112 1261.62 454.934
196 0 71.155 15.0376 1070 114.692 1261.76 451.868
197 0 75.3507 13.9216 1049 115.693 1263.03 446.61
198 0 80.2479 14.9038 1196 112.722 1263.85 446.436
199 0 84.8794 14.5501 1235 111.581 1266.76 440.793
200 0 87.1905 16.4697 1436 109.006 1267.24 441.094
201 0 89.2415 13.6259 1216 113.405 1267 439.861
202 1 49.0374 11.1344 546 110.299 1267.66 461.934
203 0 49.0479 11.1932 549 110.59 1267.95 460.448
204 0 51.1124 14.0866 720 104.246 1269.45 461.869
205 0 50.1254 12.0697 605 110.142 1269.59 457.37
206 0 50.1254 12.1695 610 124.264 1270.59 457.305
207 0 53.2281 14.1091 751 106.25 1270.46 457.683
208 0 55.2485 15.2583 843 101.898 1271.95 459.573
209 0 57.0927 11.2449 642 108.433 1271.93 459.682
210 0 56.1471 12.396 696 108.139 1273.11 458.466
211 0 57.0762 11.7913 673 108.629 1272.09 459.673
212 0 59.0871 11.1023 656 109.994 1271.84 456.811
213 0 63.103 12.8837 813 105.953 1271.65 457.235
214 0 66.1663 13.8288 915 103.223 1271.78 462.175
215 0 66.3354 13.8237 917 105.441 1272.94 457.001
216 0 69.1413 15.2875 1057 102.426 1273.33 461.539
217 0 72.4595 14.132 1024 104.529 1273.23 455.278
218 0 73.1179 13.2799 971 106.372 1272.06 458.907
219 0 75.1117 14.6182 1098 105.574 1272 453.463
220 0 79.3474 14.9091 1183 104.758 1273.04 457.607
221 0 78.1368 15.0505 1176 106.355 1271.44 456.606
222 0 84.2648 16.0684 1354 104.171 1271.07 455.406
223 0 83.4207 12.407 1035 110.846 1269.52 452.5
224 0 89.1466 15.5923 1390 106.095 1268.24 455.786
225 0 90.1253 14.846 1338 107.546 1266.64 451.554
226 0 94.2776 12.1026 1141 111.643 1265.65 451.727
227 1 53.1637 10.0256 533 112.856 1266.18 469.43
228 0 57.0554 11.9358 681 110.828 1261.72 468.354
229 0 58.0902 13.5823 789 107.312 1259.45 466.644
230 0 61.0794 16.323 997 100.818 1260 466.529
231 0 62.1449 12.4709 775 111.777 1259.88 463.277
232 0 62.0456 12.2329 759 112.453 1259.02 464.701
233 0 61.0644 13.9525 852 110.687 1258.77 461.697
234 0 68.1969 13.2851 906 110.33 1259.17 459.543
235 0 72.0686 15.18 1094 108.005 1258.84 455.971
236 0 76.1262 16.4201 1250 105.751 1259.32 455.303
237 0 74.1624 10.2208 758 116.23 1258.38 453.434
238 0 79.1671 14.7536 1168 109.717 1258.56 445.583
239 0 81.5696 13.1789 1075 112.309 1260.01 445.734
240 0 84.4926 22.2031 1876 100.287 1259.08 441.751
241 1 48.0863 10.1068 486 112.751 1263.79 462.043
242 0 47.0519 10.4778 493 113.462 1264.44 462.103
243 0 49.1103 10.1608 499 113.517 1263.46 462.333
244 0 51.2214 14.9352 765 104.757 1263.37 461.395
245 0 53.0628 13.1165 696 107.374 1261.45 459.583
246 0 53.0732 13.6792 726 107.376 1265.42 459.033
247 0 55.0969 15.0644 830 104.959 1266.77 458.382
248 0 60.0906 12.9138 776 107.785 1267.87 457.595
249 0 59.1123 12.823 758 138.479 1267.87 457.07
250 0 60.0498 12.3398 741 110.66 1267.13 458.345
251 0 66.3405 19.415 1288 100.166 1268.3 453.959
252 0 65.1605 16.1754 1054 107.433 1269.48 453.931
253 0 63.2162 11.2155 709 115.982 1270.76 456.502
254 0 68.1502 15.2457 1039 108.705 1271.27 453.768
255 0 69.0744 17.4015 1202 106.146 1269.75 455.75
256 0 68.1894 12.4506 849 115.375 1271.63 455.239
257 0 73.0499 14.2095 1038 111.595 1271.74 455.901
258 0 73.1796 12.0525 882 116.51 1271.29 454.294
259 0 79.2486 15.7227 1246 109.31 1271.43 451.985
260 0 80.1599 12.8119 1027 113.028 1271.36 455.562
261 0 84.2501 15.7626 1328 110.365 1269.76 450.703
262 0 84.6055 13.0606 1105 114.497 1270.13 451.64
263 0 88.1498 14.9972 1322 110.749 1269.49 453.833
264 0 89.269 13.6666 1220 114.784 1267.41 448.672
265 0 95.2872 15.1647 1445 111.244 1269.14 447.041
266 0 97.4177 15.5618 1516 108.485 1267.44 452.157
267 0 99.3823 13.4632 1338 111.123 1268.51 449.629
268 1 54.1489 10.4342 565 113.591 1267.58 468.71
269 0 55.4069 13.3196 738 109.974 1267.14 467.938
270 0 58.3089 13.6343 795 108.723 1265.86 468.764
271 0 59.0966 17.0907 1010 103.162 1265.56 466.102
272 0 58.1184 13.5585 788 108.551 1264.24 465.171
273 0 61.1385 9.55208 584 112.228 1264.16 463.272
274 0 62.0656 14.3558 891 106.139 1263.48 465.724
275 0 64.0597 13.7684 882 106.842 1262.98 461.811
276 0 65.3015 14.3182 935 105.774 1262.35 461.162
277 0 69.096 12.7214 879 107.858 1262.86 459.069
278 0 68.1817 9.54801 651 111.295 1263.28 459.903
279 0 73.1632 13.5451 991 106.471 1262.44 451.009
280 0 72.2745 11.484 830 108.478 1262.88 454.304
281 0 75.2056 11.7145 881 108.705 1261.26 450.495
282 0 80.567 13.9884 1127 104.865 1262.24 449.824
283 0 81.3085 13.0614 1062 107.218 1262.83 446.366
284 0 85.6776 13.8776 1189 106.331 1262.72 443.629
285 0 88.5733 14.9255 1322 105.092 1262.15 437.688
286 0 92.5792 13.9988 1296 105.029 1262.9 437.721
287 0 93.6197 13.9287 1304 105.577 1263.78 434.109
288 0 97.2222 12.1166 1178 107.609 1264.14 434.773
289 0 106.573 13.8779 1479 106.268 1264.62 427.899
290 1 54.2765 14.1129 766 102.675 1265.69 453.591
291 0 54.0362 9.73421 526 107.363 1266.98 454.392
292 0 59.3391 12.7403 756 101.937 1266.98 453.79
293 0 59.1814 12.7743 756 103.407 1267.29 451.438
294 0 58.0832 12.4649 724 104.972 1268.32 452.961
295 0 63.1752 16.6996 1055 98.8038 1268.37 452.408
296 0 65.1894 15.6774 1022 99.3239 1269.08 453.617
297 0 65.1894 15.57 1015 106.974 1270.03 453.544
298 0 67.1968 11.4142 767 107.009 1269.05 452.287
299 0 71.2399 14.9214 1063 102.595 1270.6 451.461
300 0 73.1725 12.2724 898 107.046 1271.07 451.64
301 0 73.1872 16.5603 1212 101.312 1270.63 457.049
302 0 76.1075 13.0211 991 106.565 1270.68 452.59
303 0 77.2495 11.2751 871 109.514 1270.42 451.431
304 0 84.1726 13.805 1162 106.054 1270.29 449.039
305 0 84.1748 13.8284 1164 117.673 1270.26 449.009
306 0 89.2608 15.169 1354 103.465 1269.55 451.722
307 0 91.3858 16.9063 1545 102.933 1268.3 448.214
308 0 94.2203 11.7703 1109 107.763 1268.2 445.413
309 0 98.1185 15.043 1476 107.67 1267.72 447.838
310 0 99.3124 13.5028 1341 111.657 1267.39 444.438
311 0 99.3124 13.4827 1339 139.994 1268.4 444.537
312 0 107.4 14.1899 1524 112.033 1266.18 442.093
313 1 57.4225 15.3772 883 106.64 1266.23 466.034
314 0 60.203 12.2751 739 103.854 1267.67 466.553
315 0 61.1172 12.8442 785 102.563 1266.53 466.522
316 0 63.2351 12.92 817 103.46 1266.19 461.99
317 0 65.2854 15.3327 1001 100.572 1264.41 459.726
318 0 67.2525 12.6538 851 104.19 1263.35 457.589
319 0 71.2757 16.4011 1169 99.8486 1263.76 456.225
320 0 73.1317 11.5818 847 106.878 1262.9 454.991
321 0 73.1317 11.6502 852 130.832 1261.88 454.928
322 0 78.2628 12.2408 958 106.731 1262.87 452.741
323 0 84.3426 18.6027 1569 97.1045 1262.49 454.16
324 0 83.2263 19.441 1618 98.9061 1262.07 446.383
325 1 45.2418 12.0906 547 106.479 1263.93 463.722
326 0 47.0807 12.7016 598 105.584 1264.97 458.871
327 0 47.1413 13.9792 659 105.026 1265.4 458.266
328 0 48.1494 11.2359 541 109.606 1265.5 458.196
329 0 50.2728 11.3381 570 111.198 1265.11 456.016
330 0 52.2867 16.2757 851 102.645 1262.62 459.491
331 0 55.0981 13.4487 741 108.024 1264.3 453.196
332 0 55.2116 12.6604 699 109.831 1265.21 454.258
333 0 57.1886 15.1079 864 106.081 1265.22 454.304
334 0 59.1564 14.1996 840 107.464 1267.13 452.302
335 0 62.2168 17.2461 1073 103.628 1266.78 451.802
336 0 63.2372 15.4972 980 106.591 1267.6 450.062
337 0 63.1214 12.6581 799 111.899 1268.15 448.905
338 0 66.1748 15.3079 1013 107.48 1267.8 450.253
339 0 67.3215 16.5475 1114 105.932 1270.19 446.364
340 0 70.242 14.3646 1009 109.086 1270.6 450.187
341 0 73.2406 16.5755 1214 105.519 1271.17 447.6
342 0 76.2528 15.8683 1210 105.44 1270.49 449.788
343 0 79.2015 16.1992 1283 105.237 1270.87 446.309
344 0 82.336 16.3841 1349 102.517 1272.4 450.333
345 0 83.4776 16.5673 1383 102.623 1272.72 448.241
346 0 86.1944 13.4231 1157 107.927 1271.77 444.251
347 0 89.3223 15.3937 1375 105.406 1272.5 442.255
348 0 92.4517 13.0771 1209 108.529 1272.7 444.747
349 0 97.2962 13.9779 1360 105.982 1272.06 447.698
350 1 50.1204 15.0039 752 98.2979 1270.05 472.237
351 0 52.0962 10.6342 554 106.662 1269.77 463.735
352 0 54.1392 11.452 620 104.331 1270.47 473.029
353 0 56.165 14.9737 841 101.067 1270.28 467.963
354 0 58.2685 13.6952 798 102.64 1270.18 466.538
355 0 57.2052 11.6248 665 107.475 1268.83 463.997
356 0 62.2087 15.223 947 101.279 1267.16 466.718
357 0 63.1726 14.5158 917 102.245 1266.85 465.665
358 0 65.1381 13.2641 864 104.16 1267.54 459.22
359 0 66.2025 12.6883 840 105.349 1265.79 461.276
360 0 71.2854 13.1864 940 104.15 1265.21 458.333
361 0 71.2854 13.1864 940 120.534 1264.24 458.433
362 0 75.2807 16.4318 1237 100.714 1265.35 452.046
363 0 79.354 12.627 1002 104.879 1265.22 449.583
364 0 81.1214 14.4721 1174 103.347 1264.22 446.944
365 0 84.4295 11.4178 964 107.582 1265.1 445.054
366 0 88.3667 12.9121 1141 104.813 1265.94 445.869
367 0 88.3667 12.8442 1135 113.257 1265.94 445.871
368 1 47.0738 11.3226 533 102.758 1264.3 466.809
369 0 50.1815 12.3352 619 102.53 1264.62 461.192
370 0 52.1429 12.0822 630 102.803 1264.58 459.381
371 0 55.2187 13.3469 737 100.544 1263.97 456.882
372 0 53.2782 10.9426 583 104.839 1265.66 455.799
373 0 56.3779 14.1545 798 100.328 1266.86 452.867
374 0 57.2934 20.2816 1162 94.6558 1268.17 451.582
375 0 61.0795 14.784 903 100.231 1266.24 451.483
376 0 62.1428 15.1747 943 101.844 1268.75 449.333
377 0 65.2292 13.5062 881 102.922 1267.76 448.873
378 0 65.2292 13.4909 880 117.58 1266.79 448.652
379 0 70.2907 11.7797 828 107.56 1272.5 443.847
380 0 72.3497 13.6559 988 105.562 1272.32 443.051
381 0 76.3393 17.265 1318 100.769 1272.37 444.135
382 0 77.7204 12.8538 999 107.63 1273.53 442.668
383 0 80.7649 12.5673 1015 108.269 1273.6 441.992
384 0 81.7022 13.5737 1109 107.478 1274.06 441.912
385 1 41.6031 9.61467 400 106.312 1273.7 462.38
386 0 45.3775 14.2361 646 100.207 1274.86 462.084
387 0 48.0778 12.2718 590 102.546 1275.12 462.917
388 0 47.0798 10.9176 514 104.745 1276.02 462.912
389 0 47.0798 10.9389 515 116.808 1276.98 462.786
390 0 50.1053 11.9349 598 103.935 1275.38 464.341
391 0 51.0755 9.84816 503 106.207 1274.57 469.473
392 0 53.1734 13.7663 732 101.086 1275.77 466.787
393 0 53.1519 12.2855 653 104.839 1274.3 465.219
394 0 56.0747 14.0883 790 102.304 1272.03 465.099
395 0 60.0639 11.7375 705 104.064 1271.93 467.584
396 0 59.1651 8.16359 483 109.424 1273.52 465.807
397 0 59.1676 11.797 698 105.655 1272.61 465.229
398 0 63.114 11.4238 721 105.567 1271.08 463.922
399 0 62.2738 10.1006 629 109.534 1270.38 463.261
400 0 67.233 12.7765 859 105.107 1269.36 460.324
401 0 69.1438 13.4647 931 104.484 1269.87 459.186
402 0 71.2835 13.2289 943 105.096 1268.93 457.599
403 0 73.4351 8.7288 641 109.346 1268.35 459.961
404 0 77.1796 13.6305 1052 104.665 1268.02 451.261
405 0 78.3713 13.0022 1019 106.251 1267.51 451.812
406 0 83.3492 13.9773 1165 105.264 1266.56 448.526
407 0 85.3383 12.1985 1041 107.699 1266.43 448.432
408 0 85.3383 12.2571 1046 126.215 1266.46 448.545
409 1 49.1318 11.8864 584 107.921 1264.93 463.661
410 0 52.1183 11.6466 607 108.834 1267.33 460.13
411 0 52.1119 13.778 718 107.976 1264.98 456.563
412 0 56.0542 14.7893 829 105.592 1265.21 459.761
413 0 56.0373 14.5439 815 107.155 1266.1 459.306
414 0 58.0854 13.7556 799 107.924 1266.26 455.008
415 0 60.0893 16.126 969 104.475 1266.82 456.298
416 0 62.0467 14.344 890 107.776 1267.04 454.125
417 0 62.0548 13.3108 826 110.067 1267.94 450.962
418 0 62.0548 12.3923 769 132.078 1269.01 450.432
419 0 67.0943 16.0222 1075 105.481 1269.96 446.383
420 0 70.1488 12.9012 905 108.755 1269.74 446.927
421 0 72.1054 14.2292 1026 106.096 1269.78 444.026
422 0 75.1219 13.751 1033 106.627 1271.97 441.988
423 0 78.1724 16.2333 1269 102.72 1272.27 443.76
424 0 78.1724 16.3741 1280 122.309 1273.23 443.778
425 0 83.099 14.8859 1237 104.204 1273.95 441.563
426 0 88.0916 18.617 1640 98.797 1274.8 442.365
427 1 47.0818 13.5721 639 102.049 1275.15 463.105
428 0 48.0383 11.3451 545 105.8 1274.37 461.055
429 0 47.0577 12.304 579 105.016 1275.33 462.054
430 0 53.2021 12.8754 685 100.236 1275.94 460.115
431 0 53.0399 14.2534 756 102.897 1276.73 462.021
432 0 53.0399 14.2346 755 122.817 1277.73 462.065
433 0 55.086 11.4548 631 108.027 1275.6 460.439
434 0 57.0577 12.1456 693 107.235 1275.66 462.56
435 0 58.0782 13.3441 775 106.754 1274.37 458.981
436 0 61.0986 13.47 823 106.219 1274.31 460.773
437 0 64.2862 15.9599 1026 104.037 1272.51 461.759
438 0 64.193 13.9891 898 106.72 1273.2 462.244
439 0 70.1952 15.927 1118 103.456 1272.44 458.609
440 0 70.0981 15.1502 1062 105.538 1272.37 460.05
441 0 71.2512 14.4419 1029 107.105 1271.85 459.116
442 0 75.2169 14.6776 1104 107.239 1269.53 459.475
443 0 75.379 14.646 1104 107.141 1268.82 458.795
444 0 77.4385 15.4316 1195 107.779 1268.44 456.895
445 0 81.5662 14.3932 1174 109.387 1267.95 454.143
446 0 84.2607 16.2591 1370 106.878 1266.57 455.06
447 0 87.4604 17.3564 1518 105.534 1266.59 451.163
448 0 89.3623 13.3949 1197 113.146 1265.92 446.061
449 0 89.3623 13.3613 1194 138.296 1265.92 445.895
450 1 48.0367 10.263 493 114.237 1263.9 470.44
451 0 51.1835 12.5822 644 112.261 1263.4 465.329
452 0 52.0392 12.2792 639 112.638 1263.14 465.385
453 0 54.0658 13.6315 737 110.715 1262.59 463.307
454 0 59.154 16.4655 974 103.896 1262.92 463.725
455 0 58.3549 12.4411 726 107.477 1262.65 461.189
456 0 60.0528 14.404 865 105.074 1262.24 461.116
457 0 63.1432 13.1764 832 108.736 1263.11 453.665
458 0 64.1056 13.353 856 109.217 1261.72 457.789
459 0 67.2223 19.2644 1295 101.453 1263.11 451.463
460 0 67.2004 13.4969 907 109.294 1263.36 456.583
461 0 71.3343 13.4718 961 108.844 1264.44 456.341
462 0 78.2676 14.8593 1163 107.61 1265.29 449.022
463 0 77.1417 14.0391 1083 109.927 1264.79 451.025
464 0 79.4621 20.1102 1598 100.852 1266.13 451.79
465 0 82.0953 15.9571 1310 108.379 1267.54 446.431
466 0 85.2549 14.3569 1224 110.427 1266.9 446.69
467 0 90.3611 15.759 1424 105.327 1268.91 445.724
468 0 90.3611 15.6483 1414 142.231 1269.94 445.682
469 0 94.3608 15.2818 1442 107.29 1269.61 443.744
470 0 97.5202 13.4126 1308 109.537 1270.92 445.721
471 0 101.585 13.9095 1413 108.759 1271.63 445.624
472 1 49.2417 11.5146 567 114.439 1271.23 464.929
473 0 54.0505 12.7473 689 110.073 1271.42 466.742
474 0 56.0378 13.937 781 107.767 1271.31 466.923
475 0 60.2271 14.6446 882 103.998 1272.29 470.67
476 0 61.2131 15.3398 939 102.996 1271.61 468.406
477 0 61.1009 17.8721 1092 100.369 1270.58 468.147
478 0 62.0507 16.1803 1004 103.202 1270.52 468.255
479 0 64.0863 14.8394 951 105.106 1269.09 467.98
480 0 68.1953 15.7782 1076 102.783 1269.19 471.285
481 0 71.158 12.9009 918 104.673 1268.8 469.802
482 0 72.457 17.1964 1246 99.4478 1267.89 466.986
483 0 73.1505 13.9575 1021 104.192 1267 470.54
484 0 74.0782 14.8627 1101 104.135 1265.32 465.901
485 0 79.335 11.8737 942 108.407 1265.09 466.321
486 0 78.1566 16.0703 1256 101.963 1263.84 471.146
487 0 83.3438 16.198 1350 102.55 1263.96 465.949
488 0 85.2304 14.5253 1238 106.19 1263.45 462.641
489 1 41.1664 12.2673 505 108.457 1262.6 485.172
490 0 41.1664 12.2673 505 139.111 1261.6 485.125
491 0 48.312 18.2149 880 101.791 1261.84 481.818
492 0 45.2455 11.5813 524 113.54 1261.1 480.246
493 0 50.296 14.7527 742 107.853 1260.46 478.381
494 0 53.1526 13.9786 743 107.105 1259.78 479.964
495 0 54.0924 19.3373 1046 101.074 1259.45 474.271
496 0 54.0924 19.2079 1039 136.81 1258.45 474.261
497 0 55.2638 14.277 789 109.501 1259.25 471.409
498 0 59.1682 14.9743 886 108.631 1258.36 468.895
499 0 58.0822 12.4479 723 114.239 1258.24 469.122
500 0 64.2077 20.387 1309 102.134 1258.85 461.407
501 0 65.2119 16.6381 1085 107.185 1259.23 463.198
502 0 65.1756 13.2565 864 114.043 1259.94 462.47
503 0 67.3026 16.3292 1099 108.584 1260.14 459.28
504 0 72.1776 17.5124 1264 106.289 1261.71 458.188
505 0 74.3278 15.7949 1174 108.779 1261.6 457.153
506 0 77.1776 17.9586 1386 106.834 1262.02 454.514
507 0 77.2929 13.5976 1051 114.465 1264.03 450.959
508 0 79.244 13.755 1090 114.912 1264.56 450.591
509 0 83.2888 15.7044 1308 113.341 1265.11 447.49
510 0 89.4966 18.1795 1627 107.586 1266.15 451.165
511 0 90.2611 14.1589 1278 113.749 1266.54 450.58
512 1 46.4266 14.9053 692 107.78 1267.07 473.082
513 0 46.0423 11.3157 521 117.298 1268.11 468.774
514 0 51.3029 16.4123 842 108.469 1267.8 468.64
515 0 52.1482 15.8203 825 111.278 1268.55 469.407
516 0 56.1824 16.8914 949 111.064 1269.19 469.25
517 0 54.1312 15.6841 849 115.706 1269.48 468.163
518 0 58.1841 16.929 985 111.731 1269.94 470.139
519 0 57.1902 16.6462 952 113.751 1269.4 468.001
520 0 62.1856 19.2488 1197 108.852 1268.07 469.566
521 0 65.2851 17.9214 1170 109.53 1268.03 471.742
522 0 65.2091 18.3563 1197 110.246 1267.91 467.077
523 0 67.3324 16.7676 1129 113.306 1267.62 466.293
524 0 72.4026 16.353 1184 111.351 1266.43 468.014
525 0 75.3755 17.8971 1349 109.97 1266.52 465.865
526 0 76.4055 16.5302 1263 112.126 1266.11 467.803
527 0 78.6643 16.0429 1262 112.598 1265.14 467.75
528 0 82.3034 16.9373 1394 110.806 1265.45 466.978
529 0 85.5434 18.9728 1623 109.628 1264.88 461.567
530 0 86.2541 14.9094 1286 116.273 1263.19 460.906
531 0 91.2877 19.7617 1804 109.416 1262.39 455.094
532 0 94.3267 17.7892 1678 112.846 1261.98 455.928
533 1 44.2207 15.5583 688 112.651 1261.25 478.733
534 0 46.2368 14.7934 684 114.105 1261.3 477.368
535 0 47.9146 13.378 641 115.665 1260.73 474.32
536 0 49.2331 14.8884 733 113.332 1260.61 472.31
537 0 52.2329 13.861 724 116.033 1260.14 466.827
538 0 54.2104 20.1806 1094 105.462 1259.89 472.332
539 0 54.7223 17.2142 942 110.476 1260.38 465.328
540 0 57.414 18.2534 1048 110.042 1259.27 462.636
541 0 59.6728 15.9537 952 113.033 1258.73 463.764
542 0 65.1697 17.769 1158 108.636 1259.19 464.282
543 0 65.6096 16.8878 1108 112.611 1259.5 458.758
544 0 64.7096 17.4935 1132 113.042 1260.37 456.82
545 0 68.4912 16.7759 1149 115.99 1261.55 455.369
546 0 70.3409 18.4672 1299 112.925 1261.4 453.579
547 0 70.3409 18.6236 1310 144.914 1261.39 453.521
548 0 78.8824 16.4168 1295 114.508 1262.13 451.741
549 0 77.4768 17.7602 1376 115.026 1262.28 448.027
550 0 80.6874 17.2146 1389 115.694 1262.82 446.649
551 0 84.9695 16.347 1389 116.281 1263.87 444.839
552 0 88.6693 18.2589 1619 114.051 1264.68 443.686
553 0 94.7125 18.9732 1797 111.446 1265.4 439.929
554 0 98.0761 22.1869 2176 107.689 1265.49 440.706
555 1 48.4367 14.8854 721 112.802 1266.02 464.132
556 0 52.7746 15.3483 810 110.941 1267.59 467.591
557 0 53.4727 12.8477 687 117.971 1267.95 464.192
558 0 52.0709 14.0001 729 118.848 1269.3 465.123
559 0 56.477 15.7586 890 115.388 1268.55 464.453
560 0 59.6199 20.2449 1207 108.993 1268.43 462.62
561 0 61.3898 18.2115 1118 112.85 1269.15 460.778
562 0 63.7061 19.2289 1225 110.004 1268.14 465.684
563 0 63.8466 14.2686 911 120.072 1268.34 463.91
564 0 65.8089 15.4386 1016 118.276 1267.6 464.369
565 0 69.0683 14.2468 984 120.463 1267.41 459.983
566 0 70.7437 16.27 1151 117.114 1268.04 460.686
567 0 74.479 14.729 1097 118.9 1267.47 462.318
568 0 77.7539 17.9669 1397 113.98 1267.68 463.843
569 0 81.6684 17.1915 1404 114.541 1266.46 464.821
570 0 78.8175 13.4488 1060 124.043 1266.35 460.163
571 0 84.5329 14.5742 1232 122.88 1265.79 459.509
572 0 84.4951 14.5689 1231 141.057 1264.79 459.341
573 0 89.3674 16.7735 1499 118.845 1263.25 458.222
574 0 93.6979 16.6172 1557 119.141 1262.88 456.557
575 0 95.5834 14.2912 1366 123.635 1262.14 454.724
576 0 100.769 15.9573 1608 121.211 1261.14 449.108
577 0 104.522 17.6901 1849 117.78 1261.37 450.772
578 0 108.688 15.8342 1721 121.16 1261.27 442.831
579 1 56.4109 13.5967 767 121.674 1260.54 467.588
580 0 60.4122 13.3748 808 121.376 1261.25 467.207
581 0 59.2407 12.5927 746 125.606 1259.86 464.536
582 0 61.1636 13.7336 840 126.187 1260.66 461.792
583 0 61.1636 13.7336 840 155.038 1260.66 461.864
584 0 68.2782 14.4849 989 122.663 1261.26 461.75
585 0 70.1946 15.0866 1059 121.159 1261.5 459.352
586 0 72.5592 13.9197 1010 122.53 1261.74 457.912
587 0 73.4926 14.2871 1050 122.525 1262.61 455.995
588 0 79.5321 15.3146 1218 120.053 1263.74 451.162
589 0 78.2999 15.2746 1196 122.044 1263.2 452.319
590 0 82.3708 13.5728 1118 125.062 1262.56 450.114
591 0 85.3004 15.674 1337 121.547 1262.76 447.679
592 0 86.3856 12.3284 1065 127.543 1264.98 447.354
593 0 86.3856 12.3516 1067 159.674 1265.98 447.251
594 0 93.442 14.9076 1393 121.246 1265.31 446.209
595 0 99.7353 14.7691 1473 119.848 1266.17 445.705
596 1 56.2141 13.5909 764 115.183 1265.79 464.997
597 0 56.2141 13.5909 764 134.463 1264.77 465.088
598 0 58.1982 13.6602 795 119.721 1267.69 460.931
599 0 58.2666 13.0778 762 124.993 1266.75 459.382
600 0 62.3697 13.7406 857 115.702 1268.52 463.578
601 0 64.085 13.6069 872 116.635 1269.19 461.932
602 0 64.085 13.4665 863 128.542 1270.2 461.964
603 0 67.1306 15.1049 1014 118.304 1269.31 459.993
604 0 70.3491 12.8076 901 121.474 1269.21 461.204
605 0 73.4503 12.825 942 120.12 1269 462.089
606 0 76.4927 14.8903 1139 117.423 1268.25 461.155
607 0 77.5335 14.7162 1141 117.381 1266.76 461.713
608 0 79.382 13.5673 1077 120.169 1267.58 456.905
609 0 84.7896 13.9286 1181 118.762 1267.15 458.014
610 0 89.8362 15.7286 1413 114.783 1266.2 459.926
611 0 90.705 14.1337 1282 119.332 1265.49 454.869
612 0 92.5739 16.4085 1519 114.671 1267.27 456.49
613 0 95.5707 15.4755 1479 117.916 1266.19 452.234
614 0 95.5707 15.5173 1483 140.24 1264.22 452.188
615 0 104.131 13.3582 1391 120.83 1264.92 449.566
616 0 108.044 16.5858 1792 117.64 1263.7 445.785
617 0 109.752 13.9405 1530 123.15 1262.42 442.144
618 0 109.752 13.8312 1518 147.435 1261.42 442.174
619 0 118.87 13.8471 1646 122.419 1261.49 439.475
620 1 61.7068 16.0922 993 111.671 1260.48 470.16
621 0 63.1619 12.1434 767 118.445 1260.74 467.167
622 0 66.953 16.2203 1086 112.66 1259.6 462.982
623 0 65.8098 15.4536 1017 115.311 1259.57 460.993
624 0 68.9391 14.317 987 117.322 1259.25 459.363
625 0 70.7157 15.1451 1071 116.645 1259.17 456.172
626 0 68.8107 13.8351 952 120.326 1260.23 454.392
627 0 75.8849 13.191 1001 118.858 1259.51 454.758
628 0 76.5008 14.8364 1135 118.962 1260.25 449.796
629 0 79.9035 14.2422 1138 120.011 1260.13 446.737
630 0 82.8079 17.281 1431 113.75 1260.13 444.037
631 0 83.7966 17.9363 1503 128.566 1260.1 444.778
632 0 89.672 17.6421 1582 113.542 1261.79 444.444
633 0 87.7253 15.9247 1397 116.782 1260.52 442.989
634 0 94.2063 14.3939 1356 118.344 1261.74 440.212
635 0 94.5563 15.2925 1446 118.871 1262.44 433.371
636 0 97.7656 14.0131 1370 119.774 1262.98 436.34
637 0 99.7476 11.3286 1130 124.305 1264.18 434.35
638 0 103.621 15.0067 1555 119.429 1265.19 430.734
639 0 107.734 14.4801 1560 118.008 1265.42 436.185
640 0 114.855 16.0725 1846 115.538 1266.17 431.138
641 1 58.0276 13.6314 791 114.975 1266.31 457.143
642 0 58.3096 13.5141 788 115.107 1268.35 459.534
643 0 63.4504 13.9321 884 116.479 1267.54 458.63
644 0 65.481 13.103 858 116.297 1267.57 460.586
645 0 68.7066 15.5443 1068 114.514 1267.7 454.662
646 0 71.5751 19.8673 1422 106.329 1267.34 459.331
647 0 73.7133 17.7851 1311 110.631 1267.93 453.587
648 0 76.0291 15.6519 1190 113.434 1268.31 456.335
649 0 79.9653 14.9315 1194 115.305 1267.22 452.374
650 0 82.9588 15.3932 1277 115.46 1267.49 451.362
651 0 84.761 14.3344 1215 117.375 1266.72 447.337
652 0 89.5737 20.1622 1806 105.473 1267.32 457.001
653 0 93.8876 15.1245 1420 115.048 1267.51 450.527
654 1 46.7528 13.8387 647 113.088 1266.69 471.221
655 0 48.9403 11.4425 560 116.302 1264.96 472.491
656 0 50.5213 19.0217 961 105.814 1265.54 474.22
657 0 50.4607 12.485 630 115.416 1264.87 473.116
658 0 52.16 12.2699 640 114.82 1263.51 475.959
659 0 55.1404 13.9281 768 111.711 1264.82 475.732
660 0 57.7688 14.6446 846 111.144 1261.58 469.651
661 0 58.1814 14.2313 828 112.38 1261.57 471.75
662 0 60.6759 12.163 738 116.24 1261.79 470.225
663 0 64.5871 14.2134 918 113.06 1261.6 464.67
664 0 66.3085 13.9499 925 114.621 1260.77 462.146
665 0 66.3085 13.9047 922 147.835 1259.77 462.078
666 0 69.8305 13.6044 950 116.663 1260 458.308
667 0 69.7125 19.2505 1342 109.736 1260.36 453.364
668 0 72.1482 15.0385 1085 113.805 1258.9 453.828
669 0 73.804 15.2024 1122 112.93 1259.6 454.816
670 0 77.1063 15.0701 1162 114.051 1260.27 450.415
671 1 39.6337 9.61303 381 116.307 1259.69 469.53
672 0 43.5989 13.2572 578 111.974 1259.96 466.625
673 0 46.4352 14.924 693 109.468 1260.36 464.266
674 0 47.9696 14.3841 690 110.514 1260.57 461.814
675 0 48.9202 15.6581 766 110.082 1261.11 463.141
676 0 49.8804 13.7328 685 115.436 1261.53 460.847
677 0 48.4524 12.7548 618 119.1 1261.92 462.469
678 0 52.6823 12.2052 643 120.19 1262.23 459.453
679 0 53.6246 15.795 847 115.766 1263.51 458.459
680 0 54.9027 13.1688 723 121.039 1264.81 457.79
681 0 54.9027 13.0959 719 150.876 1266.78 457.802
682 0 57.6787 13.1764 760 123.805 1265.43 455.066
683 0 61.6142 16.5059 1017 117.066 1265.25 455.53
684 0 63.4908 14.9943 952 118.875 1266.36 458.023
685 0 65.507 13.739 900 122.012 1267.26 457.717
686 0 66.0617 13.8053 912 124.414 1268.82 453.888
687 0 69.135 14.7682 1021 122.115 1267.18 454.681
688 0 69.135 14.7248 1018 149.537 1265.18 454.665
689 0 72.7154 12.0607 877 126.855 1267.78 455.073
690 0 76.9584 14.9301 1149 120.857 1268.17 455.326
691 0 82.209 15.6674 1288 119.935 1266.6 452.67
692 0 82.9124 15.245 1264 120.979 1267.21 453.344
693 0 85.0451 13.2283 1125 126.14 1267.61 450.759
694 0 85.0451 13.2753 1129 152.261 1268.61 450.744
695 0 90.9805 14.5416 1323 123.898 1267.46 448.868
696 1 45.6658 13.5988 621 117.483 1266.15 476.96
697 0 47.3545 12.3747 586 123.104 1265.55 476.881
698 0 49.0962 12.9745 637 122.347 1265.98 477.501
699 0 51.1927 12.5408 642 123.508 1264.25 476.603
700 0 51.1247 13.9267 712 121.973 1264.65 476.008
701 0 55.5213 16.4622 914 114.954 1265.31 473.687
702 0 55.716 14.3406 799 120.588 1263.95 468.676
703 0 55.7766 13.9844 780 121.033 1264.33 468.242
704 0 59.6932 15.3284 915 119.577 1263.42 466.037
705 0 60.6732 13.07 793 123.04 1262.05 465.67
706 0 63.7776 13.061 833 123.182 1261.79 465.825
707 0 64.6857 12.553 812 124.005 1261.05 462.573
708 0 70.0727 15.4839 1085 118.147 1260.84 460.071
709 0 70.8409 14.7796 1047 118.124 1261.02 460.418
710 0 72.501 15.4205 1118 117.428 1261.56 457.867
711 0 74.6992 11.9948 896 122.224 1261.06 455.571
712 0 76.8487 12.5962 968 120.162 1260.88 454.314
713 0 83.0825 16.1045 1338 113.318 1259.78 453.327
714 1 44.5455 11.3143 504 114.881 1262.31 466.829
715 0 47.4775 12.4691 592 112.9 1260.58 466.514
716 0 48.7142 12.0909 589 111.795 1262.16 464.032
717 0 48.5598 10.6673 518 113.274 1262.5 465.083
718 0 50.578 11.8431 599 112.733 1262.54 463.04
719 0 54.2754 17.2269 935 103.09 1261.5 465.185
720 0 53.2414 17.3174 922 105.746 1262.62 461.572
721 0 56.9657 15.0617 858 107.969 1261.68 459.994
722 0 58.0631 14.8287 861 108.157 1263.05 459.242
723 0 57.4275 10.8485 623 116.368 1263.47 463.088
724 0 61.8822 13.3803 828 113.075 1263.42 460.315
725 0 62.6502 12.4341 779 113.688 1264.35 458.734
726 0 66.4899 13.0697 869 112.659 1264.92 454.473
727 0 66.9946 15.9117 1066 110.133 1266.37 452.43
728 0 72.0316 12.8832 928 113.622 1266.35 453.606
729 0 71.0169 13.194 937 116.115 1267.17 449.337
730 0 74.9992 16.2668 1220 109.47 1267.04 452.653
731 0 80.056 14.8646 1190 111.675 1267.64 448.772
732 0 79.4883 11.4986 914 117.846 1267.22 450.457
733 0 85.4297 13.4848 1152 113.962 1267.8 450.453
734 0 85.8161 15.8712 1362 110.758 1267.23 450.681
735 0 88.8417 13.6985 1217 114.322 1266.64 449.933
736 0 91.9141 14.0566 1292 113.7 1267.16 447.95
737 0 93.8751 15.2863 1435 112.923 1266.96 445.159
738 0 93.8751 15.2969 1436 130.664 1266.97 445.21
739 0 101.984 17.1301 1747 109.36 1265.77 446.11
740 0 101.716 11.6894 1189 118.875 1265.89 443.422
741 0 107.97 12.6239 1363 116.817 1265.52 440.867
742 0 113.166 15.6408 1770 112.407 1265.93 433.372
743 1 54.9616 11.6445 640 109.503 1264.11 471
744 0 60.1708 10.2209 615 110.029 1263.1 470.119
745 0 60.7858 11.5158 700 111.363 1263.23 463.289
746 0 66.4657 17.0163 1131 103.347 1262.29 462.811
747 0 63.7603 10.8061 689 114.286 1261.3 458.463
748 0 63.7603 10.8061 689 139.615 1260.29 458.325
749 0 70.9884 12.4668 885 110.371 1260.46 459.837
750 0 74.276 10.7168 796 115.854 1260.88 452.405
751 0 76.314 12.6713 967 111.746 1259.82 453.377
752 0 79.1752 12.946 1025 110.662 1259.83 450.98
753 0 81.9532 12.5193 1026 110.751 1260.09 449.657
754 0 85.1193 18.7972 1600 102.603 1261.11 447.571
755 0 87.0411 13.844 1205 109.72 1259.79 447.352
756 0 89.031 13.0179 1159 111.374 1259.09 444.049
757 0 91.3112 13.0652 1193 113.028 1260.48 439.826
758 0 93.8709 11.8567 1113 114.559 1260.7 439.536
759 1 149.264 10.6657 1592 116.305 1261.71 423.188
760 1 99.0462 12.5093 1239 114.157 1261.04 433.955
761 0 104.26 12.958 1351 111.48 1261.97 438.223
762 0 107.064 13.0669 1399 111.588 1261.98 436.714
763 0 111.887 14.184 1587 111.335 1263.58 432.19
764 0 112.243 13.2748 1490 114.306 1264.26 428.843
765 1 62.8851 14.1051 887 109.964 1265.63 452.743
766 0 62.8851 13.962 878 138.241 1266.65 452.695
767 0 65.1784 14.3452 935 110.794 1265.69 451.216
768 0 67.4139 14.8486 1001 111.05 1265.64 451.302
769 0 69.2677 13.9748 968 113.015 1266.91 450.791
770 0 71.0621 11.8347 841 116.547 1267.72 449.178
771 0 71.1044 12.6856 902 117.112 1267.82 447.957
772 0 74.8821 12.927 968 116.351 1266.91 447.335
773 0 77.9387 15.5892 1215 112.684 1267.96 446.754
774 0 81.0385 15.5358 1259 112.446 1267.89 448.16
775 0 79.7287 11.7022 933 119.787 1268.59 446.354
776 0 85.4657 13.2802 1135 116.347 1268.62 448.263
777 0 89.2358 16.7758 1497 111.839 1268.18 443.48
778 0 91.9411 13.6609 1256 116.029 1268.29 444.596
779 0 96.2744 12.2774 1182 116.818 1268.14 450.184
780 0 98.6719 13.9047 1372 116.547 1267.94 442.297
781 0 99.982 12.8623 1286 118.363 1267.58 443.188
782 1 48.7826 12.5044 610 112.556 1266.7 470.751
783 0 53.0036 11.3389 601 112.705 1267.28 471.423
784 0 51.9756 11.5631 601 138.013 1268.27 471.403
785 0 53.4545 11.8605 634 111.237 1265.15 470.71
786 0 58.7856 11.9247 701 108.947 1264.36 471.676
787 0 58.7856 11.8737 698 132.112 1263.36 471.617
788 0 59.8078 10.5337 630 113.47 1264.07 469.168
789 0 64.8676 14.1365 917 107.904 1263.45 468.546
790 0 64.8836 14.2563 925 131.061 1262.46 468.67
791 0 68.0311 12.4502 847 111.692 1262.74 462.477
792 0 70.063 12.9598 908 111.358 1261.94 460.152
793 0 71.0966 12.7432 906 113.061 1262.64 455.472
794 0 73.3352 12.627 926 111.945 1262.32 455.044
795 0 75.0781 11.2416 844 115.027 1261.14 450.923
796 0 76.7334 13.397 1028 112.445 1261.84 446.379
797 0 81.7713 11.9969 981 112.96 1262.25 449.894
798 0 85.4249 14.2113 1214 109.812 1262.07 446.428
799 1 43.5748 14.0448 612 102.165 1262.11 470.358
800 0 45.5865 12.6572 577 104.813 1260.8 465.735
801 0 47.5781 13.1153 624 104.237 1261.61 461.529
802 0 50.4194 15.4702 780 101.164 1260.95 458.727
803 0 48.6235 15.4246 750 102.711 1261.39 455.591
804 0 50.9871 12.866 656 106.139 1262.3 459.218
805 0 51.0932 13.309 680 106.887 1263.65 455.725
806 0 54.0207 12.8654 695 107.066 1263.68 454.974
807 0 52.9154 11.6412 616 109.68 1263.74 456.817
808 0 52.9701 13.9513 739 108.648 1266.28 452.857
809 0 54.0409 11.5098 622 112.246 1266.54 455.347
810 0 57.281 12.814 734 110.948 1266.96 454.14
811 0 58.1918 13.2493 771 109.649 1266.91 454.735
812 0 63.3663 12.1989 773 110.431 1266.99 453.876
813 0 63.9306 16.7056 1068 103.222 1267.83 458.317
814 0 62.8674 10.4347 656 113.488 1268.58 455.122
815 0 66.9434 12.3537 827 109.976 1268.46 455.131
816 0 71.167 12.1405 864 109.579 1268.37 454.973
817 0 71.167 12.1405 864 136.505 1268.39 455.049
818 0 77.2084 14.2601 1101 106.97 1267.57 455.338
819 0 74.0223 12.8069 948 110.405 1267.9 454.075
820 0 77.675 12.6939 986 111.025 1268.37 453.212
821 0 77.675 12.8741 1000 128.463 1269.4 453.196
822 1 41.6461 11.4296 476 109.158 1268.36 469.529
823 0 44.7382 12.1596 544 107.189 1268.24 468.59
824 0 45.86 12.4073 569 105.759 1267.24 470.156
825 0 47.4702 16.0733 763 101.904 1266.23 472.24
826 0 47.4855 14.5097 689 105.527 1267.38 472.168
827 0 49.5246 11.8325 586 109.684 1266.32 473.3
828 0 52.5649 13.2408 696 106.687 1266.28 473.249
829 0 51.1637 12.9389 662 110.627 1263.88 469.551
830 0 53.3002 9.08065 484 114.064 1263.45 472.996
831 0 57.3902 10.2457 588 114.032 1263.05 469.221
832 0 58.6185 16.9059 991 103.763 1262.83 466.952
833 0 58.8447 11.9297 702 112.574 1262.71 465.315
834 0 62.1047 13.445 835 111.479 1262.52 462.278
835 0 59.9246 11.2475 674 115.177 1262.88 459.533
836 0 64.8477 14.5572 944 109.042 1262.44 460.793
837 0 63.9183 10.091 645 115.667 1263.32 460.865
838 0 73.2892 12.9896 952 109.289 1261.53 459.805
839 0 72.2488 13.7719 995 109.272 1260.84 456.5
840 0 75.1234 14.0569 1056 109.769 1261.3 452.055
841 0 77.5672 14.6454 1136 108.005 1262.1 452.067
842 0 82.1714 14.1899 1166 109.828 1262.2 447.416
843 0 85.0655 17.1162 1456 104.963 1261.55 447.419
844 0 86.8769 13.1105 1139 111.549 1262.47 444.754
845 1 49.0231 13.973 685 104.704 1262.01 465.448
846 0 48.5023 12.3087 597 110.131 1260.66 462.157
847 0 49.6237 13.3001 660 108.245 1262.65 463.267
848 0 52.4515 12.9453 679 112.985 1265.2 462.969
849 0 53.41 14.1546 756 109.886 1265.13 463.295
850 0 52.2081 12.3161 643 113.397 1266.84 460.065
851 0 54.1716 14.5095 786 111.742 1266.24 458.207
852 0 55.4773 12.4375 690 115.219 1267.98 459.671
853 0 57.7962 10.8312 626 117.655 1266.67 458.986
854 0 58.4278 10.7825 630 118.057 1268.59 460.362
855 0 61.6873 15.5299 958 109.914 1269.49 457.788
856 0 61.3976 13.1113 805 116.263 1269.79 454.947
857 0 68.0732 18.818 1281 106.433 1270.24 454.578
858 0 63.6047 11.0369 702 121.818 1270.39 451.274
859 0 63.5847 11.0404 702 155.989 1271.39 451.111
860 0 72.5718 12.9802 942 117.603 1269.94 455.606
861 0 74.1539 15.0228 1114 114.06 1271.62 455.374
862 0 78.0138 13.8565 1081 116.726 1270.76 456.923
863 0 79.0462 15.9653 1262 114.578 1270.78 454.537
864 0 78.8357 13.4076 1057 121.21 1269.16 452.748
865 0 80.6977 13.755 1110 122.007 1269.29 450.989
866 0 83.6744 13.3135 1114 121.378 1270.2 453.89
867 0 83.6744 13.3135 1114 159.391 1271.18 453.884
868 0 87.679 12.7168 1115 125.182 1269.1 448.669
869 0 92.4946 15.309 1416 120.799 1268.73 447.361
870 0 96.6695 14.9478 1445 121.506 1268.32 449.156
871 0 97.6778 15.633 1527 120.803 1268.07 444.515
872 0 101.674 14.8612 1511 122.429 1267.09 444.026
873 1 53.3452 8.49187 453 122.823 1267.74 473.565
874 0 53.3452 8.47312 452 151.009 1266.77 473.772
875 0 61.4463 14.2726 877 116.079 1266.73 462.174
876 0 62.2648 13.1856 821 122.217 1267.05 462.024
877 0 63.2552 13.1689 833 122.216 1266.13 457.896
878 0 64.1416 11.2875 724 125.819 1265.85 457.961
879 0 68.277 13.621 930 121.035 1264.67 456.339
880 0 70.1447 13.8856 974 118.132 1265.67 460.61
881 0 77.5494 20.1807 1565 107.227 1263.96 458.741
882 0 77.3937 13.2698 1027 122.113 1263.67 451.786
883 0 78.3145 14.761 1156 120.533 1263.43 448.604
884 0 80.246 15.3154 1229 119.58 1263.67 447.897
885 0 81.1562 12.4205 1008 120.813 1263.45 449.055
886 0 86.1941 12.5066 1078 122.235 1264.25 446.765
887 0 88.1989 14.7507 1301 119.031 1263.99 446.749
888 0 89.3332 13.4329 1200 122.086 1263.52 443.115
889 0 89.3332 13.4664 1203 150.579 1263.54 443.216
890 1 54.1508 11.8742 643 114.067 1264.51 466.031
891 0 53.0679 14.7735 784 110.593 1265.84 460.796
892 0 56.0713 12.0382 675 113.308 1266.88 462.496
893 0 57.2656 16.4671 943 107.02 1265.59 458.089
894 0 56.3986 12.1457 685 117.552 1266.22 455.908
895 0 57.3288 11.5649 663 118.258 1265.21 458.626
896 0 60.1807 11.3658 684 118.461 1269.62 454.471
897 0 62.1387 11.6514 724 115.61 1270.04 454.09
898 0 62.1387 11.6514 724 125.436 1270.99 454.014
899 0 63.0899 12.7913 807 113.953 1270.45 455.068
900 0 68.0434 12.9917 884 114.102 1270.17 453.26
901 0 69.1485 14.4616 1000 115.903 1269.37 454.125
902 0 72.0998 11.6505 840 119.502 1270.28 453.196
903 0 75.2334 12.0824 909 117.635 1269.89 457.552
904 0 76.1092 11.3915 867 119.245 1271.17 456.233
905 0 78.1082 13.3789 1045 130.484 1272.26 453.339
906 0 80.3424 11.6875 939 119.304 1269.91 454.153
907 0 83.1527 11.8697 987 119.732 1270.12 448.86
908 0 88.4167 13.2441 1171 116.424 1269.48 453.773
909 0 91.1076 12.4359 1133 117.645 1269.49 454.523
910 0 94.1963 13.1215 1236 117.096 1268.57 448.377
911 0 95.3724 12.3096 1174 117.974 1268.48 450.47
912 0 98.1471 14.4681 1420 114.413 1267.91 447.405
913 1 54.1824 13.1962 715 108.523 1265.95 475.406
914 0 55.0507 12.0798 665 108.829 1266.11 473.847
915 0 55.113 13.5177 745 105.648 1266.87 472.189
916 0 56.1245 13.2919 746 106.283 1265.71 472.084
917 0 61.058 9.12247 557 110.625 1264.52 475.75
918 0 62.1457 14.4982 901 102.385 1263.29 474.705
919 0 63.1151 13.4833 851 104.975 1264.08 470.222
920 0 60.0853 11.1841 672 109.81 1263.72 465.409
921 1 126.739 13.3582 1693 117.341 1263.44 425.541
922 1 65.0689 13.017 847 108.344 1263.41 462.795
923 0 68.0407 11.0816 754 112.32 1263.53 462.785
924 0 67.0892 11.4773 770 112.708 1262.52 458.114
925 0 67.1145 9.26774 622 116.15 1262.47 454.772
926 0 70.1183 11.5234 808 112.285 1262.69 455.074
927 0 73.1161 9.77897 715 113.498 1263.05 455.545
928 0 75.1598 9.859 741 115.054 1261.77 451.757
929 0 77.2027 11.6447 899 111.849 1262.1 452.432
930 0 80.2235 13.6244 1093 109.955 1260.9 447.086
931 0 82.1733 11.4879 944 113.458 1261.96 441.733
932 0 85.4505 13.6219 1164 109.513 1261.24 445.287
933 0 88.375 12.1528 1074 110.6 1262.84 445.392
934 0 89.2108 10.8171 965 111.03 1263.1 442.245
935 0 87.5907 11.7821 1032 111.701 1264.44 446.167
936 0 91.4446 9.78735 895 113.68 1265.27 446.273
937 1 49.1767 13.3193 655 103.264 1266.51 463.686
938 0 49.0373 9.99239 490 108.733 1266.92 463.716
939 0 52.1073 14.9307 778 100.497 1268.4 465.282
940 0 54.2204 10.9922 596 106.099 1268.92 462.732
941 0 52.0388 11.3377 590 108.634 1268.86 461.958
942 0 55.2862 11.956 661 107.725 1269.74 459.487
943 0 54.1889 10.0205 543 111.287 1267.87 464.394
944 0 61.0917 11.0326 674 108.239 1269.07 465.242
945 0 59.0661 9.04072 534 111.397 1268.77 464.566
946 0 60.137 10.7421 646 111.906 1267.71 462.8
947 0 59.1269 10.1984 603 111.466 1268.46 466.947
948 0 66.0891 12.7404 842 109.426 1268.49 462.255
949 0 70.2165 11.7351 824 110.282 1269 464.028
950 0 71.2856 13.8036 984 108.051 1267.81 462.344
951 0 74.3331 16.2915 1211 104.475 1267.73 464.709
952 0 79.1654 13.3518 1057 107.553 1267.64 466.936
953 0 78.2739 14.3598 1124 107.958 1267.37 461.228
954 0 83.2073 11.6336 968 111.652 1267.36 464.866
955 0 82.2833 10.1722 837 115.196 1265.89 462.976
956 0 87.2003 11.7201 1022 112.038 1266.26 455.936
957 0 90.3678 13.6885 1237 111.189 1265.11 456.909
958 0 91.451 12.0283 1100 112.718 1264.72 459.207
959 0 94.2986 17.3067 1632 106.808 1264.77 457.367
960 1 52.2676 12.7804 668 114.771 1263.91 471.771
961 0 55.0877 13.2153 728 110.03 1261.17 475.981
962 0 55.0836 13.5249 745 111.434 1259.98 472.105
963 0 58.1311 15.5167 902 108.508 1261.97 473.402
964 0 58.1733 14.3365 834 111.179 1260.24 468.029
965 0 59.3012 11.8547 703 115.27 1260.5 465.69
966 0 61.2962 12.3662 758 113.859 1260.46 464.901
967 0 62.305 13.9796 871 113.173 1260.44 463.582
968 0 65.2319 13.7969 900 114.04 1260.55 462.216
969 0 66.0791 13.272 877 117.166 1261.09 457.489
970 0 69.1339 17.5601 1214 110.337 1259.47 458.736
971 0 69.1693 12.8525 889 118.576 1260.2 459.015
972 0 71.2642 14.2287 1014 116.841 1259.7 455.196
973 0 72.2206 14.7326 1064 117.943 1261.18 452.866
974 0 76.2704 15.8908 1212 114.571 1260.49 454.592
975 0 77.2142 13.8316 1068 120.612 1260.9 448.589
976 0 79.2145 13.3688 1059 120.477 1261.99 451.042
977 0 84.0973 17.8246 1499 113.266 1262.4 443.788
978 0 85.359 16.331 1394 117.298 1262.83 443.438
979 0 85.1533 14.3858 1225 120.041 1264.5 441.501
980 0 89.1638 11.0359 984 123.585 1264.33 445.251
981 0 94.18 17.3498 1634 115.63 1265.62 443.249
982 1 53.0704 12.0029 637 123.181 1264.11 462.328
983 0 52.5359 9.28888 488 119.746 1266.61 455.176
984 0 54.1645 10.4312 565 119.483 1268.34 452.648
985 0 57.2156 12.7413 729 114.538 1269.53 458.148
986 0 60.1667 14.9086 897 110.205 1270.71 459.045
987 0 62.1341 15.9655 992 112.457 1269.4 454.665
988 0 66.1322 19.6727 1301 103.822 1270.15 459.534
989 0 67.1416 13.4194 901 113.305 1270.98 453.756
990 0 69.1525 17.4108 1204 107.583 1272.45 455.053
991 0 72.1672 18.6096 1343 105.911 1271 458.007
992 0 74.1694 15.3028 1135 109.384 1271.68 457.909
993 0 79.2056 16.2994 1291 107.772 1271.12 454.415
994 0 80.1924 14.6647 1176 113.4 1271.04 454.502
995 0 83.3324 20.1242 1677 104.711 1270.05 452.416
996 0 86.161 13.6837 1179 114.41 1268.78 454.761
997 1 44.2327 10.2865 455 123.868 1269.91 474.38
998 0 45.3139 9.82039 445 125.708 1269.8 473.061
999 0 48.379 12.216 591 119.795 1267.71 471.946
1000 0 50.1086 14.1692 710 117.532 1264.04 473.08
1001 0 52.1924 16.5733 865 112.351 1262.52 474.364
1002 0 51.0946 10.5882 541 126.129 1262.29 470.922
1003 0 56.0856 14.4422 810 116.995 1261.51 472.053
1004 0 55.1101 11.1595 615 119.605 1260.2 473.956
1005 0 58.1651 15.5763 906 114.2 1260.05 469.464
1006 0 58.2973 11.5786 675 121.711 1260.19 468.916
1007 0 59.1066 15.3959 910 116.752 1260.53 465.621
1008 0 59.1095 16.4102 970 114.595 1259.69 465.952
1009 0 61.1194 13.1218 802 120.636 1259.21 462.717
1010 0 64.1444 13.5008 866 118.618 1259.84 465.972
1011 0 67.1087 13.724 921 118.564 1259.7 460.612
1012 0 69.1968 13.5122 935 119.215 1259.05 457.608
1013 0 71.1902 13.1057 933 118.2 1259.63 457.972
1014 0 71.1821 10.7471 765 123.927 1259.53 455.273
1015 0 75.2064 11.4352 860 121.516 1254.68 451.919
1016 0 78.3241 11.7078 917 118.156 1256.28 453.02
1017 0 80.2042 12.73 1021 114.623 1257.01 453.815
1018 0 82.1547 12.3669 1016 117.252 1257.67 449.86
1019 0 86.2598 12.9608 1118 116.5 1261.49 446.484
1020 0 89.1354 12.6886 1131 117.36 1261.83 443.338
1021 1 46.217 10.7536 497 118.948 1261.61 463.139
1022 0 48.3915 12.8535 622 119.661 1262.54 459.842
1023 0 50.4918 14.4776 731 112.317 1264.2 455.88
1024 0 51.3916 13.8349 711 112.591 1264.3 457.35
1025 0 50.1794 11.1998 562 116.712 1264.95 459.427
1026 0 53.3478 11.5469 616 118.388 1266.69 455.648
1027 0 56.277 15.2815 860 112.362 1268.08 453.476
1028 0 59.3069 14.4165 855 111.515 1267.88 456.813
1029 0 55.4783 11.0674 614 119.598 1269.25 452.945
1030 0 55.5905 11.045 614 133.498 1270.22 453.016
1031 0 63.4287 15.0405 954 111.719 1270.82 454.91
1032 0 65.4364 15.1598 992 111.47 1270.76 454.543
1033 0 68.3247 16.8021 1148 109.03 1271.87 452.734
1034 0 69.36 13.1632 913 116.129 1270.41 450.412
1035 0 72.3232 14.2555 1031 113.773 1269.66 456.638
1036 0 74.2673 14.8114 1100 113.231 1270.5 455.488
1037 0 75.3772 11.9797 903 118.393 1267.86 452.579
1038 0 78.418 14.8563 1165 112.589 1270.16 456.912
1039 0 80.412 10.6327 855 115.105 1268.17 456.979
1040 0 83.4516 13.2412 1105 112.343 1267.94 458.414
1041 0 84.3967 11.3749 960 117.264 1267.11 452.388
1042 0 86.7694 12.7925 1110 116.156 1266.93 452.41
1043 0 97.8443 18.0082 1762 106.403 1265.8 453.822
1044 1 49.3082 13.1418 648 107.861 1264.88 474.83
1045 0 51.2696 12.1905 625 109.669 1263.33 471.296
1046 0 48.2201 12.2563 591 112.753 1262.74 470.074
1047 0 52.2272 13.537 707 109.549 1263.5 470.669
1048 0 51.2259 8.68701 445 118.674 1262.76 468.463
1049 0 56.2921 11.387 641 113.234 1261.53 471.125
1050 0 59.2092 11.1976 663 114.454 1262.15 465.167
1051 0 59.4101 14.341 852 110.231 1260.61 463.683
1052 0 64.288 13.4706 866 110.469 1261.03 467.236
1053 0 64.3083 14.3061 920 111.032 1261.06 459.677
1054 0 64.3083 14.4149 927 119.368 1261.09 459.681
1055 0 67.2914 12.7356 857 114.152 1261.4 456.271
1056 0 69.2569 14.078 975 112.261 1260.38 457.902
1057 0 72.2766 13.0471 943 114.296 1261.05 455.645
1058 0 76.3138 13.7066 1046 113.377 1261.6 449.032
1059 0 81.2995 17.7 1439 106.981 1261.5 450.547
1060 0 81.2995 17.5647 1428 115.165 1260.5 450.644
1061 0 82.298 11.1667 919 118.583 1262.42 447.354
1062 0 86.2267 12.1656 1049 116.66 1261.63 448.046
1063 0 86.2267 12.1424 1047 126.439 1260.61 448.065
1064 1 44.1508 13.4766 595 122.556 1261.21 465.408
1065 0 47.0275 11.1637 525 122.859 1262.94 465.819
1066 0 50.1086 12.3532 619 121.092 1262.26 465.163
1067 0 55.2643 16.6111 918 111.736 1263.69 461.901
1068 0 50.1984 10.5581 530 123.285 1264.62 466.343
1069 0 51.0346 11.1101 567 121.101 1264.74 466.758
1070 0 55.1226 12.8441 708 119.362 1266.31 462.153
1071 0 54.0804 11.224 607 123.293 1267.16 463.153
1072 0 59.1228 15.0872 892 115.996 1267.23 462.453
1073 0 61.2765 11.5052 705 121.574 1266.71 462.092
1074 0 63.2524 11.0668 700 121.43 1268.19 464.731
1075 0 65.2455 12.8438 838 117.909 1268.14 464.517
1076 0 67.1841 15.6436 1051 112.011 1268.17 466.413
1077 0 70.2052 12.5917 884 118.077 1267.86 463.913
1078 0 73.2943 16.3996 1202 113.077 1269.05 460.329
1079 0 74.2848 15.1848 1128 114.569 1268.07 456.676
1080 0 79.3336 14.6722 1164 113.954 1268.43 462.485
1081 0 83.3382 13.7152 1143 116.571 1266.91 460.395
1082 0 83.2536 14.5339 1210 115.458 1268.09 461.406
1083 1 45.1019 14.1679 639 115.258 1265.44 481.008
1084 0 46.0687 14.5869 672 117.891 1265.45 478.799
1085 0 46.1192 11.3185 522 126.557 1265.54 478.178
1086 0 46.1006 14.9673 690 116.194 1264.76 478.343
1087 0 47.1799 13.7559 649 118.855 1265.48 480.538
1088 0 48.1443 11.9225 574 122.216 1265.2 479.197
1089 0 52.2442 13.4752 704 117.855 1265.94 476.93
1090 0 52.1937 13.4499 702 120.865 1264.51 476.35
1091 0 57.0873 12.332 704 117.037 1265.15 478.148
1092 0 56.248 15.7161 884 115.018 1263.74 475.193
1093 0 56.1703 14.3492 806 117.787 1264.39 472.558
1094 0 60.307 13.4147 809 117.315 1264.11 472.067
1095 0 62.1957 12.0909 752 119.164 1263.68 468.839
1096 0 62.0838 12.7408 791 119.049 1262.65 466.544
1097 0 65.2158 14.0304 915 116.34 1262.74 465.686
1098 0 69.2341 17.1736 1189 110.027 1263.18 463.47
1099 0 68.2438 11.7373 801 119.34 1262.29 461.397
1100 0 71.2074 12.1055 862 119.703 1261.72 460.954
1101 0 75.2183 12.8293 965 117.987 1262.08 457.708
1102 0 77.2611 12.7749 987 118.001 1262.83 451.005
1103 0 78.2552 13.1876 1032 116.377 1262.81 452.665
1104 0 83.2756 12.7168 1059 115.735 1261.87 450.124
1105 0 87.3443 17.036 1488 108.173 1262.47 451.212
1106 0 92.3852 15.1215 1397 111.629 1262.71 446.494
1107 0 93.3005 15.5841 1454 111.041 1264.45 446.134
1108 0 96.416 12.6328 1218 115.604 1263.43 445.91
1109 0 96.1748 11.8222 1137 116.062 1265.66 445.939
1110 1 53.4545 11.8793 635 110.997 1266.08 461.546
1111 0 57.4355 13.9635 802 105.897 1264.73 459.641
1112 0 55.3348 14.1141 781 107.269 1265.67 458.932
1113 0 57.3064 13.803 791 106.168 1266.75 459.794
1114 0 57.2733 10.8427 621 111.081 1266.92 456.667
1115 0 60.2973 12.5047 754 110.163 1268.14 453.605
1116 0 62.2357 11.2476 700 111.966 1268.42 457.957
1117 0 66.2928 12.5806 834 110.219 1269.62 457.37
1118 0 66.0739 13.7119 906 111.287 1268.74 460.345
1119 0 71.1869 14.0335 999 108.767 1270.05 460.716
1120 0 73.0981 12.2028 892 111.715 1269.66 457.036
1121 0 75.2205 14.8098 1114 107.82 1269.35 461.306
1122 0 79.1343 15.1135 1196 107.663 1269.14 455.732
1123 0 80.2095 13.8886 1114 109.801 1269.39 459.85
1124 0 86.3425 15.0911 1303 107.562 1269.06 460.328
1125 1 44.2011 12.1943 539 112.475 1269.71 477.978
1126 0 46.3139 13.0199 603 112.587 1267.66 476.376
1127 0 46.3354 12.6038 584 114.44 1267.36 480.548
1128 0 47.5553 11.965 569 116.524 1267.87 477.598
1129 0 50.2137 14.2391 715 113.29 1264.65 478.849
1130 0 51.0489 14.1237 721 114.402 1262.42 480.119
1131 0 54.1582 14.3099 775 113.679 1261.68 478.71
1132 0 54.0571 14.1332 764 114.749 1261.62 479.868
1133 0 56.091 15.4214 865 116.808 1261.23 475.335
1134 0 57.1503 13.4732 770 120.262 1261.6 474.274
1135 0 59.0661 13.8997 821 120.464 1258.82 474.179
1136 0 62.0871 14.8179 920 117.577 1260.03 470.687
1137 0 66.1189 14.7159 973 116.738 1259.31 470.075
1138 0 66.1189 14.7008 972 131.257 1258.3 470.047
1139 0 73.0923 9.3033 680 125.674 1259.04 469.524
1140 0 73.1189 13.3344 975 120.837 1258.73 462.747
1141 0 74.1193 15.3671 1139 117.21 1258.13 463.563
1142 0 73.0733 12.8638 940 123.229 1258.73 460.571
1143 0 75.1615 13.2249 994 123.16 1257.74 457.817
1144 0 78.1477 14.1399 1105 121.649 1257.57 458.498
1145 0 79.0791 12.6961 1004 124.28 1257.53 457.497
1146 0 84.1813 13.9461 1174 121.911 1257.93 454.095
1147 0 89.3381 18.6371 1665 114.488 1258.08 451.637
1148 0 92.2696 11.5748 1068 126.647 1258.63 448.622
1149 0 91.1917 14.4092 1314 122.046 1259.05 446.912
1150 1 48.0733 11.5033 553 123.785 1262.64 466.051
1151 0 48.0941 12.3924 596 119.129 1263.35 472.164
1152 0 49.1637 12.3465 607 118.756 1261.03 469.608
1153 0 53.1351 13.3998 712 118.965 1264.39 465.253
1154 0 53.1351 13.5504 720 139.421 1266.44 465.158
1155 0 57.154 14.7671 844 121.064 1267.59 463.164
1156 0 59.0472 13.938 823 121.739 1267.09 466.796
1157 0 60.0625 12.487 750 123.408 1266.28 467.429
1158 0 62.114 14.8115 920 121.563 1267.26 462.873
1159 0 64.0703 12.6424 810 124.951 1268.48 461.97
1160 0 69.084 15.1555 1047 119.689 1270.45 461.126
1161 0 68.0844 13.4098 913 124.576 1268.91 460.405
1162 0 74.096 14.8321 1099 120.752 1270.69 462.473
1163 0 71.0972 14.2481 1013 123.779 1270.12 458.533
1164 0 76.0715 15.5774 1185 120.219 1270.44 458.63
1165 0 78.0931 12.0881 944 126.136 1270.97 461.028
1166 0 80.0806 15.2846 1224 121.579 1270.53 458.961
1167 0 86.0882 16.7386 1441 117.913 1270.65 459.266
1168 0 87.2257 15.9471 1391 120.861 1270.3 456.039
1169 1 44.0527 12.4623 549 121.113 1269.68 480.392
1170 0 46.0433 15.5072 714 119.164 1268.64 478.322
1171 0 47.0525 11.6466 548 126.586 1267.84 481.568
1172 0 49.3054 13.9741 689 122.139 1268.01 482.592
1173 0 53.3735 14.8388 792 121.326 1263.75 478.967
1174 0 54.1342 15.7756 854 116.682 1261.52 482.07
1175 0 54.2317 15.0281 815 118.421 1262.49 481.675
1176 0 56.0597 12.344 692 125.223 1261.29 474.432
1177 0 58.1299 14.4504 840 120.467 1261.16 475.013
1178 0 60.1302 15.9487 959 117.388 1259.81 471.643
1179 0 62.227 13.7239 854 120.719 1260.27 474.856
1180 0 63.2027 15.031 950 119.548 1259.41 468.971
1181 0 65.128 13.2969 866 122.135 1259.62 468.808
1182 0 68.1857 14.9738 1021 119.36 1259.33 466.708
1183 0 71.1489 15.4746 1101 118.173 1259.64 463.867
1184 0 72.3541 15.3965 1114 117.954 1259.56 466.253
1185 0 75.3597 15.5654 1173 118.812 1259.74 462.393
1186 0 76.3869 15.2906 1168 120.546 1259.46 458.31
1187 0 79.506 15.6844 1247 117.403 1259.42 452.4
1188 0 82.331 14.7697 1216 118.778 1259.9 452.369
1189 0 83.2967 12.1253 1010 124.749 1259.57 453.352
1190 0 87.344 13.6472 1192 122.609 1260.37 449.989
1191 1 47.2557 11.2156 530 123.608 1258.9 472.17
1192 0 46.1404 13.5456 625 123.158 1260.32 467.376
1193 0 50.2208 16.4075 824 115.601 1260.96 468.903
1194 0 52.1674 13.2075 689 122.682 1260.56 467.431
1195 0 53.2155 13.6802 728 122.94 1261.83 465.668
1196 0 52.0573 11.7563 612 124.292 1261.35 464.673
1197 0 56.2248 12.8947 725 122.223 1262.3 463.37
1198 0 57.1786 14.0962 806 119.042 1262.79 464.372
1199 0 57.1177 13.3058 760 121.678 1262.75 462.255
1200 0 61.2114 15.5853 954 117.287 1263.81 463.379
1201 0 62.1838 16.9015 1051 116.791 1264.8 461.658
1202 0 63.2619 16.3764 1036 115.174 1264.76 464.697
1203 0 67.0739 14.6406 982 120.022 1265.25 460.35
1204 0 69.2155 12.7573 883 121.726 1265.23 462.084
1205 0 71.4226 14.4772 1034 119.131 1265.7 459.671
1206 0 74.3412 14.151 1052 119.655 1267.04 461.138
1207 0 77.3322 14.3924 1113 119.336 1267.05 461.856
1208 0 79.2939 14.2886 1133 120.43 1266.99 461.342
1209 0 84.3489 14.2859 1205 119.755 1267.09 460.466
1210 1 42.2577 13.536 572 116.285 1264.83 480.677
1211 0 44.4278 12.6497 562 119.568 1266.61 478.541
1212 0 44.0528 13.3476 588 117.4 1264.49 478.974
1213 0 47.0861 14.1443 666 115.874 1264.82 476.91
1214 0 48.0947 14.2635 686 116.138 1263.81 476.777
1215 0 48.1179 14.1112 679 117.891 1263.96 477.299
1216 0 52.2524 15.8653 829 110.848 1262.28 477.113
1217 0 53.147 13.2087 702 115.016 1261.12 478.597
1218 0 53.046 14.1764 752 115.037 1260.54 476.104
1219 0 56.0887 12.195 684 117.475 1261.13 472.716
1220 0 56.1666 13.3709 751 116.37 1259.81 473.896
1221 0 59.0858 14.589 862 113.9 1259.29 471.825
1222 0 60.0789 15.1135 908 111.609 1258.31 471.197
1223 0 62.0906 15.9767 992 112.025 1259.57 467.991
1224 0 65.0966 14.6244 952 113.663 1258.44 465.477
1225 0 65.1968 12.3012 802 119.125 1257.04 464.029
1226 0 68.127 14.9574 1019 113.523 1257.08 465.341
1227 0 68.3056 13.4542 919 117.715 1257.34 461.952
1228 0 73.1424 14.1642 1036 115.299 1257.61 458.072
1229 0 73.1435 11.9901 877 119.299 1257.87 460.677
1230 1 38.2197 9.55004 365 122.255 1257.96 475.521
1231 0 38.3006 7.44113 285 127.277 1259.21 472.386
1232 0 42.3607 12.0867 512 117.721 1259.68 471.477
1233 0 42.2711 12.3725 523 118.287 1259.06 468.83
1234 0 45.1723 11.2016 506 120.134 1258.02 469.739
1235 0 46.0856 12.1947 562 119.208 1257.67 467.838
1236 0 47.0218 13.6107 640 117.009 1259.75 466.153
1237 0 50.0435 12.5691 629 119.223 1261.06 465.615
1238 0 51.0687 14.9015 761 115.369 1261.3 464.783
1239 0 53.053 10.0654 534 119.391 1262.07 466.622
1240 0 52.2072 10.8989 569 116.589 1262.61 466.244
1241 0 52.2443 12.5755 657 114.954 1263.72 462.785
1242 0 51.2287 8.92077 457 136.234 1264.21 467.212
1243 0 57.2174 13.1254 751 114.655 1264.61 462.983
1244 0 58.1907 13.0605 760 114.746 1264.86 462.016
1245 0 59.1953 10.8117 640 117.828 1265.62 463.698
1246 0 64.2828 13.2384 851 114.201 1267.12 462.194
1247 0 63.5388 10.891 692 118.185 1268.19 463.065
1248 0 67.1649 14.0847 946 112.184 1267.08 464.35
1249 0 69.3596 12.0387 835 115.732 1267.87 460.679
1250 0 72.2915 14.898 1077 111.687 1266.44 460.923
1251 0 72.2345 9.59376 693 119.958 1268.29 464.882
1252 0 75.2515 12.1991 918 115.024 1266 465.699
1253 0 80.5359 13.9317 1122 111.36 1266.59 465.624
1254 1 42.1422 12.6002 531 114.147 1265.03 480.653
1255 0 44.1758 12.0428 532 111.763 1264.97 484.771
1256 0 45.1061 16.3171 736 106.799 1265.36 480.318
1257 0 47.2148 14.0422 663 108.704 1264.6 480.636
1258 0 46.1958 13.1614 608 112.118 1264.55 479.979
1259 0 47.1445 13.7238 647 115.142 1264.07 478.815
1260 0 52.0314 15.1447 788 111.529 1262.7 479.534
1261 0 52.0723 12.425 647 116.198 1260.7 474.972
1262 0 55.0731 11.5846 638 117.431 1259.85 471.171
1263 0 57.1064 14.7794 844 112.72 1259.1 471.206
1264 0 58.0814 12.2587 712 115.937 1258.78 473.979
1265 0 60.1954 20.6162 1241 104.806 1259.73 466.761
1266 0 62.0564 12.4242 771 117.813 1258.11 466.484
1267 0 62.0652 11.0851 688 120.679 1258.95 465.151
1268 0 62.0652 11.1818 694 131.522 1259.97 465.046
1269 0 64.1163 11.5571 741 118.626 1258.03 464.688
1270 0 72.1707 12.7337 919 114.702 1257.95 462.59
1271 0 74.1361 14.0957 1045 112.92 1257.95 461.083
1272 1 40.1951 11.4193 459 114.279 1258.4 474.288
1273 0 38.1701 8.14774 311 118.823 1257.57 474.109
1274 0 40.0744 11.6034 465 115.452 1258.98 471.634
1275 0 43.3695 13.1429 570 111.3 1258.65 469.377
1276 0 43.4945 12.5073 544 113.134 1260.37 466.366
1277 0 44.6562 11.8909 531 115.158 1261.21 466.635
1278 0 46.4416 14.4698 672 110.448 1261.22 467.411
1279 0 48.449 14.6546 710 110.403 1261.97 464.794
1280 0 48.5647 14.7638 717 110.894 1262.55 465.92
1281 0 50.3967 18.9298 954 105.168 1263 460.501
1282 0 52.1575 16.1434 842 108.945 1265.38 460.489
1283 0 51.044 10.6183 542 118.747 1266.56 460.943
1284 0 54.0242 12.6425 683 114.878 1268.42 464.731
1285 0 52.0303 10.3209 537 119.968 1269.1 458.998
1286 0 58.071 10.6077 616 118.088 1269.89 462.308
1287 0 60.1172 12.1429 730 115.774 1269.24 461.636
1288 0 63.1791 15.0208 949 111.841 1269.93 459.198
1289 0 64.1683 12.4049 796 115.087 1270.43 461.975
1290 0 67.0904 13.1166 880 114.444 1270.56 463.562
1291 0 68.1066 13.7872 939 112.874 1271.12 461.782
1292 0 70.1483 12.944 908 115.333 1271.18 462.394
1293 0 76.1267 12.9258 984 114.026 1270.97 462.909
1294 0 76.268 12.5216 955 116.181 1270.09 457.854
1295 0 79.225 16.6993 1323 110.705 1269.74 460.379
1296 0 82.2302 16.2471 1336 111.141 1270.6 457.88
1297 0 85.124 18.2205 1551 108.341 1270.33 460.305
1298 0 88.0974 16.5272 1456 112.035 1271.27 459.611
1299 0 87.2416 12.2992 1073 119.101 1270.5 460.187
1300 0 89.1685 11.9213 1063 119.725 1268.1 461.156
1301 1 46.3603 12.3381 572 117.278 1266.35 476.86
1302 0 47.3859 13.3162 631 112.705 1264.77 472.956
1303 0 51.2693 12.7952 656 112.959 1263.77 471.811
1304 0 53.2445 14.0672 749 108.292 1262.48 476.363
1305 0 51.2253 11.5568 592 116.03 1262.22 471.949
1306 0 55.2921 12.2621 678 118.566 1261.03 474.133
1307 0 60.0415 16.2055 973 111.141 1263.59 472.859
1308 0 63.1865 15.0507 951 115.151 1261.24 468.164
1309 0 67.0988 12.966 870 119.68 1260.73 466.038
1310 0 71.1673 11.9577 851 119.489 1261.84 465.112
1311 0 74.1532 15.1848 1126 114.55 1261.1 463.108
1312 0 77.1066 17.7676 1370 111.815 1261.31 459.731
1313 0 76.0907 13.1291 999 120.825 1260.6 455.718
1314 0 82.1081 17.4404 1432 112.869 1260.98 455.222
1315 0 84.1895 15.1682 1277 118.159 1260.98 449.813
1316 1 44.2422 12.1377 537 120.255 1261.02 472.156
1317 0 46.1534 12.8701 594 119.293 1261.25 469.662
1318 0 48.4542 14.4054 698 116.423 1261.33 467.338
1319 0 48.2183 12.2567 591 122.668 1262.25 464.772
1320 0 51.2801 15.5616 798 115.909 1262.35 466.244
1321 0 52.2709 14.2909 747 118.477 1263.04 464.9
1322 0 55.321 16.106 891 114.576 1264.21 463.756
1323 0 55.3361 14.8366 821 119.811 1265.19 461.626
1324 0 57.3173 15.5276 890 118.496 1266.56 460.925
1325 0 59.4352 15.7146 934 118.491 1267.77 459.082
1326 0 61.3469 14.1327 867 120.732 1266.23 460.051
1327 0 61.3469 14.0023 859 153.225 1265.25 460.1
1328 0 67.314 17.307 1165 112.5 1268.38 464.813
1329 0 67.314 17.1287 1153 132.415 1271.41 464.814
1330 0 72.4629 14.1728 1027 119.008 1268.9 460.885
1331 0 73.9226 15.8138 1169 117.025 1267.61 461.73
1332 0 75.4982 21.2455 1604 109.724 1268.78 459.104
1333 0 73.7334 12.057 889 121.823 1267.87 462.134
1334 0 81.7708 15.3233 1253 119.538 1269.06 452.71
1335 0 84.0714 13.2625 1115 122.67 1267.81 454.689
1336 0 90.0455 18.5018 1666 113.971 1267.22 451.769
1337 0 89.8636 15.39 1383 118.764 1266.46 455.25
1338 1 44.5644 13.3963 597 117.268 1264.97 477.784
1339 0 46.47 11.8141 549 122.016 1266.07 476.679
1340 0 48.3136 17.6555 853 106.53 1265.62 476.556
1341 0 49.229 14.8286 730 106.516 1265.81 471.415
1342 0 49.1816 10.9797 540 113.531 1264.82 471.696
1343 0 51.2382 16.5111 846 105.813 1263.78 471.547
1344 0 54.0401 12.5647 679 110.349 1263.39 472.733
1345 0 53.2195 12.5142 666 113.258 1261.48 471.216
1346 0 57.1313 15.5431 888 109.019 1262.31 469.374
1347 0 58.3498 14.9958 875 108.983 1261.59 471.239
1348 0 57.3087 12.232 701 134.133 1261.5 468.632
1349 0 61.1436 15.6517 957 110.422 1260.73 465.073
1350 0 64.1338 13.5498 869 113.486 1261.19 462.913
1351 0 68.363 17.4363 1192 108.45 1261.53 460.993
1352 0 68.1948 14.048 958 114.414 1259.94 459.838
1353 0 69.505 12.7905 889 117.178 1261.2 458.217
1354 0 72.4704 9.97649 723 121.416 1259.99 457.952
1355 0 75.4076 14.5343 1096 115.277 1259.84 455.253
1356 0 78.2046 13.9762 1093 117.296 1258.75 449.784
1357 0 80.5141 16.3077 1313 114.807 1258.73 447.737
1358 0 84.5558 12.9619 1096 121.082 1259 447.109
1359 1 42.137 9.63524 406 123.473 1258.35 465.02
1360 0 43.144 12.7017 548 123.325 1258.44 469.257
1361 0 46.1309 13.5267 624 121.803 1258.79 468.365
1362 0 46.0328 13.3818 616 122.549 1259.67 468.003
1363 0 48.2579 15.7694 761 118.016 1260.09 467.566
1364 0 52.0731 18.6277 970 118.489 1260.15 462.05
1365 0 54.0562 16.4828 891 122.906 1262.11 461.174
1366 0 53.214 14.8457 790 126.98 1263.2 459.397
1367 0 56.1122 13.1879 740 128.523 1261.58 461.427
1368 0 58.0428 15.5575 903 124.137 1263.09 458.524
1369 0 59.1802 19.1449 1133 118.207 1265.58 457.016
1370 0 63.1073 15.1647 957 124.656 1266.36 459.862
1371 0 63.1073 15.0696 951 148.666 1266.37 459.924
1372 0 68.3526 14.5569 995 121.954 1267.72 461.682
1373 0 67.2456 14.1124 949 125.034 1266.37 458.262
1374 0 71.1242 18.8262 1339 116.25 1268.24 454.5
1375 0 74.1947 15.985 1186 120.411 1267.26 456.132
1376 0 77.203 15.4657 1194 120.53 1268.09 457.522
1377 0 80.2305 16.7019 1340 118.06 1268.3 456.168
1378 0 82.169 13.1315 1079 123.204 1268.26 457.519
1379 0 85.2234 17.0493 1453 117.211 1267.36 455.069
1380 0 86.2132 13.6522 1177 122.385 1267.52 455.202
1381 0 92.2181 18.0876 1668 113.019 1267.3 457.134
1382 1 42.3289 13.3479 565 121.864 1268.5 477.519
1383 0 42.3289 13.1589 557 154.395 1269.52 477.49
1384 0 45.1121 20.9922 947 106.455 1267.57 477.925
1385 0 48.1266 23.1473 1114 101.918 1266.79 473.348
1386 0 49.1935 18.6 915 105.961 1265.58 478.018
1387 0 51.1719 20.3041 1039 105.44 1264 474.457
1388 0 52.143 15.8602 827 111.923 1264.08 470.634
1389 0 53.0636 17.0173 903 110.512 1262.61 469.802
1390 0 56.3467 13.4879 760 115.378 1262.69 468.471
1391 0 58.481 17.339 1014 108.9 1262.43 466.453
1392 0 58.1902 14.6416 852 113.899 1262.55 463.562
1393 0 62.2842 13.6792 852 115.783 1261.72 461.721
1394 0 62.3384 15.7367 981 114.968 1261.44 458.592
1395 0 65.5042 15.0677 987 115.751 1259.83 457.855
1396 0 66.3694 16.6794 1107 114.413 1260.45 453.883
1397 0 69.3949 16.3412 1134 115.167 1259.03 453.415
1398 0 71.3684 15.7493 1124 117.549 1259.65 450.57
1399 0 73.2723 13.4294 984 120.958 1259.6 447.493
1400 0 74.2556 14.1404 1050 119.82 1259.92 448.623
1401 0 76.2586 17.4669 1332 114.772 1260.41 446.742
1402 0 79.2922 10.9595 869 125.633 1260.28 443.335
1403 1 41.6068 10.3829 432 124.174 1259.67 461
1404 0 43.4555 14.0834 612 116.917 1258.98 461.113
1405 0 46.3689 13.3279 618 118.913 1260.26 458.251
1406 0 46.1817 14.1615 654 118.65 1261.65 458.992
1407 0 47.5296 14.2227 676 119.448 1263.04 457.593
1408 0 49.4401 15.4531 764 116.7 1262.92 456.423
1409 0 48.2274 14.3487 692 119.876 1263.27 453.101
1410 0 53.6468 13.6821 734 118.828 1262.63 455.238
1411 0 54.7415 16.039 878 127.169 1261.64 453.316
1412 0 58.3446 17.1395 1000 113.616 1264.68 454.741
1413 0 56.5169 13.3234 753 121.448 1264.37 452.794
1414 0 56.5169 13.2704 750 143.116 1264.38 452.805
1415 0 63.4549 16.0902 1021 115.876 1266.23 452.774
1416 0 64.3819 13.948 898 119.756 1266.47 452.27
1417 0 64.4522 13.7311 885 139.642 1266.46 451.916
1418 0 69.6023 15.8328 1102 117.253 1266.71 451.561
1419 0 72.5649 13.3398 968 121.176 1266.65 452.937
1420 0 72.1708 14.6458 1057 119.196 1267.78 451.422
1421 0 72.1708 14.5765 1052 143.086 1268.79 451.277
1422 0 80.3264 15.4744 1243 116.728 1266.85 453.352
1423 0 82.387 14.7718 1217 118.271 1266.33 453.917
1424 0 85.3518 15.3717 1312 116.951 1265.96 452.649
1425 0 86.3655 12.1808 1052 124.479 1266 452.941
1426 0 91.4303 15.4872 1416 116.025 1266.06 453.935
1427 1 46.1873 11.7781 544 122.581 1263.98 471.809
1428 0 50.1888 10.3808 521 123.524 1264.39 472.737
1429 0 53.4233 13.496 721 119.132 1262.83 473.171
1430 0 51.2346 14.092 722 121.666 1262.6 469.114
1431 0 54.1534 12.2615 664 123.182 1261.82 469.408
1432 0 56.3608 14.4427 814 118.475 1261.33 469.367
1433 0 59.6 13.3054 793 121.159 1260.4 467.272
1434 0 62.1509 13.258 824 121.441 1260.51 463.364
1435 0 64.3942 14.6752 945 118.596 1259.21 463.176
1436 0 63.4089 11.5441 732 126.406 1260.48 457.93
1437 0 66.1991 13.5047 894 121.942 1259.29 459.286
1438 0 69.1918 15.1752 1050 119.793 1259.07 458.901
1439 0 69.4349 14.2868 992 121.812 1257.56 458.77
1440 0 71.3219 15.8717 1132 119.754 1256.59 452.95
1441 0 76.1348 16.2606 1238 116.807 1258.54 455.416
1442 0 76.4955 15.661 1198 119.744 1258.99 449.518
1443 0 79.1554 15.059 1192 121.039 1258.9 448.477
1444 0 83.4052 15.023 1253 122.583 1260.18 445.982
1445 0 86.4664 19.9731 1727 114.819 1258.77 446.837
1446 0 86.6308 13.5402 1173 127.538 1260.52 441.062
1447 0 88.7788 13.0099 1155 129.474 1261.43 440.743
1448 1 50.1073 11.635 583 117.578 1260.71 465.583
1449 0 52.1636 12.3074 642 118.329 1260.56 462.91
1450 0 51.0626 11.2607 575 120.327 1262.12 462.144
1451 0 57.0436 13.551 773 114.334 1263.58 461.353
1452 0 56.1769 9.14966 514 122.617 1264.11 457.393
1453 0 56.1791 9.14931 514 129.722 1265.11 457.393
1454 0 60.1831 10.5345 634 119.397 1264.43 458.927
1455 0 63.1554 10.8463 685 117.996 1264.82 456.264
1456 0 64.1394 11.6621 748 117.493 1265.87 458.727
1457 0 68.0942 12.8792 877 115.537 1266.78 456.149
1458 0 68.1148 11.8036 804 117.024 1266.35 458.209
1459 0 67.1938 9.15263 615 122.925 1267.53 457.289
1460 0 72.1839 10.6949 772 121.175 1267.76 457.07
1461 1 38.0427 8.62188 328 125.287 1269.52 473.985
1462 0 38.0417 9.27928 353 123.895 1269.76 474.739
1463 0 38.0539 8.22517 313 121.096 1269.78 473.537
1464 0 40.0443 8.26584 331 124.057 1268.87 476.562
1465 0 44.0678 10.2796 453 121.121 1268.61 476.883
1466 0 46.0484 13.7898 635 115.798 1268.73 474.715
1467 0 47.0468 12.3282 580 117.883 1269.44 475.467
1468 0 48.1533 12.3979 597 118.802 1268.63 475.777
1469 0 47.0717 10.7496 506 119.065 1267.62 475.053
1470 0 49.0395 14.9471 733 112.209 1267.29 477.168
1471 0 51.1303 12.4779 638 115.94 1266.71 477.646
1472 0 52.2386 13.1512 687 114.269 1265.57 477.189
1473 0 55.2354 12.2566 677 115.643 1264.5 475.235
1474 0 55.1245 11.1203 613 117.827 1264.36 476.021
1475 0 57.1754 15.0764 862 112.798 1264.18 474.386
1476 0 58.0907 11.7058 680 120.929 1263.61 471.709
1477 0 55.223 10.6477 588 120.98 1261.92 475.781
1478 0 61.1491 10.3027 630 121.871 1261.77 472.073
1479 0 61.2758 8.79629 539 126.406 1261.98 467.93
1480 0 64.2755 13.551 871 117.172 1260.67 468.862
1481 1 127.706 10.3597 1323 130.168 1260.61 438.093
1482 0 131.981 8.5467 1128 134.293 1259.66 427.409
1483 0 137.682 13.4585 1853 126.797 1259.7 423.128
1484 0 143.662 11.4783 1649 129.657 1260.07 422.136
1485 1 41.2598 8.02234 331 124.124 1261.27 473.994
1486 0 41.1243 12.5473 516 116.18 1261.71 474.729
1487 0 43.2332 8.83581 382 124.479 1262.35 467.364
1488 0 43.2268 8.81397 381 121.218 1261.33 467.388
1489 0 46.1541 11.7649 543 121.304 1263.17 466.989
1490 1 165.06 12.0502 1989 134.316 1262.23 402.999
1491 1 126.982 10.663 1354 134.707 1262.23 420.773
1492 0 131.998 14.5154 1916 126.713 1261.82 426.702
1493 0 132.945 9.13912 1215 138.575 1263.94 420.487
1494 0 136.295 12.1355 1654 134.456 1263 418.241
1495 0 135.668 9.96548 1352 134.109 1263.88 427.146
1496 0 145.93 11.3548 1657 131.145 1265.47 422.352
1497 0 149.576 8.8918 1330 131.326 1265.79 430.538
1498 0 153.773 13.1168 2017 129.871 1266.35 411.428
1499 0 160.005 11.3809 1821 130.191 1266.69 414.54
1500 0 166.75 12.3718 2063 131.5 1267.77 401.698
1501 1 121.676 8.71165 1060 127.106 1268.85 428.43
1502 0 125.3 10.0399 1258 125.317 1268.75 425.369
1503 1 66.2413 12.53 830 114.61 1267.83 453.983
1504 0 66.3961 11.7627 781 116.348 1268.63 457.452
1505 0 68.238 13.1891 900 113.696 1269.08 462.051
1506 0 71.2971 12.0903 862 117.51 1268.36 458.537
1507 0 72.2588 10.5869 765 120.246 1269.24 456.017
1508 0 75.3144 15.4154 1161 112.511 1267.61 457.667
1509 0 80.2956 15.2686 1226 112.298 1269.32 456.934
1510 0 80.288 15.1455 1216 110.776 1270.33 456.818
1511 0 80.2725 10.0034 803 124.517 1267.88 458.141
1512 0 84.2433 11.4668 966 122.311 1267.92 453.563
1513 0 85.2544 11.8586 1011 121.283 1265.92 460.032
1514 0 88.1576 12.0012 1058 124.223 1264.86 459.312
1515 0 89.1871 12.7373 1136 124.511 1264.29 457.675
1516 0 93.5276 12.4028 1160 124.524 1263.18 456.017
1517 0 94.721 13.2178 1252 126.768 1262.59 453.692
1518 1 52.082 11.3859 593 125.432 1260.09 479.277
1519 0 54.0392 11.6212 628 126.753 1260.18 475.994
1520 0 58.1617 17.1075 995 110.288 1260.87 475.134
1521 0 58.1916 13.4727 784 126.938 1261 468.455
1522 0 61.2242 13.9651 855 121.701 1262.12 469.077
1523 0 61.3709 13.4591 826 124.123 1261.89 466.523
1524 0 63.2566 13.8009 873 123.111 1261.52 465.03
1525 0 65.2907 12.9421 845 124.96 1262.01 461.843
1526 0 66.3182 13.8574 919 123.264 1260.9 462.695
1527 0 67.2473 12.4317 836 126.348 1261.81 459.852
1528 0 72.2734 17.6137 1273 116.369 1261.65 454.874
1529 0 74.3555 15.7756 1173 119.313 1261.96 454.424
1530 0 75.2896 17.0542 1284 117.369 1261.15 450.666
1531 0 76.1736 12.9835 989 124.494 1262.59 451.727
1532 0 77.477 12.7264 986 125.688 1262.57 446.74
1533 0 84.2657 17.5754 1481 115.471 1263.12 445.928
1534 0 86.6878 13.6005 1179 121.758 1264.07 448.441
1535 0 88.2322 13.7818 1216 122.344 1263.81 442.309
1536 0 90.472 14.7781 1337 121.298 1264.45 437.291
1537 0 95.3046 15.697 1496 120.205 1265.26 435.812
1538 1 45.2629 14.007 634 122.429 1267.88 462.257
1539 0 47.1044 12.0159 566 120.24 1267.26 464.265
1540 0 45.4072 10.3508 470 125.079 1267.55 462.806
1541 0 51.314 13.5051 693 116.38 1268.08 465.89
1542 0 53.2158 17.4572 929 111.05 1268.05 460.885
1543 0 52.199 17.7015 924 121.977 1269.01 460.805
1544 0 54.1872 13.7302 744 117.829 1268.52 464.398
1545 0 54.1872 13.7117 743 134.166 1268.55 464.501
1546 0 57.2389 13.068 748 118.801 1268.95 464.727
1547 0 59.4633 16.0267 953 111.474 1268.02 460.736
1548 0 57.2185 8.65105 495 125.006 1268.22 463.085
1549 0 61.1733 13.4536 823 117.464 1267.73 460.024
1550 0 65.3186 14.8962 973 114.065 1268.07 459.001
1551 0 66.3862 14.9278 991 114.173 1268.91 458.593
1552 0 68.0821 14.4678 985 114.791 1267.84 461.564
1553 0 70.2119 11.2801 792 119.215 1268.21 460.913
1554 0 74.2084 13.5025 1002 115.416 1267.58 461.034
1555 0 78.2517 12.7026 994 116.898 1266.81 458.665
1556 0 77.2489 11.6765 902 119.748 1266.61 458.652
1557 0 83.357 15.7395 1312 112.162 1265.3 454.428
1558 0 83.3801 11.9453 996 118.54 1263.99 456.701
1559 0 85.1856 12.8895 1098 118.139 1263.75 455.426
1560 0 90.2036 14.2345 1284 115.558 1263.71 450.694
1561 0 93.3848 14.1565 1322 116.624 1262.81 448.729
1562 0 97.3063 13.9456 1357 117.676 1262.91 446.718
1563 1 52.0349 11.8574 617 116.031 1262.14 471.149
1564 0 50.1547 9.65014 484 120.622 1260.29 469.279
1565 0 53.3406 12.617 673 114.878 1260.1 466.232
1566 0 55.1217 12.8625 709 114.766 1259.9 465.233
1567 0 59.2226 11.9549 708 115.192 1259.83 464.138
1568 0 61.2906 17.931 1099 106.348 1259.87 465.945
1569 0 62.2984 12.8735 802 116.185 1259.76 459.839
1570 0 63.2315 12.6045 797 117.847 1259.27 457.767
1571 0 68.2038 14.2807 974 115.068 1257.79 455.546
1572 0 70.2319 15.3207 1076 113.305 1257.72 456.439
1573 0 68.4187 12.5112 856 123.714 1259.36 455.05
1574 0 73.3413 14.0576 1031 125.192 1259.05 454.644
1575 0 77.3046 13.1428 1016 126.802 1259.16 452.2
1576 0 79.3913 15.581 1237 121.335 1260.45 453.086
1577 0 83.2859 12.5832 1048 128.682 1261.95 447.368
1578 0 83.2859 12.6072 1050 166.232 1262.96 447.303
1579 1 45.0346 11.3913 513 125.094 1262.35 468.497
1580 0 47.0972 11.8054 556 125.045 1264.47 465.397
1581 0 52.3178 16.7056 874 110.72 1266.16 463.222
1582 0 52.1322 14.6359 763 113.676 1267.41 467.828
1583 0 56.2126 13.6624 768 117.906 1267.73 461.652
1584 0 55.1964 16.8852 932 113.055 1267.46 461.365
1585 0 55.1782 14.3354 791 118.594 1268.53 460.15
1586 0 58.123 14.1252 821 118.485 1269.15 459.459
1587 0 60.2015 14.2687 859 118.158 1270.01 461.016
1588 0 59.0644 13.5445 800 120.15 1269.54 460.699
1589 0 63.2055 14.6823 928 117.708 1269.3 459.314
1590 0 66.1772 15.4132 1020 116.397 1269.56 460.876
1591 0 62.2072 11.2206 698 125.338 1270.09 460.831
1592 0 67.1242 15.151 1017 117.066 1269.31 460.159
1593 0 69.1931 15.2038 1052 115.479 1269.36 463.533
1594 0 73.37 15.2787 1121 116.254 1269.33 460.146
1595 0 76.2774 16.4007 1251 114.138 1267.71 458.476
1596 0 77.1862 16.2076 1251 114.82 1268.21 457.186
1597 0 81.1999 18.5591 1507 108.665 1267.29 464.426
1598 0 82.3224 14.261 1174 117.526 1267.44 458.664
1599 0 85.2559 16.4798 1405 113.972 1266.94 459.342
1600 0 87.1612 19.3205 1684 110.219 1265.6 457.059
1601 1 45.0498 13.6738 616 113.828 1265.5 478.062
1602 0 46.0176 10.735 494 116.213 1263.95 475.053
1603 0 48.1126 10.1844 490 113.663 1261.7 473.694
1604 0 49.2507 10.3349 509 111.67 1260.58 470.505
1605 0 48.2772 9.11403 440 112.77 1260.92 472.55
1606 0 48.2772 9.11403 440 131.618 1261.97 472.409
1607 0 50.1929 10.8979 547 114.095 1259.76 467.59
1608 0 54.2606 10.5233 571 113.345 1260.35 468.715
1609 0 54.2461 11.9824 650 109.846 1258.53 470.335
1610 0 54.265 11.02 598 114.157 1259.88 460.709
1611 0 57.338 10.0283 575 114.809 1259.51 460.252
1612 0 61.251 11.8365 725 110.319 1258.9 461.145
1613 0 59.1151 13.3638 790 109.358 1260.16 453.419
1614 0 64.3542 13.6899 881 107.32 1258.62 457.508
1615 0 66.3586 13.0352 865 109.28 1259.49 452.838
1616 0 68.2618 13.4336 917 108.162 1258.99 452.039
1617 0 68.3401 10.5063 718 112.756 1260.36 449.058
1618 0 72.1087 12.6753 914 109.334 1261.51 450.35
1619 0 72.1829 11.5678 835 111.637 1261.62 444.338
1620 0 74.3101 7.5629 562 115.609 1261.32 447.496
1621 0 80.2796 14.2253 1142 107.968 1262.21 443.515
1622 0 80.3322 12.4981 1004 110.81 1262.74 441.44
1623 0 84.4225 14.4156 1217 109.09 1264.01 437.667
1624 0 85.2114 13.8479 1180 110.293 1264.34 436.581
1625 1 45.0699 12.0036 541 110.479 1261.95 463.982
1626 0 50.1214 11.7315 588 105.77 1264.37 463.454
1627 0 49.1125 11.0766 544 110.028 1263.66 458.557
1628 0 50.1041 12.3144 617 110.438 1264.51 459.791
1629 0 50.0702 12.0631 604 112.48 1265.05 459.613
1630 0 51.0367 11.8346 604 113.676 1265.32 458.253
1631 0 54.1244 11.7138 634 113.871 1265.5 458.661
1632 0 54.1404 8.86584 480 118.6 1265.71 458.656
1633 0 58.0793 11.8803 690 113.045 1266.13 460.928
1634 0 61.3993 18.8276 1156 102.838 1266.18 460.727
1635 0 62.2886 14.4007 897 108.875 1266.74 458.491
1636 0 66.3579 13.4724 894 109.246 1264.42 462.056
1637 0 66.277 13.2022 875 107.599 1265.11 466.461
1638 0 68.0877 12.7923 871 110.66 1265.15 463.545
1639 0 72.3747 10.8463 785 113.298 1265.14 461.08
1640 1 144.344 11.6874 1687 121.485 1265.31 421.107
1641 1 78.2771 14.3592 1124 108.464 1263.6 460.891
1642 0 80.2458 11.6268 933 112.796 1263.45 459.756
1643 0 81.5066 10.2568 836 116.344 1263.67 453.411
1644 1 42.228 13.2614 560 104.755 1262.97 476.436
1645 0 46.212 12.421 574 110.49 1264.33 481.352
1646 0 44.1633 9.5328 421 115.824 1262.54 480.881
1647 0 50.3355 17.3039 871 103.803 1260.76 474.698
1648 0 48.3717 11.7424 568 111.338 1260.01 472.887
1649 0 50.3261 12.3594 622 110.047 1258.14 471.775
1650 0 49.1912 11.9737 589 111.851 1259.21 472.316
1651 0 50.3561 14.1194 711 108.475 1257.7 471.352
1652 0 53.1408 11.3848 605 112.841 1258.75 466.354
1653 0 57.2532 17.117 980 104.288 1257.81 464.076
1654 0 59.2351 15.6495 927 105.419 1257.44 465.392
1655 0 60.0933 12.414 746 110.417 1257.35 462.371
1656 0 62.2676 11.3863 709 111.258 1257.42 465.007
1657 0 63.2032 13.7651 870 109.336 1256.81 459.547
1658 0 66.2365 16.4562 1090 106.626 1258.09 456.137
1659 0 68.2652 12.6858 866 112.066 1257.37 455.207
1660 0 69.2138 13.061 904 110.918 1258.67 453.749
1661 0 70.188 14.0195 984 109.791 1260.05 452.452
1662 0 74.1324 13.2196 980 110.962 1260.35 445.917
1663 0 75.3597 13.0176 981 110.953 1259.89 449.392
1664 0 82.4004 15.3155 1262 104.25 1262.66 446.645
1665 0 80.2927 10.0009 803 112.707 1262.31 444.458
1666 0 82.2631 11.3903 937 111.165 1263.13 440.557
1667 0 85.2264 11.4049 972 111.228 1263.94 441.226
1668 1 44.1962 13.1007 579 103.819 1262.75 464.739
1669 0 48.1447 10.4892 505 107.747 1264.15 463.503
1670 0 48.1447 10.4685 504 118.31 1265.18 463.308
1671 0 52.0772 20.4312 1064 97.5019 1264.89 464.523
1672 0 50.2004 12.2509 615 110.218 1265.73 463.517
1673 0 54.2271 11.6731 633 109.878 1265.4 464.774
1674 0 53.2506 10.46 557 112.285 1266.36 462.467
1675 0 58.2488 13.8887 809 107.126 1266.95 464.236
1676 0 60.1314 16.597 998 103.431 1266.04 464.803
1677 0 63.1782 15.9865 1010 104.099 1266.25 464.85
1678 0 66.344 14.6057 969 105.751 1266.4 465.798
1679 0 70.1834 15.4595 1085 104.844 1266.34 468.103
1680 0 69.2146 14.7946 1024 106.982 1265.22 468.86
1681 0 73.2734 17.6189 1291 104.473 1264.47 461.043
1682 0 76.2238 17.3306 1321 105.286 1263.4 460.308
1683 0 77.1769 12.9832 1002 112.412 1264.22 460.858
1684 0 80.2195 14.1238 1133 110.623 1263.83 462.973
1685 0 82.3734 15.1991 1252 108.178 1264.23 461.838
1686 0 82.3335 12.1943 1004 114.433 1262.29 464.988
1687 0 86.2388 12.7205 1097 114.067 1262.61 458.599
1688 0 86.235 14.043 1211 113.565 1262.29 458.347
1689 1 42.0896 10.7152 451 120.075 1260.68 476.612
1690 0 47.2964 12.1574 575 114.718 1260.75 476.264
1691 0 48.1473 12.2541 590 113.568 1259.31 472.717
1692 0 51.1755 14.5968 747 111.716 1262.03 473.66
1693 0 49.157 11.209 551 118.51 1261.11 474.695
1694 0 53.1663 9.76182 519 119.405 1260.71 474.882
1695 0 54.2236 12.9279 701 115.889 1260.4 472.864
1696 0 54.1489 14.4417 782 114.35 1260.01 468.56
1697 0 58.3416 16.3348 953 110.328 1260.49 467.042
1698 0 58.3416 16.2491 948 125.89 1261.5 467.135
1699 0 61.1923 12.0767 739 115.962 1260.72 463.777
1700 0 65.1594 14.7945 964 110.068 1260.63 463.68
1701 0 65.0741 13.1696 857 113.82 1261.05 461.602
1702 0 69.1612 12.6227 873 113.971 1263.14 462.108
1703 0 70.1846 15.4592 1085 111.432 1261.44 453.282
1704 0 71.2616 15.0993 1076 112.66 1263.26 455.303
1705 0 72.182 12.3715 893 116.158 1262.39 456.221
1706 0 77.2653 12.4765 964 116.195 1264.7 453.034
1707 0 79.3209 12.9852 1030 116.864 1264.07 448.217
1708 0 80.2988 14.4087 1157 112.946 1263.97 449.36
1709 0 80.2988 14.4087 1157 129.774 1264.97 449.36
1710 0 85.3209 13.0097 1110 119.515 1265.59 444.616
1711 0 90.134 15.6434 1410 114.928 1267.18 442.652
1712 0 90.134 15.6545 1411 149.71 1269.19 442.425
1713 1 49.3138 16.2226 800 111.015 1267.91 467.166
1714 0 52.2319 15.7758 824 111.561 1268.23 466.748
1715 0 52.2319 15.7184 821 137.208 1269.22 466.821
1716 0 54.1711 20.6199 1117 104.308 1268.64 464.772
1717 0 56.228 12.0936 680 117.597 1268.48 466.757
1718 0 56.2083 11.9022 669 115.211 1268.26 467.546
1719 0 56.1914 9.91254 557 116.745 1269.88 466.788
1720 0 59.2705 15.4208 914 109.377 1268.94 461.754
1721 0 64.4104 14.4697 932 109.411 1270.06 468.255
1722 0 62.2438 11.8887 740 115.436 1268.29 469.799
1723 0 66.0958 14.2067 939 112.517 1267.36 468.973
1724 0 68.0615 13.4584 916 112.794 1267.37 471.696
1725 0 70.4009 13.2953 936 114.325 1267.42 468.894
1726 0 69.3493 13.7997 957 139.662 1266.41 468.6
1727 0 73.1078 12.5842 920 119.803 1267.19 466.238
1728 0 73.1078 12.5978 921 132.091 1269.2 466.173
1729 0 80.6909 17.1271 1382 112.754 1263.72 460.873
1730 0 81.6791 13.3939 1094 120.011 1263.84 461.739
1731 0 89.5912 11.586 1038 122.67 1260.86 455.766
1732 0 89.3922 8.92695 798 151.296 1258.69 461.357
1733 0 90.6909 14.8747 1349 118.466 1260.62 456.718
1734 0 88.5146 12.9809 1149 125.844 1260.81 448.166
1735 0 93.4442 12.3175 1151 125.775 1258.67 451.753
1736 0 96.4186 14.0014 1350 125.493 1259.66 446.038
1737 0 99.4762 14.1541 1408 124.675 1259.52 447.741
1738 0 101.991 13.7267 1400 126.305 1259.98 444.674
1739 1 53.764 11.1971 602 125.492 1259.22 466.236
1740 0 55.6198 14.1496 787 120.513 1259.7 465.067
1741 0 59.4274 14.3705 854 119.93 1258.95 462.625
1742 0 61.4512 13.8159 849 121.608 1259.66 459.051
1743 0 64.2142 17.1302 1100 115.172 1258.39 457.604
1744 0 67.2617 15.4323 1038 117.563 1258.9 457.361
1745 0 70.4057 16.4333 1157 114.687 1258.47 457.045
1746 0 70.2472 15.6305 1098 117.281 1259.51 454.912
1747 0 71.2809 14.6603 1045 121.45 1259.94 449.156
1748 0 75.3152 12.68 955 122.94 1259.88 450.568
1749 0 79.4696 16.0564 1276 117.771 1260.56 443.147
1750 0 79.2338 13.7946 1093 123.988 1260.82 437.01
1751 0 82.1949 13.1638 1082 124.636 1261.34 437.412
1752 0 85.251 12.6215 1076 125.788 1262.36 437.204
1753 0 89.4965 14.0676 1259 121.201 1262.64 443.807
1754 0 89.4123 15.2104 1360 121.805 1263.51 438.085
1755 0 95.5597 14.5668 1392 121.185 1264.54 441.317
1756 0 95.4659 13.9107 1328 124.094 1264.31 434.471
1757 0 101.475 13.698 1390 123.375 1264.65 435.238
1758 0 105.457 14.3945 1518 121.767 1265.74 434.171
1759 0 109.58 14.4278 1581 119.96 1266.02 434.863
1760 1 57.3331 12.0698 692 119.259 1265.88 459.769
1761 0 58.4289 13.8288 808 115.27 1265.98 464.005
1762 0 60.3091 14.5583 878 115.133 1266.22 459.192
1763 0 61.4435 15.2172 935 114.407 1267.46 461.01
1764 0 65.3456 14.7829 966 113.602 1266.37 463.048
1765 0 68.3627 15.9882 1093 111.778 1266.32 462.383
1766 0 68.3627 16.0468 1097 124.671 1266.32 462.234
1767 0 74.5698 15.1804 1132 114.19 1265.47 460.231
1768 0 76.4797 15.8343 1211 112.431 1265.14 458.273
1769 0 79.3544 12.5513 996 116.781 1265.69 461.792
1770 0 83.4423 16.9578 1415 110.215 1265.22 458.294
1771 0 83.3044 13.6127 1134 117.225 1263.23 456.652
1772 0 89.3809 14.9473 1336 113.803 1262.8 458.251
1773 0 93.5107 14.2337 1331 113.857 1260.74 458.34
1774 0 94.312 15.5972 1471 113.562 1261.57 454.976
1775 0 98.2618 15.0007 1474 114.653 1260.74 454.001
1776 0 98.2618 14.9804 1472 136.469 1260.76 453.959
1777 0 105.367 15.3559 1618 115.516 1259.81 444.726
1778 0 109.173 12.7413 1391 118.551 1261.63 445.807
1779 1 58.0742 10.7104 622 116.759 1260.95 468.312
1780 0 63.1665 13.409 847 113.718 1260.3 464.848
1781 0 62.1582 13.6104 846 136.275 1259.27 464.801
1782 0 69.264 16.0545 1112 107.423 1261.57 466.634
1783 0 69.0919 13.4459 929 113.389 1261.59 462.18
1784 0 69.1046 12.9514 895 114.841 1260.94 462.96
1785 0 73.1511 13.684 1001 114.075 1259.89 458.5
1786 0 77.1459 14.4531 1115 112.601 1260.9 454.273
1787 0 79.1346 16.0865 1273 108.807 1262 457.208
1788 0 81.2564 15.1619 1232 111.994 1261.17 449.852
1789 0 81.3052 12.2132 993 117.216 1260.53 449.209
1790 0 85.2595 14.2154 1212 114.941 1261.96 441.928
1791 0 86.1485 12.8035 1103 117.405 1262.34 446.763
1792 0 92.1542 13.3363 1229 116.19 1263.16 442.278
1793 0 94.1437 12.534 1180 117.292 1263.16 442.547
1794 1 45.1093 9.06687 409 121.655 1265.7 461.802
1795 0 51.0768 11.7666 601 115.697 1266.28 460.639
1796 0 51.0556 10.087 515 118.19 1265.16 462.575
1797 0 52.0634 13.1954 687 111.552 1265.74 460.742
1798 0 55.3035 16.961 938 106.335 1265.89 462.444
1799 0 57.1141 12.6939 725 112.759 1266.38 462.641
1800 0 61.1577 12.803 783 110.64 1266.8 462.192
1801 0 63.17 14.1523 894 113.347 1267.67 461.628
1802 0 65.113 15.1429 986 113.289 1268.02 459.164
1803 0 71.3047 13.3512 952 115.898 1269 458.993
1804 0 69.2122 13.3214 922 115.588 1267.99 459.612
1805 0 71.1242 14.313 1018 115.133 1268.29 460.848
1806 0 73.1954 11.7221 858 119.533 1269.63 455.124
1807 0 76.0782 15.024 1143 114.556 1269.23 455.591
1808 0 79.2929 13.2799 1053 115.28 1268.18 461.415
1809 0 82.4499 10.5761 872 120.303 1268.46 460.206
1810 0 82.4499 11.0006 907 138.464 1267.43 460.372
1811 1 48.6058 15.0393 731 111.71 1265.39 473.669
1812 0 50.6012 8.7745 444 122.417 1263.83 475.899
1813 0 52.06 13.6957 713 114.597 1262.34 475.146
1814 0 54.0431 13.3597 722 115.622 1262.22 472.37
1815 0 55.0396 13.2268 728 116.155 1260.86 473.82
1816 0 56.114 11.9578 671 118.024 1260.58 474.548
1817 0 59.0723 14.4569 854 114.741 1259.26 473.475
1818 0 60.181 12.9941 782 118.413 1258.99 467.909
1819 0 62.041 11.4763 712 120.746 1257.82 469.743
1820 0 62.1727 15.4248 959 114.198 1258.43 469.743
1821 0 64.2317 13.031 837 118.589 1257.02 466.226
1822 0 64.1886 13.1332 843 118.864 1258.4 463.935
1823 0 66.1054 12.4649 824 119.785 1256.89 462.324
1824 0 68.0908 11.47 781 119.784 1256.48 466.143
1825 0 71.1775 17.6882 1259 110.763 1256.61 459.253
1826 0 73.1424 15.2169 1113 115.591 1257.5 461.553
1827 0 75.1175 12.3939 931 119.208 1257.35 461.351
1828 0 79.2376 14.2609 1130 117.513 1256.54 457.104
1829 0 82.3697 13.2209 1089 119.332 1256.96 454.135
1830 1 41.3256 12.825 530 115.804 1257.9 472.491
1831 0 43.2733 11.3465 491 118.004 1259.13 472.444
1832 0 42.1847 11.3785 480 120.09 1258.57 468.488
1833 0 47.4647 12.9781 616 116.219 1260.75 465.943
1834 0 45.0624 9.89738 446 123.646 1258.35 468.798
1835 0 48.0498 11.4048 548 119.887 1258.14 466.201
1836 0 48.0353 11.9079 572 119.229 1259.91 466.783
1837 0 52.0945 14.9152 777 113.154 1258.96 463.933
1838 0 53.1328 18.4632 981 107.871 1260.98 464.006
1839 0 54.0659 11.3195 612 121.52 1261.25 457.773
1840 0 56.026 14.6182 819 116.404 1261.6 460.078
1841 0 56.1201 13.9166 781 117.962 1261.25 460.25
1842 0 60.2343 15.2571 919 110.819 1263.06 461.396
1843 0 61.174 14.5487 890 112.522 1263.56 460.876
1844 0 61.113 18.3103 1119 107.357 1264.62 461.32
1845 0 65.2935 14.5037 947 113.596 1263.41 458.744
1846 0 66.1734 15.6105 1033 109.953 1264.88 462.924
1847 0 68.0584 16.3536 1113 110.044 1264.39 461.428
1848 0 71.1665 12.3373 878 117.178 1264.91 461.476
1849 0 72.1472 14.512 1047 115.159 1264.2 457.625
1850 0 74.0828 14.4703 1072 114.609 1264.77 460.281
1851 0 77.1066 15.6666 1208 111.776 1264.77 462.285
1852 0 77.1066 15.6277 1205 142.646 1264.76 462.401
1853 0 77.1083 15.6014 1203 142.211 1264.76 462.41
1854 0 86.3995 14.433 1247 115.014 1263.97 456.812
1855 0 89.3611 14.9506 1336 115.063 1264.38 456.531
1856 0 93.6142 15.2648 1429 114.026 1263.35 458.64
1857 1 49.21 14.2044 699 113.252 1262.52 479.249
1858 0 51.3814 14.3242 736 109.841 1264.68 477.55
1859 0 52.1782 16.0028 835 106.423 1264.36 476.981
1860 0 54.0425 15.3398 829 107.54 1264.06 475.852
1861 0 56.2342 14.9198 839 108.453 1263.28 472.609
1862 0 56.1659 14.3325 805 110.198 1262.12 475.037
1863 0 61.1914 16.5056 1010 105.952 1261.95 473.882
1864 0 59.0628 13.2232 781 113.903 1260.58 470.758
1865 0 62.1354 13.1004 814 113.625 1259.55 469.683
1866 0 64.1661 13.5586 870 112.685 1260.69 470.391
1867 0 67.099 15.6634 1051 109.954 1260.02 465.296
1868 0 70.1578 16.2491 1140 109.072 1259.8 464.941
1869 0 68.0347 14.4632 984 113.688 1259.94 460.53
1870 0 73.1307 15.5338 1136 111.684 1259.34 460.768
1871 0 75.2046 15.4645 1163 112.118 1259.8 457.62
1872 0 76.0508 11.8474 901 117.619 1259.51 460.562
1873 0 76.0508 11.7685 895 151.141 1259.49 460.71
1874 0 79.1404 14.3542 1136 114.354 1260.27 455.015
1875 0 81.0799 12.0868 980 118.571 1260.79 454.273
1876 0 85.2426 13.444 1146 117.293 1259.98 448.709
1877 0 84.08 12.1432 1021 121.601 1261.23 445.01
1878 0 91.1711 13.1401 1198 118.518 1261.87 446.531
1879 0 95.1568 17.8442 1698 108.688 1261.25 449.984
1880 1 46.0443 13.1612 606 119.406 1258.75 462.604
1881 0 51.0648 13.4927 689 114.462 1259.29 465.688
1882 0 51.121 11.7173 599 121.761 1260.51 460.362
1883 0 50.1246 12.0699 605 123.397 1264.18 462.347
1884 0 58.0805 10.055 584 120.091 1263.92 464.39
1885 0 56.1793 13.1187 737 116.503 1266.02 459.636
1886 0 56.1793 12.9941 730 131.034 1267.02 459.449
1887 0 55.1024 10.5622 582 121.241 1268.02 459.156
1888 0 61.1083 14.1879 867 114.277 1267.36 457.584
1889 0 62.0986 11.4334 710 118.679 1268.82 458.104
1890 0 65.1537 12.248 798 112.992 1268.9 464.013
1891 0 67.1108 10.7583 722 118.812 1269.58 460.702
1892 0 68.2596 11.7932 805 117.558 1267.7 462.349
1893 0 72.1167 12.3134 888 115.225 1269.3 463.22
1894 0 73.1767 11.889 870 117.055 1267.65 461.548
1895 0 72.1479 11.0745 799 120.139 1267.76 460.633
1896 0 72.1259 12.5198 903 112.757 1266.34 461.858
1897 0 68.2065 3.68 251 120.753 1268.03 469.857
1898 0 71.267 11.7586 838 115.476 1266.2 455.505
1899 0 74.2548 8.4843 630 117.192 1267.23 465.546
1900 0 75.13 6.13604 461 120.197 1266.88 471.419
1901 1 48.0759 10.8162 520 116.969 1265.73 475.267
1902 0 53.193 13.5544 721 111.318 1265.43 476.14
1903 0 52.2649 11.9392 624 116.973 1262.66 473.873
1904 0 56.0824 12.1785 683 114.906 1263.1 474.389
1905 0 56.2105 12.5955 708 121.556 1261.21 472.763
1906 0 57.0541 12.3567 705 120.374 1261.62 474.028
1907 0 62.0951 15.0092 932 116.85 1261.24 468.057
1908 0 63.0457 14.434 910 117.2 1260.44 469.238
1909 0 63.0592 11.1958 706 122.198 1260.45 467.246
1910 0 70.0947 11.5273 808 120.876 1261.01 466.86
1911 0 70.0889 11.9562 838 139.482 1261.97 466.185
1912 0 70.1981 12.7496 895 120.895 1260 462.361
1913 0 71.1765 11.3802 810 123.269 1259.23 462.244
1914 0 76.1906 13.6894 1043 118.83 1260.27 460.569
1915 0 76.2569 12.9038 984 121.205 1260.54 458.078
1916 0 80.3818 12.4655 1002 120.935 1261.13 457.42
1917 1 44.1759 10.1186 447 119.132 1259.26 475.007
1918 0 43.1677 11.7217 506 118.628 1259.66 472.004
1919 0 46.3655 10.7839 500 122.276 1259.49 470.452
1920 0 48.795 15.0015 732 115.376 1258.54 463.973
1921 0 48.7772 13.9614 681 116.808 1258.68 465.043
1922 0 51.6573 15.5254 802 114.783 1259.85 460.615
1923 0 50.5272 13.0623 660 119.242 1258.81 463.617
1924 0 54.1503 15.4939 839 115.212 1263.43 465.515
1925 0 57.0554 15.4411 881 115.217 1264.41 464.195
1926 0 58.1365 15.584 906 115.839 1265.57 461.713
1927 0 56.051 11.436 641 121.523 1265.15 464.802
1928 0 56.0473 14.6305 820 117.932 1264.57 461.873
1929 0 56.0473 14.6127 819 153.243 1265.57 461.842
1930 0 62.0989 15.6202 970 114.83 1265.18 460.54
1931 0 63.0748 12.8419 810 119.679 1264.4 458.612
1932 0 66.2549 12.2406 811 120.485 1266.1 458.509
1933 0 70.1661 13.7388 964 116.969 1266.53 460.08
1934 0 71.2166 15.3335 1092 113.963 1265.45 462.39
1935 0 70.1847 12.4244 872 120.045 1265.07 461.288
1936 0 78.2209 14.0244 1097 116.436 1265.73 455.142
1937 0 81.284 13.9265 1132 116.754 1264.89 456.378
1938 0 84.2374 13.7825 1161 116.954 1264.33 457.986
1939 0 86.2654 11.8008 1018 119.371 1264.06 461.25
1940 1 45.1053 13.5904 613 115.349 1262.25 478.127
1941 0 46.0913 12.2366 564 118.479 1264.68 479.085
1942 0 50.3719 14.254 718 110.673 1263.26 476.297
1943 0 49.1368 12.9841 638 113.437 1263.25 476.522
1944 0 50.145 11.9254 598 115.276 1262.37 477.15
1945 0 50.1772 11.4992 577 119.147 1261.95 477.681
1946 0 54.0816 11.1683 604 117.798 1262.14 477.639
1947 0 52.0843 10.8478 565 120.395 1261.47 474.016
1948 0 58.1473 14.3773 836 112.283 1260.44 473.725
1949 0 60.0763 12.1512 730 116.118 1260.39 470.778
1950 0 62.2198 13.8702 863 112.141 1259.75 472.863
1951 0 63.2439 11.0366 698 115.85 1259.89 470.499
1952 0 68.2202 17.1943 1173 107.782 1259.62 463.641
1953 0 67.0694 14.5223 974 112.795 1259.62 463.188
1954 0 70.1479 15.5956 1094 111.371 1260.38 463.148
1955 1 146.414 15.7294 2303 116.387 1258.05 425.524
1956 1 73.1735 12.0672 883 116.242 1258.43 463.244
1957 0 80.1439 14.2244 1140 111.504 1258.94 460.137
1958 0 79.1367 13.3187 1054 113.787 1259.79 457.175
1959 0 83.1742 15.9905 1330 109.108 1259.91 448.981
1960 0 87.3375 14.6672 1281 110.073 1260.23 452.303
1961 1 44.0438 14.5083 639 112.192 1260.77 468.828
1962 0 46.0145 12.6699 583 114.99 1261.49 466.479
1963 0 46.054 13.2236 609 115.01 1261.22 464.544
1964 0 48.1345 11.1562 537 117.387 1261.7 466.358
1965 0 52.1245 14.8682 775 108.899 1263.4 462.253
1966 0 53.129 12.4602 662 114.236 1264.03 460
1967 0 54.112 12.9361 700 113.847 1264.04 459.281
1968 0 55.076 13.9625 769 111.59 1265.05 458.312
1969 0 57.0858 17.0971 976 107.168 1265.93 458.544
1970 0 61.0947 14.3711 878 110.387 1265.87 460.798
1971 0 62.2286 12.8398 799 112.466 1266.29 459.406
1972 0 65.1392 16.7948 1094 107.437 1266.91 459.265
1973 0 65.0869 12.3988 807 114.763 1266.44 459.665
1974 0 69.0632 13.2053 912 112.25 1266.34 459.36
1975 0 70.1524 15.5234 1089 110.704 1266.69 456.611
1976 0 69.1218 13.8307 956 113.714 1267.72 456.814
1977 0 75.0946 12.6907 953 114.949 1267.74 456.66
1978 0 82.1875 16.8761 1387 107.87 1268.23 455.543
1979 0 82.1481 13.2687 1090 113.561 1267.71 457.444
1980 0 87.1463 18.6468 1625 105.321 1267.95 457.874
1981 0 89.2679 13.6891 1222 114.732 1266.86 452.218
1982 0 93.1813 14.7991 1379 111.207 1266.44 447.554
1983 1 49.0864 12.4882 613 116.325 1266.49 471.135
1984 0 51.3478 15.7553 809 111.19 1265.82 473.198
1985 0 51.2781 11.9349 612 118.554 1263.28 474.853
1986 0 57.3369 15.8885 911 110.866 1262.7 476.942
1987 0 56.0637 12.5393 703 118.738 1260 472.855
1988 0 59.1802 17.5396 1038 110.242 1260.99 473.139
1989 0 60.0978 15.0921 907 112.196 1259.37 475.89
1990 0 60.1469 14.3815 865 116.471 1259.58 469.772
1991 0 64.1011 18.6736 1197 109.239 1259.42 467.732
1992 0 66.1525 12.7433 843 118.96 1258.58 468.754
1993 0 67.0402 15.17 1017 115.759 1258.14 464.18
1994 0 67.1412 13.9408 936 116.196 1258.93 469.923
1995 0 70.2009 15.3987 1081 117.109 1256.43 461.262
1996 0 75.1155 13.9785 1050 117.965 1257.32 464
1997 0 76.1568 14.6015 1112 117.8 1256.51 460.399
1998 0 79.2684 12.3378 978 121.493 1258.07 458.39
1999 0 80.3686 12.7786 1027 122.344 1257.31 454.936
2000 0 80.3686 12.6915 1020 152.326 1257.34 454.835
2001 1 45.1803 12.0185 543 117.715 1255.5 473.017
2002 0 47.0987 15.2658 719 113.086 1257.11 470.174
2003 0 49.1847 14.293 703 112.176 1259.2 470.034
2004 0 48.0889 12.269 590 118.978 1262.27 466.141
2005 0 50.1066 13.2717 665 116.735 1262.63 467.394
2006 0 53.0415 13.1972 700 116.743 1261.39 464.02
2007 0 53.0425 10.8215 574 120.476 1263.31 462.822
2008 0 56.1104 15.0596 845 113.505 1262.98 461.527
2009 0 57.0998 14.0981 805 116.229 1264.01 459.134
2010 0 58.0494 12.6444 734 118.234 1265.25 461.429
2011 0 63.1534 15.5494 982 111.338 1265.56 462.04
2012 0 64.052 16.1431 1034 112.588 1265.27 457.264
2013 0 62.0771 10.7608 668 122.774 1265.4 455.614
2014 0 66.0843 11.8031 780 120.251 1266.71 453.474
2015 0 73.0808 13.5466 990 115.406 1266.88 456.295
2016 0 71.1857 12.5727 895 118.236 1268.08 452.91
2017 0 78.231 13.4857 1055 112.736 1268 457.359
2018 0 81.2006 15.6526 1271 110.858 1268.22 450.851
2019 0 82.1245 12.3471 1014 115.275 1269.27 455.313
2020 1 45.15 10.8306 489 113.798 1269.6 470.654
2021 0 45.1263 11.1022 501 113.758 1268.07 472.281
2022 0 50.0672 15.8387 793 105.266 1268.94 472.419
2023 0 50.0697 13.7608 689 108.75 1268.81 474.431
2024 0 52.0477 12.0466 627 110.515 1268.53 475.817
2025 0 52.0564 11.6796 608 113.166 1267.29 473.646
2026 0 55.0748 12.6555 697 110.884 1267.89 474.565
2027 0 55.0748 12.601 694 135.004 1268.87 474.563
2028 0 57.1161 13.3413 762 110.135 1267.41 472.066
2029 0 58.1022 11.2904 656 112.601 1266.29 473.857
2030 0 57.1013 11.5059 657 114.362 1265 470.939
2031 0 60.057 11.1894 672 113.496 1264.56 469.01
2032 0 64.075 14.9668 959 107.865 1263.54 468.237
2033 0 66.0372 16.0213 1058 105.992 1263.82 466.644
2034 0 67.0737 14.8792 998 108.823 1263.37 465.601
2035 0 69.1467 12.8712 890 110.301 1261.62 465.401
2036 0 72.0955 14.0647 1014 109.488 1261.05 464
2037 0 72.1704 14.8399 1071 109.292 1260.57 462.134
2038 0 73.1658 13.6129 996 112.433 1259.68 464.612
2039 0 74.1636 13.214 980 114.43 1259.78 460.171
2040 0 78.2698 14.8078 1159 112.645 1259.02 457.724
2041 0 81.1769 11.9123 967 116.937 1259.44 456.66
2042 0 84.1567 15.079 1269 112.713 1259.77 452.819
2043 0 85.3291 15.4461 1318 113.144 1259.38 449.45
2044 0 86.336 13.5517 1170 116.502 1259.42 448.8
2045 0 90.4007 14.6348 1323 114.196 1259.32 447.423
2046 1 45.1256 14.1161 637 113.73 1258.54 468.314
2047 0 48.3 14.4099 696 111.99 1258.92 466.728
2048 0 51.3484 13.3402 685 112.33 1258.42 467.724
2049 0 51.1737 16.0434 821 107.762 1261.1 463.927
2050 0 55.5305 14.7667 820 109.874 1258.92 459.761
2051 0 53.1787 12.1289 645 113.51 1259.45 458.839
2052 0 55.1693 13.4314 741 110.97 1260.11 462.328
2053 0 56.1465 14.0703 790 112.143 1260.25 460.409
2054 0 58.1449 10.6974 622 116.301 1260.46 460.058
2055 0 62.1955 13.2003 821 113.362 1263.1 455.833
2056 0 62.1955 13.2646 825 123.97 1265.11 455.847
2057 0 65.1826 13.163 858 113.822 1263.57 456.657
2058 0 65.1826 13.1323 856 126.72 1262.57 456.692
2059 0 70.2656 11.1434 783 116.079 1264.2 458.978
2060 0 72.261 11.5277 833 117.442 1264.51 456.095
2061 0 72.2751 11.5946 838 144.564 1265.53 456.023
2062 0 79.185 12.5908 997 116.994 1264.14 452.281
2063 0 83.2136 15.8989 1323 111.556 1263.89 455.663
2064 0 86.2378 12.1293 1046 117.555 1264.31 457.569
2065 0 89.4427 15.4624 1383 114.618 1264.8 452.198
2066 0 90.2068 12.8926 1163 119.657 1265.26 455.555
2067 1 48.1972 14.8556 716 112.742 1263.1 473.965
2068 0 49.0576 12.8013 628 115.699 1263.75 476.699
2069 0 53.522 13.714 734 113.91 1263.84 475.437
2070 0 54.2268 12.2449 664 117.351 1263.92 475.084
2071 0 54.4662 13.4212 731 117.129 1263.07 476.171
2072 0 54.4662 13.3294 726 131.205 1263.04 476.143
2073 0 59.4406 12.1129 720 119.774 1262.49 475.067
2074 0 59.4608 12.2265 727 136.03 1261.45 475.188
2075 0 59.4317 13.1243 780 133.783 1260.59 474.03
2076 0 59.4317 13.1243 780 133.482 1259.59 474.03
2077 0 67.3622 16.2703 1096 116.463 1258.67 466.288
2078 0 70.3792 19.8354 1396 109.566 1258.35 463.832
2079 0 70.1297 14.5302 1019 118.086 1257.24 465.612
2080 0 69.254 12.7213 881 121.658 1256.12 460.837
2081 0 76.1374 15.9448 1214 115.534 1256.72 458.711
2082 0 76.1113 9.42042 717 124.636 1256.58 463.485
2083 0 80.1651 14.5824 1169 116.402 1255.44 458.279
2084 0 82.158 13.0237 1070 119.418 1256.68 458.064
2085 0 83.1532 14.5033 1206 119.156 1256.29 451.673
2086 0 86.1161 13.9347 1200 118.454 1256.57 455.782
2087 0 89.2397 15.845 1414 116.183 1257.11 451.685
2088 0 92.2336 13.2164 1219 121.399 1256.87 446.781
2089 0 93.1224 11.3184 1054 124.995 1256.6 442.431
2090 0 99.335 13.1877 1310 121.466 1257.78 438.752
2091 1 51.1137 11.4059 583 122.513 1257.95 463.969
2092 0 56.0397 10.4033 583 122.295 1258.37 462.334
2093 0 57.0701 12.0904 690 118.601 1259.05 462.129
2094 0 58.0816 12.7579 741 122.233 1259.04 460.113
2095 0 62.0922 14.1242 877 119.105 1260.41 456.771
2096 0 64.0408 14.4908 928 118.531 1261.59 456.795
2097 0 67.1307 15.1942 1020 117.412 1260.87 456.788
2098 0 66.1767 13.1466 870 122.06 1262.02 453.838
2099 0 71.0414 16.4833 1171 116.107 1262.23 452.394
2100 0 72.127 15.7916 1139 117.995 1263.17 453.105
2101 0 75.0662 16.8518 1265 114.843 1263.83 457.016
2102 0 77.1582 14.2564 1100 120.2 1263.79 454.664
2103 0 80.1105 16.6021 1330 117.012 1264.54 453.816
2104 0 82.1212 13.9793 1148 122.633 1264.51 452.533
2105 0 86.1057 17.8385 1536 116.03 1264.84 452.204
2106 0 86.1057 14.6912 1265 139.794 1264.6 455.387
2107 0 93.2143 15.2874 1425 117.638 1263.99 455.178
2108 1 165.446 8.10534 1341 126.184 1264.15 446.701
2109 1 98.1223 15.3991 1511 120.764 1263.83 447.637
2110 0 102.275 14.6859 1502 119.277 1262.87 452.091
2111 1 57.0596 12.4957 713 122.537 1262.78 472.505
2112 0 57.0344 13.3954 764 118.541 1261.78 477.449
2113 0 54.3467 11.0402 600 119.81 1265.27 471.417
2114 0 61.1602 13.62 833 113.146 1264.96 472.723
2115 0 62.1128 13.1374 816 113.49 1264.17 474.026
2116 0 63.1774 15.5119 980 111.474 1262.31 470.659
2117 0 68.1773 10.81 737 118.828 1261.39 470.117
2118 0 71.1883 13.3449 950 111.666 1262.17 471.799
2119 0 73.1882 16.4507 1204 108.926 1261.4 465.135
2120 0 74.3574 10.5168 782 118.258 1261.43 462.881
2121 0 79.1477 12.3693 979 114.823 1260.1 465.89
2122 0 78.2552 12.6637 991 116.213 1259.3 463.149
2123 0 83.203 14.074 1171 113.941 1259.15 457.899
2124 0 86.4648 13.0342 1127 115.416 1259.24 456.622
2125 0 91.3453 13.75 1256 114.51 1259.52 455.474
2126 0 90.1552 12.9443 1167 117.617 1259.38 449.986
2127 1 48.0204 11.9116 572 115.098 1258.95 470.084
2128 0 49.0966 13.117 644 112.275 1260.42 470.551
2129 0 50.1413 11.8665 595 115.129 1258.23 470.42
2130 0 49.1203 11.9299 586 113.906 1259.71 468.372
2131 0 49.1919 11.7499 578 116.903 1259.44 461.202
2132 0 53.0646 17.375 922 107.258 1259.38 467.448
2133 0 58.3807 16.9234 988 106.457 1261.08 464.724
2134 0 56.1544 13.6766 768 114.363 1261.88 458.211
2135 0 57.0579 14.3363 818 115.295 1262.05 460.361
2136 0 59.0799 12.9486 765 116.864 1262.18 459.655
2137 0 62.099 16.4737 1023 111.579 1263.11 456.146
2138 0 64.0477 12.7561 817 116.274 1263.49 456.422
2139 0 64.0942 12.2476 785 119.615 1264.34 455.637
2140 0 67.1008 15.3798 1032 114.199 1265.56 455.651
2141 0 67.1008 15.4842 1039 140.069 1266.52 455.608
2142 0 71.1716 13.1092 933 117.554 1265.38 454.598
2143 0 74.1864 13.3852 993 116.753 1265.24 453.365
2144 0 79.0874 15.9065 1258 112.041 1265.44 452.35
2145 0 80.0548 14.1403 1132 115.504 1266.84 450.587
2146 0 86.1902 15.8603 1367 111.089 1266.08 452.985
2147 0 89.1226 15.0018 1337 113.993 1267.66 449.234
2148 1 42.0662 11.5294 485 117.728 1267.44 471.173
2149 0 43.0472 12.1959 525 117.909 1267.35 471.034
2150 0 47.1028 12.5258 590 114.314 1266.97 476.068
2151 0 50.2246 15.0126 754 110.731 1265.39 472.16
2152 0 52.1481 12.8288 669 112.744 1264.87 470.058
2153 0 53.3705 13.678 730 111.848 1264.9 470.275
2154 0 54.1571 14.0702 762 113.367 1265.99 473.507
2155 0 58.0563 13.6419 792 122.994 1262.44 472.617
2156 0 56.0561 12.0415 675 161.076 1260.6 475.052
2157 0 60.1364 13.0869 787 125.483 1260.69 468.362
2158 0 61.0954 16.4824 1007 118.294 1257.79 468.207
2159 0 60.1586 15.5589 936 121.58 1258.4 469.296
2160 0 66.1437 15.6629 1036 122.324 1256.79 463.953
2161 0 71.1117 13.4999 960 124.368 1257.62 465.861
2162 0 74.1525 14.1465 1049 123.799 1256.86 462.557
2163 0 75.1638 14.4884 1089 124.49 1256.89 462.396
2164 0 73.0819 10.7824 788 127.494 1256.34 465.147
2165 1 43.1038 12.3655 533 121.435 1254.8 477.206
2166 0 45.0712 15.0207 677 116.173 1255.69 476.247
2167 0 44.1231 13.3717 590 123.307 1256.62 471.693
2168 0 45.2261 12.2717 555 121.292 1255.95 473.587
2169 0 45.2658 14.934 676 114.485 1255.33 472.038
2170 0 49.1728 12.5273 616 119.222 1256.09 469.618
2171 0 48.2083 14.7692 712 117.271 1255.51 466.164
2172 0 50.2416 13.1564 661 119.902 1256.21 464.523
2173 0 50.2416 13.1763 662 128.483 1257.19 464.539
2174 0 55.3166 14.2995 791 117.167 1256.9 464.477
2175 0 55.3166 14.3718 795 126.16 1256.86 464.486
2176 0 55.3839 14.4446 800 118.898 1257.2 460.784
2177 0 58.1846 11.8588 690 124.251 1257.95 457.671
2178 0 61.2449 13.5358 829 119.755 1258.15 460.293
2179 0 60.2842 13.2041 796 122.011 1259.54 457.322
2180 0 62.2462 14.041 874 120.622 1260.9 452.372
2181 0 64.1831 15.5649 999 117.858 1261.4 455.064
2182 0 67.4093 13.8408 933 120.31 1261.86 452.489
2183 0 69.3514 14.2895 991 120.598 1262.96 452.234
2184 0 71.4108 13.2193 944 121.85 1261.96 455.444
2185 0 73.365 13.167 966 123.064 1262.28 452.804
2186 0 75.155 12.4277 934 125.632 1263.26 449.597
2187 0 81.317 14.88 1210 119.122 1263.13 453.093
2188 1 43.0762 10.9341 471 121.176 1263.56 472.756
2189 0 44.1069 10.9053 481 123.678 1264.19 471.027
2190 0 44.1069 10.996 485 140.054 1264.17 471.095
2191 0 45.1077 9.73226 439 126.355 1263.02 473.444
2192 0 45.1725 11.113 502 123.651 1262.71 472.436
2193 0 47.063 13.8325 651 118.888 1263.55 473.45
2194 0 46.1713 11.2191 518 128.083 1264.28 472.264
2195 0 48.165 9.07297 437 129.265 1262.34 476.053
2196 0 50.1958 10.4989 527 127.609 1262.48 472.744
2197 0 52.0874 11.1735 582 124.971 1262.66 476.801
2198 0 54.3111 13.6068 739 122.283 1262.27 471.139
2199 0 57.2193 12.6356 723 122.853 1261.5 472.538
2200 0 58.2065 10.9782 639 126.812 1260.15 473.216
2201 0 60.1554 11.6698 702 121.913 1260.16 475.003
2202 0 60.1797 10.9339 658 124.728 1257.81 474.231
2203 0 64.2519 12.7 816 123.94 1258.03 464.863
2204 0 67.1561 12.7613 857 123.403 1258.69 466.644
2205 0 70.1027 13.2092 926 122.492 1258.58 464.381
2206 0 71.2271 12.762 909 124.047 1257.07 462.365
2207 0 73.1823 13.8968 1017 121.485 1257.04 460.439
2208 0 73.1126 13.4313 982 121.682 1256.07 462.893
2209 0 78.2763 14.2955 1119 120.512 1255.82 460.694
2210 0 80.3163 13.2476 1064 123.886 1256.03 454.713
2211 0 77.2002 10.1425 783 128.327 1255.4 460.372
2212 0 86.1054 14.401 1240 122.419 1257.14 449.072
2213 1 47.0517 12.4544 586 122.841 1255.24 471.387
2214 0 49.0631 13.554 665 122.045 1259.29 467.105
2215 0 50.1275 11.2314 563 126.274 1259.04 467.956
2216 0 50.127 11.1716 560 144.834 1259.06 468.025
2217 0 49.0972 11.5078 565 121.244 1255.6 461.207
2218 0 53.1117 11.9936 637 120.403 1257.4 458.799
2219 0 53.1117 11.9748 636 130.181 1258.41 458.83
2220 0 55.079 11.2021 617 123.12 1258.88 456.566
2221 0 58.0613 13.7269 797 116.811 1260.13 456.095
2222 0 58.087 12.3091 715 119.938 1258.82 452.916
2223 0 58.087 12.4296 722 130.942 1257.84 453.011
2224 0 64.1047 14.0707 902 115.889 1260.59 452.778
2225 0 68.1606 12.9107 880 115.223 1262.04 454.425
2226 0 69.0535 11.9473 825 118.307 1261.78 452.985
2227 0 70.1298 16.8402 1181 112.074 1262.73 450.419
2228 0 72.1959 12.7154 918 119.512 1261.88 448.736
2229 0 73.1772 14.6494 1072 116.963 1264.08 445.9
2230 0 75.2043 15.3981 1158 115.378 1264.57 448.506
2231 0 82.394 15.523 1279 113.337 1264.97 450.353
2232 0 83.5014 14.5866 1218 113.184 1266.52 445.716
2233 0 85.1994 14.7067 1253 113.502 1265.97 449.603
2234 0 86.1971 13.3995 1155 116.944 1267.04 446.286
2235 0 88.2381 13.3729 1180 118.909 1266.92 448.966
2236 1 50.1128 12.9308 648 112.608 1264.91 472.361
2237 0 49.1376 9.3004 457 119.352 1264.47 473.812
2238 0 53.0168 13.2977 705 113.774 1262.19 473.851
2239 0 55.3866 12.5301 694 120.248 1265.89 470.926
2240 0 58.0635 16.3097 947 112.376 1265.59 472.675
2241 0 62.1753 17.0486 1060 109.771 1265.36 471.694
2242 0 63.1476 19.494 1231 106.934 1263.55 470.626
2243 0 66.1736 16.9101 1119 109.802 1264.18 470.36
2244 0 65.1558 15.578 1015 113.681 1262.14 465.478
2245 0 70.1217 13.0202 913 114.848 1262.34 471.993
2246 0 71.2138 12.2729 874 118.846 1261.47 464.306
2247 0 75.152 14.0116 1053 116.066 1261.06 462.188
2248 0 77.182 12.7102 981 119.397 1260.65 467.225
2249 0 80.3197 15.8616 1274 114.698 1259.77 461.588
2250 0 80.3071 13.4484 1080 119.849 1260.25 459.902
2251 0 82.2111 13.5626 1115 120.519 1260.16 455.856
2252 1 44.0379 12.8299 565 118.605 1259.84 475.915
2253 0 46.1083 12.5791 580 119.224 1259.51 474.729
2254 0 49.0458 12.4578 611 120.098 1258.53 472.01
2255 0 46.079 10.0263 462 125.461 1258.6 472.528
2256 0 50.0587 13.5241 677 118.761 1259.43 469.598
2257 0 53.0182 14.7308 781 117.72 1260.15 467.848
2258 0 54.1514 13.5915 736 120.217 1261.13 464.296
2259 0 53.1633 12.0008 638 125.566 1259.18 465.031
2260 0 54.2611 14.8357 805 120.841 1259.54 463.847
2261 0 55.3057 15.9116 880 117.455 1259.31 466.194
2262 0 60.2885 19.556 1179 112.517 1259.23 463.768
2263 0 59.4482 13.6926 814 123.131 1259.67 461.058
2264 0 59.4482 13.6926 814 149.699 1260.66 461.107
2265 0 64.3895 13.2475 853 124.4 1260.54 457.904
2266 0 66.4364 13.0651 868 125.394 1261.48 456.173
2267 0 65.4128 14.1868 928 125.298 1260.48 455.397
2268 0 70.3082 14.9769 1053 123.319 1260.71 454.601
2269 0 69.2683 13.6715 947 127.672 1262.46 453.896
2270 0 74.2505 13.6699 1015 126.88 1262.18 453.845
2271 0 74.3392 14.7836 1099 126.048 1262.73 452.965
2272 0 78.2538 15.5136 1214 121.047 1264.9 455.96
2273 0 78.2538 15.5136 1214 151.942 1267.9 455.807
2274 0 78.2574 15.5001 1213 151.577 1270.9 455.71
2275 1 49.0636 12.657 621 123.364 1264.67 471.121
2276 0 48.1021 12.2448 589 124.088 1263.82 473.204
2277 0 48.0706 13.2929 639 124.646 1263.61 472.959
2278 0 49.3914 11.2975 558 129.357 1266.33 467.428
2279 0 52.4204 13.1247 688 125.028 1266.53 469.31
2280 0 55.0365 13.6818 753 123.235 1264.34 472.494
2281 0 59.1241 15.4759 915 119.914 1262.33 470.386
2282 0 58.2485 14.0261 817 119.253 1266.21 467.622
2283 0 61.0616 14.1169 862 119.209 1266.19 471.352
2284 0 64.0799 14.6692 940 117.655 1265.56 472.312
2285 0 65.1894 14.8337 967 117.523 1264.68 469.179
2286 0 66.1092 12.4037 820 121.929 1264.02 470.876
2287 0 69.133 14.3202 990 118.267 1262.96 467.212
2288 0 73.1291 14.0026 1024 118.884 1262.83 466.288
2289 0 76.1158 12.4547 948 121.347 1261.94 463.485
2290 0 78.1166 13.4542 1051 120.398 1261.83 462.518
2291 0 80.1119 13.0692 1047 122.127 1259.39 457.057
2292 0 85.0924 15.2658 1299 115.085 1261.28 461.584
2293 1 48.0415 12.9055 620 119.655 1260.47 474.673
2294 0 46.0748 12.1975 562 122.902 1259.82 471.125
2295 0 49.0902 12.9354 635 120.074 1258.34 473.017
2296 0 52.0951 12.4196 647 121.748 1259.5 471.524
2297 0 52.0777 13.6335 710 139.854 1260.62 472.437
2298 0 55.1306 12.5701 693 122.596 1260.17 464.385
2299 0 52.1071 12.5127 652 126.299 1259.9 460.408
2300 0 59.1299 15.8634 938 115.952 1260 462.466
2301 0 58.1367 14.2079 826 120.902 1260.77 458.797
2302 0 61.0868 16.4356 1004 116.512 1260.47 457.47
2303 0 60.0831 16.7934 1009 136.601 1260.43 457.507
2304 0 58.0409 11.9743 695 126.734 1261.69 456.435
2305 0 58.0409 13.8868 806 139.706 1262.74 454.947
2306 0 67.2119 16.9464 1139 117.195 1262.51 450.637
2307 0 66.0795 12.8784 851 125.865 1261.59 448.689
2308 0 72.0734 16.5387 1192 118.261 1264.41 445.396
2309 0 72.0734 16.4554 1186 134.924 1267.38 445.324
2310 0 75.1535 14.5968 1097 121.394 1265.33 447.308
2311 0 77.221 13.6103 1051 123.547 1262.77 448.964
2312 0 80.2986 15.0563 1209 121.231 1263.14 447.998
2313 0 82.3553 13.3325 1098 124.264 1264.28 447.969
2314 0 85.5182 16.0668 1374 119.224 1264.9 447.199
2315 0 89.7182 14.8688 1334 123.545 1265.58 441.031
2316 0 88.4562 12.5938 1114 129.092 1265.6 440.684
2317 1 49.2413 11.007 542 126.69 1265.1 460.708
2318 0 52.2417 10.5663 552 126.482 1265.86 463.208
2319 0 52.2332 12.5016 653 124.879 1264.79 460.662
2320 0 53.118 13.4606 715 115.639 1263.74 464.562
2321 0 56.3508 12.7061 716 116.782 1264.3 466.675
2322 0 60.3306 13.6249 822 115.736 1264.15 466.69
2323 0 61.3778 13.2621 814 115.366 1263.13 468.231
2324 0 62.3588 12.3158 768 118.876 1264.18 468.819
2325 0 62.3252 8.90491 555 125.683 1263.84 465.216
2326 0 67.2309 11.4382 769 120.456 1263.95 464.787
2327 0 70.3755 13.4422 946 116.264 1263.29 465.006
2328 0 75.3155 14.7911 1114 114.726 1262.99 462.506
2329 0 74.2874 12.5324 931 115.828 1261.06 467.093
2330 0 80.3265 15.4992 1245 112.118 1260.84 461.115
2331 0 84.3059 13.8306 1166 114.93 1259.75 460.386
2332 0 84.4428 12.8726 1087 116.853 1259.53 459.63
2333 0 88.2981 12.0954 1068 119.272 1259.84 455.897
2334 1 46.0586 10.5518 486 112.8 1256.99 478.794
2335 0 45.3448 13.7171 622 111.902 1257.07 473.717
2336 0 49.3043 12.7575 629 113.604 1256.24 469.779
2337 0 52.2612 12.0931 632 113.824 1256.46 472.448
2338 0 54.2058 13.7993 748 110.179 1256.99 469.429
2339 0 52.3184 11.6785 611 114.466 1256.49 467.391
2340 0 53.1834 15.6816 834 108.829 1256.71 464.837
2341 0 55.307 13.9585 772 111.222 1257.49 465.637
2342 0 56.3078 9.59015 540 117.4 1256.42 465.394
2343 0 58.2182 13.8273 805 110.616 1257.03 462.125
2344 0 60.2583 11.0192 664 114.599 1257.37 462.974
2345 0 62.3404 12.4157 774 112.385 1257.92 458.833
2346 0 65.3023 12.4345 812 111.69 1258.42 459.866
2347 0 65.2854 14.4749 945 109.293 1258.28 458.273
2348 0 69.3645 13.4795 935 110.996 1259.83 455.648
2349 0 68.171 12.278 837 113.835 1259.86 453.898
2350 0 70.2757 13.6605 960 111.76 1261.37 451.553
2351 0 70.2757 13.7886 969 114.528 1263.35 451.458
2352 0 76.2332 12.8553 980 113.326 1262.04 447.819
2353 0 77.2349 17.1943 1328 106.242 1262.9 453.832
2354 0 81.2532 13.8702 1127 111.367 1264.1 446.373
2355 0 83.1802 14.1139 1174 111.784 1263.96 447.72
2356 0 87.35 9.75386 852 117.864 1264.48 444.365
2357 1 41.0108 10.8996 447 116.136 1262.81 471.403
2358 0 47.4609 10.7878 512 115.91 1265.55 466.689
2359 0 47.4939 14.9072 708 112.624 1266.21 463.513
2360 0 48.2386 11.4638 553 119.246 1268.25 470.59
2361 1 104.499 12.402 1296 120.466 1265.53 441.546
2362 1 53.1118 14.4601 768 114.418 1267.74 471.536
2363 0 56.1453 15.8873 892 112.147 1267.03 469.609
2364 0 58.3497 13.8133 806 115.522 1268.05 471.634
2365 0 58.3477 14.345 837 115.539 1266.74 472.841
2366 0 62.2537 14.2963 890 115.054 1266.01 474.113
2367 0 64.2288 12.471 801 117.747 1265.96 474.563
2368 0 65.2978 14.074 919 115.947 1265.21 471.497
2369 0 66.3176 13.0734 867 119.235 1262.78 469.942
2370 0 70.3119 14.777 1039 116.385 1262.42 469.803
2371 0 75.5643 13.7896 1042 116.2 1261.64 470.382
2372 0 77.3441 13.3818 1035 118.054 1259.75 465.929
2373 0 79.499 14.1008 1121 115.947 1260.59 467.561
2374 0 77.294 15.7192 1215 115.109 1259.46 467.005
2375 0 84.6018 13.1439 1112 118.633 1258.17 460.072
2376 0 84.6018 13.0612 1105 147.104 1256.19 460.024
2377 0 89.6069 12.8673 1153 118.912 1257.58 456.513
2378 0 93.534 13.4283 1256 117.539 1257.04 451.976
2379 0 95.4385 16.2513 1551 112.954 1256.74 451.504
2380 1 47.521 13.8255 657 114.228 1255.87 471.755
2381 0 48.5172 15.0462 730 111.54 1256.74 469.986
2382 0 50.2766 12.7097 639 115.182 1257.68 471.12
2383 0 52.1188 13.853 722 111.827 1256.32 472.132
2384 0 54.1866 13.6196 738 112.988 1256.71 468.05
2385 0 54.1442 12.7807 692 114.118 1257.52 468.65
2386 0 56.1884 15.9108 894 108.584 1258.09 466.56
2387 0 58.1036 15.3003 889 108.856 1259.14 465.576
2388 0 58.1036 15.3691 893 135.065 1260.16 465.417
2389 0 62.1486 13.8056 858 110.357 1259.41 463.441
2390 0 62.2557 16.9302 1054 106.612 1260.12 459.163
2391 0 66.2068 18.4724 1223 104.419 1260.77 457.44
2392 0 68.1142 14.0206 955 111.051 1260.71 458.212
2393 0 67.0835 12.6857 851 114.087 1262.55 458.508
2394 0 70.1845 15.445 1084 107.403 1262.78 448.839
2395 0 73.1474 14.2999 1046 110.128 1264.1 449.034
2396 0 75.2947 13.9585 1051 110.971 1264.14 449.292
2397 0 78.2138 19.2166 1503 103.296 1264.91 452.253
2398 0 79.0937 14.4639 1144 110.052 1265.56 452.233
2399 1 40.098 11.4968 461 114.551 1265.5 469.406
2400 0 41.0295 12.7226 522 114.293 1266.12 477.676
2401 0 46.2006 15.3461 709 106.192 1266.23 474.86
2402 0 45.0629 15.2454 687 112.342 1265.13 474.456
2403 0 48.1694 14.3867 693 116.263 1264.38 475.214
2404 0 47.1631 13.1035 618 120.218 1265.36 475.599
2405 0 51.1459 13.2953 680 118.278 1264.57 474.787
2406 0 53.1086 15.2706 811 115.081 1264.02 474.979
2407 0 50.399 11.6272 586 124.29 1263.75 472.645
2408 0 59.3197 15.172 900 113.304 1263.9 478.109
2409 0 57.2366 15.6543 896 116.24 1264.86 473.828
2410 0 60.3474 18.7249 1130 111.484 1262.54 470.219
2411 0 64.1171 19.0589 1222 109.733 1261.85 475.93
2412 0 65.18 16.2933 1062 114.092 1260.72 475.44
2413 0 66.2819 13.8349 917 120.936 1260.53 470.691
2414 1 133.688 12.5142 1673 120.411 1259.55 444.016
2415 1 73.3733 15.1826 1114 117.535 1259.91 468.679
2416 0 73.2926 14.6945 1077 120.196 1259.34 465.871
2417 0 76.3573 19.3433 1477 112.746 1259.14 464.274
2418 0 85.1332 14.8708 1266 118.413 1258.32 461.827
2419 0 85.489 15.8032 1351 116.895 1257.68 461.81
2420 1 43.2933 17.7395 768 118.979 1257.94 477.225
2421 0 44.0257 17.4898 770 119.819 1258.43 475.477
2422 0 48.1485 16.2622 783 120.368 1258.99 473.94
2423 0 48.5049 17.7302 860 119.692 1258.42 471.679
2424 0 46.2307 14.1681 655 126.96 1258.23 473.736
2425 0 46.6697 15.449 721 125.503 1258.3 471.294
2426 0 52.2762 15.6285 817 123.472 1258.09 469.188
2427 0 54.3068 16.462 894 121.974 1258.01 464.971
2428 0 56.315 21.0068 1183 113.02 1258.75 466.967
2429 0 57.4502 16.8494 968 120.137 1259.29 463.244
2430 0 61.8927 13.2649 821 124.326 1260.61 464.471
2431 0 63.2692 16.2164 1026 120.557 1261.37 461.84
2432 0 63.2718 16.1841 1024 149.015 1262.37 461.727
2433 0 67.516 18.0994 1222 117.975 1262.4 454.444
2434 0 66.432 13.337 886 126.572 1262.64 457.609
2435 0 73.3549 18.4582 1354 116.313 1263.58 456.412
2436 0 73.59 18.3177 1348 119.276 1264.04 453.414
2437 0 74.2325 16.2463 1206 123.35 1264.1 452.213
2438 0 74.2325 16.3675 1215 147.952 1264.11 452.146
2439 0 80.3892 18.2238 1465 119.956 1264.83 455.166
2440 0 86.1646 17.8263 1536 119.919 1266 452.308
2441 0 84.3726 14.2226 1200 127.333 1265.08 452.216
2442 0 94.3649 20.8022 1963 114.851 1265.68 452.741
2443 1 47.2342 12.9567 612 129.124 1264.49 470.304
2444 0 48.391 14.4448 699 125.79 1266.04 472.072
2445 0 48.2978 13.9344 673 128.695 1264.69 471.703
2446 0 54.3406 14.906 810 124.796 1265.5 473.942
2447 0 55.0979 18.1314 999 121.807 1265.11 472.855
2448 0 58.135 15.5844 906 124.719 1264.79 474.687
2449 0 60.159 16.34 983 125.376 1263.64 469.566
2450 0 61.2041 15.1297 926 127.73 1263.97 471.366
2451 0 66.2513 13.962 925 127.24 1262.43 473.014
2452 0 66.2513 13.8563 918 154.753 1261.4 472.731
2453 0 72.1862 14.8643 1073 127.191 1260.71 466.938
2454 0 74.2233 19.0371 1413 119.602 1260.02 465.688
2455 0 76.1912 15.0542 1147 126.961 1259.92 464.019
2456 0 79.1207 16.4812 1304 124.239 1258.02 462.549
2457 0 81.5024 17.4228 1420 122.794 1257.57 459.492
2458 0 83.1561 18.3029 1522 122.294 1257.2 459.217
2459 0 86.3271 15.9741 1379 126.563 1257.72 452.209
2460 0 93.2128 18.6777 1741 119.898 1257.58 451.207
2461 0 95.2668 18.065 1721 120.934 1257.61 451.046
2462 0 98.058 17.4999 1716 121.983 1257.86 448.269
2463 0 101.299 17.4533 1768 122.678 1258.59 443.319
2464 0 103.246 16.8724 1742 123.66 1257.45 439.889
2465 0 106.174 17.3865 1846 122.349 1257.36 430.962
2466 0 109.58 15.8058 1732 125.18 1257.23 431.821
2467 0 113.552 16.1865 1838 124.008 1256.93 427.199
2468 0 115.489 13.4212 1550 129.617 1257.85 420.37
2469 1 64.2077 10.98 705 118.427 1257.59 454.919
2470 0 63.3478 9.40837 596 123.136 1258.4 449.309
2471 0 72.2296 13.8447 1000 116.329 1260.1 455.622
2472 0 72.3539 15.1201 1094 115.399 1260.47 455.535
2473 0 75.1144 12.7139 955 119.74 1260.7 451.086
2474 0 78.0772 13.6019 1062 117.943 1261.63 450.743
2475 0 83.134 13.785 1146 113.816 1262.78 454.297
2476 0 84.1031 12.6155 1061 118.003 1263.42 449.143
2477 0 89.1526 14.5144 1294 115.203 1264.52 444.412
2478 0 90.1554 8.70719 785 121.664 1262.65 450.39
2479 0 94.3245 8.53436 805 122.848 1263.56 445.184
2480 0 97.4948 13.3033 1297 113.522 1261.75 448.73
2481 0 103.762 13.0587 1355 115.232 1263.49 441.607
2482 0 106.518 11.998 1278 116.15 1262.73 442.71
2483 1 59.0767 11.0534 653 107.103 1261.95 471.152
2484 0 61.0922 10.9998 672 110.33 1259.69 463.071
2485 0 61.0922 10.967 670 119.796 1256.7 462.993
2486 0 63.3119 7.9448 503 112.71 1262.61 467.133
2487 0 69.1827 11.0432 764 108.105 1262.55 465.572
2488 0 67.2206 6.6795 449 112.477 1261.47 470.283
2489 0 74.205 10.4845 778 109.533 1262.96 463.27
2490 0 77.3268 11.8588 917 107.487 1261.6 464.489
2491 0 81.2262 8.38399 681 111.937 1260.66 453.592
2492 0 83.3554 9.87339 823 110.566 1261.11 461.077
2493 0 84.3386 10.3156 870 113.069 1259.68 459.221
2494 0 88.2337 10.7895 952 112.804 1258.54 456.634
2495 0 88.2337 10.7895 952 111.589 1257.57 456.482
2496 0 93.1288 12.3163 1147 110.277 1256.51 459.063
2497 0 98.2699 9.32127 916 114.635 1257.04 456.853
2498 0 98.2548 8.99702 884 116.266 1256.77 448.93
2499 0 100.291 5.8829 590 119.92 1255.93 452.23
2500 0 107.391 13.1482 1412 110.341 1257.4 445.348
2501 0 111.16 12.9993 1445 110.169 1255.95 445.884
2502 1 59.1905 13.8029 817 103.998 1256.05 468.409
2503 0 56.1621 12.2325 687 107.598 1256.93 470.247
2504 0 59.0912 12.4723 737 107.016 1257.02 468.704
2505 0 58.1755 11.2247 653 109.57 1256.85 470.184
2506 0 58.1614 13.2218 769 107.343 1256.58 466.766
2507 0 65.0956 13.2421 862 107.918 1257.24 462.162
2508 0 69.0853 9.48103 655 113 1257.52 454.02
2509 0 69.1926 9.40852 651 113.863 1257.81 461.72
2510 0 69.1926 9.43742 653 115.041 1258.82 461.564
2511 0 72.0936 10.2228 737 112.978 1256.85 459.43
2512 0 73.1972 6.85818 502 117.179 1257.67 460.321
2513 0 79.1181 5.99104 474 119.468 1259.43 455.941
2514 0 78.2142 5.89407 461 119.252 1260.73 455.646
2515 0 81.0664 12.2615 994 110.278 1260.27 454.109
2516 0 83.2377 16.0264 1334 104.751 1260.88 454.416
2517 0 83.2377 16.2306 1351 113.075 1261.85 454.453
2518 0 91.3516 13.7491 1256 109.394 1259.5 444.892
2519 0 96.3633 13.1897 1271 109.694 1259.78 444.429
2520 0 94.5016 7.77764 735 119.697 1260.63 440.094
2521 0 97.3522 8.3614 814 119.912 1260.89 449.161
2522 0 103.233 10.0453 1037 117.738 1260.12 445.798
2523 0 105.141 10.0056 1052 120.103 1262.07 442.157
2524 1 58.0782 17.3043 1005 106.307 1260.53 468.171
2525 0 60.0788 12.7333 765 112.824 1261.16 467.506
2526 0 64.0867 13.0604 837 111.109 1261.53 469.889
2527 0 65.0315 14.6237 951 110.419 1260.89 465.63
2528 0 67.2662 12.116 815 116.25 1260.8 460.523
2529 0 70.1838 8.66297 608 121.122 1260.47 463.944
2530 0 72.1948 15.666 1131 111.315 1260.47 461.824
2531 0 76.2335 13.4324 1024 113.828 1260.4 459.192
2532 0 80.139 16.3341 1309 108.253 1260.12 466.535
2533 0 82.3594 13.2104 1088 114.875 1259.25 460.137
2534 0 87.5038 13.268 1161 115.401 1259.03 456.455
2535 0 90.3414 15.8067 1428 111.604 1257.85 456.446
2536 0 94.4767 18.0044 1701 108.989 1257.07 447.608
2537 1 50.2894 13.4223 675 111.6 1256.59 474.504
2538 0 52.2707 11.517 602 114.769 1255.68 471.414
2539 0 54.4146 12.1659 662 112.85 1254.69 473.58
2540 0 54.198 17.067 925 105.679 1255.05 468.634
2541 0 54.0978 12.7917 692 111.525 1254.19 473.569
2542 0 56.1224 15.3058 859 106.871 1254.58 475.764
2543 0 59.1747 14.9895 887 108.689 1254.38 472.073
2544 0 61.2737 13.7743 844 110.664 1254.29 468.616
2545 0 63.1026 17.4319 1100 106.25 1255.15 467.338
2546 0 63.1608 10.6395 672 116.795 1255.24 469.438
2547 0 67.1449 14.3719 965 111.216 1254.49 467.072
2548 0 67.2343 13.0439 877 113.989 1254.6 463.333
2549 0 70.1152 13.92 976 113.261 1254.75 462.529
2550 0 69.0968 12.6489 874 115.547 1254.23 463.286
2551 0 74.2662 14.7981 1099 112.316 1255.24 458.298
2552 0 85.3491 10.9081 931 114.243 1254.6 461.929
2553 0 84.2688 13.8248 1165 111.512 1256.88 456.186
2554 0 83.139 18.5593 1543 106.531 1256.57 451.131
2555 0 88.2592 15.7151 1387 109.497 1257.73 455.453
2556 0 88.337 13.7542 1215 114.147 1258.35 451.609
2557 1 48.279 12.9042 623 114.509 1259.48 466.584
2558 0 51.2665 13.6736 701 113.407 1260.46 465.124
2559 0 52.3569 14.4585 757 109.922 1262.47 462.872
2560 0 51.2702 11.02 565 115.749 1261.15 459.549
2561 0 51.2702 11.1176 570 133.754 1260.16 459.535
2562 0 54.3774 10.4455 568 111.065 1263.73 461.474
2563 0 55.1515 12.511 690 109.077 1263.73 463.238
2564 0 59.1814 10.9494 648 108.39 1264.17 465.119
2565 0 63.1327 13.6854 864 106.353 1263.56 458.763
2566 0 64.0636 11.8008 756 109.713 1264.24 460.758
2567 0 66.1562 14.1332 935 105.895 1263.07 461.764
2568 0 67.1552 11.7787 791 109.59 1264.8 461.145
2569 0 71.1164 11.0242 784 110.941 1264.37 460.149
2570 0 78.244 11.5408 903 109.342 1263.2 462.941
2571 0 78.2459 10.2242 800 140.181 1262.23 465.121
2572 0 81.4046 13.3899 1090 108.501 1262.84 460.606
2573 0 84.3524 11.9736 1010 111.6 1261.25 459.05
2574 0 87.256 14.2569 1244 108 1260.95 458.44
2575 1 46.2598 11.5219 533 107.248 1260.81 478.478
2576 0 48.1051 11.0383 531 109.008 1260.6 475.757
2577 0 49.1251 9.16028 450 111.716 1259.13 473.842
2578 0 52.1052 13.3192 694 108.143 1260.16 478.731
2579 0 54.0709 13.9447 754 107.664 1258.14 475.671
2580 0 55.136 14.2738 787 107.132 1258.49 476.818
2581 0 62.3805 10.0031 624 113.776 1258.99 475.715
2582 0 63.3073 15.5116 982 107.176 1257.51 475.821
2583 0 62.1358 12.6658 787 112.531 1256.35 473.795
2584 0 63.1228 16.9669 1071 107.251 1256.1 471.759
2585 0 62.2912 16.0536 1000 107.853 1258.32 471.293
2586 0 68.1564 20.2035 1377 100.478 1256.95 464.254
2587 0 72.1595 23.1016 1667 95.6575 1256.96 469.366
2588 0 72.2071 16.5358 1194 105.723 1256.5 463.992
2589 0 69.2251 12.9722 898 112.543 1257.28 461.706
2590 0 75.2489 17.874 1345 102.761 1257.13 463.894
2591 0 79.2433 23.5225 1864 96.8568 1256.7 460.85
2592 0 81.1633 17.0151 1381 105.837 1258.27 456.119
2593 0 82.2186 16.8575 1386 107.04 1257.75 452.799
2594 0 86.2575 16.3116 1407 106.819 1258.64 454.563
2595 0 86.2575 16.3 1406 134.963 1258.66 454.445
2596 0 89.0887 14.9963 1336 110.858 1258.42 449.347
2597 0 93.2141 13.7533 1282 110.092 1259.69 455.073
2598 0 98.2613 16.8123 1652 107.262 1261.03 449.683
2599 0 98.3305 11.7969 1160 113.501 1261.24 447.558
2600 1 49.4853 15.055 745 105.156 1259.17 465.787
2601 0 48.8264 13.6607 667 105.979 1260.06 465.663
2602 0 49.4129 15.6437 773 102.882 1259.64 465.016
2603 0 52.1892 11.3433 592 107.742 1260.42 463.995
2604 0 57.3216 13.3632 766 100.789 1261.05 469.427
2605 0 56.5588 14.3214 810 100.625 1261.87 466.317
2606 0 54.4642 10.3003 561 105.585 1262.07 467.405
2607 0 59.2836 13.3258 790 101.377 1262.09 467.001
2608 0 59.2836 13.3089 789 138.696 1262.1 466.954
2609 0 63.423 14.1274 896 102.735 1262.11 465.762
2610 0 65.671 16.0192 1052 101.668 1261.62 465.195
2611 0 70.4775 11.2944 796 105.541 1261.74 470.676
2612 0 68.2807 12.5365 856 105.921 1261.69 466.498
2613 0 74.4492 13.5663 1010 105.078 1260.37 468.036
2614 0 78.461 16.1864 1270 103.486 1260.54 463.63
2615 0 81.4278 16.923 1378 102.19 1259.33 465.851
2616 0 84.3589 13.2648 1119 109.444 1258.48 458.251
2617 0 86.3812 14.4592 1249 105.093 1259.15 465.171
2618 0 86.3812 14.4823 1251 143.077 1259.17 465.173
2619 1 46.0865 9.72085 448 110.071 1258.37 484.533
2620 0 49.1495 13.0215 640 105.719 1258.05 482.553
2621 0 52.0484 16.9842 884 102.445 1258.74 479.076
2622 0 52.3219 20.1637 1055 100.356 1256.01 474.962
2623 0 52.0733 13.2698 691 110.425 1257.62 474.751
2624 0 58.3007 11.1319 649 112.576 1257 477.008
2625 0 58.1781 13.1665 766 110.439 1256.9 476.144
2626 0 62.1398 16.833 1046 104.764 1257.95 472.38
2627 0 62.2792 14.1781 883 109.732 1256.51 469.319
2628 0 62.199 13.5693 844 111.905 1257.13 466.857
2629 0 66.2721 13.8218 916 110.152 1256.03 465.969
2630 0 69.1232 15.306 1058 107.591 1257.84 463.86
2631 0 69.0724 14.6079 1009 109.276 1258.01 461.681
2632 0 71.2371 14.6132 1041 108.212 1258.45 462.487
2633 0 74.1589 14.2127 1054 109.639 1257.64 459.504
2634 0 76.1474 14.38 1095 109.692 1258.68 458.638
2635 0 79.1005 17.0037 1345 106.849 1258.89 456.123
2636 0 82.1997 15.7665 1296 107.992 1260.22 456.206
2637 0 83.2012 15.0238 1250 109.357 1260.55 455.5
2638 0 83.0688 16.2155 1347 108.96 1262.26 449.612
2639 0 87.1116 13.2244 1152 111.894 1261.63 452.555
2640 0 92.1207 20.9291 1928 101.645 1262.9 451.374
2641 0 95.2296 17.2425 1642 104.752 1262.28 452.244
2642 1 61.2046 9.91755 607 99.0247 1261.61 461.926
2643 0 63.1717 10.7168 677 96.7888 1262.55 464.136
2644 0 69.2456 10.7299 743 98.5222 1262.63 461.21
2645 0 70.2061 15.1269 1062 92.5951 1262.01 461.29
2646 0 72.3385 18.4411 1334 89.9655 1262.53 455.453
2647 0 77.4123 15.6435 1211 90.763 1262.02 467.255
2648 0 76.4963 12.0398 921 95.5255 1261.35 460.84
2649 0 79.4047 12.1277 963 95.2471 1261.1 460.955
2650 0 81.2014 12.4505 1011 94.9436 1259.56 461.886
2651 0 85.2631 12.1506 1036 96.416 1259 455.585
2652 0 88.2411 12.0012 1059 95.4665 1259.57 458.609
2653 0 91.2765 15.9406 1455 91.4055 1256.71 461.692
2654 0 92.8612 14.4948 1346 93.7415 1255.99 458.114
2655 1 50.4713 17.7328 895 87.8089 1255.32 474.088
2656 0 49.2195 13.8157 680 90.3941 1254.08 472.834
2657 0 52.3099 16.0008 837 91.7897 1253.25 472.805
2658 0 52.0736 14.7099 766 96.282 1257.21 473.449
2659 0 53.0419 15.648 830 95.6892 1256.35 476.008
2660 0 52.0337 13.2991 692 134.559 1256.62 473.897
2661 0 56.0728 10.7717 604 102.709 1256.21 471.947
2662 0 58.2848 13.3483 778 98.6979 1255.58 468.244
2663 0 58.2848 13.3654 779 122.798 1254.59 468.258
2664 0 64.2206 13.1422 844 99.0261 1255.82 466.532
2665 0 65.3321 14.9238 975 98.0082 1255.96 462.843
2666 0 65.3321 14.9238 975 121.678 1255.99 462.862
2667 0 68.2004 14.6187 997 98.8887 1256.29 459.559
2668 0 69.2572 12.2153 846 101.976 1256.57 459.663
2669 0 69.1786 22.0733 1527 93.2809 1255.13 457.157
2670 0 74.4592 15.6999 1169 98.7442 1257.84 456.444
2671 0 75.5622 11.7122 885 104 1256.54 453.212
2672 0 79.2188 15.1605 1201 99.9417 1256.69 449.782
2673 0 80.5615 13.3314 1074 102.308 1256.24 448.282
2674 0 83.2465 13.9826 1164 101.745 1257.93 449.306
2675 0 87.3549 14.8475 1297 99.5744 1257.78 449.603
2676 0 90.3238 16.618 1501 98.0493 1258.19 444.677
2677 1 49.1428 10.3779 510 98.4824 1260.39 471.241
2678 0 50.4551 12.6251 637 95.5024 1260.12 462.983
2679 0 50.076 9.74518 488 98.9139 1259.09 470.963
2680 1 102.379 20.346 2083 91.0965 1260.12 450.544
2681 0 105.396 11.7556 1239 100.935 1260.96 443.795
2682 1 54.0868 11.9992 649 96.7026 1260.56 471.641
2683 0 55.0974 13.8482 763 96.2464 1261.72 468.904
2684 0 57.0645 14.948 853 95.1102 1262.26 470.433
2685 0 60.1029 14.3587 863 96.2341 1261.31 468.636
2686 0 64.3035 14.7115 946 95.4059 1261.16 469.32
2687 0 65.063 14.0326 913 96.0898 1261.61 468.42
2688 0 68.0744 10.562 719 99.5369 1262.12 471.839
2689 0 69.1495 14.9386 1033 95.7667 1262.6 465.255
2690 0 71.211 13.5372 964 96.973 1261.92 471.588
2691 0 72.2121 14.679 1060 95.466 1262.74 471.355
2692 0 73.1586 12.3157 901 98.7248 1262.65 471.202
2693 0 76.1994 12.5592 957 98.4932 1260.87 470.201
2694 0 80.2902 11.3588 912 99.159 1261.4 469.94
2695 0 83.2764 12.6446 1053 98.189 1260.87 471.359
2696 0 82.3429 16.3584 1347 95.386 1259.36 467.612
2697 0 81.3522 12.4397 1012 130.144 1258.54 471.982
2698 1 146.43 11.9511 1750 103.003 1257.91 434.581
2699 0 148.362 11.2495 1669 98.2439 1256.38 449.37
2700 0 145.229 10.6384 1545 104.946 1257.19 431.203
2701 0 143.548 15.6533 2247 99.6546 1255.67 430.65
2702 0 148.999 11.8792 1770 88.9672 1255.54 433.462
2703 1 104.892 13.347 1400 91.0293 1254.33 450.378
2704 0 109.68 14.7155 1614 90.2844 1253.16 450.319
2705 1 58.1048 13.424 780 91.6231 1253.66 471.442
2706 0 58.1432 16.2874 947 88.9778 1252.82 473.882
2707 0 62.1432 16.9769 1055 89.019 1252.37 469.084
2708 0 62.1667 15.2654 949 91.4204 1252.83 465.654
2709 0 68.1206 17.3516 1182 88.0381 1253.53 468.955
2710 0 67.2679 17.2891 1163 90.4041 1253.48 460.57
2711 0 71.4495 18.0687 1291 88.5012 1254.76 464.12
2712 0 72.2689 14.28 1032 90.0969 1254.01 468.126
2713 0 76.2282 16.1489 1231 91.7636 1254.34 458.216
2714 0 77.2555 17.7592 1372 91.3287 1254.74 454.349
2715 0 79.2301 14.5399 1152 95.3351 1255.14 451.973
2716 0 84.2586 16.4968 1390 92.6532 1255.25 453.088
2717 0 90.454 17.5006 1583 91.6905 1256.72 449.255
2718 0 91.4149 15.4898 1416 92.3234 1257.67 452.356
2719 0 92.2619 14.1445 1305 93.3272 1258.96 449.432
2720 0 94.4 16.8538 1591 91.4262 1259.22 448.157
2721 0 93.5428 11.9517 1118 97.8962 1258.95 449.05
2722 1 48.7863 10.4947 512 92.0469 1259.6 475.967
2723 0 50.2081 15.5154 779 89.7279 1260.04 467.438
2724 0 49.0787 11.8993 584 94.851 1261.65 468.676
2725 0 53.3839 15.6789 837 86.7909 1260.98 476.464
2726 0 55.0328 14.5004 798 90.9323 1259.69 473.272
2727 0 55.3747 17.7698 984 87.5325 1260.91 472.094
2728 0 56.2341 15.6133 878 89.6503 1261.6 475.22
2729 0 61.0646 19.2419 1175 86.5515 1261.63 473.78
2730 0 60.1788 11.5988 698 95.7908 1263.03 471.152
2731 0 60.5885 12.9067 782 95.6074 1261.22 468.513
2732 0 62.1953 11.8819 739 96.3085 1261.55 472.016
2733 0 65.3158 14.805 967 93.303 1261.23 470.387
2734 0 67.2929 12.349 831 96.1793 1262.14 468.013
2735 0 70.2617 15.3711 1080 93.1315 1259.91 467.128
2736 0 72.2916 19.449 1406 89.0192 1260.33 467.533
2737 0 78.5617 18.4441 1449 88.0083 1259.95 468.223
2738 0 78.4319 12.8264 1006 93.7853 1260.22 470.059
2739 0 80.4746 14.663 1180 93.083 1259.77 465.168
2740 0 83.2716 12.9576 1079 94.6126 1258.38 468.355
2741 1 43.4266 11.0071 478 96.0063 1258.62 484.944
2742 0 46.1028 10.9321 504 96.6171 1258.04 476.133
2743 0 49.4886 13.8011 683 92.3441 1257.34 476.756
2744 0 46.1114 9.30356 429 97.5758 1257.25 476.019
2745 0 53.576 12.6922 680 90.875 1257.72 479.424
2746 0 50.3572 15.5092 781 90.726 1256.27 475.074
2747 0 52.2515 10.9279 571 96.0105 1256.23 470.851
2748 0 55.2648 16.4119 907 88.4355 1255.21 476.308
2749 0 57.7285 16.8721 974 90.4712 1255.81 470.527
2750 0 56.3739 18.7498 1057 88.4428 1254.33 470.309
2751 0 60.4487 15.964 965 90.8777 1255.47 466.74
2752 0 62.8261 16.9675 1066 88.955 1256.16 467.829
2753 0 62.2498 13.992 871 92.6406 1255.95 462.234
2754 0 62.4459 16.7505 1046 98.4331 1256.89 463.611
2755 0 69.431 16.52 1147 97.1447 1256.98 458.754
2756 0 71.1793 18.2356 1298 96.2334 1257.93 456.824
2757 0 72.632 13.8644 1007 100.637 1257.37 456.885
2758 0 75.1996 14.6543 1102 100.239 1258.23 453.407
2759 0 78.3207 14.8109 1160 100.362 1259.31 450.107
2760 0 79.3357 15.9449 1265 98.853 1258.74 448.71
2761 0 83.4296 13.4125 1119 101.748 1259.28 450.531
2762 1 47.377 14.353 680 99.3324 1260.28 468.604
2763 0 46.1231 12.9003 595 103.341 1259.03 468.587
2764 0 48.0888 13.9949 673 100.478 1258.63 471.224
2765 0 50.1633 16.7254 839 97.4088 1259.79 468.266
2766 0 52.0839 13.6318 710 101.208 1259.3 466.649
2767 0 54.18 15.3931 834 100.454 1260.45 467.681
2768 0 55.1098 14.0266 773 101.16 1259.84 471.278
2769 0 55.1355 13.7842 760 103.384 1261.44 467.047
2770 0 56.4685 14.3266 809 102.691 1262.11 468.471
2771 0 60.3246 14.7038 887 102.282 1262.85 466.445
2772 0 59.1816 14.0415 831 103.575 1262.95 469.349
2773 0 64.3506 17.1094 1101 99.4351 1262.49 469.143
2774 0 66.2937 22.4456 1488 93.8138 1262.64 472.927
2775 0 65.1654 13.2125 861 104.72 1262.36 471.027
2776 0 69.1202 18.5329 1281 98.4785 1261.68 471.115
2777 0 71.3477 16.2724 1161 101.238 1261.27 468.779
2778 0 71.4038 14.6771 1048 104.296 1261.75 467.777
2779 0 75.2826 16.5643 1247 102.023 1260.52 466.528
2780 0 80.1278 14.7889 1185 104.33 1260.95 467.33
2781 0 80.1878 15.3764 1233 104.191 1260.9 465.613
2782 0 83.147 14.0354 1167 105.441 1260.31 464.93
2783 0 87.2639 19.1374 1670 99.8299 1259.76 460.545
2784 0 87.4372 17.1552 1500 102.103 1258.74 460.286
2785 0 85.1485 14.5158 1236 102.732 1258.69 467.784
2786 0 91.5295 14.5964 1336 105.32 1258.2 454.933
2787 0 96.1762 12.841 1235 106.797 1257.35 457.069
2788 0 102.519 22.308 2287 96.6681 1257.08 450.916
2789 0 103.4 15.3772 1590 102.886 1255.3 456.057
2790 1 56.1647 13.7453 772 104.396 1255.71 472.402
2791 0 55.5522 13.1588 731 102.516 1254.15 472.198
2792 0 60.2896 13.1698 794 105.772 1256.82 460.506
2793 0 61.3586 15.7435 966 102.128 1256.91 465.949
2794 0 67.4028 13.8273 932 102.953 1257.29 464.616
2795 0 66.3497 13.0219 864 105.697 1257.39 459.994
2796 0 70.2571 17.3221 1217 100.502 1256.51 456.251
2797 0 74.436 16.8601 1255 99.9195 1257.38 457.606
2798 0 76.5242 12.336 944 106.312 1258.26 453.236
2799 0 78.353 15.7748 1236 102.645 1258.7 452.972
2800 0 82.3443 16.8925 1391 100.988 1258.25 450.994
2801 0 86.1325 16.7533 1443 100.985 1258.04 448.683
2802 0 90.3081 16.1337 1457 100.839 1259.78 448.012
2803 0 92.3513 15.4302 1425 102.533 1259.18 444.521
2804 0 95.2593 20.5124 1954 95.1305 1260.25 449.588
2805 0 97.3291 16.3671 1593 100.584 1260.12 446.38
2806 0 99.5654 12.8157 1276 106.862 1261.67 441.719
2807 0 110.66 20.2694 2243 95.2523 1262.43 446.053
2808 0 106.409 16.1265 1716 102.204 1262.1 435.423
2809 1 55.1038 10.7797 594 100.274 1262.83 465.103
2810 0 59.2421 12.1704 721 98.2857 1263.91 466.731
2811 0 62.3487 13.5688 846 100.617 1263.01 456.402
2812 0 61.452 15.0524 925 100.115 1264.17 459.493
2813 0 65.2895 13.5397 884 101.533 1264.53 461.391
2814 0 69.3638 21.0773 1462 91.2681 1263.24 466.424
2815 0 70.2795 14.5846 1025 100.66 1262.32 460.807
2816 0 72.3648 13.584 983 101.136 1263.49 461.924
2817 0 73.4268 15.6482 1149 99.3438 1264.2 463.272
2818 0 78.5918 17.3937 1367 95.9781 1263.5 464.05
2819 0 77.653 11.0234 856 101.294 1263.81 457.932
2820 0 79.352 15.0091 1191 97.9127 1262.58 454.62
2821 0 82.8404 10.0434 832 103.468 1263.43 448.054
2822 0 85.2952 12.7909 1091 99.5793 1262.5 457.058
2823 0 87.3792 11.6046 1014 100.857 1262.99 452.849
2824 0 91.4922 9.66202 884 101.897 1262.33 456.548
2825 1 47.6005 10.4201 496 97.381 1262.64 476.855
2826 0 47.4333 11.0049 522 96.5996 1263.4 477.224
2827 0 49.6363 11.4634 569 96.406 1262.11 474.072
2828 0 53.4252 17.2203 920 89.8294 1261.21 470.976
2829 0 53.4252 17.2765 923 111.518 1260.21 471.079
2830 0 55.4057 11.5331 639 95.4398 1259.82 474.742
2831 0 56.5286 13.073 739 93.5765 1259.36 470.788
2832 0 59.2739 14.7789 876 91.855 1258.57 468.39
2833 0 60.4503 14.3424 867 92.4141 1257.88 465.03
2834 0 62.2942 12.5854 784 94.2066 1258.11 468.547
2835 0 62.2942 12.6496 788 120.151 1258.13 468.508
2836 0 67.5956 13.0038 879 94.5028 1257.11 462.152
2837 0 70.4234 19.9934 1408 87.4865 1257.09 464.184
2838 0 70.2903 15.1515 1065 93.3296 1257.21 460.241
2839 0 70.3233 12.2719 863 97.8366 1257.27 456.125
2840 0 78.4729 14.1705 1112 94.2311 1258.33 459.458
2841 0 77.3368 13.5382 1047 95.8481 1258.21 457.807
2842 0 82.4161 12.0607 994 97.6036 1257.57 458.706
2843 0 83.1681 13.0819 1088 97.727 1257.6 451.403
2844 0 86.3354 13.6097 1175 97.3583 1259.17 453.128
2845 0 86.2637 12.0792 1042 101.547 1259.16 441.268
2846 0 88.6796 11.5134 1021 100.169 1259.84 451.013
2847 0 88.6796 11.5585 1025 130.52 1259.8 451.138
2848 0 95.7754 12.0386 1153 100.91 1261.25 441.25
2849 0 99.6193 16.1615 1610 96.8429 1262.86 441.047
2850 1 49.1588 12.2257 601 95.431 1264.2 462.641
2851 0 52.0441 12.3933 645 95.0822 1263.9 463.898
2852 0 53.2582 10.6087 565 96.7062 1264 467.425
2853 0 54.3346 12.3126 669 96.7668 1263.35 464.973
2854 0 54.4906 10.3321 563 98.6323 1263.44 465.817
2855 0 57.2872 11.0496 633 98.2464 1263.29 467.385
2856 0 60.2469 15.1211 911 93.517 1264.52 465.338
2857 0 62.5975 17.6045 1102 91.4846 1263.23 461.264
2858 0 62.2934 11.1569 695 98.5453 1264.02 463.993
2859 0 64.3577 13.3784 861 97.144 1264.74 462.607
2860 0 64.3577 13.4405 865 130.855 1265.72 462.466
2861 0 67.2234 11.2163 754 99.8276 1264.04 469.224
2862 0 74.3792 16.1067 1198 94.7922 1264.84 463.982
2863 0 74.5401 11.3764 848 100.098 1264.37 466.544
2864 1 42.4131 10.0205 425 99.2212 1265.64 481.035
2865 0 46.1863 14.2683 659 95.7405 1263.65 482.524
2866 0 44.4819 11.9149 530 99.7038 1262.47 477.725
2867 0 45.435 9.90427 450 102.584 1262.25 477.776
2868 0 45.3246 14.3189 649 99.0586 1261.65 476.686
2869 0 49.474 18.8988 935 92.8171 1260.58 478.118
2870 0 51.2222 17.1605 879 94.6268 1260.35 478.863
2871 0 51.2064 18.1423 929 94.1023 1260.45 474.022
2872 0 53.371 12.741 680 101.44 1258.71 472.99
2873 0 55.223 14.8851 822 98.1375 1259.83 473.105
2874 0 55.1494 16.7364 923 97.2102 1257.05 470.934
2875 0 56.1098 12.7072 713 102.008 1257.4 472.858
2876 0 59.2813 12.6347 749 103.462 1257.45 469.068
2878 0 63.3712 14.3441 909 100.133 1257.42 470.069
2879 0 64.328 16.0894 1035 97.9546 1256.96 464.242
2880 0 66.1288 15.8176 1046 99.0707 1256.95 468.083
2881 0 69.3565 14.5048 1006 101.559 1255.78 460.066
2882 0 70.3302 13.4935 949 103.496 1256.91 458.737
2883 0 73.2662 15.2185 1115 100.952 1256.55 455.036
2884 0 81.4157 16.6798 1358 98.7121 1256.02 451.812
2885 0 80.1658 16.4908 1322 99.9546 1257.99 449.423
2886 1 40.126 11.1898 449 107.568 1256.46 466.074
2887 0 41.1607 13.6781 563 104.419 1256.9 467.467
2888 0 44.1648 14.4685 639 105.208 1256.36 465.49
2889 0 46.5295 13.5828 632 106.343 1259.9 464.386
2890 0 49.6254 14.7303 731 100.168 1262.2 470.197
2891 0 50.4191 15.034 758 103.852 1262.29 464.129
2892 0 52.378 14.3381 751 105.29 1261.99 463.478
2893 0 51.4562 12.5544 646 108.975 1263.28 461.588
2894 0 56.6276 14.9574 847 101.63 1264.18 464.832
2895 0 54.4712 10.6111 578 110.216 1264.4 464.368
2896 0 57.5146 15.1092 869 103.084 1263.6 463.786
2897 0 57.3416 13.9689 801 105.821 1264.46 462.713
2898 0 59.3677 14.3007 849 104.969 1264.69 460.7
2899 0 60.3022 13.4158 809 106.434 1265.12 458.56
2900 0 60.3022 13.4158 809 141.368 1266.12 458.56
2901 0 66.5387 18.726 1246 98.3652 1265.54 458.983
2902 0 67.4872 11.9578 807 106.04 1267.05 464.076
2903 0 71.4408 15.3834 1099 102.065 1266.1 462.025
2904 0 73.3362 12.8449 942 104.477 1266.85 463.391
2905 0 76.2421 14.2572 1087 102.645 1266.55 460.766
2906 1 39.1207 11.7073 458 101.035 1266.9 481.605
2907 0 39.1207 11.7585 460 138.876 1264.94 481.72
2908 0 45.6077 12.7829 583 99.1441 1266.03 480.722
2909 0 44.549 17.9353 799 95.8536 1264.09 474.14
2910 0 44.1768 13.4233 593 102.199 1266.16 475.944
2911 0 46.4835 12.3915 576 104.441 1264.75 476.03
2912 0 48.3603 18.8791 913 95.2366 1264.68 475.045
2913 0 52.3453 13.6975 717 99.6778 1264.17 479.629
2914 0 50.3129 16.7154 841 96.3781 1262.46 478.754
2915 0 54.5578 14.645 799 99.3567 1261.44 476.675
2916 0 56.7258 12.7984 726 102.291 1261.5 473.804
2917 0 53.2627 14.3815 766 102.232 1261.13 473.706
2918 0 59.4614 15.9768 950 98.6042 1261.29 473.628
2919 0 59.4614 16.0945 957 137.652 1261.29 473.7
2920 0 59.2845 17.2389 1022 99.3386 1259.83 467.126
2921 0 60.4325 14.7437 891 102.877 1260.34 469.112
2922 0 65.2051 16.7318 1091 99.7626 1258.7 465.91
2923 0 65.3405 15.9931 1045 98.9177 1258.37 468.848
2924 0 67.3075 16.9966 1144 99.3741 1258.33 462.26
2925 0 69.3349 15.8794 1101 97.9682 1260.03 466.164
2926 0 69.6414 16.585 1155 98.4424 1259.71 461.66
2927 0 74.6965 21.1121 1577 94.0114 1257.78 454.814
2928 0 75.8582 18.5478 1407 97.8038 1258.12 443.654
2929 0 74.7428 16.9649 1268 100.831 1259.93 433.459
2930 0 76.8714 12.1892 937 107.497 1260.4 432.93
2931 0 78.7695 14.1806 1117 104.125 1260.66 435.901
2932 0 82.4431 13.9854 1153 105.226 1260.48 431.834
2933 1 43.2559 10.4032 450 103.216 1261.85 461.756
2934 0 46.0852 16.144 744 94.1868 1262.27 462.231
2935 0 49.1156 14.9647 735 100.916 1264.61 452.846
2936 0 49.3067 11.2966 557 105.689 1263.98 454.257
2937 0 52.2744 13.3717 699 100.803 1264.29 458.375
2938 0 52.284 12.0113 628 103.793 1265.59 454.588
2939 0 53.2963 9.73801 519 106.075 1264.7 456.628
2940 0 57.2932 15.9879 916 98.1168 1265.14 457.405
2941 0 62.1385 17.3805 1080 95.8806 1266.02 458.075
2942 0 59.2049 14.7623 874 100.686 1265.68 456.299
2943 0 62.2932 13.8217 861 102.602 1266.6 452.39
2944 0 65.5796 16.1788 1061 98.0895 1266.55 454.713
2945 0 66.2843 12.8386 851 103.338 1266.54 453.223
2946 0 70.3846 13 915 104.073 1266 452.721
2947 0 70.161 13.4263 942 103.6 1265.29 454.273
2948 0 75.4138 15.2625 1151 102.129 1266.31 451.197
2949 0 75.2665 13.8707 1044 104.839 1265.63 454.823
2950 0 80.1804 14.5547 1167 105.332 1264.43 452.482
2951 0 81.2905 14.8357 1206 105.52 1264.05 452.808
2952 0 85.5271 13.0251 1114 107.74 1264.1 452.873
2953 0 88.8573 19.8295 1762 99.0585 1264.01 454.596
2954 0 89.1224 15.3833 1371 106.696 1265.3 450.847
2955 0 93.0776 14.6329 1362 107.794 1265.33 447.567
2956 0 96.1749 14.7648 1420 108.691 1262.62 445.659
2957 1 50.2894 11.2151 564 107.032 1261.71 473.328
2958 0 55.2024 13.6407 753 104.644 1261.01 467.035
2959 0 57.2598 13.8491 793 104.672 1260.8 464.944
2960 0 57.2598 13.7793 789 147.437 1260.8 464.962
2961 0 64.318 12.6559 814 100.728 1259.75 467.73
2962 0 65.1342 15.5065 1010 99.2475 1259.37 464.15
2963 0 67.2095 15.3847 1034 99.3839 1259.62 462.937
2964 0 70.3105 12.7719 898 103.463 1257.7 459.027
2965 0 71.2935 14.8681 1060 102.727 1258.14 456.733
2966 0 75.3172 15.2422 1148 102.358 1258.35 452.031
2967 0 79.3668 13.9605 1108 104.035 1258.02 452.514
2968 0 82.4293 15.3586 1266 102.051 1258.82 450.087
2969 0 84.2947 12.8122 1080 106.938 1257.44 446.717
2970 0 87.5696 13.3151 1166 106.092 1257.66 448.438
2971 0 89.5404 17.3218 1551 101.69 1257.45 444.879
2972 0 93.4919 15.8516 1482 104.962 1259.65 443.885
2973 0 99.5676 18.9921 1891 99.4601 1259 444.431
2974 0 100.46 13.2391 1330 110.395 1260.22 436.376
2975 0 99.4542 13.2825 1321 108.283 1260.33 436.321
2976 0 105.521 14.1204 1490 106.674 1261.66 435.166
2977 1 54.325 15.2968 831 100.74 1262.21 455.54
2978 0 58.1494 12.7258 740 103.062 1260.06 456.523
2979 0 58.1589 10.8152 629 106.717 1261.55 454.908
2980 0 61.3798 13.7016 841 102.376 1261.39 454.637
2981 0 65.9041 16.1295 1063 98.5466 1262.7 456.224
2982 0 63.3746 17.4676 1107 98.1762 1263.92 453.658
2983 0 67.3166 14.4986 976 102.684 1264.34 451.284
2984 0 69.2968 15.0945 1046 102.435 1265.08 449.893
2985 0 70.2197 12.0337 845 105.801 1264.38 452.356
2986 0 75.3463 14.2011 1070 101.612 1265.14 457.25
2987 0 79.4774 16.8979 1343 98.9017 1266.34 453.221
2988 0 80.2886 19.8783 1596 96.2093 1265.65 453.472
2989 0 86.4139 15.3563 1327 100.537 1265.94 454.937
2990 0 86.2282 12.119 1045 104.785 1266.4 450.222
2991 0 89.2039 15.5262 1385 100.769 1265.17 448.903
2992 0 94.2088 15.6036 1470 100.284 1265.33 449.894
2993 0 96.2532 14.2229 1369 107.706 1264.12 457.022
2994 1 51.0749 14.5668 744 101.578 1262.82 481.315
2995 0 50.1572 12.1618 610 105.228 1262.38 479.51
2996 0 54.0759 12.9448 700 102.447 1262 479.027
2997 0 57.2639 14.1101 808 100.834 1262.5 475.114
2998 0 56.1457 11.3099 635 106.517 1265.17 479.146
2999 0 59.3039 14.2992 848 100.617 1264.84 474.005
3000 0 62.1912 14.5358 904 100.28 1264.37 473.052
3001 0 61.2189 12.3165 754 103.215 1263.88 472.159
3002 0 64.287 11.6664 750 104.731 1263.44 472.284
3003 0 69.2608 19.4482 1347 93.1559 1263.05 471.181
3004 0 65.1106 10.413 678 105.08 1262.61 473.627
3005 0 76.3588 15.7677 1204 95.0042 1259.8 470.819
3006 0 75.3597 16.3483 1232 96.1445 1259.47 467.955
3007 0 75.3692 16.7044 1259 97.6966 1259.76 458.809
3008 0 75.234 11.6304 875 104.535 1258.72 460.696
3009 0 83.5442 14.7347 1231 99.8554 1259.11 458.637
3010 0 81.3653 13.5807 1105 102.848 1258.31 456.653
3011 0 86.4696 16.5839 1434 99.6332 1257.65 453.989
3012 0 85.1965 17.2308 1468 100.121 1258.58 449.292
3013 0 88.2322 16.7512 1478 99.7483 1257.36 456.67
3014 0 88.5924 12.4277 1101 103.07 1256.46 446.226
3015 0 94.2683 14.342 1352 101.122 1257.05 445.776
3016 0 91.2198 10.7433 980 109.416 1256.77 446.283
3017 0 98.4566 13.803 1359 103.272 1258.32 447.349
3018 0 100.306 12.432 1247 105.836 1256.43 446.521
3019 0 104.222 16.5224 1722 105.709 1258.33 442.146
3020 0 109.146 15.0715 1645 106.483 1257.73 442.621
3021 0 111.629 14.5213 1621 103.104 1256.83 437.734
3022 0 113.771 13.0964 1490 104.872 1259.78 430.968
3023 0 120.456 14.1711 1707 103.592 1260.42 428.335
3024 0 120.456 14.0798 1696 132.88 1261.42 428.256
3025 0 125.273 13.4905 1690 105.288 1262.77 430.062
3026 0 133.628 17.6086 2353 98.9171 1263.29 434.472
3027 0 133.291 13.7594 1834 106.847 1264.26 421.81
3028 0 138.56 14.0661 1949 105.791 1264.56 427.765
3029 0 143.424 14.8371 2128 105.153 1265.22 431.158
3030 0 146.247 14.5165 2123 107.556 1264.92 429.769
3031 0 153.253 12.9851 1990 110.273 1264.71 422.987
3032 0 155.681 14.9794 2332 108.515 1264.9 417.981
3033 0 160.683 18.4338 2962 103.76 1263.6 417.436
3034 0 164.496 15.9883 2630 106.7 1263.5 423.556
3035 0 169.606 13.5608 2300 110.692 1263.05 419.61
3036 0 174.71 16.2441 2838 108.035 1263.58 410.907
3037 0 180.824 15.1529 2740 109.067 1263.61 418.189
3038 0 185.422 17.1501 3180 106.754 1264.44 418.301
3039 0 189.78 14.111 2678 109.197 1262.71 423.115
3040 0 193.79 14.1235 2737 112.156 1261.02 408.503
3041 0 201.05 15.9861 3214 110.351 1262.55 403.7
3042 0 205.975 15.3659 3165 112.085 1260.76 396.814
3043 0 211.917 17.1813 3641 109.629 1261.34 400.187
3044 0 218.381 14.5205 3171 114.836 1259.4 394.186
3045 1 231.453 14.9879 3469 114.436 1260.17 385.296
3046 0 231.214 15.5873 3604 114.687 1259.32 388.626
3047 0 239.433 16.7145 4002 111.289 1258.53 391.8
3048 1 74.5595 12.1111 903 110.547 1257.18 461.883
3049 0 72.5987 12.7826 928 108.297 1255.93 463.731
3050 0 75.7339 10.7614 815 112.455 1256.69 461.006
3051 0 81.5281 16.1662 1318 101.79 1256.08 457.348
3052 0 82.3833 15.5371 1280 101.81 1258.13 463.641
3053 0 83.7583 12.0346 1008 108.035 1257.87 457.992
3054 0 88.4152 12.2377 1082 112.035 1256.9 453.573
3055 0 92.2799 11.7469 1084 107.361 1258.05 455.941
3056 0 91.3322 11.7921 1077 103.315 1257.6 446.896
3057 0 97.4183 16.4343 1601 97.9582 1257.39 447.928
3058 0 99.2681 12.6425 1255 103.614 1257.08 446.641
3059 0 100.446 12.0064 1206 105.316 1257.32 443.441
3060 0 103.385 15.8631 1640 100.377 1257.86 444.863
3061 0 104.727 12.4609 1305 105.185 1257.61 444.336
3062 0 108.702 16.9546 1843 100.326 1258.42 433.756
3063 0 111.879 12.8353 1436 104.527 1258.36 438.022
3064 0 114.707 14.1142 1619 104.511 1259.25 432.025
3065 0 117.671 12.6624 1490 105.219 1258.95 435.479
3066 0 120.854 14.3562 1735 103.913 1258.77 430.786
3067 0 124.744 15.2312 1900 103.728 1260.52 429.293
3068 0 127.05 10.185 1294 109.688 1261.83 434.141
3069 0 130.915 13.4286 1758 107.562 1262.33 425.099
3070 0 134.956 17.6205 2378 102.302 1263.03 424.154
3071 0 136.864 12.253 1677 109.267 1261.73 421.897
3072 0 142.689 13.5609 1935 107.946 1262.76 420.999
3073 0 144.678 13.4437 1945 106.88 1261.89 422.069
3074 0 151.911 16.8323 2557 102.169 1263.38 421.348
3075 0 151.847 7.50755 1140 111.377 1261.45 437.365
3076 1 88.4739 8.13799 720 108.014 1260.37 456.817
3077 0 92.3276 11.405 1053 104.518 1261.61 458.846
3078 0 96.3777 13.6339 1314 102.873 1261.81 453.143
3079 0 99.3848 16.7028 1660 97.9114 1261.18 456.763
3080 0 102.431 15.1028 1547 101.078 1261.07 452.4
3081 0 101.385 10.8596 1101 107.053 1260.57 454.039
3082 0 106.487 12.593 1341 105.226 1261.52 451.884
3083 0 112.608 13.88 1563 102.941 1261.72 453.811
3084 0 111.402 13.4468 1498 105.037 1260.11 447.28
3085 0 115.245 15.1156 1742 102.534 1259.47 450.112
3086 0 115.245 14.9767 1726 132.614 1259.48 450.188
3087 0 126.455 16.7412 2117 100.208 1258.76 449.94
3088 0 127.406 12.158 1549 106.79 1257.7 449.292
3089 0 128.407 12.5383 1610 108.047 1256.91 436.465
3090 1 71.1802 10.1433 722 112.794 1256.69 467.507
3091 0 75.1391 12.6166 948 107.212 1255.1 468.362
3092 0 81.2114 15.3304 1245 103.575 1255.35 467.934
3093 0 80.147 17.2558 1383 98.1338 1254.59 467.988
3094 0 83.2742 10.5915 882 105.66 1253.61 465.814
3095 0 85.2461 13.3261 1136 104.377 1253.55 458.057
3096 0 90.4059 16.2268 1467 98.2072 1252.8 461.384
3097 0 88.3249 12.1823 1076 105.859 1253.82 455.766
3098 0 92.186 13.1148 1209 104.309 1253.57 454.158
3099 0 96.2372 12.7394 1226 105.363 1253.06 450.395
3100 0 100.348 12.8851 1293 103.757 1254.58 453.352
3101 0 101.175 13.5606 1372 105.711 1254.46 444.639
3102 0 105.238 19.2992 2031 97.4697 1254.86 445.338
3103 1 186.041 15.2762 2842 106.588 1255.53 410.404
3104 1 199.132 13.8551 2759 108.055 1256.67 399.306
3105 0 209.945 13.1606 2763 107.979 1257.35 391.468
3106 0 215.819 14.8597 3207 103.202 1258.29 396.072
3107 1 63.2582 12.2039 772 99.2552 1256.55 461.999
3108 0 68.2689 10.7223 732 101.354 1258.21 461.921
3109 0 68.3207 13.0561 892 99.407 1255.44 459.275
3110 0 70.1606 14.5381 1020 101.484 1258.24 463.61
3111 0 71.1697 13.0674 930 105.795 1258.74 459.17
3112 0 76.4317 16.4591 1258 99.5747 1260.23 457.725
3113 0 78.3666 12.7478 999 104.852 1260.62 454.002
3114 0 79.3251 12.4929 991 104.829 1260.71 456.521
3115 0 85.6135 20.102 1721 93.0192 1259.54 461.708
3116 0 84.3991 11.6707 985 104.028 1261.54 461.44
3117 0 90.2234 15.7055 1417 99.6267 1260.38 454.931
3118 0 92.3077 14.5925 1347 100.631 1261.99 458.413
3119 0 92.192 12.5933 1161 104.571 1262.62 457.305
3120 0 99.5545 18.4422 1836 95.786 1261.45 457.812
3121 0 100.374 16.0898 1615 100.088 1262.41 452.527
3122 0 103.582 16.9913 1760 98.2784 1262.72 453.684
3123 0 109.493 13.7452 1505 100.938 1262.66 454.657
3124 1 57.0924 12.2959 702 101.474 1263 476.823
3125 0 59.2028 14.5095 859 99.4738 1263.04 477.898
3126 0 60.2239 11.0255 664 103.752 1262 473.827
3127 0 61.1958 13.2689 812 100.243 1262.73 475.212
3128 0 63.1238 12.0081 758 101.72 1261.34 477.305
3129 0 66.2432 10.8238 717 104.53 1259.38 474.515
3130 0 68.066 13.4135 913 100.999 1258.83 471.23
3131 0 71.1255 15.6625 1114 96.8411 1258.74 474.41
3132 0 75.3071 14.806 1115 99.0323 1256.87 467.109
3133 0 76.3144 12.8285 979 101.314 1257.14 469.746
3134 0 79.3253 14.2577 1131 99.7922 1255.89 469.012
3135 0 82.196 13.7476 1130 99.646 1256.86 464.77
3136 0 88.4664 21.1945 1875 90.3568 1256.43 466.491
3137 0 85.7056 17.8285 1528 96.178 1255.09 460.149
3138 0 90.3797 14.1514 1279 100.059 1254.97 460.384
3139 0 96.429 21.1969 2044 91.6111 1255.02 459.303
3140 0 97.6426 20.7287 2024 91.4313 1254.46 462.8
3141 1 49.5038 11.7365 581 101.719 1255.41 475.635
3142 0 53.3019 11.8007 629 98.6868 1256.76 477.041
3143 0 51.2089 14.2749 731 96.8577 1255.94 475.885
3144 0 57.412 15.1711 871 93.5339 1257.67 471.388
3145 0 58.4067 14.9298 872 94.8532 1257.55 463.944
3146 0 58.4067 14.9298 872 126.72 1258.54 463.806
3147 0 58.1162 13.0428 758 97.277 1259.51 466.785
3148 0 61.4226 14.2293 874 94.8432 1258.95 462.224
3149 0 60.2612 11.3672 685 98.835 1259.21 460.886
3150 0 65.4146 14.3546 939 93.5942 1260.49 463.653
3151 0 64.1853 11.7317 753 97.7928 1258.77 456.788
3152 0 68.171 11.9112 812 97.7586 1260.91 462.429
3153 0 69.3337 15.3461 1064 94.6212 1261.44 457.771
3154 0 73.287 16.7424 1227 92.2844 1260.84 462.121
3155 0 74.3528 17.5649 1306 93.1608 1261.41 457.686
3156 0 76.307 13.7864 1052 97.1996 1260.84 457.49
3157 0 76.2017 23.674 1804 88.1585 1260.95 457.083
3158 0 81.289 15.8693 1290 93.3333 1262.95 464.666
3159 0 80.3412 11.2271 902 102.584 1261.61 457.866
3160 0 83.2681 14.9157 1242 98.2158 1262.09 454.928
3161 0 85.4301 17.6987 1512 95.1958 1261.59 454.685
3162 0 91.2848 17.9 1634 94.3133 1262.19 448.414
3163 0 90.3443 14.8322 1340 99.1754 1263.08 453.007
3164 0 97.3248 16.4501 1601 96.4741 1262.41 454.357
3165 0 96.4123 18.3483 1769 95.4161 1261.67 454.218
3166 0 99.2908 14.4726 1437 100.243 1261.3 449.012
3167 1 53.0782 15.0344 798 99.4123 1262.7 473.16
3168 0 53.2384 11.4391 609 103.755 1262.52 476.388
3169 0 54.1004 12.181 659 103.094 1261.96 471.778
3170 0 60.9397 15.6876 956 97.5607 1259.55 472.76
3171 0 58.3451 14.1743 827 98.1632 1258.81 473.649
3172 0 63.4 16.6561 1056 95.9934 1258.25 474.161
3173 0 63.3746 12.3709 784 103.239 1258.11 471.097
3174 1 126.512 14.0224 1774 101.304 1257.4 445.395
3175 1 72.5317 27.2984 1980 86.5439 1256.56 469.743
3176 0 70.3744 17.0374 1199 97.834 1255.54 465.459
3177 0 71.393 15.2396 1088 99.9072 1256.21 464.599
3178 0 73.386 14.7576 1083 99.844 1255.64 459.967
3179 0 73.386 14.744 1082 150.409 1254.63 459.955
3180 0 81.72 14.2071 1161 100.201 1256.05 461.083
3181 0 83.4881 13.4271 1121 102.396 1255.2 455.082
3182 0 89.8526 13.2439 1190 101.322 1255.5 455.94
3183 0 90.4204 15.262 1380 99.7442 1254.26 455.098
3184 0 91.5163 15.6256 1430 101.237 1254.43 445.764
3185 0 97.7294 13.609 1330 102.559 1255.02 449.215
3186 1 50.3524 12.4721 628 95.7898 1255.39 471.578
3187 0 51.2673 10.8646 557 99.0557 1255.64 468.363
3188 0 52.4863 12.6319 663 96.4374 1254.97 466.959
3189 0 53.4798 12.0419 644 97.5404 1256.23 467.32
3190 0 55.268 15.452 854 93.9016 1256.79 467.11
3191 0 57.271 12.6591 725 97.3241 1256.2 466.117
3192 0 63.5009 17.2911 1098 90.9827 1256.94 466.741
3193 0 59.3053 13.1691 781 97.7823 1256.58 463.536
3194 0 62.3846 12.5351 782 99.509 1257.78 457.905
3195 0 64.2843 10.8736 699 101.037 1257.1 461.694
3196 0 67.4813 12.0774 815 100.135 1259.56 460.907
3197 0 66.3572 11.1066 737 102.297 1259.39 459.015
3198 0 67.2867 14.0592 946 97.7738 1260.22 461.785
3199 0 74.2883 10.015 744 103.122 1260.58 456.429
3200 0 76.3394 10.8332 827 101.568 1262.09 458.104
3201 0 77.3123 10.9168 844 102.866 1261.22 456.871
3202 0 81.3216 11.3623 924 102.331 1260.99 454.197
3203 0 81.2472 10.9419 889 102.278 1261.54 460.988
3204 0 88.3262 13.0765 1155 100.047 1262.95 460.01
3205 1 47.1096 14.8377 699 92.8999 1261.94 479.233
3206 0 48.0984 8.69051 418 99.7081 1264.31 481.756
3207 0 50.4614 10.7607 543 101.26 1259.32 482.414
3208 0 53.1503 16.2746 865 94.5098 1260.1 474.998
3209 0 54.2222 13.334 723 97.8036 1257.33 477.602
3210 0 54.0486 17.7248 958 91.2213 1257.8 485.143
3211 0 56.1988 13.8793 780 96.4436 1257.63 480.465
3212 0 59.198 12.872 762 96.9869 1257.76 481.685
3213 0 60.2422 11.57 697 97.6112 1257.46 482.148
3214 0 61.2073 11.5999 710 98.9268 1258.12 478.47
3215 0 61.2163 8.80484 539 101.959 1256.59 479.714
3216 0 65.1703 14.5005 945 93.4667 1256.45 474.99
3217 0 66.4508 9.82681 653 100.832 1255.51 475.694
3218 0 66.4508 9.78167 650 133.454 1254.49 475.675
3219 0 74.3229 11.2617 837 99.055 1254.18 468.927
3220 0 75.3529 13.4434 1013 96.9566 1254.8 467.146
3221 0 79.3204 17.1583 1361 92.0911 1254.66 467.741
3222 0 80.5275 16.5658 1334 92.5944 1254.93 469.083
3223 0 80.4124 12.4856 1004 99.2341 1254.48 462.22
3224 0 82.7106 12.8762 1065 99.5624 1253.27 458.961
3225 0 85.2475 14.8509 1266 96.7441 1255.32 464.075
3226 0 87.4442 15.0038 1312 96.7812 1254.93 463.005
3227 1 44.5489 12.5031 557 100.075 1254.93 478.731
3228 0 51.2294 15.0695 772 94.5738 1255.64 474.955
3229 0 50.5515 14.4605 731 96.9781 1256.02 471.941
3230 0 50.9126 12.1974 621 99.2077 1255.34 471.48
3231 0 51.6767 12.3266 637 96.8116 1257.66 468.499
3232 0 55.1974 16.3051 900 93.0889 1256.57 474.033
3233 0 54.336 10.3799 564 102.23 1257.51 470.904
3234 0 58.3059 14.321 835 95.9509 1257.83 471.03
3235 0 59.2146 16.1616 957 94.2821 1257.11 469.226
3236 0 59.2342 14.468 857 96.2684 1259.49 467.07
3237 0 60.4174 9.8978 598 100.115 1259.52 469.477
3238 0 61.1309 14.1009 862 96.7332 1258.29 462.791
3239 0 65.4331 17.3918 1138 92.0123 1260.03 466.274
3240 0 68.5132 19.4269 1331 90.0263 1259.89 459.252
3241 0 67.3816 13.1045 883 97.4802 1261.36 458.904
3242 0 68.3968 13.948 954 96.3417 1261.12 460.743
3243 0 71.4706 17.9235 1281 92.7151 1261.18 459.792
3244 0 77.5469 16.6738 1293 93.4377 1262.03 459.813
3245 0 77.5469 16.5577 1284 120.6 1263.04 459.763
3246 0 78.3732 13.6654 1071 96.592 1262.07 457.228
3247 0 79.5444 10.535 838 98.9403 1260.51 460.212
3248 0 89.3415 14.4726 1293 95.0851 1261.16 454.848
3249 0 88.6713 16.9841 1506 91.7025 1261.94 454.292
3250 0 90.5463 17.6926 1602 90.0462 1261.69 460.319
3251 0 94.1999 13.7155 1292 95.226 1262.87 449.69
3252 1 47.0619 13.2166 622 92.3199 1262.33 473.582
3253 0 50.2058 15.297 768 88.345 1262.9 479.611
3254 0 56.1904 13.9348 783 88.553 1263.35 479.983
3255 0 54.1542 15.8252 857 88.2906 1262.12 474.561
3256 0 56.3834 11.812 666 91.6472 1262.01 476.135
3257 0 57.0497 19.4392 1109 85.697 1261.68 472.416
3258 0 60.4159 18.472 1116 86.44 1261.61 473.183
3259 0 60.1633 10.056 605 93.7521 1261.93 471.119
3260 0 64.1509 13.7332 881 87.731 1260.09 479.863
3261 0 64.1444 14.9039 956 89.8588 1259.35 468.083
3262 0 69.3248 13.1555 912 90.6283 1259.08 472.404
3263 0 68.1719 11.3243 772 93.2876 1258.67 468.176
3264 0 72.3942 11.2854 817 94.0502 1257.63 460.574
3265 0 76.376 15.6856 1198 88.3464 1256.86 468.651
3266 0 78.3384 15.5607 1219 89.7982 1255.76 464.546
3267 0 81.4794 15.8568 1292 90.0588 1257.05 458.392
3268 0 80.6469 13.9001 1121 92.1686 1255.96 456.888
3269 0 83.2001 16.5745 1379 90.7991 1256.36 454.991
3270 0 91.2701 22.7018 2072 85.2022 1255.45 447.328
3271 0 93.4605 13.0857 1223 93.2911 1257.34 450.222
3272 0 94.3778 16.7306 1579 89.9341 1257.72 439.905
3273 0 100.308 14.1365 1418 92.1996 1257.06 441.745
3274 0 96.2173 13.1785 1268 96.858 1255.73 439.172
3275 1 57.2881 13.7027 785 91.9974 1258.25 465.499
3276 0 56.254 14.7189 828 92.6486 1258.61 463.836
3277 0 58.3793 13.3952 782 93.4898 1258.9 463.061
3278 0 61.3145 12.5582 770 93.7091 1260.62 464.081
3279 0 62.4522 17.021 1063 90.6105 1259.88 462.01
3280 0 63.1403 15.2201 961 93.3101 1261.96 459.091
3281 0 66.3377 14.9689 993 92.5972 1262.24 462.713
3282 0 66.3225 12.6805 841 97.1403 1261.53 456.277
3283 0 69.3864 15.2047 1055 94.0739 1262.94 455.228
3284 0 69.3792 11.7615 816 98.8248 1264.27 455.216
3285 0 72.4837 10.761 780 99.9103 1264.33 455.747
3286 0 78.2903 13.4755 1055 96.528 1263.9 455.084
3287 0 77.2688 11.6735 902 98.8736 1263.2 453.953
3288 0 79.2968 10.2274 811 100.91 1264.08 452
3289 0 86.2909 16.398 1415 94.2311 1263.94 453.645
3290 0 87.4264 14.7324 1288 96.9736 1265.37 452.342
3291 0 90.384 12.8452 1161 99.1318 1263.75 451.599
3292 0 91.1388 15.427 1406 96.2461 1264.58 446.841
3293 0 94.3019 13.4886 1272 98.0708 1265.39 448.529
3294 0 100.23 14.2173 1425 96.1663 1264.34 451.98
3295 0 102.231 12.0121 1228 98.5204 1264.33 447.987
3296 1 55.1258 12.8252 707 97.0792 1264.54 471.158
3297 0 57.2267 12.0049 687 95.3057 1263.62 468.758
3298 0 57.3323 13.884 796 92.2261 1262.25 474.302
3299 0 59.2693 16.3154 967 90.363 1263.52 471.542
3300 0 64.2048 13.8619 890 92.5674 1262.61 476.217
3301 0 64.2048 13.8619 890 111.385 1261.63 476.302
3302 0 64.1526 13.7017 879 95.0046 1261.18 468.354
3303 0 70.5866 13.6003 960 95.2719 1261 463.208
3304 0 68.1836 14.373 980 96.0653 1259.43 463.1
3305 0 71.2801 12.009 856 98.0713 1260.52 463.551
3306 0 77.5607 14.3114 1110 95.1027 1260.28 454.612
3307 0 78.238 16.8205 1316 93.2257 1260.04 461.85
3308 0 78.4253 14.2684 1119 96.0626 1259.46 460.007
3309 0 82.2337 14.6047 1201 97.2498 1259.5 453.931
3310 0 89.6237 20.5303 1840 87.8212 1258.87 458.816
3311 0 90.3088 13.1106 1184 96.7576 1260.29 453.77
3312 0 93.3832 18.7721 1753 90.7433 1259.55 453.825
3313 0 92.5953 17.0203 1576 93.5032 1259.78 446.112
3314 1 49.1489 13.7745 677 94.8848 1259.22 466.92
3315 0 50.1324 14.4019 722 88.9349 1258.65 466.702
3316 0 55.1458 12.331 680 96.5132 1259.03 464.628
3317 0 54.1512 13.8132 748 94.9452 1260.03 465.076
3318 0 58.119 17.1373 996 90.6697 1260.94 463.493
3319 0 59.1951 14.9168 883 93.0147 1260.65 465.61
3320 0 61.0816 20.4317 1248 88.3558 1261.01 464.009
3321 0 63.1893 17.3289 1095 91.7918 1262.05 461.665
3322 0 61.5356 16.1045 991 94.7639 1262.64 458.129
3323 0 65.2349 15.0533 982 95.279 1262.91 461.212
3324 0 67.1952 15.5071 1042 96.0144 1263.49 458.63
3325 0 71.2957 20.8568 1487 90.1392 1263.46 457.771
3326 0 70.2202 24.6795 1733 87.6619 1263.92 458.647
3327 0 70.1864 13.0367 915 100.66 1265.19 455.978
3328 0 75.2771 15.2238 1146 97.445 1264.9 456.145
3329 0 74.3025 16.5001 1226 96.4152 1263.95 457.852
3330 0 80.2851 14.3115 1149 99.3272 1264.89 449.953
3331 0 80.56 13.8158 1113 100.418 1264.69 452.499
3332 0 86.4449 18.2428 1577 95.1382 1265.14 453.048
3333 0 86.4422 14.9233 1290 100.253 1263.56 446.415
3334 0 89.5898 14.2092 1273 100.872 1265.55 448.016
3335 0 95.3568 14.2622 1360 100.484 1264.78 450.81
3336 0 97.3115 13.986 1361 99.6495 1264.96 452.552
3337 1 54.3095 13.7545 747 95.8554 1264.37 473.082
3338 0 54.1638 16.9671 919 93.2666 1263.72 471.263
3339 0 55.138 13.2032 728 94.3997 1262.8 470.334
3340 0 60.0769 15.5967 937 93.6179 1263.52 476.938
3341 0 60.1391 12.4711 750 98.4333 1261.34 472.895
3342 0 63.0964 17.1008 1079 93.088 1261.73 471.122
3343 0 62.1784 13.6382 848 99.0672 1260.76 467.362
3344 0 70.2466 19.0472 1338 91.5845 1260.75 468.244
3345 0 69.2527 12.6349 875 100.229 1260.64 469.563
3346 0 70.2351 14.3945 1011 98.7003 1259.16 463.968
3347 0 70.2246 11.9331 838 101.897 1259.6 463.168
3348 0 75.3785 14.7787 1114 97.8905 1259.58 468.909
3349 0 77.1764 14.2919 1103 99.6818 1259.67 462.608
3350 0 78.258 13.3788 1047 102.235 1259.35 458.253
3351 0 82.609 17.4315 1440 97.4771 1258.64 456.523
3352 0 86.3153 18.0733 1560 97.3724 1258.54 452.469
3353 0 86.2961 15.2962 1320 101.061 1259.28 453.296
3354 1 46.1835 14.7888 683 98.8697 1257.86 474.574
3355 0 49.0634 13.9819 686 99.0568 1257.43 472.64
3356 0 47.0462 11.7119 551 105.083 1257.56 466.39
3357 0 52.1217 14.3702 749 100.609 1257.27 468.344
3358 0 50.1292 14.1235 708 101.363 1257.93 470.023
3359 0 54.1235 12.1204 656 104.662 1257.68 464.422
3360 0 54.1235 12.2128 661 148.012 1257.65 464.357
3361 0 60.3167 15.6176 942 97.7718 1258.38 464.641
3362 0 57.2842 13.5465 776 104.354 1258.89 458.216
3363 0 61.5812 14.1602 872 101.99 1260.59 458.047
3364 0 61.4471 12.9868 798 104.252 1261.27 456.737
3365 0 63.3431 15.1714 961 101.491 1261.57 457.66
3366 0 65.2317 12.6932 828 106.132 1261.25 454.993
3367 0 67.4008 12.9672 874 104.7 1262.4 458.527
3368 0 70.32 13.7514 967 103.481 1261.71 454.831
3369 0 71.6735 15.5567 1115 100.496 1262.72 458.885
3370 0 76.4192 21.5129 1644 93.8729 1263.89 457.007
3371 0 76.5652 13.766 1054 104.026 1264.79 455.882
3372 0 80.3268 15.0137 1206 102.122 1265.07 453.114
3373 0 83.4088 16.3172 1361 100.281 1264.73 455.685
3374 0 84.4599 15.5814 1316 102.489 1264.64 453.04
3375 1 46.0514 13.3112 613 100.269 1264.19 473.641
3376 0 47.0836 14.4211 679 99.9175 1263.23 470.954
3377 0 50.1373 12.6253 633 100.742 1263.54 473.662
3378 0 51.3273 12.9366 664 100.398 1263.97 474.039
3379 0 51.0908 10.7847 551 104.882 1262.95 470.267
3380 0 53.1393 12.646 672 101.573 1263.27 471.304
3381 0 52.1406 12.9458 675 102.261 1262.56 470.81
3382 0 55.0553 11.3885 627 103.82 1261.83 472.845
3383 0 60.0556 16.8011 1009 97.5401 1262.58 468.253
3384 0 61.128 15.7211 961 98.6264 1260.75 466.9
3385 0 62.1464 13.9992 870 101.634 1260.13 467.23
3386 0 64.0699 15.3426 983 99.8494 1260.93 468.588
3387 0 64.1502 14.2166 912 102.783 1259.78 466.104
3388 0 65.1017 13.3483 869 104.1 1259.59 465.524
3389 0 69.2013 13.4102 928 104.323 1259.19 466.15
3390 0 71.1195 15.7341 1119 101.098 1259.13 462.28
3391 0 71.1195 15.6778 1115 131.786 1258.14 462.297
3392 0 76.1443 17.7689 1353 99.0835 1258.56 461.171
3393 0 77.1378 19.1476 1477 97.8483 1259.43 460.653
3394 0 80.1497 13.1629 1055 104.538 1258.74 459.282
3395 1 40.1083 13.3638 536 101.616 1257.35 476.08
3396 0 41.1064 12.0419 495 104.042 1258.38 475.792
3397 0 42.0186 11.8519 498 104.793 1257.35 471.882
3398 0 45.5758 16.1709 737 98.8263 1258.26 468.803
3399 0 44.5868 12.7392 568 104.903 1258.44 466.905
3400 0 46.3541 14.6697 680 102.051 1260.43 470.874
3401 0 50.1067 16.0458 804 98.2512 1261.5 469.96
3402 0 50.1539 13.8574 695 101.866 1260.95 467.568
3403 0 50.0198 12.3551 618 105.684 1262.22 466.919
3404 0 50.0831 13.5175 677 105.477 1262.23 464.612
3405 0 52.0541 13.7357 715 105.2 1262.85 462.158
3406 0 54.0725 14.2771 772 105.124 1262.04 459.689
3407 0 56.2171 19.1757 1078 99.1976 1263.6 458.011
3408 0 57.1763 13.0299 745 107.003 1264.49 458.357
3409 0 62.1979 15.1131 940 102.08 1265.02 460.085
3410 0 62.1328 17.189 1068 101.192 1265.22 457.989
3411 0 64.1478 16.7738 1076 100.675 1265.24 457.723
3412 0 63.0713 17.1552 1082 102.13 1265.15 453.413
3413 0 64.115 13.7877 884 106.383 1265.68 455.529
3414 0 71.1499 18.7632 1335 95.764 1266.5 454.285
3415 0 69.2887 15.5581 1078 100.258 1266.66 460.156
3416 0 76.2006 17.1783 1309 97.7624 1267.53 455.631
3417 0 77.3012 18.1369 1402 96.6698 1267.21 456.483
3418 0 80.2839 13.8384 1111 101.682 1268.49 457.571
3419 0 82.1116 24.6372 2023 90.874 1268.03 456.86
3420 0 82.2138 14.438 1187 101.692 1268.55 456.381
3421 1 44.2431 15.7765 698 102.268 1267.76 470.133
3422 0 45.4438 14.3034 650 103.688 1265.75 472.18
3423 0 49.2779 14.1848 699 102.777 1266.63 473.245
3424 0 50.6492 12.2411 620 103.879 1265.47 475.79
3425 0 53.5029 16.6346 890 98.3551 1265.17 473.783
3426 0 53.37 13.397 715 102.192 1264.95 473.327
3427 0 54.3875 16.4192 893 99.0907 1264.57 473.408
3428 0 56.2034 17.9171 1007 97.3168 1264.08 474.245
3429 0 57.0893 14.7313 841 100.568 1264.87 471.359
3430 0 61.5258 17.8949 1101 96.3115 1263.82 470.571
3431 0 60.3385 15.6119 942 99.8217 1262.82 470.069
3432 0 64.2401 15.193 976 100.923 1262.71 468.335
3433 0 64.1564 15.2908 981 99.7971 1261.4 472.727
3434 0 68.2807 14.7772 1009 100.637 1261.53 469.394
3435 0 68.1721 19.2894 1315 96.0593 1262.7 465.204
3436 0 69.287 15.5729 1079 101.648 1261.66 462.721
3437 0 74.2097 13.9335 1034 104.84 1261.08 461.765
3438 0 73.4378 18.8459 1384 99.6272 1260.28 459.065
3439 0 73.4378 19.0229 1397 127.89 1259.27 459.135
3440 0 79.3025 14.0096 1111 103.88 1260.49 459.058
3441 0 80.1807 15.5898 1250 103.07 1260.3 455.27
3442 0 79.3122 14.7897 1173 102.745 1259.62 459.315
3443 0 88.3608 17.1569 1516 100.755 1261.11 445.571
3444 0 91.5198 15.2208 1393 102.854 1260.36 446.207
3445 1 45.1441 9.5915 433 106.051 1257.25 468.45
3446 0 48.1452 12.6077 607 102.867 1258.27 466.746
3447 0 47.1988 20.2124 954 94.0273 1260.2 466.985
3448 0 51.1476 15.1522 775 99.3355 1259.79 466.33
3449 0 51.0705 18.0535 922 96.4002 1260.69 463.549
3450 0 52.15 15.8964 829 98.8251 1261.68 461.878
3451 0 54.2025 22.5266 1221 92.5274 1261.96 459.542
3452 0 56.0963 17.3987 976 96.543 1261.69 462.549
3453 0 58.1104 16.4515 956 96.6067 1263.31 460.402
3454 0 60.2595 17.4578 1052 96.4144 1262.8 455.741
3455 0 62.2348 16.4217 1022 98.135 1264.69 460.334
3456 0 65.3341 18.1375 1185 93.7325 1263.84 462.883
3457 0 69.076 11.9289 824 101.535 1263.95 461.197
3458 0 68.2444 13.774 940 99.9223 1264.59 453.526
3459 0 72.4111 18.6573 1351 94.0481 1265.27 452.361
3460 0 71.2868 16.0759 1146 97.0654 1264.7 456.544
3461 0 76.2631 18.3837 1402 95.1405 1265.77 451.786
3462 0 77.3311 13.7332 1062 100.961 1265.06 454.024
3463 0 81.6636 17.168 1402 95.6355 1264.04 456.374
3464 0 80.3287 14.5527 1169 99.9145 1264.49 453.591
3465 0 84.2624 18.5492 1563 95.5227 1264.54 454.331
3466 0 87.3585 17.4339 1523 97.1911 1264.32 449.665
3467 0 89.3281 16.5793 1481 98.5125 1263.58 450.009
3468 0 92.4535 14.3423 1326 101.264 1264.43 450.007
3469 0 97.3257 18.8953 1839 99.2583 1263.09 448.059
3470 1 49.3675 14.1389 698 102.489 1264.18 473.427
3471 0 50.2657 13.926 700 99.2657 1263.92 476.744
3472 0 53.1661 14.8967 792 100.723 1263.1 472.178
3473 0 55.2542 15.4016 851 99.6228 1263.13 473.4
3474 0 58.1595 15.0792 877 101.387 1263.01 468.014
3475 0 58.2377 14.0974 821 101.963 1261.85 468.906
3476 0 60.3632 13.0874 790 103.394 1260.53 466.629
3477 0 64.2165 16.2108 1041 99.7964 1260.11 464.241
3478 0 64.2165 16.1796 1039 132.453 1260.12 464.299
3479 0 69.714 20.0103 1395 96.0853 1259.23 461.161
3480 0 71.1778 16.3253 1162 100.935 1259.71 459.713
3481 0 72.3811 15.0592 1090 101.972 1258.54 461.776
3482 0 76.5283 17.5752 1345 98.6952 1258.71 459.804
3483 0 74.3058 13.7271 1020 104.615 1258.8 457.41
3484 0 81.222 15.3407 1246 100.762 1258.69 457.282
3485 1 36.1414 8.9648 324 113.071 1257.97 472.117
3486 0 41.1717 14.5002 597 105.134 1258.61 471.328
3487 0 43.3166 18.3994 797 100.232 1258.4 468.301
3488 0 44.3505 12.8522 570 107.579 1259.2 466.746
3489 0 44.2949 14.6744 650 105.925 1259.52 464.557
3490 0 49.7189 20.7768 1033 97.2982 1258.35 462.882
3491 0 49.2326 18.5446 913 102.217 1259.19 463.117
3492 0 51.655 14.3645 742 107.792 1260.07 458.757
3493 0 53.498 21.141 1131 99.4226 1259.24 458.816
3494 0 54.5937 18.8666 1030 100.599 1260.18 462.603
3495 0 58.5661 14.1208 827 107.946 1259.46 457.416
3496 0 58.5135 16.3381 956 106.462 1260.14 455.916
3497 0 63.5484 15.1695 964 106.537 1260.3 453.338
3498 0 65.0276 19.5917 1274 100.685 1261.3 456.593
3499 0 68.8356 21.2826 1465 98.2764 1262.04 455.643
3500 0 72.1941 17.356 1253 104.061 1263.01 452.927
3501 0 70.4854 17.195 1212 105.682 1263.37 452.594
3502 0 73.3676 20.3768 1495 101.807 1264.31 454.193
3503 0 77.2104 22.4452 1733 99.794 1264.24 453.199
3504 0 79.7562 19.873 1585 103.667 1264.16 448.68
3505 0 83.4847 19.1652 1600 105.114 1264.2 447.504
3506 0 86.5723 16.4833 1427 109.397 1264.02 450.904
3507 0 88.0178 22.0524 1941 103.481 1264.22 447.424
3508 0 86.4988 13.4221 1161 118.009 1264.25 449.556
3509 0 95.6804 15.2382 1458 114.469 1263.28 451.462
3510 0 97.6054 17.9601 1753 112.289 1263.42 446.769
3511 0 102.63 15.2489 1565 117.373 1262.66 446.047
3512 0 103.587 16.0445 1662 117.362 1262.82 443.554
3513 0 110.674 19.1193 2116 111.757 1262.81 441.803
3514 1 52.323 13.0344 682 122.349 1261.54 468.267
3515 0 55.2546 14.7137 813 118.646 1260.61 471.841
3516 0 55.3906 16.1038 892 117.863 1260.54 467.311
3517 0 61.276 15.471 948 116.208 1260.28 471.887
3518 0 61.3113 16.2123 994 116.42 1258.91 465.939
3519 0 64.5297 16.566 1069 115.97 1258.89 463.871
3520 0 64.6048 14.8286 958 119.16 1258.28 465.121
3521 0 65.429 14.8252 970 119.921 1258.06 464.521
3522 0 69.2497 14.8882 1031 121.232 1258.57 459.695
3523 0 70.2172 14.3127 1005 123.044 1257.11 459.331
3524 0 73.129 19.5545 1430 114.473 1258.16 459.973
3525 0 76.2307 16.3976 1250 118.851 1258.41 460.295
3526 0 74.3104 15.2738 1135 122.967 1256.66 451.891
3527 0 81.6553 16.1043 1315 119.673 1257.71 455.63
3528 0 83.3019 22.5805 1881 108.258 1258.06 457.507
3529 0 84.3815 16.6506 1405 119.68 1258.48 450.237
3530 0 85.4506 14.2538 1218 123.691 1258.79 448.166
3531 0 90.2006 16.5298 1491 118.776 1259.11 449.125
3532 0 91.3582 17.9623 1641 118.278 1259.02 446.313
3533 0 96.2717 17.4298 1678 118.315 1257.99 446.454
3534 0 96.3655 16.4478 1585 121.051 1259.16 443.673
3535 0 102.392 15.4699 1584 122.11 1258.79 439.459
3536 0 106.487 16.2085 1726 120.834 1258.92 439.751
3537 0 107.381 14.2484 1530 124.892 1258.24 434.859
3538 0 111.384 16.4924 1837 120.467 1259.65 434.715
3539 0 112.29 19.2181 2158 116.56 1260.94 434.021
3540 0 112.29 19.3428 2172 143.425 1261.95 434.028
3541 1 123.728 15.8654 1963 121.433 1259.87 427.356
3542 0 124.307 16.3547 2033 122.793 1261.21 419.499
3543 0 130.34 15.5517 2027 122.79 1262.34 422.879
3544 0 134.444 16.334 2196 120.76 1262.51 418.644
3545 0 143.768 15.5946 2242 121.019 1262.24 420.251
3546 0 147.722 17.2012 2541 118.961 1262.53 418.76
3547 0 153.348 16.1397 2475 121.105 1262.63 412.939
3548 0 159.419 16.6605 2656 120.121 1263.2 416.06
3549 0 165.572 16.6815 2762 121.174 1263.21 408.302
3550 1 92.5101 12.7986 1184 118.446 1262.85 446.814
3551 0 95.4015 11.2367 1072 121.809 1261.89 443.132
3552 0 99.4491 15.0228 1494 115.319 1261.12 444.213
3553 0 103.377 13.8909 1436 116.27 1261.73 445.365
3554 0 106.305 13.7152 1458 116.38 1261.52 446.66
3555 0 112.307 11.8425 1330 120.455 1262.43 438.881
3556 0 118.413 14.6352 1733 115.787 1261.12 438.057
3557 0 116.193 10.4481 1214 121.365 1261.95 438.75
3558 0 118.548 7.17007 850 128.668 1261.34 416.941
3559 0 132.629 12.5915 1670 117.268 1260.56 431.175
3560 0 137.567 16.7409 2303 111.664 1259.92 430.101
3561 0 140.757 16.5889 2335 112.5 1259.1 424.011
3562 0 148.035 13.5035 1999 117.136 1257.65 420.912
3563 0 152.105 14.0889 2143 116.739 1256.57 420.521
3564 0 156.191 9.93657 1552 124.412 1256.01 410.718
3565 0 162.46 16.8596 2739 112.865 1256.82 418.231
3566 0 165.728 13.6549 2263 119.472 1256.37 405.465
3567 0 169.957 14.2389 2420 117.665 1256.8 413.524
3568 0 172.831 11.4274 1975 122.85 1256.95 404.407
3569 0 177.126 10.7042 1896 124.538 1256.97 394.286
3570 0 183.913 13.1149 2412 119.321 1256.44 399.025
3571 0 190.686 13.3046 2537 119.288 1255.72 391.534
3572 0 193.709 13.9798 2708 118.099 1255.2 380.067
3573 0 200.451 11.9431 2394 120.528 1255.63 382.234
3574 0 207.116 14.1515 2931 117.412 1256.26 376.613
3575 0 215.148 15.2453 3280 115.846 1256.38 372.724
3576 0 225.046 15.7212 3538 114.137 1256.92 364.549
3577 0 231.703 15.0537 3488 115.309 1256.28 366.194
3578 0 240.248 14.0563 3377 117.253 1257.28 365.093
3579 1 195.087 12.1023 2361 114.579 1257.13 394.989
3580 0 200.596 6.5455 1313 122.478 1257.94 397.216
3581 0 209.475 10.5311 2206 120.338 1258.45 377.281
3582 1 84.2928 13.0735 1102 102.652 1259.14 449.126
3583 0 84.2592 11.5002 969 108.572 1260.16 444.862
3584 0 84.2874 8.88626 749 107.143 1260.4 450.298
3585 1 232.587 13.625 3169 120.714 1258.84 367.524
3586 1 91.3524 11.9209 1089 103.927 1261.42 446.298
3587 0 92.1907 12.2789 1132 104.879 1261.3 445.013
3588 0 94.2657 11.2979 1065 106.738 1262.06 446.852
3589 0 97.4275 8.19071 798 111.12 1262.58 442.158
3590 0 100.226 9.38879 941 108.714 1261.88 440.748
3591 0 102.178 8.84727 904 107.481 1262.22 454.117
3592 0 108.21 8.80697 953 109.187 1261.98 444.462
3593 0 113.352 11.5481 1309 106.952 1262.75 430.188
3594 0 116.203 9.53507 1108 108.888 1263.02 443.73
3595 0 116.34 8.50954 990 109.742 1262.67 442.662
3596 0 122.513 8.83988 1083 107.881 1262.74 445.189
3597 0 123.313 13.3968 1652 102.151 1262.96 443.358
3598 0 124.301 10.2252 1271 106.416 1261.84 443.59
3599 0 123.398 10.8835 1343 107.89 1260.8 443.57
3600 1 79.2191 11.0579 876 105.35 1262.68 464.93
3601 0 77.2728 11.5823 895 102.439 1262.68 461.948
3602 0 81.616 10.819 883 101.17 1260.87 453.229
3603 0 80.3509 9.48341 762 105.218 1262.19 447.315
3604 0 81.1483 11.7193 951 102.314 1260.8 452.162
3605 0 88.3241 14.3336 1266 98.5987 1261.81 447.507
3606 0 90.2793 9.34876 844 105.084 1260.07 449.376
3607 0 92.4365 13.3172 1231 98.0959 1258.76 453.04
3608 0 91.5192 9.40787 861 104.099 1258.08 447.424
3609 0 97.3347 14.3936 1401 98.1542 1257.87 443.5
3610 0 99.376 15.8288 1573 96.9847 1257.68 446.868
3611 0 99.3904 12.2245 1215 103.243 1258.55 440.155
3612 0 105.405 13.2156 1393 100.275 1256.85 442.926
3613 0 111.482 10.7372 1197 104.262 1257.71 436.201
3614 0 110.602 8.44472 934 105.38 1256.88 440.728
3615 1 65.2302 8.38569 547 100.422 1254.55 465.448
3616 0 62.1965 11.7048 728 102.926 1256.99 459.117
3617 0 62.2069 13.1818 820 101.215 1258.24 461.177
3618 0 66.1427 18.0519 1194 94.4523 1258.24 459.598
3619 0 70.3122 12.9138 908 97.6024 1259.28 458.423
3620 0 66.1554 12.7578 844 99.9348 1258.81 455.707
3621 0 70.114 14.2768 1001 97.8082 1259.26 457.755
3622 0 70.2677 13.4343 944 97.5763 1259.23 454.854
3623 0 73.2387 14.3913 1054 97.1072 1259.71 452.716
3624 0 75.3464 14.7585 1112 98.1241 1260.04 451.21
3625 0 78.244 17.6883 1384 95.4559 1260.89 448.219
3626 0 76.1949 14.3185 1091 100.866 1260.35 448.247
3627 0 81.3489 17.2959 1407 97.3831 1261.61 447.584
3628 0 81.192 12.8091 1040 104.588 1263.29 448.648
3629 0 82.3842 14.4809 1193 102.616 1262.96 449.9
3630 0 90.0254 18.8613 1698 96.5153 1263.27 450.046
3631 0 84.3447 13.0536 1101 106.584 1262.72 444.067
3632 0 89.2798 14.1801 1266 105.396 1263.93 445.563
3633 0 91.4198 18.3658 1679 102.457 1262.22 441.777
3634 0 93.238 12.9561 1208 110.964 1263.24 441.618
3635 0 98.3895 12.42 1222 110.593 1264.89 442.329
3636 0 104.554 17.1395 1792 104.195 1264.88 440.296
3637 0 106.266 15.7153 1670 105.848 1264.74 443.016
3638 1 55.0723 12.3837 682 105.268 1266.12 470.672
3639 0 58.5794 17.0538 999 100.101 1262.56 465.112
3640 0 54.0995 12.0149 650 99.2646 1262.02 468.686
3641 0 57.0506 11.4109 651 101.008 1260.35 466.061
3642 0 60.2684 12.9753 782 98.4552 1260.93 467.953
3643 0 62.1782 11.5314 717 99.4268 1260.67 467.271
3644 0 67.2324 13.4905 907 97.301 1259.78 467.533
3645 0 66.1553 11.0649 732 101.008 1259.87 466.377
3646 0 68.0936 9.48694 646 103.789 1259.14 462.52
3647 1 218.045 11.9562 2607 109.275 1259.57 389.883
3648 0 226.942 18.8242 4272 100.994 1260.5 379.554
3649 1 156.488 12.9786 2031 104.576 1258.68 424.433
3650 1 76.1278 12.0981 921 100.939 1257.45 461.309
3651 0 79.1911 14.2819 1131 98.1609 1258.13 457.134
3652 0 80.2638 12.7829 1026 99.2641 1257.27 457.671
3653 0 83.3589 12.992 1083 99.0637 1256.41 458.229
3654 0 84.205 13.5859 1144 100.556 1254.77 448.924
3655 0 84.2237 14.1172 1189 101.389 1255.06 453.002
3656 0 89.1532 17.397 1551 98.94 1255.71 455.341
3657 0 88.1099 12.5185 1103 106.032 1255.74 449.217
3658 0 93.1831 14.0047 1305 103.046 1255.8 452.599
3659 0 97.4004 17.6283 1717 98.6302 1256.18 447.037
3660 0 100.291 14.2486 1429 102.5 1256.85 446.619
3661 0 101.293 14.6703 1486 102.442 1257.27 443.758
3662 1 52.194 9.90536 517 108.59 1256.54 465.472
3663 0 55.2469 14.8968 823 100.687 1257.1 462.101
3664 0 59.2203 16.5484 980 96.849 1257.52 465.949
3665 0 58.3224 13.151 767 102.271 1257.18 461.84
3666 0 60.0468 18.7521 1126 94.8464 1258.04 465.234
3667 0 64.3853 18.8397 1213 95.1682 1258.09 456.841
3668 0 67.5392 18.1228 1224 95.2606 1257.96 460.819
3669 0 67.2248 18.3414 1233 96.3925 1258.92 457.852
3670 0 71.513 15.6056 1116 99.2375 1258.76 456.339
3671 0 74.5209 20.4372 1523 93.608 1259.38 455.834
3672 0 74.4689 19.1892 1429 95.937 1260.96 452.374
3673 0 77.3597 14.3356 1109 101.919 1261.55 451.836
3674 0 79.1082 16.2815 1288 101.209 1262.56 449.994
3675 0 81.1244 13.9785 1134 104.259 1262.24 452.824
3676 0 86.4901 18.083 1564 97.5659 1262.68 451.212
3677 0 88.3429 19.1413 1691 94.6783 1263.58 448.627
3678 0 92.3078 15.3508 1417 98.8546 1263.65 453.495
3679 0 93.2765 14.7304 1374 99.9549 1262.96 452.675
3680 0 99.1606 14.6631 1454 98.923 1263.12 456.305
3681 0 101.381 15.1114 1532 100.704 1263.17 447.46
3682 1 54.2182 15.8434 859 95.44 1261.91 474.368
3683 0 54.1198 12.8049 693 100.974 1261.76 475.983
3684 0 56.3943 12.8382 724 101.793 1261.01 473.812
3685 0 56.3943 12.8914 727 134.267 1260.01 473.842
3686 0 61.2568 16.0635 984 97.9746 1261.42 472.921
3687 0 59.2286 10.3497 613 105.026 1261.01 476.705
3688 0 62.1813 13.6375 848 102.384 1260.39 469.534
3689 0 67.2959 15.1867 1022 98.2476 1260.26 472.388
3690 0 67.1913 14.3769 966 98.3561 1259.16 474.895
3691 0 74.4148 17.1337 1275 96.3969 1260.02 463.318
3692 0 78.3865 16.8907 1324 95.6057 1258.64 467.481
3693 0 79.1177 14.687 1162 99.9776 1257.42 461.203
3694 0 83.3433 19.3417 1612 92.4696 1256.95 466.391
3695 0 83.2863 15.2726 1272 99.6148 1256.67 459.258
3696 0 85.5536 18.4563 1579 95.6897 1256.55 459.45
3697 0 87.2704 13.5899 1186 102.695 1256.03 456.118
3698 1 48.1484 15.0576 725 98.0166 1254.53 477.117
3699 0 48.1857 13.2197 637 99.7111 1253.35 478.576
3700 0 50.1395 12.8043 642 100.889 1254.21 474.396
3701 0 51.0879 13.4866 689 100.051 1253.45 470.776
3702 0 52.0553 12.7557 664 100.89 1255.37 469.321
3703 0 53.029 13.4078 711 100.374 1254.56 472.065
3704 0 53.0784 13.6402 724 101.365 1255.5 467.365
3705 0 57.1673 14.3439 820 100.134 1256.81 470.741
3706 0 54.1896 12.0872 655 105.06 1256.27 465.544
3707 0 58.1542 11.0396 642 104.505 1255.23 466.333
3708 0 62.2659 16.1565 1006 97.9235 1256.09 466.127
3709 0 61.1972 13.5791 831 103.403 1257.12 460.917
3710 0 64.2125 12.7701 820 104.266 1257.5 460.232
3711 0 67.2577 12.9056 868 102.899 1258.1 461.297
3712 0 66.4091 13.6427 906 104.169 1256.7 458.317
3713 0 71.1733 13.8676 987 103.147 1257.57 455.248
3714 0 75.1525 13.0535 981 103.188 1260 454.68
3715 0 76.1943 12.9144 984 104.136 1259.91 454.609
3716 0 80.2428 13.8953 1115 101.661 1260.83 457.034
3717 0 82.2536 15.7683 1297 101.011 1260.39 453.547
3718 0 84.241 13.3427 1124 103.333 1260.74 452.817
3719 0 86.2278 12.7801 1102 104.858 1261.82 449.089
3720 0 88.2035 11.3488 1001 105.748 1261.41 445.841
3721 0 91.267 11.5047 1050 105.762 1262.43 448.227
3722 1 53.1742 13.1267 698 99.6691 1259.33 469.099
3723 0 50.095 12.8156 642 103.456 1261.01 470.724
3724 0 54.1197 20.7872 1125 92.5902 1261.28 472.524
3725 0 59.0963 12.6404 747 101.095 1259.74 471.372
3726 0 60.4776 17.0311 1030 95.8447 1259.52 469.507
3727 0 60.1154 14.1062 848 98.8266 1259.62 474.038
3728 0 62.3186 15.1961 947 99.453 1258.72 467.853
3729 0 63.2212 12.9387 818 102.55 1260.58 467.259
3730 0 66.2013 12.6282 836 102.171 1258.85 470.678
3731 0 68.4125 16.8536 1153 98.0321 1260.37 463.508
3732 0 72.2526 15.1552 1095 99.1982 1259.54 465.626
3734 0 74.3633 11.0673 823 104.181 1258.83 467.05
3735 0 81.462 16.0443 1307 95.8301 1257.79 470.272
3736 0 79.4967 13.6232 1083 101.115 1258.29 465.819
3737 0 85.4046 16.7555 1431 96.8204 1258.23 465.101
3738 0 85.4609 14.8723 1271 100.438 1257.89 462.63
3739 0 87.273 15.7322 1373 99.8405 1256 454.698
3740 1 46.1165 15.9162 734 94.8583 1254.61 480.068
3741 0 46.3502 11.4347 530 102.006 1255.19 475.551
3742 0 48.0912 12.9753 624 99.7404 1254.98 473.144
3743 0 52.1828 14.8708 776 95.6302 1254.45 471.615
3744 0 53.1504 15.823 841 94.9251 1255.15 470.071
3745 0 51.1543 19.5878 1002 92.3004 1254.37 469.897
3746 0 54.1952 13.968 757 97.9366 1255.42 469.407
3747 0 56.2607 15.6237 879 94.8999 1254.05 468.201
3748 0 55.1686 12.4709 688 101.179 1256.07 462.52
3749 0 60.2933 13.5504 817 97.4064 1254.72 464.711
3750 0 58.179 14.3007 832 97.1262 1256.71 465.059
3751 0 60.1975 12.7082 765 100.003 1256.68 459.426
3752 0 61.1877 12.8621 787 99.0534 1256.34 460.483
3753 0 64.3128 18.2545 1174 93.2428 1256.98 457.775
3754 0 69.2844 15.1982 1053 96.3352 1256.55 455.036
3755 0 69.1206 14.1781 980 98.6898 1257.21 454.526
3756 0 70.2966 12.1485 854 100.397 1258.67 454.705
3757 0 74.1951 18.2896 1357 93.7421 1258.91 451.744
3758 0 73.0959 11.0129 805 104.807 1259.39 451.007
3759 0 76.1027 11.4451 871 103.765 1260.05 452.014
3760 0 81.0953 13.219 1072 101.786 1260.14 448.388
3761 0 83.2056 12.3069 1024 101.438 1259.52 448.436
3762 1 46.033 14.8589 684 99.2895 1260.63 468.972
3763 0 46.2427 14.532 672 100.787 1260.41 466.118
3764 0 47.1886 12.5454 592 104.66 1260.31 465.079
3765 0 52.0609 16.1542 841 98.9132 1261.08 468.082
3766 0 53.0886 16.1428 857 97.077 1260.1 470.517
3767 0 55.2263 13.5081 746 102.391 1261.99 467.662
3768 0 55.2289 10.9001 602 106.422 1260.88 464.136
3769 0 62.1585 13.6908 851 101.381 1261.84 468.459
3770 0 62.2034 15.4654 962 101.38 1261 468.14
3771 0 62.2194 14.1435 880 102.932 1261.72 468.551
3772 0 65.0787 14.1214 919 102.301 1260.01 469.783
3773 0 69.124 17.5337 1212 98.5479 1261.06 467.944
3774 0 70.202 16.8086 1180 101.261 1259.53 464.343
3775 0 70.2595 12.0268 845 107.843 1259.51 467.136
3776 0 75.1695 16.5094 1241 102.52 1258.44 462.77
3777 0 77.3991 16.0984 1246 104.335 1257.49 463.059
3778 0 81.2092 16.1804 1314 103.916 1257.63 461.797
3779 0 81.2593 15.9736 1298 106.126 1256.17 456.368
3780 0 83.2537 15.723 1309 106.702 1256.78 460.761
3781 0 89.1926 17.6584 1575 103.982 1256.12 455.282
3782 0 92.2245 18.4116 1698 103.144 1255.77 454.136
3783 0 93.2951 17.6322 1645 104.571 1256.63 447.605
3784 1 52.1715 13.5515 707 106.388 1255.31 473.17
3785 0 51.2908 12.9458 664 107.333 1255.87 471.575
3786 0 54.1374 15.59 844 104.302 1257.22 466.544
3787 0 53.3436 11.3416 605 110.155 1254.68 469.236
3788 0 54.177 13.9727 757 107.251 1255.31 467.662
3789 0 58.323 27.2448 1589 90.0013 1256.48 468.522
3790 0 60.3153 11.788 711 109.679 1256.59 465.868
3791 0 60.3299 14.3876 868 106.574 1256.14 463.733
3792 0 62.3941 19.5531 1220 99.9631 1258.16 460.992
3793 0 66.2839 15.6901 1040 104.541 1256.61 459.708
3794 0 66.3836 15.6966 1042 102.726 1256.82 458.36
3795 0 67.141 13.6429 916 106.748 1257.94 456.618
3796 0 70.1406 14.5565 1021 106.414 1258.45 452.201
3797 0 73.0814 16.1464 1180 104.181 1259.63 452.282
3798 0 76.2479 15.5808 1188 104.016 1259.44 452.779
3799 0 78.1805 16.0142 1252 105.085 1259.17 447.362
3800 0 79.159 13.7192 1086 109.183 1260.76 446.837
3801 0 82.2127 17.844 1467 103.161 1259.94 445.91
3802 0 85.2663 15.6803 1337 104.719 1261.99 443.048
3803 0 88.483 15.0085 1328 106.48 1261.92 442.99
3804 0 91.4111 12.7337 1164 109.484 1262.2 446.206
3805 0 96.282 17.5422 1689 104.753 1263.32 442.526
3806 0 97.7393 12.7073 1242 113.271 1262.62 442.664
3807 1 55.2319 13.3075 735 107.147 1262.28 463.313
3808 0 57.3445 15.4505 886 103.121 1263.45 465.423
3809 0 58.0807 14.8931 865 104.66 1262.13 467.148
3810 0 59.1974 13.3452 790 107.504 1262.82 462.93
3811 0 64.1769 13.1667 845 106.725 1262.3 466.178
3812 0 68.1339 21.8687 1490 94.4711 1262.22 468.587
3813 0 69.1382 17.9206 1239 100.865 1262.6 464.341
3814 0 72.1288 17.746 1280 102.005 1261.18 461.555
3815 0 76.113 15.2536 1161 104.431 1260.67 464.398
3816 0 79.0736 16.5921 1312 102.914 1260 462.445
3817 0 79.0736 16.5289 1307 133.624 1260.04 462.33
3818 0 80.1491 10.6177 851 112.262 1260.88 460.957
3819 0 88.4574 16.4034 1451 103.731 1258.68 457.238
3820 0 90.4784 16.6227 1504 104.52 1256.77 458.018
3821 0 93.5584 16.7168 1564 104.963 1258.34 451.8
3822 0 98.5609 16.051 1582 105.759 1257.81 449.266
3823 0 97.3279 13.511 1315 110.019 1258.45 451.277
3824 1 52.1023 12.034 627 104.633 1259.29 477.297
3825 0 54.18 13.3444 723 107.057 1257.88 470.999
3826 0 53.1428 12.4194 660 108.22 1257.81 470.008
3827 0 53.1428 12.457 662 125.449 1257.77 469.896
3828 0 59.1986 13.8855 822 106.086 1256.89 464.225
3829 0 59.2651 13.448 797 107.463 1257.19 465.433
3830 0 63.1532 18.2097 1150 100.583 1258.03 466.175
3831 0 65.2083 16.1789 1055 103.53 1257.01 460.83
3832 0 67.1675 14.6946 987 106.256 1257.41 458.016
3833 0 67.1675 14.7095 988 128.443 1258.39 457.862
3834 0 71.3685 17.2625 1232 103.683 1257.85 454.38
3835 0 78.2497 8.77958 687 114.33 1257.55 456.282
3836 0 77.2352 12.8827 995 109.912 1258.57 453.117
3837 0 81.244 15.8781 1290 106.735 1259.38 449.071
3838 0 80.3309 12.5232 1006 112.974 1259.88 446.143
3839 0 85.3322 14.8478 1267 109.025 1259.76 447.711
3840 0 85.1858 13.0773 1114 113.254 1260.26 443.374
3841 0 91.2665 16.1724 1476 107.749 1261.69 444.283
