time division length width area intensity CMx CMy
0 0 38.0139 13.7318 522 144.626 1199.17 471.31
1 0 41.1467 13.1238 540 142.58 1198.16 472.309
2 0 42.0766 13.5943 572 130.836 1197.07 473.685
3 0 42.0398 14.3435 603 137.391 1197.02 471.638
4 0 45.0682 15.643 705 130.224 1195.85 471.113
5 0 44.0724 13.614 600 133.25 1195.29 471.342
6 0 48.1462 15.8268 762 127.87 1194.01 470.438
7 0 50.159 16.4477 825 131.753 1193.69 468.132
8 0 47.037 14.1378 665 135.469 1193.83 468.665
9 0 49.085 13.9146 683 138.514 1190.99 468.075
10 0 51.0937 16.1272 824 134.481 1191.57 466.458
11 0 53.1108 16.7198 888 127.685 1189.52 464.927
12 0 55.0901 14.1768 781 134.68 1189.96 465.814
13 0 57.148 14.5062 829 134.666 1190.07 461.633
14 0 57.2126 14.0004 801 135.318 1189.96 461.067
15 0 61.1846 15.9844 978 128.361 1190.23 458.034
16 0 61.1194 15.1343 925 131.866 1190.4 454.175
17 0 64.1551 14.465 928 128.122 1190.7 453.853
18 0 65.1591 14.6718 956 126.574 1191.16 448.863
19 0 63.1282 12.2608 774 129.881 1191.18 451.534
20 0 70.2325 14.8649 1044 129.714 1190.35 447.993
21 0 71.2492 10.1615 724 136.239 1191.42 443.769
22 0 75.1402 15.0385 1130 128.879 1191.22 442.412
23 0 79.1613 16.6748 1320 123.853 1194.29 442.427
24 0 82.2279 15.3962 1266 127.508 1192.36 437.812
25 1 40.0318 12.2403 490 130.539 1194.58 456.876
26 0 42.0346 11.7284 493 129.249 1194.25 459.625
27 0 42.1012 12.47 525 127.686 1195.38 456.872
28 0 44.0803 12.9763 572 127.327 1196.37 455.084
29 0 44.0503 11.1236 490 128.571 1198.32 452.833
30 0 46.1369 11.7476 542 124.987 1199.07 449.306
31 0 46.095 13.0166 600 124.82 1199.83 452.42
32 0 50.0822 13.2382 663 121.814 1200.46 452.268
33 0 50.0249 13.6732 684 120.817 1201.91 447.895
34 0 49.0809 12.4692 612 121.822 1202.08 450.799
35 0 54.2128 14.8673 806 119.897 1203.15 450.105
36 0 57.1 13.993 799 119.115 1202.12 448.059
37 0 58.0963 12.8235 745 120.478 1204.61 451.43
38 0 61.1437 13.411 820 117.627 1203.24 446.246
39 0 65.1508 13.0313 849 117.384 1204.59 450.006
40 0 72.2514 18.8647 1363 102.804 1204.34 458.039
41 0 75.4971 16.9675 1281 108.187 1203.91 456.632
42 0 75.4971 16.7556 1265 151.886 1202.93 456.583
43 0 78.1308 15.3844 1202 111.018 1202.58 451.572
44 0 79.2257 14.0611 1114 113.316 1201.89 449.899
45 0 84.1259 16.511 1389 115.084 1201.33 449.105
46 0 84.1259 16.4991 1388 140.905 1200.3 449.23
47 0 89.1401 19.6432 1751 117.426 1199.72 445.69
48 0 95.1719 16.549 1575 119.49 1199.26 449.265
49 0 97.1476 21.7298 2111 113.816 1198.45 448.766
50 1 52.1107 12.0897 630 120.657 1199.05 469.703
51 0 52.2254 12.829 670 127.952 1195.75 466.86
52 0 52.2254 12.8865 673 152.955 1194.74 466.895
53 0 59.2989 14.3848 853 123.263 1192.98 466.651
54 0 57.1407 13.8255 790 126.677 1193.58 462.794
55 0 64.396 17.8893 1152 114.825 1192.92 463.311
56 0 65.2086 14.8447 968 122.498 1192.32 461.032
57 0 66.4964 13.8654 922 123.987 1191.73 460.024
58 0 69.1856 18.1541 1256 118.247 1191.71 456.227
59 0 72.2298 15.7276 1136 122.312 1191.11 455.67
60 0 74.1836 15.2325 1130 124.458 1191.55 452.735
61 0 76.1776 15.7001 1196 123.982 1191.7 449.206
62 0 78.1895 13.5952 1063 127.999 1190.76 447.288
63 0 81.1868 16.85 1368 122.999 1190.6 446.08
64 0 84.3124 14.3751 1212 127.182 1191.17 442.623
65 0 87.1965 17.7645 1549 120.68 1193.36 442.087
66 0 89.1838 17.492 1560 121.245 1192.35 442.403
67 0 92.2625 13.3424 1231 128.498 1193.41 440.515
68 0 96.4869 15.7742 1522 124.076 1194.4 436.607
69 0 99.2798 16.529 1641 124.425 1193.69 431.993
70 0 102.23 15.4261 1577 126.809 1194.59 431.414
71 0 104.368 13.0308 1360 131.679 1193.35 429.715
72 1 58.0605 12.3147 715 127.54 1196.29 455.185
73 0 57.042 14.1825 809 124.858 1195.93 454.397
74 0 61.0489 12.0887 738 128.547 1196.34 453.209
75 0 59.0549 14.7659 872 121.815 1195.67 451.46
76 0 63.1166 14.4019 909 120.477 1196.31 452.294
77 0 66.0426 15.2477 1007 119.073 1195.91 453.519
78 0 67.0973 12.3999 832 123.977 1196.26 453.605
79 0 68.1416 13.8095 941 123.64 1197.07 450.108
80 0 72.0702 18.4404 1329 116.104 1198.76 450.655
81 0 76.0867 15.9029 1210 118.292 1198.5 455.827
82 0 78.2059 14.1933 1110 123.547 1197.78 450.704
83 0 79.3036 13.5051 1071 125.799 1197.49 449.669
84 0 82.1052 13.6897 1124 125.041 1197.21 451.124
85 0 84.161 14.5317 1223 125.665 1198.17 448.559
86 0 87.1267 12.8089 1116 129.348 1198.62 447.853
87 0 89.1269 14.4064 1284 124.073 1197.97 453.652
88 0 94.0824 13.2543 1247 127.868 1197.46 447.375
89 0 96.0788 12.6251 1213 128.794 1197.3 447.087
90 1 54.0412 15.0256 812 120.502 1196.88 468.099
91 0 56.0706 11.539 647 126.526 1195.56 469.521
92 0 58.0835 11.5007 668 125.942 1196.28 470.714
93 0 61.0692 13.935 851 117.562 1195.36 470.428
94 0 62.0805 15.2544 947 118.099 1193.77 465.513
95 0 62.2479 13.7193 854 120.715 1193.87 463.718
96 0 65.2512 10.7738 703 125.669 1189.94 464.548
97 0 68.2035 14.2808 974 119.396 1192.59 461.528
98 0 72.1725 18.4004 1328 112.157 1190.42 456.623
99 0 71.3314 13.9069 992 120.074 1189.12 460.407
100 0 74.1853 12.3205 914 123.323 1188.98 458.472
101 0 72.2053 12.229 883 125.055 1188.28 456.433
102 0 75.1942 11.3307 852 147.847 1188.16 456.865
103 0 82.2307 13.6689 1124 123.786 1188.49 447.405
104 0 87.1698 16.313 1422 116.776 1188.37 450.053
105 0 88.3063 15.1065 1334 119.711 1188.79 449.584
106 0 87.2893 15.3627 1341 142.398 1187.8 449.55
107 0 93.3784 13.8255 1291 125.136 1187.77 439.372
108 0 98.2497 14.3715 1412 121.4 1188.12 433.794
109 0 100.369 15.2637 1532 119.859 1188.12 434.778
110 1 53.1942 9.90709 527 117.941 1189.18 457.239
111 0 55.3145 10.1601 562 117.447 1190.36 453.61
112 0 55.1097 13.0104 717 118.58 1189.17 453.202
113 0 60.0951 16.0579 965 115.58 1190.5 452.602
114 0 58.0459 12.4729 724 118.754 1191.65 452.169
115 0 60.083 11.3676 683 120.918 1192.21 450.826
116 0 63.1399 11.1023 701 117.974 1192.48 454.183
117 0 65.1553 12.9997 847 116.364 1192.59 450.852
118 0 67.1899 11.8917 799 115.359 1193.56 452.06
119 0 67.1899 12.0107 807 140.221 1194.59 452.146
120 0 74.1185 13.5864 1007 114.308 1196.36 450.386
121 0 77.116 16.8966 1303 110.24 1195.95 448.465
122 0 79.1145 15.1426 1198 112.201 1196.98 448.207
123 1 42.0531 9.67823 407 119.968 1196.83 463.572
124 0 43.0592 12.2854 529 116.722 1196.85 463.654
125 0 45.0784 11.4467 516 116.845 1198.48 463.775
126 0 48.2278 12.0055 579 113.259 1198.49 464.926
127 0 47.1699 11.8932 561 114.971 1198.68 463.971
128 0 49.0757 13.1837 647 111.006 1197.67 467.713
129 0 47.103 10.7424 506 116.682 1195.32 468.231
130 0 49.1337 12.2726 603 114.985 1195.03 469.315
131 0 53.2113 12.2155 650 111.366 1195.04 472.231
132 0 53.0552 16.1907 859 107.51 1193.36 470.055
133 0 56.1144 11.7973 662 112.415 1193.1 471.792
134 0 56.0622 12.058 676 114.707 1193.36 467.288
135 0 57.122 13.4974 771 112.603 1193.26 469.594
136 0 58.4167 15.5778 910 109.418 1194.5 469.463
137 0 58.281 13.4006 781 113.266 1191.27 468.117
138 0 61.214 13.2649 812 112.752 1192.3 467.84
139 0 64.2998 13.3593 859 114.111 1190.45 463.445
140 0 65.1194 11.0566 720 118.292 1189.73 464.286
141 0 69.438 15.2222 1057 112.645 1190.14 461.737
142 0 71.3254 15.268 1089 112.897 1189.38 461.522
143 0 71.3254 15.3942 1098 134.994 1189.39 461.395
144 0 75.2528 13.4081 1009 119.833 1189.32 455.369
145 0 77.339 13.5766 1050 119.704 1187.97 453.691
146 0 80.3605 14.1114 1134 117.898 1187.73 453.487
147 0 80.1674 14.557 1167 119.479 1187.17 447.375
148 0 84.3886 14.0777 1188 120.526 1187.73 446.914
149 0 89.2742 16.8022 1500 115.42 1188.03 441.709
150 1 46.1256 11.8806 548 119.416 1186.69 461.38
151 0 47.2412 11.1979 529 118.318 1187.48 458.777
152 0 49.0818 11.3484 557 117.759 1188.58 458.689
153 0 51.1301 13.1625 673 117.245 1188.41 463.126
154 0 52.2857 16.3333 854 109.632 1190.06 464.275
155 0 52.1004 14.664 764 115.808 1189.17 460.615
156 0 57.0943 14.5549 831 115.738 1190.24 459.585
157 0 58.0857 16.7855 975 115.648 1189.66 453.912
158 0 60.126 15.7835 949 117.9 1189.94 453.905
159 0 62.0649 16.9661 1053 115.175 1190.41 455.063
160 0 65.1606 13.9195 907 121.725 1190.97 452.421
161 0 65.0881 14.2269 926 118.258 1190.44 456.283
162 0 68.1434 14.6603 999 120.648 1192.3 452.172
163 0 70.2321 17.072 1199 117.277 1192.95 450.653
164 0 73.2205 13.1521 963 124.314 1193.99 450.355
165 0 73.2205 13.1521 963 148.208 1193.99 450.418
166 0 78.571 14.1655 1113 122.939 1195.89 448.69
167 0 78.571 14.1273 1110 146.749 1196.87 448.768
168 1 43.1039 17.075 736 110.41 1195.77 470.469
169 0 43.1039 17.2142 742 123.462 1195.8 470.516
170 0 48.102 13.9287 670 119.719 1196.83 469.033
171 0 48.102 13.9079 669 138.46 1197.84 469.048
172 0 47.1653 12.6576 597 117.911 1197.21 473.363
173 0 50.0664 13.0626 654 118.593 1195.08 470.904
174 0 50.0921 10.1613 509 123.226 1193.96 472.866
175 0 54.0922 14.0316 759 115.661 1193.15 471.121
176 0 53.1467 11.346 603 121.556 1191.58 470.597
177 0 56.0846 13.0339 731 117.529 1192.72 471.453
178 0 57.1307 14.5106 829 114.866 1192.9 472.113
179 0 60.1722 12.4975 752 118.501 1190.68 469.985
180 0 61.2025 12.4341 761 116.82 1190.73 468.986
181 0 62.1454 11.5696 719 118.921 1189.92 470.199
182 0 61.1367 12.791 782 134.228 1188.92 470.76
183 0 67.192 11.549 776 120.492 1189.34 464.612
184 0 71.119 15.5233 1104 113.426 1188.89 464.793
185 0 72.1247 10.4264 752 122.23 1187.33 461.688
186 0 75.3907 13.5693 1023 117.543 1185.69 458.208
187 1 42.0509 12.0092 505 114.451 1186.03 476.257
188 0 44.0778 12.0469 531 115.264 1185.16 473.07
189 0 43.1251 11.5942 500 117.094 1185.69 469.334
190 0 44.1645 14.2649 630 109.365 1185 472.895
191 0 49.6357 12.7932 635 112.885 1186.89 465.739
192 0 49.6357 12.8335 637 126.584 1186.93 465.846
193 0 51.2509 10.6144 544 117.79 1183.98 466.368
194 0 52.1456 12.887 672 113.399 1185.28 462.707
195 0 52.0944 13.3412 695 114.647 1185.27 460.787
196 0 53.1455 13.1526 699 114.362 1185.22 463.741
197 0 56.2358 14.0302 789 113.79 1186.06 461.203
198 0 56.1538 13.9082 781 115.562 1187.03 456.676
199 0 58.1456 11.5228 670 117.843 1187.67 459.567
200 0 58.1306 12.5063 727 118.831 1188.43 455.516
201 0 62.2249 18.6099 1158 108.383 1188.52 455.558
202 0 65.2992 15.3141 1000 113.24 1188.54 454.746
203 0 65.3182 13.1816 861 119.689 1188.56 451.539
204 0 69.2992 18.0522 1251 110.544 1190.56 453.803
205 0 73.1843 16.3286 1195 114.387 1191.34 450.802
206 0 73.1843 16.397 1200 132.07 1191.33 450.83
207 0 75.2915 14.9685 1127 118.473 1192.15 449.544
208 0 79.3015 14.5142 1151 119.941 1193.56 446.897
209 0 80.2449 14.4059 1156 122.302 1194.67 446.196
210 0 80.4137 10.5206 846 130.473 1194.68 447.268
211 0 86.2966 14.4733 1249 123.275 1194.07 446.906
212 1 45.0646 10.0079 451 128.86 1194.07 468.109
213 0 48.084 11.4175 549 126.37 1192.88 467.76
214 0 52.074 14.249 742 119.66 1192.73 468.148
215 0 51.3348 14.6879 754 116.204 1193.83 465.467
216 0 51.1585 10.8682 556 124.991 1194.06 465.468
217 0 53.1156 13.6495 725 119.717 1194.2 467.954
218 0 54.2155 14.055 762 120.395 1193.32 466.63
219 0 57.3124 12.3184 706 122.853 1193.04 467.178
220 0 57.3012 13.525 775 121.137 1194.33 467.837
221 0 60.2716 14.866 896 117.407 1192.87 468.646
222 0 63.3415 13.7982 874 119.198 1192.59 467.871
223 0 65.2571 18.4041 1201 111.345 1191.22 468.963
224 0 66.226 14.1938 940 120.234 1189.79 465.197
225 0 68.2352 15.6224 1066 117.126 1188.34 464.861
226 0 69.3346 15.5189 1076 117.335 1187.03 467.839
227 0 74.4171 15.8431 1179 118.036 1187.06 460.782
228 0 75.1668 15.8048 1188 120.181 1185.69 458.579
229 0 79.235 16.5836 1314 119.124 1185.06 456.99
230 0 81.152 15.0582 1222 122.902 1184.54 457.818
231 0 82.1453 15.2535 1253 122.761 1185.21 459.279
232 1 44.0398 11.7167 516 126.519 1184.06 473.089
233 0 46.047 11.4231 526 126.553 1183.87 472.215
234 0 47.0177 13.5481 637 122.078 1184.87 471.089
235 0 46.1236 10.4935 484 127.915 1183.16 468.895
236 0 52.1068 12.6087 657 119.207 1183.52 467.14
237 0 53.1131 14.0643 747 115.881 1183.04 462.234
238 0 54.2623 13.8955 754 115.627 1182.99 462.265
239 0 55.1282 12.8609 709 116.587 1183.6 462.647
240 0 57.204 14.8067 847 114.805 1182.56 457.746
241 0 59.2073 15.6737 928 113.064 1184.6 457.512
242 0 60.12 15.5356 934 114 1185.11 455.636
243 0 61.1896 14.594 893 116.14 1184.5 454.544
244 0 62.1561 12.8387 798 119.685 1185.65 453.662
245 0 67.1452 13.0612 877 118.371 1185.58 452.619
246 0 68.1494 13.5438 923 118.605 1188.38 450.233
247 0 70.1906 15.3012 1074 118.965 1189.71 447.233
248 0 72.1981 15.3882 1111 118.476 1190.86 448.145
249 0 72.2328 15.4501 1116 134.063 1191.86 448.162
250 0 77.1323 14.8446 1145 119.902 1190.28 446.85
251 0 79.3388 14.0663 1116 121.759 1191.83 447.116
252 0 82.4648 16.0675 1325 118.193 1192.99 446.49
253 0 85.3442 16.5565 1413 115.328 1194.04 448.976
254 0 86.2804 15.7278 1357 119.015 1194.56 443.495
255 0 90.2637 14.9229 1347 119.911 1193.35 444.871
256 0 92.3853 15.7168 1452 118.568 1194.79 444.236
257 0 94.1496 12.2996 1158 125.437 1194.44 442.553
258 0 99.4626 13.1406 1307 124.044 1194.84 443.122
259 0 103.268 17.5659 1814 114.837 1193.99 448.589
260 0 104.324 12.0586 1258 125.824 1194.47 441.2
261 1 60.1868 12.0791 727 123.498 1193.89 465.77
262 0 62.2721 11.1446 694 123.441 1192.71 464.245
263 0 64.2416 12.0638 775 123.115 1192.46 461.801
264 0 67.1531 12.4343 835 124.387 1191.68 463.305
265 0 71.0812 14.6452 1041 119.561 1193.65 462.348
266 0 74.1429 14.3911 1067 118.873 1192.21 461.774
267 0 71.157 9.79524 697 128.881 1193.2 458.211
268 0 77.0912 19.678 1517 110.916 1191.34 459.326
269 0 79.058 12.6869 1003 124.641 1191.04 456.418
270 0 81.1382 12.8423 1042 125.275 1189.02 456.183
271 0 84.4174 12.5685 1061 124.275 1188.19 456.515
272 0 88.1617 14.9838 1321 121.36 1187.55 451.572
273 0 91.3912 15.0233 1373 121.831 1188.19 448.067
274 0 93.3731 12.1984 1139 126.258 1186.23 447.169
275 0 92.4227 11.8586 1096 128.573 1186.48 442.213
276 0 98.3639 13.8567 1363 123.213 1185.59 444.555
277 0 103.652 14.7031 1524 122.501 1185.79 437.391
278 0 104.227 14.3341 1494 122.726 1185.83 435.038
279 0 109.445 15.0853 1651 119.549 1184.94 435.073
280 0 112.36 13.3233 1497 123.8 1185.34 425.267
281 1 60.1512 11.0056 662 117.775 1182.57 457.675
282 0 62.17 12.5141 778 122.389 1183.97 452.317
283 0 64.3679 12.3353 794 123.176 1184.79 455.55
284 0 66.1455 14.2262 941 121.79 1184.3 452.083
285 0 67.1023 14.0979 946 122.019 1183.95 449.357
286 0 70.1605 13.7257 963 121.158 1184.64 449.312
287 0 73.1055 15.7033 1148 117.114 1186.04 446.912
288 0 75.1584 17.4166 1309 115.658 1187.17 443.444
289 0 77.2871 13.0552 1009 124.368 1187.17 443.788
290 0 80.1635 12.9236 1036 123.953 1188.35 441.867
291 0 84.3067 14.2931 1205 120.439 1188.74 441.205
292 0 85.1281 15.5765 1326 119.298 1190.48 439.427
293 0 89.1577 14.8389 1323 119.929 1191.46 439.101
294 0 91.3308 16.3034 1489 117.543 1192.62 442.175
295 0 93.0874 14.5025 1350 122.054 1192.4 438.227
296 1 52.0313 14.0108 729 115.599 1192.89 458.984
297 0 52.0313 14.03 730 136.762 1192.88 458.955
298 0 54.4318 13.9073 757 116.263 1194.01 457.919
299 0 50.2985 8.42968 424 121.427 1194.78 452.292
300 0 57.1304 11.1324 636 119.896 1194.83 461.436
301 0 59.1113 12.9417 765 111.885 1194.85 464.485
302 0 58.0599 11.1609 648 116.133 1194.48 461.42
303 0 63.365 15.1661 961 109.027 1194.31 463.77
304 0 64.1828 12.5579 806 113.385 1193.81 462.413
305 0 64.1828 12.5735 807 123.247 1193.81 462.15
306 0 67.1997 10.8929 732 114.904 1193.06 462.904
307 0 69.2462 12.0007 831 114.043 1192.04 455.84
308 0 72.154 12.8059 924 112.956 1192.23 457.503
309 0 74.2085 12.9635 962 111.05 1191.56 463.707
310 0 76.3024 13.761 1050 112.462 1191.28 457.376
311 0 76.3033 13.8526 1057 116.366 1190.26 457.478
312 0 83.2066 14.3498 1194 111.633 1190.38 453.293
313 1 44.1377 13.843 611 110.699 1189.63 473.63
314 0 41.2197 9.84966 406 118.02 1190.02 473.869
315 0 45.3159 13.5714 615 110.724 1189.41 470.958
316 0 42.6586 10.4317 445 113.357 1189.04 463.243
317 0 44.1012 12.4713 550 108.92 1186.63 462.449
318 0 46.1232 11.1658 515 110.336 1185.3 460.128
319 0 50.1616 15.47 776 108.095 1185.43 464.228
320 0 51.0428 12.754 651 110.533 1184.49 464.146
321 0 51.0428 12.7344 650 127.128 1183.5 464.045
322 0 53.1055 13.3696 710 108.93 1184.6 462.927
323 0 57.1156 13.6215 778 107.614 1184.59 462.851
324 0 55.0657 13.5474 746 109.645 1184.53 457.499
325 0 57.2158 11.2207 642 113.712 1184.8 459.223
326 0 62.0986 13.7201 852 108.403 1186.04 457.95
327 0 64.1836 17.1539 1101 104.408 1186.77 456.59
328 0 64.0955 13.2459 849 112.616 1186.82 452.263
329 0 66.248 14.0382 930 111.523 1186.76 451.134
330 0 67.1397 15.2816 1026 110.927 1186.88 448.309
331 0 71.1095 14.1472 1006 115.063 1188.69 444.56
332 0 72.1241 13.6847 987 114.206 1189.7 443.88
333 0 74.1787 15.2874 1134 110.493 1189.61 448.158
334 0 80.1145 12.2824 984 115.332 1190.07 443.95
335 0 80.1145 12.2325 980 152.059 1191.07 444.009
336 0 81.316 13.6136 1107 115.335 1191.52 443.371
337 0 85.1453 10.9577 933 118.109 1192.08 444.458
338 1 43.0519 11.1958 482 115.701 1192.05 462.809
339 0 46.2252 12.4175 574 113.538 1193.04 458.54
340 0 52.1366 17.5692 916 104.74 1194.56 462.439
341 0 49.0941 16.2138 796 109.638 1194.9 463.142
342 0 50.0768 14.8172 742 112.887 1194.15 460.198
343 0 53.1084 15.6661 832 109.772 1193.51 461.508
344 0 53.0448 15.9111 844 111.289 1195.61 461.217
345 0 55.0388 15.2801 841 112.029 1195.25 463.008
346 0 56.2317 14.3513 807 113.378 1193.95 462.628
347 0 58.1424 13.6217 792 114.715 1194.64 462.191
348 0 59.188 15.7464 932 111.679 1195.11 462.148
349 0 60.1731 13.7603 828 116.513 1194.77 459.7
350 0 64.1738 14.6789 942 114.959 1193.3 461.152
351 0 66.0833 13.6343 901 116.322 1192.97 463.529
352 0 67.1743 12.3261 828 118.76 1193.85 461.911
353 0 69.064 12.4812 862 118.557 1193.5 460.925
354 0 72.1183 12.9371 933 117.267 1193.17 459.459
355 0 75.0958 13.2231 993 117.229 1191.69 455.809
356 0 76.2677 13.4395 1025 116.853 1190.23 456.374
357 0 80.1583 12.4753 1000 118.713 1189.83 454.251
358 0 81.2592 15.2598 1240 113.277 1192.93 456.241
359 1 46.3782 9.81064 455 116.042 1190.76 473.719
360 0 45.1973 10.6643 482 109.9 1187.95 470.369
361 0 45.1973 10.5758 478 130.879 1186.97 470.351
362 0 49.107 13.1346 645 114.947 1191.76 467.357
363 0 51.1145 13.9295 712 112.808 1192.55 465.83
364 0 54.231 15.5999 846 110.234 1190.1 462.829
365 0 54.2556 13.2521 719 114.848 1190.17 462.281
366 0 56.1109 11.7446 659 115.666 1191.96 461.791
367 0 56.1109 11.7981 662 144.917 1192.96 461.807
368 0 59.0632 15.4242 911 110.301 1191.3 458.065
369 0 62.138 13.7919 857 113.697 1191.5 454.538
370 0 63.0964 11.95 754 116.08 1191.31 452.606
371 0 66.1267 13.7766 911 111.992 1190.98 453.307
372 0 66.1896 12.8721 852 116.216 1192.34 448.101
373 0 67.0396 11.3068 758 117.095 1193.13 447.755
374 0 70.2696 15.1559 1065 113.11 1192.06 446.55
375 0 73.3678 14.8975 1093 113.049 1189.89 445.415
376 0 75.1968 12.8596 967 117.574 1192.1 444.423
377 1 40.0324 11.4907 460 115.524 1189.63 459.2
378 0 40.0324 11.6156 465 145.217 1189.61 459.26
379 0 43.0152 12.9024 555 110.213 1193.4 462.431
380 0 44.1178 10.8573 479 114.63 1193.62 461.756
381 0 46.0598 15.5884 718 104.997 1193.95 458.639
382 0 48.1148 10.9322 526 109.702 1196.64 460.8
383 0 47.2933 10.6358 503 111.262 1197.87 459.402
384 0 50.5023 10.6728 539 109.993 1198.4 459.636
385 0 52.1786 13.3196 695 105.678 1197.5 457.532
386 0 52.2316 14.0145 732 103.205 1199.32 462.98
387 0 53.1992 13.9288 741 104.215 1199.2 461.524
388 0 56.1386 14.9095 837 102.741 1199.96 461.096
389 0 56.1388 14.9273 838 118.618 1200.95 461.104
390 0 60.074 15.9137 956 101.304 1199.57 463.182
391 0 61.1076 14.5645 890 104.442 1199.29 459.331
392 0 62.207 12.0726 751 107.341 1200.07 459.794
393 0 66.3186 12.6812 841 106.436 1198.31 459.634
394 0 67.2521 14.2895 961 104.495 1196.66 458.332
395 0 67.1941 10.1795 684 110.68 1196.52 458.588
396 0 72.1762 13.0098 939 106.645 1197.1 455.859
397 0 76.2111 15.877 1210 102.24 1196.41 455.877
398 0 79.2335 17.4169 1380 99.7616 1194.88 451.775
399 1 42.0459 12.6766 533 107.722 1195.04 473.786
400 0 43.1156 13.6377 588 106.213 1194.09 473.515
401 0 43.0285 11.8526 510 109.992 1194.55 471.096
402 0 43.0993 11.8099 509 109.845 1193.85 470.933
403 0 50.0744 14.4984 726 104.295 1192.7 468.949
404 0 49.0954 13.1173 644 106.634 1193.01 469.332
405 0 51.2037 11.3078 579 110.078 1192.18 467.756
406 0 51.3814 13.2344 680 107.622 1189.98 465.6
407 0 54.052 13.4685 728 107.385 1191.3 464.878
408 0 54.052 13.413 725 123.981 1191.31 465.079
409 0 56.231 12.9466 728 110.335 1188.77 460.504
410 0 59.2008 13.2431 784 110.287 1190.71 459.204
411 0 61.1773 13.044 798 110.752 1189.06 458.855
412 0 61.0868 12.5723 768 113.759 1189.08 453.206
413 0 63.2264 15.4682 978 108.716 1189.59 452.943
414 0 65.3031 14.0882 920 111.237 1189.62 451.14
415 0 65.2592 11.1708 729 117.454 1190.25 449.919
416 0 69.2064 15.8367 1096 109.782 1190.58 450.126
417 0 72.2739 15.2337 1101 110.694 1191.46 447.737
418 0 72.2739 15.2337 1101 126.522 1192.49 447.568
419 0 76.1983 14.7641 1125 112.28 1193.56 445.73
420 0 80.3256 16.595 1333 110.149 1193.19 441.144
421 0 81.2016 15.1475 1230 112.996 1193.4 438.728
422 1 41.0237 12.9681 532 116.673 1196.27 458.137
423 0 43.0779 11.839 510 117.31 1196.4 460.594
424 0 44.1565 11.3234 500 117.736 1196.84 460.496
425 0 46.0218 10.3212 475 119.223 1197.88 461.221
426 0 50.2297 14.0554 706 111.319 1198.23 461.636
427 0 48.2285 15.6961 757 111.688 1198.46 461.441
428 0 49.0444 11.1939 549 120.893 1198.3 458.357
429 0 49.0709 13.0016 638 118.249 1199.69 460.829
430 0 53.0252 14.0122 743 113.999 1199.82 462.533
431 0 54.1135 15.5044 839 113.566 1200.63 460.551
432 0 54.1252 15.3903 833 132.267 1201.67 460.509
433 0 56.09 11.3033 634 121.069 1199.52 463.533
434 0 59.1201 14.8511 878 114.792 1199.31 461.683
435 0 60.2444 13.5614 817 117.001 1198.35 461.99
436 0 62.107 14.1208 877 116.111 1198.28 462.824
437 0 63.1171 13.768 869 118.888 1197.38 460.856
438 0 67.0798 14.7585 990 115.236 1197.78 462.711
439 0 68.2555 13.7425 938 117.918 1196.84 461.876
440 0 71.2282 16.2997 1161 113.903 1196.11 459.512
441 0 70.2124 13.9007 976 119.031 1195.82 460.39
442 0 75.3164 19.6239 1478 107.894 1194.11 462.873
443 0 79.3319 17.723 1406 110.723 1194.83 460.987
444 0 80.3012 15.6909 1260 116.891 1194.53 453.933
445 0 82.5054 18.1685 1499 111.807 1193.49 457.225
446 0 85.4093 15.8882 1357 116.736 1192.04 452.218
447 0 88.5444 15.5402 1376 118.228 1191.93 448.431
448 1 46.0904 8.11448 374 124.115 1191.37 471.187
449 0 48.5997 12.2223 594 120.104 1190.87 466.918
450 0 49.6368 10.1135 502 122.645 1189.01 466.42
451 0 51.5733 13.127 677 117.979 1188.37 461.282
452 0 55.685 15.444 860 105.479 1187.35 460.744
453 0 55.4059 11.6053 643 112.802 1187.11 458.415
454 0 60.3018 14.8918 898 105.234 1187.77 463.484
455 0 59.3357 14.4433 857 108.062 1187.24 457.967
456 0 61.1059 11.1282 680 111.369 1186.38 461.228
457 0 62.2791 10.6296 662 113.796 1187.65 455.776
458 0 68.5584 17.0803 1171 103.218 1186.81 456.056
459 0 68.2064 13.6351 930 110.187 1187.74 451.737
460 0 70.2233 15.6643 1100 108.067 1188.58 449.415
461 0 74.3233 13.6969 1018 108.92 1189.55 450.721
462 0 75.2677 12.6349 951 110.565 1190.24 450.159
463 0 77.3237 14.976 1158 108.712 1190.14 446.426
464 0 82.2838 11.0957 913 112.587 1190.79 448.365
465 0 83.3727 12.75 1063 112.18 1191.76 441.498
466 1 41.2026 10.6547 439 113.54 1189.54 463.604
467 0 45.0423 12.3662 557 109.133 1191.15 466.268
468 0 45.0423 12.2996 554 129.406 1192.14 466.231
469 0 50.1209 13.1881 661 107.095 1192.07 468.903
470 0 49.0721 12.6141 619 108.614 1194.2 469.339
471 0 49.1533 12.0847 594 112.791 1196.28 468.434
472 0 50.3454 13.6259 686 111.999 1195.79 467.06
473 0 51.2232 13.3143 682 112.994 1195.52 466.364
474 0 55.1858 14.2609 787 111.511 1195.72 465.59
475 0 55.119 13.3892 738 114.163 1196.57 465.743
476 0 57.2533 10.4273 597 117.424 1195.9 467.38
477 0 60.2416 12.0515 726 114.391 1195.33 468.623
478 0 62.2848 11.6561 726 114.814 1195.09 470.822
479 0 64.1591 13.4665 864 113.307 1193.37 467.154
480 0 64.2521 12.8245 824 114.42 1193.81 470.89
481 0 67.2827 15.2045 1023 110.408 1192.86 468.404
482 0 66.4496 12.2047 811 115.687 1192.44 467.412
483 0 70.344 12.1972 858 114.928 1191.64 470.663
484 0 71.2914 12.1193 864 115.041 1190.16 471.728
485 0 75.4045 12.5589 947 115.7 1189.85 466.964
486 0 78.4437 14.7112 1154 112.097 1188.67 465.115
487 0 81.1833 14.5596 1182 112.021 1188.67 462.517
488 0 82.2666 13.2253 1088 114.146 1187.94 462.249
489 0 87.6747 13.8923 1218 113.942 1186.85 459.127
490 0 87.6747 13.8809 1217 129.665 1185.86 459.163
491 0 90.4018 13.8272 1250 116.597 1186.44 456.099
492 1 51.2924 16.2402 833 108.216 1186.3 477.785
493 0 49.6658 11.8995 591 116.349 1183.38 471.005
494 0 50.3991 11.151 562 112.863 1184.07 467.861
495 0 53.6855 10.338 555 110.82 1183.63 467.229
496 0 53.6855 10.3194 554 126.875 1183.64 467.121
497 0 58.1369 12.1781 708 110.39 1185.08 467.29
498 0 58.0901 13.3758 777 110.156 1183.37 464.196
499 0 60.1877 12.4278 748 112.652 1183.61 463.206
500 0 58.0791 10.8645 631 114.602 1184.52 461.647
501 0 64.0949 15.3991 987 106.243 1184.24 460.117
502 0 65.2311 12.1261 791 112.59 1184.97 453.981
503 0 68.1868 12.7444 869 109.591 1185.03 454.627
504 0 70.2358 13.113 921 110.48 1186.61 450.245
505 0 71.4827 15.4303 1103 107.516 1186.23 443.956
506 0 72.1197 12.3406 890 111.799 1187.22 450.883
507 0 74.1874 13.5737 1007 111.773 1188.71 447.558
508 0 76.2274 12.5152 954 113.063 1189.21 448.105
509 0 81.1639 13.4296 1090 113.089 1189.75 442.921
510 0 83.2082 12.5589 1045 113.659 1191.04 448.411
511 0 87.3511 15.3518 1341 110.186 1191.42 433.714
512 0 90.6988 12.095 1097 114.158 1192.22 437.804
513 0 93.2963 15.7562 1470 111.007 1193.25 432.056
514 1 48.0537 10.842 521 109.56 1194.01 460.994
515 0 49.0444 13.5591 665 105.684 1194.53 464.077
516 0 52.0723 16.6307 866 102.073 1194.72 467.117
517 0 52.0601 14.2528 742 111.943 1195.26 467.818
518 0 53.2231 10.5405 561 116.275 1195.71 472.303
519 0 56.0524 13.755 771 111.101 1194.7 471.053
520 0 58.1694 18.3774 1069 103.221 1193.56 469.452
521 0 61.1361 13.4945 825 108.524 1193.53 474.121
522 0 62.2562 15.1953 946 108.013 1192.72 469.816
523 0 62.2707 14.0837 877 109.826 1192.43 471.633
524 0 65.1082 11.7036 762 111.938 1191.39 473.782
525 0 67.2396 14.1732 953 109.773 1191.26 469.591
526 0 68.227 15.2286 1039 108.631 1190.82 466.233
527 0 73.1433 13.6718 1000 112.003 1189.88 467.814
528 0 73.1379 12.2098 893 112.458 1190.3 467.406
529 0 77.2229 14.0761 1087 111.619 1189.84 466.613
530 0 81.1966 15.4809 1257 109.1 1188.11 465.247
531 0 81.1194 13.9054 1128 112.391 1186.97 460.062
532 0 84.2051 17.2911 1456 108.321 1186.82 462.765
533 1 46.123 10.9273 504 122.151 1186.69 479.708
534 0 45.0713 13.2679 598 121.253 1187.01 475.599
535 0 49.3426 14.146 698 119.057 1185.92 474.686
536 0 50.19 14.3853 722 118.09 1184.32 473.597
537 0 52.0265 14.8578 773 116.695 1185.53 470.129
538 0 50.0734 11.0038 551 123.664 1184.89 470.388
539 0 54.0679 12.7987 692 117.504 1185.74 468.964
540 0 58.2093 14.8602 865 113.405 1184.22 467.761
541 0 59.2113 15.2505 903 114.051 1183.5 465.885
542 0 60.0938 13.8117 830 117.114 1183.97 463.365
543 0 62.2185 15.5742 969 114.133 1184.53 458.059
544 0 64.1281 12.9272 829 117.545 1185.49 461.437
545 0 65.2139 14.0461 916 118.755 1186.7 455.98
546 0 68.1158 13.3596 910 118.94 1186.48 455.158
547 0 68.1158 13.4477 916 135.826 1186.5 455.103
548 0 72.1159 13.1871 951 115.415 1187.2 455.105
549 0 72.1154 13.1179 946 116.801 1187.48 451.732
550 0 78.3362 13.391 1049 113.839 1187.78 453.24
551 0 80.2102 16.2573 1304 108.642 1188.66 454.487
552 1 41.1418 11.9586 492 115.904 1189.83 470.494
553 0 44.1486 13.6358 602 112.113 1190.41 468.45
554 0 45.2622 12.1735 551 115.644 1190.27 467.724
555 0 46.374 13.4342 623 111.302 1189.78 465.581
556 0 46.0951 13.7759 635 107.942 1192.67 468.315
557 0 47.1633 13.167 621 111.082 1189.79 470.725
558 0 47.1269 11.5857 546 114.251 1190.21 471.335
559 0 52.1093 14.3352 747 110.167 1190.21 468.256
560 0 53.1503 14.9576 795 109.78 1190.01 469.192
561 0 54.2535 12.6996 689 113.541 1190.59 469.666
562 0 53.2206 10.8792 579 116.288 1189.65 472.28
563 0 57.1321 13.8976 794 111.88 1190.1 471.322
564 0 60.1645 16.2222 976 108.166 1189.79 468.82
565 0 63.3032 14.4542 915 109.716 1189.43 471.055
566 0 63.1955 11.7097 740 113.946 1189.98 471.031
567 0 63.0404 11.9289 752 115.165 1189.7 469.678
568 0 69.2512 18.2524 1264 104.937 1190.31 468.477
569 0 69.3464 13.3821 928 112.539 1188.75 468.936
570 0 71.1243 16.4219 1168 108.269 1189.08 469.769
571 0 74.3993 13.7905 1026 113.877 1188.54 467.821
572 0 74.3993 13.8577 1031 129.42 1187.53 467.64
573 1 38.076 12.2124 465 116.108 1184.8 482.226
574 0 39.0375 10.2978 402 121.786 1184.42 480.493
575 0 44.2216 14.1786 627 111.225 1183.68 480.416
576 0 44.1418 11.7349 518 118.234 1182.43 481.305
577 0 44.2816 11.9237 528 115.82 1182.69 471.555
578 0 48.3199 14.8593 718 110.242 1182.73 471.497
579 0 46.1554 13.3462 616 114.357 1182.28 470.403
580 0 47.0727 15.9115 749 109.151 1183.23 473.371
581 0 50.2446 12.4391 625 114.789 1181.71 470.658
582 0 52.1064 11.9563 623 116.612 1182.03 468.549
583 0 52.1064 11.9755 624 138.104 1182.01 468.659
584 0 55.3141 14.8244 820 112.055 1183.71 466.51
585 0 55.1665 12.0725 666 116.239 1183.49 465.149
586 0 59.3798 14.3146 850 110.902 1183.86 464.265
587 0 60.2378 14.7582 889 111.045 1184.8 464.192
588 0 61.1322 17.2904 1057 108.263 1186.05 459.205
589 0 65.1001 15.4224 1004 109.937 1185.77 459.274
590 0 67.2219 15.3224 1030 111.541 1185.15 457.314
591 0 68.4541 13.5565 928 114.719 1185.1 457.867
592 0 70.1754 14.649 1028 112.465 1187.42 458.612
593 0 70.1754 14.5778 1023 137.12 1189.43 458.558
594 0 75.3234 15.918 1199 111.426 1187.77 453.847
595 0 77.1893 17.2433 1331 110.255 1188.9 450.999
596 0 80.2168 14.6104 1172 113.524 1188.52 452.052
597 0 80.2168 14.6977 1179 135.78 1187.5 452.014
598 0 83.2602 15.0132 1250 114.962 1190.7 451.503
599 0 86.1701 15.9684 1376 113.004 1190.69 447.538
600 0 89.2147 13.2265 1180 116.513 1191.3 448.533
601 1 52.0822 12.9027 672 110.598 1190.92 473.003
602 0 49.1571 10.2528 504 140.657 1191.91 470.536
603 0 55.0468 12.1351 668 113.436 1191.29 471.109
604 0 54.0848 12.4804 675 113.496 1191.32 468.874
605 0 53.056 15.4554 820 107.577 1192.62 472.117
606 0 59.0855 15.7907 933 106.971 1191.33 466.827
607 0 59.2271 15.3477 909 107.743 1190.14 467.135
608 0 62.3294 12.9634 808 110.014 1190.91 469.453
609 0 64.1936 13.101 841 109.382 1190.59 470.394
610 0 66.2901 14.165 939 109.717 1189.75 465.95
611 0 66.2505 12.3622 819 112.578 1188.79 466.755
612 0 69.2343 13.2016 914 110.9 1190.39 465.804
613 0 74.4223 13.9743 1040 109.244 1189.35 461.937
614 0 74.4223 13.934 1037 132.717 1187.36 461.958
615 0 79.4263 15.549 1235 107.717 1188.44 460.388
616 0 79.4802 14.4313 1147 110.31 1187.27 456.537
617 0 82.2694 15.668 1289 107.661 1186.27 463.334
618 0 82.2694 15.583 1282 126.506 1186.27 463.403
619 0 88.4044 14.4224 1275 111.403 1184.85 453.021
620 0 90.262 16.5851 1497 108.818 1184.82 452.432
621 0 93.3743 12.9051 1205 113.218 1184.94 454.817
622 0 102.352 19.726 2019 102.654 1184.13 441.594
623 0 103.326 15.001 1550 115.238 1183.7 439.661
624 1 53.0494 11.8192 627 116.445 1182.01 463.045
625 0 55.2153 11.102 613 116.832 1181.97 465.098
626 0 54.2418 12.813 695 110.282 1185.69 455.986
627 0 55.6067 14.4947 806 107.519 1184.88 457.325
628 0 56.0694 14.1967 796 109.479 1185.87 453.864
629 0 61.1647 14.1912 868 108.364 1185.25 453.062
630 0 64.2 12.8816 827 109.025 1185.34 451.487
631 0 62.2004 12.315 766 121.749 1185.3 452.321
632 0 67.3375 10.7518 724 112.827 1187.31 447.662
633 0 70.461 12.5743 886 109.937 1185.36 451.308
634 0 70.2863 13.5304 951 109.737 1187.05 446.942
635 0 74.2727 14.8776 1105 107.947 1187.6 445.805
636 0 80.2181 15.3706 1233 106.685 1187.98 443.468
637 0 80.1842 13.3069 1067 110.299 1189.31 443.733
638 0 82.1619 9.88293 812 116.144 1190.76 440.429
639 0 89.4077 15.6139 1396 107.645 1191.18 438.885
640 0 89.1632 15.1968 1355 109.438 1192.07 440.606
641 0 91.1749 12.1305 1106 114.214 1192.22 436.848
642 0 96.2249 14.2063 1367 110.25 1193.98 442.053
643 0 101.257 17.5297 1775 105.983 1193.48 441.229
644 0 103.213 14.1455 1460 111.848 1193.69 437.01
645 0 108.314 15.2427 1651 109.168 1193.88 442.267
646 0 109.21 13.9365 1522 112.482 1192.99 438.89
647 1 57.1619 12.6483 723 108.095 1193.91 465.368
648 0 59.247 12.8108 759 108.482 1193.95 465.921
649 0 61.2226 12.2014 747 109.859 1193.01 465.408
650 0 65.1772 12.4737 813 109.974 1193.37 464.038
651 0 66.1348 13.9261 921 108.076 1192.71 457.985
652 0 67.3925 12.1527 819 110.179 1193.6 461.165
653 0 69.435 14.0995 979 104.527 1193.33 462.666
654 0 73.2076 16.46 1205 101.47 1192.38 463.749
655 0 74.232 12.4475 924 107.33 1190.48 463.13
656 0 76.2088 13.8042 1052 106.205 1190.79 460.394
657 0 78.4738 14.8712 1167 105.051 1189.48 460.412
658 0 81.4171 11.9017 969 109.62 1188.4 460.477
659 0 84.3137 13.3549 1126 107.401 1188.83 460.362
660 0 87.4216 11.9421 1044 108.411 1186.69 457.009
661 1 44.1063 11.767 519 108.511 1185.22 479.231
662 0 47.0978 14.0559 662 105.328 1186.27 477.742
663 0 46.4163 12.5387 582 107.62 1187.62 473.634
664 0 49.153 16.0926 791 103.589 1187.45 471.011
665 0 49.153 16.0519 789 123.17 1186.5 471.134
666 0 50.2856 12.8068 644 109.963 1186.52 471.11
667 0 53.1063 13.7837 732 108.561 1186.54 470.306
668 0 55.0851 13.7424 757 107.12 1185.29 468.417
669 0 56.1272 13.7367 771 107.235 1186 466.759
670 0 59.2099 13.3593 791 108.192 1186.77 462.442
671 0 60.0892 12.7644 767 109.132 1186.16 464.404
672 0 62.1837 13.6531 849 108.025 1186.44 460.814
673 0 64.1111 15.0832 967 106.221 1186.42 457.625
674 0 68.1567 16.5648 1129 104.213 1187.14 459.746
675 0 67.1524 13.1194 881 111.127 1187.37 456.597
676 0 71.2022 15.8282 1127 107.223 1187.63 454.413
677 0 75.2723 14.6269 1101 108.971 1188.18 454.394
678 0 76.3868 11.8214 903 113.296 1188.34 450.075
679 0 79.3275 14.2574 1131 109.839 1189.75 456.687
680 0 81.2591 16.712 1358 108.226 1191.07 452.48
681 0 81.25 16.8492 1369 124.188 1193.08 452.492
682 1 42.2124 12.2239 516 119.692 1191.74 468.971
683 0 45.1128 14.0315 633 115.54 1191.61 466.205
684 0 46.2842 14.9943 694 116.323 1192.11 468.445
685 0 54.3352 19.7846 1075 104.737 1192.86 466.415
686 0 48.3208 14.1968 686 118.391 1194.45 468.873
687 0 52.3378 14.8841 779 115.869 1192.48 467.777
688 0 52.3378 14.9414 782 143.091 1191.49 467.749
689 0 54.5321 14.762 805 116.076 1193.12 471.786
690 0 56.168 15.3112 860 115.74 1193.49 470.287
691 0 58.187 13.766 801 118.84 1191.83 468.755
692 0 60.1992 15.5484 936 115.901 1192.43 469.302
693 0 62.156 15.6542 973 113.588 1192.69 467.466
694 0 62.156 15.6542 973 135.039 1192.69 467.466
695 0 66.1622 15.0539 996 113.071 1192.09 467.81
696 0 67.1658 14.8588 998 113.501 1191.4 468.254
697 0 70.2416 16.9415 1190 110.808 1189.88 467.997
698 0 71.1128 14.484 1030 115.764 1190.16 466.957
699 0 74.1224 12.8706 954 116.644 1188.76 470.02
700 0 77.1827 15.5734 1202 113.442 1188.58 465.701
701 0 79.3 16.1412 1280 112.623 1187.94 465.255
702 0 83.2165 15.3816 1280 113.878 1186.87 463.661
703 0 85.5272 16.2171 1387 113.094 1186.99 462.878
704 0 86.6386 11.5884 1004 119.873 1186.11 455.072
705 0 90.7737 14.9272 1355 116.479 1184.56 451.248
706 0 93.9136 13.3846 1257 119.405 1184.52 452.894
707 1 47.2861 11.1238 526 119.378 1183.74 477.848
708 0 49.2548 13.623 671 117.715 1183.54 473.498
709 0 52.4759 13.3585 701 117.689 1183.87 471.92
710 0 52.372 14.2442 746 118.05 1184.7 468.798
711 0 52.3884 12.77 669 119.49 1184.52 469.634
712 0 59.3783 15.2413 905 113.71 1184.35 467.685
713 0 58.2688 13.4721 785 116.261 1183.22 468.274
714 0 62.383 17.3445 1082 111.578 1184.98 461.042
715 0 65.2085 15.1974 991 115.124 1183.37 459.832
716 0 65.2548 13.5009 881 116.922 1184.99 457.754
717 0 70.5278 16.1497 1139 111.657 1185 456.391
718 0 76.5531 16.5506 1267 109.83 1186.02 455.895
719 0 73.2136 16.1172 1180 112.171 1185.15 451.234
720 0 78.4581 14.6065 1146 114.371 1186.6 451.143
721 0 81.3328 13.3402 1085 115.911 1185.86 449.04
722 0 84.532 14.9056 1260 114.091 1187.27 441.398
723 0 86.6888 16.8995 1465 111.014 1187.28 445.538
724 0 90.4229 13.271 1200 116.64 1187.51 446.178
725 0 94.5837 15.4043 1457 112.533 1188.68 440.994
726 0 98.111 16.3896 1608 110.529 1189.14 443.784
727 0 99.8344 14.494 1447 113.502 1190.28 440.617
728 1 53.6669 15.1863 815 110.914 1189.91 465.378
729 0 53.5015 14.4108 771 114.471 1190.54 464.721
730 0 54.6075 15.0163 820 114.04 1190.94 463.207
731 0 57.5658 14.0187 807 114.897 1191.4 466.104
732 0 59.4306 15.3456 912 114.444 1190.86 459.49
733 0 60.5349 17.3454 1050 111.463 1191.67 458.444
734 0 65.705 16.3762 1076 112.411 1191.04 463.233
735 0 65.4033 13.1798 862 119.535 1190.44 462.166
736 0 68.7207 15.9632 1097 115.029 1190.98 461.716
737 0 68.5192 13.9669 957 119.857 1190.57 464.883
738 0 68.5192 14.0399 962 138.102 1190.56 464.914
739 0 74.4766 15.8842 1183 117.185 1189.52 459.896
740 0 78.4405 14.7883 1160 118.872 1189.8 460.459
741 0 80.4943 15.1439 1219 119.015 1189.66 456.614
742 0 84.4934 15.7527 1331 117.307 1189.89 459.691
743 0 87.6458 18.803 1648 113.24 1188.81 454.814
744 1 47.4736 13.2284 628 118.887 1187.35 476.288
745 0 47.0916 12.3164 580 121.724 1187.39 473.924
746 0 49.0976 12.6279 620 122.247 1186.85 471.35
747 0 50.8342 11.5867 589 124.353 1185.68 469.547
748 0 50.7729 15.4807 786 139.102 1183.8 467.372
749 0 54.105 13.1596 712 119.169 1185.7 472.06
750 0 56.4924 15.7189 888 116.438 1185.35 467.011
751 0 58.1812 15.6236 909 116.105 1184.77 468.414
752 0 60.5422 13.792 835 117.295 1184.31 465.951
753 0 62.6053 13.082 819 120.028 1184.66 461.762
754 0 66.5125 14.0124 932 118.395 1185.76 459.472
755 0 66.559 16.5117 1099 114.749 1184.41 457.97
756 0 68.707 13.1719 905 119.855 1183.3 454.718
757 0 70.4858 14.1872 1000 118.45 1184.43 455.094
758 0 73.366 12.9079 947 121.741 1184.73 451.024
759 0 75.8245 12.9905 985 121.035 1185.3 450.33
760 0 79.5195 15.3799 1223 115.502 1184.77 450.097
761 0 82.694 16.7001 1381 114.734 1185.89 443.938
762 0 84.6656 15.0829 1277 116.901 1185.83 447.146
763 0 88.1013 15.1303 1333 118.254 1187.34 444.365
764 0 85.0491 12.193 1037 124.935 1187.89 440.554
765 0 94.7493 15.0397 1425 118.161 1189.48 438.719
766 0 96.0308 15.1722 1457 118.176 1189.03 437.848
767 0 99.7445 14.1662 1413 120.318 1189.49 434.613
768 1 57.7524 13.6271 787 115.964 1189.16 458.734
769 0 58.4038 11.4034 666 122.372 1190.73 455.8
770 0 60.7008 13.6901 831 119.86 1191.22 454.952
771 0 60.7736 11.6333 707 121.03 1191.25 453.216
772 0 64.6107 11.9949 775 122.672 1190.35 454.43
773 0 66.5419 12.3982 825 120.565 1191.42 454.239
774 0 66.5419 12.3531 822 135.967 1192.4 454.148
775 0 70.6067 12.6334 892 118.783 1191.87 453.657
776 0 71.697 11.3952 817 121.597 1192.13 453.54
777 0 72.6252 10.1342 736 124.348 1191.62 453.341
778 0 75.6459 12.77 966 120.11 1191.83 449.902
779 0 82.8617 13.1786 1092 118.232 1191.66 452.368
780 0 83.5516 13.9435 1165 117.427 1191.34 451.951
781 0 83.8404 10.7585 902 122.996 1191.15 449.887
782 0 90.8432 14.4645 1314 116.878 1190.26 447.779
783 0 93.875 17.0866 1604 112.594 1190.74 450.45
784 0 93.8831 17.1277 1608 120.307 1191.73 450.593
785 0 98.5503 12.9781 1279 120.496 1188.26 443.023
786 0 101.537 13.3646 1357 120.053 1187.68 437.59
787 0 101.538 13.3842 1359 128.749 1186.68 437.685
788 1 55.3096 6.92466 383 113.141 1186.13 471.616
789 0 58.1322 11.3362 659 110.108 1187.06 467.786
790 0 58.1322 11.2158 652 112.56 1187.07 467.73
791 0 62.2961 10.2575 639 113.02 1189.06 461.778
792 0 61.2805 7.8002 478 117.245 1187.88 459.944
793 0 65.2243 10.7475 701 111.73 1188.39 459.385
794 0 70.1989 11.2395 789 109.221 1187.72 458.179
795 0 72.1441 11.2414 811 110.201 1186.86 457.113
796 0 72.2751 10.46 756 112.284 1187.08 450.808
797 0 72.2737 8.92441 645 115.228 1187.97 445.82
798 0 80.4456 12.3437 993 106.947 1187.85 456.632
799 0 81.4666 13.9321 1135 108.435 1187.71 447.715
800 0 82.4298 9.45046 779 115.272 1186.69 445.795
801 0 84.3615 12.8969 1088 111.907 1187.54 444.791
802 0 87.292 10.1728 888 117.223 1186.62 439.832
803 0 91.2045 11.0192 1005 115.883 1187.14 438.915
804 0 95.3468 13.54 1291 112.019 1186.79 438.188
805 1 53.171 7.01511 373 113.772 1186.78 458.954
806 0 55.1871 9.45872 522 109.987 1186.94 458.971
807 0 56.1108 9.73075 546 111.634 1188.5 456.288
808 0 56.0993 10.7666 604 109.52 1190.77 456.846
809 0 56.0911 11.6596 654 103.462 1190.93 460.833
810 0 58.1046 9.70663 564 106.188 1191.34 457.934
811 0 60.0474 6.92786 416 108.043 1191.25 462.392
812 0 59.0845 7.98856 472 108.737 1191.42 457.985
813 0 64.0606 10.8179 693 104.088 1192.5 459.455
814 0 65.1384 7.93694 517 106.845 1192.64 461.975
815 0 68.0972 6.44667 439 106.451 1192.75 465.444
816 1 136.682 10.0818 1378 116.249 1193.55 423.763
817 0 136.682 10.0891 1379 137.325 1193.53 423.551
818 0 141.919 7.68746 1091 120.947 1192.95 421.046
819 0 151.001 12.2053 1843 115.616 1193.22 414.685
820 1 337.805 10.4113 3517 128.682 1193.48 357.458
821 0 337.758 10.398 3512 152.136 1193.47 357.049
822 1 165.895 9.24681 1534 119.773 1193.8 410.054
823 1 131.984 11.5468 1524 112.958 1193.78 433.261
824 1 45.1211 10.6824 482 101.89 1193.99 475.199
825 0 46.0649 8.90048 410 100.363 1192.32 481.407
826 0 48.0579 10.3209 496 102.361 1193.48 472.514
827 0 49.0541 13.0061 638 99.2492 1192.09 471.248
828 0 50.1269 8.33884 418 105.72 1192.22 475.258
829 1 150.476 10.1744 1531 122.695 1190.03 414.507
830 1 160.789 4.57742 736 122.812 1189.35 442.292
831 0 162.811 9.05958 1475 121.714 1188.87 423.999
832 0 162.404 12.5674 2041 118.369 1188.41 417.883
833 0 170.118 10.9806 1868 121.041 1188.07 413.107
834 0 170.848 11.0566 1889 124.024 1187.78 401.043
835 0 175.087 9.00696 1577 125.732 1187.88 406.812
836 0 177.352 10.8316 1921 122.718 1187.49 408.859
837 1 252.825 11.8778 3003 126.634 1188.59 361.085
838 0 257.854 13.2439 3415 123.726 1186.76 372.476
839 0 258.792 8.03349 2079 127.793 1185.9 385.035
840 0 257.69 9.36009 2412 126.917 1185.92 378.848
841 0 257.713 10.923 2815 126.588 1186.89 368.925
842 1 155.087 13.5085 2095 113.449 1187.27 418.179
843 0 159.622 12.7489 2035 116.879 1186.77 403.435
844 0 161.471 11.8783 1918 115.4 1187.05 415.694
845 1 80.1049 12.0717 967 106.986 1188.07 455.471
846 0 87.0909 14.2954 1245 105.529 1186.49 445.635
847 0 86.285 11.914 1028 110.289 1188.42 447.331
848 0 88.1421 12.7975 1128 109.887 1190.78 446.017
849 0 88.1254 11.756 1036 113.741 1190.69 446.019
850 1 49.0631 12.2699 602 114.452 1191.16 461.377
851 0 51.112 13.265 678 114.248 1189.33 461.469
852 0 54.637 13.5988 743 112.261 1193.23 460.494
853 0 53.1687 16.0433 853 106.611 1191.92 461.576
854 0 56.1086 13.26 744 111.312 1194.78 464.345
855 0 54.1053 10.535 570 118.172 1194.74 463.833
856 0 58.0629 15.7243 913 108.169 1195.42 460.813
857 0 56.1187 11.2084 629 118.324 1195.57 462.24
858 0 59.0959 13.2666 784 115.622 1195.74 459.052
859 0 59.0959 13.182 779 132.906 1195.72 459.098
860 0 61.1364 12.0223 735 118.763 1195.3 462.879
861 0 64.08 14.3883 922 114.483 1196.54 459.726
862 0 65.1615 12.6609 825 119.184 1195.56 460.376
863 0 68.174 12.9668 884 117.283 1195.52 461.783
864 0 69.151 14.0996 975 116.649 1194.07 460.502
865 0 73.1296 14.3581 1050 115.968 1194.48 460.192
866 0 75.1067 14.486 1088 116.919 1195.17 458.075
867 0 75.1067 14.5526 1093 138.163 1196.19 458.088
868 0 80.1262 12.5302 1004 120.107 1194.09 457.119
869 0 84.0831 14.0337 1180 116.937 1193.67 457.378
870 0 85.2386 15.4038 1313 116.163 1193.16 453.478
871 1 45.0606 10.2529 462 123.203 1193.45 476.881
872 0 47.2071 12.3922 585 119.662 1191.88 475.643
873 0 51.2706 13.6531 700 117.269 1191.35 474.244
874 0 49.2899 13.6539 673 138.175 1191.2 473.712
875 0 53.0441 14.5916 774 116.099 1191.47 469.584
876 0 54.0394 13.9343 753 116.888 1191.52 472.44
877 0 56.045 14.524 814 116.658 1190.17 465.195
878 0 58.149 12.1584 707 120.242 1190.18 466.201
879 0 60.0364 13.1753 791 118.767 1188.89 465.437
880 0 61.0784 15.4555 944 115.198 1189.76 464.233
881 0 62.0835 13.9973 869 117.892 1188.16 462.713
882 0 65.0983 12.5503 817 120.778 1187.88 459.818
883 0 69.0771 15.9966 1105 114.156 1188.16 459.09
884 0 69.1154 14.6277 1011 117.112 1188.26 458.976
885 0 70.1085 13.7929 967 119.152 1188.03 455.472
886 0 74.1091 14.3707 1065 117.778 1188.67 455.405
887 0 79.1571 13.9343 1103 117.887 1189.53 452.653
888 0 77.1045 13.5012 1041 120.307 1188.98 451.047
889 0 77.0927 13.5292 1043 143.502 1188.99 451.093
890 0 83.1539 15.9103 1323 117.451 1189.4 448.695
891 0 89.3113 18.7882 1678 110.86 1190.7 447.386
892 0 93.2094 23.3238 2174 103.82 1190.66 441.342
893 0 95.1619 19.8504 1889 109.588 1191.44 435.816
894 0 95.1384 16.7335 1592 116.253 1192.88 439.209
895 0 95.1931 15.6839 1493 119.402 1192.52 439.988
896 0 99.1977 14.829 1471 120.287 1193 440.3
897 1 55.073 12.1475 669 122.753 1193.84 461.737
898 0 55.073 12.1657 670 147.601 1194.85 461.8
899 0 57.3835 12.948 743 120.401 1193.67 461.746
900 0 62.4759 15.558 972 114.955 1193.5 456.273
901 0 62.318 13.9607 870 118.693 1193.84 460.666
902 0 64.4127 16.3167 1051 114.685 1194.23 457.04
903 0 65.0939 12.3975 807 120.778 1191.09 461.34
904 0 67.1643 16.7351 1124 111.756 1192.53 464.573
905 0 67.1643 16.9435 1138 129.716 1193.51 464.622
906 0 74.182 15.0171 1114 114.587 1191.34 458.34
907 0 75.1103 17.2813 1298 110.821 1191.3 460.824
908 0 74.082 13.4176 994 119.937 1191.02 458.53
909 0 77.2126 13.6247 1052 118.154 1191.06 460.054
910 0 81.2501 15.6677 1273 114.104 1190.46 458.84
911 0 85.1122 16.6956 1421 112.631 1190.52 456.937
912 0 87.2797 16.3727 1429 107.954 1190.42 461.335
913 0 88.3512 12.2239 1080 114.738 1188.51 459.127
914 0 90.2528 13.3181 1202 114.104 1189.21 454.295
915 0 95.294 16.2445 1548 109.27 1189.53 454.848
916 0 94.3765 10.67 1007 116.638 1187.9 457.558
917 0 96.2531 13.7762 1326 109.204 1187.06 457.05
918 0 104.188 15.5584 1621 106.882 1186.44 447.39
919 0 106.324 9.9695 1060 113.444 1186.77 451.711
920 1 56.1013 10.3028 578 110.509 1185.91 467.971
921 0 59.0727 13.5596 801 106.085 1186.16 468.402
922 0 63.4847 13.2945 844 108.911 1186.86 457.171
923 0 63.3868 13.8199 876 114.842 1185.58 462.258
924 0 66.2692 11.242 745 118.366 1185.27 458.558
925 0 68.3534 14.2495 974 113.839 1185.05 459.722
926 0 70.4958 12.6107 889 115.331 1185.17 456.679
927 0 74.4187 14.3647 1069 111.466 1185.61 457.216
928 0 73.4251 10.6367 781 121.887 1186.26 449.528
929 0 78.3777 14.1622 1110 114.711 1186.93 451.859
930 0 81.8654 9.56448 783 121.715 1185.82 450.3
931 0 83.4514 13.0375 1088 117.801 1186.85 444.163
932 0 87.3721 15.8632 1386 113.127 1186.61 441.812
933 0 93.5597 16.8342 1575 110.432 1188.09 439.884
934 0 93.7903 13.5728 1273 116.713 1188.19 441.02
935 0 94.5538 13.495 1276 118.221 1188.98 433.914
936 1 51.4614 11.737 604 112.695 1189.42 463.899
937 0 52.5102 11.5406 606 114.508 1189.87 459.226
938 0 53.2776 11.487 612 108.68 1192.15 458.776
939 0 56.7209 13.4518 763 110.467 1191.99 456.418
940 0 54.4576 11.3299 617 115.109 1191.27 454.984
941 0 55.706 11.9736 667 117.049 1191.81 454.753
942 0 62.4348 12.0766 754 116.601 1192.2 450.338
943 0 65.6334 14.002 919 112.453 1192.19 452.817
944 0 65.4406 14.028 918 112.899 1193.15 452.912
945 0 68.6844 13.9479 958 111.355 1192.98 453.201
946 0 70.4806 13.7485 969 112.834 1191.15 456.255
947 0 73.332 16.5549 1214 107.887 1191.92 454.208
948 0 74.3968 15.955 1187 109.136 1192.03 456.774
949 0 77.3744 14.5526 1126 110.394 1192.62 455.049
950 0 78.3571 17.433 1366 106.067 1192.57 456.359
951 0 82.3893 14.6135 1204 110.262 1191.94 453.395
952 0 83.4835 13.9788 1167 111.861 1192.05 455.835
953 0 85.5194 12.4299 1063 115.697 1191.5 452.443
954 0 87.5754 13.3599 1170 115.329 1191.6 453.87
955 0 90.488 12.6315 1143 117.502 1190.37 449.579
956 0 94.5453 12.2798 1161 116.956 1190.9 456.167
957 0 98.6312 16.7087 1648 110.938 1190.1 446.883
958 0 98.4133 12.5593 1236 115.232 1188.38 437.756
959 0 101.37 11.2361 1139 115.277 1188.37 443.552
960 1 56.1794 13.7061 770 113.173 1186.59 472.996
961 0 58.1939 13.1285 764 108.452 1185.44 472.421
962 1 172.872 13.6517 2360 118.193 1185.37 414.833
963 1 116.846 10.0902 1179 123.226 1187.07 444.675
964 0 122.751 13.6455 1675 117.26 1185.1 437.69
965 0 127.604 14.7018 1876 116.562 1185.68 426.712
966 0 134.988 16.4534 2221 112.958 1185.46 431.933
967 0 134.548 16.1058 2167 115.284 1185.59 425.905
968 0 138.762 13.9664 1938 119.055 1185.75 421.891
969 1 73.4985 12.1907 896 111.439 1185.06 457.007
970 0 74.3934 11.95 889 113.391 1183.57 453.773
971 0 75.2911 12.3255 928 112.818 1184.52 453.474
972 0 79.2431 12.9475 1026 111.847 1184.16 439.961
973 0 83.3091 13.3239 1110 109.683 1185.37 440.941
974 0 86.4145 12.3706 1069 111.8 1184.53 439.108
975 0 89.3625 15.4315 1379 109.357 1185.38 432.752
976 0 87.2813 10.724 936 117.858 1186.81 428.274
977 0 91.3585 11.0553 1010 115.823 1186.76 432.885
978 1 54.4798 14.4457 787 107.001 1185.92 455.732
979 0 53.2188 14.431 768 107.272 1187.65 456.301
980 0 53.1628 11.0604 588 113.611 1187.52 459.056
981 0 56.1169 15.539 872 107.173 1188.68 456.614
982 0 57.2112 11.7634 673 113.587 1187.79 458.81
983 0 57.1981 11.5388 660 110.674 1188.4 459.052
984 0 60.1267 11.0433 664 111.712 1189.81 454.678
985 0 64.129 13.9874 897 105.787 1189.92 456.932
986 0 66.29 15.2059 1008 105.774 1191.14 452.126
987 0 65.2219 11.1619 728 114.209 1189.66 456.269
988 0 69.1301 15.4925 1071 105.444 1190.66 458.284
989 0 70.1317 11.8064 828 112.12 1191.23 454.7
990 0 74.1706 14.2914 1060 109.093 1192.8 455.51
991 0 77.1453 13.4292 1036 110.298 1191.65 455.584
992 0 80.2672 18.0148 1446 104.82 1192.65 455.842
993 0 83.3681 15.5335 1295 108.188 1192.41 450.286
994 0 85.4051 15.3152 1308 110.851 1192.27 453.275
995 0 88.2638 11.9301 1053 114.389 1191.96 453.243
996 1 52.3509 12.1679 637 109.028 1189.43 474.025
997 0 50.3687 11.6342 586 117.771 1190.31 471.276
998 0 54.4853 13.3981 730 114.477 1190.96 469.641
999 0 54.6171 13.8052 754 112.215 1191.7 471.663
1000 0 54.4724 11.3268 617 116.768 1190.19 472.371
1001 0 56.4335 12.0673 681 117.351 1189.26 462.242
1002 0 58.5174 13.3977 784 114.346 1188.3 469.494
1003 0 58.7309 10.8972 640 119.973 1188.21 464.711
1004 0 62.5143 14.1088 882 112.909 1186.5 468.857
1005 0 61.4605 15.2456 937 114.475 1186.39 460.661
1006 0 65.6945 18.038 1185 107.671 1186.43 466.689
1007 0 67.5702 15.5246 1049 112.634 1186.59 464.978
1008 0 70.5369 15.382 1085 113.875 1186.24 459.369
1009 0 70.5656 15.8859 1121 114.154 1185.77 456.446
1010 0 74.4314 14.6309 1089 114.504 1186 459.192
1011 0 75.7669 11.9841 908 120.135 1186.05 453.65
1012 0 77.4614 12.8838 998 118.969 1185.22 450.99
1013 0 79.6901 15.4724 1233 115.79 1186.08 447.063
1014 0 83.4273 16.5054 1377 113.771 1185.53 449.373
1015 1 43.3167 10.2963 446 123.166 1179.4 454.953
1016 0 47.2489 12.8469 607 118.575 1180.18 457.969
1017 0 49.1864 13.52 665 113.874 1180.95 467.594
1018 0 51.146 18.0073 921 107.403 1184.8 464.465
1019 0 49.0867 12.3048 604 121.608 1189.49 459.344
1020 0 53.0895 11.6407 618 121.429 1189.59 461.316
1021 0 54.0508 14.9304 807 116.393 1189.2 459.971
1022 0 52.1133 13.2596 691 121.582 1189.24 458.013
1023 0 60.1996 12.6745 763 119.558 1190.71 458.265
1024 0 57.1573 11.757 672 123.371 1190.95 457.271
1025 0 61.1114 11.8309 723 122.365 1191.96 457.783
1026 0 64.131 14.0961 904 118.263 1193.37 455.137
1027 0 67.1994 13.4525 904 118.221 1194.74 456.719
1028 0 71.2321 14.8388 1057 116.353 1194.81 455.03
1029 0 73.0874 14.1064 1031 117.235 1195.3 453.461
1030 0 73.0874 14.1338 1033 141.501 1196.3 453.267
1031 0 72.0684 12.2522 883 121.635 1197.08 454.812
1032 0 74.2338 14.8719 1104 117.721 1196.89 455.726
1033 0 80.1955 16.0233 1285 114.687 1197.87 453.597
1034 0 82.1339 17.3254 1423 113.185 1196.45 453.267
1035 0 80.3104 12.1528 976 123.995 1195.92 450.339
1036 0 88.5272 15.1366 1340 115.334 1196.41 457.487
1037 0 87.2247 12.8863 1124 121.97 1193.52 450.802
1038 0 90.3534 13.746 1242 121.618 1196.01 447.416
1039 0 87.4727 11.4093 998 126.994 1193.79 448.351
1040 0 98.565 13.8183 1362 121.685 1193.43 447.712
1041 0 99.5637 15.5278 1546 120.162 1192.4 446.861
1042 0 105.513 16.3582 1726 118.55 1191.47 445.563
1043 0 105.811 12.4656 1319 126.359 1190.27 443.186
1044 1 56.234 13.1593 740 122.276 1190.13 459.341
1045 0 59.3899 13.1335 780 122.309 1188.46 456.245
1046 0 60.3193 12.5167 755 123.57 1188.71 464.095
1047 0 62.2515 14.8269 923 116.19 1189.21 461.236
1048 0 64.1009 12.6831 813 118.268 1188.9 461.769
1049 0 65.2433 9.91672 647 122.308 1188.01 467.682
1050 0 68.1303 16.5125 1125 111.773 1187.87 462.811
1051 0 70.0732 12.9151 905 117.65 1186.34 461.96
1052 0 73.1189 15.6321 1143 113.202 1187.15 463.768
1053 0 75.1506 15.4091 1158 113.299 1186.86 458.877
1054 0 75.1506 15.5155 1166 128.179 1185.83 458.852
1055 0 78.1389 14.4742 1131 114.428 1187.31 457.408
1056 0 83.1242 16.1566 1343 112.222 1186.34 454.989
1057 0 85.1272 17.0686 1453 111.964 1186.82 452.014
1058 0 93.3855 19.0608 1780 107.996 1186.83 448.526
1059 0 94.1701 21.8434 2057 104.982 1186.37 438.269
1060 0 94.3171 14.5891 1376 115.39 1187.35 449.844
1061 0 95.299 15.0894 1438 117.222 1188.3 441.618
1062 0 98.2288 13.1224 1289 121.209 1187.63 443.413
1063 0 98.2288 13.2039 1297 141.141 1186.62 443.334
1064 1 53.1621 13.2425 704 119.426 1188.77 463.219
1065 0 55.0987 12.9586 714 118.202 1190.13 463.398
1066 0 56.1062 13.3497 749 119.887 1190.21 458.143
1067 0 57.2033 15.4012 881 115.236 1188.61 455.067
1068 0 59.2201 14.691 870 117.274 1188.32 456.534
1069 0 61.2858 15.0443 922 116.371 1189.24 455.098
1070 0 62.3324 12.9788 809 121.48 1190.65 452.775
1071 0 66.1906 14.9568 990 115.684 1190.66 456.063
1072 0 67.1424 13.5384 909 119.133 1190.62 453.536
1073 0 70.2418 15.4039 1082 116.498 1191.22 453.212
1074 0 73.2521 15.7129 1151 115.179 1192.64 453.94
1075 0 75.3655 14.2505 1074 117.734 1192.38 455.946
1076 0 77.2642 18.1326 1401 111.307 1192.23 457.453
1077 0 78.1425 12.3492 965 121.064 1191.77 454.863
1078 0 80.5115 14.5693 1173 117.685 1193.05 454.461
1079 0 84.4567 13.3086 1124 121.123 1193.62 444.965
1080 0 85.8257 15.4033 1322 118.058 1194.21 445.887
1081 0 87.4386 14.2271 1244 119.145 1192.51 452.079
1082 1 48.3542 12.9048 624 118.553 1192.29 473.726
1083 0 51.3241 9.70304 498 123.267 1190.69 475.259
1084 0 54.3557 13.8348 752 116.507 1191.57 475.191
1085 0 54.1958 11.2186 608 122.844 1191.82 476.867
1086 0 59.1335 11.1781 661 121.962 1191.03 475.664
1087 0 58.1577 12.8272 746 120.748 1190.28 474.786
1088 0 63.0399 14.2132 896 116.735 1190.59 474.416
1089 0 64.2139 15.3238 984 115.483 1189.49 469.394
1090 0 65.2476 18.8666 1231 112.041 1189.32 466.834
1091 0 66.2537 12.9049 855 121.58 1188.13 467.963
1092 0 67.3318 14.6587 987 117.91 1187.1 471.265
1093 0 72.2572 14.0332 1014 118.957 1187.76 465.464
1094 0 72.3152 13.1231 949 120.966 1187.48 462.923
1095 0 74.2939 14.4292 1072 119.483 1187.07 460.704
1096 0 75.3526 13.2975 1002 122.111 1186.34 456.982
1097 0 78.3666 12.9647 1016 122.144 1186.43 457.251
1098 0 81.2101 13.2373 1075 121.775 1186.75 454.878
1099 0 83.3669 14.2623 1189 121.114 1185.94 451.555
1100 0 85.1798 14.8744 1267 121.339 1185.77 451.277
1101 0 90.3056 13.9748 1262 121.518 1185.95 451.97
1102 0 92.4837 14.4674 1338 121.407 1186.62 447.981
1103 1 49.1943 9.371 461 125.219 1185.98 466.15
1104 0 53.5007 11.6073 621 120.13 1184.03 462.219
1105 0 54.1994 15.0371 815 113.388 1184.1 460.277
1106 0 53.1313 13.0808 695 117.176 1184.24 459.282
1107 0 58.0866 16.4065 953 111.299 1186.42 462.948
1108 0 60.0981 16.1902 973 112.629 1185.5 458.777
1109 0 62.151 15.0279 934 113.958 1187.19 459.884
1110 0 65.2392 15.8647 1035 113.3 1187.83 454.176
1111 0 66.1353 13.7143 907 117.022 1186.84 457.443
1112 0 67.1492 13.0903 879 119.288 1187.91 456.805
1113 0 68.1065 17.2524 1175 112.649 1189.06 455.487
1114 0 71.2284 16.7068 1190 112.081 1189.35 459.06
1115 0 73.1926 22.9531 1680 105.36 1190.5 459.021
1116 0 74.0894 14.3205 1061 119.238 1189.68 453.868
1117 0 76.195 11.6281 886 123.683 1190.55 455.493
1118 0 80.2412 12.1509 975 122.722 1189.86 455.263
1119 0 83.3098 13.7079 1142 120.67 1191.28 452.644
1120 0 83.1754 13.0207 1083 122.547 1190.93 454.416
1121 0 88.215 15.0428 1327 119.555 1190.79 455.083
1122 0 89.2042 12.0958 1079 125.325 1190.8 453.918
1123 0 89.1992 12.8589 1147 126.031 1191.43 451.703
1124 0 94.308 14.336 1352 122.75 1190.97 453.014
1125 0 97.2076 15.4412 1501 122.354 1191 450.396
1126 0 99.1816 14.0651 1395 124.966 1189.88 451.561
1127 0 103.5 13.5943 1407 126.068 1189.49 452.264
1128 0 105.311 13.199 1390 125.757 1190.12 455.702
1129 0 108.487 13.3748 1451 126.548 1188.08 453.05
1130 0 115.464 15.1216 1746 125.026 1187.86 443
1131 0 118.607 14.8726 1764 127.418 1187.61 440.769
1132 0 122.795 13.5592 1665 130.185 1187.38 441.082
1133 0 124.752 11.2062 1398 135.499 1186.99 435.489
1134 0 126.699 12.1785 1543 134.703 1187.43 429.229
1135 0 132.719 13.7282 1822 132.348 1184.73 431.316
1136 1 81.2355 12.7407 1035 126.104 1186.21 459.552
1137 0 82.2653 12.1315 998 122.035 1184.77 454.464
1138 0 81.2442 11.3854 925 133.583 1184.72 453.279
1139 1 143.43 11.8107 1694 130.506 1184.28 420.3
1140 0 148.529 13.1153 1948 128.114 1183.97 413.838
1141 0 153.385 13.3325 2045 128.187 1183.25 410.479
1142 0 159.842 15.0712 2409 123.614 1184.01 415.487
1143 0 163.384 14.0589 2297 124.827 1183.05 417.11
1144 0 168.708 14.1546 2388 126.269 1182.71 408.639
1145 0 176.515 19.2392 3396 117.847 1182.54 401.219
1146 0 179.386 15.6478 2807 123.1 1184.22 404.571
1147 0 185.534 14.0783 2612 127.214 1184.06 395.166
1148 1 236.921 11.4806 2720 134.427 1184.75 374.59
1149 1 196.531 11.703 2300 127.754 1184.76 398.398
1150 0 200.756 14.5002 2911 126.617 1186.84 379.479
1151 0 207.614 11.7863 2447 130.411 1187.72 386.504
1152 0 216.48 16.1724 3501 124.241 1186.71 378.94
1153 0 223.695 16.527 3697 124.014 1188.72 375.904
1154 0 221.713 14.8571 3294 147.999 1190.79 370.54
1155 1 59.1343 12.1757 720 116.426 1187.57 457.957
1156 0 60.1292 12.7559 767 115.851 1188.41 458.847
1157 0 62.1998 14.5499 905 113.936 1188.08 460.419
1158 0 64.184 11.7319 753 117.582 1188.88 458.685
1159 0 66.1213 13.3996 886 115.9 1189.07 456.011
1160 0 68.199 12.2582 836 117.255 1191.31 457.722
1161 0 72.2679 11.6096 839 118.156 1189.83 457.108
1162 0 73.2667 11.8881 871 117.92 1191.72 459.148
1163 0 75.1383 14.2404 1070 111.33 1191.02 461.118
1164 0 80.1111 17.9126 1435 104.678 1191.34 461.596
1165 1 41.1497 9.6234 396 115.715 1191.91 480.172
1166 0 42.2241 9.47326 400 116.288 1191.53 479.438
1167 0 43.0889 9.25993 399 116.932 1191.43 479.288
1168 0 46.0503 14.4624 666 111.41 1190.61 477.254
1169 0 46.096 13.2983 613 114.356 1190.02 475.979
1170 0 48.0623 11.4019 548 116.217 1189.08 479.684
1171 0 48.0457 9.24121 444 121.248 1187.84 478.968
1172 0 51.1194 12.6958 649 114.646 1187.81 479.347
1173 0 50.0554 10.9479 548 120.053 1187.35 476.203
1174 0 56.1346 10.8133 607 117.493 1186.03 479.193
1175 0 57.1354 11.604 663 118.501 1187.18 476.992
1176 0 59.108 13.3823 791 114.633 1186.05 474.468
1177 0 60.1373 12.8207 771 116.63 1184.53 469.746
1178 0 63.1934 17.8183 1126 106.822 1183.39 471.742
1179 0 62.0697 13.9521 866 113.224 1183.78 473.112
1180 0 65.2626 14.5412 949 112.503 1183.16 468.534
1181 0 64.1174 12.3367 791 116.44 1184.33 470.625
1182 1 97.8271 18.5429 1814 98.0783 1182.84 457.954
1183 0 90.7784 23.4307 2127 94.599 1182.5 449.331
1184 0 82.1689 21.2002 1742 99.4512 1182.7 448.973
1185 0 83.2691 19.2869 1606 103.345 1182.56 450.76
1186 0 86.4555 26.6495 2304 95.9162 1181.75 446.421
1187 0 85.3328 23.3556 1993 100.255 1181.81 448.627
1188 0 85.3789 18.494 1579 106.782 1182.7 447.848
1189 0 83.3262 21.8419 1820 104.089 1182.76 448.962
1190 0 90.5405 17.7379 1606 108.929 1183.74 444.961
1191 0 87.5343 13.6975 1199 117.87 1184.4 438.499
1192 0 89.4303 16.0684 1437 114.049 1185.62 435.41
1193 0 92.6815 15.03 1393 115.121 1187.05 438.469
1194 1 57.4286 11.0398 634 120.32 1186.82 454.267
1195 0 59.1829 12.3684 732 117.649 1189.03 453.413
1196 0 59.3457 12.1828 723 115.573 1187.8 458.232
1197 0 61.204 11.9763 733 114.458 1190.08 457.858
1198 0 65.1544 12.9078 841 112.096 1190.55 456.839
1199 0 65.1446 12.7102 828 112.897 1190.45 455.327
1200 0 70.2493 25.6373 1801 96.7596 1190.23 454.412
1201 0 69.3721 13.9393 967 111.592 1192.04 454.542
1202 0 73.4318 14.7756 1085 109.42 1191.82 456.488
1203 0 74.1651 15.3576 1139 110.439 1192.38 455.078
1204 0 78.2988 14.6235 1145 110.528 1192.19 455.531
1205 0 79.2975 15.5995 1237 109.309 1192.24 454.619
1206 0 81.6966 11.5305 942 115.368 1193.63 457.018
1207 0 86.8507 15.4979 1346 110.821 1193.26 448.115
1208 0 89.4247 15.2754 1366 111.424 1193.1 447.212
1209 0 92.4005 13.9177 1286 113.019 1193.39 447.809
1210 1 49.2144 12.0696 594 116.465 1191.82 467.569
1211 0 51.231 14.3858 737 110.939 1192.57 474.186
1212 0 53.357 16.399 875 102.759 1189.76 477.815
1213 0 54.3198 16.4028 891 103.536 1190.09 475.229
1214 0 57.1378 17.3615 992 101.795 1188.92 476.127
1215 0 57.1401 11.358 649 111.163 1189.1 474.949
1216 0 59.2727 13.3282 790 109.12 1187.93 469.267
1217 0 61.2327 18.6828 1144 101.969 1186.66 468.752
1218 0 63.1684 13.5986 859 108.983 1186.04 468.886
1219 0 65.2391 23.8814 1558 96.2285 1186.44 469.272
1220 0 67.482 13.4703 909 108.87 1185.11 466.166
1221 0 69.4791 12.9823 902 110.524 1184.93 463.277
1222 0 71.367 14.7407 1052 107.159 1183.9 458.438
1223 0 74.2186 17.7314 1316 103.983 1184.99 459.027
1224 0 76.4672 15.5884 1192 105.956 1183.84 462.201
1225 0 76.2697 17.1628 1309 106.167 1182.53 456.944
1226 0 80.5801 19.0494 1535 103.157 1182.52 448.218
1227 0 81.5242 17.1973 1402 108.47 1182.77 438.059
1228 0 84.476 15.8388 1338 111.274 1183.01 435.445
1229 0 90.1626 16.5701 1494 107.999 1183.27 439.978
1230 0 89.468 14.2062 1271 113.354 1183.34 438.87
1231 0 96.709 16.348 1581 108.612 1184.08 441.887
1232 0 98.3395 17.1447 1686 109.056 1184.17 440.685
1233 1 51.5604 11.5011 593 111.098 1183.38 462.624
1234 0 53.4648 14.4207 771 106.235 1183.98 463.636
1235 0 53.2749 12.9329 689 111.45 1184.19 458.498
1236 0 57.608 15.5013 893 107.293 1186.04 460.487
1237 0 58.1724 14.1476 823 112.893 1188.17 453.221
1238 0 61.4157 11.9351 733 115.318 1188.97 442.48
1239 0 64.2613 13.3517 858 114.521 1189.97 442.092
1240 0 65.1 14.6544 954 114.53 1190.39 440.647
1241 0 67.374 14.3824 969 114.38 1191.29 444.55
1242 0 67.374 14.4863 976 134.086 1192.24 444.619
1243 0 67.3772 10.8791 733 122.793 1191.71 446.348
1244 0 72.2569 20.178 1458 106.851 1191.98 454.071
1245 0 75.4777 14.2691 1077 115.495 1192.93 455.598
1246 0 75.6163 18.6336 1409 110.535 1194.14 454.033
1247 0 78.5357 13.4461 1056 120.009 1195.22 450.254
1248 0 84.5765 11.8591 1003 121.217 1193.95 452.479
1249 0 85.5148 15.2956 1308 116.374 1194.51 450.297
1250 0 88.3552 19.9536 1763 111.353 1193.07 448.123
1251 0 90.3352 12.6861 1146 121.866 1195.06 453.282
1252 0 89.5573 12.7181 1139 124.668 1192.85 448.298
1253 0 97.4455 14.2233 1386 120.508 1193.27 452.307
1254 0 96.4514 15.2719 1473 120.391 1192.76 452.221
1255 0 101.716 13.7835 1402 122.96 1191.82 446.714
1256 0 103.331 12.61 1303 125.419 1192.06 447.068
1257 0 109.409 14.7886 1618 120.721 1191.48 449.999
1258 0 111.774 14.2968 1598 123.127 1190.65 444.113
1259 0 118.459 16.3179 1933 118.931 1190.36 445.771
1260 1 70.1793 11.1856 785 118.938 1189.14 470.889
1261 0 71.1548 12.1144 862 118.448 1188.26 469.287
1262 0 73.3993 13.0655 959 116.171 1186.41 472.44
1263 0 75.0872 13.6242 1023 114.452 1186.85 463.557
1264 0 77.2675 11.389 880 119.082 1186.39 458.245
1265 0 79.2498 14.3975 1141 114.953 1187 455.329
1266 0 82.2927 16.7573 1379 111.284 1185.7 455.908
1267 0 86.2382 16.4196 1416 111.45 1186.45 454.482
1268 0 86.2382 16.3965 1414 123.231 1187.46 454.598
1269 0 91.287 13.8903 1268 115.987 1185.38 448
1270 0 93.5055 12.3843 1158 118.099 1185.27 445.226
1271 0 96.3244 16.3406 1574 112.227 1185.21 449.975
1272 0 98.4633 12.2685 1208 119.48 1186.06 443.887
1273 0 101.381 13.9671 1416 117.243 1185.32 440.279
1274 0 105.25 15.0119 1580 116.213 1186.29 438.917
1275 0 106.549 11.7693 1254 121.766 1185.49 429.339
1276 0 112.297 15.0404 1689 117.483 1185.99 428.78
1277 1 66.278 10.0939 669 116.42 1186.68 457.351
1278 0 67.2803 11.1771 752 115.297 1186.07 457.047
1279 0 67.2151 13.7023 921 113.098 1187.66 450.125
1280 0 70.382 13.3131 937 112.03 1188.06 449.295
1281 0 71.4178 12.3219 880 113.915 1188.99 438.209
1282 0 70.3548 10.1201 712 118.067 1190.59 437.563
1283 0 76.6395 10.6472 816 116.197 1189.23 440.21
1284 0 79.2913 13.608 1079 113.157 1191.28 440.647
1285 0 82.3964 13.4836 1111 113.402 1192 440.633
1286 0 83.6805 12.4402 1041 116.859 1192.57 434.588
1287 0 86.3162 10.531 909 119.165 1191.93 433.636
1288 0 89.5815 12.6477 1133 116.107 1192.42 438.173
1289 0 93.2799 15.4696 1443 112.199 1193.08 435.306
1290 0 95.3156 14.5621 1388 114.579 1193.41 438.974
1291 0 101.468 14.0242 1423 114.009 1194.47 441.855
1292 0 103.212 10.8127 1116 121.679 1195.03 444.644
1293 1 59.1729 6.79364 402 118.923 1194.36 462.343
1294 0 62.1257 10.6558 662 113.378 1193.66 464.296
1295 0 66.3624 13.6372 905 108.445 1193.55 465.649
1296 0 68.2715 14.6767 1002 108.664 1193.92 463.997
1297 0 70.3343 16.2936 1146 106.994 1193.5 468.277
1298 0 68.4 9.06433 620 120.268 1194.81 465.46
1299 0 72.1518 15.4951 1118 108.871 1194.19 461.852
1300 0 77.2403 13.089 1011 111.42 1192.55 464.363
1301 0 76.1674 11.1334 848 116.327 1192.1 462.81
1302 0 82.1835 11.3892 936 115.433 1190.23 457.785
1303 0 86.1101 13.3666 1151 112.705 1189.55 456.561
1304 0 88.1464 12.1843 1074 115.876 1188.42 455.554
1305 0 90.4569 14.3715 1300 113.48 1187.99 454.947
1306 0 93.5019 15.1762 1419 113.804 1187.32 450.837
1307 0 94.2725 9.76955 921 121.54 1187.74 454.682
1308 1 57.3663 11.6793 670 114.063 1185.75 470.184
1309 0 57.0744 12.0544 688 109.531 1185.51 470.708
1310 0 60.1655 11.2689 678 112.538 1185.92 466.524
1311 0 61.2368 11.7903 722 112.515 1185.12 464.769
1312 0 63.0952 14.2166 897 109.818 1185.24 461.156
1313 0 64.3911 11.7097 754 112.761 1184.45 464.024
1314 0 66.421 11.9842 796 112.917 1184.78 461.822
1315 0 66.2212 10.5404 698 116.986 1184.46 455.036
1316 0 69.3339 11.697 811 114.935 1185.08 455.211
1317 0 74.233 12.097 898 111.249 1185.39 459.382
1318 0 79.3868 15.8213 1256 107.224 1185.21 454.402
1319 0 77.3085 14.0088 1083 112.667 1185.96 448.9
1320 0 79.3192 15.1161 1199 109.142 1186.29 453.782
1321 0 81.2961 14.8716 1209 112.527 1186.49 446.39
1322 0 84.354 10.8116 912 119.404 1187.98 444.049
1323 0 87.1786 12.0213 1048 118.21 1189.73 435.005
1324 0 89.2033 11.726 1046 118.655 1191.11 438.715
1325 0 88.3195 13.1002 1157 117.184 1192.23 436.771
1326 0 94.2392 9.25305 872 120.472 1190.79 443.534
1327 0 94.2392 9.24244 871 140.467 1189.8 443.447
1328 0 101.224 13.0404 1320 117.265 1193.4 439.129
1329 0 101.224 13.0503 1321 138.024 1196.4 439.061
1330 0 107.407 12.5691 1350 118.294 1192.71 443.865
1331 1 62.3353 13.3953 835 111.097 1191.66 459.159
1332 0 64.1923 13.5219 868 109.909 1193.66 464.338
1333 0 62.3789 13.1615 821 112.223 1192.96 459.844
1334 0 66.2239 12.8504 851 112.806 1193.39 461.276
1335 0 68.4198 13.1833 902 112.445 1190.65 463.576
1336 0 68.3919 9.76723 668 116.831 1189.83 465.079
1337 0 73.4667 15.0136 1103 110.459 1189.95 461.272
1338 0 75.4168 16.7204 1261 108.155 1189.2 459.412
1339 0 77.4714 13.2049 1023 113.723 1190.21 457.275
1340 0 76.3793 10.4348 797 118.282 1189.59 457.669
1341 0 82.3584 10.6486 877 116.302 1189.21 460.764
1342 0 83.7294 11.4894 962 116.797 1189.35 457.002
1343 0 85.5685 12.9136 1105 114.694 1188.11 459.213
1344 0 94.6281 14.1184 1336 111.847 1188.05 455.799
1345 0 92.4154 12.5196 1157 116.997 1186.12 451.503
1346 0 96.5744 14.2274 1374 114.311 1186.66 449.58
1347 0 97.6908 11.5466 1128 118.613 1185.92 450.34
1348 0 97.6908 11.4545 1119 134.903 1184.93 450.34
1349 0 104.351 12.4962 1304 118.334 1185.63 447.133
1350 0 101.781 7.73227 787 124.4 1185.36 445.537
1351 0 101.47 9.58908 973 122.581 1185.2 445.544
1352 0 99.4996 7.58797 755 122.752 1183.58 451.597
1353 1 63.4142 10.0135 635 115.529 1183.42 465.083
1354 0 64.7736 11.1002 719 114.053 1182.58 458.843
1355 0 65.9841 12.2757 810 113.498 1183.97 452.14
1356 0 69.6395 14.891 1037 114.642 1184.07 458.728
1357 0 68.6692 11.8248 812 120.627 1183.61 458.165
1358 0 74.6023 15.3481 1145 113.831 1183.97 455.5
1359 0 76.4548 17.7621 1358 111.091 1183.94 448.599
1360 0 74.4312 13.0187 969 120.495 1184.88 450.207
1361 0 80.1813 12.7461 1022 118.991 1185.16 451.617
1362 0 80.6373 11.5207 929 120.59 1185.91 453.288
1363 0 86.289 14.4746 1249 112.837 1186.87 446.677
1364 0 87.2437 14.0067 1222 115.209 1186.28 439.345
1365 0 93.3582 13.1858 1231 114.766 1188.58 443.208
1366 0 94.4077 14.1832 1339 114.446 1190.66 437.964
1367 0 96.5389 14.2533 1376 115.089 1188.97 434.292
1368 0 100.593 15.3688 1546 111.643 1189.91 438.031
1369 0 101.696 12.6848 1290 116.698 1190.94 433.644
1370 0 103.69 11.6308 1206 119.387 1191.52 436.143
1371 0 105.696 14.1443 1495 129.027 1192.58 431.833
1372 0 113.652 16.1194 1832 111.68 1193 433.062
1373 0 115.7 13.2238 1530 116.419 1191.77 429.169
1374 0 119.627 12.7646 1527 115.457 1193.45 433.425
1375 0 125.65 16.2834 2046 111.56 1192.49 426.263
1376 0 126.692 12.258 1553 118.197 1193.11 422.587
1377 0 127.581 13.5209 1725 116.735 1193.23 423.668
1378 1 74.5069 9.74406 726 115.041 1193.53 456.364
1379 0 73.6486 7.59009 559 115.667 1193.06 461.392
1380 0 79.4722 13.0863 1040 111.681 1193.23 452.725
1381 0 83.3737 12.9777 1082 111.944 1193.68 452.648
1382 0 84.297 10.9612 924 113.761 1193.43 458.223
1383 0 81.3062 8.63403 702 130.689 1194.2 454.459
1384 0 93.5581 15.3167 1433 107.482 1190.71 454.638
1385 0 94.4514 16.3894 1548 106.831 1189.05 452.66
1386 0 96.3409 15.0403 1449 109.656 1187.43 448.259
1387 0 100.548 14.1425 1422 111.33 1185.74 448.821
1388 0 104.313 15.837 1652 107.921 1185.94 450.074
1389 0 106.459 13.0849 1393 113.52 1184.49 442.726
1390 0 110.233 13.8344 1525 111.338 1184.49 448.83
1391 0 112.439 11.2239 1262 115.803 1184.56 444.789
1392 0 118.311 17.437 2063 108.106 1184.87 434.999
1393 0 121.308 17.2536 2093 109.594 1184.85 433.338
1394 0 123.336 15.3726 1896 116.046 1183.92 428.525
1395 0 127.64 14.4234 1841 115.485 1182.83 430.425
1396 1 72.4021 12.0715 874 115.27 1182.8 457.483
1397 0 74.244 16.4323 1220 109.976 1181.48 450.879
1398 0 76.1219 21.1897 1613 105.52 1181.59 449.474
1399 0 77.2816 12.1633 940 121.364 1181.24 446.639
1400 0 81.3609 14.0977 1147 118.425 1181.82 444.072
1401 0 87.216 15.5476 1356 115.66 1182.5 447.135
1402 0 88.1462 15.826 1395 116.67 1182.26 441.4
1403 0 88.3029 14.79 1306 117.995 1182 438.449
1404 0 90.1884 15.1461 1366 119.079 1181.53 434.993
1405 0 92.2174 12.438 1147 123.701 1183.13 438.499
1406 0 95.3577 11.546 1101 124.633 1184.39 440.505
1407 0 98.3089 13.3559 1313 123.867 1186.3 433.171
1408 0 102.214 15.7708 1612 118.185 1186.01 436.8
1409 0 104.341 15.0276 1568 122.27 1186.52 428.151
1410 0 110.247 17.9053 1974 117.051 1186.14 429.598
1411 0 110.247 17.9506 1979 141.341 1186.15 429.587
1412 1 66.1353 7.49977 496 124.637 1187.63 456.369
1413 0 62.5538 10.1513 635 120.074 1190.27 449.931
1414 0 62.5538 10.0234 627 146.167 1190.29 449.813
1415 0 65.3394 11.8305 773 114.426 1191.49 454.061
1416 0 69.3601 12.6153 875 111.728 1192.11 456.811
1417 0 69.3572 12.6447 877 124.639 1192.12 456.721
1418 0 74.4584 12.6648 943 113.703 1191.86 453.906
1419 0 78.4177 11.9616 938 112.161 1192.41 458.858
1420 0 78.2654 10.4005 814 118.124 1193.68 455.533
1421 0 79.2627 12.591 998 115.579 1192.64 455.72
1422 0 87.2424 16.0358 1399 108.687 1192.52 453.683
1423 0 95.477 18.0881 1727 104.119 1191.84 455.614
1424 0 95.2325 18.7751 1788 104.414 1191.06 453.812
1425 0 93.3391 13.4563 1256 114.706 1191.36 450.915
1426 0 94.2545 14.7261 1388 112.516 1191.33 450.695
1427 0 97.5327 14.0158 1367 113.351 1189.94 456.221
1428 0 102.434 14.6241 1498 112.54 1190.55 453.121
1429 0 103.209 11.4525 1182 120.544 1188.79 443.224
1430 0 108.228 15.6152 1690 114.14 1188.62 448.138
1431 0 111.211 15.1064 1680 115.427 1187.53 444.052
1432 1 64.3493 13.6132 876 110.434 1187.76 468.21
1433 0 65.2046 12.3304 804 112.743 1186.57 467.73
1434 0 66.1504 12.8949 853 113.433 1186.97 466.763
1435 0 68.3738 13.748 940 109.746 1184.13 459.448
1436 0 70.3633 12.4355 875 111.713 1185.78 459.224
1437 0 70.875 14.067 997 110.459 1184.25 457.096
1438 0 73.1617 11.2627 824 116.881 1184.94 458.044
1439 0 77.1546 14.3608 1108 111.876 1183.61 459.05
1440 0 80.4422 13.2393 1065 112.895 1182.66 458.557
1441 0 80.2538 11.2269 901 117.238 1184.63 456.384
1442 0 85.3869 12.6717 1082 114.641 1184.52 451.875
1443 0 87.3919 12.6213 1103 114.94 1184.53 450.475
1444 0 88.5539 14.2399 1261 114.05 1185.53 445.084
1445 0 89.4009 12.4384 1112 118.655 1184.1 442.041
1446 0 95.3624 14.9011 1421 117.429 1186.42 442.763
1447 0 97.421 10.7677 1049 124.741 1187.19 439.177
1448 0 100.124 12.4745 1249 121.192 1186.84 444.568
1449 0 101.359 12.875 1305 123.232 1186.52 439.064
1450 1 56.1145 12.029 675 119.551 1187.71 460.047
1451 0 57.1984 14.5459 832 116.731 1188.75 461.266
1452 0 58.0901 15.8202 919 115.353 1189.54 457.183
1453 0 58.0901 15.8547 921 132.24 1190.52 457.244
1454 0 61.2093 12.5635 769 123.977 1190.18 460.29
1455 0 65.2722 12.7926 835 122.781 1190.48 461.396
1456 0 66.3868 13.9787 928 121.671 1191.75 456.609
1457 0 70.2285 13.9972 983 120.986 1192.56 455.249
1458 0 71.2183 18.1274 1291 112.81 1191.96 458.227
1459 0 71.2601 13.6121 970 123.707 1193.3 454.876
1460 0 77.37 17.3323 1341 114.553 1193.06 459.748
1461 0 78.4445 15.3102 1201 119.078 1194.82 456.567
1462 0 78.6634 12.2548 964 124.321 1194.71 458.34
1463 0 78.7321 12.2568 965 151.739 1194.73 458.155
1464 0 82.5563 14.6567 1210 122.17 1193 441.648
1465 0 86.5748 19.1511 1658 113.523 1192.48 442.853
1466 0 89.6063 17.6773 1584 116.472 1192.28 442.55
1467 0 92.5636 16.7776 1553 116.574 1192.65 450.526
1468 1 48.2775 11.7239 566 122.638 1191.45 474.062
1469 0 52.4371 14.8178 777 115.954 1191.03 476.18
1470 0 51.6095 10.7151 553 123.051 1190.73 462.392
1471 0 55.478 13.4107 744 119.493 1190.25 466.948
1472 0 58.2744 14.0542 819 115.657 1189.69 458.713
1473 0 60.2352 16.585 999 111.476 1188.46 463.691
1474 0 61.3095 13.0322 799 118.098 1187.99 460.26
1475 0 62.2165 12.3922 771 119.909 1187.94 462.682
1476 0 64.2634 12.7289 818 120.198 1187.58 460.499
1477 0 66.339 12.9034 856 121.758 1185.55 454.074
1478 0 67.3187 12.5671 846 121.48 1185.15 465.19
1479 0 69.3196 14.7289 1021 116.506 1185.22 466.463
1480 0 73.3384 13.0218 955 119.676 1183.94 463.47
1481 0 74.2632 14.6775 1090 117.036 1185.36 460.191
1482 0 76.4164 15.5726 1190 116.871 1184.54 455.333
1483 0 76.7993 10.4949 806 123.995 1184.19 456.06
1484 0 82.4421 15.3198 1263 117.347 1184.45 450.15
1485 0 84.6945 13.9206 1179 119.77 1184.84 450.493
1486 0 80.5911 11.5025 927 126.016 1184.89 446.362
1487 0 86.3769 13.881 1199 120.545 1185.3 446.929
1488 0 86.3769 13.8463 1196 146.842 1186.32 447.028
1489 0 92.5003 11.4486 1059 125.385 1186.19 444.381
1490 0 94.4051 15.2216 1437 121.214 1186.77 437.576
1491 0 100.487 15.1562 1523 119.533 1186.89 440.939
1492 0 100.627 12.9289 1301 124.63 1186.41 438.339
1493 0 103.559 13.3161 1379 123.645 1188.42 433.13
1494 0 107.256 11.1975 1201 125.435 1187.54 439.301
1495 0 109.551 12.1952 1336 127.027 1188.54 432.041
1496 0 116.612 15.8303 1846 119.075 1190.24 432.689
1497 0 118.582 14.1759 1681 123.563 1190.35 429.706
1498 0 125.49 13.3636 1677 124.021 1190.95 425.956
1499 0 128.461 14.6503 1882 121.782 1191.29 426.074
1500 1 73.1047 12.8856 942 117.354 1192.37 455.883
1501 0 75.1149 14.8572 1116 115.433 1192.4 455.858
1502 0 77.3797 15.663 1212 118.238 1191.01 450.583
1503 0 79.4092 13.5753 1078 121.878 1190.45 450.024
1504 0 83.3927 17.0878 1425 116.46 1191.4 451.488
1505 0 84.2693 17.0643 1438 117.225 1192.37 454.897
1506 0 84.4862 11.8954 1005 128.228 1191.8 447.91
1507 0 87.4959 12.1491 1063 128.667 1192.67 442.183
1508 0 91.4119 13.0836 1196 126.477 1190.81 448.202
1509 0 94.3434 14.956 1411 124.026 1192.41 447.404
1510 0 99.6595 14.4291 1438 122.346 1191.12 452.351
1511 0 100.456 15.4695 1554 123.075 1191.13 450.402
1512 0 102.535 16.4139 1683 122.131 1191.61 451.267
1513 0 107.473 16.3111 1753 123.601 1190.53 449.011
1514 0 109.449 13.6867 1498 129.866 1190.72 440.73
1515 0 112.31 16.0092 1798 126.43 1190.05 436.345
1516 0 118.543 13.4212 1591 129.436 1188.14 437.174
1517 1 67.1846 10.9847 738 124.136 1186.36 462.665
1518 0 71.3402 15.1668 1082 119.291 1184.42 457.238
1519 0 72.1028 15.8524 1143 118.907 1184.33 456.703
1520 0 75.1062 13.9003 1044 121.276 1183.58 457.313
1521 0 74.4106 10.778 802 129.082 1182.58 449.616
1522 0 80.1724 15.317 1228 119.337 1183.12 452.672
1523 0 81.0695 12.2117 990 126.391 1182.73 448.507
1524 0 85.0894 13.0098 1107 124.367 1182.79 445.535
1525 0 87.22 14.8016 1291 121.069 1183.34 443.641
1526 0 90.1319 14.6452 1320 122.402 1181.81 450.977
1527 0 91.2349 11.2019 1022 128.922 1183.19 445.482
1528 0 95.2033 13.1718 1254 125.3 1183.14 443.472
1529 0 99.191 12.8237 1272 125.657 1183.58 441.586
1530 0 102.293 16.4722 1685 119.83 1183.38 436.891
1531 1 58.1042 9.99928 581 121.642 1183.74 459.262
1532 0 59.073 12.019 710 121.934 1183.79 453.001
1533 0 61.1146 9.68671 592 121.365 1184.33 453.905
1534 0 64.1675 12.3583 793 121.871 1184.99 457.647
1535 0 70.1076 12.0101 842 121.608 1184.89 451.679
1536 0 71.1141 11.0105 783 117.148 1188.07 455.973
1537 0 72.1125 12.7301 918 116.863 1189.59 450.538
1538 0 75.3378 12.2515 923 117.397 1191.46 449.321
1539 0 78.1119 10.869 849 117.998 1191.23 455.543
1540 0 78.1441 12.0802 944 118.374 1191.85 448.839
1541 1 151.576 14.402 2183 119.551 1191.68 419.912
1542 0 154.448 13.817 2134 121.485 1192.17 416.486
1543 0 152.387 12.652 1928 139.915 1193.23 413.802
1544 1 164.632 15.8231 2605 119.911 1192.4 411.151
1545 0 172.862 16.221 2804 119.764 1192.24 407.877
1546 0 176.869 14.8755 2631 122.791 1192.93 406.242
1547 0 181.931 12.4278 2261 125.215 1192.42 415.605
1548 0 187.701 12.2482 2299 127.516 1192.9 412.385
1549 0 190.844 14.2263 2715 124.762 1192.53 412.248
1550 1 106.317 14.3815 1529 123.98 1193.41 444.084
1551 0 111.306 13.3596 1487 124.72 1193.34 447.145
1552 0 112.273 10.4745 1176 129.003 1191.74 444.542
1553 1 69.3563 12.8755 893 117.559 1190.83 469.908
1554 0 69.2256 13.651 945 118.335 1191.18 468.487
1555 0 70.2868 12.9612 911 121.591 1188.83 464.675
1556 0 72.1313 12.5466 905 117.531 1189.18 462.358
1557 0 74.1209 12.7629 946 120.031 1187.49 454.32
1558 0 77.5155 13.9714 1083 117.088 1186.9 457.309
1559 0 79.3584 14.7558 1171 117.915 1186.63 453.792
1560 0 81.2629 11.5428 938 123.032 1186.41 454.211
1561 0 81.193 13.2401 1075 122.862 1185.19 450.189
1562 0 86.1219 13.388 1153 123.022 1184.96 446.471
1563 0 89.2185 15.6582 1397 119.207 1184.07 444.2
1564 0 93.2255 13.7623 1283 122.926 1184.69 440.743
1565 0 92.3142 10.2909 950 129.416 1184.33 441.502
1566 0 98.2458 14.5044 1425 121.27 1184.31 437.826
1567 0 103.375 14.2974 1478 122.034 1184.43 432.641
1568 0 105.35 13.9534 1470 123.891 1184.63 428.191
1569 1 61.2607 10.3329 633 120.929 1185.47 457.989
1570 0 61.3398 11.8683 728 121.33 1185.6 456.923
1571 0 63.2879 12.9725 821 122.43 1183.71 454.819
1572 0 65.3308 12.6127 824 121.746 1183.96 453.307
1573 0 68.1886 13.9173 949 118.975 1185.26 456.056
1574 0 67.1967 13.8102 928 120.469 1185.44 451.072
1575 0 71.1756 12.6167 898 122.499 1185.47 450.616
1576 0 73.1463 14.3138 1047 119.454 1186.81 447.16
1577 0 75.2618 15.2269 1146 118.562 1187.93 446.737
1578 0 75.2504 15.3886 1158 133.64 1187.98 446.773
1579 0 80.2787 15.8448 1272 118.153 1188.71 441.223
1580 0 83.2669 17.0896 1423 116.476 1189.91 441.077
1581 0 85.1482 13.9404 1187 122.072 1189.95 441.83
1582 0 89.1358 14.1357 1260 121.74 1190.31 446.894
1583 0 91.133 15.7682 1437 119.985 1190.87 440.118
1584 0 93.1666 12.2361 1140 125.794 1190.58 439.853
1585 0 96.2554 15.0225 1446 120.692 1191.54 437.302
1586 0 100.232 14.6061 1464 121.815 1192.03 439.564
1587 1 56.1879 12.2624 689 120.922 1194.09 461.25
1588 0 57.176 12.8376 734 119.482 1193.58 463.302
1589 0 58.1369 11.2837 656 122.607 1193.34 464.369
1590 0 62.1289 15.7576 979 116.789 1193.23 465.386
1591 0 62.509 15.2938 956 117.304 1193.5 457.195
1592 0 66.3434 14.7264 977 117.315 1193.4 462.659
1593 0 68.2287 16.049 1095 114.785 1192.2 465.497
1594 0 70.5679 14.2699 1007 119.142 1191.29 463.798
1595 0 70.0852 13.3552 936 121.417 1189.52 463.64
1596 0 74.2175 15.9935 1187 115.537 1190.41 465.537
1597 0 77.1368 14.753 1138 116.989 1189.39 465.663
1598 0 76.1852 11.1964 853 125.41 1189.36 464.444
1599 0 80.3179 13.21 1061 122.429 1189.28 461.759
1600 0 84.3812 15.3944 1299 117.893 1187.37 458.57
1601 0 90.1523 19.3229 1742 110.644 1186.63 458.866
1602 0 93.3308 17.8398 1665 113.318 1185.76 454.298
1603 0 94.386 19.7063 1860 111.317 1186.48 450.094
1604 0 96.4863 15.4322 1489 119.53 1184.72 453.607
1605 0 95.2921 14.8596 1416 121.715 1185.61 453.593
1606 0 95.2921 14.8596 1416 144.713 1186.61 453.492
1607 0 105.613 13.237 1398 125.753 1184.34 448.895
1608 1 57.2556 12.8197 734 127.499 1184.27 468.161
1609 0 62.3453 14.2914 891 124.755 1183.24 466.891
1610 0 64.51 15.827 1021 122.508 1184 457.239
1611 0 65.237 14.8535 969 123.755 1183.9 458.355
1612 0 68.3782 14.3905 984 124.226 1183.84 455.932
1613 0 70.3294 14.2046 999 120.649 1184.21 461.377
1614 0 71.434 13.411 958 123.116 1182.95 452.669
1615 0 76.4717 14.6198 1118 119.335 1183.68 452.748
1616 0 78.3507 13.9246 1091 119.324 1183.52 453.345
1617 0 80.4296 14.0868 1133 121.489 1184.56 444.763
1618 0 85.4643 14.5675 1245 119.79 1185.69 445.279
1619 0 88.4401 16.8589 1491 115.486 1185.34 444.956
1620 0 91.5577 15.553 1424 117.031 1185.36 445.219
1621 0 92.4486 16.8959 1562 116.826 1186.62 434.259
1622 0 97.5379 15.0711 1470 118.898 1186.77 435.639
1623 0 98.4567 12.4928 1230 123.487 1187.94 435.505
1624 1 52.1701 12.8809 672 115.534 1187.2 459.521
1625 0 59.5921 11.327 675 115.927 1186.48 460.083
1626 0 59.5132 13.5768 808 115.479 1188.08 456.38
1627 0 61.4176 14.9469 918 114.133 1187.98 452.752
1628 0 63.4107 13.6255 864 116.091 1189.89 455.75
1629 0 70.3058 13.1141 922 115.061 1191.64 456.337
1630 0 69.2814 14.0297 972 112.894 1192.1 458.432
1631 0 69.125 13.4105 927 115.608 1192.07 457.251
1632 0 73.4698 12.8624 945 117.997 1192.02 454.908
1633 0 72.2071 10.3591 748 123.422 1192.39 454.091
1634 0 78.2737 14.2449 1115 117.248 1192.69 452.356
1635 0 80.1866 13.8552 1111 116.825 1192.91 455.975
1636 0 84.1741 15.86 1335 112.885 1190.68 455.557
1637 0 86.2821 15.4609 1334 112.157 1191.41 460.84
1638 0 86.3225 13.0209 1124 117.214 1191.67 452.272
1639 0 88.3593 11.838 1046 119.761 1191.58 454.612
1640 0 93.3632 15.8306 1478 113.819 1191.5 452.836
1641 0 97.2957 15.1497 1474 115.273 1190.03 452.172
1642 0 101.281 13.9809 1416 116.574 1190.01 454.121
1643 0 103.441 15.0618 1558 116.586 1190.08 449.432
1644 0 104.547 11.0572 1156 121.74 1188.86 449.233
1645 0 111.361 13.4517 1498 118.117 1188.35 447.501
1646 0 112.38 12.7514 1433 119.188 1187.03 444.835
1647 0 115.359 11.1825 1290 121.993 1187.59 438.13
1648 1 65.0735 9.40475 612 117.92 1187.79 468.48
1649 0 71.1817 12.3487 879 114.204 1185.95 464.142
1650 0 71.2068 13.0886 932 117.798 1186.83 459.842
1651 0 75.4759 15.6606 1182 112.925 1183.86 459.602
1652 0 76.43 12.796 978 119.231 1185.23 452.953
1653 0 79.6668 12.2008 972 119.592 1183.6 452.07
1654 0 83.5154 15.2068 1270 115.86 1183.39 444.122
1655 0 85.6236 17.5652 1504 112.559 1183.26 442.69
1656 0 87.5403 12.737 1115 120.224 1183.87 440.508
1657 0 89.5384 13.3686 1197 119.191 1182.98 442.001
1658 0 91.3193 12.2975 1123 122.973 1184.41 434.607
1659 0 92.2814 10.6739 985 126.255 1183.66 433.853
1660 0 97.3805 14.623 1424 119.609 1185.17 430.812
1661 0 100.481 12.7586 1282 123.32 1186.4 426.789
1662 0 104.454 12.9723 1355 123.162 1186.49 427.954
1663 0 109.366 13.7428 1503 122.073 1185.29 421.359
1664 0 111.469 17.5924 1961 116.315 1187.3 423.305
1665 0 114.501 14.4627 1656 123.479 1187.14 409.059
1666 0 117.431 16.2138 1904 119.512 1187.77 417.304
1667 0 121.408 14.0189 1702 123.122 1188.44 418.878
1668 0 124.323 15.6849 1950 120.378 1188.59 416.842
1669 0 129.562 12.604 1633 124.092 1189.77 423.114
1670 0 128.562 12.7409 1638 139.926 1190.76 423.348
1671 0 137.568 13.1934 1815 124.579 1190.22 417.133
1672 0 144.513 17.4863 2527 117.377 1191.37 416.405
1673 0 149.432 14.6957 2196 122.509 1191.52 409.897
1674 0 155.489 14.8242 2305 122.287 1192.43 407.7
1675 1 90.3656 10.1034 913 125.154 1192.16 444.493
1676 0 90.3283 12.7424 1151 119.721 1191.03 447.397
1677 0 95.3627 16.7466 1597 113.889 1191.89 442.626
1678 0 98.2617 13.1587 1293 117.009 1192.21 435.585
1679 0 101.565 17.0039 1727 113.44 1191.66 443.658
1680 0 104.285 13.0412 1360 120.609 1190.7 441.332
1681 0 107.219 12.2926 1318 121.108 1188.61 441.692
1682 0 110.318 15.7 1732 116.663 1187.88 437.313
1683 0 113.166 12.8131 1450 121.583 1188.31 435.399
1684 0 118.398 16.5121 1955 114.094 1187.96 440.798
1685 0 119.129 14.6647 1747 119.279 1187.59 433.216
1686 0 124.477 14.3962 1792 119.434 1186.39 434.499
1687 0 129.265 13.306 1720 119.392 1186.66 428.124
1688 0 129.338 10.9558 1417 122.634 1186.5 432.495
1689 1 196.661 16.2564 3197 116.677 1186.1 400.532
1690 1 138.708 10.6843 1482 122.98 1185.21 425.974
1691 0 144.868 15.207 2203 118.968 1184.87 415.57
1692 0 150.653 15.8842 2393 118.846 1184.88 412.194
1693 0 155.878 13.0037 2027 124.007 1183.95 405.296
1694 1 91.6209 11.9296 1093 117.675 1183.38 441.829
1695 0 97.3874 8.995 876 122.816 1182.71 440.781
1696 0 101.605 12.1254 1232 118.426 1182.32 434.835
1697 0 99.4768 10.9473 1089 121.972 1183.41 430.243
1698 0 99.4768 11.0176 1096 142.276 1184.39 430.507
1699 0 108.275 10.7504 1164 121.224 1182.3 428.561
1700 0 113.135 11.4112 1291 117.549 1182.4 435.017
1701 0 109.356 12.5279 1370 117.809 1182.44 432.295
1702 0 114.184 10.702 1222 122.027 1184.06 422.126
1703 0 123.262 12.2828 1514 119.139 1183 418.941
1704 0 127.465 13.7449 1752 115.245 1184.94 424.342
1705 0 130.436 15.1262 1973 114.586 1184.8 417.099
1706 0 134.021 14.5873 1955 116.722 1186.64 407.584
1707 0 137.446 12.3976 1704 118.45 1185.95 412.14
1708 0 142.588 17.9608 2561 109.662 1186.54 414.053
1709 0 142.588 17.8977 2552 133.428 1187.52 414.194
1710 1 86.1341 11.1454 960 118.333 1186.29 431.621
1711 0 86.2185 10.485 904 120.2 1188.31 445.013
1712 0 86.2185 10.3806 895 152.022 1190.31 444.951
1713 0 93.4701 11.6615 1090 118.984 1189.55 441.895
1714 0 99.321 15.2435 1514 112.884 1190.25 441.077
1715 0 98.3034 14.1908 1395 143.8 1191.25 439.652
1716 0 101.249 12.0396 1219 118.154 1190.88 441.338
1717 0 108.493 13.411 1455 116.62 1191.02 440.307
1718 0 109.426 13.7352 1503 117.136 1191.1 438.816
1719 0 111.558 11.922 1330 121.301 1192.22 430.277
1720 0 119.746 17.5205 2098 111.213 1192.31 437.219
1721 0 121.589 14.475 1760 116.812 1193.21 434.39
1722 1 70.4171 12.4828 879 116.46 1191.93 455.663
1723 0 68.4945 7.50426 514 122.574 1190.19 450.521
1724 0 69.3039 6.92602 480 120.56 1190.38 455.056
1725 0 76.2041 11.8891 906 111.119 1190.79 456.128
1726 0 76.2041 12.0204 916 130.966 1190.78 456.043
1727 0 78.199 11.6242 909 117.089 1189.35 453.307
1728 0 79.2184 13.3807 1060 133.187 1189.28 456.346
1729 0 87.0607 13.5767 1182 112.865 1186.86 457.434
1730 0 88.1737 12.8723 1135 114.819 1186.49 459.665
1731 0 90.1791 10.8894 982 119.53 1183.01 453.84
1732 0 91.1827 14.1145 1287 135.482 1180.2 450.279
1733 0 93.2212 13.4304 1252 116.101 1183.67 453.282
1734 0 98.2237 16.3403 1605 112.36 1183.64 448.536
1735 0 101.123 13.6566 1381 114.468 1181.72 452.842
1736 0 103.111 10.7554 1109 117.789 1182.69 454.2
1737 0 107.152 14.7174 1577 114.062 1183.03 445.027
1738 0 110.217 12.0943 1333 119.327 1183.28 438.68
1739 0 109.258 9.24416 1010 122.969 1182.45 439.164
1740 0 115.372 10.9298 1261 120.491 1183.31 434.283
1741 0 120.373 13.5163 1627 116.713 1182.83 435.019
1742 0 122.34 10.6507 1303 120.913 1183.35 434.219
1743 0 127.55 12.8185 1635 117.323 1183.44 429.481
1744 1 74.5567 11.9506 891 114.566 1184.94 449.332
1745 0 77.5262 13.2084 1024 110.718 1184.7 451.152
1746 0 77.5333 11.3113 877 114.453 1185.46 445.56
1747 0 84.9614 16.4075 1394 106.037 1185.6 442.377
1748 0 86.5257 17.3359 1500 105.252 1185.52 442.057
1749 0 87.6434 15.6429 1371 107.815 1186.28 443
1750 0 88.6781 13.8253 1226 111.219 1186.26 437.046
1751 0 89.5813 12.1007 1084 114.615 1186.55 434.101
1752 0 94.3119 18.9478 1787 105.179 1187.33 434.84
1753 0 95.5146 14.8668 1420 110.544 1187.96 433.682
1754 0 95.6014 13.3157 1273 113.133 1188.04 433.76
1755 0 100.507 14.4069 1448 111.798 1189.31 432.883
1756 0 101.558 15.8136 1606 110.461 1188.92 429.281
1757 0 102.544 16.1491 1656 110.065 1189.25 432.396
1758 0 106.664 14.1285 1507 112.135 1190.79 434.879
1759 0 111.507 16.4743 1837 108.662 1190.63 427.197
1760 0 112.443 16.2304 1825 109.724 1191.05 430.91
1761 0 116.463 14.2105 1655 111.918 1191.6 429.94
1762 0 118.523 14.6131 1732 111.326 1191.69 431.618
1763 0 125.67 15.4293 1939 109.504 1192.71 423.471
1764 0 127.517 12.1866 1554 112.831 1192.51 429.852
1765 0 131.268 15.2893 2007 109.304 1192.32 424.89
1766 0 131.268 15.2817 2006 130.754 1191.32 424.673
1767 1 142.675 12.0764 1723 115.639 1191.04 412.337
1768 1 86.504 12.3116 1065 105.445 1191.01 444.306
1769 0 88.3626 9.34784 826 108.9 1191.1 442.173
1770 0 92.6243 12.5885 1166 105.845 1190.39 444.13
1771 0 95.3633 10.8218 1032 108.742 1188.3 448.756
1772 0 95.3731 9.67778 923 109.899 1188.54 452.072
1773 0 98.4477 10.2694 1011 111.377 1186.04 443.39
1774 0 102.312 12.5694 1286 108.058 1187.12 446.142
1775 0 105.408 15.5775 1642 105.487 1186.33 442.591
1776 0 103.376 12.3723 1279 123.955 1185.32 446.277
1777 0 111.292 10.8543 1208 111.353 1184.96 441.381
1778 0 117.521 15.827 1860 105.175 1184.51 439.047
1779 0 121.478 15.6572 1902 106.774 1183.47 426.979
1780 0 124.428 16.0896 2002 106.725 1182.84 423.539
1781 0 124.428 16.0816 2001 127.398 1181.86 423.316
1782 0 128.443 9.84875 1265 117.327 1184.53 424.532
1783 0 132.685 13.5885 1803 112.047 1184.5 426.06
1784 0 137.697 13.2465 1824 113.335 1183.85 423.598
1785 0 140.676 13.9896 1968 112.899 1182.97 422.14
1786 0 143.774 13.6464 1962 114.878 1184.19 417.596
1787 0 149.585 12.0667 1805 116.752 1184.79 415.608
1788 0 151.514 11.8669 1798 117.969 1184.03 408.601
1789 0 161.882 12.713 2058 117.134 1183.67 403.552
1790 1 97.6087 13.6771 1335 104.972 1184.82 441.491
1791 0 94.7368 11.1783 1059 111.214 1185.1 432.65
1792 0 94.5753 8.62805 816 116.544 1186.31 428.18
1793 0 101.66 17.8929 1819 102.986 1185.69 437.354
1794 0 102.658 12.4978 1283 112.272 1187.75 428.229
1795 0 106.272 13.3431 1418 110.7 1188.36 430.344
1796 0 109.753 15.79 1733 107.799 1187.59 426.727
1797 0 113.561 13.0943 1487 111.51 1187.86 427.588
1798 0 115.677 13.3821 1548 111.472 1188.99 425.977
1799 0 117.726 12.1808 1434 113.495 1188.62 425.075
1800 0 120.379 11.2811 1358 113.122 1189.32 423.007
1801 0 125.634 15.776 1982 106.354 1190.3 432.798
1802 0 128.461 10.3533 1330 118.038 1190.8 422.265
1803 0 134.339 12.5726 1689 113.562 1191.08 428.347
1804 0 140.434 11.8703 1667 115.575 1189.98 423.462
1805 0 146.515 13.2956 1948 113.49 1190.23 419.88
1806 0 147.627 13.3783 1975 115.31 1191.65 411.225
1807 1 88.2263 9.18094 810 108.772 1191.38 452.073
1808 0 91.7333 13.125 1204 105.486 1190.93 441.652
1809 0 92.6784 11.9014 1103 107.239 1191.21 439.549
1810 0 92.6784 11.8258 1096 118.135 1191.21 439.456
1811 0 99.3546 10.7192 1065 109.302 1190.24 449.423
1812 0 100.404 8.0674 810 115.211 1189.71 438.032
1813 0 109.385 15.706 1718 105.051 1189.43 439.776
1814 0 111.426 13.2105 1472 108.106 1188.14 436.715
1815 0 116.821 14.3039 1671 106.754 1187.19 436.683
1816 0 117.784 7.07224 833 118.343 1187.26 429.291
1817 0 121.906 12.9691 1581 110.454 1185.74 429.404
1818 0 123.068 11.189 1377 112.826 1185.5 428.887
1819 0 127.127 10.5563 1342 114.929 1184.77 421.142
1820 0 128.792 10.8159 1393 114.775 1185.09 420.834
1821 1 140.181 10.2653 1439 113.773 1183.67 421.698
1822 0 137.898 12.1321 1673 112.982 1184.71 414.178
1823 0 143.739 15.3681 2209 107.345 1183.32 417.289
1824 0 145.049 8.48679 1231 117.297 1182.98 408.485
1825 0 152.85 17.5073 2676 104.317 1182.53 416.284
1826 0 154.724 12.9069 1997 111.525 1183.27 402.757
1827 1 91.7271 12.0684 1107 101.388 1182.63 448.014
1828 0 91.5108 12.0751 1105 103.537 1181.66 443.203
1829 0 95.7063 9.93665 951 107.489 1182.33 435.537
1830 0 96.324 9.63415 928 108.262 1182.75 441.596
1831 0 100.378 14.007 1406 104.951 1183.68 433.957
1832 0 102.389 9.14164 936 110.771 1183.19 434.399
1833 0 106.456 13.2637 1412 104.409 1184.19 441.734
1834 0 111.584 10.0463 1121 112.332 1184.5 425.915
1835 0 112.328 10.9145 1226 112.047 1183.45 422.521
1836 0 119.653 8.03156 961 116.778 1185.49 419.409
1837 0 117.545 8.77108 1031 116.455 1184.21 419.125
1838 0 123.413 13.0781 1614 111.229 1186.48 416.489
1839 0 125.393 11.133 1396 112.273 1186.61 421.514
1840 0 130.469 13.6354 1779 112.04 1187.13 417.307
1841 0 131.333 11.1168 1460 115.362 1186.19 418.639
1842 0 138.535 16.8478 2334 104.532 1188.37 410.97
1843 0 143.419 12.8853 1848 110.185 1188.74 407.033
1844 0 147.604 13.4142 1980 108.687 1189.97 407.875
1845 0 151.575 11.1892 1696 112.281 1189.58 410.686
1846 0 155.353 15.3264 2381 108.15 1191.74 407.055
1847 0 159.529 11.1955 1786 115.209 1190.87 403.147
1848 1 90.4232 10.2739 929 110.377 1191.07 433.059
1849 0 94.2337 10.0813 950 110.659 1190.3 427.709
1850 0 97.5258 10.6126 1035 108.744 1191.83 438.157
1851 0 100.389 11.4853 1153 108.368 1191.55 437.607
1852 0 100.389 11.4455 1149 132.05 1191.55 437.414
1853 0 102.334 12.381 1267 127.546 1191.7 439.594
1854 0 110.276 9.56689 1055 115.306 1190.45 432.954
1855 0 114.516 12.9764 1486 110.806 1191.01 435.504
1856 0 119.615 12.373 1480 110.376 1190.16 442.909
1857 0 122.244 12.4587 1523 111.287 1188.64 441.427
1858 0 126.593 12.1176 1534 113.54 1188.22 437.519
1859 0 130.245 13.0831 1704 113.001 1187.32 429.736
1860 0 136.386 9.84703 1343 117.307 1187.2 426.223
1861 1 84.0727 12.2156 1027 106.636 1187.16 454.526
1862 0 85.154 10.4399 889 109.353 1185.78 460.316
1863 0 86.2736 10.5942 914 110.187 1185.34 456.125
1864 0 88.2427 9.32655 823 112.785 1184.46 450.435
1865 0 90.1958 9.57916 864 112.909 1183.13 452.216
1866 0 93.5116 12.0627 1128 110.368 1184.35 444.846
1867 0 96.3358 10.7333 1034 112.79 1183.57 442.288
1868 0 97.1648 9.85954 958 115.762 1183.64 441.286
1869 0 100.234 13.7977 1383 109.892 1183.74 443.478
1870 0 105.262 11.8751 1250 112.882 1182.99 443.02
1871 0 105.635 11.9657 1264 113.651 1183.51 437.243
1872 0 108.12 9.97037 1078 117.234 1183.08 437.033
1873 0 108.12 9.86863 1067 138.095 1182.06 436.962
1874 0 114.418 11.3532 1299 115.971 1184.6 430.948
1875 0 115.215 13.9565 1608 114.128 1184.88 428.93
1876 0 118.593 11.2992 1340 119.216 1184.42 420.81
1877 0 124.423 14.089 1753 113.635 1185.6 425.181
1878 0 129.411 15.7173 2034 113.689 1186.12 417.908
1879 0 132.423 14.1818 1878 117.841 1186.26 420.08
1880 0 133.493 10.465 1397 126.64 1186.67 403.056
1881 0 143.53 14.9725 2149 117.863 1187.04 407.083
1882 1 85.696 11.3774 975 113.972 1188.9 441.062
1883 0 83.4763 14.0279 1171 112.552 1188.03 439.009
1884 0 89.5965 9.01821 808 120.373 1188.61 436.778
1885 0 91.7631 13.1752 1209 115.164 1189.6 434.251
1886 0 91.7631 13.1316 1205 130.221 1189.61 434.253
1887 0 91.5934 10.754 985 120.702 1191.02 430.643
1888 0 99.6347 13.409 1336 114.216 1190.96 436.957
1889 0 101.579 12.8275 1303 115.628 1192.12 434.251
1890 0 104.581 12.3445 1291 117.744 1192.04 429.654
1891 0 106.813 14.6049 1560 112.748 1192.96 437.521
1892 0 110.658 14.8114 1639 114.185 1190.88 431.581
1893 0 113.641 14.1587 1609 115.873 1192.58 429.12
1894 0 116.579 11.1513 1300 120.823 1190.78 426.245
1895 0 120.668 10.6739 1288 119.512 1191.07 434.56
1896 0 123.479 15.1848 1875 114.235 1190.27 432.163
1897 0 130.541 13.942 1820 116.032 1191.45 427.223
1898 0 132.694 12.736 1690 118.025 1190.34 424.383
1899 0 138.544 13.8945 1925 115.926 1190.7 426.316
1900 0 143.709 17.0484 2450 112.313 1189.66 418.694
1901 0 145.719 12.9016 1880 118.821 1188.43 422.802
1902 0 152.657 12.7476 1946 119.023 1188.4 418.244
1903 0 155.72 11.2767 1756 122.909 1186.48 412.57
1904 0 163.816 17.8737 2928 112.466 1185.97 412.431
1905 0 165.632 12.9504 2145 121.684 1184.36 406.471
1906 0 174.695 14.0931 2462 119.203 1184.44 409.704
1907 0 179.618 16.2011 2910 114.696 1184.21 417.384
1908 0 183.719 16.3184 2998 117.103 1183.15 405.263
1909 0 190.603 15.5769 2969 118.982 1182.92 397.739
1910 0 192.688 13.5919 2619 123.961 1183.37 389.516
1911 0 192.688 13.675 2635 143.065 1183.38 389.532
1912 1 204.603 15.2002 3110 122.784 1182.68 386.487
1913 0 210.664 14.1457 2980 125.008 1181.95 380.429
1914 0 215.618 14.1176 3044 126.262 1182.95 376.634
1915 0 219.78 15.288 3360 123.68 1183.17 383.574
1916 0 225.866 13.8533 3129 126.577 1183.84 374.948
1917 0 231.518 15.9901 3702 124.13 1182.51 366.178
1918 0 238.76 17.5322 4186 121.584 1182.96 363.515
1919 1 59.7329 10.028 599 111.528 1183.86 458.586
1920 0 61.8241 12.2929 760 107.92 1183.62 453.266
1921 0 65.6028 12.4842 819 106.919 1183.88 450.197
1922 0 65.5881 11.2063 735 110.471 1183.69 442.195
1923 0 68.6211 13.2467 909 106.323 1182.86 448.883
1924 0 66.2242 10.4343 691 112.106 1184.63 449.9
1925 0 68.1955 10.4552 713 114.046 1184.94 442.627
1926 0 72.2654 10.6275 768 111.633 1185.86 449.406
1927 0 74.2414 13.9814 1038 106.654 1186.35 452.551
1928 0 75.4369 14.2768 1077 108.143 1187.61 447.553
1929 0 75.4369 14.3696 1084 112.829 1188.61 447.551
1930 0 77.5651 15.5482 1206 107.134 1189.99 448.597
1931 0 83.2812 12.2597 1021 111.861 1189.13 445.374
1932 0 82.5966 10.6784 882 114.832 1190.81 442.365
1933 0 86.5133 13.0269 1127 110.169 1191.3 447.614
1934 0 90.8926 10.2869 935 113.124 1190.2 450.133
1935 0 89.6888 11.1943 1004 112.925 1190.11 446.967
1936 0 95.8876 12.6085 1209 111.859 1190.41 445.619
1937 0 97.8285 12.7059 1243 112.179 1189.69 444.932
1938 0 100.952 12.9665 1309 110.837 1189.31 446.846
1939 0 104.065 11.9636 1245 113.713 1189.54 440.01
1940 0 107.388 14.0518 1509 112.127 1188.87 442.41
1941 0 109.853 14.4739 1590 111.447 1191.02 435.182
1942 0 109.492 9.04176 990 119.025 1189.44 437.147
1943 0 116.391 10.7483 1251 117.279 1190.01 431.03
1944 0 117.435 12.6197 1482 111.543 1189.63 440.921
1945 1 148.029 23.3198 3452 95.0689 1187.72 412.361
1946 0 156.636 19.1399 2998 100.092 1186.13 417.572
1947 0 146.106 22.7232 3320 98.0711 1186.13 409.968
1948 0 148.99 25.8943 3858 95.8937 1183.93 412.42
1949 0 146.711 24.8175 3641 98.7289 1184.35 411.166
1950 0 146.847 15.1995 2232 112.704 1183.95 412.341
1951 0 144.936 12.5296 1816 116.599 1183.16 418.195
1952 1 93.5674 9.37292 877 110.408 1183.14 452.55
1953 0 90.81 12.2233 1110 110.109 1182.99 443.805
1954 0 93.5443 10.8825 1018 112.471 1184.35 443.288
1955 0 95.5665 12.4102 1186 111.372 1182.16 437.887
1956 0 96.7376 8.73497 845 116.933 1181.84 438.847
1957 1 172.07 11.0071 1894 122.294 1182.48 404.346
1958 1 101.799 11.8075 1202 112.295 1183.43 438.228
1959 0 102.892 11.2545 1158 114.382 1183.75 431.766
1960 0 107.737 14.2848 1539 109.262 1184.07 435.483
1961 0 109.75 17.2483 1893 106.196 1183.75 430.248
1962 0 110.658 13.2752 1469 113.178 1184.62 425.954
1963 0 116.611 15.3759 1793 109.247 1184.53 428.481
1964 0 116.838 12.2221 1428 116.764 1184.74 419.436
1965 0 117.937 9.49661 1120 122.196 1186.56 406.488
1966 0 124.787 14.4566 1804 113.124 1187.26 418.533
1967 0 124.51 10.4811 1305 120.543 1187.15 412.727
1968 0 126.7 10.0237 1270 119.118 1188.08 418.442
1969 0 133.816 12.9655 1735 115.519 1189.3 417.463
1970 1 68.4777 9.52135 652 106.363 1189.48 448.287
1971 0 69.3649 12.5856 873 102.581 1190.18 448.182
1972 0 73.2456 10.3351 757 103.704 1191.16 448.334
1973 0 75.2419 8.85145 666 106.15 1191.14 450.836
1974 0 76.3079 10.6673 814 104.796 1190.93 447.138
1975 0 76.167 9.92556 756 107.758 1190.4 453.759
1976 1 164.638 12.8889 2122 117.993 1190.25 409.427
1977 1 77.2397 7.17248 554 114.61 1192.53 443.403
1978 0 82.3444 10.1768 838 108.566 1193.27 450.317
1979 0 83.2759 14.1698 1180 105.083 1192.25 447.742
1980 0 86.3122 10.7053 924 109.746 1192.34 447.177
1981 0 90.6941 11.7538 1066 108.303 1191.05 449.697
1982 0 88.5069 10.5189 931 112.604 1190.13 442.267
1983 0 90.4656 8.68838 786 117.071 1189.61 437.5
1984 0 93.5628 10.998 1029 113.112 1190.33 446.84
1985 0 97.5015 10.4101 1015 113.962 1189.16 447.857
1986 0 98.3087 10.1517 998 116.669 1189.76 441.945
1987 0 100.6 9.83098 989 118.424 1187.04 439.107
1988 0 102.528 12.6307 1295 113.841 1188.63 444.995
1989 0 107.49 17.5738 1889 107.484 1186.65 440.594
1990 0 107.584 13.3384 1435 114.78 1187.57 437.321
1991 0 108.632 9.53677 1036 120.858 1187.1 435.959
1992 0 114.328 12.9977 1486 115.472 1186.76 439.573
1993 0 112.262 9.59359 1077 123.887 1185.83 426.644
1994 0 120.52 15.9309 1920 112.891 1186.6 430.245
1995 0 119.318 14.4152 1720 116.78 1184.08 427.997
1996 0 123.484 14.1799 1751 117.358 1184.62 423.934
1997 0 125.304 11.5081 1442 122.632 1183.68 422.936
1998 0 130.512 14.2746 1863 117.767 1185.23 420.418
1999 0 129.309 13.9665 1806 119.429 1184.49 419.486
2000 0 129.292 14.0457 1816 133.007 1184.5 419.539
2001 0 137.606 13.9601 1921 119.541 1182.3 416.43
2002 0 138.615 15.1066 2094 118.75 1183.89 413.808
2003 0 141.371 13.1286 1856 122.807 1183.22 408.602
2004 0 150.425 12.8636 1935 121.887 1186.13 409.019
2005 0 152.622 14.6637 2238 119.803 1186.33 408.368
2006 0 155.407 18.3647 2854 114.53 1185.12 405.65
2007 0 163.653 17.2988 2831 115.546 1186.83 398.987
2008 0 161.434 11.5775 1869 127.148 1186.45 387.68
2009 0 170.434 13.5185 2304 123.88 1187.44 390.242
2010 0 174.513 12.7612 2227 125.964 1188.6 388.433
2011 1 116.493 9.20227 1072 117.386 1189.14 425.878
2012 0 116.643 9.21616 1075 116.89 1188.72 424.448
2013 0 119.446 7.99527 955 117.209 1189.14 428.271
2014 0 125.488 13.2044 1657 114.59 1190.25 423.997
2015 0 126.386 10.6262 1343 120.077 1190.66 420.173
2016 0 130.32 11.9014 1551 117.925 1191.79 420.474
2017 0 131.225 10.7525 1411 120.904 1191.73 411.079
2018 0 136.515 12.5847 1718 115.524 1192.01 421.679
2019 0 142.761 10.8783 1553 119.61 1192.7 410.33
2020 0 149.573 11.6131 1737 117.636 1192.51 410.771
2021 0 148.607 11.3924 1693 118.468 1191.94 413.617
2022 0 155.502 12.5851 1957 116.601 1192.12 412.73
2023 0 160.529 14.0785 2260 115.797 1191.79 407.979
2024 0 162.525 12.3919 2014 119.954 1191.41 399.591
2025 1 8.00301 3.37373 27 101.444 1189.37 488.63
2026 0 14.0049 8.63983 121 94.8182 1189.31 485.512
2027 0 14.0056 8.6394 121 90.7025 1189.31 485.512
2028 0 14.0479 6.12189 86 97.2907 1187.35 486.512
2029 0 19.025 2.62812 50 101.52 1185.06 484.7
2030 0 19.0308 6.56828 125 97.904 1184.37 483.288
2031 0 20.0251 5.3433 107 98.7664 1183.75 483.196
2032 0 20.0059 3.99882 80 102.225 1183.22 482.738
2033 0 22.0919 6.51823 144 97.7917 1183.85 486.875
2034 0 16.003 5.374 86 100.779 1183.87 485
2035 0 21.0781 4.03262 85 98.7294 1182.72 484.541
2036 0 15.0016 8.99905 135 93.3259 1181.97 480.63
2037 0 20.0513 4.33886 87 99.3103 1182.07 480.149
2038 0 18.027 1.997 36 108.917 1181.08 484.75
2039 0 23.022 4.64773 107 106.776 1180.72 476.626
2040 0 28.1711 3.08828 87 106.345 1179.72 477.609
2041 0 26.1342 6.23704 163 103.791 1180.27 477.92
2042 0 25.0355 8.7875 220 97.8273 1182.78 480.877
2043 0 24.0232 4.16265 100 104.96 1183.98 477.44
2044 0 19.0048 4.99873 95 103.642 1183.39 480.053
2045 0 20.0494 5.63609 113 103.973 1183.56 477.274
2046 0 17.0536 5.68795 97 103.124 1183.33 480.186
2047 0 19.0415 3.51863 67 107.537 1184.46 475.612
2048 0 24.0438 3.49362 84 108.048 1184.36 473.976
2049 0 20.0314 3.79404 76 109.461 1186.8 474.053
2050 1 84.2076 9.74971 821 104.694 1186.2 448.608
2051 0 86.3213 11.5267 995 104.089 1187 441.516
2052 0 89.2129 11.9826 1069 102.836 1187.74 445.152
2053 0 85.117 7.66004 652 110.603 1188.06 437.882
2054 0 86.0794 8.35276 719 110.327 1188.13 431.814
2055 0 93.2267 10.3082 961 107.438 1190.41 437.006
2056 0 93.2343 10.1787 949 104.37 1192.4 436.891
2057 0 93.1501 4.10091 382 113.225 1190.58 451.065
2058 0 264.375 4.47092 1182 143.469 1189.84 379.244
2059 0 263.002 2.98857 786 124.06 1190.5 402.541
2060 0 263.309 4.40927 1161 131.587 1190.67 351.556
2061 0 267.074 8.82527 2357 124.092 1190.54 356.207
2062 0 272.478 10.1806 2774 123.142 1189.98 332.815
2063 0 279.553 6.07399 1698 126.554 1189.62 335.939
2064 0 292.261 13.0842 3824 116.827 1190.22 343.289
2065 1 176.87 10.6519 1884 115.535 1190.24 399.403
2066 0 175.47 8.33189 1462 118.56 1191.36 409.726
2067 0 177.041 5.58062 988 124.028 1190.36 405.278
2068 0 182.034 13.3986 2439 112.328 1191.95 405.893
2069 1 142.381 15.0581 2144 108.761 1191.5 426.893
2070 0 146.212 14.8757 2175 110.309 1191.24 426.571
2071 0 148.423 12.8821 1912 118.694 1190 426.444
2072 0 148.423 12.9764 1926 143.745 1189 426.477
2073 1 91.4045 11.1373 1018 111.005 1188.09 449.918
2074 0 90.3957 9.1376 826 148.002 1188.54 445.785
2075 0 90.4159 9.0139 815 147.947 1188.55 445.667
2076 0 90.4483 8.97751 812 147.624 1188.54 445.771
2077 0 99.3576 10.89 1082 116.876 1184.04 438.862
2078 0 101.336 10.3715 1051 114.884 1183.18 436.604
2079 0 102.317 9.8126 1004 116.368 1183.31 435.77
2080 0 103.22 11.2091 1157 114.626 1182.04 434.602
2081 0 104.464 8.91219 931 119.711 1182.65 430.364
2082 0 110.377 10.9081 1204 117.519 1181.67 442.992
2083 0 111.233 15.2832 1700 112.744 1182.5 441.142
2084 0 114.117 12.0227 1372 122.485 1184.29 436.125
2085 0 117.457 15.0012 1762 118.513 1183.47 433.305
2086 0 121.272 14.2572 1729 119.719 1184 431.121
2087 0 119.744 12.6937 1520 123.22 1184.29 431.448
2088 0 124.406 14.1954 1766 120.477 1183.84 431.944
2089 0 124.546 14.3079 1782 121.416 1183.49 425.433
2090 0 131.726 14.5681 1919 119.227 1184.55 425.072
2091 0 132.517 16.3375 2165 118.286 1185.52 415.914
2092 0 134.374 12.7926 1719 122.107 1185.94 424.703
2093 0 140.398 19.5303 2742 113.073 1185.88 416.271
2094 0 140.587 12.5118 1759 125.895 1186.24 408.443
2095 1 89.4639 10.6635 954 121.018 1188.26 439.154
2096 0 93.4438 13.056 1220 115.485 1189.16 442.068
2097 0 95.1852 14.1724 1349 113.231 1189.29 436.082
2098 0 93.2403 12.1728 1135 117.503 1190.46 434.784
2099 0 96.3627 10.8652 1047 120.401 1190.12 434.344
2100 0 102.137 15.0582 1538 112.503 1191.29 432.225
2101 0 102.191 14.1207 1443 113.923 1192.05 435.228
2102 0 105.294 14.4738 1524 113.345 1191.65 437.643
2103 0 107.186 14.4235 1546 114.721 1192.42 434.064
2104 0 109.292 14.6488 1601 114.399 1192.07 432.843
2105 0 111.716 13.5612 1515 116.519 1192.09 430.861
2106 0 110.702 11.9058 1318 147.303 1191.18 427.462
2107 0 117.82 12.8925 1519 120.527 1191.03 422.772
2108 0 124.861 13.6552 1705 118.69 1190.65 422.135
2109 0 128.727 13.3616 1720 118.447 1190.62 428.994
2110 1 177.005 11.22 1986 126.006 1189.93 399.733
2111 0 188.248 14.024 2640 121.146 1190.15 404.239
2112 0 194.999 12.4308 2424 122.46 1189.02 400.366
2113 1 144.818 12.533 1815 118.985 1189.63 420.446
2114 1 82.6568 10.9005 901 114.704 1188.92 449.3
2115 0 86.696 10.6233 921 116.89 1188.66 439.367
2116 0 88.417 7.69083 680 116.615 1185.52 447.337
2117 0 90.1259 13.8473 1248 108.867 1185.34 447.578
2118 0 96.1515 12.6675 1218 110.158 1185.97 446.916
2119 0 98.2802 11.05 1086 110.353 1185.8 453.299
2120 0 100.381 13.1299 1318 109.353 1185.82 445.505
2121 0 101.198 11.2651 1140 113.447 1183.99 440.493
2122 0 105.175 14.9084 1568 107.824 1183.23 446.689
2123 0 106.168 11.9528 1269 112.765 1183.27 441.218
2124 0 112.577 16.3799 1844 105.134 1183.22 444.723
2125 0 114.252 15.1245 1728 108.959 1183.97 437.546
2126 0 116.293 13.466 1566 112.119 1183.98 434.871
2127 0 120.152 14.2236 1709 111.865 1182.66 427.675
2128 0 118.154 8.96291 1059 121.054 1184.11 421.324
2129 0 124.29 13.2593 1648 115.681 1181.86 424.243
2130 0 126.322 12.1199 1531 117.378 1183.06 416.037
2131 0 132.301 13.3559 1767 114.958 1183.75 424.214
2132 0 136.546 16.4048 2240 110.153 1182.89 421.822
2133 0 140.329 18.5991 2610 107.578 1184.52 413.712
2134 0 142.472 12.262 1747 117.366 1185.14 406.037
2135 0 148.526 16.0645 2386 111.378 1185.1 406.323
2136 0 154.571 13.5731 2098 113.975 1185.6 410.917
2137 0 158.591 14.3451 2275 113.605 1187.34 404.051
2138 1 92.1926 9.07882 837 109.757 1188.09 440.448
2139 0 95.4098 9.35962 893 114.122 1186.54 433.688
2140 0 98.3358 11.1556 1097 112.605 1188.33 433.084
2141 0 98.3358 11.2472 1106 127.784 1189.29 433.439
2142 0 103.227 11.5183 1189 111.086 1189.08 433.982
2143 0 108.485 12.5363 1360 109.488 1189.68 431.607
2144 0 109.535 11.9596 1310 111.27 1189.77 425.58
2145 0 109.55 9.2743 1016 116.294 1190.77 420.207
2146 0 115.664 15.7958 1827 106.068 1190.33 428.285
2147 0 116.581 8.91229 1039 118.609 1191.65 418.773
2148 0 123.76 13.9705 1729 110.95 1190.65 418.685
2149 0 123.56 10.4645 1293 116.618 1191.04 419.728
2150 0 130.813 10.2819 1345 116.985 1190.67 415.673
2151 0 137.852 15.1685 2091 108.885 1189.77 424.286
2152 0 141.631 13.867 1964 111.443 1190.61 421.522
2153 0 138.479 13.1789 1825 114.404 1190.37 409.76
2154 0 149.564 13.9338 2084 111.597 1190.32 418.779
2155 0 151.553 13.9027 2107 112.897 1189.05 418.401
2156 0 151.579 13.9399 2113 127.5 1187.05 418.705
2157 1 163.482 13.9404 2279 113.722 1187.64 398.173
2158 0 166.626 11.7629 1960 115.445 1185.08 407.591
2159 0 169.4 11.0449 1871 119.606 1185.44 391.002
2160 0 176.655 14.7406 2604 112.328 1183.93 405.131
2161 0 182.493 12.6361 2306 117.545 1184.48 382.497
2162 0 189.647 14.6641 2781 112.157 1184 401.406
2163 0 197.593 14.8892 2942 114.166 1183.71 385.601
2164 0 202.611 12.7535 2584 117.452 1183.27 374.558
2165 0 208.485 13.0849 2728 115.754 1182.45 384.2
2166 0 213.784 13.9673 2986 115.824 1182.98 368.759
2167 0 217.705 13.4953 2938 115.921 1183.84 371.661
2168 0 225.647 15.8167 3569 110.739 1183.24 381.527
2169 0 233.518 13.7677 3215 114.652 1182.46 366.273
2170 0 238.85 14.1763 3386 114.657 1183.08 365.029
2171 0 244.813 11.9397 2923 117.823 1182.07 361.746
2172 0 258.241 14.7885 3819 113.312 1182.37 363.041
2173 0 258.241 14.804 3823 141.411 1182.38 362.681
2174 1 282.648 7.84014 2216 117.074 1183.51 378.722
2175 0 282.65 8.05945 2278 155.417 1184.48 377.812
2176 1 66.1731 8.90089 589 101.727 1184.57 455.165
2177 0 67.1393 8.38555 563 106.371 1185.33 449.156
2178 0 66.2009 8.57995 568 107.146 1185.64 447.287
2179 0 68.1787 10.1205 690 106.057 1186.61 444.829
2180 0 73.2318 11.5933 849 103.364 1187.66 448.478
2181 0 73.1479 9.44661 691 106.603 1188.06 448.551
2182 0 74.2372 9.44271 701 107.539 1188.07 448.843
2183 0 76.1808 12.746 971 100.832 1189.47 447.34
2184 0 75.1667 9.31263 700 107.54 1188.43 444.011
2185 0 88.1845 22.555 1989 91.093 1189.04 441.185
2186 0 85.3611 8.6339 737 111.149 1190.83 435.739
2187 0 84.2403 12.5356 1056 106.629 1189.79 442.723
2188 0 85.2168 11.8169 1007 107.432 1191.09 447.148
2189 0 91.1387 11.4222 1041 107.726 1191.84 449.769
2190 0 91.1596 11.4086 1040 127.783 1191.87 449.302
2191 0 94.24 10.5051 990 111.745 1190.79 446.984
2192 0 97.1059 10.6379 1033 113.194 1191.08 436.523
2193 0 102.502 16.907 1733 104.299 1191.83 443.66
2194 0 106.275 14.3308 1523 108.693 1192.72 444.59
2195 0 110.348 15.0433 1660 108.819 1191.22 441.725
2196 0 381.291 29.3084 11175 96.8596 1188.87 300.986
2197 0 124.827 18.1852 2270 103.808 1190.96 436.304
2198 0 121.293 16.4313 1993 109.146 1190.36 439.684
2199 0 123.329 18.2033 2245 108.297 1189.63 439.908
2200 0 148.689 20.2638 3013 103.841 1187.84 412.885
2201 0 139.616 25.8853 3614 100.844 1187.28 405.309
2202 0 136.556 23.7119 3238 105.601 1185.71 403.406
2203 0 134.527 15.1048 2032 117.657 1185.17 416.277
2204 0 137.331 17.6799 2428 114.799 1185.94 418.984
2205 0 137.416 14.8964 2047 120.816 1185.76 420.352
2206 0 143.277 14.7616 2115 119.913 1184.05 427.893
2207 0 160.143 22.5548 3612 106.725 1183.46 397.501
2208 0 156.541 19.356 3030 113.441 1183.04 404.852
2209 0 160.37 20.4652 3282 112.613 1182.52 404.408
2210 0 155.475 14.2659 2218 125.295 1182.78 401.69
2211 0 160.33 14.0835 2258 124.518 1182.58 409.995
2212 0 164.614 14.8408 2443 123.553 1182.88 411.641
2213 0 158.329 9.28444 1470 135.673 1182.94 406.262
2214 1 100.269 7.01113 703 129.077 1182.4 435.269
2215 0 107.192 12.0997 1297 117.828 1180.12 436.738
2216 0 107.187 12.4455 1334 125.061 1179.18 436.393
2217 0 110.306 14.2784 1575 114.792 1180.61 436.807
2218 0 114.215 16.539 1889 116.366 1181.97 425.616
2219 0 114.215 16.6265 1899 129.233 1182.94 425.677
2220 0 116.311 12.9136 1502 121.323 1183.01 427.005
2221 0 125.513 13.9587 1752 119.852 1184.69 422.131
2222 0 121.229 11.0617 1341 124.67 1183.15 422.81
2223 0 121.229 11.0452 1339 154.088 1182.15 423.042
2224 0 131.315 15.3904 2021 118.414 1185.62 419.66
2225 0 136.391 21.1451 2884 110.021 1187.05 420.391
2226 0 138.471 18.1049 2507 115.467 1187.22 415.088
2227 0 137.378 10.4893 1441 128.935 1188.09 412.474
2228 0 144.438 12.8568 1857 124.108 1187.6 405.207
2229 0 152.337 16.1747 2464 116.463 1189.7 413.708
2230 0 151.565 14.8649 2253 120.351 1190.32 403.381
2231 0 155.579 13.2409 2060 121.553 1190.87 400.145
2232 0 163.579 14.9347 2443 117.666 1191.11 404.866
2233 0 167.722 14.2737 2394 118.244 1190.88 401.654
2234 0 175.527 14.0377 2464 116.694 1191.95 396
2235 0 178.513 12.5257 2236 119.364 1191.54 392.397
2236 0 186.556 15.561 2903 113.178 1191.6 400.466
2237 0 195.648 15.1343 2961 112.933 1191.24 399.499
2238 0 196.652 15.1486 2979 114.865 1188.42 389.764
2239 0 205.715 14.9722 3080 114.546 1189.92 389.324
2240 0 212.613 15.9539 3392 113.904 1188.66 379.225
2241 0 217.737 13.5393 2948 117.492 1188.39 377.269
2242 1 154.437 13.0992 2023 112.7 1186.57 416.709
2243 0 158.601 10.8133 1715 114.619 1185.76 415.62
2244 0 161.694 11.1754 1807 115.232 1184.42 400.11
2245 0 170.667 12.7968 2184 112.5 1184.09 407.987
2246 0 175.687 11.5717 2033 114.823 1183.41 396.647
2247 0 180.5 10.4709 1890 116.695 1183.02 397.76
2248 0 186.584 14.7762 2757 108.896 1182.73 408.06
2249 0 193.38 13.0831 2530 113.713 1181.76 391.288
2250 0 198.529 15.2723 3032 110.994 1182.15 391.245
2251 0 205.411 15.0187 3085 111.616 1182.32 384.65
2252 0 214.512 14.2509 3057 112.096 1181.42 390.093
2253 0 215.645 12.9797 2799 114.443 1181.01 386.166
2254 1 155.504 12.7007 1975 108.931 1179.98 409.387
2255 0 157.473 10.4843 1651 111.108 1179.35 422.288
2256 0 163.262 11.209 1830 112.283 1180.59 412.952
2257 0 165.544 12.462 2063 111.408 1181.63 404.658
2258 0 168.376 10.2093 1719 115.191 1182.61 397.15
2259 0 175.672 11.8345 2079 112.575 1182.7 401.209
2260 0 178.684 14.0751 2515 111.251 1183.26 391.083
2261 0 180.618 10.7298 1938 116.034 1184.38 388.464
2262 0 185.016 13.5016 2498 114.553 1183.46 373.56
2263 0 192.823 11.7206 2260 116.4 1184.94 378.514
2264 0 192.823 11.7258 2261 137.435 1186.95 378.422
2265 0 201.623 15.8166 3189 110.349 1185.59 380.73
2266 0 207.636 12.6279 2622 115.154 1186.47 377.058
2267 0 211.728 12.3177 2608 116.673 1185.31 367.942
2268 0 220.749 14.3965 3178 113.624 1185.35 367.91
2269 1 165.652 12.2969 2037 109.622 1187.28 403.709
2270 0 169.299 10.0119 1695 113.85 1187.1 399.768
2271 0 173.635 12.2037 2119 114.193 1189.1 398.358
2272 0 181.641 12.6128 2291 110.59 1191.52 400.048
2273 0 181.634 12.5031 2271 133.113 1194.52 399.999
2274 0 181.604 12.4446 2260 132.783 1197.52 399.941
2275 1 195.623 11.6295 2275 111.559 1191.96 396.613
2276 0 203.749 12.8737 2623 111.584 1190.81 386.721
2277 0 207.403 12.6131 2616 113.341 1190.2 380.783
2278 0 213.711 11.2909 2413 115.511 1191.24 379.683
2279 0 221.832 14.2675 3165 111.59 1191.11 381.927
2280 0 228.746 11.7511 2688 115.2 1191.52 384.424
2281 0 233.546 15.513 3623 111.492 1189.22 379.043
2282 0 240.731 12.4496 2997 115.782 1189.54 378.612
2283 0 250.098 13.2908 3324 116.513 1189.59 360.435
2284 0 250.752 11.984 3005 117.096 1188.95 373.001
2285 1 191.55 10.248 1963 116.524 1187.91 394.959
2286 0 201.87 13.152 2655 109.127 1187.62 411.217
2287 0 208.75 15.5258 3241 109.453 1186.67 389.544
2288 0 215.922 16.3439 3529 111.045 1186.72 390.331
2289 0 217.56 15.683 3412 113.557 1185.86 374.288
2290 0 226.252 15.6463 3540 112.479 1185.85 384.757
2291 0 235.911 11.7544 2773 118.947 1183.46 373.009
2292 0 240.811 13.9819 3367 116.206 1185.46 365.856
2293 0 249.563 19.1615 4782 108.767 1182.68 363.776
2294 0 256.844 13.9851 3592 118.884 1181.87 349.012
2295 0 262.667 15.2436 4004 117.653 1180.36 350.353
2296 1 58.1896 9.70964 565 104.115 1179.9 453.418
2297 0 58.181 9.91732 577 113.031 1180.95 453.288
2298 0 64.2715 9.19537 591 104.616 1180.09 452.159
2299 0 66.1164 10.8143 715 102.077 1179.32 452.82
2300 0 66.3359 10.0247 665 103.859 1179.51 452.18
2301 0 66.3359 10.1152 671 117.286 1180.52 452.225
2302 0 71.4645 14.1749 1013 99.5706 1180.17 453.26
2303 0 70.4577 13.0859 922 110.066 1179.26 452.401
2304 0 76.5133 13.6708 1046 100.432 1182.04 449.773
2305 0 76.5133 13.6839 1047 118.447 1185.07 449.547
2306 0 75.5239 9.74526 736 110.186 1183.92 448.296
2307 1 178.131 4.03075 718 121.649 1183.5 416.493
2308 1 31.2295 12.6163 394 96.5457 1186.34 470.34
2309 0 29.2178 8.86444 259 113.68 1187.62 467.467
2310 0 34.3936 10.1472 349 98.3324 1188.11 470.381
2311 1 82.6213 8.60553 711 113.536 1186.32 435.713
2312 0 85.257 14.2745 1217 105.7 1186.04 438.932
2313 1 33.1028 10.271 340 97.1765 1186.65 466.1
2314 0 34.2434 7.44668 255 100.294 1187.4 468.518
2315 0 34.2666 10.3307 354 96.6949 1188.29 469.387
2316 0 36.1726 6.13724 222 101.108 1188.16 467.464
2317 0 35.4428 15.6872 556 91.7374 1188.53 463.27
2318 0 35.6639 10.0101 357 98.2269 1189.43 464.972
2319 0 36.2673 8.1892 297 99.3266 1189.3 466.387
2320 0 37.2133 5.10571 190 104.095 1187.92 464.589
2321 0 39.4002 5.86292 231 103.606 1187.63 463.437
2322 0 39.2284 8.0554 316 99.8291 1188.34 468.737
2323 0 39.2352 1.35083 53 109.151 1186.58 468.472
2324 0 40.4133 8.88322 359 95.7716 1188.61 475.462
2325 0 40.3918 3.76314 152 104.289 1187.37 471.316
2326 1 121.519 12.8951 1567 117.459 1187.43 426.706
2327 0 127.527 11.1035 1416 121.151 1186.85 423.088
2328 0 130.65 13.938 1821 116.87 1186.5 425.873
2329 0 138.526 14.3006 1981 117.18 1185.19 420.28
2330 0 136.703 11.5944 1585 123.592 1184.65 417.073
2331 0 142.533 17.5679 2504 112.75 1183.79 419.538
2332 0 144.583 15.5274 2245 116.457 1183.55 418.608
2333 0 150.592 20.539 3093 108.799 1184.08 419.437
2334 0 151.605 16.2395 2462 118.619 1182.98 401.873
2335 0 149.738 10.2045 1528 130.834 1182.92 391.892
2336 0 157.676 15.2465 2404 122.623 1182.11 394.155
2337 0 166.582 19.642 3272 114.568 1182.15 404.726
2338 0 170.517 14.7786 2520 124.681 1182.66 394.146
2339 0 172.533 13.1221 2264 129.96 1181.93 382.463
2340 0 178.048 14.9903 2669 125.806 1181.82 383.333
2341 0 178.492 16.0791 2870 125.072 1182.89 380.924
2342 0 186.783 19.0114 3551 119.097 1181.96 380.31
2343 0 190.594 14.67 2796 127.171 1182.38 371.918
2344 0 195.787 20.4559 4005 116.429 1182.96 380.588
2345 1 41.303 1.76743 73 110.233 1181.79 451
2346 0 37.2453 2.7923 104 107.24 1182.68 450.981
2347 0 40.3668 6.51526 263 101.384 1182.98 453.278
2348 1 208.583 16.4682 3435 126.895 1185.93 358.4
2349 1 223.573 16.4108 3669 124.87 1186.27 351.925
2350 0 230.65 19.9437 4600 118.058 1187.21 365.36
2351 0 229.656 20.9749 4817 132.955 1188.11 363.84
2352 1 49.3728 10.5321 520 100.479 1184.3 461.719
2353 0 48.1522 9.96839 480 101.648 1185.89 463.054
2354 1 255.787 13.4683 3445 132.268 1189.73 337.065
2355 0 257.604 16.013 4125 127.657 1189.23 345.04
2356 0 260.919 13.6862 3571 129.48 1189.74 356.397
2357 0 259.946 10.2021 2652 135.501 1189.25 355.239
2358 0 291.196 24.2345 7057 112.737 1190.68 341.209
