time division length width area intensity CMx CMy
0 0 82.1911 18.1163 1489 116.527 1270.48 453.398
1 1 44.1587 17.2559 762 115.211 1270.14 474.806
2 0 44.2529 14.9143 660 122.408 1269.3 473.097
3 0 45.1772 15.9151 719 116.406 1268.78 475.295
4 0 48.2418 16.0235 773 112.969 1267.98 474.912
5 0 49.1856 15.3093 753 116.906 1266.83 473.903
6 0 49.1856 15.3093 753 158.193 1264.83 473.899
7 0 48.167 14.5328 700 122.929 1263.76 471.091
8 0 52.0677 15.96 831 120.955 1263.87 468.929
9 0 51.0491 15.5732 795 122.162 1262.59 468.566
10 0 55.0869 17.3544 956 115.514 1263.27 469.656
11 0 55.1134 15.3865 848 119.683 1262 465.605
12 0 60.1204 19.278 1159 112.387 1262.93 466.918
13 0 59.1772 13.637 807 120.116 1262.47 461.449
14 0 60.1034 16.6214 999 115.972 1262.33 464.365
15 0 62.1642 19.175 1192 111.301 1261.98 460.323
16 0 63.1655 16.3697 1034 115.382 1262.2 460.091
17 0 67.1433 20.1956 1356 108.867 1261.84 455.878
18 0 68.08 19.2715 1312 114.049 1262 454.803
19 0 69.11 16.3073 1127 118.554 1260.33 454.985
20 0 75.4236 20.7893 1568 105.376 1261.2 457.476
21 0 73.2029 19.8626 1454 109.559 1261.88 451.802
22 0 75.2223 15.514 1167 116.125 1262.48 449.895
23 0 75.2223 15.3811 1157 147.691 1264.48 449.893
24 0 83.1525 17.8106 1481 114.668 1265.99 447.784
25 0 81.1477 16.8335 1366 154.086 1265.92 446.534
26 0 88.1884 15.9431 1406 115.636 1267.98 445.851
27 1 45.1576 14.394 650 116.655 1267.92 463.402
28 0 45.0372 13.5221 609 118.969 1268.08 462.979
29 0 51.1377 13.9819 715 114.487 1269.53 461.358
30 0 51.142 15.7991 808 109.91 1269.23 464.285
31 0 50.1719 15.7658 791 115.158 1270.94 457.355
32 0 51.0835 14.8189 757 116.524 1271.26 456.761
33 0 56.098 21.8546 1226 103.4 1271.53 457.413
34 0 59.1809 15.3766 910 112.121 1271.87 456.546
35 0 59.3201 15.3068 908 114.91 1271.55 457.233
36 0 62.2442 15.5195 966 111.781 1273.07 455.669
37 0 65.0719 13.9231 906 112.962 1272.01 455.036
38 0 67.2684 16.7686 1128 110.449 1272.77 456.672
39 0 70.0684 14.3859 1008 109.352 1272.9 453.895
40 0 71.1751 14.8788 1059 106.692 1273.12 456.59
41 0 77.2285 13.0522 1008 109.636 1272.77 456.094
42 0 78.3098 14.4554 1132 107.163 1272.57 452.09
43 0 82.3076 16.6084 1367 103.556 1272.19 454.452
44 0 86.1522 18.5602 1599 99.4872 1271.33 453.209
45 1 47.111 12.1203 571 108.72 1270.56 475.758
46 0 47.1234 11.4805 541 114.571 1270.01 476.059
47 0 48.1024 14.6354 704 114.256 1270.06 472.482
48 0 50.1146 13.4292 673 112.868 1269.44 470.862
49 0 51.2077 10.5648 541 116.874 1268.91 474.004
50 0 53.1605 16.2715 865 112.175 1266.92 471.599
51 0 52.0665 10.6786 556 120.867 1266.77 468.617
52 0 59.1945 16.2008 959 110.762 1266.26 468.526
53 0 60.1125 14.2732 858 113 1266.13 468.888
54 0 61.3058 12.4132 761 117.196 1265.72 466.714
55 0 61.3058 12.3153 755 132.114 1264.71 466.709
56 0 69.1908 17.5312 1213 108.965 1265.09 460.667
57 0 68.0996 14.4054 981 114.095 1264.2 461.206
58 0 72.1176 11.4535 826 117.45 1263.28 458.944
59 0 75.0918 15.2347 1144 112.966 1264.77 454.439
60 0 78.1418 14.077 1100 115.167 1263.05 450.869
61 0 83.2836 13.2199 1101 115.52 1262.54 452.409
62 0 85.1398 12.0038 1022 117.804 1262.64 451.675
63 0 87.2961 14.6742 1281 115.201 1263.23 446.856
64 0 93.225 14.8243 1382 114.848 1262.42 445.076
65 0 96.1208 18.2479 1754 110.092 1263.11 442.537
66 0 98.5056 16.1311 1589 113.817 1263.24 438.785
67 0 103.213 17.4105 1797 111.942 1263.8 435.564
68 0 105.222 18.7604 1974 110.377 1264.02 436.552
69 0 108.441 15.1695 1645 115.717 1264.22 435.009
70 1 50.1011 7.72439 387 117.38 1264.2 460.767
71 0 54.1016 10.7391 581 113.404 1265.64 459.952
72 0 56.099 12.0501 676 111.121 1266.14 460.096
73 0 60.2121 11.8581 714 112.29 1266.96 457.042
74 0 60.1653 18.15 1092 104.089 1266.94 457.564
75 0 62.0594 11.6662 724 113.115 1267.45 456.655
76 0 69.2967 18.6012 1289 102.589 1268.47 457.026
77 0 69.2967 18.428 1277 115.699 1269.45 457.143
78 0 72.2294 15.2016 1098 108.851 1269.26 457.638
79 0 73.0765 12.6443 924 115.311 1271.14 454.482
80 0 75.2106 14.3863 1082 111.777 1271.21 456.52
81 0 79.1589 21.0084 1663 101.948 1271.36 458.005
82 0 81.259 15.1983 1235 111.528 1270.9 451.49
83 0 82.2257 15.044 1237 109.939 1270.39 456.507
84 0 83.2246 15.0436 1252 130.103 1270.41 456.653
85 0 87.1973 13.8307 1206 113.166 1269.96 452.263
86 0 89.2613 12.9731 1158 113.937 1270.01 450.438
87 0 93.2044 12.317 1148 114.556 1270.05 450.807
88 0 97.1708 11.0836 1077 114.934 1269.99 454.72
89 0 99.1899 13.0558 1295 113.765 1269.37 448.946
90 0 99.1899 13.0457 1294 126.55 1268.36 449.092
91 0 105.284 14.4847 1525 112.08 1268.47 445.614
92 0 110.609 13.8416 1531 112.577 1267.41 446.026
93 1 59.1204 8.98167 531 115.222 1267.1 473.098
94 0 61.1207 11.6818 714 112.094 1266.84 472.238
95 0 65.05 13.2206 860 110.517 1265.03 468.795
96 0 66.3012 12.594 835 110.824 1265.46 470.412
97 0 67.1662 11.7768 791 112.616 1264.55 468.394
98 0 72.0892 14.5653 1050 110.331 1263.14 463.411
99 0 72.3566 11.623 841 115.629 1262.46 461.97
100 0 75.1587 13.7576 1034 113.059 1261.64 458.068
101 0 77.3549 11.6088 898 110.737 1261.72 462.217
102 0 82.1375 13.9279 1144 106.858 1261.89 461.512
103 0 83.2288 14.0216 1167 107.935 1261.7 453.179
104 0 87.3837 12.3478 1079 109.888 1262.05 454.49
105 0 90.1085 14.194 1279 108.451 1262.24 446.918
106 0 93.102 16.6914 1554 105.498 1261.32 445.21
107 0 96.2219 15.7241 1513 105.88 1262.24 446.881
108 0 99.4628 13.5126 1344 109.326 1262.44 447.6
109 1 52.1229 13.5833 708 106.725 1262.76 464.226
110 0 51.0782 10.8853 556 109.554 1262.64 464.18
111 0 53.1669 15.1034 803 101.8 1262.72 466.509
112 0 50.1067 7.82331 392 115.247 1264.64 464.015
113 0 54.0949 12.8108 693 108.003 1264.69 461.061
114 0 56.2244 13.873 780 105.996 1265.67 460.914
115 0 56.0869 12.3558 693 108.175 1265.34 461.133
116 0 60.2144 13.2194 796 108.295 1266.55 456.903
117 0 65.2021 13.6652 891 105.988 1266.44 461.388
118 0 64.3641 14.3403 923 107.028 1266.48 456.54
119 0 66.3181 13.5106 896 107.733 1266.91 451.769
120 0 71.4244 14.9249 1066 106.117 1267.07 453.796
121 0 70.5404 14.077 993 109.002 1267.97 452.05
122 0 71.3288 12.2251 872 111.632 1268.81 451.904
123 0 75.1664 16.3105 1226 102.983 1269.6 453.584
124 0 78.4939 11.6824 917 111.394 1269.11 449.926
125 0 81.2811 13.0658 1062 111.234 1269.63 445.378
126 0 80.3294 12.7226 1022 112.177 1269.15 448.317
127 0 82.2815 12.676 1043 112.573 1269.65 446.883
128 1 40.2434 8.72193 351 112.866 1269.81 468.453
129 0 39.0527 10.6011 414 112.597 1268.53 466.889
130 0 48.4723 12.9146 626 106.081 1268.65 470.831
131 0 47.0336 10.7795 507 112.698 1267.11 470.306
132 0 49.0718 10.9024 535 109.307 1268.34 477.176
133 0 51.046 10.7158 547 110.324 1267.03 476.009
134 0 52.0465 10.1064 526 116.979 1264.97 476.646
135 0 54.0468 13.8769 750 106.665 1265.97 474.177
136 0 56.1424 14.1248 793 107.98 1264.82 473.475
137 0 57.0615 12.0922 690 109.822 1265 475.872
138 0 60.085 12.2992 739 110.931 1263.03 472.924
139 0 61.1531 14.3084 875 108.503 1263.56 471.878
140 0 59.0734 11.308 668 114.37 1261.5 468.04
141 0 65.1148 14.0675 916 110.003 1261.07 466.33
142 0 68.0929 11.7193 798 113.046 1261.32 467.818
143 0 69.1274 13.2075 913 112.639 1260.91 464.865
144 0 70.1669 12.2422 859 116.506 1259.72 461.601
145 0 72.082 12.0557 869 116.751 1259.44 462.893
146 0 74.0869 11.743 870 118.301 1258.95 460.521
147 0 79.1076 16.5597 1310 111.348 1257.99 461.334
148 0 81.1015 12.8111 1039 119.413 1259.06 453.365
149 0 83.2122 12.1136 1008 120.706 1258.19 451.8
150 0 83.2122 12.0896 1006 131.85 1257.18 451.82
151 1 49.1155 9.54893 469 117.821 1258.25 470.328
152 0 48.1143 11.4103 549 119.266 1258.4 466.231
153 0 53.0656 16.244 862 108.497 1259.16 465.574
154 0 51.099 13.2683 678 112.196 1260.57 464.19
155 0 55.178 13.103 723 111.38 1259.91 463.762
156 0 56.3279 13.1551 741 111.839 1260.69 462.872
157 0 58.0584 12.6252 733 112.105 1261.03 461.935
158 0 58.1125 13.3878 778 112.452 1261.68 459.458
159 0 59.1009 13.7561 813 112.492 1262.96 460.973
160 0 63.2267 14.7722 934 111.781 1262.92 457.489
161 0 63.0767 13.6818 863 114.168 1263.98 458.043
162 0 67.1521 20.4461 1373 103.715 1264.29 459.476
163 0 69.3007 15.844 1098 110.849 1265.37 455.352
164 0 69.3007 15.8584 1099 137.629 1266.36 455.413
165 0 72.167 14.6466 1057 115.796 1266.47 454.321
166 0 74.187 15.7575 1169 114.406 1266.77 453.913
167 0 76.1118 13.086 996 118.354 1266.34 455.319
168 0 81.2111 12.3013 999 119.373 1266.82 454.77
169 0 84.147 14.3558 1208 115.954 1267.49 456.263
170 1 46.1823 12.1692 562 115.637 1266.17 474.173
171 0 46.1823 12.1259 560 142.609 1265.17 474.13
172 0 46.3938 11.9844 556 115.156 1266.41 478.714
173 0 48.1081 12.2017 587 115.526 1266.01 477.044
174 0 49.0473 15.1079 741 110.962 1266.19 479.426
175 0 49.1158 9.89498 486 119.895 1265.31 478.34
176 0 51.0579 13.7099 700 114.9 1265.45 477.513
177 0 53.1199 12.3682 657 117.172 1265.11 475.464
178 0 54.1507 14.0903 763 115.771 1264.74 476.558
179 0 54.2871 12.3418 670 118.315 1264.42 475.984
180 0 56.3748 13.8892 783 117.078 1263.06 474.776
181 0 60.2568 20.8773 1258 104.517 1261.76 475.975
182 0 59.1713 12.9962 769 118.657 1261.49 473.371
183 0 61.2098 15.2917 936 116.531 1261.67 471.694
184 0 62.2519 15.5015 965 116.702 1260.01 468.942
185 0 64.0983 14.1189 905 119.641 1259.77 469.417
186 0 67.2591 14.065 946 120.356 1259.66 466
187 0 68.2677 14.824 1012 119.146 1258.33 463.258
188 0 70.1394 14.514 1018 119.204 1258.93 462.862
189 0 73.2558 15.7257 1152 116.458 1257.77 463.545
190 0 77.2063 14.4677 1117 117.968 1257.75 460.783
191 0 76.1853 11.2226 855 123.235 1256.88 462.264
192 0 78.2953 13.3469 1045 121.922 1257.65 455.003
193 0 78.2953 13.3724 1047 147.181 1257.64 455.037
194 0 85.3268 15.6926 1339 118.075 1257.7 450.997
195 0 86.2377 18.4838 1594 113.899 1258.94 449.521
196 0 91.3675 15.8043 1444 117.54 1258.73 447.638
197 0 94.4347 15.0686 1423 119.489 1259.68 446.547
198 0 95.4063 14.0871 1344 122.521 1259.91 440.555
199 0 95.4671 14.0572 1342 132.183 1260.9 440.682
200 1 52.1995 11.9541 624 121.28 1261.08 466.811
201 0 54.1317 14.5201 786 117.768 1259.92 465.355
202 0 54.0676 13.5386 732 123.225 1261.2 462.35
203 0 56.042 15.0601 844 118.454 1262.4 462.744
204 0 56.042 15.0066 841 139.358 1263.38 462.678
205 0 58.1134 14.2308 827 121.838 1263.45 460.572
206 0 59.1652 13.7412 813 122.886 1264.1 460.229
207 0 63.1639 14.8344 937 119.732 1264.79 460.759
208 0 66.0814 14.467 956 119.073 1266.03 463.012
209 0 64.2622 14.6898 944 122.488 1266.48 457.59
210 0 67.141 13.0323 875 126.201 1265.9 458.51
211 0 69.2093 15.0124 1039 122.236 1267.08 458.163
212 0 71.0902 14.9388 1062 121.619 1267.19 462.124
213 0 74.0518 15.4622 1145 122.329 1266.47 459.37
214 0 76.1832 15.5284 1183 120.663 1266.36 462.783
215 0 79.1196 15.1164 1196 122.712 1266.95 461.571
216 0 81.0895 17.4745 1417 121.408 1267.12 459.605
217 0 83.3016 16.5903 1382 120.025 1265.99 464.415
218 0 86.1071 13.46 1159 128.56 1265.63 455.537
219 0 87.0957 12.9283 1126 129.029 1265.36 459.069
220 0 92.2569 15.5327 1433 124.473 1264.27 454.933
221 0 93.1913 11.074 1032 131.614 1264.36 459.464
222 0 99.2558 14.649 1454 124.22 1263.8 458.038
223 0 102.284 15.7992 1616 123.334 1262.35 453.988
224 0 107.221 15.398 1651 123.622 1261.01 449.844
225 0 107.221 15.4353 1655 149.83 1260.02 449.95
226 0 108.4 16.9464 1837 142.807 1258.96 452.24
227 0 116.175 14.7277 1711 128.023 1259.06 444.644
228 0 120.171 14.1298 1698 129.793 1258.39 439.693
229 0 123.419 14.9085 1840 128.592 1257.43 437.338
230 0 132.563 18.9345 2510 119.811 1256.76 430.294
231 0 132.367 14.4976 1919 130.389 1255.5 430.794
232 0 135.358 13.3646 1809 133.344 1256.07 428.606
233 1 73.1695 13.9129 1018 123.972 1256.73 462.582
234 0 72.2887 12.6299 913 127.526 1255.7 459.354
235 0 79.2629 16.6282 1318 116.835 1256.46 461.264
236 0 79.1348 16.1749 1280 120.295 1255.7 456.081
237 0 82.1621 13.5707 1115 122.97 1255.45 456.947
238 0 83.1776 13.2247 1100 124.195 1255.6 452.805
239 0 88.2356 15.2206 1343 119.323 1255.22 448.494
240 0 88.0916 13.6108 1199 124.599 1257.37 445.111
241 0 92.204 14.1859 1308 117.962 1256.7 447.226
242 0 95.2143 14.2416 1356 117.584 1257.67 447.205
243 0 99.1499 17.287 1714 112.613 1258.3 445.604
244 0 100.447 13.5494 1361 118.88 1257.66 441.459
245 0 106.342 14.5098 1543 115.947 1259.31 442.169
246 0 109.298 16.1119 1761 115.781 1259.29 435.112
247 0 114.238 13.6032 1554 120.449 1260.14 437.358
248 1 74.2028 11.1721 829 122.212 1260.43 455.902
249 0 74.2731 12.4271 923 119.788 1260.83 454.176
250 0 73.1332 11.4175 835 122.892 1261.43 450.255
251 0 81.123 13.1159 1064 116.628 1261.24 456.275
252 0 82.1724 13.3621 1098 117.93 1262.84 452.487
253 0 84.293 13.809 1164 119.6 1263.46 448.21
254 0 87.1969 13.3262 1162 120.734 1263.36 449.682
255 0 88.1355 13.1048 1155 122.465 1263.76 448.144
256 0 92.1871 12.4746 1150 123.407 1263.03 449.722
257 0 97.1157 13.4994 1311 121.301 1264.69 449.238
258 0 100.303 15.1441 1519 119.269 1264.33 446.061
259 0 103.125 14.0218 1446 122.942 1265.18 442.391
260 0 106.299 10.8185 1150 127.224 1263.95 447.747
261 1 56.0937 13.9588 783 118.275 1263.44 470.441
262 0 60.1336 13.47 810 119.117 1263.56 470.515
263 0 63.1602 14.9936 947 114.324 1262.39 472.116
264 0 59.0464 9.7381 575 125.807 1263.38 467.647
265 0 66.03 11.6614 770 119.232 1262.24 470.696
266 0 64.0577 10.9589 702 122.222 1262.14 467.118
267 0 70.2412 12.6564 889 118.251 1260.88 466.816
268 0 73.1908 12.9661 949 123.141 1261.53 465.703
269 0 73.1908 12.9524 948 148.377 1261.52 465.744
270 0 78.0999 12.8041 1000 121.559 1259.07 463.655
271 0 80.1161 12.432 996 122.475 1258.98 462.805
272 0 85.1353 13.1085 1116 121.4 1259.44 458.754
273 0 85.1353 13.1085 1116 137.185 1260.44 458.812
274 0 91.2243 14.4589 1319 118.702 1257.72 454.608
275 0 93.3514 12.7904 1194 123.244 1257.07 448.326
276 1 50.0503 9.73021 487 118.52 1257.9 474.407
277 0 52.0714 11.3882 593 117.126 1257.13 471.648
278 0 54.0348 11.326 612 119.271 1257.69 465.317
279 0 55.0727 11.7481 647 114.077 1257.19 465.836
280 0 52.0231 9.47655 493 118.071 1256.4 468.572
281 0 57.0537 9.3596 534 115.775 1256.18 467.313
282 0 65.1059 8.95464 583 117.034 1255.98 463.467
283 0 63.0577 8.97591 566 114.772 1257.65 465.288
284 0 63.2412 12.5709 795 113.098 1257.65 456.875
285 0 63.1277 10.6768 674 116.417 1258.23 455.803
286 0 68.178 14.7702 1007 108.975 1258.24 456.299
287 0 69.0953 16.2384 1122 106.806 1259.59 454.986
288 0 72.0896 14.2323 1026 109.963 1259.6 453.269
289 0 74.0743 12.0555 893 114.222 1260.32 451.888
290 0 76.1438 12.5289 954 113.841 1260.69 449.794
291 0 78.1536 11.8229 924 116.193 1262.7 451.452
292 0 79.2506 11.7602 932 117.874 1262.96 451.512
293 0 82.1308 11.4817 943 119.011 1265.14 446.598
294 0 85.3142 13.421 1145 114.895 1264.24 447.356
295 1 43.1448 10.1055 436 119.528 1265.5 467.966
296 0 47.1209 10.993 518 120.127 1266.65 463.83
297 0 47.2654 13.5829 642 113.936 1266.75 464.882
298 0 51.164 13.6619 699 113.196 1267.45 463.724
299 0 50.2633 13.5089 679 109.24 1266.48 470.274
300 0 50.1225 11.1926 561 115.096 1267.06 470.31
301 0 53.1108 16.4562 874 106.778 1266.46 468.268
302 0 54.0892 11.0743 599 115.723 1266.47 469.958
303 0 54.0906 11.0001 595 128.491 1266.46 469.985
304 0 58.158 13.2742 772 112.868 1265.39 468.566
305 0 60.0857 14.3961 865 109.717 1265.69 469.521
306 0 63.0789 13.0313 822 112.59 1263.94 471.501
307 0 60.0816 10.2694 617 119.31 1264.82 469.301
308 0 63.0997 12.7734 806 114.945 1263.61 468.656
309 0 66.0675 14.5155 959 111.591 1263.66 467.729
310 0 70.1011 13.9941 981 112.308 1263.18 467.535
311 0 71.0672 13.9868 994 112.579 1262.36 465.181
312 0 74.0771 13.6884 1014 112.704 1261.53 464.993
313 0 74.1103 16.435 1218 109.071 1260.98 459.955
314 0 78.2704 15.6637 1226 109.233 1260.88 457.98
315 0 79.1711 11.0773 877 114.273 1259.52 463.294
316 0 84.314 10.793 910 115.099 1260.5 459.474
317 0 85.1906 11.9262 1016 114.27 1258.35 455.72
318 0 85.1906 11.8675 1011 134.471 1255.34 455.784
319 0 88.1376 11.6182 1024 115.739 1258.38 449.789
320 0 93.1343 11.4888 1070 114.525 1258.6 453.739
321 0 97.0482 13.8694 1346 111.373 1258.99 449.256
322 0 98.1023 10.4687 1027 115.427 1258.59 446.92
323 0 103.358 13.8354 1430 111.81 1258.28 439.366
324 0 104.301 11.4381 1193 114.869 1257.38 436.228
325 0 108.707 9.58537 1042 113.927 1257.36 434.349
326 1 63.064 13.0502 823 104.204 1257.47 460.22
327 0 63.064 12.9868 819 123.527 1258.45 460.192
328 0 63.2251 12.3843 783 103.831 1258.28 450.948
329 0 67.0766 10.3911 697 110.353 1257.5 454.755
330 0 70.2521 11.1883 786 109.547 1259.25 448.095
331 0 73.2982 13.561 994 104.887 1259.79 450.413
332 0 74.2951 14.8731 1105 104.039 1260.95 450.457
333 0 77.0683 16.5567 1276 102.971 1260.83 443.487
334 0 77.1344 12.6014 972 108.754 1261.08 442.334
335 0 82.1276 14.8428 1219 104.706 1262.4 446.516
336 0 87.1412 15.3659 1339 104.118 1263.11 445.073
337 0 86.1576 12.7325 1097 108.229 1263.03 440.696
338 0 88.233 14.5524 1284 105.355 1264.03 446.271
339 0 91.2727 14.0787 1285 106.03 1265.55 440.609
340 0 91.2727 14.0787 1285 128.072 1266.56 440.726
341 0 98.3626 12.5454 1234 108.213 1265.31 438.36
342 0 100.249 11.242 1127 110.84 1266.04 442.413
343 0 106.517 14.2701 1520 107.57 1267.32 436.979
344 0 108.293 12.4569 1349 111.223 1266.59 435.91
345 0 115.484 15.6819 1811 105.605 1267.44 440.624
346 0 119.357 19.0605 2275 102.529 1268.55 430.728
347 1 59.0953 10.39 614 111.217 1268.15 464.244
348 0 62.2144 11.9908 746 110.19 1268.07 464.991
349 0 63.1547 10.1655 642 114.109 1268.68 461.636
350 0 67.2494 12.1339 816 110.828 1267.81 463.738
351 0 70.2618 15.855 1114 103.551 1267.09 468.557
352 0 72.564 13.7396 997 108.972 1265.94 461.681
353 0 79.472 14.7096 1169 106.882 1266.29 463.163
354 0 78.3 15.0575 1179 109.139 1265.61 460.272
355 0 79.1024 13.944 1103 112.862 1264.25 456.335
356 0 79.1024 13.906 1100 150.102 1262.23 456.315
357 0 86.3521 14.024 1211 111.587 1263.19 460.144
358 0 89.3723 13.9752 1249 112.883 1262.9 454.387
359 0 91.2326 14.9727 1366 111.895 1262.84 453.322
360 0 94.3409 14.7656 1393 111.602 1262.56 453.391
361 0 96.3259 16.3507 1575 110.66 1260.97 449.043
362 0 101.264 14.6251 1481 112.562 1261.21 448.616
363 0 104.262 19.2112 2003 106.106 1260.74 445.92
364 0 105.299 15.4987 1632 111.865 1260.2 438.526
365 0 107.328 16.0256 1720 111.476 1260.52 439.358
366 0 111.271 22.4137 2494 103.663 1261.34 434.528
367 0 111.271 22.3688 2489 127.463 1262.36 434.384
368 0 117.238 18.5862 2179 106.727 1260.7 433.682
369 0 121.398 14.3248 1739 110.405 1259.84 431.258
370 0 123.241 16.131 1988 108.829 1260.49 429.698
371 0 132.552 17.4875 2318 106.805 1260.85 419.412
372 0 132.266 18.0394 2386 107.237 1261.41 418.679
373 0 138.425 15.3224 2121 111.733 1260.97 413.773
374 0 144.306 19.3201 2788 105.296 1261.66 411.997
375 0 147.409 15.535 2290 112.232 1262.08 404.448
376 0 152.219 14.8076 2254 114.114 1263.08 400.354
377 1 84.3791 14.0675 1187 107.419 1264.05 440.903
378 0 84.3791 14.0319 1184 132.003 1265.09 440.812
379 0 91.2751 12.6431 1154 109.805 1265.45 439.855
380 0 91.126 11.6103 1058 111.6 1266.25 436.797
381 0 94.1935 11.2322 1058 111.518 1265.66 440.531
382 0 96.1277 11.027 1060 112.991 1267.43 438.37
383 0 103.218 15.5011 1600 107.716 1268.16 435.051
384 0 105.173 15.6694 1648 106.762 1267.45 435.817
385 0 109.226 12.671 1384 113.469 1268.22 431.749
386 0 114.222 14.3405 1638 112.806 1268.51 436.383
387 0 116.24 13.1796 1532 113.827 1268.96 434.646
388 0 116.24 13.2484 1540 139.425 1268.95 434.707
389 1 65.2065 11.3486 740 113.869 1269.31 460.876
390 0 67.2422 12.2393 823 116.32 1269.49 460.808
391 0 73.1451 13.9859 1023 113.676 1269.66 457.318
392 0 74.0953 14.2114 1053 113.731 1269.61 460.115
393 0 75.116 14.7239 1106 113.193 1268.03 459.411
394 0 77.2347 12.8958 996 116.702 1268.9 457.022
395 0 80.1107 14.2553 1142 114.985 1266.87 457.149
396 0 83.0812 14.3715 1194 114.504 1267.36 458.04
397 0 84.2213 17.5846 1481 109.63 1267.25 457.445
398 0 86.3226 15.2336 1315 114.376 1264.99 450.966
399 0 91.2436 13.7434 1254 116.281 1264.13 453.166
400 0 95.2795 14.4207 1374 115.774 1263.57 451.402
401 1 50.1357 9.25488 464 117.487 1263.85 474.858
402 0 48.1456 9.49204 457 117.092 1262.8 474.486
403 0 52.2372 15.0276 785 109.484 1263.14 470.498
404 0 52.1392 12.5434 654 105.544 1261.05 476.639
405 0 55.0703 12.1663 670 109.804 1260.6 469.267
406 0 59.1418 13.7466 813 106.859 1259.76 466.207
407 0 57.1468 11.3217 647 111.24 1259.76 469.284
408 0 59.2615 12.9426 767 107.729 1258.54 468.03
409 0 60.1948 12.0941 728 110.448 1259.22 464.412
410 0 63.1055 14.6421 924 108.187 1259.35 460.137
411 0 65.2569 11.0793 723 116.376 1260.46 460.306
412 0 66.0744 13.5907 898 111.938 1260.86 460.215
413 0 70.1262 11.6362 816 115.423 1260.64 457.109
414 0 72.0969 13.6483 984 112.418 1261.08 452.105
415 0 71.1039 12.095 860 115.524 1261.35 449.171
416 0 76.2183 16.0591 1224 107.288 1262.36 454.781
417 0 79.1282 14.0784 1114 112.759 1262.19 447.602
418 0 79.1282 14.129 1118 137.268 1262.15 447.806
419 0 79.1282 14.129 1118 136.778 1262.15 447.806
420 0 84.0671 11.9309 1003 118.063 1263.51 441.319
421 0 90.3869 14.2167 1285 112.679 1264.8 444.728
422 0 94.3084 14.4314 1361 111.251 1264.86 443.095
423 1 48.0699 11.3168 544 115.173 1265.56 462.267
424 0 52.1192 12.0685 629 111.485 1265.28 462.181
425 0 50.1008 11.8561 594 112.919 1266.42 461.259
426 0 52.1403 12.0061 626 111.519 1266.73 462.982
427 0 52.1732 12.0177 627 113.418 1267.11 461.584
428 0 56.0444 13.2752 744 110.124 1269.28 463.071
429 0 59.1188 13.6674 808 107.964 1269.81 467.368
430 0 58.0776 13.5164 785 112.209 1269.82 464.168
431 0 58.1775 15.1261 880 111.767 1269.37 462.35
432 0 61.1058 13.0102 795 115.197 1269.71 463.64
433 0 63.0555 17.9842 1134 107.514 1270.26 464.617
434 0 65.0734 14.4145 938 112.678 1268.84 464.569
435 0 67.1465 13.8503 930 113.891 1269.22 465.023
436 0 67.5178 13.7741 930 114.994 1269.02 465.799
437 0 69.2509 13.906 963 117.179 1268.83 464.239
438 0 72.3847 14.8374 1074 116.479 1268.36 461.06
439 0 73.2328 19.2127 1407 110.552 1267.45 462.414
440 0 77.2404 13.0372 1007 118.185 1267.14 469.835
441 0 79.411 14.3557 1140 119.049 1266.96 460.639
442 0 81.4148 17.9206 1459 113.912 1265.71 459.848
443 0 83.1722 14.7766 1229 120.031 1265.46 457.891
444 0 87.2249 16.211 1414 118.375 1265.12 456.856
445 0 89.2253 14.1888 1266 123.11 1263.08 453.423
446 0 91.4229 14.4056 1317 121.752 1262.96 450.911
447 0 94.5087 15.4377 1459 119.574 1262.97 449.49
448 1 50.1031 12.8535 644 117.488 1261.81 471.276
449 0 54.1153 13.9147 753 118.712 1261.48 468.884
450 0 56.0387 13.9725 783 120.727 1260.72 468.78
451 0 60.1241 15.285 919 115.135 1259.72 464.423
452 0 62.1224 14.5358 903 117.917 1258.8 467.035
453 0 63.1454 12.7642 806 121.789 1258.48 465.414
454 0 62.0901 11.8054 733 125.911 1258.54 460.76
455 0 66.1548 14.4358 955 120.498 1258.09 457.334
456 0 69.0766 11.9288 824 125.653 1258.43 457.769
457 0 70.0505 12.7622 894 122.771 1257.04 458.186
458 0 73.1017 12.2979 899 123.812 1256.36 455.066
459 0 77.2259 16.2769 1257 116.804 1255.51 451.438
460 0 77.2259 16.2122 1252 132.141 1254.5 451.455
461 0 81.1725 14.6478 1189 119.79 1257.87 447.823
462 0 83.1582 12.2538 1019 123.545 1259.05 451.92
463 0 87.1301 14.6218 1274 120.925 1260.83 447.336
464 0 90.2131 15.1087 1363 119.859 1260.87 447.72
465 0 91.0918 16.0058 1458 117.951 1262.97 446.248
466 0 99.2635 17.9421 1781 112.259 1263.82 449.459
467 1 48.0504 11.3006 543 115.808 1263.83 470.689
468 0 50.0558 10.9478 548 119.241 1265.33 469.442
469 0 54.0415 12.4534 673 115.632 1267.86 465.538
470 0 55.1623 12.7805 705 118.26 1267.77 466.774
471 0 56.1156 12.3317 692 119.539 1267.59 466.724
472 0 59.066 13.2733 784 116.841 1267.85 469.26
473 0 59.1458 13.2723 785 117.093 1267.49 470.219
474 0 62.1442 13.4848 838 115.618 1267.84 470.368
475 0 64.2441 15.1142 971 112.68 1267.56 469.776
476 0 64.1453 12.1599 780 118.982 1267.39 467.118
477 0 66.0656 14.3342 947 116.461 1266.11 468.528
478 0 65.212 12.421 810 112.968 1264.4 474.165
479 0 70.221 13.5857 954 111.504 1264.13 471.715
480 0 72.1202 12.1186 874 113.465 1263.81 472.299
481 0 77.1166 11.4632 884 113.656 1263.35 475.592
482 0 76.1019 15.3084 1165 111.49 1263.32 471.517
483 0 77.1164 11.1779 862 117.125 1261.66 474.313
484 0 78.1216 13.2358 1034 115.926 1260.7 470.369
485 0 83.1791 13.0562 1086 116.84 1257.22 466.879
486 0 87.1402 12.4627 1086 117.011 1255.98 463.257
487 0 88.1318 13.06 1151 117.282 1256.72 464.821
488 0 91.2285 12.5728 1147 119.107 1256.08 463.001
489 1 47.0896 10.4482 492 118.242 1255.17 484.203
490 0 50.118 10.7147 537 120.998 1255.19 482.147
491 0 50.2303 13.9756 702 116.99 1254.91 476.506
492 0 53.3429 14.7724 788 114.732 1254.94 476.525
493 0 53.3429 14.8661 793 128.112 1254.93 476.48
494 0 53.1446 11.29 600 116.762 1253.38 477.362
495 0 55.1556 14.0874 777 112.335 1253.27 476.187
496 0 57.115 12.8162 732 113.523 1252.5 475.787
497 0 57.2136 10.8715 622 117.725 1253.28 474.662
498 0 61.3726 13.4914 828 115.274 1252.82 469.791
499 0 62.1943 11.6892 727 118.63 1253.2 469.7
500 0 65.2707 12.3486 806 118.672 1253.09 463.639
501 0 67.1843 12.3838 832 117.786 1254.54 465.645
502 0 68.1161 10.2032 695 120.43 1255.09 467.61
503 0 71.2309 15.4006 1097 113.82 1256.01 462.353
504 0 73.1405 16.6119 1215 113.036 1256.26 457.881
505 0 73.38 15.2085 1116 115.853 1257.06 455.398
506 0 78.3151 14.2884 1119 117.603 1258.44 454.172
507 0 80.3773 12.3542 993 122.444 1258.59 452.321
508 0 82.2941 18.045 1485 110.607 1260.01 455.007
509 0 83.6023 12.7389 1065 119.987 1260.62 447.688
510 0 87.4377 14.4789 1266 116.652 1261.38 449.338
511 0 89.4465 14.1761 1268 117.724 1261.65 445.341
512 0 89.4756 12.0145 1075 120.685 1262.68 446.686
513 0 96.5567 12.0758 1166 119.256 1263.47 446.829
514 0 100.734 12.6968 1279 119.696 1263.43 441.908
515 0 104.907 14.2888 1499 117.151 1265.44 437.268
516 1 57.4386 11.5602 664 117.587 1265.1 462.292
517 0 58.3024 14.5792 850 113.674 1265.87 463.473
518 0 62.2193 13.0988 815 117.058 1264.47 469.598
519 0 64.2108 13.1598 845 116.761 1264.76 471.704
520 0 66.2164 12.3081 815 118.436 1264.76 469.498
521 0 68.1745 14.0668 959 115.385 1264.47 469.853
522 0 72.1664 14.231 1027 114.846 1263.76 471.086
523 0 71.1516 15.6286 1112 127.068 1262.84 470.292
524 0 75.2961 14.6355 1102 115.088 1262.05 465.706
525 0 74.4253 11.6761 869 120.203 1260.49 468.72
526 0 80.1374 13.4644 1079 116.044 1261.03 469.545
527 0 83.1826 12.9594 1078 118.509 1260.25 463.41
528 0 86.3905 16.8653 1457 111.577 1259.67 462.966
529 0 88.3519 14.7818 1306 114.876 1257.68 462.458
530 0 93.3256 14.5298 1356 115.197 1256.55 457.903
531 1 46.0896 9.6117 443 117.734 1256.67 483.176
532 0 48.0934 11.8104 568 113.354 1255.55 480.924
533 0 52.3168 12.9404 677 109.056 1256.51 476.279
534 0 50.144 11.0681 555 111.622 1253.81 477.524
535 0 52.1015 11.919 621 109.601 1252.33 475.367
536 0 55.0794 11.0931 611 111.051 1252.68 472.727
537 0 57.057 12.7416 727 107.607 1252.4 471.462
538 0 60.155 15.3603 924 102.473 1252.83 468.681
539 0 61.1138 15.7902 965 101.081 1252.29 468.255
540 0 64.2543 14.3492 922 102.927 1255.33 469.907
541 0 65.2622 13.9131 908 103.66 1252.39 469.11
542 0 67.1115 11.4883 771 106.85 1253.45 466.016
543 0 69.156 13.231 915 106.089 1256.49 460.548
544 0 74.1793 13.3865 993 105.355 1256.9 460.997
545 0 76.1136 18.1308 1380 99.6181 1257.83 456.633
546 0 77.1245 13.1865 1017 106.603 1257.11 456.891
547 0 78.0962 13.8675 1083 106.249 1258.77 457.92
548 0 82.1134 15.0767 1238 105.021 1258.61 449.839
549 0 85.1929 17.0319 1451 101.567 1258.62 454.663
550 0 89.3064 17.6695 1578 100.278 1259.13 454.041
551 0 92.1907 13.6239 1256 106.898 1258.29 449.192
552 1 47.0839 10.4919 494 110.057 1257.3 469.413
553 0 50.0402 12.6099 631 106.355 1258.59 468.46
554 0 52.0605 11.3714 592 104.765 1259.96 469.733
555 0 48.0486 10.3853 499 106.834 1261.01 467.517
556 0 55.3113 12.6556 700 101.367 1261.53 468.464
557 0 54.0352 16.3782 885 96.1514 1262.93 472.452
558 0 57.0652 12.2667 700 102.467 1263.64 467.686
559 0 60.1161 15.5532 935 97.6513 1263.41 466.059
560 0 59.0856 12.1349 717 102.194 1263.34 467.487
561 0 65.167 15.4219 1005 96.8189 1263.1 469.842
562 0 62.1465 9.54197 593 105.885 1263.24 467.533
563 0 68.1802 15.0337 1025 97.7229 1262.69 468.053
564 0 69.1361 11.528 797 102.937 1262.3 470.026
565 0 70.1826 9.803 688 105.807 1262.43 466.685
566 0 72.0574 11.5047 829 103.486 1261.52 470.522
567 0 76.158 14.8376 1130 99.9186 1262.55 470.209
568 0 74.0862 10.9872 814 106.953 1260.72 465.327
569 0 77.0943 10.6493 821 106.348 1260.55 471.054
570 0 82.3025 12.5513 1033 105.328 1259.22 464.546
571 0 85.2251 17.6474 1504 98.8717 1258.12 465.104
572 0 89.1216 13.7901 1229 103.669 1258.93 462.601
573 0 91.176 13.0407 1189 104.198 1258.03 463.484
574 0 93.2333 11.8627 1106 107.038 1257.22 460.003
575 0 98.2041 16.7916 1649 101.313 1257.88 458.945
576 0 101.144 18.0634 1827 99.3038 1257.8 459.598
577 0 102.307 15.1212 1547 105.113 1257.2 451.592
578 1 56.0767 10.1112 567 108.72 1257.24 474.81
579 0 58.2267 14.3233 834 101.156 1256.4 473.96
580 0 55.3801 10.2383 567 105.751 1254.1 466.989
581 0 59.1394 15.6241 924 102.618 1253.82 473.639
582 0 62.0635 14.7269 914 104.706 1253.52 468.835
583 0 65.1635 13.0748 852 107.378 1254.15 466.352
584 0 62.1927 11.6252 723 112.358 1254.09 463.409
585 0 67.0916 10.9105 732 112.76 1253.42 464.488
586 0 69.0854 12.4484 860 110.273 1254.49 462.951
587 0 73.1148 14.5798 1066 107.161 1255.5 462.179
588 0 72.1128 13.9504 1006 140.148 1256.34 458.227
589 0 77.1889 13.4734 1040 109.421 1255.2 457.607
590 0 80.3344 14.5517 1169 107.503 1255.51 457.731
591 0 82.1856 17.6552 1451 103.414 1256.66 457.452
592 0 86.1633 18.5578 1599 102.818 1258.07 452.978
593 0 88.3123 12.8861 1138 109.961 1258.05 453.14
594 1 50.1476 10.6884 536 109.782 1258.01 470.724
595 0 49.0368 12.093 593 110.275 1258.28 466.135
596 0 55.2976 16.5649 916 100.436 1260.88 469.009
597 0 53.2509 10.9669 584 109.897 1260.91 463.022
598 0 56.0951 11.6944 656 108.178 1260.14 472.02
599 0 55.1383 12.7679 704 104.729 1262.54 470.328
600 0 56.0546 10.5968 594 107.63 1263.38 471.121
601 0 61.0495 11.6627 712 105.173 1262.57 468.518
602 0 62.08 13.1282 815 104.083 1263.05 468.19
603 0 62.08 12.951 804 130.858 1263.05 468.148
604 0 66.051 13.3685 883 103.646 1262.77 470.566
605 0 66.0831 12.8323 848 105.188 1262.23 468.178
606 0 67.2319 11.0662 744 107.488 1262.87 468.601
607 0 72.1149 10.8438 782 106.794 1262.59 471.832
608 0 75.3754 14.7528 1112 99.7896 1260.74 462.764
609 0 75.0647 10.3777 779 108.657 1260.87 472.193
610 0 82.1797 10.1728 836 108.031 1260.35 470.779
611 0 82.3834 14.3354 1181 104.521 1260.56 465.992
612 0 86.283 12.3779 1068 107.503 1259.83 464.287
613 0 90.1354 12.7364 1148 105.997 1259.91 467.226
614 0 99.2235 13.3638 1326 105.84 1258.88 462.726
615 1 49.1873 12.3609 608 105.451 1257.66 486.6
616 0 53.1262 10.7104 569 110.492 1255.13 479.278
617 0 47.0405 10.2252 481 108.701 1257.48 483.969
618 0 53.1327 11.0102 585 105.853 1257.21 482.28
619 0 53.0726 12.9257 686 104.136 1257.24 480.748
620 0 55.2149 9.4902 524 106.265 1255.5 481.155
621 0 55.1504 11.6228 641 106.402 1255.9 473.752
622 0 61.2426 15.0712 923 100.548 1255.88 473.438
623 0 61.2426 15.0712 923 117.336 1255.85 473.548
624 0 62.2028 13.2309 823 104.79 1254.17 472.021
625 0 64.2672 14.5798 937 102.735 1255.02 467.581
626 0 65.1833 13.2856 866 106.336 1255.75 465.079
627 0 64.1774 11.7954 757 108.05 1254.68 466.386
628 0 66.209 15.3453 1016 104.334 1255.44 463.908
629 0 66.2172 11.5831 767 110.02 1254.55 462.035
630 0 71.2083 11.7262 835 108.584 1254.63 464.063
631 0 74.3554 14.1483 1052 107.005 1255.52 458.469
632 0 77.4315 16.7761 1299 102.75 1256.02 455.229
633 0 79.5053 13.5714 1079 108.244 1257.59 446.693
634 0 81.4876 12.5172 1020 109.585 1256.34 451.121
635 0 83.488 13.3792 1117 109.266 1258.18 446.816
636 0 86.5654 12.0371 1042 110.789 1258.42 445.113
637 0 88.4619 11.0895 981 111.057 1259.22 445.579
638 0 91.5105 12.1953 1116 110.054 1259.92 441.851
639 0 94.7668 12.4411 1179 110.568 1259.94 438.238
640 1 46.1185 6.41825 296 110.098 1260.81 459.578
641 0 50.1606 11.0844 556 105.838 1262.54 463.692
642 0 54.2259 11.4152 619 104.842 1261.64 472.9
643 0 53.1105 13.0483 693 103.32 1261.86 473.066
644 0 61.4196 13.074 803 100.483 1262.47 475.191
645 0 60.0709 13.4674 809 102.006 1262.71 469.642
646 0 63.1438 12.3528 780 103.415 1262.39 469.847
647 0 64.2644 12.3863 796 103.879 1262.32 468.281
648 0 71.2309 13.73 978 98.9949 1261.9 473.37
649 0 68.3856 9.84126 673 105.158 1261.92 467.996
650 0 73.2844 15.0373 1102 99.1842 1261.39 469.611
651 0 75.3839 19.1818 1446 94.7393 1261.61 469.521
652 0 76.1717 11.7104 892 104.672 1262.05 465.701
653 0 78.2986 11.635 911 103.419 1261.84 471.766
654 0 78.1094 11.5223 900 104.796 1261.8 464.392
655 0 83.2795 13.4487 1120 102.581 1261.48 466.578
656 0 85.2066 11.7479 1001 105.163 1260.26 466.432
657 0 88.3888 14.6512 1295 101.64 1257.86 463.49
658 0 92.1932 13.1029 1208 104.01 1258.86 463.4
659 0 93.2238 11.4027 1063 106.966 1257.19 461.692
660 0 99.4007 14.2152 1413 102.713 1257.35 457.051
661 1 49.2699 17.5158 863 94.6454 1255.32 483.765
662 0 52.1164 16.962 884 98.3292 1255.69 480.19
663 0 53.2243 15.4441 822 101.41 1256.24 478.28
664 0 54.1537 10.1747 551 114.918 1254.9 475.719
665 0 55.1339 11.3905 628 112.041 1254.39 478.75
666 0 56.0724 13.5182 758 109.521 1254.14 476.157
667 0 60.145 13.9164 837 109.344 1253.59 472.484
668 0 61.1066 12.7973 782 111.679 1254.52 471.746
669 0 61.2359 15.2525 934 108.711 1253.59 469.592
670 0 61.1727 13.6172 833 112.439 1254.57 468.473
671 0 61.1727 13.5845 831 141.521 1255.58 468.426
672 0 68.1427 14.8512 1012 109.734 1254.7 459.634
673 0 70.0969 14.2089 996 110.73 1254.97 464.347
674 0 71.0574 12.1733 865 115.95 1255.56 461.016
675 0 72.1688 14.1335 1020 113.634 1254.76 459.271
676 0 77.165 16.3675 1263 110.131 1256.88 455.036
677 0 78.3143 14.097 1104 113.506 1257.63 457.116
678 0 79.0931 13.364 1057 116.123 1257.77 456.325
679 0 81.0867 13.7877 1118 116.503 1258.29 450.309
680 0 84.306 13.8543 1168 114.914 1259.8 456.283
681 0 88.1599 16.5495 1459 111.173 1258.7 450.607
682 1 47.1396 11.4978 542 115.02 1258.41 471.631
683 0 51.0709 13.1582 672 109.397 1260.99 474.802
684 0 51.0609 13.2979 679 135.449 1262.98 474.772
685 0 53.2027 13.0633 695 109.859 1262.21 472.859
686 0 53.1853 13.8196 735 107.376 1261.63 470.083
687 0 55.178 17.5976 971 101.911 1262.38 470.552
688 0 58.0517 16.7609 973 102.605 1261.74 474.77
689 0 59.1129 16.7814 992 104.104 1262.18 470.66
690 0 59.1129 16.9168 1000 117.637 1262.2 470.741
691 0 63.2343 12.2244 773 110.149 1263.54 471.299
692 0 62.1056 11.8186 734 112.059 1262.6 473.06
693 0 68.081 13.4252 914 108.189 1262.72 474.348
694 0 69.2083 13.8567 959 108.663 1263.64 473.908
695 0 73.1387 16.6123 1215 104.258 1263 471.796
696 0 72.2389 12.5556 907 111.621 1260.94 470.497
697 0 73.1881 13.3218 975 110.977 1262.12 471.037
698 0 77.2547 14.0315 1084 109.446 1260.96 471.33
699 0 77.2547 14.0315 1084 125.935 1259.01 471.332
700 0 83.21 13.0874 1089 111.252 1258.66 469.134
701 1 47.0985 10.4674 493 116.694 1258.71 484.655
702 0 51.2735 13.4572 690 108.954 1257.78 483.548
703 0 47.0782 8.81513 415 121.595 1258.22 481.901
704 0 53.2413 12.9599 690 112.728 1256.94 481.664
705 0 53.2413 12.9223 688 131.549 1255.93 481.722
706 0 55.1206 13.4795 743 112.72 1256.84 478.904
707 0 58.2135 13.8456 806 111.649 1256.12 476.792
708 0 58.4164 13.1128 766 113.543 1256.67 476.574
709 0 60.2047 15.4307 929 110.497 1255.83 474.886
710 0 59.1112 10.9962 650 118.491 1254.96 472.698
711 0 61.1866 14.7091 900 110.801 1255.41 473.493
712 0 64.2753 12.6176 811 115.524 1254.9 469.862
713 0 67.1682 13.161 884 114.525 1256.25 464.566
714 0 67.2306 12.5241 842 117.369 1255.16 464.843
715 0 72.2458 12.9419 935 114.201 1255.79 465.983
716 0 72.2081 14.0566 1015 114.188 1256.88 458.776
717 0 74.071 11.5565 856 118.248 1256.84 459.449
718 0 79.1115 12.6277 999 116.007 1257.12 457.271
719 0 82.2699 12.5684 1034 116.437 1257.72 454.306
720 0 84.0777 16.2707 1368 109.469 1257.4 455.408
721 0 87.1362 13.8634 1208 113.3 1258.39 452.665
722 0 90.4498 13.1565 1190 115.316 1258.12 453.37
723 1 50.0401 14.2086 711 107.321 1261.49 474.918
724 0 51.0745 12.8636 657 109.367 1261.03 472.862
725 0 51.1143 12.384 633 108.349 1261.15 470.569
726 0 54.1264 13.5978 736 105.64 1260.16 470.728
727 0 57.1764 13.5021 772 105.207 1261.01 470.623
728 0 58.1234 13.8842 807 106.13 1261.56 469.81
729 0 57.2192 14.6804 840 107.213 1261.55 470.931
730 0 58.1855 13.8694 807 108.213 1262.96 472.413
731 0 58.0851 13.9967 813 109.01 1262.15 470.262
732 0 65.2023 16.3338 1065 105.108 1262.81 468.77
733 0 65.2023 16.3338 1065 116.268 1263.81 468.77
734 0 67.1489 14.6838 986 108.261 1262.55 469.938
735 0 68.1069 12.1574 828 112.576 1262.1 470.295
736 0 69.1528 11.7855 815 114.044 1260.77 470.82
737 0 72.1394 15.4007 1111 109.455 1261.42 469.752
738 0 72.0915 9.22438 665 119.054 1259.86 473.424
739 0 78.4045 13.2135 1036 111.717 1260.55 474.054
740 0 81.0989 14.5748 1182 111.627 1259.23 470.332
741 0 84.1992 14.9289 1257 110.251 1259.84 468.196
742 1 39.0447 10.9874 429 118.294 1258.32 484.056
743 0 45.08 12.1562 548 112.985 1257.22 488.14
744 0 47.0839 12.8069 603 111.655 1257.64 486.083
745 0 46.0457 12.7699 588 114.651 1256.62 483.109
746 0 48.1537 12.4393 599 116.718 1256.57 483.932
747 0 49.1325 13.2295 650 116.522 1256.14 482.886
748 0 50.1261 11.112 557 118.501 1255.66 481.896
749 0 51.0476 10.1474 518 124.23 1255.35 480.276
750 0 55.0549 14.6399 806 116.207 1255.54 475.907
751 0 54.1661 13.6801 741 118.287 1255.71 475.934
752 0 55.1036 15.1896 837 115.978 1255.58 474.968
753 0 59.1193 15.2742 903 115.506 1255.32 470.821
754 0 62.0923 14.7683 917 116.496 1254.74 468.793
755 0 62.229 12.1326 755 122.383 1254.63 467.526
756 0 63.106 13.2951 839 117.615 1255.55 471.014
757 0 65.1556 12.309 802 120.924 1255.98 467.032
758 0 70.1086 13.0084 912 119.284 1256.6 464.169
759 0 71.1757 15.4547 1100 115.579 1256.77 460.09
760 0 73.1748 14.9642 1095 116.315 1257.91 456.403
761 0 76.1258 13.8455 1054 117.257 1256.67 457.685
762 0 80.2014 14.6506 1175 113.418 1258.47 458.703
763 0 82.364 18.8675 1554 107.47 1258.97 457.508
764 0 85.1394 13.9184 1185 115.961 1259.01 449.286
765 1 47.0912 12.1254 571 115.067 1259.27 471.634
766 0 47.1371 10.0982 476 119.368 1259.63 470.937
767 0 47.0595 13.0898 616 112.002 1260.69 470.648
768 0 51.0216 15.072 769 109.092 1263.61 467.497
769 0 51.0351 14.0295 716 114.596 1264.02 468.447
770 0 51.0999 13.0529 667 116.226 1264.25 469.562
771 0 54.1107 12.7701 691 115.085 1264.53 470.653
772 0 54.0708 11.4295 618 119.905 1265.52 468.783
773 0 57.0859 11.8243 675 118.018 1264.85 470.089
774 0 58.0819 11.4149 663 119.21 1265.27 469.86
775 0 62.0556 14.213 882 114.272 1265.65 470.592
776 0 62.1443 12.6319 785 117.931 1265.23 470.217
777 0 64.0858 12.8422 823 116.31 1265.55 471.119
778 0 68.19 19.475 1328 105.706 1264.45 471.419
779 0 67.1171 13.7968 926 115.177 1264.48 470.765
780 0 68.1658 12.2055 832 119.093 1264.34 469.379
781 0 71.0896 12.013 854 118.925 1263.46 468.666
782 0 74.0783 12.0413 892 118.22 1263.83 468.341
783 0 77.0685 15.0645 1161 113.078 1263.34 469.294
784 0 75.0414 11.5003 863 120.79 1263.09 465.729
785 0 81.194 15.309 1243 113.332 1262.21 465.021
786 0 83.423 12.3947 1034 117.952 1261.37 464.648
787 0 86.0759 13.8134 1189 115.669 1260.32 463.162
788 0 87.2105 14.0465 1225 116.145 1260.07 460.567
789 0 91.1844 13.6975 1249 115.298 1259.46 461.007
790 0 95.1414 17.3741 1653 110.956 1259.36 451.683
791 0 103.428 19.6079 2028 105.648 1258.29 443.823
792 1 54.0518 11.378 615 114.901 1259.96 471.979
793 0 53.0279 10.6359 564 118.379 1259.33 475.192
794 0 52.0506 10.0863 525 121.737 1258.22 470.981
795 0 60.048 11.4242 686 115.539 1258.67 468.717
796 0 59.1777 13.3327 789 114.483 1258.61 471.165
797 0 59.1777 13.2144 782 146.379 1258.61 471.164
798 0 62.2555 12.2399 762 118.091 1257.82 464.949
799 0 62.1771 13.8315 860 112.12 1256.56 463.065
800 0 67.2718 11.8623 798 113.043 1258.12 466.12
801 0 69.1929 12.429 860 113.977 1257.34 460.858
802 0 71.3147 13.784 983 111.398 1258.54 462.182
803 0 73.0776 9.7157 710 117.01 1259.11 464.17
804 0 73.2314 10.9243 800 116.895 1259.77 456.384
805 0 78.2717 13.6703 1070 111.445 1260.75 456.896
806 0 81.1742 12.2453 994 115.033 1261.33 450.955
807 0 83.2111 13.5198 1125 113.549 1262.99 450.027
808 0 83.2111 13.5919 1131 145.824 1263.98 450.042
809 0 88.2248 14.1343 1247 111.811 1262.45 444.111
810 1 50.0611 11.3661 569 113.52 1264.85 467.511
811 0 51.0421 13.8121 705 110.07 1264.56 469.038
812 0 51.2426 13.4263 688 112.613 1265.95 464.942
813 0 52.0306 14.6837 764 112.114 1265.93 465.109
814 0 54.0502 15.0971 816 111.773 1264.95 464.751
815 0 59.3854 13.0167 773 113.414 1266.01 466.975
816 0 58.032 14.1129 819 114.111 1265.54 463.728
817 0 59.137 14.9314 883 113.497 1265.87 466.523
818 0 59.153 15.0964 893 112.219 1264.71 469.131
819 0 62.1314 14.0509 873 114.769 1265.39 467.285
820 0 64.0884 12.514 802 118.079 1265.8 467.496
821 0 66.1153 12.6597 837 117.275 1264.89 468.425
822 0 66.1153 12.6143 834 142.902 1263.88 468.44
823 0 68.0844 15.2017 1035 115.214 1265.38 469.517
824 0 67.0735 12.7025 852 142.846 1267.33 466.783
825 0 75.6003 13.0026 983 119.592 1261.32 468.879
826 0 73.4399 12.8949 947 121.681 1259.47 467.08
827 0 76.4326 13.4759 1030 119.059 1261.39 470.46
828 0 79.3185 12.9478 1027 121.48 1261.11 465.608
829 0 84.5342 14.9407 1263 117.635 1260.7 459.705
830 0 86.4958 15.4112 1333 116.507 1259.33 458.936
831 0 88.5654 15.6833 1389 115.67 1259.36 458.359
832 0 93.5743 13.7324 1285 119.447 1258.08 456.711
833 1 51.3351 13.4995 693 118.459 1257.25 474.563
834 0 56.5645 14.0194 793 115.974 1257.28 476.866
835 0 55.1974 13.2071 729 116.001 1257.47 474.709
836 0 56.3306 11.5923 653 120.726 1257.52 472.729
837 0 56.339 12.1585 685 120.696 1257.14 472.096
838 0 59.2576 13.011 771 113.656 1257.37 469.656
839 0 60.1146 11.3949 685 116.374 1257.09 468.311
840 0 61.3295 11.8866 729 116.259 1257.52 470.9
841 0 65.1307 12.9586 844 114.598 1256.13 463.351
842 0 68.3524 15.976 1092 113.871 1256.57 461.05
843 0 69.2553 12.9376 896 118.846 1256.82 459.297
844 0 68.541 12.4597 854 120.605 1256.99 456.851
845 0 74.5134 14.2256 1060 116.625 1257.02 455.951
846 0 78.2834 18.0626 1414 110.013 1258.03 457.25
847 0 79.3824 12.2697 974 120.262 1259.15 455.451
848 0 80.287 13.0034 1044 120.49 1259.55 451.195
849 0 84.4846 12.0377 1017 116.96 1260.06 457.691
850 0 85.3182 11.4161 974 122.547 1259.57 452.537
851 0 91.2015 16.2059 1478 114.31 1260.37 453.102
852 0 93.1519 14.1811 1321 120.35 1259.34 446.818
853 1 52.5408 15.074 792 111.896 1262.82 466.273
854 0 51.4447 13.4125 690 119.759 1262.36 464.657
855 0 54.4049 14.1164 768 116.738 1264.59 468.061
856 0 54.0478 13.5806 734 117.139 1262.6 470.986
857 0 54.0578 14.2625 771 116.511 1263.82 469.752
858 0 56.0515 14.8792 834 115.686 1263.91 467.157
859 0 57.1053 12.0129 686 121.493 1264.73 472.81
860 0 58.0323 15.3018 888 118.396 1264.94 468.466
861 0 60.018 13.0294 782 123.52 1265.22 469.715
862 0 62.1526 15.1884 944 119.852 1265.29 469.85
863 0 63.0678 12.875 812 125.106 1265.03 469.855
864 0 66.1186 13.4002 886 123.771 1265.68 470.485
865 0 67.0977 13.5027 906 122.578 1265.53 472.118
866 0 71.1095 17.5785 1250 115.207 1263.99 468.458
867 0 72.1045 14.9505 1078 120.257 1264.45 461.07
868 0 75.0862 11.9196 895 125.527 1262.52 468.149
869 0 77.1675 15.1489 1169 120.589 1262.66 466.088
870 0 80.1682 12.7357 1021 125.589 1260.85 466.303
871 0 82.0829 14.6559 1203 120.736 1261.9 467.96
872 1 44.0552 11.0543 487 124.893 1260.67 486.09
873 0 45.0615 12.7825 576 123.156 1258.61 482.403
874 0 47.0805 13.8699 653 121.141 1259.74 479.087
875 0 49.1221 10.3823 510 127.712 1259.11 482.382
876 0 50.1423 13.0429 654 125.265 1257.91 476.599
877 0 52.2901 13.6163 712 123.126 1258.32 475.986
878 0 52.0678 13.54 705 125.956 1258 472.105
879 0 56.0969 15.3841 863 122.543 1259.96 471.692
880 0 58.1185 14.5393 845 121.15 1259.82 473.936
881 0 59.1203 11.9248 705 125.641 1260.15 474.587
882 0 62.1116 13.9265 865 123.253 1259.49 469.969
883 0 63.0538 14.1308 891 122.687 1259.93 467.356
884 0 65.069 15.0148 977 120.615 1258.93 467.977
885 0 68.0644 14.2365 969 122.978 1259.5 463.217
886 0 68.2034 13.797 941 124.901 1258.84 458.542
887 0 68.2034 13.753 938 137.317 1257.84 458.552
888 0 75.0769 13.0266 978 124.736 1260.1 458.934
889 0 74.079 12.5947 933 126.581 1258.77 454.255
890 0 79.1462 14.6564 1160 121.647 1261.03 452.943
891 0 83.1354 15.4447 1284 119.847 1261.11 450.523
892 0 84.1508 13.6303 1147 124.007 1261.05 447.886
893 0 88.1961 13.7081 1209 123.27 1260.64 446.868
894 0 86.2075 12.9919 1120 141.504 1260.63 445.258
895 1 49.0749 12.1651 597 119.355 1260.94 471.702
896 0 49.076 11.2682 553 120.966 1261.3 470.058
897 0 52.2313 13.8231 722 117.767 1262.14 468.515
898 0 55.4022 13.4471 745 115.205 1263.52 465.768
899 0 56.0951 12.1044 679 119.424 1262.07 467.539
900 0 58.0826 14.927 867 114.685 1263.25 467.276
901 0 58.0805 11.7595 683 121.523 1263.82 467.473
902 0 61.1176 13.5477 828 117.621 1263.95 465.281
903 0 64.0803 15.6366 1002 113.804 1263.92 467.533
904 0 67.0651 12.4506 835 120.168 1263.61 466.64
905 0 70.0811 14.6259 1025 115.587 1262.95 467.141
906 0 70.1449 14.47 1015 117.364 1263.27 461.923
907 0 73.2691 11.8058 865 122.176 1262.83 464.956
908 0 75.1366 11.6188 873 123.158 1263.15 465.275
909 0 80.0993 15.3185 1227 114.709 1262.6 469.165
910 0 78.2452 11.464 897 125.168 1262.43 461.394
911 0 85.1466 17.4522 1486 112.845 1262.41 463.469
912 0 88.1759 15.5144 1368 116.582 1261.5 460.89
913 1 48.0473 9.74041 468 121.759 1260.82 483.677
914 0 50.0352 11.5519 578 120.401 1259.89 481.964
915 0 54.1583 12.9989 704 117.886 1261.13 480.457
916 0 53.1386 13.0037 691 119.072 1259.57 477.958
917 0 54.0771 12.0753 653 121.746 1258.17 477.832
918 0 57.0322 12.4842 712 120.426 1257.6 478.22
919 0 56.0987 12.585 706 120.873 1256.54 475.613
920 0 60.0802 12.1338 729 120.663 1256.59 476.872
921 0 60.0221 11.2125 673 123.094 1256.01 472.103
922 0 60.0746 11.0196 662 121.133 1255.65 471.172
923 0 61.0433 11.5819 707 117.999 1255.51 473.399
924 0 64.1837 11.3736 730 118.94 1255.81 467.653
925 0 63.0465 7.69273 485 125.208 1256.29 467.775
926 0 62.0498 7.73572 480 139.085 1256.32 467.606
927 0 72.2581 13.4933 975 113.284 1256.79 460.98
928 0 74.07 12.6907 940 115.435 1256.88 461.927
929 0 74.0825 11.4872 851 122.378 1256.45 457.926
930 0 76.1217 8.55209 651 126.562 1256.82 462.278
931 0 80.1368 12.0169 963 122.033 1255.94 456.161
932 0 85.2979 12.6263 1077 121.86 1257.38 452.476
933 0 88.1455 14.3399 1264 118.726 1258.24 448.856
934 0 88.1455 14.2719 1258 143.126 1259.23 448.82
935 1 50.0994 12.2357 613 120.292 1258.51 467.902
936 0 54.1096 14.0825 762 116.61 1260.07 466.612
937 0 58.33 15.6523 913 111.987 1262.38 464.982
938 0 55.1807 13.5373 747 116.976 1262.11 465.46
939 0 56.1944 10.5883 595 118.242 1262.28 468.435
940 0 56.1316 11.1702 627 116.565 1261.57 470.134
941 0 62.3217 13.0452 813 113.137 1262.37 468.993
942 0 60.1674 12.3489 743 115.829 1262.03 469.677
943 0 63.1333 12.9725 819 116.137 1262.34 464.044
944 0 65.1209 10.3193 672 120.504 1263.63 466.967
945 0 66.1731 11.8628 785 117.476 1263.13 467.434
946 0 70.0509 15.0034 1051 112.76 1263.61 464.135
947 0 70.4123 14.3299 1009 113.658 1262.42 463.537
948 0 74.1062 12.8599 953 115.956 1263.82 462.959
949 0 77.389 17.9095 1386 107.587 1262.98 463.209
950 0 81.1587 13.3073 1080 113.631 1263.6 465.074
951 0 81.3365 11.3971 927 118.279 1263.89 460.487
952 0 85.1705 12.1169 1032 116.659 1261.46 461.528
953 1 44.0718 11.5493 509 114.067 1261.88 486.134
954 0 49.061 10.1302 497 117.815 1261.04 480.406
955 0 50.0677 12.523 627 114.199 1259.99 479.683
956 0 50.075 10.1847 510 117.088 1260.57 481.99
957 0 51.0216 13.6021 694 111.099 1259.28 480.588
958 0 52.0973 14.0506 732 109.275 1260.12 480.273
959 0 57.3003 15.8114 906 105.757 1259.17 476.897
960 0 54.0903 11.98 648 113.606 1258.55 478.892
961 0 61.0965 15.942 974 104.758 1257.39 478.534
962 0 61.1095 12.3222 753 111.983 1258.75 473.497
963 0 62.1287 14.5665 905 108.877 1256.6 474.69
964 0 62.123 12.9421 804 113 1258.69 471.388
965 0 64.1695 15.8954 1020 108.008 1257.66 467.19
966 0 65.1396 13.3252 868 113.256 1257.32 467.618
967 0 67.0993 12.4144 833 114.607 1257.26 466.139
968 0 71.3954 12.0456 860 113.587 1256.36 466.733
969 0 71.2584 11.0443 787 115.6 1256.1 463.335
970 0 75.4624 17.3199 1307 106.018 1256.99 460.072
971 0 79.2012 15.2018 1204 109.85 1256.39 457.125
972 0 83.2943 14.983 1248 108.698 1257.34 451.389
973 0 85.231 18.0803 1541 104.986 1256.71 457.225
974 0 88.199 16.6328 1467 107.569 1257.02 453.121
975 1 46.2498 12.9946 601 112.481 1256.33 471.158
976 0 51.4225 12.7571 656 111.505 1257.23 471.837
977 0 50.4153 14.5392 733 105.801 1257.34 470.629
978 0 51.1628 11.6882 598 112.823 1258.12 466.759
979 0 51.2856 15.6184 801 103.683 1259.71 470.497
980 0 51.0407 10.7757 550 110.88 1260.02 470.933
981 0 52.0771 12.7695 665 108.457 1260.27 465.758
982 0 54.2396 10.1955 553 112.787 1260.6 469.353
983 0 57.1596 16.4102 938 102.058 1261.49 465.08
984 0 56.2025 14.4833 814 105.45 1261.38 467.629
985 0 59.1105 12.908 763 108.67 1262.63 464.748
986 0 61.1683 13.046 798 108.395 1263.34 460.807
987 0 61.1683 13.046 798 119.263 1264.32 460.916
988 0 65.209 13.8018 900 106.479 1263.27 460.18
989 0 67.2633 13.9601 939 108.808 1263.97 462.01
990 0 71.3878 13.1955 942 111.16 1264.7 464.742
991 0 73.2984 12.8243 940 108.232 1264.77 468.197
992 0 74.3524 11.0689 823 110.055 1263.83 469.106
993 0 77.5333 13.4265 1041 109.676 1263.86 460.858
994 0 77.5333 13.4652 1044 133.389 1263.85 460.851
995 0 85.6559 18.2591 1564 100.795 1263.44 458.676
996 0 87.5975 13.2081 1157 113.542 1263.79 459.634
997 0 85.331 9.86746 842 118.154 1262.3 455.861
998 1 52.0988 11.5934 604 110.75 1260.95 478.326
999 0 50.1864 10.6403 534 113.159 1261.4 472.983
1000 0 55.0953 13.0501 719 110.9 1259.75 479.004
1001 0 59.2203 15.2482 903 107.767 1259.01 475.984
1002 0 58.096 14.6654 852 109.485 1257.85 474.619
1003 0 58.096 14.6482 851 119.674 1256.88 474.658
1004 0 62.1528 16.0894 1000 108.091 1258.28 470.218
1005 0 64.0549 19.0306 1219 103.27 1256.52 474.149
1006 0 62.0525 14.246 884 129.482 1254.64 469.939
1007 0 67.1138 16.4944 1107 109.216 1256.42 467.348
1008 0 67.1362 12.5715 844 116.031 1256.25 468.226
1009 0 69.0812 13.1005 905 111.704 1256.1 464.019
1010 0 67.157 9.08319 610 118.046 1255.46 467.277
1011 0 72.2218 15.6047 1127 108.432 1256.51 464.972
1012 0 74.161 11.1244 825 116.396 1255.68 461.099
1013 0 77.2365 12.1834 941 113.759 1255.56 462.78
1014 0 79.4456 14.5886 1159 109.89 1256.22 457.744
1015 0 81.1801 11.7393 953 113.814 1255.41 453.839
1016 1 43.2154 8.86258 383 117.12 1256.54 474.76
1017 0 46.0899 13.3218 614 111.56 1258.17 469.717
1018 0 47.1173 11.5456 544 114.542 1258.78 469.498
1019 0 48.2081 10.1643 490 115.294 1258.44 468.496
1020 0 51.3277 12.7806 656 113.553 1260.7 465.034
1021 0 52.0615 13.0615 680 112.087 1261.1 465.847
1022 0 52.1331 9.34148 487 112.511 1258.73 467.955
1023 0 54.0334 10.9932 594 110.221 1260.83 466.399
1024 0 54.1064 9.38891 508 111.978 1260.47 464.394
1025 0 55.0735 9.93218 547 110.464 1261.76 467.221
1026 0 59.0612 11.6828 690 108.713 1260.53 463.1
1027 0 59.1888 10.8804 644 110.098 1260.97 463.002
1028 0 61.1049 10.1465 620 108.835 1259.55 466.276
1029 0 63.0842 12.2693 774 107.041 1260.04 463.62
1030 0 67.125 14.4506 970 104.454 1260.72 458.568
1031 0 67.0884 10.4191 699 110.011 1260.04 463.67
1032 0 69.2238 12.0045 831 107.794 1260.73 457.972
1033 0 70.0415 9.72281 681 113.091 1261.61 459.968
1034 0 75.2067 10.9565 824 110.558 1260.53 463.167
1035 0 78.1114 14.5305 1135 106.323 1260.87 460.53
1036 0 81.0876 12.801 1038 109.689 1259.13 459.499
1037 0 82.2464 16.3411 1344 104.935 1260.41 457.152
1038 0 86.0801 12.1979 1050 111.276 1260.28 455.92
1039 0 89.1137 11.087 988 112.787 1259.95 460.92
1040 1 49.1597 14.6461 720 107.712 1258.72 477.929
1041 0 52.0979 13.9545 727 110.175 1258.69 478.008
1042 0 54.3797 11.9898 652 113.285 1258.62 478.802
1043 0 56.153 13.4276 754 110.292 1257.06 476.642
1044 0 58.0705 13.6041 790 110.281 1255.87 478.781
1045 0 56.1231 10.2453 575 121.962 1255.38 472.838
1046 0 62.0947 14.7678 917 111.424 1255.41 475.847
1047 0 61.1538 12.1824 745 116.713 1254.94 475.262
1048 0 64.1193 13.4749 864 114.373 1254.31 471.015
1049 0 69.2948 15.6289 1083 108.786 1254.12 473.189
1050 0 69.2667 12.026 833 115.059 1252.94 469.678
1051 0 71.2875 11.8113 842 115.517 1254.05 469.496
1052 0 74.3476 13.5848 1010 113.281 1254.33 466.891
1053 0 75.3232 11.8423 892 116.174 1254.35 463.044
1054 0 78.4265 13.7326 1077 111.787 1253.77 464.25
1055 0 81.1971 13.5226 1098 113.036 1253.3 457.964
1056 0 85.2935 15.1594 1293 110.443 1254.57 457.387
1057 0 85.2935 15.2532 1301 130.32 1256.55 457.314
1058 1 46.1939 11.3868 526 111.996 1254.99 473.363
1059 0 42.112 10.4246 439 115.544 1254.88 471.41
1060 1 96.4006 13.8381 1334 111.373 1254.88 449.037
1061 1 50.1832 11.8167 593 111.927 1254.98 471.885
1062 0 50.123 10.4343 523 115.275 1254.44 470.044
1063 0 52.1527 12.0224 627 113.501 1254.25 466.372
1064 0 53.1742 13.7097 729 110.745 1255.93 466.792
1065 0 53.1256 11.0681 588 116.277 1256.12 464.599
1066 0 53.1256 11.0493 587 141.322 1256.12 464.557
1067 0 59.1581 13.54 801 112.785 1257.73 463.903
1068 0 62.1005 13.2527 823 113.079 1259.34 464.597
1069 0 60.0844 11.6003 697 118.396 1259.61 462.684
1070 0 63.0694 14.3493 905 112.465 1261.06 466.762
1071 0 65.0633 13.9556 908 113.888 1261.87 464.619
1072 0 66.1274 11.6442 770 118.603 1261.56 463.492
1073 0 69.1084 13.5584 937 115.252 1263.34 464.037
1074 0 72.1192 13.9353 1005 115.129 1264.32 462.346
1075 0 71.0608 12.3134 875 118.664 1263.06 463.056
1076 0 77.1059 14.2142 1096 115.567 1263.91 460.14
1077 0 78.0634 15.0134 1172 114.431 1263.72 461.733
1078 0 81.1057 14.8818 1207 113.377 1263.21 462.97
1079 0 83.1046 13.9944 1163 115.245 1263.4 461.42
1080 0 89.1527 15.8156 1410 111.746 1262.12 462.006
1081 0 89.1527 15.8268 1411 135.395 1260.12 462.13
1082 0 93.3336 14.3035 1335 115.656 1263.07 458.542
1083 0 95.2491 10.9607 1044 120.081 1263.32 460.05
1084 1 50.2475 12.3389 620 116.481 1262.89 477.855
1085 0 52.1082 10.0944 526 119.544 1262.56 481.363
1086 0 56.0933 12.5149 702 115.35 1262.24 476.782
1087 0 58.1292 13.47 783 114.479 1262.03 478.347
1088 0 57.1942 13.0083 744 116.371 1260.86 480.895
1089 0 62.1094 11.7696 731 117.577 1260.4 477.201
1090 0 63.1378 11.3086 714 120.218 1259.28 470.347
1091 0 66.1577 12.3644 818 117.018 1259.03 474.976
1092 0 64.112 10.4817 672 122.707 1258.95 470.009
1093 0 69.1219 11.9354 825 119.141 1258.15 468.288
1094 0 70.1057 12.9234 906 117.066 1257.23 472.496
1095 0 73.0946 12.2581 896 118.711 1257.14 471.599
1096 0 76.1493 13.1584 1002 117.481 1257.15 466.722
1097 0 78.2438 14.2631 1116 115.449 1257.86 466.739
1098 0 77.1756 8.88882 686 119.286 1256.3 462.612
1099 0 79.1583 12.1402 961 114.528 1255.95 462
1100 0 87.1031 8.79418 766 116.919 1256.07 467.033
1101 0 86.1956 13.3766 1153 113.801 1256.74 453.801
1102 0 86.1956 13.3766 1153 135.603 1256.74 453.801
1103 0 91.198 10.0989 921 116.439 1256.57 460.878
1104 0 94.0865 14.4123 1356 114.524 1257.4 450.777
1105 1 55.2731 11.2351 621 115.884 1256.87 465.929
1106 0 55.3302 13.4827 746 110.992 1257.64 465.307
1107 0 57.1803 11.6124 664 118.173 1258.63 466.482
1108 0 59.1126 12.4677 737 115.696 1260.17 468.418
1109 0 61.1902 11.4397 700 116.433 1259.37 465.994
1110 0 64.0829 14.7621 946 111.306 1261.23 463.6
1111 0 66.0484 12.8845 851 115.308 1261.34 462.74
1112 0 66.2519 13.2223 876 113.034 1262.42 466.315
1113 0 69.1286 13.974 966 114.147 1262.19 459.007
1114 0 72.199 11.4545 827 117.284 1262.97 456.954
1115 0 74.2007 14.8651 1103 111.877 1264.03 456.921
1116 0 77.2176 12.1863 941 115.252 1264.22 458.744
1117 0 79.1517 17.7002 1401 107.883 1263.7 458.408
1118 0 82.1919 14.381 1182 114.504 1265.22 456.162
1119 0 85.0992 14.254 1213 114.872 1263.6 457.451
1120 0 85.0665 14.5533 1238 115.805 1264.64 460.099
1121 0 89.3158 13.01 1162 117.583 1263.94 457.808
1122 1 49.0998 10.2241 502 120.285 1263.99 479.729
1123 0 49.0601 10.6604 523 119.992 1264.55 476.987
1124 0 53.0595 12.4577 661 116.575 1263.57 480.917
1125 0 54.1031 12.088 654 118.743 1264.18 479.523
1126 0 55.1206 15.076 831 110.493 1262 482.475
1127 0 59.1108 15.5302 918 109.353 1262.44 477.747
1128 0 57.2194 9.61212 550 121.902 1261.12 479.238
1129 0 62.1414 13.2118 821 112.934 1260.05 475.72
1130 0 63.2108 13.542 856 114.607 1259.47 475.366
1131 0 64.1175 17.9982 1154 109.068 1258.83 475.688
1132 0 66.0948 17.021 1125 110.621 1257.91 474.333
1133 0 68.0598 14.2228 968 116.888 1257.08 477.21
1134 0 69.128 13.8583 958 118.016 1255.75 471.416
1135 0 68.1203 13.3881 912 122.309 1253.71 470.799
1136 0 72.1238 12.9222 932 121.49 1255.33 469.941
1137 0 75.2084 14.2803 1074 118.488 1255.59 470.389
1138 0 77.1266 15.1439 1168 118.874 1254.82 468.316
1139 0 79.1769 13.8677 1098 120.977 1253.92 467.283
1140 0 79.2027 13.3203 1055 124.02 1253.55 466.362
1141 0 82.1129 14.4922 1190 123.092 1254.35 462.135
1142 0 86.0647 13.1529 1132 125.534 1253.02 460.937
1143 0 87.1692 14.2596 1243 124.542 1252.71 459.213
1144 0 92.172 15.9918 1474 121.436 1252.65 457.35
1145 0 92.2278 13.1414 1212 128.216 1253.52 456.638
1146 0 94.2366 13.9436 1314 129.317 1254.35 449.422
1147 0 96.2015 15.0933 1452 127.138 1255.03 449.512
1148 0 100.275 14.0913 1413 127.507 1254.86 447.693
1149 0 102.273 15.0674 1541 127.517 1256.36 446.656
1150 0 106.127 14.021 1488 129.719 1256.31 447.552
1151 0 106.127 14.0115 1487 139.714 1256.32 447.399
1152 0 108.156 13.4066 1450 135.968 1260.18 435.449
1153 0 116.133 14.8537 1725 131.85 1259.43 433.383
1154 0 120.246 16.7241 2011 127.125 1260.84 429.698
1155 0 124.28 13.9282 1731 132.761 1261.28 432.929
1156 0 126.294 14.8859 1880 131.82 1261.99 430.577
1157 0 130.223 14.3831 1873 132.077 1261.51 426.923
1158 0 134.401 15.1115 2031 130.383 1261.2 425.316
1159 0 141.21 14.1208 1994 131.06 1263.21 424.52
1160 0 141.25 13.7557 1943 134.306 1266.19 423.674
1161 1 84.1519 11.4792 966 132.628 1264.83 457.364
1162 0 86.0837 14.7298 1268 124.494 1263.23 456.543
1163 0 89.1435 12.4406 1109 131.213 1264.34 453.433
1164 0 92.2019 14.5659 1343 125.663 1264.64 457.106
1165 0 93.1273 12.8426 1196 129.953 1264.14 452.656
1166 0 100.114 13.9142 1393 127.07 1264.21 454.64
1167 0 103.256 13.5294 1397 126.823 1263.9 456.974
1168 0 107.183 15.6741 1680 123.382 1263.22 452.236
1169 0 108.238 14.4312 1562 126.846 1262.91 452.035
1170 0 114.21 14.3858 1643 126.041 1261.4 452.92
1171 0 119.452 12.9089 1542 126.9 1261.4 451.574
1172 0 123.366 15.6932 1936 122.37 1260.23 449.856
1173 1 66.2077 12.5514 831 123.742 1260.1 477.189
1174 0 66.205 12.3707 819 123.573 1259.15 474.151
1175 0 72.0441 16.6703 1201 114.61 1258.25 473.495
1176 0 71.0446 14.132 1004 123.21 1256.48 469.236
1177 0 73.0791 14.8743 1087 121.383 1255.85 470.929
1178 0 75.0926 15.9137 1195 120.595 1255.46 469.941
1179 0 77.1223 15.8061 1219 120.729 1254.71 468.309
1180 0 80.1076 14.2184 1139 123.749 1254.26 466.371
1181 0 82.0985 14.1416 1161 123.177 1252.74 464.81
1182 0 84.2074 13.253 1116 126.715 1252.28 458.634
1183 0 88.184 15.6718 1382 121.336 1252.24 459.759
1184 0 86.1443 11.9915 1033 129.202 1252.52 460.113
1185 0 93.1478 14.1066 1314 125.154 1252.4 456.002
1186 0 95.1931 15.5474 1480 124.051 1252.14 454.109
1187 0 96.0924 12.2174 1174 131.555 1253.11 449.979
1188 0 99.0966 13.8148 1369 123.257 1253.75 449.718
1189 0 102.225 13.3138 1361 125.705 1253.68 450.108
1190 1 55.1205 9.66972 533 132.475 1253.49 466.589
1191 0 60.3365 12.2314 738 128.778 1257.24 462.81
1192 0 62.2235 13.5961 846 119.606 1258.4 463.943
1193 0 64.1988 11.1996 719 124.007 1258.39 456.684
1194 0 65.1549 12.8617 838 120.551 1257.73 462.671
1195 0 67.1311 12.7512 856 120.508 1257.24 458.846
1196 0 67.2126 11.0098 740 122.722 1257.8 462.524
1197 0 71.1136 13.8511 985 117.632 1258.79 461.088
1198 0 73.2141 11.4186 836 122.073 1259.13 460.661
1199 0 77.2279 13.881 1072 118.353 1261.29 458.113
1200 0 76.1534 12.1334 924 121.523 1261.63 459.939
1201 0 85.1738 14.6407 1247 116.95 1263.27 457.032
1202 0 84.0802 15.4733 1301 117.493 1263.4 455.02
1203 0 87.1789 15.2789 1332 116.73 1264.91 454.538
1204 0 90.1423 14.2109 1281 119.195 1264.33 450.072
1205 0 92.2064 13.6975 1263 120.043 1265.02 452.158
1206 0 96.1106 14.3376 1378 119.76 1265.95 451.157
1207 0 97.1273 12.6329 1227 123.711 1265.3 448.093
1208 1 56.0462 10.6162 595 123.726 1265.79 474.793
1209 0 56.0722 10.8788 610 121.984 1264.92 480.833
1210 0 57.1603 15.2378 871 117.83 1264.5 478.749
1211 0 59.0967 11.4558 677 125.892 1263.23 475.219
1212 0 60.2696 13.4396 810 121.525 1262.93 475.516
1213 0 61.267 14.445 885 129.642 1262.95 476.649
1214 0 65.104 13.2404 862 124.396 1263.36 474.158
1215 0 66.0457 12.7639 843 125.414 1261.9 473.781
1216 0 68.0979 14.8463 1011 121.54 1260.9 471.933
1217 0 70.0697 13.8148 968 123.829 1260.74 472.681
1218 0 73.2038 12.7316 932 123.784 1259.87 474.927
1219 0 73.2148 12.156 890 127.284 1259.84 470.33
1220 0 75.1315 12.6312 949 126.993 1259.72 467.759
1221 0 77.0513 13.225 1019 126.319 1257.62 465.213
1222 0 79.1022 14.8163 1172 123.321 1258.86 463.619
1223 0 81.1691 13.6012 1104 126.168 1258.05 461.401
1224 0 85.1579 16.4283 1399 120.638 1258.35 460.801
1225 0 88.1067 14.3916 1268 124.674 1257.07 457.636
1226 0 90.1563 15.5397 1401 123.657 1257.49 456.139
1227 0 92.1307 14.1321 1302 127.025 1256.93 453.921
1228 0 97.1347 15.6175 1517 122.938 1257.12 452.63
1229 0 99.2392 15.246 1513 124.184 1256.8 450.074
1230 1 54.085 11.0012 595 126.607 1256.81 473.308
1231 0 52.0157 9.57404 498 129.544 1257.98 472.528
1232 0 58.1496 11.5908 674 122.487 1257.11 468.681
1233 0 56.086 11.6072 651 122.668 1257.85 468.515
1234 0 59.1193 12.7708 755 120.64 1258.23 465.091
1235 0 60.1214 13.9884 841 119.704 1259.64 463.266
1236 0 63.3173 15.7777 999 115.013 1258.15 463.139
1237 0 65.245 13.8095 901 119.317 1259.98 460.533
1238 0 65.245 13.8861 906 129.041 1261.99 460.587
1239 0 70.1052 14.3213 1004 116.804 1260.99 461.362
1240 0 71.2013 13.3705 952 119.667 1261.42 457.868
1241 0 73.17 12.3411 903 122.36 1261.49 454.065
1242 0 77.3541 14.5176 1123 117.5 1262.33 454.341
1243 0 78.2654 14.3103 1120 117.268 1263.76 457.954
1244 0 82.2221 16.7473 1377 113.773 1263.27 452.703
1245 0 84.4596 15.5222 1311 115.98 1264.5 447.857
1246 0 84.1257 13.4323 1130 120.263 1265.01 445.359
1247 0 89.4187 13.42 1200 119.193 1265 448.804
1248 0 94.1652 15.2073 1432 116.874 1265.11 448.873
1249 0 96.2175 12.6069 1213 119.561 1264.44 450.497
1250 0 100.152 12.8904 1291 120.707 1265.16 448.957
1251 1 56.08 12.8388 720 117.668 1265.06 472.857
1252 0 56.0925 14.0126 786 116.415 1265.37 472.234
1253 0 59.0523 13.2933 785 116.504 1263.04 477.073
1254 0 59.1355 12.6827 750 120.295 1262.83 475.195
1255 0 58.1962 8.78064 511 124.843 1261.71 473.499
1256 0 65.1251 14.2188 926 115.3 1262.8 473.882
1257 0 70.4196 14.9106 1050 113.178 1262.67 471.764
1258 0 70.2672 14.5445 1022 114.728 1262.59 473.525
1259 0 71.311 11.7233 836 120.388 1261.55 470.634
1260 0 76.1995 15.1707 1156 115.385 1259.4 468.779
1261 0 79.4039 15.0245 1193 115.604 1259.4 467.635
1262 0 81.4849 15.8925 1295 114.923 1259.35 467.392
1263 0 81.2135 14.4557 1174 119.957 1258.36 464.665
1264 0 81.1886 14.5341 1180 131.115 1258.35 464.624
1265 0 85.2919 13.8114 1178 122.535 1256.02 456.725
1266 0 90.3383 13.6044 1229 122.293 1256.45 457.972
1267 0 92.3448 13.1031 1210 123.507 1256.38 459.545
1268 0 95.2423 13.8909 1323 122.849 1257.03 454.37
1269 0 98.3269 15.6926 1543 118.972 1256.34 454.097
1270 1 53.147 11.741 624 120.779 1256.83 478.372
1271 0 55.1363 13.2943 733 120.858 1257.07 475.405
1272 0 58.217 12.7969 745 122.005 1256.94 471.945
1273 0 58.217 12.8485 748 136.318 1256.92 471.973
1274 0 57.0858 12.5425 716 121.74 1256.31 469.25
1275 0 59.0881 14.3514 848 140.188 1255.27 467.377
1276 0 63.1061 15.0065 947 117.351 1256.52 463.899
1277 0 63.2177 11.3418 717 124.332 1257.97 465.113
1278 0 63.2177 11.326 716 155.958 1258.97 465.073
1279 0 67.1809 13.7837 926 120.546 1258.28 457.355
1280 0 71.2728 14.69 1047 117.388 1259.47 459.269
1281 0 76.5263 15.5371 1189 115.371 1260.6 455.567
1282 0 75.1396 14.6927 1104 120.163 1261.36 453.604
1283 0 78.2901 13.4755 1055 122.076 1261.58 451.752
1284 0 82.1068 14.6638 1204 120.025 1262.2 456.212
1285 0 85.1631 14.0671 1198 124.851 1263.9 452.947
1286 0 85.1631 14.1963 1209 133.967 1264.91 452.923
1287 0 93.1569 15.6832 1461 120.634 1263.76 451.352
1288 1 51.0663 11.1424 569 126.627 1264.83 471.005
1289 0 53.0518 12.3276 654 120.836 1264.75 476.495
1290 0 55.1004 13.0489 719 121.175 1263.87 472.94
1291 0 58.0455 13.2999 772 121.127 1264.49 472.614
1292 0 60.0687 12.6688 761 124.482 1263.99 470.888
1293 0 60.1815 13.4427 809 124.619 1264.3 471.539
1294 0 61.0578 13.823 844 122.363 1263.43 473.755
1295 0 65.0768 16.1348 1050 118.942 1264.69 470.346
1296 0 67.0549 13.1683 883 124.292 1263.91 471.242
1297 0 69.1523 12.7111 879 125.51 1263.7 470.452
1298 0 73.0447 15.0045 1096 120.109 1263.96 474.046
1299 0 71.0843 14.8837 1058 122.828 1263.38 471.867
1300 0 76.1758 15.438 1176 122.607 1262.28 471.105
1301 0 75.1663 13.7163 1031 128.115 1261.25 468.772
1302 0 79.229 11.5867 918 126.87 1258.95 473.8
1303 0 79.229 11.6498 923 130.498 1256.96 473.89
1304 0 85.2104 14.3058 1219 123.239 1257.64 466.458
1305 0 85.2194 12.1099 1032 127.437 1257.41 463.23
1306 0 87.2082 11.8452 1033 127.915 1256.54 462.792
1307 0 92.2434 14.5485 1342 122.771 1256.93 461.185
1308 0 98.2828 14.1225 1388 126.353 1255.73 453.583
1309 0 101.153 12.2981 1244 129.502 1255.75 452.702
1310 0 106.322 12.7255 1353 127.339 1255.36 451.959
1311 0 109.409 15.273 1671 123.342 1255.04 445.428
1312 0 112.47 13.8971 1563 128.53 1254.95 442.526
1313 0 118.216 17.468 2065 120.11 1254.42 432.2
1314 0 121.502 13.3084 1617 127.28 1254.24 435.118
1315 0 126.276 13.3675 1688 126.887 1254.9 432.139
1316 0 128.286 14.7327 1890 124.997 1255.26 428.386
1317 0 132.362 17.0518 2257 120.641 1254.99 422.186
1318 0 137.404 16.0912 2211 121.393 1255.58 427.416
1319 0 142.551 16.2047 2310 120.461 1255.05 420.285
1320 0 146.393 14.345 2100 123.595 1255.47 421.084
1321 0 149.251 17.1188 2555 118.726 1257.19 421.243
1322 0 152.202 19.7107 3000 115.186 1256.7 413.38
1323 0 158.36 17.6686 2798 118.798 1258.62 412.337
1324 0 158.343 17.6641 2797 135.652 1260.62 412.184
1325 0 169.336 17.8167 3017 118.724 1259.09 410.017
1326 0 171.329 15.1463 2595 124.178 1260.2 404.218
1327 0 174.254 14.9896 2612 124.369 1259.78 409.812
1328 0 183.375 16.998 3117 120.383 1260.62 410.526
1329 0 185.353 15.4785 2869 123.983 1261.96 405.19
1330 0 193.432 16.0677 3108 122.602 1261.65 401.652
1331 0 195.374 15.5752 3043 123.772 1262.42 402.374
1332 0 202.441 16.6518 3371 121.939 1261.53 399.774
1333 0 206.353 14.5867 3010 126.958 1263.45 397.707
1334 0 214.607 17.9491 3852 120.935 1262.21 392.684
1335 0 220.48 17.3622 3828 122.776 1263.08 389.011
1336 0 225.468 14.5786 3287 128.689 1262.56 384.564
1337 0 231.65 14.6989 3405 128.237 1261.58 389.545
1338 0 240.705 15.5626 3746 126.856 1262.51 373.671
1339 0 247.632 15.4746 3832 126.191 1262.4 383.543
1340 0 254.629 14.8805 3789 127.784 1261.47 377.262
1341 0 262.74 17.7019 4651 122.675 1261.45 359.139
1342 0 261.641 17.8986 4683 118.178 1261.47 359.161
1343 1 277.7 15.6824 4355 126.823 1260.01 364.372
1344 0 287.511 16.5489 4758 125.937 1258.4 360.371
1345 0 293.741 14.8294 4356 128.698 1258.51 362.157
1346 0 301.803 17.2596 5209 124.897 1257.08 355.979
1347 0 308.768 16.7051 5158 127.113 1257.55 340.871
1348 0 318.809 15.7335 5016 129.215 1257.37 346.34
1349 0 333.84 20.6865 6906 120.51 1256.66 332.472
1350 0 337.853 21.6899 7328 118.743 1256.24 339.714
1351 0 345.002 18.7361 6464 125.128 1255.47 326.586
1352 0 354.201 19.7628 7000 123.797 1255.62 315.525
1353 0 362.153 22.2006 8040 120.75 1255.79 314.84
1354 0 374.895 22.1022 8286 121.814 1254.98 302.902
1355 0 374.672 22.6331 8480 122.244 1253.94 291.532
1356 0 376.792 32.0947 12093 110.742 1254.64 301.413
1357 0 372.851 22.446 8369 124.34 1256.06 289.903
1358 0 371.7 25.0847 9324 120.954 1255.29 288.165
1359 0 372.131 21.5892 8034 126.783 1256.45 289.146
1360 0 369.864 19.6856 7281 129.982 1256.37 287.299
1361 0 371.164 23.3131 8653 123.042 1255.99 288.123
1362 0 369.953 19.862 7348 129.678 1257.58 290.164
1363 0 368.88 20.7628 7659 129.429 1257.56 288.252
1364 0 368.814 21.2004 7819 128.645 1258.58 288.897
1365 0 367.605 17.2196 6330 137.192 1259.77 288.421
1366 0 367.693 23.5033 8642 125.665 1258.83 287.996
1367 0 368.034 22.0224 8105 128.451 1259.53 288.632
1368 0 367.918 18.6835 6874 134.566 1260.47 288.338
1370 0 360.801 16.6768 6017 137.64 1261.24 283.647
1371 0 323.744 24.8314 8039 120.719 1258.84 268.189
