time division length width area intensity CMx CMy
0 0 60.1211 12.9738 780 144.067 1270.5 464.106
1 0 62.1478 14.9321 928 138.011 1269.65 462.719
2 0 65.1158 12.3012 801 133.28 1269.69 466.011
3 0 69.2767 15.9505 1105 122.104 1268.53 465.777
4 0 71.0788 17.1218 1217 126.4 1267.67 463.566
5 1 38.133 13.112 500 132.294 1265.96 476.458
6 0 37.2704 9.8738 368 137.37 1264.58 479.049
7 0 37.2704 9.90063 369 167.295 1263.57 479.022
8 0 41.0677 15.2431 626 124.505 1264.79 477.022
9 0 43.1313 14.8848 642 123.269 1263.59 476.729
10 0 44.0759 14.7473 650 123.325 1262.64 472.932
11 0 46.121 13.4429 620 127.208 1262.13 472.742
12 0 49.0936 16.601 815 121.493 1262.76 470.459
13 0 48.0306 11.9299 573 131.038 1261.77 467.962
14 0 51.0504 17.3162 884 121.32 1262.32 465.319
15 0 51.1114 16.689 853 124.457 1261.94 463.251
16 0 53.0557 14.3623 762 125.247 1262.35 464.776
17 0 56.1935 14.9661 841 120.798 1261.54 461.479
18 0 57.0398 13.9376 795 129.805 1261.47 460.323
19 0 58.0336 14.7845 858 126.283 1260.35 456.469
20 0 57.1017 13.0819 747 129.412 1262.12 457.386
21 0 60.0501 19.2839 1158 117.436 1262.18 456.073
22 0 60.1254 13.4718 810 131.098 1261.83 452.011
23 0 62.0333 13.0736 811 134.376 1263 452.725
24 0 68.1729 14.8446 1012 128.806 1263.05 451.971
25 0 70.0853 16.6654 1168 123.162 1263.97 448.122
26 0 75.4046 16.4579 1241 120.824 1264.86 448.367
27 0 71.0706 13.5358 962 130.807 1264.56 446.001
28 0 75.1889 12.7944 962 129.079 1265.66 444.783
29 0 77.1444 13.8442 1068 125.481 1266.5 445.027
30 0 76.0592 13.8182 1051 129.202 1266.59 443.489
31 0 84.1194 15.2402 1282 124.665 1268.27 438.771
32 0 87.1232 16.4365 1432 120.183 1269.12 442.973
33 0 88.0853 15.3033 1348 121.438 1269.76 436.882
34 0 93.0894 13.4817 1255 124.504 1270.45 437.95
35 1 51.1291 16.7811 858 114.157 1271.14 461.421
36 0 46.0803 9.93916 458 128.247 1272.58 459.434
37 0 48.0376 12.3861 595 124.013 1272.33 459.249
38 0 56.1112 11.6376 653 120.799 1272.65 461.988
39 0 57.0773 13.1751 752 117.648 1271.74 461.812
40 0 55.1069 11.9041 656 120.311 1272.14 460.744
41 0 59.1454 16.0283 948 114.454 1271.81 462.513
42 0 62.0602 15.5655 966 113.574 1271.88 460.03
43 0 63.1784 14.7835 934 116.161 1271.87 458.114
44 0 66.1172 15.3061 1012 120.125 1269.99 457.905
45 0 69.0876 16.7324 1156 124.67 1270.03 461.793
46 0 71.1638 17.2138 1225 122.552 1270.66 463.468
47 0 73.141 17.5961 1287 125.308 1269.07 460.856
48 0 75.0696 20.8873 1568 121.277 1267.6 456.886
49 0 76.052 14.0562 1069 130.551 1268 459.983
50 0 86.0847 13.5796 1169 134.552 1266.48 456.435
51 0 86.0836 13.0455 1123 152.423 1265.51 457.288
52 0 84.1155 16.5368 1391 129.585 1264.78 452.851
53 0 85.4096 12.8089 1094 138.526 1264.69 452.113
54 0 90.1693 15.8701 1431 131.748 1263.21 447.549
55 0 94.1894 16.7853 1581 128.991 1263.76 448.517
56 0 97.0885 16.4489 1597 128.058 1264.02 449.068
57 1 50.1636 12.9975 652 132.189 1262.39 466.667
58 0 51.0497 12.5564 641 131.193 1262.13 467.48
59 0 50.3086 9.8194 494 137.727 1264.05 464.085
60 0 54.0899 13.9028 752 126.98 1262.67 464.176
61 0 57.1654 13.1898 754 128.301 1261.92 460.139
62 0 63.1576 16.0551 1014 120.071 1262.01 459.456
63 0 61.0821 14.5869 891 125.26 1262.83 458.12
64 0 64.1023 13.1197 841 127.485 1262.04 456.39
65 0 66.1883 14.5947 966 125.908 1263.48 452.057
66 0 67.1249 11.8287 794 130.081 1263.13 452.899
67 0 71.1787 14.6252 1041 124.364 1263.86 447.862
68 0 72.0719 12.1129 873 131.111 1264.51 445.64
69 0 77.1201 16.3122 1258 121.506 1264.16 445.932
70 0 81.2598 13.9183 1131 126.431 1264.5 443.096
71 0 85.2378 14.5006 1236 123.645 1265.97 443.784
72 1 42.0441 11.7496 494 122.913 1266.37 460.874
73 0 44.0482 11.9869 528 121.669 1266.86 461.648
74 0 48.064 12.1089 582 118.773 1267.48 463.65
75 0 47.0369 11.8418 557 126.934 1268.71 461.07
76 0 47.0369 11.7567 553 145.904 1269.73 460.966
77 0 48.1193 11.2845 543 126.639 1269.27 461.525
78 0 50.022 11.355 568 127.919 1270.25 460.912
79 0 52.1105 11.8594 618 127.544 1271.71 459.294
80 0 52.1234 11.8948 620 137.315 1272.71 459.31
81 0 56.0503 10.33 579 127.896 1272.41 463.09
82 0 58.1431 14.8255 862 121.788 1271.41 461.023
83 0 59.0641 11.2251 663 128.504 1271.88 462.35
84 0 61.0588 13.1185 801 124.719 1271.56 464.232
85 0 63.1449 12.9543 818 127.33 1271.43 460.738
86 0 62.1007 11.7229 728 130.809 1270.69 460.521
87 0 66.0731 13.2126 873 124.812 1270.42 466.462
88 0 67.0885 14.548 976 140.004 1270.59 460.575
89 0 71.0888 14.6296 1040 124.681 1270.64 462.06
90 0 76.0393 14.624 1112 124.258 1269.69 461.963
91 0 76.0888 13.4185 1021 127.791 1269.41 460.955
92 0 78.0632 14.7316 1150 125.673 1268.73 458.981
93 0 82.0668 17.4858 1435 120.648 1268.09 456.465
94 0 84.2027 14.8214 1248 125.88 1266.43 454.807
95 1 44.0415 10.1495 447 126.81 1264.48 479.389
96 0 46.0765 10.5477 486 125.611 1265.08 478.802
97 0 47.0558 10.4132 490 129.204 1264.38 475.896
98 0 51.0765 14.6643 749 119.629 1263.14 474.531
99 0 52.0906 15.7034 818 117.142 1263.09 473.468
100 0 52.0906 15.473 806 125.493 1262.07 473.395
101 0 53.0472 15.1563 804 125.014 1261.54 469.328
102 0 56.087 13.1225 736 126.851 1260.45 466.084
103 0 57.1213 12.5347 716 128.42 1261.35 467.5
104 0 58.1045 12.3226 716 131.729 1260.8 466.698
105 0 62.1334 13.0686 812 129.578 1261.04 462.672
106 0 63.0854 15.6296 986 125.235 1261.57 460.145
107 0 65.1597 13.2137 861 130.465 1261.45 460.108
108 0 69.2691 12.5453 869 133.251 1261.97 457.54
109 0 67.0524 12.274 823 135.049 1261.68 455.834
110 0 72.1169 15.1698 1094 129.074 1262.6 454.634
111 1 143.303 11.528 1652 138.625 1263.14 420.993
112 0 150.457 15.1938 2286 130.505 1264.46 419.091
113 1 80.2599 13.0825 1050 132.726 1264.6 446.932
114 0 85.2186 12.9197 1101 132.403 1265.01 446.906
115 0 87.1501 15.8233 1379 126.828 1265.59 443.073
116 0 89.0932 13.8282 1232 131.307 1265.69 439.678
117 0 90.1943 11.9409 1077 135.144 1266.54 440.538
118 1 47.1007 12.1867 574 124.16 1266.74 464.188
119 0 46.0181 9.6701 445 127.879 1266.31 465.793
120 0 50.0739 14.3588 719 119.833 1267.56 463.131
121 0 51.0655 13.3358 681 122.307 1268.75 463.053
122 0 55.0953 14.8833 820 123.044 1269.65 465.073
123 0 60.2573 14.6206 881 120.64 1270.02 466.7
124 0 59.0769 12.7969 756 126.183 1270.01 465.184
125 0 60.1103 13.3255 801 128.988 1269.82 459.131
126 0 59.0611 12.1569 718 132.773 1269.65 458.377
127 0 65.0976 14.7932 963 125.362 1269.14 461.773
128 0 64.1323 11.9596 767 133.592 1269.88 460.934
129 0 68.137 14.28 973 127.775 1268.84 461.489
130 0 71.0752 14.9841 1065 124.258 1268.65 464.964
131 0 74.089 13.9562 1034 129.938 1268.13 459.476
132 0 76.1076 14.6634 1116 128.249 1268.5 459.169
133 0 78.0798 13.5374 1057 130.443 1267.3 459.566
134 0 82.0539 14.7098 1207 128.379 1266.29 456.706
135 0 83.1849 13.8367 1151 132.178 1266.66 454.308
136 0 87.1452 13.5521 1181 131.895 1265.71 458.732
137 0 92.3278 15.5641 1437 126.996 1266.71 458.507
138 0 89.1108 13.2419 1180 134.788 1264.86 455.881
139 0 96.1673 14.1628 1362 132.178 1264.3 449.563
140 1 50.0933 11.3788 570 130.004 1264.03 474.363
141 0 51.0542 11.7718 601 130.732 1262.71 472.927
142 0 51.0665 11.4361 584 128.548 1261.86 474.818
143 0 54.0534 13.5052 730 123.211 1260.82 472.989
144 0 56.0358 13.5449 759 123.889 1260.3 471.121
145 0 56.0358 13.5449 759 136.883 1259.31 471.14
146 0 60.0576 12.7378 765 134.616 1258.68 463.774
147 0 61.1155 12.2064 746 136.568 1259.08 463.326
148 0 65.0513 13.3587 869 133.464 1259.42 462.502
149 0 66.0517 14.0345 927 134.204 1259.06 460.947
150 0 68.061 12.8414 874 137.714 1259.57 460.302
151 0 72.1346 12.9619 935 136.427 1259.88 458.353
152 0 73.1034 17.5642 1284 125.245 1261.07 455.827
153 0 75.1355 14.4938 1089 131.465 1260.03 454.588
154 0 76.0655 15.0397 1144 132.195 1260.28 451.048
155 0 79.2255 15.8156 1253 129.933 1261.46 448.559
156 0 80.0816 14.5851 1168 134.679 1262.97 448.14
157 0 83.1253 12.5473 1043 139.437 1262.77 445.406
158 0 86.0994 13.5657 1168 135.348 1264.31 444.539
159 0 90.2639 14.5241 1311 132.291 1264.58 444.576
160 0 92.1784 13.5281 1247 131.706 1264.57 441.86
161 0 95.1705 14.8575 1414 125.897 1266.21 447.31
162 1 51.0905 13.2706 678 133.378 1266.24 460.656
163 0 52.2218 13.1171 685 131.397 1267.42 462.434
164 0 55.0538 13.7139 755 127.974 1267.59 461.958
165 0 54.054 13.3755 723 128.957 1267.69 461.715
166 0 54.1183 11.8259 640 131.37 1268.1 463.62
167 0 59.0538 13.9534 824 126.28 1268.42 461.414
168 0 59.1136 13.2626 784 127.491 1268.27 464.415
169 0 62.0828 13.3209 827 127.013 1269.07 464.68
170 0 64.0914 13.98 896 125.158 1268.6 463.669
171 0 62.066 11.6972 726 130.702 1268.28 465.606
172 0 70.2375 13.013 914 124.968 1268.63 465.23
173 0 73.126 14.8101 1083 121.422 1268.12 462.821
174 0 73.096 13.065 955 126.713 1268.33 464.084
175 0 76.1856 11.9839 913 128.448 1268.01 461.928
176 0 79.1156 12.7788 1011 126.781 1266.55 462.858
177 0 81.3327 14.9386 1215 123.267 1266.75 459.015
178 0 80.328 15.362 1234 131.682 1266.74 459.105
179 1 45.0959 12.8171 578 123.543 1265.72 479.81
180 0 45.1688 11.7559 531 128.102 1264.28 478.482
181 0 47.2106 12.8149 605 128.263 1264.23 477.959
182 0 49.0678 13.3489 655 128.627 1262.98 475.363
183 0 47.0529 12.2416 576 130.043 1261.14 476.816
184 0 47.0529 12.2841 578 150.318 1260.12 476.829
185 0 53.0728 14.7722 784 121.756 1259.82 474.125
186 0 52.1578 15.549 811 122.6 1259.48 471.47
187 0 55.0716 13.2555 730 126.532 1258.06 469.545
188 0 56.1019 14.028 787 124.672 1258.51 467.618
189 0 58.0543 16.7946 975 118.807 1258.33 467.673
190 0 61.1525 13.867 848 124.433 1258.21 466.438
191 0 61.2218 13.0672 800 128.781 1258.06 464.442
192 0 63.0691 14.492 914 127.24 1258.73 461.345
193 0 66.1855 15.6077 1033 124.933 1258.23 459.567
194 0 67.0585 14.286 958 128.21 1258.6 455.765
195 0 72.2042 15.1376 1093 126.23 1258.6 456.246
196 0 72.0949 14.2729 1029 128.302 1258.59 456.126
197 0 72.0949 14.2174 1025 155.521 1258.57 456.087
198 0 77.1522 14.2057 1096 129.86 1259.77 449.592
199 0 80.3048 13.9593 1121 129.029 1261.37 450.203
200 1 44.2493 11.842 524 135.116 1264.23 469.41
201 0 44.0686 13.184 581 121.363 1262.68 468.064
202 0 43.1328 11.1052 479 124.57 1262.18 468.484
203 0 48.1479 14.8708 716 114.951 1264.39 467.936
204 0 50.1349 12.9052 647 120.076 1263.43 466.125
205 0 51.0394 13.95 712 118.876 1263.62 462.768
206 0 51.0611 11.5156 588 123.049 1264.85 465.626
207 0 53.0813 13.6206 723 117.552 1265.37 467.506
208 0 54.1921 10.4443 566 121.226 1266.37 468.763
209 0 56.0951 13.5662 761 116.841 1267.11 466.562
210 0 58.0764 13.8955 807 116.03 1266.2 465.964
211 0 61.1094 13.8768 848 116.778 1267.98 463.248
212 0 63.0722 14.4279 910 116.097 1267.99 462.956
213 0 65.2444 13.4571 878 118.896 1267.53 463.913
214 0 66.1938 13.2792 879 119.481 1268.64 462.312
215 0 71.1316 14.6489 1042 115.599 1268.8 465.907
216 0 75.1374 14.2406 1070 116.412 1267.83 463.307
217 0 75.1514 13.1734 990 120.023 1266.6 462.93
218 0 80.3622 15.4799 1244 114.162 1267.1 463.928
219 0 82.2031 13.5153 1111 118.325 1266.45 463.008
220 0 86.3221 19.3809 1673 107.918 1264.67 462.866
221 1 46.0394 14.2487 656 111.259 1264.87 483.099
222 0 45.0583 13.6934 617 115.335 1264.28 481.271
223 0 48.2573 13.5316 653 114.588 1263.41 479.954
224 0 48.2327 12.1287 585 118.817 1262.61 478.699
225 0 48.063 11.0688 532 121.062 1259.57 478
226 0 48.0872 9.96108 479 123.117 1259.29 478.288
227 0 51.0916 11.4892 587 120.886 1258.03 475.942
228 0 52.0652 10.6021 552 121.109 1257.78 475.466
229 0 54.1448 12.836 695 118.673 1257.42 474.001
230 0 56.1684 11.3943 640 119.903 1257.25 475.228
231 0 59.114 9.82847 581 120.353 1256.08 472.308
232 0 60.1815 13.7085 825 115.232 1256.12 471.37
233 0 62.0963 15.8141 982 109.741 1256.27 471.311
234 0 62.0667 12.261 761 117.838 1255.57 468.907
235 0 61.2943 12.4481 763 118.364 1256.56 464.992
236 0 67.1138 12.3968 832 116.597 1256.06 463.867
237 0 71.1181 12.2754 873 116.504 1256.3 459.207
238 0 70.164 10.1619 713 122.133 1255.59 456.16
239 0 77.1347 10.8252 835 119.786 1256.37 458.66
240 0 80.1837 13.1074 1051 115.755 1258.12 454.523
241 0 82.3171 12.136 999 121.346 1257.56 450.682
242 0 86.2171 13.3964 1155 118.643 1258.68 446.958
243 0 86.2171 13.3616 1152 136.957 1260.66 446.904
244 1 47.0562 13.3032 626 116.479 1258.55 466.829
245 0 51.1736 11.6857 598 114.528 1260.31 465.647
246 0 50.0678 13.4218 672 111.807 1260.28 462.278
247 0 49.0916 9.73691 478 118.68 1260.64 464.552
248 0 52.0636 10.3335 538 118.353 1260.71 462.511
249 0 52.0602 9.75793 508 118.096 1261.34 466.445
250 0 55.1432 11.0621 610 118.089 1262.16 460.241
251 0 56.1154 11.5833 650 117.122 1263.26 460.131
252 0 60.125 17.0811 1027 107.123 1264.39 459.703
253 0 60.094 12.6302 759 113.447 1265.48 463.091
254 0 60.094 12.6302 759 134.325 1267.53 463.206
255 0 65.1234 12.4072 808 115.019 1265.25 459.524
256 0 66.1397 10.4778 693 115.235 1265.76 465.906
257 0 75.2759 16.8181 1266 105.325 1266.33 463.046
258 0 74.2835 14.4716 1075 110.415 1266.43 459.347
259 0 77.4374 13.8951 1076 110.006 1266.6 461.748
260 0 78.341 11.8839 931 114.85 1265.16 459.402
261 0 79.5044 11.861 943 114.29 1265.59 460.089
262 1 45.6584 11.1699 510 112.998 1265.38 476.204
263 0 45.3959 10.6838 485 114.608 1265.18 476.221
264 0 47.2829 14.2123 672 109.025 1265.9 476.807
265 0 46.1002 11.9522 551 108.038 1264.8 478.448
266 0 47.1117 12.6508 596 103.453 1263.48 484.524
267 0 46.2054 10.2153 472 111.456 1262.13 477.79
268 0 51.1328 13.4552 688 106.023 1261.26 473.843
269 0 53.1348 16.4676 875 101.038 1260.29 476.046
270 0 53.1954 10.4896 558 110.07 1259.78 477.369
271 0 55.2952 12.5327 693 107.706 1260.06 473.238
272 0 57.2626 10.6876 612 110.923 1258.88 471.998
273 0 58.3045 12.8121 747 108.443 1258 468.157
274 0 60.1103 13.4419 808 107.202 1258.08 465.66
275 0 60.1835 11.6477 701 109.954 1257.21 464.217
276 0 62.105 14.0246 871 106.455 1256.41 464.509
277 0 67.1117 14.379 965 105.351 1256.28 463.544
278 0 68.1249 12.8 872 108.874 1256.45 458.73
279 0 68.3358 14.2531 974 106.937 1257.13 460.11
280 0 72.1728 14.7147 1062 106.225 1256.97 455.638
281 0 75.218 13.7467 1034 107.792 1257.26 455.748
282 0 76.3482 13.9885 1068 108.033 1257.68 453.126
283 0 78.2683 14.9358 1169 106.159 1257.74 454.435
284 0 81.3122 13.5896 1105 110.557 1258.67 449.45
285 0 83.4088 11.3777 949 115.523 1257.95 445.722
286 0 86.3298 13.7496 1187 111.01 1258.88 446.212
287 0 87.2309 14.7654 1288 111.116 1260.35 439.269
288 0 91.277 14.0232 1280 111.741 1259.81 436.187
289 0 96.5639 14.7053 1420 110.23 1262.4 439.539
290 0 99.2838 11.452 1137 115.302 1263.08 437.364
291 1 57.3236 10.3797 595 107.57 1264.33 463.225
292 0 55.2528 12.9767 717 105.941 1264.31 461.174
293 0 59.4796 15.6188 929 105.168 1265.49 460.123
294 0 58.106 12.3395 717 111.989 1266.74 459.699
295 0 58.0711 13.0185 756 112.057 1267.94 456.579
296 0 61.0517 11.8752 725 112.8 1267.82 457.436
297 0 63.1354 12.4177 784 112.04 1269.55 458.876
298 0 63.1354 12.3386 779 147.449 1271.57 458.772
299 0 67.0739 13.3882 898 110.782 1268.6 459.011
300 0 70.1602 17.004 1193 105.54 1268.82 459.59
301 0 71.1153 15.3272 1090 109.568 1268.57 459.284
302 0 71.0985 15.3449 1091 110.721 1268.21 459.899
303 0 77.2182 14.7763 1141 109.177 1267.79 461.982
304 0 76.1048 12.5748 957 114.954 1268.07 460.698
305 0 76.1037 12.6144 960 149.903 1268.08 460.539
306 0 86.1494 15.0204 1294 110.623 1267.51 458.74
307 0 88.086 15.7914 1391 109.553 1266.64 457.595
308 0 89.2139 13.1706 1175 113.338 1266.23 458.115
309 0 91.1397 12.9033 1176 114.574 1264.82 453.084
310 0 94.104 14.2077 1337 113.915 1264.53 450.853
311 1 50.1656 14.2528 715 107.421 1262.56 474.22
312 0 52.1221 11.1277 580 109.074 1261.77 475.383
313 0 55.0777 18.6282 1026 99.5945 1262.02 470.102
314 0 55.0777 18.4467 1016 121.282 1262.03 470.1
315 0 55.1392 12.677 699 106.542 1260.6 472.986
316 0 56.2134 13.004 731 107.944 1259.52 466.789
317 0 61.0774 12.7052 776 107.849 1258.73 465.768
318 0 61.0774 12.6888 775 135.049 1258.74 465.899
319 0 65.2057 13.5571 884 107.5 1257.37 463.092
320 0 66.3142 15.9996 1061 103.944 1256.43 459.93
321 0 68.074 14.7193 1002 105.602 1257.37 459.549
322 0 76.2309 13.4591 1026 106.01 1257.9 461.209
323 0 71.3196 15.5497 1109 105.609 1256.95 457.9
324 0 75.1611 15.7395 1183 106.36 1256.94 452.751
325 0 75.1611 14.888 1119 108.299 1257.74 452.319
326 0 81.4121 14.1257 1150 108.828 1258.08 448.059
327 0 80.2234 13.4499 1079 110.768 1259.01 443.794
328 0 85.1077 14.7813 1258 109.262 1259.12 443.061
329 0 85.1077 14.6755 1249 127.798 1259.11 443.105
330 0 90.2752 13.7025 1237 110.862 1260.1 442.779
331 0 93.3398 13.1455 1227 112.131 1261.17 438.302
332 0 96.3684 12.2966 1185 111.905 1262.46 440.503
333 0 96.3684 12.1409 1170 133.788 1264.48 440.524
334 1 54.0506 13.8574 749 110.003 1263.64 456.534
335 0 55.0486 16.0222 882 106.765 1264.16 456.347
336 0 55.0699 10.8771 599 112.409 1264.75 458.94
337 0 55.1562 10.9326 603 113.131 1265.07 457.272
338 0 58.2454 14.7995 862 106.724 1266.31 458.327
339 0 61.2465 12.5232 767 110.141 1267.65 458.464
340 0 64.1834 14.3807 923 108.47 1268.41 456.529
341 0 66.1888 13.0687 865 110.717 1268.51 456.275
342 0 67.1165 13.1264 881 111.094 1269.3 454.532
343 0 71.2328 12.1152 863 113.55 1269.59 454.008
344 0 74.1707 14.0487 1042 110.081 1269.39 458.4
345 0 75.2403 14.4869 1090 111.943 1270.34 454.761
346 0 77.2652 15.5956 1205 110.124 1269.85 453.368
347 0 81.269 13.9537 1134 113.349 1268.68 454.359
348 0 82.2333 12.805 1053 114.836 1268.89 456.6
349 0 87.2933 14.3654 1254 111.877 1268.74 454.071
350 0 89.1886 14.2955 1275 112.033 1268.36 454.563
351 0 90.3486 14.6876 1327 111.884 1268.45 452.832
352 0 96.24 14.4846 1394 111.889 1267.23 450.454
353 0 97.358 14.6572 1427 112.855 1266.48 448.906
354 0 100.316 12.2812 1232 117.024 1266.05 444.981
355 0 105.361 16.3154 1719 110.955 1264.33 441.302
356 0 107.26 13.2202 1418 116.539 1264.45 442.348
357 0 108.281 13.6127 1474 116.538 1264.12 444.296
358 1 60.3209 10.2286 617 115.831 1263.36 467.558
359 0 64.1505 12.2369 785 112.638 1262.29 468.902
360 0 63.052 12.4183 783 114.769 1263.04 466.296
361 0 67.1608 12.6413 849 113.229 1261.02 466.649
362 0 67.0412 10.9336 733 117.465 1261.27 462.851
363 0 72.1156 13.52 975 113.228 1260.41 454.908
364 0 73.0618 11.5792 846 117.078 1260.36 456.037
365 0 76.0555 11.8466 901 117.172 1260.08 455.397
366 0 80.1717 15.1675 1216 111.548 1260.12 453.742
367 0 80.1717 15.2049 1219 140.699 1260.13 453.922
368 0 83.0907 13.5635 1127 116.421 1259.47 444.068
369 0 85.1522 15.6896 1336 113.237 1260.15 439.189
370 0 91.3225 17.2575 1576 108.15 1261.08 448.195
371 0 93.1607 15.8865 1480 112.738 1261.72 440.618
372 0 94.1779 14.8655 1400 115.455 1261.72 439.171
373 0 98.2505 14.9618 1470 115.582 1261.89 438.758
374 0 104.166 20.7938 2166 106.297 1262.86 433.692
375 0 103.193 14.0319 1448 122.198 1263.65 435.627
376 0 109.287 14.0731 1538 122.941 1263.44 430.116
377 1 58.1024 11.0839 644 122.904 1264.98 452.761
378 0 58.1024 11.0322 641 154.746 1265.96 452.78
379 0 63.1025 13.9931 883 114.353 1265.96 452.051
380 0 62.0595 13.1648 817 116.733 1266.24 451.427
381 0 65.0264 12.5334 815 116.674 1267.33 454.601
382 0 65.0264 12.6103 820 130.634 1268.32 454.609
383 0 69.0225 11.9961 828 118.25 1269.38 452.194
384 0 73.1836 10.5625 773 119.494 1268.42 453.99
385 0 77.069 14.5843 1124 114.032 1268.78 450.45
386 0 77.1035 12.0228 927 119.832 1269.8 448.547
387 0 84.1148 13.5886 1143 116.835 1270.84 449.787
388 0 86.1368 12.3408 1063 118.689 1269.75 451.642
389 0 89.0636 13.3725 1191 118.264 1269.35 449.368
390 0 92.2737 14.8688 1372 116.109 1269.3 448.184
391 0 94.2538 13.3788 1261 118.787 1268.72 448.929
392 0 98.0778 12.7552 1251 120.692 1268.48 447.557
393 1 51.0388 10.9524 559 117.657 1268.01 474.698
394 0 53.0388 12.0855 641 120.329 1267.89 471.677
395 0 54.1095 10.8114 585 124.092 1266.81 471.978
396 0 57.1135 13.2543 757 118.065 1266.78 471.917
397 0 60.306 15.5872 940 110.699 1266.23 473.252
398 0 57.137 12.3038 703 118.597 1264.27 474.038
399 0 60.1878 11.9958 722 117.972 1263.76 474.845
400 0 64.055 13.707 878 117.139 1263.96 468.407
401 0 62.1349 11.99 745 122.761 1263.19 468.153
402 0 66.048 13.4599 889 119.44 1262.22 467.316
403 0 67.1795 12.355 830 123.804 1261.76 462.272
404 0 69.1257 13.1355 908 122.43 1261 461.304
405 0 74.2146 13.6496 1013 121.116 1260.8 462.676
406 0 77.0729 14.1814 1093 120.952 1259.9 458.94
407 0 77.0887 12.5051 964 124.795 1259.63 457.619
408 0 81.1269 11.821 959 123.478 1259.4 459.144
409 0 84.2125 13.5253 1139 121.615 1259.84 456.043
410 0 83.2814 13.6885 1140 121.915 1259.81 454.046
411 0 89.1476 19.2602 1717 113.23 1258.83 448.82
412 0 88.399 15.2264 1346 120.793 1259.94 446.155
413 0 92.4437 12.9592 1198 125.06 1260.44 445.367
414 0 97.2158 14.8638 1445 121.185 1260.31 440.693
415 0 100.353 13.5821 1363 123.397 1260.25 440.559
416 0 103.294 12.8759 1330 125.927 1261.57 436.767
417 0 103.294 12.8566 1328 158.366 1262.57 436.671
418 1 58.1822 13.8015 803 121.672 1262.01 457.721
419 0 60.1616 12.001 722 126.518 1264.58 456.04
420 0 60.1433 13.1852 793 118.588 1264.26 454.419
421 0 63.1889 12.3598 781 116.624 1265.27 458.12
422 0 64.0934 12.1229 777 120.085 1266.04 452.561
423 0 68.0954 12.9377 881 118.461 1267.03 450.505
424 0 68.0881 12.4251 846 117.246 1267.08 453.444
425 0 75.244 11.3365 853 117.281 1268.81 453.892
426 0 75.2374 14.3678 1081 114.268 1269.46 448.334
427 0 79.1244 14.3698 1137 113.056 1271.1 449.263
428 0 80.1331 12.03 964 119.211 1271.28 449.974
429 0 81.2735 10.6062 862 122.003 1272 447.841
430 0 86.2142 11.309 975 118.989 1271.27 452.522
431 0 92.3092 11.3748 1050 118.711 1270.76 451.83
432 0 96.2796 14.2917 1376 114.124 1270.91 449.908
433 0 100.188 15.6106 1564 110.783 1271.27 450.879
434 1 54.0796 12.5556 679 115.652 1270.86 467.897
435 0 54.0871 11.0562 598 118.948 1270.44 471.192
436 0 58.0852 12.4472 723 117.427 1270.48 468.989
437 0 58.0852 12.43 722 138.133 1270.49 469.118
438 0 63.0376 14.3565 905 113.872 1269.85 467.822
439 0 64.0484 13.8333 886 113.183 1269.02 472.993
440 0 66.0878 11.9689 791 118.522 1268.18 468.469
441 0 68.2947 12.1678 831 116.285 1266.81 469.336
442 0 70.0816 11.5009 806 119.046 1267.06 463.024
443 0 72.1224 13.1305 947 117.57 1266.89 463.856
444 0 76.24 21.0126 1602 102.568 1266.42 468.232
445 0 77.299 10.5047 812 122.252 1264.6 461.376
446 0 82.1846 15.1123 1242 112.599 1263.34 461.114
447 0 84.265 14.4425 1217 113.828 1263.31 459.528
448 0 86.1643 14.6813 1265 114.92 1262.93 456.572
449 0 89.2079 13.8104 1232 117.42 1262.84 450.876
450 0 94.2051 13.1415 1238 118.074 1262.53 451.33
451 1 48.1998 11.888 573 114.068 1262.19 470.733
452 0 48.2459 9.86613 476 115.187 1262.94 471.338
453 0 50.2408 14.4305 725 108.251 1261.94 469.629
454 0 53.1638 14.2202 756 106.417 1261.38 470.37
455 0 51.0956 12.4277 635 111.967 1259.66 466.186
456 0 51.0623 9.47862 484 117.335 1261.11 469.746
457 0 52.0932 10.654 555 117.132 1260.4 464.829
458 0 57.1097 12.8174 732 110.944 1260.13 464.175
459 0 56.0457 10.8304 607 114.723 1261.13 465.186
460 0 57.0502 10.8501 619 115.212 1260.99 462.816
461 0 61.1432 13.0677 799 111.212 1261.84 457.991
462 0 62.0533 13.5206 839 110.07 1262.83 460.195
463 0 64.2728 13.9406 896 109.029 1263.65 462.645
464 0 69.4243 16.0895 1117 104.344 1265.4 463.572
465 0 69.2248 13.2756 919 111.467 1264.22 458.038
466 0 72.0543 14.614 1053 109.392 1264.48 456.695
467 0 74.224 14.4562 1073 110.815 1264.48 455.083
468 0 81.1681 13.8971 1128 109.51 1266.28 458.606
469 0 78.3105 12.6931 994 114.419 1267.14 453.691
470 0 81.1125 12.3039 998 117.467 1267.6 453.191
471 0 84.1224 12.0539 1014 118.419 1268.69 453.516
472 0 91.1452 12.6063 1149 111.214 1267.37 455.533
473 0 89.1764 13.1986 1177 111.271 1267.96 455.51
474 0 91.1223 14.6067 1331 109.869 1268.71 453.101
475 0 95.179 13.669 1301 110.259 1267.33 457.86
476 0 99.0814 6.08591 603 121.831 1268 464.983
477 1 52.1 14.4722 754 110.328 1267.82 478.755
478 0 53.2722 10.1366 540 116.994 1266.88 478.157
479 0 57.1663 13.5569 775 112.477 1266.14 478.243
480 0 59.226 17.2897 1024 107.024 1264.75 479.148
481 0 58.2137 14.9793 872 112.869 1263.37 476.522
482 0 58.2137 14.9449 870 136.947 1262.42 476.566
483 0 64.071 15.4048 987 109.401 1262.09 480.515
484 0 65.1322 14.9696 975 111.411 1261.36 475.906
485 0 68.1017 15.3006 1042 111.307 1259.08 472.325
486 0 69.1015 13.2414 915 113.989 1259.98 475.624
487 0 72.1987 12.9919 938 115.454 1259.29 471.072
488 0 73.1876 13.6635 1000 114.601 1258.77 471.285
489 0 73.2062 12.9497 948 118.117 1257.51 467.692
490 0 79.2064 12.9787 1028 117.61 1257.93 464.494
491 0 80.191 14.1288 1133 115.856 1257.5 468.214
492 0 86.2289 16.3982 1414 109.461 1256.62 468.105
493 0 86.0805 15.3461 1321 114.37 1255.96 459.257
494 0 86.0805 15.3461 1321 135.325 1255.96 459.257
495 0 93.1538 13.1932 1229 117.58 1256.31 456.341
496 0 97.221 14.8322 1442 114.138 1255.54 456.924
497 0 101.255 16.8583 1707 111.001 1254.87 452.128
498 1 56.0693 12.9304 725 111.763 1255.27 473.634
499 0 58.1307 12.1623 707 111.713 1254.9 471.976
500 0 60.1317 11.5247 693 111.756 1254.06 469.178
501 0 62.2316 14.1889 883 114.358 1256.97 463.915
502 0 65.3213 13.7321 897 113.159 1257.38 466.233
503 0 67.3231 13.4872 908 114.677 1258.51 461.518
504 0 70.1683 14.565 1022 113.612 1259.54 459.555
505 0 71.2162 13.1712 938 117.723 1260.5 458.567
506 0 72.1994 12.3824 894 118.186 1260.4 459.535
507 0 75.192 14.9883 1127 115.063 1260.85 455.959
508 0 80.1416 15.2605 1223 113.628 1262.02 455.601
509 0 81.0876 14.0095 1136 117.122 1263.02 450.95
510 0 85.2009 12.3942 1056 119.794 1262.18 450.786
511 0 87.3152 17.809 1555 111.903 1264.02 452.424
512 0 88.2052 12.6863 1119 121.331 1264.41 452.953
513 0 88.1657 13.9056 1226 120.008 1265.76 450.817
514 0 93.2081 14.1082 1315 119.45 1265.35 452.114
515 0 96.3556 15.1833 1463 118.295 1265.94 449.645
516 0 99.613 13.4922 1344 120.452 1266.11 451.557
517 0 103.098 18.3903 1896 112.655 1266.99 449.016
518 0 103.098 18.5649 1914 144.737 1268.02 449.081
519 0 112.614 16.0993 1813 116.207 1264.74 447.688
520 0 112.25 14.0312 1575 119.146 1265.6 451.927
521 1 64.295 14.4801 931 118.576 1264.5 472.257
522 0 66.1999 16.4502 1089 115.5 1264.24 472.802
523 0 67.1789 17.8181 1197 112.62 1263.82 473.505
524 0 67.1212 13.7215 921 119.598 1263.86 470.896
525 0 72.265 13.3121 962 118.695 1262.46 471.014
526 0 74.3801 15.0444 1119 115.621 1262.61 468.936
527 0 75.1823 14.937 1123 117.698 1261.21 469.271
528 0 75.1823 15.0035 1128 154.581 1260.23 469.224
529 0 81.0998 15.931 1292 117.262 1259.4 465.955
530 0 84.4805 16.5837 1401 116.091 1258.55 466.626
531 0 85.1391 14.4587 1231 120.903 1257.56 463.812
532 0 87.2993 14.4904 1265 121.092 1256.71 461.873
533 0 91.1385 14.5603 1327 120.482 1257.19 461.437
534 0 96.6612 16.3664 1582 116.264 1256.85 461.369
535 0 96.3071 16.3228 1572 118.191 1255.62 457.007
536 0 101.357 14.6314 1483 120.561 1254.81 456.746
537 1 53.1585 10.2147 543 127.273 1254.84 472.228
538 0 56.2338 11.5944 652 121.672 1254.24 469.252
539 0 61.2255 13.9974 857 122.004 1255.86 471.91
540 0 63.3169 17.9573 1137 115.122 1254.85 468.715
541 0 66.1999 19.8792 1316 110.793 1255.94 469.615
542 0 65.1754 13.502 880 123.24 1255.9 465.907
543 0 67.1285 13.5412 909 123.834 1256.69 462.081
544 0 69.319 12.9835 900 124.838 1255.99 459.323
545 0 75.3489 15.0367 1133 119.866 1256.99 458.733
546 0 72.1556 11.988 865 126.992 1256.52 457.143
547 0 82.2916 14.9468 1230 118.224 1258.76 455.028
548 0 82.2916 14.8132 1219 136.646 1261.8 454.838
549 0 84.1337 15.8676 1335 118.766 1259.85 450.939
550 0 84.1337 15.9033 1338 144.409 1257.82 450.792
551 0 88.082 15.4515 1361 120.013 1259.71 445.975
552 0 92.2314 14.3552 1324 121.239 1260.87 445.782
553 0 95.2323 14.7429 1404 119.093 1261.52 446.486
554 0 100.462 15.1102 1518 116.254 1262.18 446.177
555 1 54.1273 13.8008 747 115.371 1264.02 468.538
556 0 54.1091 13.6761 740 116.823 1263.93 468.116
557 0 56.1641 11.7513 660 117.448 1265.61 470.811
558 0 57.1108 13.9378 796 115.249 1265.01 467.401
559 0 62.1026 14.9913 931 114.495 1265.08 468.89
560 0 64.1287 14.8452 952 115.684 1264.68 467.514
561 0 61.0582 13.1022 800 120.084 1264.46 466.389
562 0 66.0438 13.3548 882 118.11 1263.99 466.593
563 0 70.1502 13.856 972 116.293 1263.48 462.896
564 0 72.2016 12.6175 911 118.256 1263.53 464.578
565 0 74.2252 13.3378 990 116.363 1263.42 468.061
566 0 79.0898 13.7186 1085 114.641 1263.34 464.607
567 0 80.2068 14.2008 1139 113.374 1261.95 467.279
568 0 84.3134 17.4705 1473 108.13 1261.42 466.618
569 0 86.272 14.7557 1273 113.54 1261.69 460.532
570 1 43.0263 10.1101 435 115.883 1261.46 484.536
571 0 46.0767 14.0635 648 108.972 1259.22 483.167
572 0 49.1431 11.7616 578 110.621 1260.38 484.773
573 0 49.0605 13.2286 649 109.76 1258.49 481.888
574 0 50.0396 13.909 696 111.257 1258.76 478.69
575 0 52.0935 14.7235 767 109.413 1257.13 477.546
576 0 52.0935 14.7427 768 135.352 1256.14 477.557
577 0 56.31 13.4257 756 111.124 1257.8 474.607
578 0 60.1704 14.891 896 108.404 1256.19 474.412
579 0 64.0422 15.1619 971 108.328 1257.39 471.785
580 0 64.1364 16.1219 1034 107.532 1256.05 470.694
581 0 64.1364 16.0595 1030 134.084 1254.09 470.733
582 0 68.1012 13.8764 945 111.914 1256.78 467.912
583 0 71.0921 14.432 1026 109.877 1256.78 463.206
584 0 71.0921 14.3054 1017 141.546 1257.76 463.195
585 0 74.2007 13.4231 996 113.704 1256.36 457.998
586 0 77.2711 12.9026 997 114.309 1257.27 461.803
587 0 84.1881 17.6628 1487 105.543 1258.45 460.738
588 0 84.2514 13.8751 1169 114.051 1258.81 452.817
589 1 42.066 12.8845 542 110.952 1257.75 470.74
590 0 46.2016 11.9693 553 109.524 1258.05 469.635
591 0 46.116 12.23 564 110.777 1259.54 467.034
592 0 48.064 13.7525 661 110.708 1260.45 467.697
593 0 49.0738 13.7955 677 112.601 1260.91 470.287
594 0 50.0971 12.1763 610 116.069 1262.59 469.052
595 0 53.0854 14.7122 781 111.283 1262.64 466.598
596 0 54.3323 15.2027 826 110.145 1263.06 466.209
597 0 57.1545 13.3323 762 113.088 1263.43 465.118
598 0 60.0831 14.5132 872 106.954 1263.34 469.455
599 0 58.2408 10.3707 604 112.568 1264.18 469.604
600 0 62.0926 11.1768 694 110.823 1263.92 470.318
601 0 62.0924 11.1447 692 140.607 1264.92 470.182
602 0 69.2703 14.1619 981 105.909 1264.06 466.909
603 0 66.0841 12.3328 815 110.248 1265 464.779
604 0 70.3469 14.6702 1032 106.871 1264.58 462.153
605 0 71.245 14.2045 1012 109.275 1264.67 462.649
606 0 74.2553 14.8811 1105 108.347 1263.66 461.918
607 0 76.3125 13.4709 1028 112.212 1264.24 467.01
608 0 79.1308 12.8901 1020 113.909 1263.36 463.761
609 0 80.1549 10.7542 862 118.161 1263.29 468.023
610 0 80.1549 10.8166 867 144.03 1263.3 467.949
611 0 88.1542 12.5348 1105 114.68 1263.14 465.148
612 0 90.2658 12.5629 1134 115.054 1262.15 463.136
613 1 49.0766 15.6286 767 108.329 1261.21 484.776
614 0 50.0948 12.9954 651 113.172 1261.3 478.796
615 0 52.2581 11.5963 606 114.109 1259.51 477.371
616 0 52.0401 14.9884 780 113.595 1257.47 478.523
617 0 55.1736 14.5903 805 111.954 1258.42 480.743
618 0 57.2984 14.0667 806 115.766 1258.38 478.897
619 0 58.1818 14.2313 828 117.053 1257.71 477.93
620 0 58.1412 14.31 832 118.038 1257.42 473.326
621 0 63.3337 15.5683 986 113.514 1256.32 473.999
622 0 64.1695 15.8175 1015 113.019 1257.27 475.158
623 0 65.3655 13.8758 907 117.883 1255.84 471.781
624 0 65.3655 13.8452 905 150.398 1253.83 471.797
625 0 65.3655 13.8299 904 149.914 1251.83 471.831
626 0 73.5078 16.3928 1205 112.734 1255.9 461.513
627 0 74.329 17.3553 1290 111.208 1256.69 462.884
628 0 76.1904 13.7156 1045 117.868 1256.51 459.173
629 1 40.0628 11.9313 478 117.527 1257.41 475.843
630 0 43.07 10.6803 460 120.339 1257.37 474.678
631 0 43.1066 12.6199 544 118.926 1258.23 469.601
632 0 44.125 14.7535 651 115.536 1257.74 470.925
633 0 45.0336 13.2346 596 118.416 1259.17 468.622
634 0 48.1797 15.7328 758 113.005 1259.7 469.967
635 0 48.1463 13.2305 637 119.108 1260.98 469.1
636 0 50.2317 13.6368 685 118.295 1260.75 467.526
637 0 50.2317 13.5771 682 140.026 1260.76 467.521
638 0 54.1986 15.4617 838 114.504 1261.69 467.116
639 0 54.0937 14.4934 784 118.492 1262.51 464.054
640 0 57.1209 15.3709 878 116.884 1262.54 466.398
641 0 59.3594 10.8829 646 124.354 1262.7 464.104
642 0 60.1877 13.2751 799 119.085 1263.87 464.747
643 0 63.2075 13.4319 849 118.631 1263.54 466.032
644 0 67.1629 17.3757 1167 111.021 1264.92 466.051
645 0 69.0975 13.5171 934 118.589 1265.54 464.446
646 0 71.1741 14.9493 1064 116.028 1264.69 464.421
647 0 75.2041 15.0258 1130 114.54 1265.62 465.72
648 0 75.2041 14.9327 1123 138.045 1265.62 465.641
649 0 80.1869 14.6158 1172 113.847 1263.93 466.267
650 0 83.1468 18.0404 1500 106.025 1263.27 468.707
651 0 84.2044 13.776 1160 113.074 1263.76 466.532
652 0 86.3323 12.6951 1096 114.922 1264.24 466.305
653 1 47.088 12.2324 576 113.595 1263.26 485.846
654 0 49.0991 13.1571 646 114.255 1262.85 484.68
655 0 49.0991 13.0552 641 129.546 1261.86 484.643
656 0 50.123 11.8309 593 120.003 1262.08 480.862
657 0 52.0844 12.1726 634 120.297 1260.3 479.054
658 0 54.1242 12.7854 692 117.928 1260.81 479.828
659 0 56.0477 14.4341 809 115.515 1259.51 478.663
660 0 56.0477 14.5055 813 131.426 1258.51 478.549
661 0 60.091 15.7594 947 114.553 1258.79 476.659
662 0 61.0814 12.4915 763 120.271 1258.47 474.415
663 0 66.3004 15.4901 1027 113.888 1257.18 474.388
664 0 67.1366 14.2396 956 117.533 1257.61 471.836
665 0 70.1844 14.6044 1025 113.296 1256.88 473.713
666 0 70.1844 14.6186 1026 126.718 1255.86 473.575
667 0 74.0904 13.1326 973 116.779 1256.52 469.461
668 0 77.2847 14.8024 1144 114.711 1256.66 465.362
669 1 39.0934 11.5621 452 121.27 1256.52 481.343
670 0 41.0586 16.0989 661 112.393 1257.2 479.257
671 0 42.1094 12.0401 507 118.931 1256.9 473.617
672 0 45.1022 12.8375 579 115.499 1258.6 468.225
673 0 45.0835 13.2199 596 120.262 1257.7 471.693
674 0 50.2801 17.3229 871 111.566 1258.82 468.744
675 0 52.2608 14.8869 778 112.126 1258.66 474.089
676 0 50.0439 11.5898 580 122.697 1259.31 470.157
677 0 50.0439 11.6897 585 144.032 1260.31 470.209
678 0 53.1162 15.0613 800 117.671 1259.77 466.106
679 0 54.0832 11.7227 634 119.842 1261.55 468.697
680 0 55.1938 10.3635 572 122.159 1262.68 468.89
681 0 59.0877 16.5348 977 111.28 1262.92 465.913
682 0 63.0845 18.6417 1176 107.457 1262.53 463.894
683 0 61.0859 16.3868 1001 130.697 1262.43 462.042
684 0 66.0653 14.5613 962 113.972 1264.04 462.456
685 0 69.0696 14.3768 993 114.43 1265.35 461.924
686 0 73.3539 16.3045 1196 109.187 1265.05 464.782
687 0 76.3069 14.8873 1136 112.495 1265.49 461.871
688 0 78.2182 15.086 1180 113.577 1265.83 460.34
689 1 41.0721 12.1007 497 120.135 1265.42 479.958
690 0 41.1193 13.4 551 118.18 1264.62 477.098
691 0 43.2167 14.8554 642 116.693 1265.76 479.511
692 0 45.1088 13.8997 627 118.743 1265.53 476.877
693 0 46.0378 18.5065 852 109.93 1264.87 479.485
694 0 46.0397 18.3103 843 122.011 1264.86 479.419
695 0 49.0701 14.2857 701 116.278 1262.91 476.702
696 0 49.0851 13.3442 655 118.583 1263.26 477.145
697 0 49.0958 12.0988 594 121.254 1263.11 481.012
698 0 54.2049 14.6481 794 116.607 1262.63 478.062
699 0 54.1492 15.5311 841 115.634 1261.58 477.136
700 0 59.0698 14.4744 855 116.008 1260.41 475.385
701 0 60.3022 19.8666 1198 107.163 1259.7 476.765
702 0 60.0829 15.5618 935 114.826 1259.06 475.835
703 0 63.2267 13.9182 880 117.36 1257.88 473.751
704 0 63.1545 15.3908 972 117.042 1257.67 469.907
705 0 70.1046 14.9206 1046 116.092 1257.35 471.39
706 0 70.142 18.6194 1306 109.966 1257.14 473.02
707 0 76.111 16.4103 1249 114.713 1256.52 464.376
708 0 77.1258 14.2884 1102 117.819 1256.75 469.297
709 1 39.0521 14.2118 555 121.625 1256.83 482.427
710 0 40.0591 16.0263 642 120.31 1256.37 481.005
711 0 39.0592 12.9547 506 127.903 1256.92 478.943
712 0 42.2662 18.6437 788 115.997 1255.65 476.893
713 0 44.1412 15.9262 703 120.973 1257.19 476.232
714 0 44.1307 14.729 650 124.326 1256.66 475.728
715 0 45.0825 15.5271 700 123.88 1257.45 474.583
716 0 47.106 17.8321 840 120.533 1257.43 472.351
717 0 50.0211 16.4731 824 122.658 1257.88 472.774
718 0 50.0863 16.2519 814 125.111 1257.46 469.146
719 0 52.0632 14.8089 771 128.524 1258.57 467.163
720 0 53.1876 18.5006 984 120.372 1258.76 468.763
721 0 55.1335 20.6227 1137 117.091 1259.52 469.098
722 0 55.1335 20.4594 1128 142.007 1260.55 469.123
723 0 55.13 20.4245 1126 141.62 1261.56 469.153
724 0 55.1139 20.4304 1126 141.324 1262.56 469.153
725 0 63.3395 16.1353 1022 128.264 1262.07 464.488
726 0 63.113 15.3534 969 130.783 1263.21 463.405
727 0 65.0389 14.5759 948 131.665 1263.57 460.807
728 0 69.097 15.8328 1094 128.863 1264.2 462.098
729 0 69.0588 15.4651 1068 131.832 1264.23 458.877
730 0 72.0854 16.1475 1164 131.591 1264.75 460.979
731 0 74.1783 17.6062 1306 128.112 1265.17 461.739
732 0 81.1184 17.382 1410 126.949 1265.68 461.305
733 0 80.2478 14.3555 1152 133.931 1264.85 462.108
734 0 82.1253 15.8051 1298 132.525 1264.42 460.947
735 0 84.0478 14.4085 1211 134.585 1264.44 461.364
736 0 88.2138 14.7029 1297 133.588 1263.51 459.334
737 1 43.0724 14.0693 606 140.672 1264.49 480.409
738 0 47.1389 16.0589 757 135.712 1262.96 479.23
739 0 47.1209 15.004 707 139.97 1263.86 479.356
740 0 48.0535 15.2122 731 140.506 1262.42 478.748
741 0 52.0977 14.7991 771 139.566 1262.85 480.524
742 0 54.1072 14.4158 780 142.704 1261.23 476.856
743 0 55.0834 14.124 778 144.148 1260.09 476.361
744 0 56.2356 15.0616 847 142.471 1260.11 474.671
745 0 59.1583 16.3798 969 135.377 1259.42 475.161
746 0 59.1505 14.3532 849 142.88 1259.28 472.451
747 0 59.162 13.8433 819 164.484 1259.32 472.728
748 0 63.0785 14.2996 902 145.529 1257.91 470.463
749 0 63.0706 14.238 898 165.264 1256.94 470.34
750 0 69.296 16.3502 1133 141.746 1258.78 467.392
751 0 70.1588 16.1206 1131 143.752 1258.47 462.741
752 0 72.2364 15.5046 1120 145.104 1259.02 463.421
753 0 74.2503 16.8349 1250 143.802 1257.92 457.953
754 0 76.1929 17.062 1300 142.222 1257.22 458.842
755 0 76.1929 17.062 1300 152.497 1256.2 458.902
756 0 76.1966 16.9955 1295 152.266 1255.2 458.847
757 0 84.1513 15.995 1346 148.178 1258.88 450.264
758 0 86.2097 15.4159 1329 149.186 1259.08 450.029
759 0 91.3179 15.7034 1434 147.445 1259.35 447.112
760 0 97.216 18.1657 1766 140.451 1260.63 445.331
761 1 52.1389 11.8146 616 148.971 1260.28 465.839
762 0 53.3298 13.7072 731 144.064 1261.82 463.524
763 0 56.1057 13.4924 757 144.213 1261.34 461.236
764 0 56.3435 14.0389 791 142.625 1262.83 461.066
765 0 58.3448 13.146 767 153.688 1263.81 461.395
766 0 62.1906 14.8897 926 139.81 1263.3 459.081
767 0 65.1349 14.0785 917 140.044 1264.24 458.209
768 0 65.2088 12.5443 818 142.808 1265.05 459.159
769 0 71.2494 14.737 1050 137.243 1265.5 457.501
770 0 72.252 15.5705 1125 136.103 1265.49 456.544
771 0 75.4575 14.2199 1073 139.788 1265.72 455.13
772 0 78.1682 14.7758 1155 137.526 1265.56 453.007
773 0 83.4714 14.1605 1182 136.859 1265.33 455.585
774 1 42.2242 10.6574 450 137.373 1266.21 474.1
775 0 45.1353 11.5874 523 135.287 1266.47 476
776 0 48.1159 12.1581 585 133.985 1266.79 477.993
777 0 49.0822 12.9375 635 133.135 1266.29 478.294
778 0 50.0743 12.6412 633 124.469 1265.31 478.31
779 0 52.1013 12.2262 637 134.909 1265.41 477.265
780 0 53.1186 13.3475 709 132.554 1265.49 476.667
781 0 56.1413 13.092 735 133.046 1264.02 475.995
782 0 56.1421 12.9315 726 132.337 1264.17 478.231
783 0 60.1592 14.0959 848 129.348 1265.17 476.298
784 0 61.0661 12.2654 749 133.191 1263.29 475.603
785 0 64.1136 13.3357 855 130.275 1262.88 473.206
786 0 65.1656 11.6933 762 133.133 1262.5 472.711
787 0 67.0402 13.6187 913 131.141 1261.82 470.089
788 0 71.0405 13.7668 978 131.1 1261.53 469.211
789 0 73.1376 11.7313 858 134.071 1260.18 466.619
790 1 41.0608 9.32762 383 131.285 1261.29 487.209
791 0 41.0752 12.4163 510 127.933 1259.87 480.837
792 0 41.0367 13.1589 540 125.857 1261 481.235
793 0 43.0455 12.6145 543 127.49 1259.94 480.326
794 0 45.1619 12.9313 584 127.055 1259.01 478.979
795 0 43.236 11.0787 479 132.637 1259.24 476.038
796 0 46.1002 12.8633 593 127.749 1259.48 476.108
797 0 47.14 11.625 548 129.692 1259.17 474.451
798 0 48.1816 13.4699 649 127.382 1258.1 471.009
799 0 48.1494 13.4373 647 127.575 1257.52 469.088
800 0 46.2272 10.8161 500 129.898 1259.65 469.428
801 0 47.0657 7.98883 376 133.436 1259.51 473.048
802 0 51.0796 10.4347 533 129.799 1259.99 467.788
803 0 53.0478 11.631 617 126.131 1261.09 468.032
804 0 51.1635 11.3753 582 128.784 1261.47 466.505
805 0 55.124 10.812 596 128.401 1262.07 466.723
806 0 57.249 8.99579 515 131.633 1262.67 465.332
807 0 60.2223 10.5443 635 127.137 1263.93 465.304
808 0 62.1771 11.4833 714 126.193 1263.78 461.486
809 0 60.1995 11.545 695 126.447 1264.45 461.355
810 0 62.1008 11.111 690 126.271 1265.51 460.864
811 0 69.43 9.21792 640 127.9 1266.63 459.38
812 0 73.1906 10.3292 756 123.808 1266.61 459.402
813 0 74.2414 11.53 856 123.693 1266.31 454.878
814 0 75.2857 8.99241 677 123.755 1265.61 462.675
815 0 81.402 11.4248 930 120.985 1266.86 455.794
816 0 80.2331 12.4263 997 120.906 1266.38 455.6
817 1 42.0809 12.3334 519 114.347 1266.87 476.197
818 0 41.0609 10.9837 451 116.703 1266.87 474.971
819 0 42.0893 9.76495 411 119.81 1267.15 473.431
820 0 45.2554 13.3023 602 113.38 1266.86 476.404
821 0 45.0639 10.6959 482 118.44 1266.29 474.183
822 0 47.3079 11.0764 524 117.803 1266.21 477.901
823 0 47.1796 12.1451 573 116.55 1266.62 478.85
824 0 48.259 12.723 614 116.995 1265.37 474.546
825 0 52.352 11.4991 602 118.826 1264.63 472.781
826 0 53.2334 12.6049 671 116.328 1263.83 476.08
827 0 51.0794 9.7691 499 122.896 1264.4 471.527
828 0 55.229 11.3708 628 119.718 1264.01 471.834
829 0 57.2305 13.7165 785 117.613 1262.98 468.148
830 0 60.3367 11.0546 667 121.957 1261.91 469.156
831 0 62.2 13.3923 833 118.57 1262.18 469.447
832 0 64.4106 16.3482 1053 113.847 1260.81 466.206
833 0 66.436 13.1405 873 120.874 1260.08 464.778
834 0 67.2625 12.2802 826 125.686 1260.49 461.096
835 0 71.5002 13.3426 954 123.982 1260.38 463.73
836 0 73.5749 16.84 1239 116.934 1260.57 458.244
837 0 73.3036 11.7184 859 126.644 1260.65 459.598
838 0 74.4524 12.7195 947 126.899 1260.1 457.988
839 0 78.3896 13.0375 1022 125.774 1260.35 456.733
840 0 78.4785 11.6465 914 128.381 1260.29 456.713
841 1 42.2 13.3175 562 127.877 1259.85 470.735
842 0 44.223 13.4093 593 127.083 1259.62 467.116
843 0 46.0707 14.1956 654 121.035 1260.52 464.905
844 0 48.0683 14.833 713 120.238 1260.38 463.289
845 0 49.3543 11.7315 579 123.263 1260.37 467.078
846 0 50.12 14.6448 734 121.47 1260.59 460.529
847 0 53.1917 15.9987 851 117.553 1261.44 458.879
848 0 55.2514 15.7824 872 116.894 1261.64 457.74
849 0 57.2656 18.4753 1058 111.992 1263.07 456.395
850 0 59.2115 14.71 871 118.183 1263.11 457.532
851 0 58.261 16.2544 947 118.049 1263.56 453.612
852 0 58.1333 12.609 733 125.734 1263.12 454.929
853 0 68.1655 11.8975 811 122.531 1264.46 457.067
854 0 64.193 13.4438 863 122.378 1264.15 454.11
855 0 67.1686 15.3494 1031 117.695 1265.04 451.826
856 0 68.1368 13.7077 934 120.757 1265.64 451.154
857 0 71.3796 14.8782 1062 118.024 1266.54 451.529
858 0 76.4806 15.4549 1182 115.382 1265.35 452.863
859 0 77.2516 12.9836 1003 118.729 1266.55 456.384
860 1 40.5832 12.7885 519 118.707 1267.42 472.94
861 0 37.2651 13.8736 517 121.607 1267.53 470.12
862 0 39.1064 12.3509 483 125.89 1266.53 470.65
863 0 41.1646 13.2638 546 123.11 1267.58 472.703
864 0 43.3706 14.0879 611 120.872 1266.82 472.691
865 0 43.2567 13.1078 567 124.152 1266.83 471.933
866 0 46.4711 16.634 773 115.301 1266.52 471.873
867 0 49.4625 14.6778 726 116.985 1266.59 472.825
868 0 48.2465 15.5452 750 117.473 1264.3 470.872
869 0 48.2465 15.6488 755 149.585 1263.28 470.746
870 0 54.2094 15.9751 866 113.3 1264.6 471.626
871 0 55.1338 14.4376 796 115.087 1264.36 471.838
872 0 55.1338 14.5464 802 150.439 1264.34 471.96
873 0 60.088 13.6633 821 116.535 1261.7 466.532
874 0 61.4187 13.3673 821 116.898 1261.36 468.385
875 0 63.2647 16.3124 1032 111.39 1260.99 464.87
876 0 63.2647 16.186 1024 139.456 1259.93 464.845
877 0 63.2215 12.3534 781 121.492 1259.72 463.805
878 0 70.209 12.2064 857 120.333 1258.66 461.47
879 0 72.2233 12.4198 897 118.901 1259.74 461.466
880 0 75.2368 15.3117 1152 115.674 1259.34 459.037
881 1 40.2222 13.4503 541 111.906 1259.03 476.715
882 0 41.1268 12.3277 507 114.168 1258.31 476.947
883 0 44.012 10.1109 445 118.719 1258.56 474.849
884 0 43.0393 12.6164 543 117.792 1259.09 474.252
885 0 47.0976 12.1238 571 116.399 1260.73 473.772
886 0 47.1374 12.1135 571 117.666 1259.86 469.515
887 0 50.1471 11.0076 552 118.051 1261.45 472.839
888 0 55.0484 14.024 772 111.681 1261.47 470.131
889 0 51.0679 11.7099 598 120.918 1261.24 463.326
890 0 55.1678 12.9061 712 116.848 1262.47 466.513
891 0 55.1651 12.8523 709 139.523 1263.45 466.331
892 0 56.109 12.9035 724 117.79 1263.17 460.876
893 0 63.0812 15.0124 947 113.518 1264.23 462.866
894 0 63.1627 13.7581 869 115.574 1263.99 463.015
895 0 64.1668 14.0571 902 117.743 1264.72 459.891
896 0 66.1612 13.2857 879 117.538 1266.42 462.862
897 0 69.0658 11.5397 797 119.535 1266.82 461.322
898 0 68.0829 10.825 737 121.996 1266.03 458.76
899 0 74.0973 15.1018 1119 112.135 1266 461.653
900 0 75.2176 12.0982 910 119.042 1266.9 456.503
901 0 78.1724 12.8306 1003 117.356 1267.57 460.425
902 1 119.412 13.0305 1556 125.254 1267.36 432.889
903 0 124.188 15.9758 1984 119.874 1267.56 435.245
904 1 45.0529 10.4322 470 118.094 1267.58 473.921
905 0 46.072 11.0479 509 117.173 1268.44 478.332
906 0 47.0633 12.4726 587 117.446 1269.12 476.189
907 0 49.0505 11.6411 571 112.947 1267.25 477.711
908 0 49.0832 13.8744 681 109.502 1267.22 478.198
909 0 54.1365 10.5659 572 113.281 1266.93 480.117
910 0 52.0582 10.1233 527 114.07 1266.14 480.871
911 0 57.1972 9.68579 554 114.653 1265.5 477.843
912 0 57.0633 10.8826 621 111.378 1265.33 479.135
913 0 58.2419 11.1432 649 112.656 1264.72 476.304
914 0 60.2579 13.7907 831 109.597 1264.3 475.712
915 0 59.3438 8.71194 517 117.166 1263.48 473.36
916 0 69.2184 12.6845 878 107.95 1262.41 474.677
917 0 68.0971 12.5556 855 108.554 1261.66 474.194
918 0 68.0995 10.1763 693 113.749 1261.14 464.651
919 0 66.1655 8.90192 589 113.121 1259.85 472.216
920 0 72.1505 9.13368 659 115.156 1259.71 463.92
921 0 77.2186 11.9013 919 110.071 1259.53 465.252
922 0 78.421 9.34698 733 115.274 1259.36 461.48
923 0 79.2483 8.50491 674 116.996 1259.08 459.266
924 0 83.337 12.6594 1055 109.591 1259.34 461.515
925 0 83.3458 10.5464 879 116.466 1259.52 465.242
926 0 92.4694 10.7062 990 111.925 1259.75 457.375
927 0 91.0679 12.2985 1120 114.615 1260 454.227
928 0 93.2036 12.0274 1121 115.188 1260.66 447.431
929 0 97.164 15.4172 1498 109.396 1260.44 447.996
930 0 92.5591 11.4521 1060 115.343 1260.43 452.058
931 0 92.5591 11.3549 1051 127.779 1259.39 452.167
932 0 98.3141 12.2261 1202 114.211 1262.4 446.742
933 0 105.33 10.5478 1111 116.653 1261.8 441.67
934 0 112.271 10.4212 1170 116.847 1262.52 435.056
935 1 232.743 12.0519 2805 124.525 1263.38 380.471
936 1 117.479 12.564 1476 113.867 1263.2 434.136
937 0 121.387 12.769 1550 115.67 1263.89 425.001
938 0 124.303 10.2572 1275 119.844 1263.99 427.766
939 0 127.719 11.4549 1463 115.716 1264.88 433.052
940 0 132.695 10.3093 1368 119.373 1265.4 426.499
941 0 137.477 10.8527 1492 116.661 1265.64 430.739
942 0 139.399 10.8753 1516 116.596 1265.69 432.968
943 0 147.349 12.976 1912 117.706 1266.6 421.3
944 0 156.659 10.7558 1685 118.882 1267.39 426.099
945 0 155.526 9.40034 1462 122.323 1266.8 425.036
946 1 137.361 9.17294 1260 121.847 1266.68 436.006
947 1 48.0476 10.115 486 110.214 1268.58 475.23
948 0 47.0229 9.52726 448 107.342 1266.72 472.17
949 0 47.1413 8.18814 386 110.469 1267.31 470.845
950 0 50.2995 11.5309 580 107.147 1267.24 473.759
951 0 50.2499 11.5224 579 108.233 1266.65 471.997
952 0 52.2025 9.06087 473 112.142 1266.49 471.188
953 0 54.3163 14.0105 761 105.403 1266.53 471.545
954 0 55.255 9.30232 514 112.735 1265.94 472.158
955 0 56.1192 11.0479 620 111.947 1265.87 470.21
956 0 58.3042 10.6167 619 111.78 1263.97 471.045
957 0 63.1875 11.1573 705 111.767 1264.59 465.024
958 0 64.1384 11.6779 749 111.521 1263.3 469.154
959 0 65.3075 10.4582 683 115.984 1262.47 467.097
960 0 67.1838 10.702 719 115.318 1261.91 467.227
961 0 71.2297 9.88352 704 116.364 1260.93 468.659
962 0 70.1748 8.84933 621 118.622 1261.54 467.097
963 0 74.178 10.704 794 115.149 1259.31 466.491
964 0 74.1835 10.7032 794 128.188 1257.31 466.491
965 1 40.1366 10.3646 416 112.716 1257.82 478.719
966 0 45.0874 9.93627 448 116.737 1260.39 480.694
967 0 46.2068 13.2232 611 111.254 1260.12 477.72
968 0 48.152 15.1396 729 109.165 1257.2 474.586
969 0 47.1138 11.9498 563 115.739 1257.21 474.654
970 0 49.1577 13.2838 653 113.772 1257.92 474.525
971 0 53.1685 12.8271 682 113.104 1257.45 472.12
972 0 53.0531 12.6288 670 113.496 1258.48 471.331
973 0 53.0537 11.7994 626 115.981 1258.47 470.58
974 0 55.0977 13.5759 748 115.612 1259.2 465.841
975 0 58.0951 14.8205 861 110.909 1258.53 465.595
976 0 59.0459 12.956 765 116.593 1259.76 464.314
977 0 61.0678 13.8207 844 115.736 1261.93 464.366
978 0 61.04 12.7457 778 119.032 1262.13 463.38
979 0 57.1252 10.9409 625 120.448 1261.74 467.003
980 0 61.1387 11.0895 678 119.97 1262.63 461.879
981 0 64.059 11.708 750 120.269 1262.51 460.736
982 0 67.1536 12.6129 847 117.472 1263.14 459.851
983 0 69.0762 12.8843 890 117.742 1264.41 458.388
984 0 71.0734 13.8026 981 110.865 1263.98 466.551
985 0 74.0828 10.7987 800 119.822 1265.3 460.455
986 0 75.0863 12.4923 938 117.537 1266.15 455.58
987 0 79.1232 15.1536 1199 111.928 1265.7 455.641
988 0 80.2595 10.6779 857 120.622 1266.87 457.34
989 0 84.2223 13.1438 1107 119.669 1266.98 454.37
990 1 43.0422 10.5246 453 119.185 1266.1 476.32
991 0 44.0375 10.3548 456 121.417 1265.56 475.871
992 0 45.0204 12.1945 549 116.135 1266.27 477.401
993 0 49.0843 12.0201 590 112.722 1266.28 479.956
994 0 49.0232 12.1167 594 114.148 1265.6 475.638
995 0 51.0302 14.4424 737 108.011 1265.21 477.486
996 0 51.1133 11.6212 594 114.034 1265.56 480.214
997 0 53.0441 13.6113 722 110.287 1264.62 476.253
998 0 53.0441 13.6113 722 136.758 1263.62 476.253
999 0 55.049 9.99109 550 119.565 1264.12 477.455
1000 0 60.0798 13.532 813 111.908 1262.35 477.467
1001 0 61.1016 13.6494 834 112.703 1262.89 475.574
1002 0 65.3768 17.1009 1118 104.427 1261.9 476.742
1003 0 64.096 15.1648 972 108.152 1261.59 475.881
1004 0 64.096 15.0556 965 130.79 1260.55 475.864
1005 0 65.0776 12.7694 831 114.477 1260.71 472.738
1006 0 67.1734 13.2195 888 116.235 1260.01 470.117
1007 0 69.0375 12.3701 854 117.178 1259.87 469.397
1008 0 73.0399 16.9359 1237 111.216 1259.08 465.605
1009 0 73.214 14.4781 1060 116.296 1259.15 461.088
1010 0 75.2967 17.8228 1342 110.483 1258.96 460.997
1011 0 77.084 16.5404 1275 112.718 1260.17 460.184
1012 0 81.3883 17.8895 1456 110.659 1259.72 456.68
1013 0 80.1647 13.9962 1122 120.1 1259.02 457.957
1014 0 79.145 12.256 970 125.608 1259.89 456.602
1015 0 82.1434 13.659 1122 122.553 1259.08 451.692
1016 0 85.095 12.3156 1048 124.875 1260.73 451.884
1017 0 90.3464 15.031 1358 119.728 1260.22 443.753
1018 0 91.1057 15.268 1391 118.673 1260.7 439.311
1019 0 96.2177 13.9891 1346 120.496 1261.46 440.168
1020 1 49.1409 8.323 409 129.352 1261.08 465.751
1021 0 47.1703 10.9179 515 128.006 1261.92 461.13
1022 0 52.2144 14 731 119.079 1262.69 456.371
1023 0 55.1546 12.8548 709 119.178 1262.75 460.863
1024 0 57.2295 16.1455 924 111.964 1262.86 460.671
1025 0 58.2264 14.7871 861 116.559 1264.69 457.345
1026 0 60.1041 14.4915 871 116.474 1264.65 452.06
1027 0 63.1494 12.6684 800 119.829 1265.66 457.284
1028 0 63.1494 12.6367 798 149.297 1266.64 457.303
1029 0 68.2562 14.2551 973 117.075 1266.58 454.508
1030 0 69.1555 21.7915 1507 105.492 1267.01 459.53
1031 0 73.1355 15.4918 1133 116.075 1266.74 455.24
1032 0 75.1038 17.0431 1280 113.405 1266.48 456.38
1033 0 78.1664 12.2687 959 121.64 1266.52 459.166
1034 0 80.2616 16.7079 1341 113.588 1266.55 458.078
1035 0 80.2208 11.6553 935 125.157 1266.72 456.101
1036 0 84.117 13.7903 1160 119.834 1264.86 454.837
1037 0 89.2904 25.837 2307 100.812 1265.58 454.65
1038 0 88.2225 14.4181 1272 118.286 1265.92 458.569
1039 0 94.3135 13.3915 1263 120.914 1266.57 456.686
1040 0 97.3504 13.9804 1361 119.36 1265.63 456.538
1041 1 54.1682 10.7258 581 120.814 1266.51 476.921
1042 0 55.1859 10.7817 595 119.773 1263.73 476.156
1043 0 59.2532 15.9654 946 111.955 1263.22 475.295
1044 0 57.1598 10.4269 596 124.458 1261.26 470.128
1045 0 63.1938 15.3813 972 114.146 1262.45 470.431
1046 0 62.2088 12.6188 785 119.195 1262.14 468.276
1047 0 67.1943 14.7632 992 114.327 1261.49 466.766
1048 0 68.2251 12.4881 852 117.803 1259.73 466.096
1049 0 71.0601 15.2547 1084 114.053 1259.88 463.528
1050 0 71.195 15.0432 1071 115.11 1259.34 459.436
1051 0 74.3006 13.0685 971 118.996 1259.52 456.874
1052 0 74.3436 15.4822 1151 114.897 1259.01 460.11
1053 0 79.4532 12.5483 997 121.115 1259.29 454.524
1054 0 83.1713 13.1897 1097 119.179 1259.19 454.475
1055 0 84.1643 13.7944 1161 117.771 1258.87 450.798
1056 0 78.1276 6.07979 475 127.455 1258.14 456.851
1057 0 89.4497 11.6602 1043 119.361 1259.24 450.227
1058 0 91.3178 10.8413 990 121.028 1258.74 449.671
1059 0 94.3056 10.5932 999 121.875 1259.28 445.953
1060 1 49.0552 10.7634 528 116.703 1259.27 468.564
1061 0 54.1109 14.2116 769 111.953 1261.16 463.458
1062 0 53.0805 13.9976 743 114.007 1260.85 463.157
1063 0 56.2838 11.4953 647 120.433 1261.69 463.949
1064 0 57.2944 12.9856 744 119.103 1262.51 460.653
1065 0 60.2171 11.9899 722 120.053 1263.16 462.619
1066 0 59.3449 10.9529 650 123.572 1263.16 458.435
1067 0 61.136 15.2283 931 115.634 1263.63 456.739
1068 0 63.2982 15.1821 961 114.733 1265.24 457.068
1069 0 66.3522 13.3982 889 117.263 1265.53 459.985
1070 0 66.3412 11.878 788 120.708 1266.35 458.915
1071 0 72.2071 11.3147 817 121.295 1266.67 457.59
1072 0 72.2825 11.3167 818 122.691 1266.52 456.04
1073 0 77.5446 12.8829 999 118.016 1267.74 459.086
1074 0 76.5521 12.854 984 118.839 1268.79 455.92
1075 0 77.5605 13.6152 1056 129.995 1270.78 457.571
1076 0 82.4007 11.4926 947 120.522 1267.49 456.822
1077 0 83.4833 11.679 975 121.508 1267.99 453.304
1078 0 86.2945 13.2685 1145 117.929 1266.84 455.036
1079 0 92.6418 12.8668 1192 118.596 1267.4 451.594
1080 0 96.5243 11.9763 1156 119.189 1266.1 452.482
1081 0 95.4797 10.8191 1033 122.059 1266.09 446.605
1082 0 99.3592 11.4031 1133 120.244 1265.54 445.884
1083 0 106.529 12.1563 1295 115.913 1265.35 453.9
1084 0 107.345 13.0793 1404 118.052 1264.74 442.509
1085 1 54.3392 10.8577 590 115.624 1264.47 469.908
1086 0 60.3538 12.493 754 109.444 1263.63 476.174
1087 0 60.3538 12.4764 753 122.441 1263.62 476.129
1088 0 61.1532 11.6102 710 109.942 1262.6 473.956
1089 0 64.2696 11.2651 724 110.86 1261.67 470.068
1090 0 66.2974 20.951 1389 97.2325 1261.61 470.778
1091 0 68.1737 12.9229 881 106.97 1260.53 471.856
1092 0 74.0648 11.5979 859 114.485 1260.63 467.377
1093 0 73.0994 13.5022 987 111.387 1260.74 469.978
1094 0 68.2385 9.32025 636 120.104 1259.53 464.984
1095 0 75.2741 15.2908 1151 110.689 1260.05 463.305
1096 0 83.4098 10.7421 896 117.498 1259.15 458.518
1097 0 83.2386 13.8277 1151 113.371 1259.8 457.087
1098 0 83.1876 13.74 1143 122.685 1260.81 457.01
1099 0 86.1599 9.81895 846 117.68 1258.49 457.015
1100 1 53.101 6.21458 330 118.93 1259.18 472.603
1101 0 49.194 11.2412 553 111.038 1257.2 470.765
1102 0 48.0887 7.56934 364 113.604 1257.29 472.365
1103 0 47.0685 4.54657 214 120.724 1258.37 471.238
1104 0 57.0562 9.48188 541 113.048 1259.59 465.699
1105 0 58.0486 14.8496 862 105.442 1259.29 465.577
1106 0 60.1504 14.0481 845 106.447 1259.72 465.395
1107 0 60.1223 12.5744 756 111.119 1260.06 461.237
1108 0 62.1407 11.5383 717 111.152 1261.07 464.144
1109 0 63.1402 13.7472 868 108.156 1263.27 458.917
1110 0 65.2858 11.4114 745 110.062 1264.23 458.91
1111 0 65.2858 12.6827 828 123.355 1265.19 457.827
1112 0 67.2136 10.0575 676 113.439 1265.25 456.941
1113 0 72.259 10.4624 756 113.556 1264.5 458.168
1114 0 74.1535 15.441 1145 106.265 1265.25 458.794
1115 0 78.2328 14.3802 1125 111.944 1266.62 454.491
1116 0 80.1117 13.0568 1046 114.034 1267.09 453.748
1117 0 82.1046 15.1149 1241 111.243 1266.82 451.835
1118 0 86.1157 14.225 1225 112.635 1267.51 451.244
1119 0 85.195 11.55 984 117.365 1267.28 449.233
1120 0 90.1122 14.6151 1317 112.082 1267.21 452.323
1121 0 93.1629 15.4139 1436 109.451 1267.19 454.739
1122 0 96.0998 13.5588 1303 113.853 1267.18 453.441
1123 0 99.1041 14.4495 1432 112.916 1266.57 452.203
1124 0 99.1041 14.5605 1443 128.313 1265.56 452.321
1125 0 102.095 15.3485 1567 108.967 1264.72 454.902
1126 0 103.134 13.3322 1375 114.298 1265.02 447.908
1127 1 56.0786 14.4083 808 110.23 1264.78 478.34
1128 0 58.0588 13.0041 755 111.513 1262.59 475.731
1129 0 58.0588 13.1074 761 124.068 1261.65 475.695
1130 0 62.1181 12.4601 774 113.605 1263.43 474.516
1131 0 66.1346 12.9433 856 112.048 1263.04 475.252
1132 0 66.2607 14.4731 959 110.173 1261.14 471.261
1133 0 65.1807 9.18983 599 121.027 1261.12 470.97
1134 0 71.1141 12.9088 918 114.066 1259.44 465.791
1135 0 73.0971 15.5547 1137 111.123 1261.24 466.421
1136 0 71.1954 13.3295 949 115.625 1260.03 465.512
1137 0 75.157 13.7179 1031 113.054 1259.68 466.592
1138 0 75.157 13.678 1028 125.412 1258.65 466.44
1139 0 75.1485 13.613 1023 125.132 1257.66 466.362
1140 0 83.512 13.4592 1124 115.818 1256.83 463.368
1141 0 84.558 11.093 938 122.598 1256.21 460.578
1142 0 88.5453 15.0657 1334 116.292 1255.62 456.205
1143 0 88.5453 15.0544 1333 138.628 1255.61 456.252
1144 1 49.0775 11.0845 544 113.068 1254.89 475.256
1145 0 52.1276 11.9131 621 113.375 1255.87 474.277
1146 0 52.2089 12.6032 658 114.704 1256.41 470.219
1147 0 60.1916 12.8091 771 111.196 1256.73 472.008
1148 0 55.0861 11.9994 661 115.844 1257.31 469.116
1149 0 59.2351 14.3327 849 111.158 1258 467.747
1150 0 61.029 15.4025 940 109.372 1257.89 465.169
1151 0 63.0473 13.4661 849 111.77 1258.6 466.406
1152 0 63.0473 13.3709 843 132.597 1259.59 466.318
1153 0 65.0361 11.0554 719 118.818 1260.32 467.114
1154 0 69.1649 12.8823 891 114.538 1262.07 463.253
1155 0 69.2152 12.3961 858 117.556 1262.01 458.473
1156 0 73.1175 15.1537 1108 112.159 1262.3 460.436
1157 0 74.1338 12.2616 909 117.667 1263.34 459.751
1158 0 78.298 13.7296 1075 119.18 1263 455.865
1159 0 79.1019 13.5268 1070 119.541 1265.08 458.725
1160 0 85.3437 15.3731 1312 114.348 1264.71 460.398
1161 0 91.2821 15.9286 1454 114.108 1266.66 458.682
1162 0 89.3031 14.266 1274 117.775 1266.63 451.436
1163 0 90.2717 12.3959 1119 121.75 1267.82 454.331
1164 0 96.3688 14.0813 1357 116.247 1267.4 459.373
1165 0 101.318 12.4262 1259 119.639 1267.86 460.325
1166 0 102.163 15.7689 1611 115.66 1267.31 454.183
1167 0 102.158 15.7795 1612 138.06 1266.32 454.295
1168 0 102.178 15.7764 1612 137.553 1265.32 454.295
1169 1 57.0922 12.471 712 120.433 1265.82 478.653
1170 0 61.1774 11.5402 706 123.416 1265.02 476.754
1171 0 61.2097 13.2659 812 121.179 1264.9 479.15
1172 0 63.2498 13.5969 860 120.686 1263.73 476.906
1173 0 66.2639 18.0189 1194 111.982 1263.44 476.965
1174 0 66.3152 12.0184 797 125.202 1262.53 473.661
1175 0 66.2613 12.2696 813 125.481 1261 472.424
1176 0 70.3034 14.1672 996 122.02 1261.29 470.093
1177 0 72.3388 14.6118 1057 120.953 1260.86 469.873
1178 0 75.3335 13.6327 1027 122.818 1260.13 469.298
1179 0 78.4954 16.829 1321 116.758 1259.28 468.616
1180 0 79.544 12.974 1032 124.716 1259.27 466.684
1181 0 80.352 12.4701 1002 126.011 1258.66 465.307
1182 0 85.3583 13.2149 1128 124.299 1258.07 462.309
1183 0 87.4092 14.3349 1253 122.944 1258 460.038
1184 0 92.3728 11.3995 1053 128.99 1257.91 455.098
1185 1 51.4573 11.0383 568 122.173 1257.31 475.275
1186 0 49.2997 8.96557 442 127.242 1257.38 475.812
1187 0 49.2997 8.94528 441 159.379 1256.38 475.828
1188 0 52.5219 13.3087 699 121.827 1258.18 466.31
1189 0 55.1177 15.5667 858 117.73 1256.03 468.155
1190 0 57.1238 18.7313 1070 111.873 1256.9 468.787
1191 0 57.0606 14.5635 831 120.468 1258.13 465.963
1192 0 59.0546 14.4612 854 120.792 1258.33 462.96
1193 0 61.1686 13.6345 834 122.066 1258.68 460.987
1194 0 61.0678 12.5107 764 125.327 1259.29 462.174
1195 0 61.0678 12.5762 768 141.993 1260.29 462.31
1196 0 65.3174 14.3913 940 119.686 1261.49 459.31
1197 0 71.1274 22.1152 1573 105.001 1261.66 463.493
1198 0 71.1274 22.3121 1587 111.978 1262.65 463.515
1199 0 73.0701 17.0795 1248 114.105 1263.06 459.512
1200 0 74.0987 16.7209 1239 130.232 1263.06 459.573
1201 0 79.2634 16.7921 1331 116.486 1264.06 456.85
1202 0 81.4171 13.2405 1078 124.824 1264.45 452.346
1203 0 83.2253 16.8098 1399 118.55 1265.28 450.152
1204 0 89.5452 18.8843 1691 112.817 1266.03 450.83
1205 0 88.0565 13.1734 1160 120.916 1265.7 454.053
1206 1 48.2603 11.9767 578 121.718 1266.35 471.91
1207 0 48.2603 11.9146 575 145.403 1266.36 471.943
1208 0 52.1301 13.332 695 120.744 1265.78 463.486
1209 0 52.1977 14.5409 759 119.577 1266.55 464.87
1210 0 53.1743 13.1831 701 122.582 1266.77 468.766
1211 0 54.101 12.4767 675 125.48 1266.05 475.881
1212 0 59.1304 14.4427 854 121.153 1266.1 475.789
1213 0 59.149 12.8151 758 125.459 1265.38 474.678
1214 0 61.2614 13.32 816 124.161 1264.93 474.793
1215 0 63.1012 15.594 984 119.628 1264.23 474.352
1216 0 61.0929 11.2124 685 128.441 1262.09 473.769
1217 0 61.2064 12.515 766 125.037 1262.44 474.394
1218 0 65.1062 12.9327 842 123.871 1262.13 475.134
1219 0 69.0901 13.0409 901 148.161 1260.98 473.827
1220 0 76.2034 14.7369 1123 120.285 1259.98 470.38
1221 0 75.1767 17.2261 1295 117.03 1259.11 467.236
1222 0 78.0845 15.368 1200 120.462 1259.31 466.312
1223 0 81.082 15.9345 1292 118.191 1258.62 464.041
1224 0 81.082 15.9098 1290 146.933 1257.63 464.103
1225 0 84.1607 16.9319 1425 118.215 1258.65 451.141
1226 0 86.2122 15.8562 1367 119.671 1258.43 454.548
1227 0 91.3917 15.9205 1455 118.637 1257.98 456.496
1228 0 89.1304 13.7663 1227 126.29 1257.7 448.922
1229 0 92.236 13.5414 1249 126.431 1257.62 450.166
1230 0 94.2273 13.945 1314 125.136 1258.36 447.804
1231 0 97.2206 12.7956 1244 128.495 1259.31 440.338
1232 0 101.217 13.3278 1349 127.718 1259.21 437.781
1233 0 102.193 13.6115 1391 128.518 1260.89 438.721
1234 0 106.336 13.4573 1431 127.864 1260.04 434.317
1235 1 57.1389 11.6908 668 123.763 1259.71 459.891
1236 0 58.1267 11.6126 675 138.36 1259.73 460.001
1237 0 65.0622 12.4496 810 124.017 1261.81 456.889
1238 0 69.3164 14.2968 991 121.811 1262.06 452.25
1239 0 71.1778 13.9088 990 122.682 1262.5 450.439
1240 0 72.2667 13.2426 957 124.201 1263.45 449.16
1241 0 74.1842 13.8844 1030 122.348 1263.97 454.462
1242 0 78.2689 12.9426 1013 124.113 1264.09 453.09
1243 0 82.2384 13.3636 1099 122.592 1264.46 451.379
1244 0 82.2384 13.3879 1101 140.524 1264.47 451.453
1245 0 83.0486 13.2332 1099 122.302 1265.21 453.008
1246 0 83.2445 10.9076 908 126.829 1266.51 450.044
1247 1 100.202 11.8959 1192 122.328 1267.45 448.256
1248 0 100.199 12.0959 1212 146.696 1269.43 447.461
1249 0 100.553 14.2412 1432 120.383 1266.1 443.617
1250 0 103.228 17.6793 1825 115.124 1267.55 445.355
1251 0 107.27 14.7013 1577 119.659 1266.51 445.721
1252 0 111.227 15.4729 1721 118.82 1266.23 443.077
1253 0 116.245 15.2351 1771 118.574 1264.96 441.3
1254 1 61.1185 11.5677 707 121.472 1265.32 470.481
1255 0 66.1304 13.0197 861 120.569 1264.15 465.589
1256 0 70.189 16.3986 1151 114.126 1263.38 466.65
1257 0 74.1192 13.6537 1012 117.764 1262.87 466.594
1258 0 75.1361 13.2826 998 118.321 1263.29 465.466
1259 0 75.1982 12.6599 952 120.749 1262.96 465.705
1260 0 79.1099 13.7783 1090 119.728 1261.39 462.011
1261 0 83.1721 15.5341 1292 116.504 1259.9 461.755
1262 0 86.1628 14.9833 1291 117.403 1260.22 459.585
1263 0 89.1999 13.1502 1173 120.428 1259.47 458.606
1264 0 90.2155 12.6032 1137 141.914 1258.44 458.909
1265 0 96.1514 14.1028 1356 118.25 1257.35 454.857
1266 0 97.1972 14.9696 1455 119.076 1257.81 449.411
1267 0 97.106 10.504 1020 127.076 1258.03 451.896
1268 0 99.2234 9.72553 965 128.138 1258.2 449.983
1269 0 99.2234 9.62475 955 147.569 1259.21 450.042
1270 1 57.1388 13.4584 769 115.945 1256.38 469.109
1271 0 59.1128 13.0429 771 112.466 1257.93 466.304
1272 0 60.032 11.2274 674 115.464 1256.38 466.481
1273 0 63.0532 11.5934 731 117.062 1256.42 461.644
1274 0 64.0277 8.91801 571 119.271 1256.9 461.748
1275 0 63.1362 9.91507 626 120.353 1258.04 456.931
1276 1 81.1191 5.7693 468 124.288 1258.16 455.549
1277 0 80.1011 6.34198 508 120.937 1259.17 456.616
1278 0 77.1323 7.29915 563 119.741 1259.17 455.332
1279 0 78.0749 9.72144 759 118.929 1259.79 447.706
1280 0 81.1835 12.7119 1032 120.222 1261 450.515
1281 0 81.0957 12.849 1042 118.95 1261.31 452.477
1282 0 86.1887 11.6721 1006 121.729 1262.36 445.705
1283 0 91.1745 13.6113 1241 116.562 1263.07 445.936
1284 0 92.0775 10.7953 994 121.705 1263.03 447.051
1285 0 98.1943 10.7338 1054 121.881 1263.92 443.993
1286 0 101.192 11.997 1214 120.523 1264.52 442.039
1287 0 104.152 15.1222 1575 118.015 1265.03 439.025
1288 0 103.148 12.0409 1242 129.212 1266.87 443.508
1289 0 112.373 11.1592 1254 121.141 1266.55 433.374
1290 0 112.338 8.697 977 134.839 1265.56 437.127
1291 0 114.21 11.3912 1301 122.628 1266.75 435.5
1292 0 114.21 11.5226 1316 121.223 1267.78 435.516
1293 0 114.16 11.4926 1312 120.783 1268.78 435.455
1294 0 120.19 8.27027 994 123.535 1265.96 449.203
1295 0 121.205 7.12017 863 127.328 1265.09 450.752
1296 0 120.111 6.06938 729 122.877 1264.46 462.054
1297 0 122.238 8.53251 1043 125.687 1264.85 447.253
1298 1 78.2658 12.8536 1006 112.721 1264.9 471.213
1299 0 78.1129 11.1633 872 117.716 1264.26 469.006
1300 0 82.2332 16.2708 1338 110.489 1263.83 469.538
1301 0 83.2842 10.7103 892 119.3 1262.38 468.411
1302 0 88.3038 12.3098 1087 118.206 1261.67 464.364
1303 0 92.4931 13.2983 1230 115.135 1261.8 464.546
1304 0 92.3843 12.2423 1131 118.256 1261.24 460.492
1305 0 94.239 13.3066 1254 117.392 1259.89 456.805
1306 0 99.5146 13.2141 1315 118.961 1260.19 451.744
1307 0 100.594 12.2075 1228 121.318 1259.49 451.965
1308 0 100.597 12.2469 1232 133.808 1258.48 451.856
1309 1 116.543 15.1961 1771 122.394 1257.36 445.036
1310 0 119.547 13.1162 1568 126.993 1257.1 441.968
1311 0 118.731 14.8402 1762 124.859 1256.79 442.631
1312 0 125.536 12.1957 1531 129.88 1257.44 442.194
1313 0 129.659 12.8877 1671 126.506 1256.78 438.798
1314 0 126.612 11.0732 1402 147.628 1256.78 434.637
1315 0 126.631 11.0163 1395 147.351 1256.79 434.523
1316 1 141.959 12.3134 1748 128.783 1257.94 419.983
1317 0 145.846 9.20149 1342 134.963 1258.07 422.208
1318 1 77.6038 13.1695 1022 121.796 1258.61 454.818
1319 0 79.2536 13.6776 1084 120.542 1259.14 454.224
1320 0 80.5009 12.8073 1031 121.926 1259.46 447.965
1321 0 82.4509 10.1636 838 123.875 1260.86 447.562
1322 0 88.5858 13.8848 1230 118.615 1260.57 447.497
1323 0 91.7601 14.5597 1336 118.447 1261.89 440.542
1324 0 94.5605 11.4741 1085 121.099 1262.57 444.229
1325 0 98.6374 11.6285 1147 121.118 1262.85 444.19
1326 0 98.2993 12.3602 1215 118.727 1263.48 442.192
1327 1 55.1778 15.8578 875 108.971 1263.04 460.401
1328 0 56.121 11.3505 637 113.76 1264.46 468.542
1329 0 61.4956 19.7087 1212 103.293 1265.08 461.734
1330 0 61.3066 12.5761 771 113.184 1264.89 463.171
1331 0 61.3066 12.5109 767 123.893 1264.9 463.194
1332 0 61.3439 13.4977 828 112.973 1265.28 462.359
1333 0 65.3283 11.3733 743 113.074 1266.7 469.386
1334 0 68.234 13.1752 899 112.735 1265.3 465.095
1335 0 69.4147 10.5021 729 115.624 1266.32 469.759
1336 0 74.2002 13.3558 991 111.562 1265.59 468.024
1337 0 75.1103 7.22936 543 120.757 1264.99 467.009
1338 0 82.3297 13.8832 1143 111.007 1265.06 466.525
1339 0 80.2046 12.2063 979 114.085 1264.99 465.973
1340 0 85.5058 14.7709 1263 111.356 1263.89 460.943
1341 0 86.2079 12.5047 1078 113.263 1263.9 466.668
1342 0 93.391 9.71186 907 117.58 1262.69 463.84
1343 0 92.4397 13.1004 1211 114.028 1262.21 462.206
1344 0 94.4128 12.5936 1189 114.372 1260.94 460.089
1345 0 103.241 12.5725 1298 117.519 1260.19 459.92
1346 0 100.799 11.1113 1120 118.182 1258.96 459.838
1347 0 100.799 11.2898 1138 130.327 1257.95 459.842
1348 0 109.498 13.3427 1461 116.12 1259.8 450.387
1349 0 113.265 10.9036 1235 121.287 1258.35 447.935
1350 0 113.188 12.1922 1380 119.33 1256.83 449.236
1351 0 113.252 11.2051 1269 121.486 1256.13 443.017
1352 0 120.329 11.9672 1440 120.993 1256.99 440.946
1353 1 68.1158 12.1117 825 120.463 1256.94 466.175
1354 0 70.1528 13.214 927 117.126 1256.66 470.028
1355 0 72.1146 13.3954 966 119.634 1255.47 461.137
1356 0 73.2117 12.6483 926 121.675 1256.11 459.326
1357 0 77.2081 14.4415 1115 119.709 1256.82 457.574
1358 0 87.0905 12.1024 1054 121.591 1257.31 457.786
1359 0 87.1651 10.7612 938 125.444 1257.57 457.454
1360 0 86.1134 13.5171 1164 122.148 1259.15 454.816
1361 0 85.1137 11.5728 985 139.193 1261.03 452.246
1362 1 48.1985 9.58536 462 123.058 1259.23 473.017
1363 0 49.1189 12.1745 598 123.475 1260.04 467.639
1364 0 51.134 11.597 593 119.219 1261.36 466.531
1365 0 51.078 11.4922 587 120.91 1261.55 466.986
1366 0 55.1742 14.3908 794 115.766 1260.86 462.475
1367 0 57.0473 12.8139 731 117.575 1262.94 466.826
1368 0 56.0513 12.7205 713 120.043 1263.62 459.595
1369 0 59.1256 10.9936 650 121.903 1263.84 465.786
1370 0 61.0706 10.9873 671 122.724 1263.62 459.918
1371 0 64.1284 13.5354 868 118.755 1264.82 461.403
1372 0 64.1442 13.3761 858 121.11 1264.17 461.41
1373 0 67.1773 12.0428 809 121.707 1264.97 465.119
1374 0 68.1223 12.0812 823 123.077 1264.73 459.299
1375 0 71.1139 13.0495 928 123.264 1266.22 463.07
1376 0 74.1648 16.315 1210 119.051 1265.55 459.804
1377 0 76.1829 16.0797 1225 120.18 1265.64 458.34
1378 0 75.1726 10.8018 812 130.021 1264.49 458.462
1379 0 81.2658 13.3389 1084 125.674 1265.47 461.97
1380 0 81.2105 11.5133 935 127.042 1264.36 463.684
1381 0 85.1281 13.2036 1124 125.596 1263.25 461.074
1382 0 85.1743 11.7641 1002 128.825 1264.65 459.001
1383 1 134.418 13.8672 1864 128.335 1264.46 435.451
1384 1 92.4304 11.6953 1081 128.008 1264 459.221
1385 0 97.2849 13.1675 1281 124.607 1263.38 459.507
1386 1 51.036 9.97336 509 126.597 1263.08 478.035
1387 0 49.1997 7.98785 393 129.45 1262.03 471.87
1388 0 52.1443 15.2845 797 117.679 1260.16 470.698
1389 0 54.0629 13.1513 711 121.743 1259.48 468.336
1390 0 54.0629 13.0404 705 125.996 1258.49 468.061
1391 0 57.0731 12.1774 695 124.488 1257.75 466.531
1392 0 57.1002 9.45705 540 128.13 1258.26 467.807
1393 0 60.0287 9.5621 574 128.434 1257.53 465.047
1394 0 63.1244 12.6417 798 123.529 1256.83 463.209
1395 0 65.0807 11.8776 773 124.909 1256.29 464.811
1396 0 68.1748 12.3799 844 123.107 1255.66 462.674
1397 0 68.1768 12.1596 829 125.618 1256.61 460.263
1398 0 72.2182 11.5345 833 125.501 1255.61 460.992
1399 0 76.1766 11.2502 857 128.349 1256.1 452.841
1400 0 77.1382 12.3156 950 127.089 1255.59 451.435
1401 0 77.2492 10.6021 819 128.893 1255.63 453.446
1402 1 158.305 13.2592 2099 133.068 1257.44 420.685
1403 0 158.285 11.3593 1798 142.065 1257.79 416.413
1404 0 158.21 11.8766 1879 141.797 1258.79 418.221
1405 1 46.0476 11.1406 513 130.004 1259.37 466.509
1406 0 48.0513 11.4669 551 127.579 1260.73 467.984
1407 0 48.1561 13.5601 653 124.15 1260.92 464.827
1408 0 50.1337 13.6435 684 122.161 1260.8 467.801
1409 0 51.1637 11.903 609 127.328 1261.28 461.911
1410 0 55.1965 13.0262 719 125.615 1263.71 467.057
1411 0 56.193 12.9554 728 127.231 1264.07 462.681
1412 0 55.1279 15.7815 870 124.013 1264.35 461.175
1413 0 56.0823 11.2335 630 131.79 1265.18 465.575
1414 0 61.1967 15.8832 972 123.795 1265.47 462.158
1415 0 62.2082 15.2392 948 125.824 1265.29 459.939
1416 0 64.1428 13.9688 896 127.624 1266.03 463.858
1417 0 70.2268 13.6415 958 127.937 1266.14 460.474
1418 0 70.2268 13.4849 947 125.72 1266.09 460.536
1419 0 74.1995 11.8869 882 130.35 1266.84 466.161
1420 0 70.1674 12.6554 888 129.908 1266.14 465.149
1421 0 73.1795 11.506 842 132.981 1266.99 465.285
1422 0 77.2161 13.5205 1044 130.767 1266.3 464.525
1423 0 78.1784 13.2006 1032 132.06 1266.15 462.025
1424 0 80.0803 12.0379 964 133.131 1265.63 465.234
1425 0 82.155 15.7629 1295 126.625 1265.41 465.886
1426 0 86.2739 12.0662 1041 134.901 1264.18 456.575
1427 0 85.1162 12.3831 1054 135.926 1264.43 458.142
1428 0 88.1617 10.1631 896 141.598 1263.16 456.938
1429 0 92.094 12.1832 1122 137.658 1263.5 459.252
1430 0 94.1123 10.1368 954 141.966 1261.27 458.712
1431 0 102.143 11.4252 1167 138.982 1261.37 456.213
1432 0 99.2053 11.1587 1107 141.218 1259.7 451.122
1433 0 105.352 13.5356 1426 137.773 1260.49 444.991
1434 0 109.136 14.2025 1550 136.779 1259.3 443.278
1435 0 112.257 14.0036 1572 135.982 1258.84 450.172
1436 0 116.252 10.8213 1258 140.983 1258.1 448.956
1437 1 63.241 11.2269 710 138.437 1258.58 467.134
1438 0 67.1449 13.5528 910 133.574 1259.01 464.921
1439 0 67.1449 13.5379 909 124.136 1260.03 464.972
1440 0 68.0567 10.0651 685 144.019 1258.5 461.622
1441 0 69.1192 10.8219 748 145.425 1257.93 462.02
1442 0 74.1899 15.8917 1179 136.24 1256.69 456.302
1443 0 78.2044 15.6897 1227 137.403 1257.8 455.437
1444 0 78.2348 15.1723 1187 139.589 1257.26 453.051
1445 0 86.216 7.86397 678 151.279 1258.07 458.366
1446 0 87.2137 8.78302 766 132.052 1259 456.322
1447 0 85.2492 11.8593 1011 142.976 1259.4 450.864
1448 0 82.2762 14.2204 1170 139.636 1259.74 447.362
1449 0 84.1719 10.5498 888 146.025 1260.95 448.159
1450 1 47.0681 9.1782 432 147.644 1261.69 463.85
1451 0 49.0988 8.85969 435 146.028 1260.6 464.412
1452 0 53.0822 11.4728 609 137.527 1261.09 463.44
1453 0 52.13 9.8216 512 141.82 1260.95 463.105
1454 0 57.1067 12.1352 693 142.39 1263.65 462.405
1455 0 59.126 12.9385 765 140.349 1264.94 461.817
1456 0 59.126 12.9723 767 125.327 1265.94 461.815
1457 0 62.2691 14.5658 907 136.35 1266.02 462.039
1458 0 65.2362 13.4894 880 139.541 1265.59 457.759
1459 0 63.1227 10.8044 682 145.279 1265.35 458.176
1460 0 63.1115 10.7271 677 130.486 1265.35 458.173
1461 0 71.1042 13.7685 979 138.952 1266.65 458.71
1462 0 75.0881 12.1191 910 140.762 1266.28 458.487
1463 0 74.1154 10.8345 803 145.69 1266.11 457.844
1464 1 149.329 12.0941 1806 148.535 1266.03 427.259
1465 0 154.564 13.082 2022 143.553 1265.26 434.577
1466 0 153.42 12.3191 1890 149.725 1265.6 420.383
1467 0 153.42 12.28 1884 147.889 1265.62 420.578
1468 0 155.46 6.5483 1018 148.464 1263.33 448.348
1469 0 155.68 7.23276 1126 142.815 1264.17 455.378
1470 0 156.557 9.52366 1491 145.569 1263.23 438.647
1471 1 96.4246 14.0835 1358 137.931 1262.36 450.568
1472 0 99.2719 8.42132 836 140.932 1260.65 455.127
1473 1 50.1215 13.3875 671 126.793 1259.8 477.647
1474 0 50.0879 10.3817 520 136.902 1261.54 477.067
1475 0 55.1114 12.4475 686 131.353 1261.76 476.023
1476 0 55.0747 10.2043 562 136.763 1260.9 472.964
1477 0 58.0649 14.6388 850 128.736 1259.43 472.114
1478 0 58.0649 14.4494 839 119.083 1258.43 472.062
1479 0 61.0843 13.7024 837 129.857 1258.98 469.311
1480 1 125.227 11.7068 1466 141.557 1257.86 437.663
1481 1 64.0576 13.5503 868 130.194 1258.12 465.818
1482 0 69.1004 13.5744 938 127.627 1258.13 466.375
1483 0 71.0927 13.8692 986 129.135 1258.97 461.06
1484 0 69.2447 9.67583 670 137.222 1257.59 461.216
1485 0 74.1568 12.3927 919 133.727 1257.79 455.294
1486 0 77.0636 13.1709 1015 131.302 1257.93 454.411
1487 0 78.1057 14.2243 1111 130.373 1258.21 451.666
1488 1 40.0781 10.8538 435 133.034 1259.57 470.398
1489 0 41.0099 10.656 437 128.05 1258.5 471.634
1490 0 40.0672 8.58557 344 130.817 1256.84 468.404
1491 0 45.0229 10.639 479 126.637 1258 469.238
1492 0 45.0209 10.9283 492 110.862 1258 469.028
1493 0 46.021 10.8863 501 109.912 1258.02 469.072
1494 0 47.0807 10.7263 505 129.731 1258.91 462.776
1495 0 50.1353 12.2668 615 126.231 1261.28 462.933
1496 0 50.1353 12.2269 613 107.37 1264.28 462.956
1497 0 50.1353 12.0873 606 107.153 1267.29 463.026
1498 0 55.0463 9.80992 540 130.263 1260.6 463.044
1499 0 54.0346 7.12506 385 133.826 1263.01 463.608
1500 0 58.0868 15.253 886 121.684 1263.31 460.428
1501 0 58.1662 9.61039 559 129.224 1263.52 464.864
1502 0 60.1713 12.5475 755 103.768 1264.74 460.922
1503 0 65.1717 11.9684 780 125.076 1264.75 462.36
1504 0 65.0282 11.1183 723 126.611 1264.82 464.154
1505 0 69.3062 13.7361 952 121.714 1264.3 463.542
1506 0 71.0893 10.9159 776 127.151 1265.28 461.97
1507 0 75.1325 12.4713 937 124.628 1263.87 462.131
1508 0 77.1961 15.5837 1203 119.624 1265.52 454.565
1509 0 76.1356 8.24844 628 130.96 1263.87 451.836
1510 0 82.3282 9.69291 798 134.936 1263.53 450.645
1511 0 84.1136 10.676 898 132.651 1263.36 455.473
1512 0 85.1278 5.47412 466 141.712 1262.91 457.622
1513 0 89.0745 6.64612 592 137.024 1262.07 449.77
1514 0 91.1961 9.61664 877 133.53 1261.07 455.054
1515 0 91.1961 9.51795 868 110.73 1260.06 455.062
1516 1 46.0583 7.44709 343 128.848 1258.01 480.391
1517 0 46.056 7.44745 343 107.391 1256.02 480.516
1518 0 51.114 11.0342 564 123.887 1257.15 472.723
1519 0 53.1371 12.7406 677 121.487 1256.78 476.086
1520 0 55.2156 11.5728 639 123.343 1256.72 472.897
1521 0 55.1042 11.7414 647 124.954 1256.05 471.015
1522 0 56.0691 12.1636 682 123.654 1255.59 471.359
1523 0 56.0677 11.5575 648 107.543 1254.64 471.948
1524 0 60.1826 12.0799 727 124.637 1255.2 466.56
1525 0 62.1806 12.6245 785 123.78 1254.84 464.183
1526 0 61.0885 11.0168 673 128.926 1255.95 466.004
1527 0 61.1593 5.26494 322 135.248 1256.07 475.73
1528 0 67.1641 11.9558 803 108.142 1257.26 469.932
1529 1 134.443 11.5811 1557 127.335 1257.62 429.211
1530 0 132.236 7.41101 980 139.153 1256.73 442.693
1531 0 128.423 9.1183 1171 132.314 1255.68 447.096
1532 1 40.0416 13.6358 546 121.773 1257.17 473.484
1533 0 40.1116 12.0414 483 124.197 1258.08 472.503
1534 0 41.0153 9.41112 386 124.946 1258.34 473.453
1535 0 41.0897 13.4097 551 119.521 1257.88 466.944
1536 0 43.0226 7.25201 312 130.151 1259.1 471.109
1537 0 43.0282 7.06514 304 116.52 1260.12 471
1538 0 46.0426 8.75277 403 128.998 1259.63 469.675
1539 0 48.1536 10.5911 510 126.161 1260.6 468.259
1540 0 45.16 9.89815 447 114.783 1261.52 466.673
1541 0 48.0283 12.9299 621 124.834 1261.46 465.377
1542 0 50.0505 11.0888 555 128.24 1261.78 465.117
1543 0 52.0817 10.8867 567 127.85 1262.86 465.053
1544 0 53.0658 13.1912 700 124.529 1263.28 467.936
1545 0 53.0624 9.63017 511 133.458 1264.14 467.675
1546 0 56.172 11.5004 646 129.749 1263.97 469.529
1547 0 55.1064 9.3274 514 134.366 1263.5 468.743
1548 0 59.0478 11.533 681 131.279 1264.11 469.592
1549 0 59.0673 11.0383 652 131.1 1263.56 469.641
1550 0 63.136 12.1801 769 129.453 1263.8 469.499
1551 0 64.0516 13.1144 840 127.636 1262.12 469.39
1552 0 66.1432 11.8984 787 128.859 1263.41 470.689
1553 0 67.0764 12.2994 825 131.252 1262.91 468.29
1554 0 68.2791 10.955 748 131.352 1262.09 471.965
1555 0 75.2124 14.6252 1100 125.971 1261.79 464.379
1556 0 73.2006 9.53544 698 122.307 1261.91 466.142
1557 1 40.0142 5.52304 221 137.787 1259.68 487.52
1558 0 41.0653 7.81682 321 135.604 1259.34 485.234
1559 0 43.0694 15.6956 676 120.575 1258.62 485.132
1560 0 41.0585 10.3267 424 129.743 1259.03 486.149
1561 0 45.0958 10.4001 469 129.77 1257.85 481.32
1562 0 46.0597 8.09818 373 132.091 1256.65 479.861
1563 0 46.0597 8.01134 369 119.084 1255.65 479.935
1564 0 49.0356 10.5638 518 129.681 1257.48 478.693
1565 0 49.0356 10.4822 514 111.796 1258.44 478.609
1566 0 52.0535 12.8137 667 126.489 1256.55 473.499
1567 0 54.0558 10.8961 589 128.705 1255.55 470.839
1568 0 53.0826 10.7757 572 130.241 1255.82 468.199
1569 0 58.0785 12.6725 736 125.601 1254.9 467.497
1570 0 60.0882 14.1791 852 123.541 1254.47 466.492
1571 0 58.0603 11.8153 686 129.659 1255.81 466.722
1572 0 58.0603 11.9014 691 112.951 1256.83 466.65
1573 0 63.1395 10.6748 674 136.809 1257.72 459.552
1574 0 63.1206 9.93337 627 139.238 1258.04 458.07
1575 0 66.1403 12.2618 811 135.176 1259.49 454.641
1576 0 66.1403 11.9745 792 128.005 1261.49 454.537
1577 1 213.551 7.70307 1645 145.205 1259.64 410.712
1578 1 189.497 12.0055 2275 140.319 1259.47 398.099
1579 1 79.156 15.9053 1259 127.4 1261.81 446.769
1580 0 81.1962 13.141 1067 133.368 1261.81 444.031
1581 0 81.379 12.4971 1017 136.245 1261.81 445.555
1582 1 44.3467 12.8758 571 126.809 1262.84 466.641
1583 0 44.1987 10.8374 479 131.353 1263.36 468.18
1584 0 47.252 10.7509 508 129.508 1263.77 469.762
1585 0 46.2629 12.7316 589 128.57 1264.25 464.698
1586 0 46.2629 12.71 588 111.753 1265.25 464.668
1587 0 50.2004 10.737 539 132.521 1265.65 470.447
1588 0 52.2642 11.9585 625 131.79 1265.88 469.174
1589 0 52.2642 12.1307 634 115.468 1265.91 469.153
1590 0 54.1728 13.7338 744 129.984 1265.75 466.487
1591 0 57.1078 13.4833 770 128.935 1266.11 470.777
1592 0 58.194 12.3896 721 131.958 1266.4 470.154
1593 0 60.257 13.1437 792 130.481 1265.26 468.133
1594 0 59.0907 12.1508 718 134.912 1264.76 467.364
1595 0 63.1359 9.56667 604 137.205 1263.42 474.308
1596 0 62.0796 9.61669 597 139.442 1262.42 469.789
1597 0 66.1344 12.8677 851 132.752 1262.93 471.884
1598 0 68.2126 11.8013 805 135.116 1263.09 470.33
1599 0 71.139 11.6392 828 135.587 1261.85 466.685
1600 0 70.1513 11.7745 826 123.472 1260.84 466.625
1601 1 48.1271 12.5709 605 130.21 1260.35 481.674
1602 0 46.1882 10.7387 496 136.52 1260.55 477.794
1603 0 46.2184 10.5153 486 135.576 1258.84 476.14
1604 0 46.1788 11.0873 512 137.186 1259.04 474.408
1605 0 45.2457 11.9127 539 131.395 1258.39 477.479
1606 0 46.1792 13.7291 634 131.167 1257.12 475.221
1607 0 47.1517 12.9794 612 132.449 1257.58 472.387
1608 0 48.1792 13.1592 634 132.229 1257.46 474.385
1609 0 51.2107 14.6844 752 129.412 1257.14 472.735
1610 0 53.0387 13.2922 705 133.426 1256.75 474.376
1611 0 55.0921 11.9799 660 137.627 1256.69 468.856
1612 0 55.043 13.7711 758 135.339 1257.23 467.966
1613 0 54.0405 13.2863 718 128.936 1258.12 467.306
1614 0 58.0888 13.3244 774 136.304 1256.91 462.348
1615 0 56.1018 10.5879 594 138.549 1255.92 464.822
1616 0 62.0871 12.1764 756 137.426 1257.39 460.392
1617 0 66.0974 14.2214 940 132.955 1257.38 458.961
1618 0 70.1738 13.7943 968 133.487 1258.14 456.128
1619 0 69.0808 13.5494 936 137.459 1258.11 454.423
1620 0 72.1197 14.2402 1027 135.464 1259.89 451.062
1621 0 72.1092 14.2146 1025 123.3 1261.88 451.055
1622 0 74.4255 13.9334 1037 136.486 1259.45 453.744
1623 0 81.2512 13.5383 1100 135.875 1260.44 452.498
1624 0 81.2512 13.4029 1089 139.217 1260.43 452.51
1625 0 89.3756 12.5985 1126 142.453 1261.96 429.769
1626 0 89.3941 12.6407 1130 153.649 1263.96 429.971
1627 0 92.1696 11.8586 1093 140.22 1262.94 431.485
1628 0 93.1585 12.366 1152 140.418 1261.97 432.499
1629 0 92.2584 11.6304 1073 142.498 1263.71 431.925
1630 0 96.1335 9.83008 945 140.977 1263.27 440.007
1631 1 54.2794 11.2197 609 138.819 1264.84 462.53
1632 0 59.1336 16.7079 988 126.603 1265.36 464.884
1633 0 62.1399 14.2742 887 131.29 1265.67 464.89
1634 0 62.1349 13.7282 853 131.012 1266.4 467.809
1635 0 63.1446 16.6919 1054 127.131 1266.54 466.204
1636 0 65.1088 15.1132 984 131.538 1265.84 464.021
1637 0 68.1372 13.9131 948 132.286 1265.13 466.919
1638 0 71.069 15.3935 1094 129.951 1264.21 465.897
1639 0 74.2382 12.7697 948 135.305 1264.31 464.47
1640 0 77.1469 17.9787 1387 125.857 1263.25 461.939
1641 0 79.23 15.0196 1190 131.9 1263.86 462.544
1642 0 85.1063 15.4983 1319 131.145 1262.51 461.24
1643 0 83.1053 13.6213 1132 129.981 1261.45 457.959
1644 0 88.2808 17.0366 1504 128.64 1261.26 460.326
1645 1 44.0659 8.71423 384 140.188 1260.46 481.109
1646 0 43.0491 10.1976 439 140.112 1260.24 478.836
1647 0 47.3015 12.1349 574 133.672 1258.02 478.427
1648 0 46.3841 11.2539 522 137.015 1257.89 474.029
1649 0 50.3086 13.3774 673 133.744 1256.92 475.446
1650 0 47.0289 10.5254 495 142.02 1257.93 474.606
1651 0 51.0607 12.5145 639 137.746 1258.22 472.028
1652 0 54.1291 13.9481 755 134.807 1258.02 472.383
1653 0 56.065 15.482 868 131.793 1258.36 470.75
1654 0 54.0893 12.5348 678 136.302 1257.42 471.85
1655 0 58.0454 14.2992 830 133.612 1256.82 468.947
1656 0 55.0909 11.1452 614 141.917 1256.95 463.541
1657 0 61.0638 13.1993 806 136.743 1258.07 464.309
1658 0 61.0638 13.101 800 126.812 1259.08 464.438
1659 0 55.0284 8.15942 449 145.619 1258.39 462.891
1660 0 64.0901 11.9987 769 139.585 1258.41 457.471
1661 0 67.1069 11.8021 792 140.333 1258.68 455.255
1662 0 72.0484 15.4479 1113 133.305 1258.68 451.783
1663 0 73.1396 14.8073 1083 135.329 1260.36 451.107
1664 0 73.1396 14.8346 1085 121.618 1262.38 451.27
1665 0 76.1657 12.7748 973 136.795 1261.68 451.474
1666 0 80.0852 15.1339 1212 133.265 1261.86 449.182
1667 0 81.2333 13.6397 1108 136.349 1262.75 447.685
1668 0 83.23 11.0657 921 140.433 1262.88 446.992
1669 0 88.1785 11.4654 1011 139.806 1263.38 446.326
1670 0 88.1643 11.5013 1014 119.806 1263.36 446.313
1671 0 92.2596 11.0232 1017 139.539 1263.82 448.691
1672 0 95.2143 11.4058 1086 139.73 1264.97 442.256
1673 0 95.2143 11.4269 1088 123.783 1264.99 441.963
1674 1 49.0696 11.392 559 134.721 1266.78 473.535
1675 0 52.029 14.1652 737 131.026 1266.4 469.396
1676 0 50.0538 11.4477 573 137.49 1265.72 469.084
1677 0 53.1509 11.5708 615 136.514 1265.86 469.137
1678 0 55.0531 13.932 767 132.366 1265.98 470.145
1679 0 57.0184 12.645 721 134.302 1266.3 471.671
1680 0 58.0945 11.9116 692 136.277 1264.76 472.897
1681 0 59.0438 13.0412 770 135.399 1264.36 470.386
1682 0 62.0475 18.2118 1130 126.347 1264.64 472.131
1683 0 62.0465 18.1638 1127 110.649 1264.63 472.206
1684 0 64.1647 12.2653 787 135.793 1263.37 472.767
1685 0 67.0864 13.1621 883 136.618 1262.45 467.438
1686 0 70.0829 13.484 945 135.818 1261.03 466.838
1687 0 73.1706 16.113 1179 129.948 1260.24 467.048
1688 0 72.1754 13.6473 985 123.514 1259.35 464.286
1689 0 74.0961 12.0519 893 139.932 1258.65 462.722
1690 0 74.0961 12.0654 894 128.263 1257.63 462.801
1691 0 82.1768 12.0107 987 138.96 1258.05 461.451
1692 0 81.0962 11.0979 900 142.35 1257.93 460.214
1693 0 83.2132 14.6732 1221 136.818 1257.9 454.155
1694 0 86.1373 14.175 1221 137.459 1256.66 454.111
1695 0 88.1981 13.5944 1199 136.626 1256.86 458.231
1696 0 94.1852 15.8093 1489 133.963 1257.26 448.715
1697 0 96.5605 13.6391 1317 138.007 1256.61 449.182
1698 0 92.1031 8.88136 818 143.943 1256.15 439.95
1699 0 96.273 12.8593 1238 136.015 1256.6 441.162
1700 0 104.28 12.2938 1282 133.852 1256.08 435.746
1701 0 106.277 11.9593 1271 136.677 1256.58 432.78
1702 0 107.138 10.5285 1128 138.944 1257.51 437.908
1703 0 110.213 9.54515 1052 141.921 1257.07 432.791
1704 0 117.234 11.5922 1359 139.312 1256.83 426.408
1705 0 126.388 10.1197 1279 139.324 1258.06 429.174
1706 0 127.291 14.1094 1796 134.058 1258.67 425.324
1707 1 68.1994 13.2699 905 136.991 1260.62 456.558
1708 0 67.21 11.0549 743 143.456 1260.96 451.011
1709 0 74.1507 12.1914 904 140.014 1261.92 451.189
1710 0 77.3187 12.6619 979 138.441 1262.38 450.781
1711 0 77.3312 12.8021 990 129.419 1262.37 450.647
1712 0 76.1072 10.3538 788 143.264 1262.88 451.619
1713 0 87.1807 13.1566 1147 137.128 1263.48 449.274
1714 0 87.2394 12.9299 1128 138.482 1264.45 445.591
1715 0 91.2979 13.3738 1221 138.42 1264.7 447.314
1716 1 47.0483 4.88859 230 146.448 1266.61 472.087
1717 0 52.0517 11.5654 602 135.547 1265.98 468.973
1718 0 52.1059 11.6685 608 135.707 1265.96 468.495
1719 0 51.1016 11.2325 574 137.754 1266.3 469.415
1720 0 53.1163 11.616 617 130.995 1267.18 470.524
1721 0 55.1986 10.9604 605 139.612 1264.25 467.795
1722 0 58.213 12.6604 737 135.408 1264.3 472.199
1723 0 62.0596 14.2444 884 133.217 1265.41 471.044
1724 0 61.0389 12.1398 741 138.212 1264.67 470.785
1725 0 63.0748 14.5542 918 134.843 1264.88 466.793
1726 0 68.0891 10.7947 735 140.517 1264.95 471.638
1727 0 67.1894 14.7345 990 136.801 1263.26 468.842
1728 0 70.083 13.5982 953 138.669 1262.71 468.694
1729 0 74.1922 13.2224 981 138.702 1261.26 468.517
1730 0 72.1418 12.115 874 142.407 1259.23 466.106
1731 0 78.1236 14.5283 1135 137.573 1260.04 461.392
1732 0 82.242 12.828 1055 138.62 1259.79 466.46
1733 0 83.1513 12.9523 1077 141.325 1259.22 458.154
1734 0 85.1989 13.0283 1110 141.722 1258.11 455.339
1735 0 87.5916 13.0264 1141 139.393 1258.62 460.132
1736 1 46.0637 11.3321 522 135.6 1257.97 475.743
1737 0 48.3486 13.4854 652 134.029 1256.6 475.319
1738 0 49.125 13.2112 649 133.875 1256.09 476.616
1739 0 47.2772 11.8662 561 138.554 1256.47 472.708
1740 0 49.2614 12.2002 601 138.534 1256.04 471.546
1741 0 50.2731 10.0849 507 143.673 1255.44 469.387
1742 0 54.1795 13.2892 720 135.751 1255.76 471.374
1743 0 56.0528 13.2375 742 135.947 1254.63 466.547
1744 0 58.0876 13.5657 788 136.919 1254.67 462.944
1745 0 59.0584 12.8178 757 139.316 1255.39 460.406
1746 0 60.0938 13.4956 811 137.097 1256.06 460.45
1747 0 61.0291 14.3538 876 136.895 1255.78 457.768
1748 0 65.0778 12.4774 812 138.575 1257.11 459.711
1749 0 64.0879 12.0616 773 128.388 1258.09 458.991
1750 0 62.1272 12.41 771 141.844 1258.54 454.726
1751 0 72.2798 12.3271 891 132.239 1261.14 459.354
1752 0 78.214 12.1973 954 133.1 1260.97 455.8
1753 0 74.0702 10.6521 789 137.971 1261.14 450.782
1754 0 78.1654 10.9511 856 136.822 1262.6 448.613
1755 1 43.0852 10.6765 460 135 1263.12 470.167
1756 0 44.1236 11.1732 493 134.89 1262.69 469.268
1757 0 46.0638 14.5016 668 129.241 1264.05 465.563
1758 0 45.2268 10.4363 472 137.104 1263.46 465.92
1759 0 43.2906 10.9724 475 128.8 1265.94 467.398
1760 0 51.1326 15.3914 787 122.858 1265.33 470.596
1761 0 51.2333 12.082 619 128.874 1265.53 469.96
1762 0 52.1387 11.853 618 129.646 1265.22 469.011
1763 0 55.0945 14.702 810 124.852 1264.52 472.202
1764 0 59.1351 11.3976 674 129.414 1264.85 472.139
1765 0 62.2614 17.1535 1068 120.838 1264.3 471.098
1766 0 62.1846 15.1002 939 124.79 1263.85 471.622
1767 0 62.1074 17.6468 1096 121.209 1263.48 470.577
1768 0 65.1385 13.8321 901 127.348 1263.86 469.784
1769 0 66.1701 13.4351 889 128.192 1262.67 469.903
1770 0 68.1261 14.2823 973 126.367 1262.07 471.796
1771 0 68.1232 14.1655 965 117.368 1261.07 471.72
1772 0 75.2253 15.1944 1143 127.575 1260.45 468.185
1773 0 77.1114 11.3472 875 132.568 1260.78 470.749
1774 0 84.231 9.85386 830 134.725 1259.41 468.51
1775 0 84.0568 11.8967 1000 130.547 1257.36 467.426
1776 1 39.0286 10.5307 411 131.557 1256.19 480.105
1777 0 42.1041 10.949 461 127.746 1255.7 482.369
1778 0 47.13 12.2003 575 126.579 1256.74 478.36
1779 0 47.1978 13.5599 640 124.158 1256.69 475.416
1780 0 47.0928 12.847 605 126.469 1256.31 476.299
1781 0 50.141 13.5618 680 123.984 1256.77 478.154
1782 0 48.1081 12.7837 615 125.777 1256.48 478.267
1783 0 50.1449 14.3385 719 124.776 1255.64 474.05
1784 0 50.1784 10.7616 540 131.644 1254.49 469.183
1785 0 52.1933 10.327 539 133.742 1257.02 471.583
1786 0 56.201 15.0887 848 125.438 1256.64 469.805
1787 0 53.1891 12.3898 659 132.836 1256.97 467.067
1788 0 58.2935 10.5501 615 133.546 1257.36 468.057
1789 0 61.1281 12.7437 779 130.454 1257.89 464.997
1790 0 63.1637 14.2012 897 130.91 1257.08 463.116
1791 1 211.535 11.7853 2493 144.776 1258.14 397.396
1792 0 208.487 8.27869 1726 146.74 1257.9 412.491
1793 0 209.528 11.9698 2508 151.167 1258.89 394.053
1794 1 70.0739 11.1882 784 140.821 1259.48 453.393
1795 0 74.1911 10.3651 769 140.824 1260.1 455.813
1796 0 74.1911 10.5134 780 151.394 1260.12 455.827
1797 0 75.2694 11.4921 865 139.326 1261.56 456.654
1798 0 230.719 9.57876 2210 146.447 1261.78 406.468
1799 0 229.589 11.8995 2732 146.751 1262 390.567
1800 0 228.307 12.5182 2858 147.392 1262.83 384.569
1801 0 227.442 9.21995 2097 146.307 1263.64 410.907
1802 1 95.149 14.3144 1362 136.356 1264.2 448.507
1803 0 98.2906 13.3583 1313 140.918 1264.4 439.244
1804 1 52.2267 9.24815 483 139.602 1264.81 464.961
1805 0 56.2487 12.8892 725 132.77 1264.85 462.586
1806 0 60.1797 13.9582 840 127.561 1265.96 469.089
1807 0 56.2206 11.6861 657 137.129 1264.16 465.878
1808 0 61.2686 13.3021 815 132.85 1264.65 465.59
1809 0 64.161 11.4867 737 134.54 1264.09 468.452
1810 0 65.2014 10.736 700 136.333 1263.18 466.681
1811 0 66.2134 13.7434 910 132.714 1262.76 467.181
1812 0 71.062 15.1276 1075 127.82 1263.7 466.225
1813 0 74.1317 12.8015 949 134.322 1263.38 467.749
1814 0 77.0351 16.2653 1253 128.441 1263.02 465.494
1815 0 81.1221 15.4212 1251 127.183 1262.53 467.452
1816 0 81.1714 14.1306 1147 130.843 1261.1 461.743
1817 0 84.076 11.9178 1002 133.765 1259.73 460.308
1818 1 43.0759 9.72701 419 132.401 1259.31 479.511
1819 0 43.024 10.7382 462 130.537 1258.29 482.331
1820 0 46.2057 15.4526 714 121.458 1258.14 479.662
1821 0 37.188 6.6957 249 133.743 1257.57 472.285
1822 0 49.1782 11.7532 578 120.761 1256.4 473.398
1823 0 47.2148 12.1572 574 121.932 1256.33 472.139
1824 0 49.0817 11.6133 570 124.007 1255.44 465.625
1825 0 53.1188 10.5612 561 124.656 1256.89 470.018
1826 0 49.1379 11.1319 547 127.117 1256.9 465.622
1827 0 53.0647 9.08325 482 129.863 1255.94 465.5
1828 0 53.2504 11.8872 633 124.615 1255.96 462.926
1829 0 56.115 9.9795 560 127.573 1256.19 463.105
1830 0 56.2755 11.3904 641 126.028 1256.02 459.017
1831 0 61.3518 12.1757 747 124.183 1255.74 457.06
1832 0 61.2 13.0229 797 123.3 1256.29 453.439
1833 0 64.2131 12.6921 815 122.829 1256.76 456.211
1834 0 66.0993 15.7036 1038 119.497 1257.13 448.986
1835 0 72.1451 13.958 1007 121.786 1257.23 448.75
1836 0 71.2143 10.0401 715 127.413 1257.68 447.477
1837 0 74.2487 12.6332 938 122.908 1258.42 443.288
1838 0 78.2705 11.6008 908 124.728 1259.4 442.739
1839 0 78.1449 10.6853 835 127.544 1260.35 441.596
1840 0 75.2834 11.5696 871 127.742 1260.26 443.689
1841 0 86.0938 11.8475 1020 128.452 1261 438.756
1842 0 89.1613 13.0662 1165 115.359 1261.21 443.262
1843 0 94.1233 14.1516 1332 117.546 1263.42 445.757
1844 0 99.1039 10.8977 1080 121.573 1263.56 449.871
1845 0 101.175 12.7601 1291 120.009 1264.53 445.596
1846 1 52.1282 8.45992 441 122.717 1264.95 467.073
1847 0 52.1096 7.42665 387 140.132 1263.89 468.636
1848 0 52.1684 10.0636 525 119.57 1265.66 470.149
1849 0 54.2713 12.6218 685 114.413 1264.74 470.669
1850 0 54.1946 12.3259 668 117.234 1264.64 468.475
1851 0 58.0802 11.6391 676 116.848 1264.63 470.265
1852 0 62.1542 12.6942 789 114.395 1264.49 471.466
1853 0 62.0956 11.4179 709 118.489 1263.71 467.062
1854 0 65.1437 10.4845 683 118.927 1263.48 471.305
1855 0 66.2823 13.6537 905 115.242 1263.42 468.003
1856 0 69.137 13.3503 923 116.092 1262.65 467.497
1857 0 70.3427 12.4533 876 116.223 1262.53 473.49
1858 0 72.1028 12.9537 934 117.262 1261.41 467.814
1859 0 77.1691 14.6561 1131 117.468 1259.34 462.895
1860 0 78.3722 14.3673 1126 118.589 1259.34 463.874
1861 0 83.133 13.9054 1156 117.747 1258.28 465.732
1862 0 84.3046 15.9422 1344 116.979 1257.22 458.28
1863 0 88.2512 16.8043 1483 115.837 1256.38 456.396
1864 0 91.1826 15.6828 1430 115.657 1256.27 460.976
1865 0 88.1386 11.289 995 126.407 1256.49 454.57
1866 0 95.2896 15.3952 1467 117.955 1257 455.143
1867 0 101.582 12.8369 1304 122.91 1256.4 444.601
1868 1 51.3058 11.3827 584 118.283 1255.41 471.149
1869 0 54.2014 13.1915 715 116.965 1254.65 468.807
1870 0 53.1302 12.3659 657 120.855 1254.97 467.694
1871 0 58.2353 15.5748 907 116.649 1255.56 464.454
1872 0 58.3347 14.2797 833 119.849 1255.37 465.18
1873 0 61.1762 13.6001 832 120.089 1255.37 462.37
1874 0 62.4041 14.2138 887 120.556 1255.5 463.689
1875 0 64.298 14.2928 919 119.72 1256.23 461.708
1876 0 69.7516 20.2433 1412 109.278 1257.3 457.324
1877 0 66.3008 13.4991 895 122.904 1257.98 457.384
1878 0 70.4525 19.6586 1385 114.014 1257.83 452.876
1879 0 71.4676 16.0492 1147 135.288 1257.75 454.545
1880 0 75.2061 16.4747 1239 121.248 1259.04 446.525
1881 0 77.2197 13.7659 1063 126.53 1260.81 442.749
1882 0 79.2101 16.5635 1312 122.656 1260.56 445.688
1883 0 80.2512 16.2988 1308 136.192 1259.55 445.794
1884 0 85.2601 12.8431 1095 125.167 1262.07 452.023
1885 0 87.1664 15.4417 1346 122.414 1262.78 448.516
1886 0 86.2268 11.4466 987 129.422 1262.84 448.948
1887 1 107.227 10.6969 1147 126.255 1262.29 450.116
1888 0 104.26 8.2198 857 128.75 1262.94 451.174
1889 0 105.262 9.86114 1038 141.001 1263.99 447.001
1890 0 104.276 13.5314 1411 123.79 1263.6 440.666
1891 0 104.276 13.5219 1410 141.55 1262.61 440.448
1892 1 61.2128 11.3212 693 121.638 1263.5 466.385
1893 0 58.2511 11.8109 688 120.109 1263.31 464.497
1894 0 62.2528 14.9873 933 117.783 1263.66 460.746
1895 0 63.2742 13.8761 878 119.808 1262.77 468.53
1896 0 63.2742 13.9235 881 140.568 1262.74 468.636
1897 0 67.1232 13.2294 888 121.122 1261.74 468.532
1898 0 71.4087 20.0256 1430 111.042 1261.87 468.144
1899 0 73.2371 14.5008 1062 120.764 1261.12 466.111
1900 0 75.2867 13.0568 983 122.931 1260.42 463.933
1901 0 78.2012 14.3988 1126 122.051 1259.94 462.533
1902 0 79.0855 16.223 1283 119.14 1258.39 462.931
1903 0 81.2726 14.5806 1185 121.453 1257.9 463.622
1904 0 84.1959 11.0338 929 128.738 1257.01 451.632
1905 0 87.214 15.8919 1386 119.569 1257.92 450.542
1906 0 90.3566 14.8412 1341 121.541 1256.57 449.31
1907 0 90.206 15.52 1400 121.036 1256.29 454.766
1908 0 95.199 16.5023 1571 118.463 1254.31 451.232
1909 0 95.3142 14.7722 1408 120.884 1255.15 454.937
1910 0 97.1774 13.0895 1272 127.121 1254.09 448.149
1911 1 53.0556 12.1382 644 124.73 1254.34 469.488
1912 0 54.3032 15.8002 858 118.512 1254.68 465.016
1913 0 55.1257 12.1359 669 121.381 1254.72 468.578
1914 0 54.1607 11.4659 621 125.657 1255.53 463.314
1915 0 57.1599 15.7278 899 117.113 1255.14 462.077
1916 0 57.1752 15.846 906 127.713 1254.15 462.086
1917 0 62.2236 13.7729 857 120.593 1255.01 461.455
1918 0 62.115 11.6075 721 123.637 1255.91 457.196
1919 0 66.1879 15.1387 1002 116.928 1256.59 458.196
1920 0 67.337 12.3112 829 123.276 1256.92 452.887
1921 0 69.1425 11.5848 801 123.012 1257.26 456.647
1922 0 71.1532 14.4758 1030 119.023 1258.14 455.258
1923 0 71.1285 14.9026 1060 119.167 1259.48 452.659
1924 0 64.1353 8.49766 545 124.749 1258.67 455.919
1925 1 77.0709 12.5339 966 122.837 1259.62 433.47
1926 0 78.2169 12.5804 984 119 1260.22 441.37
1927 0 81.1646 10.4233 846 126.511 1260.77 435.8
1928 0 83.2552 12.9481 1078 122.334 1262.23 435.523
1929 0 85.0868 9.93104 845 126.249 1261.64 440.348
1930 0 91.2009 12.5986 1149 121.163 1263.32 442.368
1931 0 92.1959 12.2457 1129 122.244 1263.79 439.951
1932 0 94.2048 12.0164 1132 118.976 1263.18 448.48
1933 0 96.1906 9.96979 959 125.831 1264.23 437.812
1934 1 52.2815 10.5008 549 120.856 1263.66 460.495
1935 0 57.3081 12.5288 718 116.639 1264.23 462.728
1936 0 58.2807 13.1433 766 117.897 1264.58 453.683
1937 0 60.2562 11.3681 685 119.726 1263.78 456.212
1938 0 62.1365 8.91586 554 123.783 1263.71 458.915
1939 0 64.1871 14.0683 903 115.998 1262.22 458.557
1940 0 66.1999 12.1299 803 119.672 1262.66 463.974
1941 0 69.1982 15.2605 1056 115.633 1262.04 467.587
1942 0 72.1693 13.9533 1007 117.172 1260.83 465.765
1943 0 73.1748 12.3266 902 120.286 1259.91 466.747
1944 0 77.1457 15.2309 1175 117.071 1258.03 462.051
1945 0 79.3276 13.148 1043 120.058 1258.8 463.092
1946 0 80.1975 12.5565 1007 121.883 1257.82 462.172
1947 0 84.1871 14.2658 1201 116.602 1256.67 466.218
1948 0 87.3 10.252 895 125.56 1256.72 459.707
1949 0 89.3582 12.6793 1133 121.042 1256.69 456.586
1950 0 94.1274 13.0993 1233 120.904 1255.52 449.181
1951 1 47.0613 9.22202 434 120.039 1254.71 474.242
1952 0 47.0613 9.17952 432 138.641 1253.71 474.215
1953 0 53.0886 13.2797 705 114.495 1254.4 464.132
1954 0 53.0976 12.2604 651 116.284 1255.43 468.338
1955 0 56.2308 15.4008 866 109.566 1254.84 469.797
1956 0 58.1645 12.585 732 115.116 1254.89 465.223
1957 0 51.1102 10.4285 533 119.64 1255.18 463.854
1958 0 60.1494 17.4898 1052 107.83 1254.8 461.604
1959 0 60.1501 11.2053 674 116.728 1255.09 459.292
1960 0 62.2277 10.5901 659 118.232 1255.48 451.583
1961 0 67.2049 13.868 932 113.266 1257.23 450.192
1962 0 70.1671 14.2232 998 112.323 1256.78 446.726
1963 0 71.1306 11.7671 837 119.202 1257.79 439.834
1964 0 74.3739 13.2842 988 118.919 1257.59 429.082
1965 0 71.2281 10.698 762 124.913 1258.12 424.724
1966 0 82.173 16.015 1316 115.147 1259.1 425.216
1967 1 41.0594 9.13311 375 117.104 1259.23 447.547
1968 0 42.0914 10.6435 448 116.732 1259.71 445.239
1969 0 45.3024 11.4784 520 113.473 1261.06 449.363
1970 0 45.3024 11.5005 521 120.781 1262.05 449.432
1971 0 40.0473 5.96794 239 126.636 1262.45 458.703
1972 0 50.147 12.6029 632 111.801 1262.96 460.634
1973 0 47.1448 8.88752 419 120.315 1263.44 461.492
1974 0 51.1032 12.4063 634 115.393 1264.88 461.101
1975 0 53.1155 12.2187 649 113.328 1264 463.2
1976 0 54.1073 11.8653 642 116.779 1264.47 459.385
1977 0 56.1786 10.6446 598 117.858 1263.67 462.156
1978 0 54.1834 6.69947 363 127.019 1264.89 455.766
1979 0 62.2297 12.7753 795 120.238 1264.59 463.801
1980 0 64.1251 12.7563 818 120.917 1263.42 465.95
1981 0 65.1383 12.3737 806 122.404 1263.61 465.212
1982 0 69.1429 12.0475 833 122.605 1263.09 466.134
1983 0 72.2031 19.1682 1384 110.146 1263.03 470.97
1984 0 73.1507 10.7313 785 124.237 1261.99 466.326
1985 0 72.2234 11.589 837 124.419 1261.61 465.581
1986 0 77.2523 10.744 830 125.959 1259.83 460.6
1987 0 82.1855 10.5371 866 125.656 1259.97 460.398
1988 0 87.3652 14.2047 1241 120.399 1257.94 457.024
1989 0 87.1476 11.0961 967 125.666 1258.59 454.64
1990 0 91.2368 14.3692 1311 118.746 1258.23 459.481
1991 0 92.2308 13.1952 1217 122.485 1257.7 451.91
1992 1 50.1589 7.37656 370 123.83 1257.53 477.759
1993 0 56.112 14.7384 827 114.99 1257.22 471.04
1994 0 53.1112 12.1632 646 114.67 1256.22 473.96
1995 0 55.0322 10.5756 582 116.32 1254.52 472.591
1996 0 55.2013 12.8258 708 118.308 1254.83 467.914
1997 0 60.203 11.046 665 122.25 1255.79 469.796
1998 0 62.1732 10.4708 651 123.837 1255 467.117
1999 0 62.1905 14.2948 889 118.737 1255.5 467.566
2000 0 66.1415 8.0736 534 128.066 1255.5 461.768
2001 0 67.2007 9.13681 614 126.423 1255.56 463.505
2002 0 65.2655 10.3883 678 125.453 1255.8 459.855
2003 0 63.1552 13.3639 844 119.486 1256.98 462.38
2004 0 62.1967 8.95546 557 129.282 1256.72 459.675
2005 0 62.1595 10.6983 665 123.531 1257.39 463.562
2006 1 214.701 13.1112 2815 130.919 1257.65 385.423
2007 0 214.701 13.0134 2794 146.911 1258.65 385.397
2008 0 212.405 6.04976 1285 134.622 1259.1 426.468
2009 0 211.285 9.91552 2095 133.688 1259.26 404.33
2010 0 208.653 10.5965 2211 135.601 1260.41 390.287
2011 1 91.2679 12.8851 1176 126.187 1261.51 447.401
2012 0 91.1789 12.4919 1139 126.46 1260.88 448.234
2013 1 227.474 9.0252 2053 142.116 1262.53 375.777
2014 1 101.378 13.4546 1364 125.82 1261.15 441.952
2015 1 56.0537 11.7387 658 119.951 1262.35 467.755
2016 0 57.5275 10.9513 630 122.759 1263.07 459.435
2017 0 58.1424 12.0566 701 121.874 1263.01 463.495
2018 0 61.1421 13.1497 804 119.907 1263.19 464.298
2019 0 62.093 11.7243 728 121.666 1263.14 466.606
2020 0 63.1997 13.1646 832 121.412 1263.05 465.478
2021 0 66.1096 13.0389 862 120.775 1261.96 464.037
2022 0 68.0601 11.7396 799 123.151 1262.77 463.021
2023 0 71.1337 13.7909 981 119.934 1262.26 466.189
2024 0 73.0735 11.1395 814 125.026 1261.31 463.502
2025 0 77.0592 13.0809 1008 124.155 1260.96 461.905
2026 0 80.0729 13.6126 1090 120.279 1260.98 467.641
2027 0 84.1472 15.6155 1314 117.731 1261.85 465.087
2028 0 85.167 12.6223 1075 123.732 1261.43 459.118
2029 0 87.3292 11.8288 1033 126.997 1260.69 455.586
2030 1 45.3314 12.7947 580 119.586 1260.2 476.312
2031 0 48.3594 12.0142 581 119.485 1258.45 475.816
2032 0 46.1745 11.7814 544 121.879 1259.41 477.445
2033 0 45.3216 6.64142 301 129.209 1258.38 480.671
2034 0 48.2075 8.60863 415 127.619 1257.94 473.761
2035 0 53.2232 13.3213 709 119.701 1257.03 471.124
2036 0 54.3574 12.8777 700 120.364 1257.2 472.32
2037 0 56.203 14.9636 841 117.941 1255.86 469.35
2038 0 56.1783 12.4247 698 121.622 1256.24 470.148
2039 0 57.3167 11.2882 647 123.376 1256.04 470.648
2040 0 57.3171 10.6251 609 127.036 1255.79 463.079
2041 0 62.3464 15.5903 972 119.157 1255.57 465.827
2042 0 61.1058 17.1669 1049 117.9 1256.19 462.41
2043 0 65.158 13.2908 866 123.331 1255.56 460.818
2044 0 65.2917 15.224 994 121.303 1255.26 458.117
2045 0 68.1312 16.3802 1116 119.334 1255.66 457.12
2046 0 68.1692 17.2512 1176 118.819 1256.82 455.86
2047 0 71.2034 12.9769 924 123.253 1257.25 459.053
2048 0 71.2317 12.9156 920 125.546 1257.31 451.263
2049 0 73.1579 13.1633 963 125.244 1257.02 450.829
2050 0 77.1659 14.6827 1133 122.892 1257.72 440.981
2051 0 82.1351 11.3837 935 126.892 1259.28 449.185
2052 0 84.1507 14.5572 1225 122.714 1259.88 443.552
2053 0 87.6027 14.2347 1247 121.344 1260.64 441.819
2054 1 45.2213 10.5924 479 125.052 1261.8 440.971
2055 0 47.2496 15.0477 711 117.634 1261.34 445.342
2056 0 51.0717 8.81114 450 124.822 1263.15 448.169
2057 0 48.1845 9.0278 435 125.729 1262.87 447.966
2058 0 51.0944 13.3478 682 121.913 1264.68 458.935
2059 0 51.0198 11.6817 596 124.213 1265.26 465.789
2060 0 54.1359 11.7667 637 125.03 1264.3 460.377
2061 0 56.0896 10.6615 598 128.353 1264.27 463.226
2062 0 58.0811 14.187 824 122.665 1265.14 462.549
2063 0 59.0704 16.4719 973 119.898 1265.4 462.724
2064 0 61.0593 10.4489 638 129.842 1264.27 458.55
2065 0 64.1346 13.5028 866 124.731 1265.17 462.404
2066 0 67.1147 13.8271 928 124.415 1263.23 461.939
2067 0 71.1812 10.677 760 129.095 1263.7 464.851
2068 0 74.3122 14.7755 1098 122.674 1263.15 463.848
2069 0 74.176 13.8859 1030 125.441 1263.33 460.656
2070 0 81.2737 13.35 1085 123.699 1261.91 465.124
2071 0 81.3779 11.4405 931 128.595 1260.79 460.695
2072 0 88.2106 18.5692 1638 117.465 1260.35 457.834
2073 1 43.1934 7.98733 345 128.496 1259.14 481.351
2074 0 44.2079 6.5373 289 125.353 1255.98 479.92
2075 0 47.0931 12.401 584 121.682 1255.73 477.921
2076 0 47.0564 11.7519 553 123.065 1255.48 474.36
2077 0 50.1127 10.3167 517 125.431 1255.18 474.132
2078 0 53.0996 14.4257 766 118.706 1255.59 472.961
2079 0 53.0888 11.4713 609 123.906 1254.31 470.757
2080 0 54.1253 12.1755 659 126.296 1254.22 469.69
2081 0 56.0682 16.7475 939 119.88 1254.94 468.557
2082 0 60.091 15.8094 950 120.988 1253.26 467.364
2083 0 58.0764 12.1047 703 128.057 1253.9 466.31
2084 0 60.0673 13.5515 814 126.704 1253.85 463.061
2085 0 64.057 12.9884 832 126.635 1253.97 461.564
2086 0 65.0539 12.0208 782 127.861 1253.89 462.526
2087 0 67.0926 13.146 882 126.808 1254.32 460.564
2088 0 70.0687 16.8834 1183 122.237 1254.92 457.574
2089 0 71.0871 12.7168 904 129.454 1256.17 454.183
2090 0 78.0879 12.2938 960 128.45 1256.13 456.601
2091 0 77.2283 14.0881 1088 127.173 1256.1 452.174
2092 0 76.0364 14.9534 1137 127.066 1257.37 449.57
2093 0 81.1384 13.4585 1092 130.432 1257.02 447.32
2094 0 81.2077 11.9939 974 134.026 1258.84 447.948
2095 0 85.0695 14.0944 1199 130.355 1259.32 444.343
2096 0 86.2038 14.1989 1224 130.722 1261.03 446.948
2097 0 88.1577 13.7027 1208 132.296 1261.56 444.921
2098 0 93.1588 15.5541 1449 129.821 1261.86 443.381
2099 1 181.541 12.9558 2352 138.564 1261.62 399.545
2100 0 190.483 13.4185 2556 137.468 1261.86 397.531
2101 1 102.238 13.5567 1386 133.443 1262.41 440.173
2102 0 105.179 15.564 1637 131.746 1262.9 436.687
2103 0 111.172 18.7997 2090 123.445 1261.74 440.407
2104 0 109.143 12.0851 1319 133.511 1263.83 433.135
2105 0 117.317 13.2376 1553 130.972 1264.39 432.317
2106 0 117.452 10.1829 1196 135.73 1263.89 437.698
2107 0 116.419 10.342 1204 134.915 1262.88 437.615
2108 1 69.0638 9.06408 626 128.759 1264.15 465.188
2109 0 72.1256 14.7104 1061 124.271 1262.5 467.992
2110 0 74.1772 16.0157 1188 124.163 1263.52 462.665
2111 0 77.1231 14.8594 1146 126.404 1260.46 464.039
2112 0 78.3056 12.4001 971 130.972 1261.05 461.87
2113 0 81.2113 14.8009 1202 126.817 1260.7 459.904
2114 0 79.2098 10.6426 843 133.139 1259.03 461.374
2115 0 79.2098 10.6931 847 129.387 1258.05 461.593
2116 0 77.3024 8.27917 640 134.192 1258.87 464.506
2117 0 75.0799 5.68727 427 131.454 1258.44 474.354
2118 0 75.1426 6.48101 487 133.959 1257.57 466.858
2119 0 77.0832 7.38163 569 127.258 1258.98 472.814
2120 1 56.0669 13.1807 739 121.69 1257.16 469.79
2121 0 57.1203 12.0798 690 120.512 1256.19 465.957
2122 0 58.2068 11.2014 652 122.54 1256.25 467.144
2123 0 60.3494 11.4168 689 120.8 1256.51 468.772
2124 0 61.1564 12.0674 738 122.031 1255.62 466.084
2125 0 61.1257 14.3311 876 118.339 1256 467.35
2126 0 62.1061 16.4074 1019 115.243 1255.15 461.027
2127 0 67.1035 12.667 850 120.173 1257.13 458.899
2128 0 70.3223 12.3005 865 120.756 1256.08 455.877
2129 0 72.0551 11.63 838 125.959 1256.37 453.956
2130 0 73.1827 10.6856 782 128.176 1256.37 454.462
2131 0 76.1126 13.0202 991 123.398 1257.18 456.632
2132 0 78.2012 13.4269 1050 124.207 1255.25 454.895
2133 0 76.3307 13.0354 995 126.043 1256.23 452.496
2134 0 74.1581 8.80551 653 133.262 1256.27 448.626
2135 0 74.0773 11.056 819 128.88 1256.75 451.948
2136 1 170.293 13.0716 2226 128.784 1257.87 407.371
2137 0 177.434 11.3563 2015 131.163 1258.37 404.715
2138 0 184.541 11.1195 2052 128.308 1258.94 413.382
2139 0 188.706 11.4252 2156 130.955 1259.1 401.466
2140 0 188.627 7.94161 1498 135.778 1260.57 406.987
2141 1 104.356 16.4533 1717 120.66 1261.09 435.814
2142 0 104.389 15.5955 1628 121.972 1261.69 436.091
2143 0 105.227 10.9953 1157 129.222 1261.5 433.623
2144 0 114.354 17.9268 2050 119.33 1263.08 430.711
2145 0 112.257 15.2863 1716 117.326 1262.29 433.116
2146 0 119.326 15.6127 1863 115.899 1263.42 434.944
2147 0 119.327 15.6629 1869 105.219 1264.43 435.027
2148 1 192.541 10.1952 1963 126.234 1264.33 398.133
2149 0 200.585 10.6887 2144 125.938 1263.66 400.775
2150 0 201.083 11.9553 2404 124.814 1263.94 403.155
2151 1 79.07 13.6461 1079 119.121 1262.97 463.705
2152 0 76.2561 11.999 915 124.262 1262.74 456.358
2153 0 83.3036 15.3055 1275 118.504 1262.79 459.769
2154 1 96.5229 11.7382 1133 122.057 1262.11 459.569
2155 0 95.6513 22.3311 2136 108.137 1260.52 448.782
2156 0 97.2726 23.2645 2263 107.383 1259.93 447.041
2157 0 98.1845 17.8236 1750 115.779 1258.75 454.346
2158 0 99.1618 13.8662 1375 123.478 1259.01 439.588
2159 0 99.164 13.8256 1371 127.884 1260.02 439.659
2160 0 107.285 13.8696 1488 123.364 1257.28 446.371
2161 0 112.287 15.0061 1685 119.821 1257.12 452.195
2162 0 113.338 14.3024 1621 122.547 1255.84 447.497
2163 0 118.154 14.1425 1671 123.627 1255.16 444.177
2164 0 118.149 14.5579 1720 123.826 1254.41 446.477
2165 0 116.135 6.45802 750 134.117 1253.63 454.923
2166 0 114.278 7.72678 883 132.469 1254.89 453.891
2167 0 110.235 7.69264 848 134.71 1254.57 446.065
2168 1 137.275 13.5931 1866 124.997 1253.65 434.362
2169 0 138.725 14.7198 2042 122.718 1254.86 436.293
2170 0 133.202 10.7131 1427 127.596 1255.4 440.459
2171 1 85.1771 9.47437 807 124.932 1254.29 460.674
2172 0 84.228 9.58113 807 123.853 1255.23 462.755
2173 0 83.1486 13.4939 1122 120.14 1255.25 456.509
2174 0 94.3184 21.3108 2010 106.585 1256.41 447.586
2175 0 101.261 20.7285 2099 106.848 1256.34 444.451
2176 0 100.922 24.8113 2504 102.883 1256.85 435.391
2177 0 97.145 18.0658 1755 113.258 1257.88 443.597
2178 0 107.738 26.4995 2855 102.82 1257.84 440.584
2179 0 106.34 18.9769 2018 112.268 1259.19 419.617
2180 0 108.324 15.1397 1640 118.343 1260.55 424.787
2181 0 106.628 14.3114 1526 121.383 1260.85 425.3
2182 0 111.276 15.4661 1721 119.402 1261.29 427.918
2183 0 112.528 12.5302 1410 125.994 1261.68 422.952
2184 0 117.302 13.5803 1593 121.116 1262 434.189
2185 0 124.154 14.8525 1844 119.265 1262.44 434.721
2186 1 66.0425 15.6414 1033 116.997 1262.76 455.881
2187 0 71.157 13.1821 938 119.272 1262.98 460.754
2188 0 69.0587 11.2513 777 123.947 1263.35 463.408
2189 0 75.1705 14.7664 1110 120.442 1263.03 455.712
2190 0 76.0762 13.6705 1040 126.041 1263.74 455.897
2191 0 79.1977 14.2555 1129 125.22 1263.11 455.577
2192 0 83.1438 15.407 1281 122.819 1263.39 456.961
2193 0 87.1683 16.1068 1404 120.663 1263.28 455.516
2194 0 89.1922 14.4071 1285 124.264 1263.25 453.975
2195 0 91.4976 11.3992 1043 128.893 1264.05 453.672
2196 0 97.2738 14.1868 1380 125.265 1262.7 452.624
2197 0 104.219 20.9655 2185 114.696 1261.88 447.424
2198 0 108.253 17.3759 1881 120.121 1263.13 443.138
2199 0 111.334 12.5208 1394 124.796 1260.35 447.776
2200 1 60.1989 11.5783 697 123.808 1261.08 474.175
2201 0 62.2633 15.4023 959 117.55 1259.63 476.045
2202 0 62.201 12.122 754 124.666 1260.08 474.366
2203 0 69.5534 14.6075 1016 117.633 1259.39 473.326
2204 0 67.157 10.0957 678 127.17 1259.46 467.788
2205 0 72.1203 12.0216 867 123.526 1258.52 467.975
2206 0 72.4 12.0856 875 124.664 1257.44 461.775
2207 0 71.0615 10.0898 717 129.886 1257.16 458.909
2208 0 80.1614 10.7658 863 126.034 1257.48 462.652
2209 0 80.1282 15.5875 1249 120.267 1255.53 457.674
2210 0 79.1243 12.8279 1015 125.509 1256.26 454.452
2211 0 83.126 13.1006 1089 123.986 1257.3 454.533
2212 0 85.2035 13.2272 1127 123.602 1255.86 451.8
2213 0 87.1977 14.2091 1239 122.99 1256.35 445.663
2214 0 92.2051 14.381 1326 122.008 1255.85 445.395
2215 0 94.3572 10.0575 949 127.354 1257.19 452.586
2216 0 96.1894 11.8724 1142 124.84 1256.38 449.799
2217 0 96.1894 11.8932 1144 135.426 1255.4 449.92
2218 0 96.2726 9.93014 956 122.436 1257.85 457.552
2219 1 65.103 8.41744 548 126.794 1258.9 461.405
2220 0 61.0503 8.46843 517 125.217 1259.75 462.491
2221 0 62.2279 16.1664 1006 116.797 1259.06 457.108
2222 0 67.1307 13.9132 934 113.219 1258.18 452.596
2223 0 67.1307 13.8089 927 106.756 1258.17 452.6
2224 0 67.0958 12.579 844 115.009 1260.1 453.291
2225 0 68.1947 9.53154 650 118.629 1260.16 453.794
2226 0 73.0651 12.6873 927 113.101 1260.82 452.783
2227 0 76.1422 9.86313 751 116.638 1260.75 452.947
2228 0 82.0915 9.48941 779 116.756 1262.88 454.512
2229 0 83.1034 14.4158 1198 110.555 1262.05 452.824
2230 1 156.469 11.3569 1777 120.192 1264.14 413.551
2231 0 151.323 11.1946 1694 121.988 1264 412.185
2232 0 157.378 9.6519 1519 126.678 1263.34 397.347
2233 0 161.534 7.97356 1288 127.036 1264.8 408.84
2234 0 165.268 8.46504 1399 129.417 1264.53 396.755
2235 0 178.321 11.8606 2115 125.02 1263.96 399.37
2236 0 182.23 11.1727 2036 124.68 1263.4 406.704
2237 0 190.594 7.50811 1431 128.136 1262.47 414.932
2238 0 193.295 8.20508 1586 130.941 1263.31 400.866
2239 1 154.309 14.471 2233 123.245 1262.53 427.218
2240 0 154.309 14.5228 2241 126.398 1261.53 427.426
2241 1 117.186 13.6193 1596 124.897 1260.59 440.185
2242 0 118.261 8.36289 989 133.631 1261.37 436.416
2243 0 131.219 13.3594 1753 124.039 1258.79 436.8
2244 0 131.219 13.4661 1767 126.764 1255.75 436.942
2245 0 132.156 12.0161 1588 126.292 1258.24 432.243
2246 0 140.399 11.218 1575 128.272 1258.9 431.32
2247 0 134.234 9.33446 1253 132.219 1256.98 431.699
2248 0 135.311 9.49665 1285 129.262 1256.66 438.419
2249 0 136.301 7.89432 1076 133.128 1256.65 435.61
2250 1 80.0926 12.523 1003 124.501 1258.11 454.727
2251 0 85.2188 10.6549 908 126.798 1257.15 455.882
2252 0 85.1261 10.3729 883 131.005 1257.45 444.723
2253 0 92.1483 15.7138 1448 119.701 1255.9 448.317
2254 0 89.1187 16.3939 1461 121.021 1255.76 445.513
2255 0 95.2224 14.3244 1364 124.42 1256.3 443.525
2256 0 98.3451 11.8867 1169 127.162 1256.28 439.525
2257 0 101.609 15.7467 1600 119.864 1256.25 434.045
2258 0 99.2691 14.0124 1391 122.45 1255.66 432.28
2259 0 98.2538 15.9587 1568 111.302 1254.67 434.39
2260 0 106.212 11.8537 1259 126.01 1256.99 426.234
2261 0 109.141 10.83 1182 127.588 1256.73 430.074
2262 0 114.297 12.3975 1417 125.271 1257.81 427.398
2263 0 115.208 16.7524 1930 118.957 1257.99 423.193
2264 0 120.196 13.7359 1651 123.337 1258.95 418.971
2265 0 122.2 13.0524 1595 124.374 1260.78 409.001
2266 0 130.29 16.1639 2106 119.498 1260.79 418.428
2267 1 69.2433 9.96486 690 127.361 1261.19 442.632
2268 0 73.2735 10.3175 756 126.025 1262.43 443.421
2269 0 74.215 11.1568 828 124.928 1261.53 442.105
2270 0 79.3454 12.7922 1015 121.606 1261.85 441.117
2271 0 81.2955 15.8311 1287 117.023 1261.96 443.058
2272 0 89.2336 15.2073 1357 109.57 1264.29 448.631
2273 0 93.3112 14.7142 1373 109.81 1265.09 448.008
2274 0 95.115 13.4889 1283 112.115 1265.59 448.889
2275 0 99.2419 14.8728 1476 111.114 1266.08 444.934
2276 0 102.285 15.6328 1599 109.208 1265.87 450.288
2277 0 106.129 11.7781 1250 116.556 1265.53 445.408
2278 0 111.208 14.0548 1563 113.734 1264.33 441.077
2279 0 118.147 13.2716 1568 114.818 1265.08 442.685
2280 0 119.342 14.0018 1671 114.075 1262.69 444.038
2281 0 119.342 14.0269 1674 150.9 1260.69 443.989
2282 0 124.203 9.6294 1196 121.756 1262.8 440.536
2283 1 72.3161 12.072 873 112.936 1262.42 461.031
2284 0 72.3161 11.9614 865 136.065 1262.44 461.071
2285 0 72.3019 11.9222 862 135.76 1262.44 460.952
2286 0 79.0393 9.83055 777 118.846 1259.66 461.481
2287 0 83.1734 15.2933 1272 110.767 1259.35 457.792
2288 0 86.1903 14.8973 1284 111.907 1257.87 453.6
2289 0 87.1217 13.969 1217 111.617 1257.27 460.293
2290 0 89.368 12.2191 1092 116.815 1255.69 452.535
2291 0 93.1608 12.6555 1179 115.803 1256.98 452.883
2292 0 93.1608 12.6341 1177 143.757 1257.98 452.73
2293 0 93.1608 12.7307 1186 143.046 1259 452.545
2294 0 101.183 11.0394 1117 119.797 1255.95 445.031
2295 0 104.189 10.5097 1095 122.999 1256.7 445.145
2296 0 110.11 15.6389 1722 114.201 1255.83 441.952
2297 0 113.227 13.8747 1571 117.171 1256.05 440.257
2298 0 117.169 10.5745 1239 122.602 1255.81 436.571
2299 0 118.182 16.4831 1948 111.444 1256.1 439.989
2300 0 118.184 11.8544 1401 119.83 1256.29 432.21
2301 0 122.296 13.083 1600 116.874 1256.65 431.624
2302 0 126.303 13.2696 1676 116.494 1257.43 432.073
2303 0 133.314 14.1996 1893 114.07 1256.95 430.844
2304 0 130.297 11.9035 1551 116.324 1257.56 432.927
2305 0 135.44 10.9126 1478 119.04 1258.81 427.236
2306 0 141.268 12.494 1765 118.092 1258.07 419.832
2307 0 146.286 12.2158 1787 116.464 1259.82 423.441
2308 0 148.257 12.3367 1829 116.662 1259.69 411.069
2309 0 152.437 15.6392 2384 112.27 1260.61 404.706
2310 0 155.298 12.0929 1878 119.017 1260.18 400.764
2311 0 165.59 10.4294 1727 120.658 1260.58 408.571
2312 0 170.415 11.1844 1906 122.175 1262.24 409.065
2313 0 178.534 12.6978 2267 120.041 1262.61 407.217
2314 0 183.794 14.9624 2750 117.321 1262.51 399.473
2315 0 190.706 15.2748 2913 115.573 1262.69 408.108
2316 0 198.628 11.8211 2348 122.149 1262.72 400.275
2317 0 202.402 13.2755 2687 119.098 1264.05 403.696
2318 0 209.735 14.9522 3136 118.138 1263.69 394.919
2319 0 214.503 12.2749 2633 122.373 1263.23 393.024
2320 0 301.798 6.69321 2020 128.519 1263.25 391.752
2321 0 302.811 6.68403 2024 131.993 1262.85 373.242
2322 0 298.902 14.5064 4336 122.534 1261.94 354.047
2323 0 299.71 10.1532 3043 126.095 1261.22 377.318
2324 0 302 7.18874 2171 127.611 1260.81 399.854
2325 0 305.854 12.5746 3846 121.658 1261.08 376.397
2326 0 306.177 12.2184 3741 124.444 1260.84 362.968
2327 1 157.69 19.272 3039 110.167 1259.27 422.421
2328 0 158.498 12.6753 2009 121.365 1258.45 422.038
2329 0 164.435 12.3027 2023 119.821 1257.81 425.981
2330 0 172.653 12.9335 2233 118.639 1257.46 416.709
2331 0 179.684 15.2824 2746 115.6 1256.79 414.06
2332 0 180.508 13.3346 2407 119.782 1256.45 411.597
2333 0 185.628 15.4179 2862 117.894 1255.86 400.846
2334 0 193.749 19.2723 3734 110.924 1256.53 410.076
2335 0 197.727 12.3099 2434 122.773 1255.59 400.63
2336 0 205.741 20.6279 4244 110.377 1256.41 403.972
2337 0 212.74 13.4671 2865 123.101 1255.57 389.302
2338 0 218.584 15.0743 3295 120.053 1254.79 384.178
2339 0 227.981 17.1111 3901 116.444 1255.13 386.01
2340 1 175.666 13.4004 2354 119.899 1255.42 410.292
2341 0 178.809 11.5543 2066 125.31 1255.37 397.538
2342 0 179.279 12.4722 2236 124.431 1255.26 399.757
2343 1 191.76 11.9368 2289 123.45 1255.57 397.699
2344 0 198.843 15.3589 3054 117.857 1256.7 394.846
2345 1 11.0061 7.17787 79 98.6329 1260.09 479.506
2346 0 7.00042 2.99982 21 104.81 1258.76 480.81
2347 1 218.711 18.449 4035 113.469 1258.01 390.513
2348 0 221.643 14.6677 3251 120.197 1257.92 383.174
2349 0 228.834 14.4297 3302 122.559 1259.43 369.418
2350 0 228.884 7.32247 1676 126.299 1260.65 407.767
2351 0 226.316 7.84303 1775 127.011 1261.26 403.468
2352 1 180.43 11.0735 1998 123.83 1260.75 403.469
2353 0 188.553 14.9454 2818 118.736 1262.05 400.326
2354 0 196.545 19.2169 3777 112.568 1262.49 393.321
2355 0 198.417 14.1621 2810 120.568 1263.5 383.463
2356 0 208.4 13.3397 2780 121.715 1263.94 392.805
2357 0 216.36 14.7902 3200 119.17 1264.45 389.724
2358 0 221.387 15.6785 3471 117.994 1263.58 383.377
2359 0 229.825 9.72912 2236 126.251 1264.57 386.063
2360 0 237.458 13.4339 3190 121.865 1263.76 371.859
2361 0 246.493 15.5583 3835 117.124 1263.63 386.785
2362 1 65.0703 11.0803 721 105.322 1262.33 467.495
2363 0 66.1798 8.14448 539 108.365 1262.4 473.944
2364 0 67.1765 12.3406 829 121.027 1263.72 468.296
2365 0 69.3508 11.9249 827 105.779 1261.33 467.266
2366 0 73.1947 11.6675 854 106.114 1261.11 467.479
2367 0 73.0875 8.34616 610 113.298 1260.19 468.892
2368 0 76.0972 10.9597 834 108.296 1259.12 469.001
2369 0 78.0541 9.5831 748 111.773 1257.49 463.007
2370 0 79.1185 6.54714 518 113.002 1256.68 466.378
2371 0 83.1773 14.8238 1233 103.38 1255.5 463.061
2372 0 85.2101 8.02722 684 111.991 1257.28 457.516
2373 0 87.2234 8.38078 731 112.486 1255.99 452.591
2374 0 87.0926 8.93302 778 110.764 1255.38 458.041
2375 0 94.1956 8.7159 821 110.551 1255.08 456.999
2376 0 98.2917 11.1912 1100 109.549 1253.91 450.1
2377 0 98.2917 11.1708 1098 117.925 1252.93 450.27
2378 0 98.2816 12.9017 1268 113.52 1251.91 450.22
2379 0 93.0548 2.37495 221 120.557 1253.86 451.923
2380 0 95.1484 3.55235 338 110.459 1253.79 469.911
2381 1 163.428 10.2125 1669 113.599 1253.68 412.225
2382 0 166.566 11.7131 1951 113.459 1254.27 411.848
2383 0 169.24 11.2503 1904 113.453 1254.54 418.564
2384 0 177.464 11.2079 1989 116.218 1254.86 405.533
2385 0 175.93 10.9134 1920 116.107 1254.81 410.529
2386 1 72.3047 9.88871 715 110.376 1255.66 454.996
2387 0 76.3237 9.44661 721 110.856 1254.37 453.804
2388 0 82.4772 14.8526 1225 103.668 1256.5 450.442
2389 0 82.4224 13.7099 1130 106.435 1256.37 449.282
2390 0 84.2733 12.2696 1034 109.082 1256.21 446.72
2391 0 83.2187 9.44499 786 112.555 1257.8 451.807
2392 0 304.162 28.4125 8642 103.827 1257.4 315.765
2393 0 305.052 27.2478 8312 106.256 1257.43 318.525
2394 1 94.3613 19.6055 1850 101.59 1259.39 446.654
2395 0 93.3198 13.8663 1294 120.58 1261.55 451.765
2396 0 95.3605 11.4827 1095 112.391 1261.01 440.578
2397 0 101.314 12.1602 1232 110.433 1259.45 448.17
2398 0 102.293 8.21173 840 116.611 1261.85 441.235
2399 0 111.485 13.6521 1522 109.385 1262.11 437.671
2400 0 113.207 12.8349 1453 109.759 1261.95 442.067
2401 0 116.287 13.1743 1532 109.646 1261.85 440.56
2402 0 115.16 8.01491 923 119.419 1262.23 429.168
2403 0 123.251 7.70786 950 119.795 1261.84 435.468
2404 0 127.14 8.43168 1072 119.949 1260.87 440.43
2405 0 127.14 8.52606 1084 146.566 1259.86 440.553
2406 1 75.1908 10.9987 827 111.106 1259.08 468.323
2407 0 76.1254 14.3448 1092 107.186 1258.93 461.313
2408 0 81.1741 15.9657 1296 104.968 1260 462.444
2409 0 84.2787 13.7283 1157 109.535 1257.9 457.305
2410 1 96.1315 11.4739 1103 110.973 1257.64 462.757
2411 0 92.1841 14.2649 1315 110.033 1256.55 452.459
2412 0 91.1825 13.6759 1247 112.413 1256.73 452.805
2413 0 95.0928 14.7119 1399 110.776 1255.24 451.031
2414 0 97.2022 17.3556 1687 106.225 1254.64 455.423
2415 0 100.433 12.9738 1303 113.346 1254.14 449.187
2416 0 105.266 12.8437 1352 112.956 1254.17 446.703
2417 0 107.243 10.9471 1174 115.828 1253.34 445.756
2418 0 112.514 15.5803 1753 108.527 1253.53 450.028
2419 0 109.134 9.54787 1042 118.623 1253.33 447.639
2420 1 63.1385 12.037 760 111.78 1252.39 468.101
2421 0 63.1385 11.942 754 126.812 1251.36 468.103
2422 0 67.0707 12.2259 820 117.429 1255.19 458.046
2423 0 66.0928 8.03416 531 127.064 1255.46 456.859
2424 1 83.1566 11.9173 991 115.822 1255.27 460.525
2425 0 83.1566 11.9894 997 138.312 1255.23 460.428
2426 0 83.1566 11.9774 996 137.807 1255.24 460.468
2427 0 79.207 15.6426 1239 112.617 1257.12 456.404
2428 0 83.1279 14.1469 1176 114.824 1256.71 453.188
2429 0 86.1385 9.46151 815 121.382 1257.82 451.804
2430 0 88.22 17.5584 1549 111.684 1258.28 444.268
2431 0 90.2466 15.5906 1407 113.556 1258.58 444.367
2432 0 91.2018 15.7015 1432 110.784 1259.75 450.844
2433 0 94.2885 17.0328 1606 110.616 1259.63 444.432
2434 0 97.3539 14.6065 1422 115.375 1258.1 442.416
2435 0 98.4616 14.2797 1406 116.568 1258.94 438.477
2436 0 103.15 13.8537 1429 116.963 1258.27 439.192
2437 0 104.228 10.3619 1080 119.623 1259.6 445.95
2438 1 205.476 16.1284 3314 118.988 1260.34 382.269
2439 1 121.113 8.49619 1029 123.806 1260.87 440.827
2440 0 120.406 15.0491 1812 115.363 1260.61 431.768
2441 1 64.1411 6.53247 419 118.315 1262.28 459.444
2442 0 62.2738 11.0159 686 113.43 1261.54 459.083
2443 0 66.3309 10.4325 692 113.487 1262.56 461.195
2444 0 74.2361 12.8509 954 109.957 1261.64 459.756
2445 0 76.241 11.8834 906 111.434 1261.75 463.026
2446 0 72.085 12.1107 873 113.954 1260.56 458.997
2447 0 77.1226 8.45408 652 120.959 1261.18 456.235
2448 0 81.3229 11.1531 907 115.792 1260.15 459.889
2449 0 85.2207 12.1801 1038 115.977 1259.8 456.829
2450 1 143.121 6.14863 880 121.799 1258.73 455.64
2451 0 140.133 8.0852 1133 121.496 1257.57 445.92
2452 1 93.0949 12.1704 1133 117.189 1257.6 450.539
2453 0 98.2442 13.7006 1346 115.476 1256.14 452.269
2454 0 98.2557 13.587 1335 122.74 1255.14 452.198
2455 0 102.127 10.5751 1080 121.019 1255.55 447.592
2456 0 102.207 12.9346 1322 119.378 1254.22 445.297
2457 0 111.338 14.5143 1616 114.441 1254.01 449.678
2458 0 116.184 13.031 1514 120.234 1253.43 443.604
2459 1 65.0552 9.28442 604 116.204 1252.63 472.344
2460 0 65.0552 9.14608 595 126.817 1252.62 472.313
2461 0 65.1101 6.95745 453 119.879 1252.42 471.128
2462 0 67.0661 11.9434 801 112.662 1252.49 462.388
2463 0 73.2066 10.3952 761 113.15 1252.57 467.689
2464 0 73.1038 10.1226 740 114.335 1252.1 464.241
2465 0 75.0951 11.7984 886 112.932 1252.3 456.606
2466 0 80.0734 13.8373 1108 109.532 1253.43 455.746
2467 0 79.1174 12.3361 976 113.076 1253.35 455.834
2468 0 77.1825 10.5594 815 116.816 1254.23 453.229
2469 0 81.1075 10.295 835 116.416 1254.83 453.835
2470 0 82.1078 10.0965 829 118.491 1255.01 450.001
2471 0 89.2698 7.94222 709 119.433 1255.67 451.43
2472 0 89.1735 9.39741 838 119.958 1255.84 440.749
2473 0 93.411 10.6626 996 118.391 1256.21 443.331
2474 1 179.75 13.363 2402 124.139 1257.21 398.944
2475 0 190.488 12.2737 2338 121.207 1257.59 406.993
2476 0 194.466 12.9277 2514 124.444 1258.5 390.194
2477 0 200.27 12.0587 2415 126.082 1258.96 392.914
2478 1 107.134 13.3012 1425 114.959 1259.51 442.618
2479 0 111.16 9.95865 1107 120.743 1258.79 437.512
2480 0 116.287 11.1363 1295 121.24 1261.05 433.405
2481 0 118.268 13.1143 1551 117.589 1261.08 438.118
2482 0 124.313 12.6294 1570 120.177 1261.45 438.897
2483 0 129.131 13.5367 1748 119.29 1260.81 433.635
2484 0 137.381 11.4135 1568 120.535 1262.39 437.27
2485 0 140.288 12.6026 1768 120.512 1260.75 431.445
2486 0 142.479 11.328 1614 123.459 1260.8 427.796
2487 0 148.256 12.9776 1924 120.889 1260.59 429.649
2488 0 154.205 10.473 1615 125.186 1260.11 425.718
2489 0 160.333 17.6694 2833 115.594 1260.05 420.208
2490 0 168.313 12.958 2181 121.764 1259.3 415
2491 0 167.594 11.1221 1864 127.201 1258.63 405.634
2492 1 82.2378 7.0892 583 125.173 1257.52 455.401
2493 0 88.2877 11.168 986 118.033 1257.12 458.117
2494 0 88.1549 13.5103 1191 117.952 1257.05 451.757
2495 0 91.3452 13.6187 1244 117.577 1254.85 450.885
2496 0 99.2906 9.84987 978 119.885 1254.79 462.493
2497 0 104.235 10.1693 1060 123.158 1254.05 448.471
2498 0 109.114 16.7897 1832 111.987 1254.02 453.738
2499 0 111.199 16.7448 1862 113.182 1253.44 451.047
2500 0 114.179 12.6118 1440 119.826 1253.84 448.666
2501 0 117.257 11.9226 1398 121.393 1252.89 445.202
2502 0 124.228 12.7749 1587 120.279 1253.86 438.282
2503 0 124.154 12.1462 1508 121.166 1253.65 437.687
2504 0 122.251 7.59093 928 128.017 1253.12 437.028
2505 0 118.49 11.2499 1333 124.528 1253.79 428.323
2506 1 65.1562 10.3597 675 111.37 1252.79 465.616
2507 0 66.2565 9.50851 630 113.586 1253.87 464.414
2508 0 70.2667 10.2751 722 113.521 1252.8 460.758
2509 0 70.2667 10.3321 726 135.161 1251.8 460.759
2510 0 69.2898 8.3562 579 120.252 1254.55 452.439
2511 0 72.14 10.9648 791 115.057 1256.64 454.266
2512 0 74.1866 11.3093 839 114.751 1256.69 454.279
2513 0 71.1169 11.8115 840 113.596 1256.53 456.705
2514 0 80.2228 12.9265 1037 112.69 1255.71 451.223
2515 0 81.3387 11.5689 941 114.476 1257.58 449.915
2516 0 81.0905 9.5079 771 120.94 1258.41 452.844
2517 0 87.0844 9.85252 858 120.844 1259.46 449.416
2518 0 97.2591 8.61616 838 121.032 1260.48 449.31
2519 0 97.2679 8.67707 844 143.705 1260.48 449.318
2520 0 95.244 9.20793 877 123.229 1261.82 441.089
2521 0 99.239 12.9788 1288 116.846 1260.95 444.241
2522 0 101.186 11.3948 1153 118.998 1263.05 445.64
2523 0 104.147 11.2342 1170 120.486 1262.58 442.044
2524 0 106.237 12.4062 1318 119.285 1262.56 443.756
2525 0 102.122 3.04539 311 125.415 1262.51 459.836
2526 1 68.1835 10.6331 725 113.07 1262.15 464.265
2527 0 69.1202 11.8055 816 109.206 1262.55 459.702
2528 0 72.0382 11.8132 851 111.1 1262.07 445.578
2529 0 71.132 8.77242 624 114.708 1261.61 452.317
2530 0 76.1462 13.7893 1050 109.45 1261.5 448.561
2531 0 75.0733 14.3327 1076 109.488 1259.9 447.103
2532 0 82.1532 12.8419 1055 110.318 1259.58 447.058
2533 0 84.2634 14.5852 1229 109.245 1258.13 444.635
2534 0 84.1411 14.6658 1234 109.677 1256.88 440.716
2535 0 90.3167 14.4934 1309 109.247 1257.22 447.307
2536 0 89.3716 10.1039 903 116.944 1256.83 440.688
2537 0 95.168 13.4814 1283 112.171 1256.14 443.94
2538 0 98.1715 14.4237 1416 110.766 1256.16 447.193
2539 0 99.4151 12.2315 1216 115.094 1255.11 439.616
2540 0 109.319 10.8855 1190 117.108 1254.23 448.049
2541 0 106.397 7.98891 850 121.055 1254.05 450.251
2542 0 107.333 15.8292 1699 111.834 1254.13 444.361
2543 0 105.112 8.47666 891 123.511 1253.56 438.671
2544 0 115.403 14.2198 1641 113.517 1254.34 440.913
2545 0 119.434 13.7733 1645 115.533 1254.82 436.396
2546 0 122.322 13.4972 1651 117.078 1255.16 435.788
2547 1 235.878 12.481 2944 130.486 1255.07 373.606
2548 1 197.321 6.62371 1307 121.108 1254.83 439.608
2549 1 133.244 12.9762 1729 117.853 1254.95 426.733
2550 0 141.275 17.4907 2471 111.011 1255.71 426.873
2551 0 144.211 10.124 1460 121.336 1254.75 424.93
2552 1 76.1238 8.23659 627 121.786 1256.64 450.308
2553 0 83.1387 12.6776 1054 118.416 1254.91 443.332
2554 0 82.27 10.7573 885 118.09 1257.54 450.475
2555 0 84.2726 11.4628 966 118.908 1259.52 451.981
2556 0 91.2305 13.4714 1229 113.147 1258.13 441.429
2557 0 93.2026 11.1263 1037 115.736 1259.14 448.535
2558 0 94.1214 12.9832 1222 114.646 1259.85 442.944
2559 0 99.3453 11.0322 1096 117.55 1259.87 440.214
2560 0 102.448 11.6449 1193 115.215 1260.02 446.979
2561 0 102.1 10.9403 1117 118.397 1261 435.813
2562 0 102.202 11.2717 1152 119.046 1260.51 436.041
2563 0 103.276 8.18196 845 120.134 1263.02 451.433
2564 0 103.255 6.90521 713 128.554 1266.1 456.387
2565 1 74.2434 12.5264 930 112.418 1263.27 461.166
2566 0 66.041 7.32878 484 121.056 1260.22 453.946
2567 0 66.1257 7.51599 497 121.96 1259.61 451.676
2568 0 68.0866 12.1022 824 114.458 1259.76 455.831
2569 0 68.2019 9.99973 682 119.151 1258.8 452.974
2570 0 72.0608 11.1572 804 117.301 1258.87 453.353
2571 0 77.0454 12.4602 960 114.768 1259.59 456.264
2572 0 83.2152 17.0402 1418 108.304 1258.31 453.111
2573 0 85.1726 16.719 1424 108.657 1258.05 456.367
2574 0 93.328 11.0363 1030 115.386 1256.85 455.348
2575 0 91.0578 11.2127 1021 116.904 1256.94 451.556
2576 0 96.1665 11.7712 1132 116.439 1255.58 447.549
2577 0 99.1598 11.4462 1135 118.247 1255.16 440.417
2578 0 98.0384 10.0675 987 118.258 1253.77 450.418
2579 0 104.059 11.9451 1243 117.026 1254.38 444.448
2580 0 104.333 10.3802 1083 118.646 1253.93 443.355
2581 0 110.154 12.8456 1415 115.545 1252.95 442.379
2582 1 224.398 13.3112 2987 119.496 1253.85 395.643
2583 0 233.484 13.23 3089 119.343 1253.92 387.57
2584 1 122.409 11.4698 1404 113.969 1253.35 442.394
2585 0 128.244 10.5736 1356 114.789 1252.27 435.97
2586 0 133.218 11.8302 1576 113.603 1253.34 428.258
2587 0 143.413 16.3584 2346 105.756 1253.09 427.063
2588 0 143.522 9.83824 1412 115.526 1253.54 423.397
2589 1 82.2256 13.4994 1110 107.264 1253.34 449.268
2590 0 78.2552 13.3665 1046 109.284 1252.76 443.118
2591 0 82.2543 12.1817 1002 111.309 1254.66 439.765
2592 0 89.1328 9.96266 888 115.006 1254.87 437.88
2593 0 85.1183 12.0656 1027 113.76 1255.47 436.658
2594 0 91.2728 10.5837 966 115.492 1255.75 433.902
2595 0 97.2882 11.8514 1153 111.975 1255.69 437.201
2596 0 103.3 16.0116 1654 105.76 1255.57 440.747
2597 0 112.305 14.4517 1623 107.195 1255.23 439.075
2598 0 115.158 12.2614 1412 108.264 1256.8 437.696
2599 0 111.309 15.0661 1677 105.994 1258.44 435.675
2600 0 108.302 13.2223 1432 110.79 1258.86 430.142
2601 0 121.647 12.2486 1490 110.017 1258.57 433.564
2602 0 118.129 10.9034 1288 109.807 1259.52 442.074
2603 0 127.251 14.9468 1902 106.527 1260.17 429.797
2604 0 133.138 13.7301 1828 108.908 1259.89 422.731
2605 0 136.333 13.1296 1790 106.199 1260.06 429.219
2606 0 141.402 12.7862 1808 106.931 1259.81 417.493
2607 0 145.343 12.4189 1805 109.45 1260.5 421.871
2608 0 146.272 19.3407 2829 102.248 1260.17 413.264
2609 0 154.412 14.0145 2164 107.865 1260.13 407.281
2610 0 159.235 14.8962 2372 104.978 1259.31 414.923
2611 1 101.099 11.0683 1119 103.289 1258.31 458.451
2612 0 99.2489 12.252 1216 103.422 1258.03 449.236
2613 0 100.181 9.01368 903 109.147 1257.68 448.847
2614 0 106.13 13.6059 1444 104.249 1257.23 442.379
2615 0 110.256 11.183 1233 106.951 1255.84 446.669
2616 0 105.127 10.6062 1115 109.162 1255.59 437.772
2617 0 112.105 11.9352 1338 107.495 1255.26 432.25
2618 0 118.23 11.8498 1401 105.877 1254.72 434.469
2619 0 124.177 15.1317 1879 100.912 1253.62 426.353
2620 0 123.195 11.218 1382 107.085 1254.26 434.192
2621 0 126.251 9.03756 1141 105.471 1253.93 447.476
2622 1 66.1068 12.8731 851 102.009 1253.07 453.593
2623 0 77.0916 12.2971 948 101.97 1251.46 452.167
2624 0 77.1 10.6745 823 104.395 1251.81 454.697
2625 0 76.1248 8.39411 639 106.781 1251.92 452.396
2626 0 83.1503 9.27237 771 106.157 1251.39 447.403
2627 1 162.254 9.01059 1462 111.783 1252.94 401.065
2628 1 313.72 11.8896 3730 111.85 1252.86 355.571
2629 0 303.551 13.8362 4200 105.956 1253.34 376.49
2630 1 267.839 13.0564 3497 110.793 1253.74 361.674
2631 0 276.69 14.6662 4058 107.553 1253.95 360.444
2632 0 279.5 23.6279 6604 99.6307 1253.36 347.969
2633 1 266.832 4.56093 1217 116.117 1255.08 376.445
2634 0 262.718 13.2804 3489 109.638 1256.12 347.461
2635 1 111.272 15.7542 1753 98.8026 1255.11 418.403
2636 0 113.33 10.0062 1134 106.24 1256.17 422.902
2637 0 114.186 14.2312 1625 101.478 1257.6 429.734
2638 0 119.423 9.19419 1098 107.687 1257.11 425.397
2639 0 123.344 14.0988 1739 101.417 1258.66 424.157
2640 0 119.385 11.8524 1415 105.837 1259.46 415.978
2641 1 8.00177 2.74939 22 89.0455 1256.41 485.864
2642 0 10.0091 3.79655 38 88.0263 1260.03 478.079
2643 1 87.6185 13.5816 1190 95.305 1262.21 431.143
2644 0 96.2939 9.92794 956 101.066 1262.05 421.837
2645 0 101.296 11.8959 1205 97.6083 1260.55 432.417
2646 0 102.241 9.52647 974 101.52 1260.63 424.055
2647 1 116.205 14.4658 1681 95.6901 1259.9 426.209
2648 0 109.218 8.31362 908 104.167 1259.85 420.143
2649 0 115.42 11.0553 1276 99.9185 1258.68 424.122
2650 0 110.363 25.9598 2865 89.6223 1257.85 415.133
2651 0 113.272 11.9888 1358 101.756 1257.89 416.403
2652 0 114.208 9.48269 1083 103.281 1256.08 415.494
2653 0 113.215 9.25671 1048 134.043 1254.07 414.979
2654 0 117.355 7.3708 865 108.555 1255.01 403.256
2655 1 9.12936 3.2861 30 87.3333 1251.53 475.767
2656 0 10.0054 3.89788 39 88.5128 1251.95 481.128
2657 0 12.0241 8.89882 107 81.4486 1251.51 490.458
2658 0 16.0097 4.43482 71 87.9718 1249.31 489.746
2659 0 7.00706 6.99294 49 82.0816 1249.53 493.612
2660 0 11.0799 4.33218 48 80.875 1249.52 494.875
2661 0 6 5.16667 31 83.4516 1249.42 489.806
2662 0 11.0806 7.94179 88 81.4773 1251.3 489.523
2663 0 10.0024 8.09806 81 82.9753 1251.36 490.667
2664 0 8.00409 4.24783 34 88.6765 1249.18 488.529
2665 0 8 1.75 14 91.4286 1248.79 476.857
2666 0 5 5.2 26 87.5385 1249.38 477.385
2667 0 9.00436 4.77547 43 88.7674 1249.26 477.256
2668 0 12.0017 3.9161 47 84.9574 1249.06 483.787
2669 0 12.0036 6.58136 79 84.6962 1250.47 481.734
2670 0 21.0576 4.17902 88 90.5682 1252.56 480.284
2671 0 13.0284 3.83776 50 89.48 1250.16 481.2
2672 0 18.5589 5.81932 108 84.8518 1255.12 489.25
2673 0 15.0268 6.05585 91 88.1099 1256.38 486.769
2674 0 23.1047 6.88172 159 86.8805 1255.47 483.063
2675 0 15.005 8.59712 129 85.9922 1257.12 485.364
2676 0 22.0788 6.4315 142 86.1197 1255.68 482.07
2677 1 10.001 6.8993 69 85.7826 1256.17 483.464
2678 0 15.0037 1.1997 18 92.7222 1257.94 481.889
2679 0 18.0928 4.64273 84 81.9048 1257.81 488.333
2680 0 21.0607 9.78123 206 83.3981 1258.06 480.99
2681 0 15.0062 4.19826 63 89.0159 1257.33 487.27
2682 0 9.0015 6.33228 57 86.6491 1257.28 487.123
2683 0 12.001 4.99957 60 87.8 1260.93 489.35
2684 0 13.024 6.60318 86 86.0698 1259.88 488.116
2685 0 11.0021 1.0907 12 93.5833 1259.75 486.667
2686 0 7.00511 2.85506 20 88.3 1259.85 489.95
2687 0 15.0282 7.05341 106 85.4528 1260.26 494.651
2688 0 14.1985 4.36665 62 86.6774 1261.53 494.581
2689 0 20.013 10.4432 209 87.3014 1258.77 489.474
2690 1 116.24 7.94044 923 99.9783 1258.58 446.86
2691 0 114.258 7.8857 901 101.811 1257.89 436.525
2692 0 118.4 9.78888 1159 99.8801 1257.76 437.989
2693 1 10.0014 10.2985 103 84.1068 1258.86 500.155
2694 0 18.0211 6.93633 125 90.568 1258.21 493.768
2695 0 13.0173 10.6781 139 84.5612 1257.31 499.77
2696 0 21.01 6.90148 145 89.5931 1258.49 493.421
2697 0 16.0095 10.3689 166 84.6868 1256.48 498.217
2698 0 9.00269 6.22036 56 88.0893 1255.91 500.125
2699 0 14.0061 9.63867 135 82.5778 1255.48 500.511
2700 0 9.00147 5.88792 53 86.1698 1254.68 500.302
2701 0 12.0033 3.74898 45 93.2 1254 495.556
2702 0 15.0164 15.3832 231 74.7143 1251.79 497.234
2703 0 13.0194 6.2215 81 81.358 1253.7 498.173
2704 0 12.0258 8.89754 107 77.8224 1253.37 498.037
2705 0 4 2 8 91.625 1252.88 494.625
2706 0 7.00392 6.2822 44 82.3409 1253.36 495.341
2707 0 7.0013 9.14116 64 79.875 1252.98 496.672
2708 0 9.00168 7.22088 65 81.7077 1252.26 493.262
2709 0 8.00303 5.62287 45 82.1111 1252.62 494.822
2710 0 10.1415 11.8326 120 77.775 1252.58 492.933
2711 0 5 0.6 3 91.6667 1251 490
2712 0 12.0206 8.48544 102 80.8824 1252.32 491.637
2713 0 12.0171 5.99144 72 80.9028 1252.31 491.028
2714 0 11.0052 8.72317 96 80.8438 1253.59 490.292
2715 0 10.0036 4.39843 44 85.3409 1253.59 490.523
2716 0 10.0119 7.09155 71 81.493 1255.18 489
2717 0 10.0008 2.79976 28 84.75 1256.32 488.714
2718 0 6 2.66667 16 90.1875 1255.75 487.625
2719 1 87.5922 13.5629 1188 92.553 1256.07 451.123
2720 0 85.4461 7.94653 679 99.8719 1256.36 447.161
2721 0 89.5955 12.2439 1097 94.6363 1256.72 449.264
2722 0 90.327 12.6762 1145 94.1624 1256.52 452.867
2723 0 91.1998 9.61624 877 97.7423 1257.06 452.48
2724 0 97.5896 11.2 1093 96.6999 1258.52 447.826
2725 0 101.89 16.4688 1678 91.9905 1258.75 441.686
2726 1 189.901 11.9431 2268 100.256 1258.86 403.396
2727 0 196.654 14.6908 2889 98.0599 1259.71 397.712
2728 0 207.942 19.0341 3958 91.8037 1259.7 410.407
2729 0 210.762 13.138 2769 99.1022 1259.27 399.128
2730 0 215.278 15.5241 3342 95.3875 1258.42 409.46
2731 0 223.939 18.0362 4039 93.307 1259.3 396.457
2732 0 224.934 12.4259 2795 99.0887 1259.29 393.982
2733 0 225.112 13.3178 2998 99.6915 1258.83 385.765
2734 1 62.1093 11.8984 739 92.5832 1257.82 464.093
2735 0 69.2061 10.187 705 95.0128 1257.66 462.335
2736 0 68.2026 18.2984 1248 87.4952 1257.9 462.917
2737 0 70.2165 15.5804 1094 90.5064 1256.94 463.082
2738 0 75.2121 11.7534 884 92.4548 1256.65 463.697
2739 0 80.0599 9.41795 754 95.2149 1255.14 458.679
2740 0 80.0599 9.26807 742 138.9 1253.11 458.633
2741 0 78.2336 9.86789 772 96.7396 1255.01 456.262
2742 0 90.4086 10.6848 966 93.1025 1254.1 463.061
2743 0 93.3022 14.1154 1317 89.9636 1253.91 462.308
2744 0 93.3161 17.789 1660 88.3723 1253.28 451.536
2745 0 94.1906 7.81394 736 98.8845 1253.02 450.155
2746 1 9.0329 4.64967 42 86.1429 1252.86 490.5
2747 0 11.0167 16.8834 186 73.5591 1252.12 497.737
2748 1 105.295 19.5736 2061 88.6308 1251.15 441.167
2749 0 111.568 13.2924 1483 92.5974 1250.8 439.012
2750 0 114.216 13.1242 1499 93.5397 1251.01 441.034
2751 0 117.405 15.8681 1863 91.2308 1252.44 442.828
2752 0 121.264 9.73081 1180 97.5008 1252.41 432.617
2753 0 124.296 16.702 2076 90.5684 1252.77 436.997
2754 0 123.268 8.45315 1042 108.822 1252.91 423.013
2755 0 131.327 11.5589 1518 105.607 1253.14 421.547
2756 0 135.197 12.0269 1626 104.641 1253.15 423.574
2757 0 139.46 12.9571 1807 103.628 1253.75 418.278
2758 1 80.1817 10.9252 876 105.201 1254.55 436.006
2759 0 74.1251 5.5177 409 113.655 1255.03 431.599
2760 0 86.1104 13.8775 1195 101.451 1255.92 434.202
2761 0 86.3663 10.8723 939 103.917 1256.79 439.381
2762 0 90.0641 16.1774 1457 99.6616 1257.49 432.701
2763 0 90.2305 12.6897 1145 105.245 1257.61 430.7
2764 1 100.219 14.0591 1409 102.243 1259.04 433.612
2765 0 94.1089 13.2931 1251 105.83 1258.76 428.678
2766 0 102.275 13.8841 1420 104.88 1260.66 429.204
2767 0 107.478 13.4354 1444 105.287 1260.68 434.052
2768 0 113.623 14.3808 1634 104.204 1261.89 427.771
2769 0 108.196 13.7806 1491 106.206 1262.17 421.874
2770 0 116.811 9.72511 1136 109.665 1261.43 425.146
2771 0 120.43 12.937 1558 107.789 1260.74 421.82
2772 0 126.59 12.4971 1582 107.882 1260.76 421.217
2773 0 128.718 15.5533 2002 105.263 1260.86 434.862
2774 0 134.587 11.1749 1504 110.176 1260.61 431.371
2775 0 137.486 15.6525 2152 104.339 1259.85 432.129
2776 0 144.807 14.578 2111 106.572 1260.45 424.162
2777 0 148.527 13.4588 1999 107.448 1259.97 427.775
2778 0 153.615 12.8113 1968 108.252 1260.14 426.082
2779 0 155.539 12.82 1994 110.732 1259.08 413.445
2780 0 162.807 12.2231 1990 112.151 1259.18 414.122
2781 1 97.4842 9.83749 959 105.18 1258.14 456.813
2782 0 99.3629 11.9059 1183 104.307 1257.15 450.953
2783 0 103.253 12.5904 1300 106.065 1256.29 449.745
2784 0 106.334 11.9906 1275 107.013 1256.33 449.053
2785 0 110.44 12.7128 1404 104.796 1256.37 450.602
2786 0 109.377 13.7506 1504 106.206 1255.42 437.438
2787 0 113.365 14.4136 1634 104.042 1255.73 444.386
2788 0 121.518 16.6972 2029 101.761 1254.68 434.005
2789 0 120.513 14.7121 1773 104.984 1254.49 436.623
2790 0 127.305 17.6583 2248 101.107 1254.13 435.344
2791 0 130.876 17.2988 2264 101.605 1253.8 432.848
2792 0 131.79 15.3957 2029 104.281 1253.22 427.467
2793 1 78.2361 6.19918 485 105.181 1253.56 458.179
2794 0 75.5744 7.27759 550 106.258 1254.03 450.318
2795 0 79.268 4.68032 371 106.119 1253.02 449.367
2796 0 84.7382 7.28125 617 98.8882 1254.07 464.502
2797 0 89.4479 12.8119 1146 96.945 1254.62 451.125
2798 0 88.3503 13.3446 1179 96.4368 1255.36 455.623
2799 0 91.3532 8.81195 805 101.427 1255.64 451.383
2800 0 98.0064 16.7642 1643 93.2301 1255.73 447.922
2801 1 8.00102 5.99923 48 87.5625 1257.92 488.667
2802 0 8.00038 4.49979 36 88.0278 1257.81 487.75
2803 0 9.00345 2.44351 22 89.9545 1257.68 487.545
2804 1 188.702 14.1811 2676 102.077 1257.51 409.584
2805 0 195.382 14.8223 2896 104.554 1258.65 394.604
2806 1 170.754 2.85791 488 109.641 1258.35 435.383
2807 1 117.575 15.6836 1844 97.0282 1258.93 432.963
2808 0 118.333 13.9352 1649 98.7586 1259.2 430.77
2809 0 125.973 13.1139 1652 99.9316 1260.24 431.067
2810 0 118.529 15.5827 1847 99.3676 1260.36 419.401
2811 0 126.348 11.1992 1415 103.96 1261.6 420.982
2812 0 135.577 12.7529 1729 101.723 1262.18 424.311
2813 0 139.577 13.2256 1846 101.532 1261.95 424.975
2814 0 140.671 13.137 1848 102.895 1262.9 417.435
2815 0 147.588 6.44361 951 107.862 1262.17 429.418
2816 0 151.492 9.1094 1380 108.875 1262.12 411.534
2817 0 154.577 13.8184 2136 103.542 1261.68 420.487
2818 1 167.772 17.0529 2861 99.3579 1262.02 423.25
2819 0 166.802 11.2588 1878 108.232 1261.48 409.133
2820 0 171.485 18.3281 3143 100.521 1261.58 412.888
2821 0 170.609 10.6383 1815 111.338 1260.1 405.37
2822 0 172.635 6.58616 1137 115.107 1261.28 411.528
2823 1 268.927 12.7395 3426 112.167 1260.24 369.616
2824 0 277.563 16.2342 4506 108.719 1259.57 364.854
2825 0 277.433 11.0297 3060 114.064 1259.31 369.223
2826 0 277.842 8.74959 2431 113.454 1258.36 385.98
2827 0 277.573 10.0874 2800 109.024 1256.77 402.11
2828 1 217.695 20.1061 4377 103.614 1256.31 386.255
2829 1 8.00421 5.62204 45 89.1778 1256.84 499.022
2830 0 7.00095 4.85648 34 91.0294 1256.15 497.353
2831 0 10.1004 4.45528 45 85.8 1260.24 498.422
2832 1 249.624 14.5499 3632 111.105 1255.81 361.251
2833 0 249.891 9.8843 2470 115.225 1255.63 380.048
2837 0 223.479 12.9945 2904 110.986 1253.72 377.678
2838 0 229.704 14.5535 3343 107.868 1254.03 382.792
2839 0 236.573 18.5693 4393 101.361 1254.44 384.005
2840 0 245.79 15.6516 3847 108.259 1255.01 356.091
2841 0 254.15 10.7456 2731 115.287 1254.83 358.795
2842 0 264.798 12.5794 3331 112.721 1255.21 355.717
2843 0 271.745 12.6773 3445 114.503 1256.41 347.925
2844 0 281.986 14.9085 4204 110.696 1256.62 350.3
2845 0 290.872 17.3753 5054 107.719 1257.2 352.401
2846 1 3 3 9 98.6667 1257.22 484.556
2847 0 9.00593 5.32982 48 90.3125 1259.21 483.521
2848 0 75.3887 12.9197 974 106.495 1258.55 439.413
2849 0 86.4237 15.8059 1366 100.265 1259.7 438.996
2850 0 89.4313 17.1193 1531 98.966 1259.28 438.214
2851 0 91.5883 10.58 969 104.412 1259.67 434.336
2852 0 98.9506 15.7654 1560 95.659 1261.08 439.178
2853 0 98.596 17.6478 1740 92.6431 1261.25 445.836
2854 0 101.277 12.1449 1230 98.1423 1262.08 444.816
2855 0 105.513 12.5767 1327 98.0369 1261.49 440.341
2856 0 109.514 12.866 1409 99.978 1261.12 430.078
2857 0 194.813 9.80425 1910 107.848 1262.91 388.398
2858 0 205.609 18.0731 3716 98.3568 1262.75 398.962
2859 0 207.943 6.23247 1296 106.147 1263.31 422.211
2860 0 207.74 5.81496 1208 106.01 1263.18 427.19
2863 0 382.842 32.7942 12555 88.6932 1262.61 305.776
2864 1 84.7725 18.7561 1590 88.5931 1262.71 462.351
2865 0 82.4999 9.5879 791 99.2288 1262.32 457.398
2866 0 85.567 12.014 1028 97.3833 1261.91 456.058
2867 0 88.4108 9.80649 867 100.134 1261.56 455.729
2868 0 92.5071 19.4039 1795 91.3799 1261.47 455.666
2869 0 97.3889 25.3212 2466 87.4976 1260.25 450.728
2870 0 98.2376 13.8542 1361 98.155 1260.02 448.167
2871 0 96.4922 10.3117 995 103.054 1258.3 449.146
2872 0 100.729 12.2804 1237 100.043 1259.29 452.306
2873 0 103.29 10.6787 1103 99.5403 1257.43 457.285
2874 0 107.62 18.5468 1996 93.5085 1257.57 449.477
2875 0 108.686 18.3373 1993 92.3151 1256.89 456.176
2876 0 111.833 13.9494 1560 99.525 1257.04 433.135
2877 0 117.495 14.3496 1686 98.6684 1256.19 441.262
2878 0 118.255 18.5784 2197 94.6759 1256.17 440.584
2879 0 121.844 15.5198 1891 98.7197 1255.58 431.626
2880 0 125.552 11.3897 1430 103.287 1255.3 427.823
2881 0 127.485 12.3701 1577 102.657 1255.35 424.842
2882 0 132.418 10.5197 1393 104.337 1255.41 428.515
2883 0 134.745 10.056 1355 106.588 1254.3 418.798
2884 0 137.433 10.2596 1410 106.982 1256.57 406.889
2885 0 140.697 11.2441 1582 105.308 1256.95 422.814
2886 0 143.462 8.58066 1231 110.412 1256.8 401.685
2887 0 149.581 12.9161 1932 104.188 1257.63 415.351
2888 0 159.515 13.3091 2123 103.355 1257.8 415.281
2889 0 160.419 8.62741 1384 111.356 1257.92 405.65
2890 1 93.1982 8.10101 755 106.072 1258.74 435.216
2891 0 99.6458 9.59398 956 103.802 1259.55 438.435
2892 0 102.27 12.1248 1240 100.841 1258.8 437.131
2893 0 105.188 15.458 1626 97.0726 1260.15 435.155
2894 0 106.408 10.3376 1100 104.236 1260.1 427.228
2895 0 110.428 13.9004 1535 100.278 1261.35 436.807
2896 0 117.311 14.7897 1735 98.381 1262.12 431.922
2897 0 116.436 15.5364 1809 97.1493 1262.16 436.191
2898 0 120.585 12.9867 1566 101.383 1262.56 425.575
2899 0 123.816 10.1845 1261 105.194 1263.12 427.815
2900 0 127.731 13.1761 1683 102.781 1263.33 419.83
2901 0 131.708 14.9117 1964 99.3666 1263.66 430.83
2902 0 132.891 10.4597 1390 105.088 1262.88 428.635
2903 0 136.543 11.3664 1552 105.524 1264.26 424.956
2904 0 140.763 15.1957 2139 101.66 1263.79 424.623
2905 0 146.809 11.4911 1687 105.703 1262.47 418.122
2906 0 150.783 14.3583 2165 101.465 1262.99 422.888
2907 1 219.717 14.4049 3165 104.439 1262.2 386.758
2908 0 224.935 15.0666 3389 103.51 1262.47 394.311
2909 1 162.877 16.0183 2609 101.298 1262.24 420.345
2910 0 168.552 13.3964 2258 105.632 1262.05 415.528
2911 0 173.583 16.4532 2856 102.302 1261.15 416.527
2912 0 177.635 17.9357 3186 101.266 1261.59 411.334
2913 0 182.766 10.9868 2008 109.728 1260.44 408.195
2914 0 187.688 12.0359 2259 108.452 1259.36 410.617
2915 0 196.539 11.3921 2239 109.728 1259.27 400.355
2916 0 199.877 12.4477 2488 109.68 1258.09 398.397
2917 1 16.1149 11.1077 179 83.6872 1258.41 489.33
2918 0 9.00202 6.10974 55 89.3091 1254.44 487.455
2919 0 15.0093 7.79518 117 87.359 1254.94 488.487
2920 0 11.0168 2.63234 29 95.7931 1254.69 487.448
2921 0 14.0088 5.92486 83 89.2892 1255.54 487.048
2922 0 16.0092 6.99597 112 87.125 1256.2 485.125
2923 0 7.00388 6.71057 47 88.8936 1258.91 483.213
2924 0 5 6.6 33 87.4545 1257.64 482
2925 0 9.00558 4.21961 38 90.5526 1254.87 480.816
2926 0 10.0191 7.18629 72 86.2639 1254.93 482.986
2927 0 17.0134 4.58461 78 94.8077 1255.13 486
2928 0 17.0074 6.93814 118 93.1102 1257.02 484.22
2929 0 19.0718 10.7488 205 88.5707 1256.9 484.605
2930 1 73.1852 11.5734 847 102.424 1258.51 451.152
2931 0 79.2285 9.75659 773 102.661 1259.24 456.523
2932 0 79.1785 11.6067 919 103.21 1259.07 447.249
2933 0 79.1708 9.25846 733 105.121 1259.88 442.216
2934 0 82.218 10.6789 878 100.794 1259.86 446.852
2935 0 84.1734 10.8229 911 99.4599 1260.58 452.665
2936 0 86.1539 9.65714 832 103.273 1261.34 441.929
2937 1 37.3522 6.1576 230 98.9652 1260.94 474.987
2938 0 39.0337 9.68393 378 94.0079 1260.97 473.577
2939 0 39.0537 8.09143 316 96.5095 1262.91 473.098
2940 0 38.0578 13.0591 497 91.6821 1263.07 469.441
2941 0 40.0689 8.08607 324 95.3457 1264.33 474.645
2942 0 41.2363 9.43343 389 93.1234 1264.54 474.599
2943 0 41.3264 10.647 440 92.6977 1265.74 475.952
2944 0 45.0877 10.7125 483 92.5735 1265.81 474.513
2945 0 43.2555 8.36888 362 94.7597 1266.07 476.865
2946 0 44.1659 9.41904 416 92.3582 1265.19 480.724
2947 0 43.5634 9.31976 406 95.0837 1265.07 476.03
2948 0 47.4361 11.3627 539 90.1596 1265.11 480.69
2949 0 44.2278 10.0842 446 92.8386 1262.22 478.334
2950 0 45.076 8.5855 387 94.6305 1261.7 481.323
2951 0 46.0888 13.0618 602 89.8787 1262.12 478.448
2952 0 46.0665 8.05357 371 95.5445 1261.9 476.79
2953 0 45.1234 12.6099 569 89.5905 1261.36 482.807
2954 0 46.1514 10.8339 500 92.414 1261.56 481.082
2955 0 52.2509 10.2773 537 89.4804 1259.24 480.307
2956 0 45.131 7.2899 329 94.2432 1260.41 477.374
2957 0 42.0889 15.4435 650 83.9308 1259.12 478.358
2958 0 46.3735 6.51234 302 93.5728 1258.9 476.745
2959 0 46.2255 6.05726 280 93.2964 1256.94 476.989
2960 0 46.2321 8.00309 370 92.2568 1257.39 477.192
2961 0 44.1043 5.10155 225 97.5911 1256.6 474.622
2962 0 47.0902 11.0214 519 91.0501 1256.84 473.27
2963 0 49.1145 9.83416 483 91.1739 1256.7 475.242
2964 0 51.0439 9.89344 505 92.105 1255.95 471.602
2965 0 49.1586 12.5309 616 89.7825 1254.98 471.847
2966 0 50.2012 7.4301 373 94.5416 1255.87 474.024
2967 0 52.5743 16.3578 860 86.564 1256.09 468.19
2968 0 51.1824 7.28766 373 94.7265 1256.29 468.477
2969 0 50.0586 6.73212 337 94.7507 1256.16 464.35
2970 0 50.3219 8.32639 419 93.7948 1255.96 464.642
2971 0 50.1718 5.4413 273 95.6667 1257.31 456.934
2972 0 52.071 12.2717 639 89.9264 1257.68 457.723
2973 0 54.3331 10.3988 565 92.354 1257.79 464.919
2974 0 57.153 14.3125 818 89.9108 1258.2 467.467
2975 0 59.8359 13.3699 800 93.81 1259.51 462.909
2976 0 55.3835 9.06406 502 100.155 1261.1 466.582
2977 0 57.5521 10.408 599 98.7947 1260.74 464.175
2978 0 57.3245 12.0542 691 97.2851 1262.35 466.726
2979 0 57.6664 8.11565 468 103.16 1261.19 463.483
2980 0 56.3533 11.8715 669 98.9522 1261.57 463.583
2981 0 60.533 14.3558 869 95.2532 1263.23 468.644
2982 0 60.3744 11.9256 720 99.0528 1263.02 465.326
2983 0 60.2179 11.0931 668 100.237 1265.25 467.334
2984 0 60.4562 11.6283 703 100.385 1263.92 465.612
2985 0 62.4344 12.7974 799 98.2653 1265.45 467.672
2986 0 61.3185 14.5959 895 96.4592 1264.72 469.522
2987 0 60.4285 11.6501 704 100.966 1265.41 472.29
2988 0 58.2231 10.0647 586 104.34 1264.68 471.399
2989 0 61.3816 14.304 878 97.1856 1264.52 473.183
2990 0 61.3179 8.38254 514 106.784 1265.19 473.047
2991 0 54.5624 10.4651 571 105.315 1264.54 474.926
2992 0 62.5073 9.63088 602 105.125 1264.02 475.664
2993 0 58.5436 12.1448 711 102.433 1263.56 477.392
2994 0 58.2985 10.3262 602 104.973 1263.57 481.35
2995 0 64.6713 15.169 981 97.0173 1263.02 472.752
2996 0 58.2105 10.8056 629 106.205 1262.99 477.956
2997 0 66.3763 9.46121 628 106.478 1262.37 477.091
