time division length width area intensity CMx CMy
0 0 54.056 19.7203 1066 115.227 1345.16 465.741
1 0 57.054 26.1156 1490 104.814 1344.49 463.917
2 0 58.0645 17.8939 1039 112.77 1343.93 467.616
3 0 51.0362 14.6954 750 123.925 1343 467.011
4 0 57.055 18.8064 1073 118.547 1342.42 467.09
5 0 61.0988 18.1673 1110 116.691 1340.92 468.263
6 0 59.1079 18.7792 1110 118.45 1339.8 466.044
7 0 59.1079 18.7792 1110 141.579 1338.8 466.044
8 0 61.128 16.8008 1027 121.988 1339.65 466.289
9 0 61.1003 16.3011 996 124.485 1338.58 464.137
10 0 64.0555 14.5187 930 126.369 1337.37 464.031
11 0 65.2242 14.5651 950 127.972 1336.91 461.647
12 1 36.0145 15.7159 566 120.91 1337.23 477.442
13 0 39.0286 13.7079 535 123.245 1336.59 474.234
14 0 41.153 14.8227 610 121.472 1336.89 473.987
15 0 40.0582 15.802 633 122.926 1336.6 470.548
16 0 40.036 14.6618 587 124.329 1336.97 469.462
17 0 41.0133 14.3612 589 122.915 1336.34 467.09
18 0 45.0859 14.6609 661 127.07 1336.34 465.87
19 0 47.1156 16.0457 756 121.786 1335.21 462.507
20 0 47.0551 14.7274 693 125.078 1336.96 463.619
21 0 48.0781 15.8492 762 123.356 1337.43 461.451
22 0 50.2567 15.4805 778 122.711 1336.95 462.159
23 0 52.0757 18.8764 983 117.771 1337.94 462.845
24 0 55.1779 15.6584 864 123.278 1338.42 461.137
25 0 52.1392 12.6968 662 131.994 1338.84 455.391
26 0 58.1094 15.1611 881 123.233 1339.75 456.169
27 0 58.1226 15.8114 919 124.514 1339.71 454.695
28 0 60.1705 15.1403 911 122.217 1340.86 456.397
29 0 62.0791 15.8507 984 120.354 1341.8 453.522
30 0 63.0354 13.2624 836 128.187 1341.67 450.615
31 0 67.1331 15.9981 1074 120.252 1343.5 452.608
32 0 71.222 16.8487 1200 118.052 1344.27 451.05
33 0 68.1027 14.9333 1017 121.28 1345.09 450.132
34 0 73.1166 16.672 1219 118.547 1345.91 448.051
35 0 74.0765 16.9285 1254 118.93 1345.92 450.036
36 0 77.195 15.1176 1167 120.825 1347.47 447.009
37 0 81.1351 17.8591 1449 113.542 1347.38 448.808
38 0 81.1369 13.1753 1069 121.839 1347.57 446.682
39 1 42.0334 12.8231 539 119.106 1346.93 466.625
40 0 44.102 12.131 535 116.176 1347.18 468.422
41 0 46.0759 11.1555 514 122.056 1347.19 468.739
42 0 48.1387 14.9775 721 112.655 1347.12 467.936
43 0 51.0486 17.7478 906 107.236 1347.36 470.162
44 0 51.1305 13.7491 703 120.265 1345.65 467.021
45 0 52.2125 14.192 741 129.08 1345.78 468.962
46 0 56.1097 15.4875 869 123.568 1346.27 469.001
47 0 58.1481 13.414 780 129.986 1344.72 468.806
48 0 57.1949 13.0256 745 132.572 1343.08 467.643
49 0 60.0515 13.0388 783 128.425 1343.69 465.977
50 0 64.0615 16.5778 1062 122.766 1341.92 466.948
51 0 64.0615 16.4998 1057 148.266 1339.89 466.93
52 0 68.2052 16.2744 1110 123.314 1339.87 459.607
53 0 69.143 14.7231 1018 126.8 1339.44 460.971
54 0 74.1273 15.9051 1179 121.524 1338.01 463.821
55 0 74.1026 13.8996 1030 128.371 1338.66 458.36
56 0 77.1878 14.8987 1150 125.873 1338.92 456.745
57 0 80.2079 12.4427 998 131.588 1337.53 453.573
58 0 85.1422 14.3525 1222 125.732 1337.32 454.23
59 0 87.38 14.7173 1286 124.098 1338.99 455.888
60 0 90.296 13.9763 1262 126.993 1337.68 449.033
61 0 89.204 12.7012 1133 130.314 1336.99 444.087
62 0 94.3616 14.7412 1391 125.296 1337.22 443.804
63 0 95.5283 14.0587 1343 125.077 1337.97 446.567
64 0 102.233 15.3081 1565 123.456 1337.02 438.597
65 1 53.3603 10.2511 547 128.115 1338.31 461.494
66 0 55.1044 13.2839 732 122.398 1338.03 459.206
67 0 56.1863 13.0637 734 123.554 1338.59 454.702
68 0 62.2344 13.417 835 121.099 1339.54 459.655
69 0 62.1725 13.8486 861 123.419 1339.3 452.524
70 0 63.1404 12.7494 805 125.463 1339.65 452.819
71 0 67.2515 12.4607 838 124.927 1340.85 453.635
72 0 70.1874 16.0713 1128 118.006 1341.15 453.348
73 0 71.285 12.5973 898 125.12 1341.63 451.579
74 0 74.155 14.6045 1083 123.334 1342.32 446.834
75 0 79.1726 16.4324 1301 118.994 1343.07 449.525
76 0 79.1726 16.4324 1301 139.948 1343.07 449.498
77 0 81.2252 14.6752 1192 124.095 1344.08 444.226
78 0 83.3232 13.6217 1135 127.289 1344.87 444.536
79 0 86.2242 15.8888 1370 122.978 1346.54 440.58
80 0 86.2152 15.8789 1369 123.894 1348.55 440.593
81 0 93.3196 13.2662 1238 126.398 1347.26 441.69
82 1 48.3256 11.05 534 126.869 1346.4 467.485
83 0 51.0994 12.3289 630 124.527 1346.21 465.616
84 0 54.0873 14.1438 765 121.085 1345.65 466.184
85 0 56.2123 14.3207 805 121.801 1346.36 466.201
86 0 56.1175 13.543 760 122.82 1345.45 467.936
87 0 60.185 16.6321 1001 116.898 1345.51 466.61
88 0 60.185 16.5656 997 133.762 1345.5 466.557
89 0 62.0358 14.943 927 119.732 1345.3 468.607
90 0 65.1035 14.3003 931 121.712 1344.51 465.855
91 0 66.1275 15.6667 1036 119.239 1344.05 466.145
92 0 70.3374 17.2597 1214 116.007 1343.42 465.455
93 0 70.3498 13.5324 952 123.317 1342.85 464.029
94 0 73.1554 13.5192 989 122.844 1341.4 463.154
95 0 76.2658 16.9408 1292 116.959 1339.8 461.844
96 0 78.3314 14.4004 1128 122.039 1340.42 459.338
97 0 79.3168 15.5074 1230 119.002 1339.95 458.718
98 1 163.373 15.7248 2569 121.674 1338.73 418.59
99 0 172.727 23.32 4028 108.734 1338.1 418.909
100 0 172.709 23.3051 4025 130.25 1338.1 419.123
101 1 136.48 12.2069 1666 129.614 1336.65 428.873
102 0 142.521 13.7173 1955 124.173 1335.57 427.312
103 1 52.2069 12.6803 662 125.512 1336.35 462.615
104 0 54.1633 12.5177 678 125.115 1336.26 466.122
105 0 61.3025 14.5997 895 119.787 1336.66 460.583
106 0 60.1846 12.578 757 125.26 1336.89 457.955
107 0 63.2302 15.7045 993 120.434 1337.06 457.71
108 0 64.0761 15.8405 1015 120.894 1337.53 456.44
109 0 69.2305 15.8601 1098 119.375 1337.31 455.173
110 0 68.109 13.3609 910 125.076 1338.32 454.832
111 0 73.314 15.986 1172 119.344 1338.63 451.788
112 0 72.2202 12.725 919 125.109 1339.95 451.149
113 0 77.2946 17.5303 1355 114.326 1340.32 447.02
114 0 79.3877 14.7756 1173 119.965 1340.94 445.483
115 0 80.2064 12.979 1041 122.859 1341.48 448.556
116 0 83.3357 15.2516 1271 120.791 1341.48 443.164
117 0 88.2998 15.9457 1408 118.653 1342.48 443.161
118 0 88.2424 14.0295 1238 123.097 1342.64 444.711
119 0 93.1444 15.6209 1455 119.531 1342.75 441.98
120 0 95.1573 21.2595 2023 110.055 1343.57 441.395
121 0 99.2373 16.2338 1611 118.147 1344.76 440.167
122 1 43.0364 11.5484 497 121.028 1345.27 467.06
123 0 45.1354 12.8502 580 120.469 1345.36 465.41
124 0 46.1353 13.5254 624 118.401 1345.43 467.095
125 0 49.2032 11.361 559 123.202 1345.36 465.97
126 0 50.1109 11.9934 601 122.468 1345.44 464.496
127 0 50.0713 12.4622 624 121.202 1344.74 467.947
128 0 53.0861 12.9789 689 121.237 1345.6 466.141
129 0 57.1148 13.6042 777 118.718 1344.41 466.613
130 0 57.066 16.9803 969 113.328 1344.16 467.414
131 0 55.1913 13.5347 747 121.124 1343.81 467.126
132 0 61.143 14.0163 857 119.397 1344.35 468.853
133 0 62.0428 14.4416 896 118.991 1343.19 468.517
134 0 63.0974 12.9165 815 122.452 1341.98 466.758
135 0 63.0752 11.732 740 125.451 1342.22 466.482
136 0 68.2112 16.317 1113 116.297 1340.88 465.085
137 0 69.0285 12.9367 893 123.325 1341.65 465.932
138 0 72.0864 15.3566 1107 119.585 1340.1 465.508
139 0 73.0894 18.2653 1335 114.927 1339.85 461.907
140 0 79.1256 15.191 1202 118.846 1338.37 462.324
141 0 76.1246 13.2809 1011 124.202 1337.18 461.09
142 0 82.1604 15.701 1290 118.344 1336.98 458.016
143 1 42.128 10.9429 461 124.69 1336.58 476.976
144 0 44.1617 13.2921 587 120.007 1335.87 475.731
145 0 44.1617 13.2015 583 139.888 1335.89 475.732
146 0 45.1865 11.6628 527 122.027 1334.32 472.725
147 0 49.0926 14.4013 707 118.751 1335 471.109
148 0 50.0607 12.4249 622 123.389 1335.11 470.571
149 0 52.0771 13.9601 727 121.594 1334.43 468.336
150 0 52.06 13.35 695 124.265 1335.01 465.176
151 0 53.1493 11.1949 595 127.629 1335.14 465.212
152 0 55.1028 13.1391 724 123.372 1335.5 461.782
153 0 57.1309 13.0402 745 123.807 1335.21 459.246
154 0 59.0814 13.3206 787 121.668 1335.13 460.555
155 0 63.1772 12.8053 809 122.551 1336.04 456.145
156 0 64.1444 15.091 968 119.786 1337.58 453.37
157 0 66.1121 12.6452 836 123.783 1337.16 452.962
158 0 69.3906 12.9268 897 121.657 1338.86 454.245
159 0 71.2133 14.1266 1006 119.435 1339.2 453.909
160 0 72.1607 15.3823 1110 117.196 1339.77 449.575
161 0 75.3002 13.4661 1014 120.062 1341.25 447.869
162 0 79.6414 14.2137 1132 117.918 1341.2 446.792
163 0 79.2655 11.657 924 122.238 1342.67 448.628
164 0 82.5316 15.8969 1312 113.888 1343.09 447.938
165 0 86.4484 15.489 1339 115.316 1343.68 443.165
166 1 46.348 12.1904 565 118.287 1344.08 466.266
167 0 47.1487 11.4956 542 121.9 1344.61 464.02
168 0 49.1109 12.7874 628 118.917 1343.53 465.646
169 0 51.0406 13.2052 674 117.282 1344.31 467.853
170 0 53.1605 12.1143 644 119.947 1344.07 467.292
171 0 54.1464 12.1707 659 121.02 1343.84 466.196
172 0 55.2112 10.5232 581 122.91 1344.35 470.484
173 0 58.0915 13.3066 773 120.321 1343.39 468.607
174 0 59.1562 10.9202 646 125.314 1343.81 468.93
175 0 63.2282 12.7158 804 121.286 1343.68 466.026
176 0 65.2517 15.218 993 116.923 1342.59 467.863
177 1 35.0399 9.84591 345 123.183 1342.91 482.354
178 0 35.0399 11.0445 387 140.649 1343.89 481.525
179 0 38.0974 12.3893 472 116.081 1341.07 484.771
180 0 36.0918 10.5287 380 123.639 1339.65 482.555
181 0 40.0253 13.1667 527 116.529 1337.84 481.355
182 0 40.0533 12.3585 495 119.459 1337.56 479.184
183 0 43.0208 12.7845 550 118.353 1336.9 478.935
184 0 43.0208 12.7613 549 136.971 1335.92 478.934
185 0 46.064 15.9778 736 112.84 1336.36 475.44
186 0 46.0164 12.4955 575 121.127 1336.21 475.923
187 0 49.1462 14.0194 689 118.016 1334.62 473.685
188 0 49.024 13.4016 657 119.072 1335.21 471.621
189 0 50.1277 11.1914 561 122.369 1334.99 472.663
190 0 51.026 12.4642 636 122.303 1334.8 469.392
191 0 54.0836 13.2203 715 118.787 1334.56 471.936
192 0 57.1247 16.4377 939 113.946 1335.09 469.972
193 0 57.0244 15.2742 871 119.41 1334.48 462.493
194 0 61.1655 16.5616 1013 114.844 1334.92 461.421
195 0 61.0502 15.1678 926 119.269 1334.77 460.837
196 0 62.0244 13.2045 819 123.789 1335.15 459.613
197 0 62.0244 13.2367 821 150.586 1335.13 459.619
198 0 68.0369 13.4045 912 118.944 1334.55 457.024
199 0 69.0985 15.326 1059 117.091 1335.98 453.471
200 0 69.0985 15.2825 1056 134.365 1338 453.53
201 0 72.1119 14.5468 1049 116.122 1336.54 453.496
202 0 75.0878 12.7051 954 119.638 1336.63 452.516
203 0 79.06 15.1783 1200 115.463 1338.94 449.912
204 0 81.2407 15.411 1252 116.042 1338.4 447.888
205 1 43.0347 12.4086 534 117.717 1338.91 466.633
206 0 47.4731 14.1975 674 110.694 1340.33 471.206
207 0 43.1206 9.87928 426 122.033 1340.42 470.413
208 0 47.0165 14.7182 692 114.22 1341.71 465.736
209 0 47.0457 13.9226 655 114.991 1342.1 467.232
210 0 47.0761 11.4283 538 119.665 1341.2 469.214
211 0 49.0549 12.2516 601 117.296 1343.35 470.131
212 0 51.1084 11.9745 612 117.544 1343.15 471.355
213 0 54.1464 12.9648 702 116.852 1342.71 469.568
214 0 55.0657 13.1661 725 115.239 1343.79 470.411
215 0 55.0411 11.8275 651 117.966 1343.48 471.419
216 0 57.0357 12.4308 709 117.498 1342.76 469.315
217 0 61.0366 15.5972 952 111.45 1342.3 470.756
218 0 61.0769 13.1637 804 116.113 1342.02 472.262
219 0 63.0347 13.5957 857 115.184 1341.37 472.662
220 0 65.178 12.673 826 117.065 1339.79 470.472
221 0 67.1045 15.1853 1019 114.611 1339.31 468.925
222 0 70.1274 12.9336 907 117.722 1338.97 471.498
223 0 73.2627 14.0863 1032 116.452 1337.44 469.999
224 0 77.1342 16.1537 1246 112.623 1336.76 465.432
225 0 77.0926 15.7992 1218 113.789 1335.25 463.276
226 0 84.0998 19.7504 1661 105.382 1334.89 463.24
227 0 83.15 16.8851 1404 110.116 1333.69 464.637
228 0 84.4469 12.2325 1033 117.703 1333.57 458.198
229 1 48.0773 11.5439 555 115.897 1332.8 481.701
230 0 49.067 12.6766 622 114.981 1332.9 480.834
231 0 50.1307 14.8213 743 111.261 1332.06 475.55
232 0 54.0321 16.9344 915 109.431 1331.75 474.591
233 0 53.036 12.3124 653 119.271 1331.67 471.286
234 0 55.0822 12.4178 684 119.573 1330.97 469.437
235 0 57.1036 15.7433 899 115.002 1332.28 466.809
236 0 60.1154 15.2207 915 116.362 1331.58 465.346
237 0 61.1765 17.2452 1055 113.409 1331.92 461.248
238 0 62.1444 13.9514 867 120.606 1331.16 460.446
239 0 65.1619 15.6994 1023 118.668 1331.87 458.835
240 0 67.1212 13.349 896 123.427 1333.44 456.16
241 0 70.1346 16.9246 1187 116.864 1333.04 455.04
242 0 71.1407 14.633 1041 121.9 1334.06 456.997
243 0 71.1407 14.6189 1040 141.317 1335.04 457.132
244 0 76.3263 15.3158 1169 120.95 1334.43 455.284
245 0 78.2542 16.6381 1302 119.327 1336.12 449.77
246 1 44.2681 13.5764 601 122.27 1335.99 468.088
247 0 45.1863 13.2341 598 124.831 1336.53 464.774
248 0 47.1304 13.452 634 125.511 1336.7 466.23
249 0 48.1098 13.7602 662 126.491 1337.18 465.944
250 0 51.12 16.1776 827 121.404 1337.74 464.29
251 0 51.3092 13.5064 693 127.9 1338.71 464.038
252 0 54.0313 17.0827 923 119.061 1339.72 465.567
253 0 56.1567 17.0594 958 118.492 1341.1 467.278
254 0 56.1567 17.2197 967 143.028 1342.11 467.405
255 0 59.1968 13.9197 824 125.187 1340.58 464.835
256 0 59.0685 14.5763 861 124.792 1341.15 466.834
257 0 60.1971 12.5754 757 126.947 1341.64 467.321
258 0 64.1136 13.6009 872 124.61 1341.43 465.934
259 0 67.2614 16.0716 1081 118.82 1341.65 465.262
260 0 69.1858 14.1358 978 124.379 1340.59 464.21
261 0 72.13 15.5553 1122 121.463 1340.72 464.395
262 0 73.1463 12.8236 938 127.516 1339.98 466.907
263 0 75.197 13.724 1032 125.675 1339.76 463.493
264 0 80.0846 13.3983 1073 125.155 1340.68 466.085
265 0 83.1179 15.2554 1268 122.37 1340.24 462.636
266 1 43.0512 12.4038 534 126.258 1338.84 479.989
267 0 45.1387 12.8493 580 124.497 1337.78 480.884
268 0 46.1547 11.5914 535 126.521 1336.97 480.469
269 0 47.0472 12.5831 592 126.03 1335.61 477.385
270 0 50.0388 14.2489 713 123.684 1334.21 476.778
271 0 52.132 13.6193 710 124.859 1334.69 475.218
272 0 55.0511 13.9688 769 124.322 1333.74 474.299
273 0 56.0924 13.1925 740 124.58 1332.97 475.773
274 0 58.0663 13.7946 801 124.182 1333.05 471.551
275 0 57.1434 12.2324 699 127.997 1332.16 470.752
276 0 61.1282 13.4308 821 125.52 1331.33 468.44
277 0 63.1992 13.1014 828 125.523 1331.17 465.572
278 0 65.196 13.5898 886 125.314 1331.45 460.632
279 0 66.0511 16.6841 1102 119.642 1332.31 457.44
280 0 68.1643 14.0836 960 123.928 1332.25 460.255
281 0 71.2237 15.4724 1102 120.893 1332.48 457.706
282 0 73.2192 14.1493 1036 122.792 1332.83 456.159
283 0 76.1744 13.8629 1056 122.587 1332.75 455.67
284 0 79.1644 13.4909 1068 122.967 1333.77 451.071
285 0 80.1271 12.0059 962 124.992 1333.07 453.152
286 0 85.1397 15.0928 1285 119.458 1334.25 448.22
287 0 88.1763 13.0874 1154 123.262 1335.45 446.359
288 1 48.0846 13.497 649 116.145 1334.91 466.676
289 0 47.1088 11.1656 526 122.283 1337.26 466.257
290 0 49.1304 14.3089 703 116.956 1337.77 463.057
291 0 52.0618 15.8081 823 112.844 1337.88 461.075
292 0 50.1501 12.4825 626 121.128 1338.49 462.602
293 0 54.0657 12.1704 658 120.295 1340.02 462.804
294 0 56.0732 12.9474 726 119.003 1340.67 459.474
295 0 60.2594 15.3005 922 112.155 1342.1 464.013
296 0 60.1108 14.7228 885 115.41 1341.98 460.71
297 0 61.1715 12.3914 758 118.976 1344.05 463.051
298 0 61.1715 12.375 757 148.985 1346.08 463.107
299 0 65.1635 14.0569 916 117.221 1343.1 460.579
300 0 66.1072 14.9454 988 115.874 1343.21 460.132
301 0 70.1812 14.1063 990 117.475 1343.02 463.292
302 0 73.193 16.8869 1236 112.211 1342.54 460.493
303 0 76.2861 14.5112 1107 115.16 1342.32 461.858
304 0 77.1288 15.7529 1215 113.258 1342.68 461.631
305 0 77.1508 15.8521 1223 135.025 1342.68 461.57
306 0 83.1726 18.2031 1514 109.508 1341.84 460.67
307 1 48.2414 15.9407 769 107.454 1341.21 480.858
308 0 48.0806 13.727 660 112.18 1341.02 478.108
309 0 48.0658 14.3345 689 112.218 1339.91 476.897
310 0 51.1964 14.044 719 111.8 1339.68 476.346
311 0 52.1124 15.0252 783 110.645 1336.88 470.913
312 0 53.0664 12.5692 667 114.864 1336.89 474.334
313 0 55.1089 13.4642 742 113.472 1336.33 471.868
314 0 55.1089 13.5368 746 133.623 1335.34 471.772
315 0 57.1909 13.0266 745 114.133 1335.27 468.193
316 0 59.111 14.1429 836 112.328 1335.31 468.769
317 0 62.0932 14.0434 872 112.283 1334.43 464.98
318 0 62.0932 13.9146 864 137.473 1333.42 464.977
319 0 66.1035 15.4001 1018 110.161 1332.48 462.477
320 0 68.077 17.2599 1175 107.154 1332.03 460.5
321 0 71.1529 17.3289 1233 105.495 1332.59 462.56
322 0 71.0996 14.0788 1001 113.045 1332.91 453.557
323 0 75.0884 14.5828 1095 111.372 1332.23 453.609
324 0 75.2936 12.3251 928 115.811 1332.31 450.46
325 0 80.0703 13.5756 1087 113.797 1333.03 448.207
326 0 82.2375 19.6626 1617 104.048 1332.86 448.508
327 0 83.378 12.5093 1043 114.931 1333.82 443.889
328 1 47.2345 12.6391 597 112.658 1333.56 462.896
329 0 47.2345 12.7026 600 139.62 1333.56 462.917
330 0 48.1291 12.695 611 113.141 1334.89 459.905
331 0 53.0906 16.2741 864 105.338 1336.07 460.199
332 0 52.4325 14.4948 760 109.55 1337.93 458.383
333 0 52.4325 14.4376 757 137.152 1338.93 458.292
334 0 55.3448 11.8168 654 113.468 1339.1 457.735
335 0 59.1059 14.6855 868 108.918 1339.9 457.449
336 0 59.3384 14.1055 837 109.557 1340.3 457.286
337 0 63.2142 13.1458 831 110.025 1340.02 457.231
338 0 65.3098 16.6744 1089 105.189 1341.13 455.987
339 0 65.1642 15.2691 995 109.062 1342.3 453.434
340 0 70.1705 16.7449 1175 106.265 1343.14 452.327
341 0 72.0976 22.1367 1596 98.4029 1342.61 457.573
342 0 74.1043 13.481 999 109.652 1343.76 456.397
343 0 79.1783 14.2337 1127 109.465 1343.83 451.33
344 0 81.2001 18.8423 1530 102.908 1343.94 453.167
345 0 85.2288 12.707 1083 110.407 1344.96 455.216
346 0 85.2288 12.7187 1084 138.943 1346.97 455.304
347 0 90.1169 15.4244 1390 107.486 1343.65 451.569
348 0 94.2105 15.476 1458 106.047 1343.65 447.342
349 0 96.2074 16.5164 1589 103.905 1343.54 452.054
350 0 102.501 25.1411 2577 93.8017 1342.96 447.268
351 0 104.309 14.1407 1475 107.152 1343.25 446.179
352 0 107.316 14.7228 1580 108.599 1342 447.656
353 0 111.307 14.4286 1606 108.453 1341.37 450.872
354 0 115.269 11.972 1380 113.274 1341.06 445.371
355 1 61.2817 11.8796 728 110.923 1339.26 472.232
356 0 62.3326 13.1231 818 110.433 1339.58 469.506
357 0 64.2181 13.1116 842 110.362 1338.94 469.692
358 0 67.3172 13.9786 941 110.591 1339.03 466.983
359 0 68.0662 14.6916 1000 110.014 1337.4 463.609
360 0 71.1182 13.9486 992 110.641 1337.84 465.454
361 0 74.1494 15.4148 1143 109.34 1336.38 455.242
362 0 75.2782 15.011 1130 109.805 1336.73 459.344
363 0 82.7768 18.4472 1527 102.896 1336.21 455.118
364 0 82.3949 14.4305 1189 111.34 1335.98 448.606
365 0 88.3428 17.5227 1548 106.202 1335.93 448.3
366 0 88.3026 13.2386 1169 114.565 1335.99 444.445
367 0 88.3026 13.2386 1169 135.581 1336.99 444.445
368 0 98.6319 15.3703 1516 108.464 1335.37 443.1
369 1 51.4207 10.8905 560 118.259 1335.83 458.796
370 0 51.4207 10.8711 559 143.216 1336.84 458.955
371 0 57.1762 13.1523 752 113.328 1337.05 458.36
372 0 60.1518 13.2664 798 114.148 1336.95 457.539
373 0 61.097 14.567 890 112.455 1337.35 459.182
374 0 63.3515 17.0793 1082 107.616 1337.9 458.338
375 0 64.1536 17.9101 1149 108.178 1338.42 454.891
376 0 65.0886 15.21 990 113.281 1338.36 453.16
377 0 68.0799 15.2909 1041 112.877 1340.03 452.832
378 0 72.2105 16.3273 1179 110.849 1339.92 450.969
379 0 71.2284 14.1376 1007 114.446 1341.12 449.642
380 0 75.4669 15.954 1204 110.894 1341.57 442.823
381 0 79.4045 17.3542 1378 106.377 1342.85 447.835
382 0 79.4045 17.3164 1375 134.084 1343.84 447.793
383 0 82.4834 14.4999 1196 112.117 1345.05 441.589
384 0 88.5983 16.8513 1493 107.762 1344.3 441.307
385 0 89.2376 14.6015 1303 112.804 1344.47 439.657
386 0 92.5019 16.7348 1548 108.275 1345.49 442.638
387 1 50.4744 12.0259 607 114.684 1345.33 465.43
388 0 50.1174 12.0716 605 114.699 1345.44 465.863
389 0 52.4021 12.7667 669 113.265 1344.71 466.106
390 0 54.2476 15.6873 851 109.68 1344.69 465.548
391 0 57.2406 15.4436 884 110.575 1344.98 466.117
392 0 58.4535 11.3595 664 116.893 1344.58 468.185
393 0 61.3342 14.3313 879 112.382 1344.26 466.253
394 0 63.2599 13.7212 868 112.904 1343.98 467.562
395 0 64.3106 15.4562 994 110.756 1342.5 465.866
396 0 67.195 15.775 1060 107.298 1342.67 471.651
397 0 71.5388 18.3676 1314 105.669 1342.09 463.761
398 0 73.2586 14.674 1075 111.208 1339.91 464.296
399 0 74.3541 14.3637 1068 111.535 1339.66 459.499
400 0 76.4961 14.6674 1122 111.647 1339.81 456.389
401 0 80.5608 16.0748 1295 109.523 1339.38 460.79
402 0 81.1819 12.3427 1002 117.877 1338.25 456.97
403 0 85.7027 14.1653 1214 115.408 1337.92 454.914
404 0 88.5127 22.3245 1976 103.798 1337.12 452.579
405 0 90.3498 15.7056 1419 115.144 1336.91 449.001
406 1 48.1587 11.5036 554 121.377 1335.43 468.26
407 0 50.0807 13.8776 695 116.584 1335.15 462.413
408 0 51.2201 14.057 720 116.651 1335.19 462.001
409 0 50.3178 13.7128 690 118.194 1335.99 464.309
410 0 57.3363 15.1388 868 113.227 1335.96 463.127
411 0 56.1838 14.2034 798 117.46 1334.8 461.709
412 0 58.096 13.2367 769 118.886 1335.72 459.039
413 0 59.2874 14.0671 834 117.403 1336.12 455.775
414 0 63.3977 13.3916 849 116.426 1336.12 458.793
415 0 65.2954 17.2906 1129 110.169 1336.32 455.945
416 0 69.3668 16.0019 1110 111.308 1337.63 454.015
417 0 69.3668 16.1172 1118 144.548 1338.63 454.023
418 0 73.2105 13.6729 1001 115.435 1337.97 448.134
419 0 76.2633 16.2594 1240 110.372 1339.86 447.831
420 0 77.2961 14.4897 1120 112.799 1340.13 444.219
421 0 81.472 14.0907 1148 112.948 1341.1 442.064
422 0 83.4918 14.8997 1244 110.811 1341.86 438.915
423 0 87.6599 14.9783 1313 109.635 1342.7 435.634
424 0 91.4273 14.9299 1365 109.077 1343.2 439.968
425 0 90.322 15.4005 1391 109.779 1344.39 436.457
426 0 98.4788 18.6538 1837 103.276 1344.85 436.577
427 0 98.3256 15.53 1527 107.344 1346.44 435.629
428 0 104.418 19.1729 2002 101.532 1346.46 437.682
429 1 54.187 14.5422 788 107.371 1347.32 458.909
430 0 55.1602 12.1283 669 111.809 1346.32 463.501
431 0 55.1114 11.377 627 113.507 1345.82 465.167
432 0 58.1567 15.1831 883 107.623 1345.78 460.063
433 0 57.0511 11.6212 663 112.668 1346.29 463.25
434 0 61.1558 18.2485 1116 103.119 1345.94 462.925
435 0 65.0785 13.7987 898 107.91 1345.68 467.199
436 0 66.135 13.7597 910 109.244 1345.07 460.668
437 0 66.135 13.8505 916 137.738 1344.06 460.663
438 0 71.0805 10.1434 721 113.18 1344.9 463.412
439 0 74.1074 15.0997 1119 106.814 1343.73 458.649
440 0 77.1337 14.6888 1133 107.093 1343.27 459.226
441 0 79.1984 15.6569 1240 105.728 1341.74 456.624
442 0 82.1243 19.3122 1586 100.468 1341.78 454.648
443 0 84.0894 16.6489 1400 104.372 1341.76 457.621
444 0 85.2008 16.1618 1377 106.025 1341.41 456.028
445 0 88.1306 13.8204 1218 108.909 1340.59 452.874
446 0 93.1457 14.5471 1355 107.79 1339.29 452.291
447 1 49.1764 9.88278 486 109.224 1338.42 473.272
448 0 51.2185 10.7774 552 109.145 1338.15 466.772
449 0 52.1792 12.5337 654 105.873 1338.08 466.563
450 0 55.3538 11.3813 630 107.575 1336.99 466.252
451 0 56.176 12.9415 727 106.472 1336.05 461.492
452 0 60.1749 12.4803 751 104.234 1336.66 467.597
453 0 63.1315 13.5273 854 104.717 1335.62 463.671
454 0 64.0876 12.3425 791 106.306 1335.74 462.727
455 0 64.2124 10.3874 667 110.031 1334.72 460.166
456 0 70.2846 12.5917 885 108.055 1336.49 459.297
457 0 69.2106 11.4 789 112.307 1335.66 456.549
458 0 70.179 12.2686 861 110.513 1335.69 455.202
459 0 74.1445 14.0536 1042 107.401 1336.12 453.231
460 0 77.3098 16.2075 1253 104.743 1336.46 453.027
461 0 76.3761 12.2813 938 112.19 1337.02 450.045
462 0 83.3209 14.3181 1193 107.974 1338.42 450.115
463 0 84.5406 16.1934 1369 105.459 1339.39 449.307
464 0 84.2678 14.3827 1212 109.635 1340.49 445.294
465 0 88.2383 14.2115 1254 111.077 1340.62 446.807
466 0 94.4158 13.8748 1310 110.731 1340.68 448.409
467 0 94.2127 18.1717 1712 103.878 1339.13 440.179
468 0 96.3216 11.5758 1115 114.417 1340.78 445.181
469 1 56.1104 13.9724 784 105.258 1342.08 467.704
470 0 54.093 10.3525 560 112.741 1341.82 467.277
471 0 58.1383 13.0895 761 108.25 1341.75 464.237
472 0 61.1858 16.1475 988 105.943 1343.79 464.095
473 0 62.2919 13.9986 872 107.794 1342.51 463.943
474 0 62.1385 11.3456 705 112.46 1343.91 467.465
475 0 64.1148 10.762 690 113.858 1342.9 466.084
476 0 69.1199 14.1349 977 107.202 1342.71 470.49
477 0 69.1506 14.0852 974 108.744 1342.28 467.792
478 0 72.1507 12.7649 921 110.142 1341.9 471.006
479 0 73.2039 12.6769 928 112.634 1341.87 467.24
480 0 75.1958 12.2214 919 113.896 1340.62 470.847
481 0 77.3942 10.4659 810 117.565 1339.34 469.543
482 0 77.3942 10.3755 803 136.724 1338.32 469.533
483 0 83.2413 14.1757 1180 112.711 1337.71 464.834
484 0 86.2056 12.4934 1077 114.471 1336.9 465.647
485 0 88.2674 14.1389 1248 113.316 1334.76 462.236
486 0 90.3215 14.393 1300 112.913 1336.03 462.816
487 0 94.2911 14.8901 1404 126.265 1338.11 466.229
488 0 96.3676 13.5211 1303 114.979 1334.22 460.998
489 0 98.2323 14.1298 1388 114.254 1333.13 453.741
490 0 103.211 12.7894 1320 116.056 1333.45 454.966
491 0 106.335 13.4574 1431 115.945 1332.69 453.187
492 0 108.467 13.9766 1516 114.94 1331.39 444.567
493 0 112.394 12.4028 1394 116.857 1330.97 445.658
494 1 64.2861 8.19773 527 140.435 1329.61 471.395
495 0 64.1222 13.1624 844 112.931 1330.97 469.673
496 0 70.1716 13.011 913 113.746 1331 469.712
497 0 70.123 11.5654 811 118.682 1329.71 466.014
498 0 73.085 12.4376 909 112.955 1329.72 466.123
499 0 76.3598 12.8864 984 113.196 1330.77 461.645
500 0 78.1218 13.607 1063 111.375 1329.99 461.1
501 0 82.1886 15.1116 1242 111.368 1330.92 456.964
502 0 81.114 12.279 996 115.745 1331.2 455.491
503 0 87.1825 14.0739 1227 112.216 1332.88 452.817
504 0 89.1801 11.8861 1060 113.847 1333.98 458.357
505 0 92.0924 14.2791 1315 113.325 1334.88 448.009
506 0 96.1119 14.2334 1368 112.054 1334.59 446.612
507 0 95.1819 13.5425 1289 112.388 1335.12 449.746
508 1 57.0918 11.245 642 111.458 1335.62 464.358
509 0 58.221 11.1472 649 112.798 1337.02 462.045
510 0 59.1771 13.0118 770 112.518 1336.72 462.149
511 0 58.1667 11.8281 688 116.656 1338.82 461.57
512 0 63.1154 16.5728 1046 106.302 1339.19 465.359
513 0 63.1268 15.6827 990 107.303 1340.27 466.262
514 0 64.132 13.7061 879 113.18 1339.84 461.759
515 0 68.1666 14.1418 964 108.953 1340.22 462.704
516 0 71.1299 13.9182 990 110.685 1340.33 459.053
517 0 74.1496 13.9852 1037 109.836 1341.42 462.034
518 0 74.1496 13.9987 1038 133.605 1341.42 461.886
519 0 79.3095 14.0336 1113 109.728 1339.39 463.915
520 0 79.1015 13.6281 1078 111.233 1340.74 461.133
521 0 81.2437 12.9487 1052 111.601 1339.69 461.162
522 0 83.3184 14.6066 1217 110.407 1338.9 462.144
523 0 88.3113 14.7659 1304 109.753 1338.23 464.614
524 0 92.1755 16.8157 1550 107.138 1338.44 460.908
525 1 48.0536 10.738 516 114.2 1336.91 481.101
526 0 48.0536 10.7588 517 138.014 1335.93 481.122
527 0 49.0715 11.1674 548 113.971 1336.26 479.695
528 0 49.0715 11.2081 550 139.713 1336.26 479.68
529 0 54.0653 13.4097 725 112.396 1333.47 480.446
530 0 54.0836 12.2588 663 115.029 1332.72 480.018
531 0 59.1472 14.6076 864 110.644 1331.8 475.476
532 0 59.1339 12.8691 761 113.602 1331.02 477.196
533 0 61.0759 14.7685 902 110.387 1331.4 477.367
534 0 63.0486 14.3857 907 112.154 1331.28 474.907
535 0 64.1082 13.524 867 114.881 1329.82 469.866
536 0 63.0753 12.715 802 116.631 1328.91 470.461
537 0 69.0689 15.7669 1089 110.677 1328.96 470.16
538 0 68.0855 13.7327 935 114.825 1329.13 471.125
539 0 70.2858 11.1971 787 120.069 1330 467.06
540 0 74.1741 13.0639 969 116.338 1329.19 466.296
541 0 75.1927 14.0173 1054 116.513 1330.11 460.398
542 0 79.2309 12.7854 1013 117.565 1330.21 457.047
543 0 81.1226 15.5321 1260 109.653 1331.42 459.09
544 0 85.1541 16.0533 1367 108.075 1330.94 455.062
545 0 86.1567 16.8414 1451 109.527 1331.91 451.501
546 0 90.1769 14.8153 1336 111.829 1331.62 450.391
547 0 95.2298 17.5155 1668 105.378 1333.82 452.782
548 0 92.2271 12.2415 1129 138.763 1334.69 445.362
549 1 50.1426 15.2166 763 107.855 1335.26 468.63
550 0 50.1426 15.1568 760 123.197 1336.23 468.646
551 0 52.0387 15.7767 821 107.037 1334.14 464.569
552 0 52.0952 13.5521 706 109.858 1335.11 467.535
553 0 56.0928 13.1033 735 108.829 1336 468.693
554 0 55.0987 14.4286 795 108.44 1336.4 465.908
555 0 59.0445 13.312 786 109.91 1338.01 466.126
556 0 58.0571 10.8169 628 114.47 1338.16 466.33
557 0 62.0492 13.2637 823 110.292 1339.84 464.677
558 0 61.0561 11.6942 714 111.57 1340.2 462.982
559 0 68.1979 15.6017 1064 104.066 1340.23 463.109
560 0 68.1636 13.6143 928 106.977 1340.38 466.834
561 0 70.1004 12.8245 899 111.067 1339.49 463.732
562 0 73.0587 13.1675 962 109.746 1339.76 467.384
563 0 72.1567 12.4451 898 112.963 1339.06 461.548
564 0 75.3023 10.8629 818 115.523 1339.01 464.4
565 0 78.17 12.4344 972 111.636 1338.6 467.577
566 0 82.3429 13.3709 1101 110.441 1337.35 460.136
567 0 83.1641 11.1707 929 114.781 1336.66 460.622
568 1 44.0433 11.2162 494 109.587 1336 484.314
569 0 43.0191 10.7627 463 109.514 1335.73 486.315
570 0 46.1169 15.0487 694 104.658 1335.26 481.346
571 0 47.1066 15.1359 713 105.799 1333.58 481.022
572 0 48.1068 15.7774 759 104.553 1334.16 482.182
573 0 50.0418 13.3289 667 109.502 1332.76 481.159
574 0 49.0759 11.0034 540 114.611 1332.33 480.093
575 0 51.0876 12.2143 624 112.995 1330.72 477.013
576 0 51.0876 12.1947 623 142.578 1329.74 477.05
577 0 53.0775 12.4346 660 113.738 1331.52 475.402
578 0 56.0557 12.4876 700 113.851 1330.04 475.013
579 0 59.0897 14.7911 874 108.235 1331.21 475.973
580 0 61.1393 13.8373 846 110.922 1329.91 472.306
581 0 61.1393 13.87 848 136.85 1328.92 472.256
582 0 65.1108 13.8379 901 110.498 1330.53 469.256
583 0 68.183 15.5611 1061 106.599 1330.81 467.471
584 0 68.183 15.5611 1061 135.364 1330.82 467.611
585 0 71.0439 16.0183 1138 108.316 1330.39 459.209
586 0 73.1266 14.1672 1036 111.737 1331.22 462.026
587 0 74.0258 14.4274 1068 111.245 1332.44 463.358
588 0 79.2064 15.9836 1266 109.646 1333.02 457.148
589 1 44.0812 12.2955 542 111.282 1331.79 474.387
590 0 43.092 12.044 519 112.863 1332.56 471.064
591 0 45.1794 12.1073 547 112.298 1334.08 469.724
592 0 46.0388 12.7718 588 112.859 1334.76 470.602
593 0 47.0271 14.4597 680 109.85 1335.07 471.94
594 0 50.0594 14.0034 701 110.201 1336.37 469.795
595 0 51.0334 12.0313 614 114.616 1336.65 468.611
596 0 53.1248 13.1577 699 111.544 1336.7 466.818
597 0 56.0772 14.5335 815 107.983 1337.37 469.455
598 0 55.1536 13.6165 751 111.2 1338.48 466.903
599 0 59.0761 16.5888 980 105.308 1339.52 467.108
600 0 59.0778 12.5597 742 111.988 1339.44 469.098
601 0 59.0778 12.4751 737 147.99 1340.45 469.069
602 0 66.0588 15.7436 1040 105.485 1339.6 468.535
603 0 68.1003 14.6842 1000 107.125 1340.25 465.567
604 0 69.1317 12.0061 830 110.975 1339.85 463.81
605 0 71.0867 14.2924 1016 108.032 1339.93 463.377
606 0 76.0663 14.3165 1089 106.938 1338.85 465.557
607 0 79.0592 15.5959 1233 104.72 1339.57 467.529
608 1 41.0494 11.8881 488 107.209 1338.94 486.084
609 0 44.0487 10.9424 482 108.969 1338.8 485.241
610 0 44.0487 10.9197 481 127.062 1337.81 485.2
611 0 46.1122 14.8551 685 102.819 1338.82 485.301
612 0 46.0651 15.5866 718 103.613 1338.18 483.266
613 0 47.0874 13.6767 644 104.798 1337.22 486.186
614 0 48.0246 12.806 615 108.533 1336.55 481.512
615 0 51.05 12.6543 646 107.478 1334.22 481.534
616 0 50.2215 10.5532 530 113.087 1332.59 480.506
617 0 53.0499 14.1188 749 107.521 1333.66 476.702
618 0 57.0468 13.8307 789 106.401 1332.9 480.234
619 0 58.1831 12.4607 725 110.343 1332.48 477.236
620 0 61.1867 14.088 862 107.001 1331.96 473.664
621 0 63.1757 14.3251 905 105.934 1330.75 471.891
622 0 64.0948 13.7453 881 107.341 1331.86 472.102
623 0 68.2878 12.7402 870 108.6 1330.37 470.79
624 0 68.2878 12.6084 861 137.175 1329.38 470.801
625 0 68.2717 12.5967 860 136.753 1328.38 470.801
626 1 36.047 10.514 379 107.805 1330.46 482.559
627 0 38.1432 11.5879 442 109.934 1331.47 478.921
628 0 42.0942 16.4156 691 101.433 1331.35 478.504
629 0 41.0537 13.7137 563 109.012 1332.17 475.79
630 0 42.0908 11.8553 499 112.709 1332.37 476.164
631 0 47.1541 14.3148 675 105.85 1333.83 476.781
632 0 43.1823 12.2041 527 115.25 1333.74 474.795
633 0 47.1694 13.0805 617 112.721 1335.5 473.815
634 0 47.3301 14.8954 705 111.606 1335.55 473.384
635 0 48.0936 11.9974 577 116.419 1336.32 474.291
636 0 50.0538 17.0616 854 110.204 1336.27 470.076
637 0 50.0538 17.0816 855 126.337 1336.31 470.104
638 0 52.2027 12.2216 638 121.042 1337.1 468.288
639 0 55.1427 13.6011 750 116.681 1338.17 467.796
640 0 56.0356 12.0281 674 121.145 1338.16 469.49
641 0 57.0824 14.0148 800 117.409 1338.65 469.455
642 0 60.0965 13.6946 823 118.713 1339.82 466.281
643 0 62.1071 19.0477 1183 108.243 1338.99 467.37
644 0 64.04 14.8501 951 115.187 1339.91 464.781
645 0 65.1895 13.0543 851 120.364 1340.17 465.488
646 0 69.1097 15.2077 1051 114.537 1339.23 465.022
647 0 71.0561 15.917 1131 112.767 1340.21 464.755
648 0 71.0561 15.8044 1123 136.729 1341.19 464.769
649 0 77.0884 12.7386 982 118.817 1338.48 466.153
650 0 79.0958 17.5104 1385 108.921 1338.22 469.655
651 0 82.1377 15.7175 1291 113.601 1338.72 464.686
652 0 82.1957 15.6213 1284 115.172 1339.22 462.013
653 0 87.2585 16.8694 1472 111.52 1338.28 469.093
654 0 88.1262 12.0849 1065 121.692 1338.1 466.007
655 0 88.1262 12.0736 1064 156.425 1337.11 466.006
656 1 51.0459 15.1432 773 114.489 1337.27 485.062
657 0 49.0293 14.2568 699 120.074 1335.03 481.02
658 0 51.0914 13.975 714 119.98 1335.76 482.011
659 0 54.0579 16.1493 873 115.007 1334.14 481.55
660 0 54.0579 16.1308 872 135.495 1332.12 481.497
661 0 56.0716 12.3949 695 124.348 1333.45 479.124
662 0 59.0583 14.6465 865 119.328 1333.33 476.557
663 0 62.101 15.1688 942 118.086 1332.12 477.107
664 0 63.0402 15.1808 957 119.855 1332.23 474.947
665 0 65.1328 16.5815 1080 116.983 1331.5 470.64
666 0 65.1328 16.6736 1086 141.652 1331.5 470.694
667 0 69.1051 13.6893 946 122.148 1331.53 468.985
668 0 74.29 14.7664 1097 120.074 1331.68 468.469
669 0 80.1167 11.683 936 126.075 1331.3 465.413
670 0 80.1868 15.863 1272 119.778 1331.69 458.113
671 0 82.178 16.3791 1346 118.887 1331.68 459.007
672 0 84.5303 14.066 1189 124.829 1333.87 454.415
673 0 86.194 14.3282 1235 124.819 1332.46 453.742
674 0 91.3243 13.2714 1212 126.436 1333.75 452.535
675 1 49.1875 14.9428 735 119.521 1333.61 472.645
676 0 48.0511 12.5908 605 129.04 1334.16 468.84
677 0 48.0511 12.5075 601 152.712 1335.12 468.947
678 0 53.0424 17.7971 944 119.35 1335.08 466.04
679 0 55.1247 15.2563 841 122.108 1336.48 467.772
680 0 56.0341 15.9903 896 120.949 1337.86 467.855
681 0 58.0415 13.5937 789 126.065 1337.95 466.766
682 0 61.1462 14.4408 883 124.26 1337.68 465.405
683 0 60.1443 13.8999 836 154.799 1337.64 464.952
684 0 64.0413 16.3644 1048 119.673 1339.17 462.861
685 0 65.1058 14.1309 920 124.502 1340.51 463.826
686 0 68.1255 15.7357 1072 121.223 1340.03 463.898
687 0 74.3492 14.0688 1046 123.121 1340.51 461.86
688 0 74.1693 15.4646 1147 121.634 1340.95 463.282
689 0 77.179 16.7533 1293 118.234 1340.46 466.393
690 0 79.0763 15.9972 1265 120.81 1339.93 460.139
691 0 85.1307 15.5056 1320 121.233 1340.9 462.337
692 1 45.0197 15.4599 696 120.093 1340.37 481.743
693 0 45.0843 12.7761 576 126.863 1339.44 480.438
694 0 45.0843 12.8426 579 152.356 1339.46 480.472
695 0 50.3222 14.9238 751 119.142 1338.22 484.156
696 0 52.0561 14.2346 741 121.601 1338.6 481.943
697 0 52.2072 15.2086 794 121.091 1338.65 480.64
698 0 56.1634 17.1108 961 114.498 1338.06 483.827
699 0 56.0958 14.5109 814 122.113 1336.66 476.848
700 0 59.1893 16.7091 989 116.362 1335.82 478.905
701 0 60.2605 17.4575 1052 114.234 1334.83 479.856
702 0 62.13 15.5802 968 118.513 1334.22 473.868
703 0 64.2959 15.6309 1005 117.519 1332.97 474.035
704 0 66.1221 15.184 1004 118.264 1332.87 474.721
705 0 68.2556 16.2771 1111 116.98 1332.68 469.571
706 0 69.1175 13.4264 928 121.998 1332.05 468.461
707 0 74.3273 15.2972 1137 118.319 1331.6 463.858
708 0 76.3484 14.9708 1143 118.65 1332.03 463.92
709 0 81.6343 18.6564 1523 111.65 1331.71 462.195
710 0 82.3222 17.0671 1405 116.651 1331.22 456.799
711 0 85.2636 15.411 1314 119.748 1331.86 456.492
712 0 91.2428 16.9986 1551 114.787 1330.67 457.465
713 0 90.45 14.7595 1335 120.488 1332.33 454.625
714 1 44.3154 16.9016 749 113.617 1332.1 476.471
715 0 46.1863 14.225 657 118.709 1332.69 473.294
716 0 48.2787 14.6648 708 117.718 1332.82 472.579
717 0 51.2794 17.1609 880 113.278 1333.34 470.21
718 0 52.6727 16.3083 859 114.858 1333.32 468.931
719 0 51.1599 14.4449 739 120.567 1334.28 467.843
720 0 54.4336 16.9381 922 113.806 1334.66 469.017
721 0 56.3472 18.5457 1045 112.312 1335.38 463.705
722 0 56.3472 18.457 1040 140.681 1335.35 463.67
723 0 56.3472 18.3328 1033 140.588 1335.31 463.513
724 0 56.3472 18.3328 1033 140.368 1335.31 463.513
725 0 66.309 17.0565 1131 111.614 1337.9 462.862
726 0 65.3768 14.3629 939 117.577 1338.98 461.617
727 0 68.4922 16.0894 1102 114.128 1339.21 459.476
728 0 69.2942 14.9363 1035 116.358 1339.94 460.983
729 0 74.3495 16.8125 1250 111.664 1339.85 461.058
730 0 74.6674 15.857 1184 115.947 1340.42 457.47
731 0 78.4102 11.8607 930 121.229 1340.62 461.071
732 0 81.4766 18.4716 1505 110.837 1341.32 457.112
733 0 84.4065 16.3376 1379 114.555 1340.52 454.207
734 0 85.2163 13.9175 1186 118.477 1340.24 459.258
735 1 43.3857 14.2904 620 115.79 1340.53 479.526
736 0 42.2772 12.8202 542 119.192 1339.47 476.458
737 0 48.3485 13.6923 662 113.462 1341.02 480.429
738 0 48.4172 13.2391 641 116.197 1339.77 480.212
739 0 48.1217 13.8815 668 118.379 1340.34 478.124
740 0 48.1335 13.6911 659 119.725 1339.11 477.135
741 0 50.2854 15.9887 804 115.684 1339.71 478.218
742 0 53.3489 12.7838 682 121.066 1337.75 478.091
743 0 57.2476 15.7911 904 114.085 1336.73 477.256
744 0 56.062 14.3769 806 119.701 1336.79 474.995
745 0 57.2555 15.2125 871 116.239 1335.82 476.203
746 0 60.0869 14.529 873 118.541 1335.67 474.861
747 0 60.0869 14.479 870 158.41 1335.68 474.791
748 0 64.1616 16.5052 1059 116.671 1334.36 471.704
749 0 64.1616 16.4273 1054 149.608 1333.33 471.73
750 0 67.1451 16.1144 1082 119.892 1334.92 469.374
751 0 71.1312 16.3922 1166 117.783 1334.64 467.659
752 0 72.192 17.0102 1228 118.528 1335.14 464.231
753 0 72.2237 15.3412 1108 123.483 1334.02 463.95
754 0 75.134 18.1409 1363 116.23 1333.32 466.145
755 0 75.134 18.0611 1357 145.934 1332.29 466.125
756 0 77.1285 19.85 1531 139.072 1331.23 464.864
757 0 83.1424 18.0534 1501 120.647 1334.49 456.024
758 0 82.2075 13.5268 1112 130.591 1334.73 456.409
759 0 87.2089 17.2001 1500 122.76 1335.08 454.919
760 0 89.117 17.1236 1526 123.571 1336.04 451.619
761 0 94.1419 17.0381 1604 123.501 1335.77 448.925
762 0 97.1362 16.5747 1610 122.637 1337.39 448.128
763 1 49.1208 13.8434 680 127.153 1337.34 469.412
764 0 51.1201 12.8325 656 131.547 1338.67 466.567
765 0 50.1207 14.2257 713 153.861 1339.81 466.264
766 0 56.1076 13.9553 783 129.143 1339.47 464.034
767 0 60.1195 15.6189 939 124.738 1340.5 464.457
768 0 62.1103 15.7301 977 126.129 1341.22 462.793
769 0 62.1573 14.2059 883 130.034 1341.54 462.819
770 0 64.079 15.6994 1006 128.668 1341.64 460.399
771 0 68.2239 15.2732 1042 129.016 1341.89 459.665
772 0 70.1542 14.6962 1031 130.872 1341.79 460.607
773 0 73.1446 13.2067 966 132.944 1341.7 462.041
774 0 74.0908 15.8994 1178 129.083 1342.66 459.886
775 0 76.0756 16.4179 1249 127.984 1343.12 461.776
776 0 78.1517 13.9728 1092 135.289 1343.31 460.325
777 0 80.1046 15.4423 1237 132.235 1342.4 459.534
778 0 79.0997 14.6018 1155 148.194 1341.37 458.24
779 0 85.3218 15.6935 1339 133.332 1341.78 459.225
780 1 47.1743 10.6202 501 129.83 1342.54 482.094
781 0 49.1059 12.6461 621 128.201 1340.97 480.596
782 0 48.1091 10.3723 499 134.062 1341.13 480.269
783 0 50.1899 9.64337 484 129.446 1340.68 485.097
784 0 53.0455 11.3487 602 131.158 1339.89 478.364
785 0 54.0745 13.167 712 124.315 1338.67 479.08
786 0 53.0543 9.40546 499 132.303 1338.24 477.926
787 0 58.1366 12.4534 724 125.035 1337.69 478.319
788 0 59.1316 9.35202 553 132.304 1337.76 477.083
789 0 61.1318 11.0744 677 128 1336.49 475.142
790 0 62.0749 12.0016 745 127.213 1337.54 476.2
791 0 66.108 11.2846 746 127.82 1336.29 471.42
792 0 66.108 11.2694 745 132.091 1334.29 471.443
793 0 67.1781 10.3307 694 133.122 1336.04 464.625
794 0 68.1376 8.64428 589 136.093 1335.74 467.214
795 0 70.2263 10.5658 742 133.958 1335.68 459.65
796 0 76.174 13.7974 1051 125.011 1335.85 458.875
797 0 79.4063 11.7749 935 127.868 1335.65 461.586
798 0 80.4141 12.7341 1024 129.27 1334.43 453.589
799 0 83.2455 10.8474 903 132.594 1333.58 452.287
800 1 47.0902 12.699 598 120.284 1335.73 473.365
801 0 47.0949 9.53395 449 128.953 1335.34 470.029
802 0 47.0493 10.5634 497 125.68 1336.05 466.924
803 0 49.1399 10.6227 522 122.803 1336.74 469.939
804 0 51.1491 12.6297 646 119 1337.05 467.238
805 0 52.2263 11.1438 582 120.459 1337.18 467.471
806 0 54.1136 11.4943 622 119.722 1337.88 463.486
807 0 58.1096 11.4439 665 118.821 1338.98 464.505
808 0 58.1681 11.0198 641 119.019 1338.71 462.265
809 0 60.2012 10.2822 619 120.063 1339.33 459.557
810 0 60.1795 10.369 624 120.825 1340.11 459.016
811 0 63.1055 8.5254 538 121.344 1339.49 461.994
812 0 65.0604 10.4826 682 119.05 1339.77 459.251
813 0 66.2474 11.5929 768 117.848 1339.96 457.387
814 0 64.1722 6.76306 434 125.417 1339.56 459.917
815 0 71.2275 11.4422 815 116.612 1340.78 458.445
816 0 71.1987 10.4496 744 118.284 1340.27 457.116
817 0 75.2263 11.2328 845 118.041 1340.95 457.508
818 0 79.16 12.1147 959 116.248 1341.07 458.23
819 0 83.4804 12.6736 1058 115.072 1341.45 458.489
820 0 83.3366 12.3235 1027 116.941 1341.16 455.676
821 0 84.2468 9.84013 829 120.053 1340.34 461.51
822 0 88.3283 10.6761 943 120.857 1340.4 459.494
823 0 90.4879 13.9135 1259 115.965 1340.98 457.176
824 0 92.2982 11.4737 1059 121.117 1339.44 456.502
825 1 54.1026 13.2156 715 117.115 1338.4 477.615
826 0 55.0494 12.734 701 116.485 1338.27 477.652
827 0 55.0395 12.3366 679 122.417 1339.23 476.794
828 0 55.0765 11.9652 659 119.871 1337.88 473.495
829 0 56.0446 10.7236 601 121.524 1337.08 476.932
830 0 59.0662 12.1051 715 119.154 1336.07 475.371
831 0 61.0799 12.852 785 117.489 1336.23 472.292
832 0 60.0633 9.70642 583 123.732 1334.78 470.969
833 0 65.0432 11.3771 740 118.503 1333.95 470.543
834 0 67.1245 11.069 743 118.532 1334.14 468.328
835 0 72.0979 14.6468 1056 113.591 1334.25 465.101
836 0 73.0711 13.7674 1006 114.435 1334.38 464.337
837 0 76.0893 15.7841 1201 111.833 1334.63 458.804
838 0 76.2033 12.5191 954 117.882 1333.79 460.95
839 0 82.1618 14.1793 1165 114.338 1334.32 457.365
840 0 83.2599 13.3798 1114 115.423 1334.04 459.775
841 0 88.1086 14.9702 1319 115.496 1334.09 450.538
842 0 90.0801 16.2522 1464 113.532 1334.02 453.348
843 0 95.2385 15.8234 1507 113.605 1334.92 449.881
844 0 97.2198 14.9044 1449 115.787 1335.09 446.776
845 1 55.173 12.5605 693 114.805 1334.61 468.882
846 0 51.1214 10.4849 536 121.668 1334.43 464.58
847 0 56.124 12.1873 684 116.626 1335.43 465.004
848 0 55.236 11.2246 620 118.556 1337.31 458.865
849 0 62.2807 16.2008 1009 108.938 1339.23 459.543
850 0 63.1751 13.5021 853 113.374 1340 460.838
851 0 63.0808 14.5528 918 112.339 1340.27 460.21
852 0 62.2237 12.8247 798 117.535 1338.17 460.756
853 0 64.1483 13.1258 842 115.86 1339.37 461.562
854 0 67.1403 15.1474 1017 113.224 1339.18 458.485
855 0 70.268 13.1781 926 113.995 1340.09 462.167
856 0 71.2298 13.0704 931 115.762 1340.08 458.704
857 0 75.2028 15.7042 1181 111.019 1341.14 457.737
858 0 77.1377 12.6008 972 116.854 1339.95 456.513
859 0 80.1632 13.8966 1114 114.456 1340.99 454.95
860 0 82.3326 13.7491 1132 114.553 1341.95 457.773
861 1 38.142 9.12381 348 119.589 1341.91 476.632
862 0 43.2514 11.306 489 114.802 1341.14 476.247
863 0 45.1338 11.0117 497 113.757 1341.95 480.034
864 0 49.2314 12.8373 632 111.511 1341.27 478.856
865 0 48.244 14.8412 716 107.858 1342.28 474.003
866 0 50.0685 17.7956 891 104.973 1340.77 478.121
867 0 52.1308 13.2743 692 112.036 1340.61 480.66
868 0 50.0922 14.9923 751 112.515 1338.9 477.498
869 0 48.0846 11.0846 533 148.437 1337.13 473.741
870 0 52.2109 15.514 810 112.419 1338.94 477.172
871 0 53.1329 12.7604 678 117.147 1338.94 476.072
872 0 53.1329 12.6852 674 146.582 1338.93 476.04
873 0 57.1066 12.6605 723 117.686 1336.38 474.555
874 0 57.161 14.5554 832 115.534 1336.26 473.78
875 0 60.104 15.0905 907 114.699 1335.59 471.139
876 0 60.1148 15.2209 915 138.387 1334.51 471.309
877 0 64.1089 15.6608 1004 114.464 1334.68 468.133
878 0 67.0994 18.5098 1242 108.682 1333.6 469.494
879 0 68.1723 13.0992 893 118.359 1334.54 466.169
880 0 70.074 15.7976 1107 112.992 1334.48 464.479
881 0 72.2022 15.3735 1110 114.565 1334.49 463.221
882 0 74.059 14.1914 1051 117.617 1333.78 458.536
883 0 77.1272 14.5344 1121 115.526 1333.74 459.421
884 0 76.1165 13.5582 1032 120.812 1334.27 456.942
885 0 83.1702 16.4121 1365 114.187 1334.45 456.182
886 0 82.1549 14.0588 1155 120.009 1333.97 454.307
887 0 85.0809 15.0092 1277 119.226 1335.81 452.704
888 0 87.1207 14.8759 1296 120.387 1336.26 448.835
889 0 88.2055 13.4799 1189 123.267 1335.6 445.929
890 0 92.2119 16.5597 1527 117.348 1337.42 445.531
891 0 92.2119 16.7224 1542 141.463 1338.39 445.595
892 0 96.1024 14.984 1440 119.527 1338.73 443.717
893 0 100.224 14.6671 1470 121.388 1339.76 442.837
894 0 103.428 13.8647 1434 122.778 1339.66 442.907
895 0 108.422 16.1407 1750 118.689 1340.53 439.165
896 0 111.303 15.1209 1683 120.61 1342.01 439.206
897 0 115.461 13.8921 1604 123.425 1342.18 434.701
898 1 61.1529 13.6052 832 119.707 1341.62 457.364
899 0 65.173 22.8776 1491 102.215 1341.65 462.482
900 0 64.1157 13.7408 881 118.491 1342.67 461.809
901 0 68.3389 15.2036 1039 115.382 1343.34 464.897
902 0 69.1521 14.4175 997 118.44 1343.25 459.694
903 0 71.3044 14.1646 1010 118.913 1343.2 460.77
904 0 76.2354 14.206 1083 119.417 1342.79 455.183
905 0 76.4451 14.638 1119 117.831 1343.31 463.778
906 0 80.315 15.3272 1231 117.386 1343.98 461.769
907 0 82.7267 15.9078 1316 116.476 1343.29 462.322
908 0 86.2287 15.5749 1343 117.611 1343.1 460.558
909 0 86.2576 15.245 1315 117.928 1341.59 458.574
910 0 90.2136 17.3366 1564 112.98 1340.91 460.426
911 0 91.3744 15.5295 1419 117.171 1340.36 458.141
912 0 95.2962 12.7917 1219 121.751 1339.89 455.892
913 0 101.163 15.5788 1576 115.641 1339.23 453.357
914 0 104.263 14.1949 1480 118.97 1338.84 453.007
915 1 56.178 12.0154 675 120.566 1339.17 475.501
916 0 57.2052 11.5549 661 117.159 1337.28 477.598
917 0 60.1554 13.382 805 115.729 1336.6 470.313
918 0 61.1622 11.9518 731 119.531 1336.35 473.093
919 0 64.1181 13.1476 843 118.062 1335.02 469.331
920 0 68.1105 14.3443 977 114.783 1334.59 468.17
921 0 69.1268 16.448 1137 111.671 1333.78 466.462
922 0 70.1992 13.5614 952 117.984 1333.81 464.651
923 0 71.0608 14.171 1007 117.785 1333.51 462.71
924 0 74.0588 14.34 1062 116.487 1333.86 463.064
925 0 74.0588 14.2859 1058 140.399 1332.87 462.977
926 0 69.1732 12.0278 832 120.786 1334.41 463.148
927 0 79.5065 14.1246 1123 119.43 1335.38 457.983
928 0 81.2119 13.9881 1136 119.84 1335.99 454.145
929 0 85.5509 14.1319 1209 120.316 1335.88 454.164
930 0 85.3682 12.6745 1082 123.57 1335.5 450.383
931 0 85.3682 12.6979 1084 141.904 1335.51 450.339
932 1 49.3975 10.6078 524 122.809 1337.79 465.767
933 0 48.2167 8.75215 422 126.853 1337.49 466.846
934 0 49.4373 13.4716 666 119.787 1338.44 463.52
935 0 51.3907 13.1736 677 119.103 1339.36 464.402
936 0 54.2138 12.9672 703 119.341 1338.41 462.538
937 0 56.2072 13.895 781 117.883 1339.25 463.3
938 0 57.126 10.4681 598 123.49 1339.09 464.901
939 0 59.1736 14.6856 869 115.351 1339.9 461.914
940 0 62.2464 13.6715 851 116.318 1340.23 461.565
941 0 63.1981 13.7979 872 115.619 1340.19 463.11
942 0 66.1559 11.6089 768 121.298 1340.75 458.497
943 0 68.1708 14.0529 958 118.241 1341.95 457.875
944 0 69.2657 11.7518 814 121.522 1342.87 458.314
945 0 72.3672 13.9013 1006 119.193 1342.51 453.202
946 0 76.3881 14.374 1098 118.109 1342.57 450.083
947 0 75.3605 12.407 935 124.049 1343.13 447.819
948 0 81.4618 18.1189 1476 113.413 1343.72 451.576
949 0 82.3804 17.8441 1470 115.488 1343.37 450.702
950 0 85.3423 14.7641 1260 120.253 1343.2 453.541
951 0 84.4203 14.0606 1187 123.721 1342.57 450.651
952 0 89.2565 14.1054 1259 123.015 1342.52 451.845
953 0 95.3189 16.0724 1532 117.399 1342.45 454.577
954 0 94.2442 13.4544 1268 124.733 1341.79 450.739
955 0 100.312 15.691 1574 118.591 1341.53 448.232
956 1 51.333 12.039 618 123.461 1339.74 469.261
957 0 54.314 13.4588 731 119.391 1340.4 469.179
958 0 55.0443 14.7336 811 116.228 1338.32 467.45
959 0 58.2851 16.934 987 113.925 1336.89 478.144
960 0 58.0525 13.4361 780 120.867 1336.52 477.506
961 0 61.0626 13.3142 813 120.042 1335.69 477.303
962 0 62.0741 15.111 938 116.958 1336.83 471.037
963 0 64.1098 11.6519 747 124.071 1334.44 470.186
964 0 64.1098 11.6831 749 155.005 1332.43 470.228
965 0 70.0238 15.7232 1101 114.897 1333.86 468.827
966 0 74.086 21.988 1629 103.108 1333.67 470.435
967 0 76.107 13.7438 1046 117.661 1334.12 461.08
968 0 77.1017 17.0165 1312 111.302 1333.35 461.462
969 0 81.1108 16.3727 1328 112.917 1333.35 457.831
970 1 42.0523 11.1766 470 118.63 1333.36 476.426
971 0 44.0338 14.7387 649 111.712 1333.39 472.381
972 0 45.0877 13.7732 621 112.198 1334.62 473.57
973 0 47.0888 15.3115 721 109.811 1334.7 474.05
974 0 51.5638 18.5401 956 105.629 1335.55 470.592
975 0 50.335 16.2114 816 109.235 1335.01 468.751
976 0 51.2337 14.7364 755 112.559 1336.57 468.826
977 0 53.2051 15.2993 814 112.753 1337.9 464.916
978 0 55.3346 13.6443 755 113.882 1338.14 466.689
979 0 55.2659 15.3078 846 112.53 1338.89 460.239
980 0 57.1851 16.3504 935 106.237 1339.21 467.69
981 0 59.1711 14.5679 862 111.686 1338.88 462.871
982 0 59.2202 16.0249 949 108.89 1339.71 460.527
983 0 62.4147 14.4357 901 110.574 1340.58 465.387
984 0 62.2116 15.3187 953 111.795 1340.67 462.016
985 0 63.0869 13.0138 821 117.009 1341.74 459.487
986 0 67.3799 14.8561 1001 112.28 1342.74 456.6
987 0 74.1241 16.351 1212 106.348 1341.58 464.441
988 1 147.468 14.932 2202 109.941 1343.43 429.561
989 1 71.1206 11.9797 852 120.343 1342.88 461.595
990 0 75.1957 16.0382 1206 112.762 1342.5 458.622
991 0 80.1574 15.9062 1275 114.354 1341.94 460.353
992 0 83.1296 14.303 1189 117.118 1342.54 459.065
993 0 83.1826 16.3856 1363 113.34 1342.14 461.259
994 0 86.0598 13.3396 1148 120.631 1341.65 458.128
995 0 90.1851 14.2596 1286 117.408 1341.18 458.36
996 1 49.0881 11.6933 574 123.458 1341.11 463.413
997 0 53.0692 13.4541 714 119.013 1340.05 466.513
998 0 53.0692 13.4353 713 153.227 1339.08 466.435
999 0 55.1644 13.7407 758 124.384 1340.18 465.313
1000 0 58.1634 13.6512 794 123.662 1337.99 467.649
1001 0 58.0568 14.2275 826 124.255 1338.54 469.431
1002 0 61.129 14.723 900 122.489 1337.5 468.819
1003 0 62.1693 14.9752 931 123.259 1337.5 465.952
1004 0 63.1562 11.6378 735 130.094 1337.31 463.856
1005 0 67.2987 15.6615 1054 120.852 1336.72 464.436
1006 0 65.2056 12.1155 790 131.515 1335.86 464.856
1007 0 72.2645 15.4156 1114 121.72 1336.25 465.319
1008 0 72.1421 14.6101 1054 126.384 1335.06 464.033
1009 0 74.4251 15.4115 1147 123.932 1335.16 460.793
1010 0 76.1672 17.908 1364 120.773 1335.08 448.736
1011 0 78.1566 14.9444 1168 127.309 1336.41 451.45
1012 0 82.4082 16.4061 1352 122.201 1336.64 456.575
1013 0 82.5244 14.4079 1189 128.86 1335.58 451.959
1014 0 88.7364 15.4841 1374 125.923 1336.14 448.072
1015 0 91.2568 16.0974 1469 123.733 1335.54 448.486
1016 0 89.754 13.6596 1226 130.653 1337.47 446.06
1017 0 90.5292 10.5933 959 130.255 1336.63 453.096
1018 1 52.2442 11.9248 623 126.093 1337.09 461.944
1019 0 55.2889 13.746 760 121.233 1337.64 459.625
1020 0 57.2129 11.0989 635 126.443 1337.98 455.748
1021 0 60.4538 12.7866 773 123.609 1338.58 455.295
1022 0 62.2459 15.9529 993 116.397 1339.23 459.457
1023 0 64.3396 14.0194 902 118.201 1339.4 460.459
1024 0 67.2345 13.4306 903 119.198 1338.77 461.15
1025 0 66.3139 13.3305 884 121.942 1340.43 455.24
1026 0 70.3007 14.5518 1023 118.121 1340.42 456.792
1027 0 72.1695 15.1865 1096 116.354 1341.61 459.097
1028 0 72.1695 15.2973 1104 139.778 1342.61 459.112
1029 0 78.494 14.4087 1131 116.837 1343.09 456.679
1030 0 80.2826 14.2746 1146 119.433 1342.89 450.961
1031 0 81.2937 12.7685 1038 122.181 1342.85 448.869
1032 0 84.4282 12.3774 1045 122.684 1343.06 448.954
1033 0 87.3078 14.1339 1234 120.222 1343.09 446.07
1034 0 90.4586 13.1331 1188 122.29 1343.07 446.832
1035 0 93.8571 14.3729 1349 119.419 1343.36 449.503
1036 1 50.3028 10.0193 504 122.171 1341.23 466.867
1037 0 54.4486 12.4521 678 115.024 1342.97 473.273
1038 0 51.2443 10.1475 520 124.292 1342.23 468.598
1039 0 55.5908 9.37205 521 123.355 1342.19 471.019
1040 0 58.5282 11.0032 644 121.439 1341.2 471.77
1041 0 61.4613 13.5695 834 118.717 1341.03 467.869
1042 0 63.4853 13.7355 872 119.01 1339.08 469.422
1043 0 62.4044 11.3614 709 125.856 1338.69 468.808
1044 0 63.3462 15.1864 962 119.103 1336.73 466.91
1045 0 68.5913 13.3399 915 121.298 1338.04 468.93
1046 0 63.3267 10.2011 646 129.074 1337.2 466.328
1047 0 72.3085 14.6594 1060 115.523 1337.18 468.157
1048 0 71.2257 11.6531 830 122.727 1335.15 463.953
1049 0 74.1886 11.6325 863 122.525 1334.95 464.235
1050 0 76.3918 12.7762 976 120.574 1334.41 460.55
1051 0 77.4233 11.7665 911 122.277 1334.63 461.897
1052 0 81.3195 13.822 1124 119.359 1334.23 458.786
1053 0 84.3471 13.7527 1160 118.951 1334.52 459.871
1054 0 86.6013 12.24 1060 121.721 1334.47 453.396
1055 0 89.4644 13.4467 1203 119.591 1334.27 447.998
1056 0 90.6373 11.6619 1057 121.749 1334.23 450.01
1057 1 48.4341 9.58002 464 122.244 1335.16 472.017
1058 0 49.4007 11.0525 546 122.467 1334.36 465.956
1059 0 52.3625 10.4464 547 121.817 1334.76 467.375
1060 0 52.0373 11.8569 617 119.335 1334.94 466.946
1061 0 54.0846 11.2786 610 119.157 1334.45 468.421
1062 0 55.0281 12.9752 714 119.542 1334.57 463.352
1063 0 57.0738 11.3012 645 122.375 1335.37 462.592
1064 0 61.1041 13.878 848 116.771 1336.53 462.947
1065 0 61.2457 13.6336 835 119.249 1337.82 459.611
1066 0 61.1254 13.006 795 119.714 1337.7 461.909
1067 0 60.2803 10.6337 641 123.786 1338.11 460.797
1068 0 69.1681 13.7347 950 116.483 1339.81 458.301
1069 0 71.1664 12.6745 902 118.576 1340.15 454.267
1070 0 73.4038 13.6369 1001 116.107 1340.61 456.956
1071 0 76.3939 15.0666 1151 114.181 1340.92 456.373
1072 0 78.177 12.7147 994 117.307 1340.86 456.952
1073 0 80.1222 14.2158 1139 115.364 1342.51 455.61
1074 0 80.1111 14.3426 1149 127.24 1343.54 455.625
1075 0 80.1089 14.3555 1150 126.567 1344.56 455.87
1076 0 87.2222 13.4713 1175 116.378 1342.77 454.437
1077 0 87.2222 13.4255 1171 136.418 1341.76 454.306
1078 0 93.2744 14.4841 1351 116.751 1342.41 447.412
1079 0 95.3444 12.974 1237 120.282 1343.1 446.517
1080 0 98.5234 15.1538 1493 115.983 1342.1 454.381
1081 0 103.491 13.721 1420 119.279 1342.15 449.532
1082 0 106.466 13.9481 1485 120.41 1341.68 446.725
1083 0 108.466 15.6732 1700 117.766 1341.71 444.664
1084 1 169.715 13.8644 2353 121.547 1340.97 420.04
1085 0 168.651 9.44556 1593 126.51 1340.73 434.114
1086 1 121.321 20.0378 2431 110.169 1340.45 448.768
1087 0 121.321 19.8811 2412 127.772 1340.44 448.772
1088 0 127.662 15.9327 2034 117.763 1337.35 437.627
1089 1 63.35 9.75533 618 123.477 1336.13 469.531
1090 0 67.464 15.7417 1062 112.008 1336.17 463.557
1091 0 73.3766 12.9197 948 115.383 1335.48 465.456
1092 0 74.4299 14.3088 1065 113.464 1335.28 466.996
1093 0 74.6344 14.2294 1062 115.908 1334.82 467.905
1094 0 76.2622 11.7358 895 121.712 1333.58 462.845
1095 0 78.5102 12.8009 1005 120.6 1334.02 460.677
1096 0 82.3514 13.1995 1087 118.331 1333.32 457.531
1097 0 85.5868 13.5885 1163 116.548 1334.13 458.029
1098 0 85.5868 13.5067 1156 145.978 1335.12 458.054
1099 0 91.2931 15.9705 1458 112.562 1333.77 452.658
1100 0 94.4133 14.6907 1387 113.526 1333.78 447.149
1101 0 98.683 16.5378 1632 109.54 1334.14 451.708
1102 0 100.486 16.6093 1669 109.152 1334.28 449.602
1103 0 103.76 17.1357 1778 107.438 1334.36 438.639
1104 0 105.551 14.3248 1512 113.523 1335.66 441.534
1105 0 111.46 17.4054 1940 108.159 1334.93 438.775
1106 0 114.505 17.0298 1950 108.122 1336.04 434.652
1107 1 64.384 12.8603 828 109.383 1335.87 460.198
1108 0 65.4281 11.9521 782 111.353 1336.92 454.693
1109 0 68.6709 11.3585 780 110.86 1337.79 460.544
1110 0 71.3774 12.2868 877 108.72 1338.11 456.425
1111 0 71.3774 12.3148 879 132.143 1339.12 456.462
1112 0 74.4139 13.0218 969 110.134 1339.56 451.964
1113 0 79.7793 13.249 1057 108.932 1339.7 453.309
1114 0 80.3344 15.3483 1233 107.113 1339.14 452.603
1115 0 84.4823 12.4878 1055 111.221 1340.01 449.039
1116 0 86.3057 12.8844 1112 110.828 1340.56 446.683
1117 0 89.4393 15.1052 1351 108.172 1340.46 445.683
1118 0 92.4272 13.4701 1245 110.235 1341.34 448.5
1119 0 95.5858 13.3911 1280 110.184 1340.96 443.389
1120 0 98.3139 15.1454 1489 108.265 1341.04 439.531
1121 0 101.339 16.8938 1712 105.02 1341.13 439.354
1122 0 106.756 12.3552 1319 112.45 1340.86 445.049
1123 0 108.999 15.6148 1702 108.237 1340.55 440.555
1124 0 108.999 15.6515 1706 134.749 1339.56 440.586
1125 0 117.641 14.6122 1719 110.184 1339.48 436.978
1126 0 121.4 15.9143 1932 107.795 1339.87 440.071
1127 1 65.377 10.08 659 109.947 1339.94 471.642
1128 0 69.3644 11.836 821 107.278 1338.48 470.34
1129 0 69.3644 11.9802 831 137.155 1337.54 470.302
1130 0 73.8035 10.9615 809 110.101 1337.54 468.693
1131 0 76.8695 16.8727 1297 101.631 1337.23 469.66
1132 0 76.6801 15.9624 1224 104.995 1335.48 465.237
1133 0 80.4234 13.6154 1095 108.154 1335.4 463.486
1134 0 80.5639 11.4567 923 112.832 1333.75 458.559
1135 0 87.6829 15.2823 1340 107.337 1335.56 461.199
1136 0 89.7356 17.2952 1552 102.697 1334.44 462.733
1137 0 93.488 14.3334 1340 107.943 1334.04 454.973
1138 0 93.488 14.4511 1351 136.507 1334.05 455.072
1139 0 93.436 14.5768 1362 135.695 1334.04 455.026
1140 1 50.4319 13.7215 692 102.548 1333.09 476.445
1141 0 51.4019 11.6338 598 107.983 1332.55 473.834
1142 0 51.5192 10.8115 557 110.427 1331.6 472.813
1143 0 51.5192 10.8891 561 140.583 1330.58 472.854
1144 0 55.4934 12.3979 688 107.663 1331.79 468.302
1145 0 57.1544 10.8653 621 108.035 1332.75 473.469
1146 0 60.2466 15.254 919 104.886 1333.73 468.116
1147 0 58.2176 12.5735 732 109.944 1334.39 464.708
1148 0 63.6111 12.2935 782 110.226 1333.84 463.788
1149 0 63.216 11.8166 747 111.961 1334.53 459.311
1150 0 62.5376 8.28301 518 117.666 1334.14 458.784
1151 0 66.5663 11.3721 757 112.62 1335.15 456.651
1152 0 66.5663 11.3571 756 119.364 1336.14 456.474
1153 0 69.5531 8.9428 622 114.15 1337.03 457.645
1154 0 70.3416 10.5343 741 111.823 1338.69 453.416
1155 0 72.4814 9.00921 653 115.276 1338.51 450.207
1156 0 79.5056 10.603 843 112.515 1338.74 450.314
1157 0 79.5248 11.1663 888 111.337 1339.83 450.358
1158 0 84.6928 12.1616 1030 108.683 1339.57 453.738
1159 0 83.3305 8.50829 709 116.006 1341.1 445.786
1160 0 86.3739 11.3923 984 111.614 1340.85 451.326
1161 0 86.4288 9.42972 815 115.119 1342.7 451.942
1162 1 45.3804 7.42611 337 113.534 1341.31 458.223
1163 0 51.359 11.7604 604 106.785 1343.12 467.571
1164 0 54.3576 13.0064 707 105.322 1342.39 463.594
1165 0 53.3141 12.4733 665 106.57 1342.71 468.609
1166 0 52.0852 12.7675 665 109.364 1340.61 475.233
1167 0 53.1146 13.1791 700 112.543 1339.61 474.486
1168 0 52.0927 12.9001 672 113.269 1338.6 475.222
1169 0 60.0935 12.414 746 104.966 1339.31 481.304
1170 0 64.1183 12.6173 809 104.69 1338.93 477.286
1171 0 63.0994 12.4882 788 105.859 1338.87 478.797
1172 0 63.0943 11.7602 742 107.084 1337.62 476.829
1173 0 63.113 12.7391 804 105.267 1337.25 476.404
1174 0 70.1004 13.2809 931 105.222 1336.35 468.917
1175 0 71.1199 10.2925 732 109.135 1334.92 473.059
1176 0 76.0982 13.7848 1049 104.811 1335.29 473.221
1177 0 78.0696 12.3223 962 107.122 1334.86 471.111
1178 0 78.1374 9.54728 746 112.185 1334.06 466.371
1179 0 83.2397 13.5873 1131 107.989 1333.4 463.92
1180 0 85.139 13.0492 1111 109.512 1333.83 460.782
1181 0 87.2959 12.8757 1124 109.954 1333.19 460.014
1182 0 90.21 17.6366 1591 102.353 1332.77 462.173
1183 1 46.1458 10.8352 500 109.946 1332.7 480.722
1184 0 46.1062 11.5169 531 111.757 1332.6 476.094
1185 0 49.0348 12.6441 620 106.516 1331.95 473.605
1186 0 50.1543 9.74992 489 110.661 1331.49 470.521
1187 0 50.1543 9.74992 489 142.673 1331.47 470.489
1188 0 53.1743 15.6278 831 106.475 1332.31 469.495
1189 0 54.0592 12.5048 676 110.225 1331.4 471.756
1190 0 55.1047 13.0297 718 110.396 1332.35 470.872
1191 0 58.0518 12.7472 740 110.061 1334.03 470.086
1192 0 54.1295 12.507 677 113.991 1333.94 464.715
1193 0 56.0821 12.7492 715 113.057 1334.25 465.999
1194 0 60.0787 14.7972 889 110.456 1334.82 459.998
1195 0 61.1572 14.6508 896 110.644 1335.44 463.29
1196 0 65.1615 12.9524 844 110.682 1336.74 464.184
1197 0 67.1654 17.5239 1177 104.865 1337.35 463.333
1198 0 68.162 17.1356 1168 120.991 1338.35 463.48
1199 0 71.0802 13.2808 944 111.779 1338.61 459.032
1200 0 71.0802 13.1964 938 138.037 1339.56 459.021
1201 0 74.0991 13.4415 996 112.871 1338.54 451.07
1202 0 80.1902 19.1919 1539 103.214 1339.34 454.942
1203 0 83.123 16.6982 1388 107.326 1340.13 452.11
1204 0 93.3216 12.3444 1152 111.834 1340.73 448.255
1205 0 88.0981 13.6552 1203 111.845 1341.11 442.109
1206 0 91.1073 16.2885 1484 108.491 1341.93 441.874
1207 0 91.1073 16.4312 1497 137.43 1342.93 441.836
1208 0 96.0751 18.1837 1747 104.401 1341.2 452.413
1209 0 96.2057 11.6625 1122 118 1340.82 445.388
1210 0 98.2751 12.9331 1271 116.193 1341.11 450.757
1211 0 102.198 11.6637 1192 119.15 1340.53 447.057
1212 0 106.19 12.1857 1294 118.163 1340.37 451.106
1213 0 111.209 13.596 1512 116.938 1339.72 450.267
1214 0 113.15 15.6252 1768 114.301 1339.43 452.024
1215 0 123.285 17.7475 2188 109.465 1339.03 436.037
1216 0 125.195 15.5996 1953 114.033 1337.09 433.155
1217 0 130.293 14.8512 1935 114.147 1337.29 439.202
1218 0 133.176 14.2143 1893 117.79 1336.9 426.873
1219 0 132.189 13.3369 1763 151.377 1335.83 428.898
1220 0 135.391 18.0219 2440 110.702 1335.08 440.575
1221 0 133.299 10.3527 1380 122.693 1333.57 441.536
1222 0 133.27 10.0398 1338 120.328 1334.23 445.729
1223 1 157.369 15.9688 2513 114.466 1333.37 412.938
1224 0 157.369 15.9624 2512 144.713 1332.37 413.025
1225 0 165.42 16.2012 2680 115.096 1333.37 405.696
1226 0 169.414 11.2269 1902 123.671 1332.81 407.058
1227 1 85.2498 12.8563 1096 119.092 1331.67 446.106
1228 0 88.2081 12.822 1131 118.763 1331.73 448.532
1229 0 92.3806 12.914 1193 115.34 1331.46 454.731
1230 0 95.3726 15.2979 1459 115.475 1332.48 442.769
1231 0 96.3003 11.6511 1122 121.42 1333.41 447.592
1232 0 96.254 12.5917 1212 122.389 1333.32 445.877
1233 1 57.1876 12.8874 737 115.532 1334.38 465.197
1234 0 59.2272 9.74215 577 118.726 1333.67 466.177
1235 0 60.1192 10.1964 613 120.145 1335.06 460.011
1236 0 60.1192 10.2796 618 137.942 1335.06 460.019
1237 0 66.2857 13.5474 898 115.886 1336.72 456.169
1238 0 69.1058 11.3594 785 118.262 1336.32 460.666
1239 0 68.1309 13.9438 950 114.259 1337.01 461.036
1240 0 72.3729 14.8536 1075 114.168 1338.33 456.212
1241 0 75.1377 14.0808 1058 115.132 1339.39 454.28
1242 0 77.169 15.2911 1180 113.684 1340.05 453.946
1243 0 79.3504 13.7239 1089 116.855 1340.35 450.037
1244 0 79.3504 13.787 1094 129.342 1340.39 449.989
1245 0 86.4852 13.1121 1134 117.474 1341.64 451.134
1246 0 87.2473 13.307 1161 116.941 1342.71 455.049
1247 0 91.5704 14.983 1372 113.989 1343.46 453.798
1248 0 91.5704 14.9939 1373 135.599 1344.46 453.734
1249 0 94.2679 13.1434 1239 118.282 1341.96 449.503
1250 0 99.2045 13.3966 1329 118.248 1343.26 450.13
1251 1 53.2365 13.2052 703 114.758 1342.79 472.953
1252 0 55.2556 12.4512 688 116.343 1342.2 473.465
1253 0 58.0896 12.825 745 115.585 1339.82 475.691
1254 0 57.2127 9.87543 565 120.561 1340.07 478.092
1255 0 61.1078 10.1133 618 120.453 1338.96 475.859
1256 0 64.1025 14.4456 926 113.468 1338.4 473.867
1257 0 64.1476 11.4891 737 119.14 1337.68 472.921
1258 0 69.2051 14.3487 993 113.487 1338.06 471.745
1259 0 68.1697 13.4517 917 115.322 1337.76 473.787
1260 0 71.1143 15.6227 1111 111.176 1336.87 471.889
1261 0 77.3057 13.7506 1063 113.723 1335.49 468.548
1262 0 77.2444 11.962 924 117.394 1336.02 462.857
1263 0 79.2887 13.4824 1069 115.147 1335.51 465.264
1264 0 79.2887 13.5328 1073 117.82 1334.49 465.292
1265 0 87.3183 12.4029 1083 115.672 1333.35 460.855
1266 0 86.3466 10.9906 949 118.072 1333.8 460.988
1267 0 86.337 11.0613 955 124.519 1334.8 460.895
1268 1 49.556 14.8721 737 109.256 1334.94 470.426
1269 0 48.5539 12.8517 624 110.926 1334.05 472.346
1270 0 52.3518 13.0082 681 112.443 1333.46 470.351
1271 0 53.1948 13.1404 699 112.462 1334.36 466.413
1272 0 53.2615 11.3027 602 115.967 1333.5 464.704
1273 0 56.2719 13.1682 741 114.3 1333.65 465.327
1274 0 59.2141 14.2534 844 112.483 1334.32 464.257
1275 0 58.1019 11.2217 652 118.911 1333.28 464.193
1276 0 62.051 14.1013 875 113.277 1333.37 463.917
1277 0 64.1504 13.4372 862 113.991 1334.21 461.796
1278 0 65.0995 13.8711 903 113.903 1334.37 460.982
1279 0 66.1224 13.9136 920 114.952 1334.89 458.079
1280 0 70.0913 14.153 992 114.95 1335.93 457.267
1281 0 69.1293 12.3826 856 119.568 1336.81 455.307
1282 0 75.0421 15.6312 1173 112.806 1338.17 456.155
1283 0 76.0834 15.4962 1179 113.916 1338.98 454.83
1284 0 77.2396 15.4325 1192 115.574 1338.86 454.083
1285 0 79.2631 10.5724 838 124.432 1339.56 447.71
1286 0 83.1656 14.3208 1191 118.874 1340.34 450.088
1287 0 86.1128 12.3094 1060 122.925 1341.22 450.049
1288 0 86.1128 12.3443 1063 131.143 1342.23 449.973
1289 0 94.1951 17.1028 1611 114.573 1342.25 449.534
1290 0 94.1951 17.1665 1617 129.86 1341.28 449.36
1291 1 54.2937 9.11708 495 123.558 1341.71 466.921
1292 0 54.2937 9.15392 497 146.851 1343.7 467.245
1293 0 54.2937 9.08025 493 146.604 1345.7 467.219
1294 0 62.0452 14.0704 873 116.661 1341.28 473.281
1295 0 62.0308 12.5099 776 122.084 1340.53 472.581
1296 0 64.1238 11.1347 714 123.332 1339.79 472.861
1297 0 67.0778 16.8908 1133 114.384 1340.16 470.04
1298 0 70.2563 13.0949 920 121.41 1340.26 469.39
1299 0 72.2821 15.7715 1140 116.563 1339.75 471.569
1300 0 77.7898 17.3288 1348 113.376 1339.32 471.982
1301 0 77.3225 15.5453 1202 118.957 1338 468.25
1302 0 79.167 13.3894 1060 122.633 1337.27 462.254
1303 0 81.3135 13.9337 1133 121.237 1336.9 463.26
1304 0 85.2444 14.6637 1250 120.135 1336.45 462.803
1305 0 86.3708 14.3567 1240 121.675 1335.18 455.214
1306 0 91.4464 19.7165 1803 112.007 1335.73 455.847
1307 0 92.5611 13.5694 1256 120.446 1335.24 455.485
1308 0 92.6156 13.5938 1259 133.121 1334.27 455.558
1309 0 91.7759 10.2097 937 125.263 1333.53 459.173
1310 0 91.3864 10.0343 917 127.401 1332.8 453.957
1311 0 94.1138 8.91474 839 129.845 1331.47 458.894
1312 0 94.4049 8.51651 804 129.51 1331.94 463.466
1313 0 92.1503 8.27995 763 129.878 1331.31 460.089
1314 1 70.0945 7.17603 503 144.785 1330.93 472.714
1315 0 70.0969 7.19005 504 144.278 1330.94 472.657
1316 0 69.0742 14.4048 995 117.24 1331.87 462.307
1317 0 69.1 12.8365 887 119.081 1332.78 461.546
1318 0 71.1022 10.9982 782 122.225 1332.98 461.739
1319 0 74.1458 13.7567 1020 121.426 1333.55 456.996
1320 0 77.1194 13.7838 1063 120.738 1333.84 454.996
1321 0 79.0964 14.7794 1169 118.591 1335.28 453.692
1322 0 84.1471 16.8277 1416 114.357 1335.1 454.021
1323 0 85.1059 15.8508 1349 118.08 1336.53 448.874
1324 0 84.1774 10.6442 896 127.458 1336.9 451.508
1325 0 91.1648 13.1959 1203 122.849 1337.3 450.377
1326 1 45.0735 11.7586 530 123.638 1337.45 470.555
1327 0 49.0944 11.3659 558 122.373 1337.61 468.493
1328 0 45.0524 8.78976 396 131.505 1338.31 465.876
1329 0 53.1692 9.93056 528 125.237 1339.82 472.58
1330 0 54.0222 14.5496 786 119.655 1339.17 468.844
1331 0 54.0222 14.6051 789 126.233 1338.16 468.814
1332 0 56.1956 14.5385 817 120.235 1339.67 469.984
1333 0 57.0813 14.0852 804 120.118 1340.39 469.298
1334 0 61.1583 14.4543 884 117.816 1339.88 472.363
1335 0 61.1536 14.5208 888 120.411 1340.99 473.196
1336 0 64.2754 13.94 896 122.025 1340.41 469.76
1337 0 65.3286 13.6387 891 121.973 1340.06 473.507
1338 0 71.2947 13.5775 968 121.915 1339.62 471.963
1339 0 73.3515 17.1503 1258 116.238 1339.76 470.155
1340 0 76.2802 14.6565 1118 119.837 1338.43 473.317
1341 0 74.1259 13.0184 965 125.64 1338.19 467.706
1342 0 80.2813 16.5667 1330 118.887 1337.24 465.774
1343 0 83.4469 17.3763 1450 116.776 1337.01 467.519
1344 1 45.4462 12.7183 578 121.299 1336.17 483.398
1345 0 47.366 11.1895 530 123.349 1335.96 482.947
1346 0 48.4716 13.2036 640 123.233 1334.1 481.12
1347 0 58.3775 11.9738 699 147.443 1332.01 477.385
1348 0 51.45 14.5578 749 120.932 1335.43 471.143
1349 0 51.2053 11.7566 602 129.573 1334.03 470.158
1350 0 55.2945 12.3882 685 126.797 1332.7 472.213
1351 0 56.5039 16.2467 918 121.199 1331.85 470.95
1352 0 61.1736 15.6277 956 121.496 1333.03 472.565
1353 0 58.1529 13.0862 761 126.351 1332.75 472.56
1354 0 60.2665 13.4901 813 124.504 1333.05 474.226
1355 0 63.1312 13.1472 830 125.506 1332.32 472.541
1356 0 65.4348 15.0379 984 122.893 1332.68 466.679
1357 0 65.301 11.0565 722 129.517 1333.3 466.176
1358 0 67.371 12.7651 860 127.17 1333.51 459.574
1359 0 71.4766 15.2917 1093 122.213 1334.02 460.163
1360 0 73.3347 14.3043 1049 123.03 1335.47 459.07
1361 0 73.3569 14.0137 1028 146.266 1336.42 458.596
1362 0 75.2926 11.1033 836 128.98 1335.18 455.376
1363 0 76.5376 11.8896 910 129.962 1335.98 453.481
1364 0 80.4085 10.8944 876 131.037 1337.14 451.804
1365 0 84.6762 11.8806 1006 128.68 1337.93 450.051
1366 0 86.5161 10.4605 905 132.432 1338.01 444.139
1367 0 91.6595 13.4629 1234 125.754 1339.91 446.876
1368 0 95.4356 15.2354 1454 123.172 1340.49 442.761
1369 0 95.4757 9.97112 952 132.131 1340.72 445.704
1370 1 55.3124 13.1254 726 124.059 1340.32 461.267
1371 0 57.3788 12.5308 719 126.743 1341.65 461.968
1372 0 59.1933 14.5625 862 123.252 1341 464.442
1373 0 62.1925 11.8664 738 127.32 1341.74 466.096
1374 0 61.3009 12.2837 753 128.807 1341.28 460.693
1375 0 66.2251 12.5179 829 125.996 1342.64 466.685
1376 0 68.1442 14.1758 966 124.757 1341.95 463.529
1377 0 70.1071 13.4081 940 126.115 1342.02 464.135
1378 0 74.1022 14.0887 1044 125.007 1340.95 462.234
1379 0 75.1813 11.6385 875 128.549 1342.41 467.723
1380 0 78.2624 15.8569 1241 120.993 1340.91 464.835
1381 0 81.3485 15.1078 1229 123.387 1339.6 463.921
1382 0 85.2974 12.8374 1095 126.568 1339.19 463.897
1383 0 87.4117 12.7672 1116 127.697 1339.14 460.291
1384 0 90.3637 18.7907 1698 117.57 1338.51 464.299
1385 0 94.2106 17.4715 1646 120.243 1338.16 456.586
1386 0 94.2984 14.8465 1400 125.276 1337.97 455.157
1387 0 100.573 13.8109 1389 126.896 1337.28 452.701
1388 0 98.3078 13.1322 1291 129.448 1335.87 453.223
1389 0 99.3053 12.7183 1263 135.907 1334.85 453.936
1390 0 99.3053 13.7455 1365 133.08 1333.86 452.744
1391 1 58.0498 12.0414 699 126.567 1335.35 470.082
1392 0 61.0844 12.8838 787 125.193 1335.88 467.813
1393 0 62.0798 13.6921 850 125.047 1335.14 468.751
1394 0 64.0783 13.6396 874 125.189 1334.2 468.557
1395 0 65.0247 14.2715 928 124.683 1333.4 470.231
1396 0 68.1208 14.7385 1004 123.289 1332.92 462.138
1397 0 68.1131 11.9948 817 129.641 1334.06 461.862
1398 0 70.2354 13.5544 952 126.727 1333.03 461.179
1399 0 72.2013 12.4374 898 130.233 1333.29 454.775
1400 0 76.1585 13.682 1042 125.409 1333.01 458.222
1401 0 78.1228 15.3476 1199 123.338 1332.58 453.166
1402 0 80.2511 13.0341 1046 128.463 1333.68 447.841
1403 0 86.136 14.7557 1271 124.405 1333.41 448.76
1404 0 87.2789 14.2532 1244 126.768 1334.29 446.583
1405 0 88.2885 14.9736 1322 126.284 1334.07 441.037
1406 0 93.2729 16.0818 1500 121.849 1335.84 446.606
1407 1 52.218 13.7692 719 121.729 1336.89 457.163
1408 0 52.1962 9.25354 483 128.36 1336.94 457.058
1409 0 51.1266 9.87743 505 128.822 1337.82 459.148
1410 0 58.1866 11.7553 684 126.534 1338.86 458.33
1411 0 57.2181 10.2765 588 129.742 1339.65 456.696
1412 0 60.2958 13.3674 806 124.263 1340.1 455.046
1413 0 61.2168 11.0264 675 128.284 1341.19 457.247
1414 0 64.0821 14.3098 917 125.42 1341.13 449.927
1415 0 64.2142 12.0534 774 129.995 1341.28 450.009
1416 0 67.1426 11.3937 765 127.993 1341.91 459.748
1417 0 67.2157 13.6129 915 127.354 1341.85 455.397
1418 0 67.2157 13.6129 915 127.572 1341.88 455.499
1419 0 73.1345 11.6771 854 129.238 1342.86 459.443
1420 0 75.1184 11.848 890 129.296 1342.19 456.866
1421 0 79.2887 11.5401 915 128.332 1342.69 460.595
1422 0 81.1471 10.0928 819 131.115 1342.28 461.88
1423 0 85.1387 17.4656 1487 119.781 1341.78 459.115
1424 0 86.213 12.8287 1106 127.535 1341.57 454.981
1425 0 88.1777 14.6749 1294 124.431 1341.38 457.371
1426 0 94.3754 14.9086 1407 123.832 1339.88 456.476
1427 0 96.1812 18.434 1773 119.398 1339.9 457.284
1428 0 99.2636 12.9453 1285 128.616 1338.67 453.175
1429 1 52.1075 8.92386 465 130.563 1339.06 477.022
1430 0 59.0948 14.096 833 119.709 1334.99 475.125
1431 0 58.067 15.0343 873 121.507 1335.26 472.856
1432 0 59.0511 11.6509 688 125.965 1333.61 474.272
1433 0 62.1961 13.7147 853 123.285 1334.76 470.523
1434 0 66.0799 14.2555 942 121.858 1333.39 466.741
1435 0 65.1982 14.0955 919 122.578 1332.94 468.808
1436 0 67.1924 12.4568 837 125.081 1332.23 470.421
1437 0 67.1268 12.7669 857 125.03 1332.47 464.431
1438 0 71.064 12.7772 908 124.948 1332.07 463.132
1439 0 71.0708 12.776 908 117.928 1331.11 462.953
1440 0 71.0713 12.7478 906 117.486 1330.11 462.937
1441 0 80.1052 14.044 1125 124.067 1332.06 458.07
1442 0 79.0444 13.9921 1106 125.931 1331.26 455.003
1443 0 85.2936 14.8663 1268 123.988 1332.35 452.936
1444 0 91.1235 11.1168 1013 129.57 1331.8 451.934
1445 0 91.1996 12.6865 1157 128.341 1332.59 444.668
1446 0 91.1767 12.6897 1157 119.816 1332.59 444.668
1447 1 52.1686 8.70255 454 128.482 1334.13 463.641
1448 0 57.1601 14.4681 827 118.242 1334.31 461.451
1449 0 56.0198 12.9062 723 122.602 1335.07 462.014
1450 0 53.123 8.80974 468 129.009 1335.37 459.724
1451 0 59.1076 10.8446 641 123.09 1336.02 459.629
1452 0 62.3284 13.5733 846 118.16 1336.85 460.876
1453 0 63.1736 9.89338 625 123.349 1336.8 459.974
1454 0 64.105 13.8211 886 118.723 1337.53 459.817
1455 0 63.1208 9.88581 624 124.396 1338.75 459.997
1456 0 63.1208 9.94918 628 114.484 1340.76 460.226
1457 0 70.1504 12.0598 846 122.293 1339.18 454.203
1458 0 73.2257 12.0859 885 122.229 1339.14 455.451
1459 0 79.1869 11.8833 941 119.151 1339.76 460.35
1460 0 80.1859 13.9551 1119 113.102 1338.77 456.991
1461 0 82.1153 16.6108 1364 115.372 1340.92 457.823
1462 0 85.1093 10.2339 871 123.466 1340.62 456.652
1463 0 87.1336 10.1453 884 125.511 1340.48 455.336
1464 0 90.1455 12.0472 1086 124.241 1340.64 453.269
1465 0 97.2356 12.5777 1223 122.754 1339.71 454.068
1466 0 97.2833 12.6538 1231 124.551 1340.29 443.062
1467 0 97.3082 12.5066 1217 114.182 1341.36 443.139
1468 0 104.221 10.7847 1124 127.699 1338.67 443.992
1469 0 108.304 11.6247 1259 124.81 1339.5 452.509
1470 1 61.0478 10.1068 617 123.123 1338.18 475.694
1471 0 59.2211 12.0903 716 120.732 1337.55 470.353
1472 0 65.1187 12.577 819 120.893 1336.18 469.486
1473 0 64.1799 11.2652 723 122.452 1335.54 471.958
1474 0 64.1371 12.7695 819 121.026 1334.56 469.856
1475 0 69.1411 15.0562 1041 118.679 1334.99 466.368
1476 0 72.1907 12.8825 930 122.539 1334.41 464.173
1477 0 74.2931 11.1854 831 125.576 1332.99 463.667
1478 0 74.2931 11.3335 842 117.777 1332.07 463.789
1479 0 79.2433 12.0136 952 125.362 1332.85 460.972
1480 0 80.4015 10.9078 877 127.152 1332.57 459.426
1481 0 85.2244 14.2447 1214 122.054 1332.12 450.134
1482 0 88.268 12.3714 1092 125.377 1332.14 450.957
1483 0 89.2509 9.77021 872 129.675 1332.99 443.596
1484 0 91.3093 12.1127 1106 125.854 1332.26 445.919
1485 0 91.3093 12.2441 1118 114.63 1331.27 445.852
1486 0 96.3216 12.8632 1239 125.646 1332.56 440.613
1487 0 99.3044 14.7023 1460 123.659 1332.95 432.062
1488 0 104.388 11.4189 1192 127.519 1333.41 437.756
1489 0 102.446 14.7981 1516 124.709 1332.46 431.444
1490 0 108.352 18.4214 1996 118.537 1333.32 426.952
1491 0 108.503 13.9812 1517 125.128 1334.15 426.119
1492 0 108.525 14.0244 1522 110.612 1335.17 426.206
1493 0 108.536 14.0229 1522 110.216 1336.17 426.206
1494 1 73.2874 11.0251 808 125.932 1335.55 449.137
1495 0 74.1487 8.40204 623 124.173 1338.22 456.989
1496 0 74.1932 10.594 786 114.093 1340 450.375
1497 0 74.2088 11.1577 828 112.534 1341.95 449.682
1498 0 73.3228 12.4791 915 122.919 1337.78 446.798
1499 0 77.1815 13.5136 1043 122.262 1339.7 444.619
1500 0 78.2756 13.7846 1079 122.619 1340.33 443.992
1501 0 81.1389 11.5481 937 125.969 1340.38 441.791
1502 0 81.1389 11.7083 950 121.744 1340.4 442.225
1503 0 85.1713 12.3516 1052 125.931 1341.91 442.617
1504 0 89.6099 13.3133 1193 124.114 1341.85 440.11
1505 0 91.306 9.56125 873 129.355 1341.17 446.064
1506 0 95.3928 10.9547 1045 128.152 1342.16 443.629
1507 0 95.3 12.319 1174 126.81 1340.68 442.568
1508 0 101.424 13.1823 1337 125.423 1341.86 444.491
1509 1 57.1298 8.99706 514 128.502 1340.3 459.315
1510 0 59.1579 15.1121 894 118.119 1338.16 460.736
1511 0 61.1654 13.7823 843 120.332 1337.85 464.4
1512 0 61.1653 13.8314 846 123.206 1337.37 461.306
1513 0 60.1998 9.81731 591 130.332 1337.16 460.286
1514 0 64.1731 14.2271 913 123.437 1336.5 468.25
1515 0 64.1663 14.1819 910 113.111 1335.47 468.113
1516 0 66.0682 14.0461 928 123.277 1334.16 467.578
1517 0 65.0793 12.4771 812 105.917 1332.11 465.628
1518 0 69.1482 11.6706 807 127.014 1333.42 469.958
1519 0 74.0736 13.6216 1009 124.944 1333.13 463.312
1520 0 78.2163 14.1658 1108 123.306 1333.12 460.777
1521 0 81.106 11.4665 930 128.377 1332.59 459.213
1522 0 82.2873 14.3765 1183 124.622 1331.96 457.257
1523 0 82.2873 14.3765 1183 118.1 1331.96 457.257
1524 0 89.1683 14.7922 1319 123.823 1331.52 449.589
1525 0 87.1194 11.4211 995 129.848 1330.82 453.935
1526 1 105.199 10.5134 1106 126.732 1331.88 453.639
1527 1 54.2235 13.2968 721 119.975 1332.46 468.036
1528 0 54.2235 13.4259 728 111.06 1333.44 468.008
1529 0 54.2235 13.5181 733 110.367 1334.45 468.018
1530 0 55.0918 16.5724 913 118.257 1332.75 469.216
1531 0 56.1922 14.3792 808 122.056 1331.65 466.811
1532 0 59.081 8.85226 523 130.078 1333.45 467.474
1533 0 61.1679 13.4711 824 123.078 1333.75 463.615
1534 0 63.0525 12.7354 803 125.303 1333.5 462.765
1535 0 66.1127 13.356 883 123.871 1333.84 460.943
1536 0 67.0986 14.1434 949 123.717 1335.37 459.341
1537 0 68.0943 13.6428 929 116.379 1337.36 459.055
1538 0 71.1825 11.6883 832 129.072 1335.79 457.599
1539 0 75.1428 15.6901 1179 123.342 1336.7 455.325
1540 0 75.14 15.7173 1181 117.447 1336.66 455.279
1541 0 79.18 14.3723 1138 125.984 1337.56 453.175
1542 0 81.1005 12.2811 996 129.41 1337.64 454.468
1543 0 83.156 13.9858 1163 127.47 1339.05 450.309
1544 0 83.2696 13.09 1090 129.66 1339.51 453.106
1545 1 96.2104 10.5914 1019 131.319 1340.2 455.247
1546 0 93.1488 8.84606 824 134.856 1339.82 457.505
1547 0 95.2364 14.6478 1395 127.132 1339.64 452.103
1548 0 94.2564 10.9595 1033 133.865 1340.04 451.073
1549 0 98.1517 13.6014 1335 129.89 1339.62 451.784
1550 1 112.188 9.51078 1067 131.877 1339.6 460.251
1551 0 107.291 14.7169 1579 128.472 1338.17 440.645
1552 0 108.171 11.0565 1196 135.283 1339.49 436.441
1553 0 113.261 12.9259 1464 132.505 1339.13 435.314
1554 0 121.415 13.1121 1592 132.842 1338.8 430.459
1555 1 69.3026 9.5956 665 129.82 1338.43 464.69
1556 0 69.3026 9.63889 668 119.174 1337.42 464.548
1557 0 73.1656 13.654 999 130.128 1336.12 459.375
1558 0 76.2756 15.7324 1200 127.066 1335.26 460.326
1559 0 80.1351 14.7376 1181 128.133 1335 459.318
1560 0 80.2057 11.5079 923 133.882 1333.86 460.334
1561 0 83.1415 14.6257 1216 129.373 1334.32 457.093
1562 0 86.1832 13.7034 1181 130.721 1333.09 449.49
1563 0 91.2214 14.262 1301 128.676 1333.69 458.232
1564 0 92.185 13.039 1202 132.037 1333.36 456.663
1565 0 92.185 13.1583 1213 133.157 1333.36 456.733
1566 0 96.3094 12.8856 1241 133.623 1331.99 451.488
1567 0 98.2885 12.0563 1185 135.41 1331.91 450.753
1568 0 103.29 13.3991 1384 134.52 1332.22 430.827
1569 0 103.446 12.8376 1328 134.907 1331.31 441.021
1570 0 109.281 12.8567 1405 136.05 1331 431.6
1571 0 114.279 16.696 1908 130.6 1332.06 432.015
1572 0 114.286 16.8087 1921 122.28 1333.04 432.017
1573 1 64.2167 14.2019 912 131.023 1332.3 457.167
1574 0 65.1328 12.3133 802 133.293 1331.64 459.291
1575 0 69.1267 14.6976 1016 129.666 1333 459.277
1576 0 69.1267 14.6976 1016 126.399 1334 459.365
1577 0 72.0938 12.6779 914 135.804 1333.58 455.862
1578 0 74.2663 14.3672 1067 132.274 1333.72 452.091
1579 0 77.179 14.9393 1153 131.787 1335.56 450.461
1580 0 80.0355 12.8943 1032 134.74 1335.43 452.362
1581 0 80.0892 14.2716 1143 132.915 1335.88 452.224
1582 0 86.0948 18.3402 1579 127.311 1336.77 447.053
1583 0 91.0942 13.8538 1262 133.599 1337.38 447.83
1584 0 91.2244 13.8998 1268 135.585 1337.79 446.174
1585 0 94.2462 14.0589 1325 135.351 1338.63 444.878
1586 0 94.2462 13.9422 1314 130.139 1339.63 444.876
1587 0 89.3171 11.1849 999 144.578 1340.46 438.861
1588 0 91.201 10.2411 934 146.288 1340.82 442.451
1589 0 91.201 8.92534 814 144.037 1341.75 444.738
1590 1 205.816 13.1574 2708 147.288 1340.84 398.439
1591 0 212.326 15.7353 3341 144.62 1340.78 392.821
1592 0 208.574 11.5691 2413 150.994 1340.97 404.218
1593 1 225.533 13.293 2998 148.811 1340.01 390.53
1594 0 234.601 12.4296 2916 151.675 1339.5 381.476
1595 1 71.0851 10.5226 748 141.917 1338.87 465.91
1596 0 73.2376 13.0261 954 136.944 1338.1 467.479
1597 0 74.0796 13.9175 1031 136.381 1338.76 467.895
1598 0 74.3097 12.7709 949 140.978 1339.01 465.055
1599 0 83.1822 13.3322 1109 138.125 1337.32 462.102
1600 0 83.1822 13.3202 1108 134.769 1336.34 462.198
1601 0 87.1985 13.1424 1146 140.117 1335.61 455.617
1602 0 92.1856 13.9718 1288 138.424 1335.39 455.137
1603 0 93.3116 13.4603 1256 140.314 1333.71 451.908
1604 0 92.2075 11.5609 1066 144.678 1334.02 452.24
1605 0 99.1776 13.622 1351 139.59 1332.84 449.999
1606 0 101.434 14.3838 1459 137.54 1331.88 454.161
1607 0 105.257 16.0464 1689 137.292 1332.38 447.52
1608 0 107.307 13.1864 1415 142.817 1332.04 447.293
1609 0 110.4 13.7681 1520 140.893 1331.61 445.762
1610 0 114.289 13.5971 1554 142.839 1331.28 443.122
1611 0 118.507 16.3197 1934 138.202 1330.89 439.117
1612 0 118.335 11.9745 1417 147.09 1331.52 430.288
1613 0 118.335 12.0252 1423 139.067 1332.51 430.507
1614 0 130.312 15.3401 1999 135.975 1331.52 428.28
1615 0 130.312 15.4091 2008 129.874 1329.51 428.314
1616 0 135.174 8.55936 1157 146.841 1331.88 421.772
1617 1 76.143 12.9362 985 137.164 1332.1 446.986
1618 0 75.1675 10.297 774 142.336 1332.93 433.172
1619 0 79.0722 12.2926 972 136.79 1332.59 434.729
1620 0 81.2232 12.7796 1038 138.471 1333.88 430.945
1621 0 81.2232 12.7304 1034 137.17 1335.9 430.986
1622 0 88.3432 15.0096 1326 130.725 1333.68 427.42
1623 0 90.1815 14.6926 1325 131.342 1334.77 425.156
1624 0 90.1815 14.7813 1333 119.155 1334.79 425.308
1625 0 95.0906 14.8069 1408 133.596 1336.38 425.092
1626 0 96.0869 14.1018 1355 125.443 1338.4 425.742
1627 0 102.15 13.8619 1416 134.157 1338.7 424.972
1628 0 102.15 13.9011 1420 126.383 1338.7 425.08
1629 0 106.215 12.5971 1338 136.95 1339.51 422.084
1630 0 109.14 15.1274 1651 132.581 1339.54 419.718
1631 0 115.127 12.6816 1460 136.74 1339.97 417.472
1632 0 118.223 13.7452 1625 134.159 1340.1 411.7
1633 0 126.44 13.5321 1711 134.355 1340.03 418.055
1634 0 132.19 14.8196 1959 133.557 1340.95 411.314
1635 1 72.1874 12.7446 920 131.582 1340.99 445.848
1636 0 72.1777 13.2451 956 131.507 1340.62 444.224
1637 0 75.1495 11.0047 827 134.415 1339.71 446.404
1638 0 80.0983 13.7456 1101 130.533 1338.83 444.428
1639 0 80.2084 12.7169 1020 131.676 1339.25 450.026
1640 0 86.256 12.8571 1109 132.422 1337.9 443.743
1641 0 88.3192 24.4681 2161 114.499 1337.81 448.801
1642 0 92.3077 16.6617 1538 127.572 1337.26 441.249
1643 0 92.31 12.5447 1158 138.866 1335.51 445.263
1644 0 99.2852 14.0303 1393 131.76 1336.22 443.134
1645 0 102.305 15.0433 1539 128.904 1334.69 449.298
1646 0 104.536 12.5507 1312 135.988 1334.56 445.283
1647 0 105.215 13.9144 1464 133.806 1334.12 442.891
1648 0 109.311 16.3844 1791 129.461 1333.31 444.073
1649 0 118.346 10.9002 1290 136.101 1332.72 446.948
1650 0 117.235 17.7166 2077 128.538 1332.34 434.432
1651 0 118.246 14.3176 1693 134.82 1332.52 434.711
1652 0 123.223 16.4905 2032 132.875 1332.62 427.566
1653 0 127.576 12.5102 1596 138.102 1333.09 431.634
1654 0 134.304 15.6436 2101 133.349 1332.1 425.103
1655 0 137.492 14.1535 1946 136.07 1331.56 422.694
1656 0 139.469 10.9773 1531 142.165 1331.08 420.406
1657 1 215.496 15.2207 3280 138.213 1332.19 389.641
1658 0 216.456 15.0977 3268 141.034 1333.19 389.407
1659 0 211.511 6.42992 1360 149.769 1332.57 405.215
1660 0 208.401 7.29842 1521 143.263 1332.71 417.806
1661 0 212.569 7.83277 1665 145.161 1333.12 407.38
1662 1 91.2763 11.876 1084 137.797 1332.85 440.183
1663 0 94.2072 12.791 1205 136.495 1334.3 440.497
1664 0 94.2072 12.791 1205 129.237 1336.3 440.516
1665 0 97.247 12.4837 1214 139.736 1336.26 432.516
1666 0 104.206 14.3178 1492 136.414 1336.49 433.131
1667 0 107.242 14.9008 1598 135.341 1337.42 431.001
1668 0 110.117 13.4403 1480 139.705 1337.44 417.013
1669 0 114.166 12.8847 1471 140.254 1338.18 414.741
1670 0 114.166 12.8847 1471 148.258 1338.2 414.816
1671 1 213.416 7.59081 1620 143.748 1338.66 411.95
1672 0 212.368 7.16209 1521 150.398 1340.07 396.993
1673 0 212.462 8.86276 1883 155.761 1343.13 383.938
1674 0 218.508 13.0247 2846 142.953 1341.13 387.238
1675 1 74.106 12.5766 932 137.408 1340.16 448.893
1676 0 76.0985 14.2841 1087 133.827 1339.52 458.154
1677 0 79.0476 14.1687 1120 135.364 1339.77 456.396
1678 0 84.3315 14.0517 1185 135.175 1339.91 454.487
1679 0 86.2204 12.584 1085 137.282 1340.24 459.774
1680 0 90.1343 11.8157 1065 139.874 1338.74 455.705
1681 0 91.1974 13.553 1236 137.011 1338.34 456.68
1682 0 92.1306 13.1552 1212 138.939 1338.9 453.913
1683 0 92.129 13.2532 1221 144.069 1337.9 453.989
1684 0 98.2044 14.3171 1406 135.954 1337.53 453.876
1685 0 101.134 12.4389 1258 140.695 1336.7 448.69
1686 0 105.343 14.5905 1537 134.904 1335.62 451.91
1687 0 107.269 13.1818 1414 139.361 1334.94 445.262
1688 0 108.311 15.0123 1626 131.935 1334.85 448.246
1689 0 115.183 13.0836 1507 138.315 1333.12 444.093
1690 0 116.189 13.0305 1514 136.834 1331.1 443.956
1691 1 68.0778 7.56488 515 142.915 1332.64 463.373
1692 0 71.2058 13.8612 987 132.514 1332.38 460.593
1693 0 75.3233 10.9926 828 137.222 1332.65 457.046
1694 0 79.3885 13.6796 1086 132.599 1331.72 456.971
1695 0 80.2359 15.417 1237 130.669 1331.91 455.584
1696 0 82.3012 13.4141 1104 135.074 1332.2 451.852
1697 0 84.3904 12.5251 1057 136.671 1332.14 451.479
1698 0 88.4165 14.2507 1260 134.719 1331.3 448.202
1699 0 91.3095 14.8834 1359 134.601 1331.92 444.143
1700 0 94.3962 12.7124 1200 138.766 1331.96 443.725
1701 0 97.4307 13.2915 1295 138.931 1332.4 435.324
1702 0 99.3608 13.3654 1328 139.453 1333.13 437.207
1703 0 101.207 12.2818 1243 140.771 1332.47 437.762
1704 0 104.47 13.0468 1363 140.053 1332.76 433.304
1705 0 108.422 15.0431 1631 136.89 1334.19 426.849
1706 0 108.48 11.9653 1298 143.865 1334.52 427.367
1707 0 114.275 13.9663 1596 139.3 1335.97 429.605
1708 0 118.631 12.3661 1467 142.904 1336.43 425.207
1709 1 69.5441 9.79235 681 143.69 1336.68 448.414
1710 0 73.2497 11.9045 872 136.092 1337.7 453.722
1711 0 70.2389 9.39651 660 139.356 1336.36 450.033
1712 0 76.4806 14.9188 1141 132.625 1337.92 451.705
1713 0 76.4822 13.1795 1008 136.924 1338.6 448.804
1714 0 78.3825 11.3291 888 139.214 1339.44 450.251
1715 0 83.3521 12.1293 1011 138.23 1339.65 448.703
1716 0 88.2775 15.9724 1410 128.417 1341.02 452.743
1717 0 89.3938 13.7705 1231 133.682 1340.38 445.324
1718 0 92.2948 12.0267 1110 135.762 1340.21 441.349
1719 0 99.2235 14.301 1419 130.152 1341.25 443.085
1720 0 99.2235 14.1801 1407 117.775 1341.22 443.198
1721 0 103.322 16.3953 1694 127.557 1339.91 446.372
1722 0 105.539 13.0189 1374 133.663 1340.27 444.413
1723 0 102.484 10.0699 1032 140.64 1339.74 440.088
1724 1 59.2481 13.9245 825 126.897 1339.68 468.082
1725 0 59.1106 10.1843 602 133.555 1338.02 470.277
1726 0 62.1605 12.1138 753 127.459 1338.2 470.58
1727 0 62.1393 9.22121 573 133.848 1336.64 467.859
1728 0 64.0569 12.6606 811 131.016 1335.87 466.684
1729 0 65.0621 12.465 811 131.522 1334.6 465.848
1730 0 68.0675 11.4445 779 132.746 1332.58 467.746
1731 0 70.0563 13.4035 939 131.21 1333.53 462.47
1732 0 73.0833 11.1517 815 135.309 1333.13 465.983
1733 0 73.2172 10.9127 799 135.854 1332.57 464.745
1734 0 78.1126 13.9926 1093 131.144 1331.89 461.789
1735 0 79.0986 13.0091 1029 132.35 1332.23 462.098
1736 0 84.1303 14.846 1249 128.524 1331.23 458.341
1737 0 82.1066 13.1536 1080 126.973 1329.18 458.946
1738 0 86.1141 16.4317 1415 127.226 1330.13 457.114
1739 0 88.151 15.7911 1392 128.603 1330.78 454.555
1740 0 93.1517 15.7163 1464 127.861 1330.5 456.084
1741 0 95.0993 13.8592 1318 132.704 1329.97 448.761
1742 0 99.3273 13.4203 1333 133.65 1331.45 446.776
1743 0 103.183 14.2174 1467 132.378 1330.29 440.669
1744 1 56.0912 12.7114 713 128.753 1330.14 470.158
1745 0 57.0879 12.9274 738 128.485 1330.77 467.297
1746 0 59.0902 13.5894 803 127.573 1332.25 463.841
1747 0 61.0976 14.2722 872 128.273 1331.58 462.106
1748 0 63.2636 12.44 787 131.382 1332.84 463.832
1749 0 62.0564 12.3436 766 133.462 1333.31 461.317
1750 0 60.0436 10.9587 658 138.676 1333.9 456.29
1751 0 62.208 10.8507 675 133.044 1335.21 461.606
1752 0 71.0458 14.6525 1041 128.858 1334.95 454.726
1753 0 71.0957 10.7742 766 136.047 1335.51 453.155
1754 0 72.1535 14.677 1059 130.005 1336.9 453.704
1755 0 76.2814 13.8042 1053 131.944 1336.84 450.01
1756 0 78.1989 13.926 1089 131.131 1336.82 452.793
1757 0 82.0953 13.7279 1127 132.393 1338.23 447.993
1758 0 80.1998 11.409 915 137.162 1338.6 447.059
1759 0 87.1426 12.5541 1094 134.141 1339.49 449.021
1760 0 91.2061 10.8326 988 136.605 1339.95 452.46
1761 0 91.4115 11.1036 1015 137.653 1340.34 443.253
1762 0 92.1625 11.5231 1062 137.801 1339.84 447.685
1763 0 97.2291 15.1292 1471 131.628 1339.53 446.768
1764 0 98.2486 11.4811 1128 137.13 1339.48 450.216
1765 0 107.187 16.6066 1780 127.961 1339.17 448.808
1766 0 105.351 12.7383 1342 137.083 1338.73 438.638
1767 0 109.346 15.7665 1724 131.339 1338.54 439.938
1768 0 113.19 15.9908 1810 130.693 1338.74 443.82
1769 0 117.256 12.8864 1511 135.538 1337.37 446.249
1770 0 121.342 13.1364 1594 135.331 1337.16 440.98
1771 0 121.342 13.1281 1593 135.719 1336.17 441.051
1772 1 73.2204 8.3993 615 136.613 1335.34 467.806
1773 0 78.5219 12.2004 958 130.466 1336.04 465.656
1774 0 80.2625 11.7365 942 132.842 1334.4 462.082
1775 0 82.1228 11.6898 960 134.67 1332.96 462.428
1776 0 86.1503 11.7585 1013 135.219 1331.9 458.363
1777 0 89.1595 15.2311 1358 129.392 1331.59 453.97
1778 0 91.1898 13.4445 1226 132.759 1331.47 456.188
1779 0 94.2108 15.3273 1444 130.002 1331.26 453.074
1780 0 97.0967 16.4372 1596 128.988 1331.11 451.297
1781 0 98.2686 12.5676 1235 135.653 1330.96 450.661
1782 0 103.218 14.0963 1455 133.215 1331 446.693
1783 0 108.187 10.8886 1178 137.817 1330.08 449.43
1784 0 107.133 12.9465 1387 136.38 1329.1 440.89
1785 0 110.182 13.6864 1508 134.549 1331.36 443.249
1786 0 113.358 13.3118 1509 136.84 1331.38 436.791
1787 0 118.223 12.045 1424 136.993 1331.29 440.664
1788 0 117.335 11.301 1326 140.39 1331.7 427.636
1789 1 62.1241 8.62789 536 139.476 1333.05 455.373
1790 0 67.1005 12.0416 808 134.614 1332.76 452.563
1791 0 70.1175 13.677 959 129.375 1333.39 455.458
1792 0 76.1944 15.4867 1180 125.839 1333.88 449.687
1793 0 76.1829 15.2134 1159 115.971 1333.86 450.14
1794 0 76.156 11.3451 864 134.521 1335.16 447.471
1795 0 80.1021 12.6464 1013 132.143 1335.77 446.982
1796 0 82.1174 14.8568 1220 121.376 1336.92 450.331
1797 0 84.1008 11.7359 987 133.917 1337.12 447.163
1798 0 91.2268 12.1346 1107 132.572 1337.59 445.426
1799 0 90.0987 12.7305 1147 132.877 1337.76 444.373
1800 0 97.1563 12.8865 1252 131.117 1338.36 446.13
1801 0 102.137 10.4958 1072 133.783 1338.63 446.824
1802 0 103.433 13.197 1365 131.403 1338.32 437.983
1803 0 106.284 11.9397 1269 134.618 1338.7 439.628
1804 0 108.262 12.9593 1403 132.778 1339.17 435.203
1805 0 112.319 13.337 1498 128.198 1339.71 437.589
1806 0 114.246 11.2214 1282 131.389 1341.21 440.98
1807 1 62.048 13.2639 823 125.894 1339.33 463.974
1808 0 64.2435 10.9894 706 129.2 1339.56 467.826
1809 0 68.1338 12.8571 876 126.643 1337.51 463.836
1810 0 65.1192 10.0585 655 131.684 1336.59 465.553
1811 0 72.2099 17.5184 1265 118.8 1335.88 466.408
1812 0 77.1257 13.2641 1023 125.25 1336.95 463.687
1813 0 75.1648 14.0624 1057 124.992 1336.28 465.944
1814 0 80.1706 12.411 995 128.085 1336.06 462.484
1815 0 83.1838 12.6587 1053 127.045 1335.7 462.317
1816 0 84.2795 12.7433 1074 127.693 1334.19 458.555
1817 0 85.1386 9.88976 842 132.189 1332.9 460.112
1818 0 92.2048 12.7651 1177 127.932 1332.85 454.784
1819 0 95.1349 13.9486 1327 124.31 1332.65 459.006
1820 0 100.347 11.6396 1168 127.628 1332.1 457.602
1821 0 99.2221 10.0582 998 132.223 1331.87 449.783
1822 1 54.0649 9.96949 539 123.82 1330.56 476.223
1823 0 56.1715 10.735 603 125.66 1330.73 473.517
1824 0 59.1166 11.638 688 121.641 1330.68 470.244
1825 0 62.1094 11.8984 739 119.44 1331.35 471.773
1826 0 62.1706 15.0875 938 119.386 1330.61 465.503
1827 0 62.1653 15.6036 970 120.122 1329.74 462.738
1828 0 65.0807 11.5088 749 125.308 1330.52 459.037
1829 0 66.2159 14.7699 978 119.599 1330.92 464.215
1830 0 71.2671 15.6875 1118 118.33 1330.71 458.439
1831 0 73.1078 13.3775 978 121.8 1330.29 455.317
1832 0 70.3229 10.6793 751 127.261 1331.03 453.59
1833 0 76.2389 14.284 1089 119.68 1331.75 456.325
1834 0 73.1952 9.67277 708 128.669 1331.87 451.427
1835 0 83.2448 14.6436 1219 120.405 1332.25 450.063
1836 0 85.177 17.5165 1492 116.577 1332.82 442.899
1837 0 86.2233 11.5746 998 126.159 1333.51 439.9
1838 0 91.3211 11.3884 1040 126.262 1334.6 445.06
1839 0 94.4434 12.2507 1157 125.111 1335.59 441.912
1840 0 94.5078 11.8615 1121 126.385 1335.54 438.609
1841 0 99.4001 14.7585 1467 122.612 1336.26 435.954
1842 0 104.541 14.5684 1523 110.487 1337.19 439.45
1843 1 56.3369 13.3128 750 110.253 1337.4 459.717
1844 0 56.2748 10.2355 576 111.91 1337.62 463.559
1845 0 64.455 10.1932 657 110.997 1338.63 459.766
1846 0 62.4508 10.2321 639 132.072 1339.6 460.288
1847 0 64.455 10.2863 663 130.888 1340.62 459.861
1848 0 66.5147 11.8169 786 114.099 1339.32 459.542
1849 0 69.4878 14.132 982 110.274 1339.25 458.399
1850 0 69.4878 14.1895 986 125.416 1339.25 458.43
1851 0 72.3156 15.6398 1131 108.21 1338.79 462.248
1852 0 77.4689 16.8971 1309 105.573 1338.78 461.591
1853 0 77.3611 10.2636 794 115.272 1337.92 463.408
1854 0 81.3998 13.2801 1081 112.253 1337.82 459.551
1855 0 83.6519 11.5598 967 114.795 1337.72 460.518
1856 0 86.6049 14.3179 1240 111.875 1337.19 455.716
1857 0 92.5062 14.3126 1324 110.393 1337.05 458.145
1858 0 94.5343 13.2333 1251 112.234 1336.22 454.209
1859 0 90.5759 13.2706 1202 114.72 1334.61 448.113
1860 0 99.8918 13.7949 1378 110.739 1334.76 453.975
1861 0 102.656 17.1154 1757 106.127 1333.5 448.038
1862 0 106.42 10.2048 1086 117.369 1332.5 443.327
1863 0 108.511 11.5104 1249 114.991 1331.76 442.561
1864 1 63.3274 12.3169 780 109.577 1331.39 461.569
1865 0 65.3304 13.8527 905 107.278 1331.97 464.017
1866 0 72.5061 11.1991 812 111.709 1332.2 464.499
1867 0 71.688 14.87 1066 108.89 1331.78 461.347
1868 0 71.481 12.4089 887 112.401 1331.59 454.401
1869 0 73.455 18.8687 1386 103.646 1330.58 458.071
1870 0 76.4339 17.3222 1324 104.888 1330.71 458.486
1871 0 75.3178 13.1841 993 111.834 1331.18 452.018
1872 0 80.4471 13.2758 1068 111.106 1331.25 452.136
1873 0 84.4975 11.4205 965 112.391 1331.06 451.164
1874 0 86.6089 13.0472 1130 110.773 1331.11 453.226
1875 0 88.3739 19.1233 1690 103.264 1332.15 447.986
1876 0 90.4502 13.1232 1187 111.018 1333.21 442.486
1877 0 93.478 11.5749 1082 113.093 1333.88 442.521
1878 0 95.6379 15.8515 1516 107.884 1333.77 435.686
1879 0 95.6625 13.5685 1298 128.216 1333.67 437.911
1880 1 56.217 11.0109 619 112.063 1334.62 457.498
1881 0 57.0808 11.7377 670 112.201 1335.93 454.66
1882 0 57.181 11.6472 666 114.486 1336.12 449.592
1883 0 57.1891 11.6805 668 131.663 1336.11 449.564
1884 0 63.0822 13.0623 824 112.864 1336.35 442.534
1885 0 65.2637 12.5031 816 113.071 1337.41 443.586
1886 0 70.3992 13.8638 976 109.528 1337.77 440.529
1887 0 68.1214 10.1877 694 117.729 1337.27 436.303
1888 0 73.1858 14.1421 1035 110.987 1338.9 437.381
1889 0 73.1858 14.1831 1038 135.02 1340.92 437.227
1890 0 77.1958 13.4981 1042 112.177 1339.39 436.962
1891 0 77.1958 13.3816 1033 133.728 1337.43 436.85
1892 0 81.1969 15.0991 1226 110.388 1339.82 434.427
1893 0 82.3612 12.8094 1055 114.578 1339.66 439.27
1894 0 84.3077 15.4553 1303 112.152 1339.8 436.997
1895 0 86.3517 12.8544 1110 116.441 1338.97 435.739
1896 0 86.3517 12.9702 1120 139.888 1338.99 435.936
1897 0 92.275 14.6085 1348 115.043 1337.8 440.725
1898 0 98.3047 21.6368 2127 105.924 1337.35 440.448
1899 0 99.203 13.9512 1384 117.559 1337.34 443.349
1900 0 101.196 14.1112 1428 118.691 1336.4 441.662
1901 0 106.286 17.9892 1912 114.282 1336.23 441.296
1902 0 106.348 16.3707 1741 117.592 1334.18 433.818
1903 0 109.323 17.5443 1918 116.667 1334.08 427.515
1904 0 115.27 18.4003 2121 115.162 1332.69 428.995
1905 0 117.194 15.2056 1782 119.658 1333.51 432.823
1906 0 119.292 14.7872 1764 121.666 1332.22 429.433
1907 0 122.294 15.7408 1925 120.746 1332.22 420.26
1908 0 126.311 14.4405 1824 122.015 1330.16 425.358
1909 1 74.1057 9.08162 673 121.893 1330.66 460.92
1910 0 74.133 12.6125 935 119.552 1329.79 457.434
1911 0 79.1388 12.0295 952 119.68 1329.77 457.311
1912 0 79.1497 11.6993 926 121.255 1329.88 454.163
1913 0 84.1342 14.0133 1179 118.233 1329.87 457.265
1914 0 84.0786 18.2329 1533 111.794 1330.53 459.543
1915 0 87.17 14.0301 1223 119.55 1330.13 451.474
1916 0 87.17 14.1907 1237 140.231 1330.13 451.449
1917 0 89.1909 12.0977 1079 123.387 1330.06 444.412
1918 0 96.4373 12.827 1237 121.583 1331.09 445.019
1919 0 99.2187 16.5594 1643 115.483 1332.06 443.238
1920 0 104.551 15.3705 1607 116.613 1332.35 443.101
1921 0 106.335 14.5108 1543 116.907 1332.96 436.75
1922 0 110.404 17.2457 1904 112.128 1333.73 440.73
1923 0 112.473 15.2837 1719 118.379 1335.45 433.627
1924 0 116.293 14.1282 1643 121.96 1334.02 430.606
1925 0 119.517 13.2869 1588 123.489 1335.44 428.276
1926 1 67.31 11.3059 761 122.911 1336.13 455.016
1927 0 69.3715 12.988 901 119.65 1336.38 452.031
1928 0 71.4026 12.0864 863 120.148 1337.44 455.475
1929 0 75.2881 15.6598 1179 114.513 1337.34 452.986
1930 0 76.3816 13.93 1064 116.957 1338.87 452.797
1931 0 79.443 13.4814 1071 117.796 1339.31 452.204
1932 0 83.5737 11.3911 952 121.319 1338.9 447.195
1933 0 85.568 13.7318 1175 116.429 1339.82 451.126
1934 0 88.4622 13.5086 1195 115.067 1339.34 455.303
1935 0 91.3502 12.7203 1162 118.679 1339.79 446.941
1936 0 92.699 15.6097 1447 114.542 1340.34 449.104
1937 0 99.4145 12.9257 1285 117.29 1339.76 449.727
1938 0 101.81 15.7253 1601 112.772 1339.61 447.202
1939 0 102.45 13.2846 1361 115.608 1337.61 444.076
1940 1 59.4161 11.8655 705 115.214 1338.33 466.74
1941 0 59.1605 13.3028 787 113.593 1337.62 471.269
1942 0 61.0914 10.3943 635 117.666 1336.29 473.86
1943 0 60.2492 12.4483 750 116.153 1335.24 473.26
1944 0 63.1753 13.8345 874 114.032 1333.6 472.285
1945 0 69.4435 12.6578 879 114.693 1334.77 471.084
1946 0 70.3238 11.6319 818 116.033 1333.7 469.971
1947 0 72.2159 16.9769 1226 109.29 1332.87 468.535
1948 0 75.4444 13.5729 1024 114.049 1332.85 464.105
1949 0 77.3315 14.3797 1112 111.579 1332.92 465.675
1950 0 76.6543 13.8675 1063 115.35 1331.64 456.389
1951 0 80.39 18.8581 1516 108.869 1330.68 455.629
1952 0 80.39 18.8456 1515 117.293 1330.63 455.457
1953 0 84.2835 13.6326 1149 116.231 1330.87 456.352
1954 0 83.4822 14.9014 1244 115.66 1330.91 450.699
1955 0 82.5123 11.7073 966 120.11 1330.46 451.816
1956 0 90.5095 13.5234 1224 118.087 1330.66 447.79
1957 0 95.4866 19.0603 1820 109.762 1331.05 447.781
1958 0 95.4548 17.4114 1662 112.632 1330.6 444.016
1959 0 99.775 20.7166 2067 107.556 1330.92 443.094
1960 0 97.5419 16.1469 1575 115.345 1330.94 440.274
1961 0 100.601 17.4154 1752 114.655 1332.33 434.075
1962 0 106.35 15.7593 1676 117.146 1331.85 438.115
1963 0 104.477 14.7784 1544 119.532 1332.88 438.656
1964 0 109.381 14.7101 1609 120.849 1333.13 428.311
1965 0 111.422 16.5138 1840 119.282 1333.51 431.679
1966 0 114.368 14.3222 1638 123.75 1334.54 425.531
1967 0 118.378 13.119 1553 125.001 1335.37 426.642
1968 1 65.2069 8.94077 583 124.475 1336.44 457.542
1969 0 70.1855 13.5071 948 120.378 1336.75 451.506
1970 0 70.1841 13.4361 943 128.661 1336.75 451.522
1971 0 77.3939 15.8152 1224 118.605 1338.35 449.194
1972 0 78.3824 14.8375 1163 120.57 1338.15 448.131
1973 0 81.361 14.9334 1215 120.228 1339.06 449.18
1974 0 87.3245 16.8681 1473 115.66 1340.5 452.06
1975 0 88.2997 14.6886 1297 121.775 1339.76 439.255
1976 0 90.3318 14.4357 1304 123.602 1340.25 431.299
1977 0 92.2306 19.8849 1834 114.039 1339.5 440.863
1978 0 94.336 15.3812 1451 122.549 1340.76 442.66
1979 0 98.3982 17.0532 1678 118.946 1340.81 448.837
1980 0 102.296 14.2821 1461 125.339 1339.62 443.823
1981 0 105.298 13.1817 1388 126.851 1339.72 446.736
1982 0 111.352 18.024 2007 118.203 1338.85 450.409
1983 0 115.33 16.6133 1916 119.968 1338.79 448.961
1984 1 63.0988 8.16181 515 128.67 1336.8 473.233
1985 0 65.0395 12.5616 817 122.821 1336.63 469.07
1986 0 69.1173 14.4537 999 118.04 1334.24 466.135
1987 0 70.1097 14.0637 986 118.166 1334.5 469.606
1988 0 75.2667 16.9663 1277 113.64 1332.89 463.967
1989 0 76.2241 14.1819 1081 118.026 1333.47 466.765
1990 0 80.2837 14.4986 1164 115.802 1333.3 466.529
1991 0 82.1863 14.0169 1152 117.049 1332.65 463.37
1992 0 85.124 14.8489 1264 115.932 1332.44 459.559
1993 0 85.2431 14.2534 1215 117.428 1332.3 455.644
1994 0 86.1942 12.7039 1095 119.72 1331.35 454.946
1995 0 93.2678 13.9491 1301 115.912 1330.08 456.789
1996 0 94.1523 14.2747 1344 116.111 1329.81 451.876
1997 0 97.2406 13.8008 1342 117.899 1330.78 446.695
1998 0 101.152 13.3166 1347 117.517 1329.62 448.96
1999 0 105.164 13.0653 1374 117.525 1330.24 447.608
2000 0 101.355 14.2668 1446 116.506 1330.5 444.385
2001 1 59.0868 12.9809 767 112.731 1330.49 463.739
2002 0 59.1427 6.17151 365 122.808 1331.13 458.542
2003 0 64.1318 16.3102 1046 106.9 1332 465.375
2004 0 66.0784 11.5015 760 117.451 1331.35 459.504
2005 0 64.0938 11.764 754 119.143 1331.58 454.499
2006 0 71.1553 12.016 855 117.302 1332.82 456.386
2007 0 71.1274 11.9223 848 113.757 1332.84 456.416
2008 0 76.1694 10.516 801 120.909 1333.66 446.502
2009 0 79.0796 13.5812 1074 117.158 1333.83 448.656
2010 0 80.2095 10.6222 852 122.603 1335.1 448.48
2011 0 82.1227 13.5407 1112 119.29 1336.23 449.396
2012 0 87.0627 13.496 1175 119.328 1335.74 444.99
2013 0 92.1568 13.2058 1217 118.138 1337.45 449.052
2014 0 92.1943 10.5755 975 125.183 1336.15 440.62
2015 0 94.5716 16.0936 1522 116.559 1337.75 443.262
2016 0 99.2587 12.815 1272 121.429 1337.84 442.006
2017 0 101.258 11.9003 1205 123.561 1338.6 442.5
2018 0 104.1 16.4168 1709 116.671 1338.87 442.058
2019 1 167.405 10.9256 1829 122.166 1338.98 435.51
2020 1 111.189 16.0447 1784 117.345 1338.72 441.159
2021 1 67.1351 12.6163 847 119.686 1337.54 465.675
2022 0 67.1169 14.6014 980 117.767 1338.31 464.571
2023 0 69.145 12.3942 857 121.601 1337.86 467.543
2024 0 71.2133 13.0874 932 119.69 1336.81 466.102
2025 0 73.1643 13.5859 994 121.605 1336.47 462.401
2026 0 80.3103 13.1864 1059 121.116 1336.46 465.278
2027 0 79.3851 10.934 868 126.237 1338.1 461.225
2028 0 80.2044 13.316 1068 121.63 1337.21 466.681
2029 0 87.3127 15.5991 1362 116.257 1336.65 468.546
2030 0 85.3162 8.91976 761 129.272 1335.8 462.223
2031 0 86.1839 10.8373 934 127.803 1333.97 457.685
2032 0 85.1859 8.26428 704 124.865 1334.72 471.982
2033 0 86.247 7.17706 619 127.952 1333.8 470.998
2034 0 84.2348 5.12852 432 132.134 1333.95 470.315
2035 0 84.0723 8.44511 710 126.346 1332.91 467.49
2036 1 66.1004 8.80479 582 123.198 1332.98 475.84
2037 0 65.1774 9.85004 642 125.771 1331.57 472.945
2038 0 62.1776 8.71696 542 129.83 1332.05 470.216
2039 0 64.3951 10.8083 696 124.866 1331.51 471.602
2040 0 63.0933 11.7921 744 125.292 1331.61 469.648
2041 0 61.2229 10.6823 654 128.063 1331.1 467.847
2042 0 61.1893 11.9956 734 126.619 1331.71 467.373
2043 0 58.1195 6.48663 377 131.207 1330.93 471.239
2044 1 167.717 14.0832 2362 133.107 1330.4 409.713
2045 1 200.888 11.9121 2393 135.903 1330.82 408.135
2046 0 201.742 11.1578 2251 137.175 1331.76 404.024
2047 0 200.64 7.64554 1534 135.846 1332.09 422.67
2048 0 197.687 10.6481 2105 137.436 1332.09 391.548
2049 0 206.727 12.9301 2673 134.211 1332.01 389.917
2050 0 211.411 13.7552 2908 133.704 1333.13 384.435
2051 0 218.528 12.6986 2775 136.774 1334.41 373.021
2052 0 222.038 11.0792 2460 139.3 1335.06 375.67
2053 0 225.032 8.98984 2023 137.132 1335.35 399.765
2054 0 221.642 7.75125 1718 138.974 1336.5 396.143
2055 1 95.2023 11.8905 1132 127.475 1336 436.846
2056 0 102.366 13.1391 1345 124.335 1337.64 438.491
2057 0 107.174 12.2885 1317 126.641 1337.63 437.763
2058 1 58.1127 10.6345 618 124.294 1337.72 462.17
2059 0 60.2184 10.8937 656 125.466 1338.38 455.72
2060 0 61.2527 12.7668 782 124.91 1338.88 462.735
2061 0 63.1722 13.1387 830 124.727 1339.12 463.169
2062 0 63.1789 14.9892 947 122.497 1339.97 463.563
2063 0 63.2757 11.1891 708 132.414 1339.93 458.782
2064 0 66.2914 12.8523 852 128.21 1339.06 461.812
2065 0 70.1628 12.0149 843 129.062 1340.03 463.693
2066 0 73.2767 15.462 1133 124.746 1338.04 462.517
2067 0 72.2061 10.5531 762 133.711 1338.67 465.382
2068 0 76.3638 13.9988 1069 128.963 1338.04 461.591
2069 0 78.41 12.6514 992 131.611 1338.54 463.012
2070 0 79.4039 11.9516 949 134.664 1336.85 461.646
2071 0 85.3394 16.5809 1415 125.689 1335.7 463.212
2072 0 83.3123 12.3991 1033 137.719 1335.37 458.71
2073 0 82.4954 9.61265 793 138.686 1333.12 465.214
2074 0 82.5543 11.4349 944 138.421 1332.14 461.966
2075 0 80.277 9.91567 796 141.077 1331.28 460.554
2076 0 80.4086 11.8271 951 135.404 1330.71 464.338
2077 1 57.3649 9.46572 543 139.913 1331.99 470.611
2078 0 58.3076 11.7309 684 134.741 1332.11 473.057
2079 0 55.3025 12.9289 715 136.274 1331.37 468.555
2080 0 58.1958 11.8565 690 135.038 1330.47 470.367
2081 0 62.1561 12.2916 764 136.774 1332.04 467.131
2082 0 63.3806 12.2119 774 136.649 1330.07 465.941
2083 0 64.2755 13.3021 855 136.447 1331.05 462.446
2084 0 66.3244 14.2934 948 134.205 1330.86 463.062
2085 0 67.3301 12.357 832 136.815 1331.12 463.987
2086 0 72.2278 15.3265 1107 131.119 1330.77 459.354
2087 0 74.2099 17.8009 1321 125.802 1331.01 456.695
2088 0 73.2171 13.7946 1010 134.338 1331.67 457.87
2089 0 75.3426 14.746 1111 133.319 1332.61 453.143
2090 0 80.1711 11.8621 951 137.427 1332.39 451.025
2091 0 79.2007 16.2625 1288 130.14 1332.24 445.517
2092 0 83.3417 15.0945 1258 131.229 1333.16 446.1
2093 0 87.1375 15.8485 1381 129.692 1333.3 439.3
2094 0 89.2053 14.7861 1319 131.387 1334.78 438.879
2095 1 167.363 12.6193 2112 139.179 1335.38 405.733
2096 0 162.245 9.80617 1591 141.552 1337.02 412.383
2097 0 162.202 7.02212 1139 141.773 1337.54 426.279
2098 0 162.239 8.40117 1363 145.691 1337.54 414.069
2099 0 165.28 9.37199 1549 141.588 1336.92 419.648
2100 0 164.23 5.97334 981 146.608 1337.36 425.987
2101 0 169.457 9.3652 1587 141.511 1337.87 417.638
2102 1 110.234 13.553 1494 136.079 1339.06 427.508
2103 0 112.291 10.5618 1186 141.225 1338.08 426.576
2104 0 121.17 15.144 1835 131.058 1339 429.03
2105 0 121.17 15.0367 1822 128.161 1339.99 428.967
2106 0 126.239 12.3179 1555 134.749 1339.29 433.545
2107 0 125.233 12.2571 1535 139.575 1339.26 433.336
2108 1 79.1002 12.0986 957 131.285 1339.17 452.109
2109 0 81.1023 13.9577 1132 127.761 1337.54 452.445
2110 0 88.2297 15.4596 1364 123.974 1338.28 452.532
2111 0 88.141 8.99695 793 134.602 1335.59 457.402
2112 0 89.2387 12.9316 1154 129.886 1336.14 454.177
2113 0 92.1961 10.7597 992 133.658 1336.08 448.732
2114 0 99.1663 14.7832 1466 125.472 1334.67 452.778
2115 0 99.1663 14.8034 1468 126.123 1333.68 452.762
2116 0 96.2811 11.0302 1062 133.212 1333.36 449.926
2117 1 107.302 11.2672 1209 131.613 1332.5 446.5
2118 0 108.249 10.6514 1153 135.383 1332.46 437.598
2119 0 113.302 12.8241 1453 130.337 1332.85 442.658
2120 0 114.218 11.1016 1268 132.56 1330.49 441.201
2121 0 124.221 13.1138 1629 129.583 1330.94 436.357
2122 0 128.409 13.2389 1700 127.809 1330.84 439.524
2123 0 130.209 10.0454 1308 134.633 1331.26 424.813
2124 0 138.144 8.74451 1208 134.499 1330.31 436.238
2125 0 142.643 12.2614 1749 129.305 1330.73 433.963
2126 0 144.333 10.4619 1510 130.861 1330.11 435.005
2127 0 150.336 10.39 1562 131.438 1331.59 429.088
2128 1 89.2372 17.8961 1597 117.065 1329.96 452.94
2129 0 89.2079 11.2882 1007 126.647 1330.08 451.026
2130 1 164.41 11.745 1931 130.136 1330.41 415.901
2131 1 92.176 8.87433 818 131.022 1330.65 446.105
2132 0 97.1084 12.45 1209 125.151 1330.6 444.285
2133 0 101.074 14.6526 1481 122.172 1331.22 440.319
2134 0 103.321 11.0143 1138 127.914 1331.33 437.895
2135 0 107.318 12.4117 1332 124.098 1331.85 441.87
2136 0 109.129 13.5894 1483 123.526 1332.62 434.684
2137 1 61.1601 11.2655 689 123.686 1332.96 455.691
2138 0 62.2007 14.6944 914 119.043 1333.84 455.22
2139 0 64.2546 10.1938 655 126.376 1333.79 453.46
2140 0 68.3073 13.249 905 120.325 1334.63 455.716
2141 0 70.1136 12.5225 878 122.526 1335.67 455.636
2142 0 66.0364 9.46447 625 128.672 1335.76 452.062
2143 0 74.0414 11.3585 841 123.662 1336.14 454.106
2144 0 76.1509 10.3479 788 125.308 1337.65 454.685
2145 0 85.1718 12.7742 1088 121.013 1336.57 451.672
2146 0 85.1731 10.2262 871 124.674 1338.08 454.197
2147 0 86.2153 14.9857 1292 118.84 1339.18 454.306
2148 0 86.1968 13.1443 1133 120.965 1338.89 454.606
2149 0 90.1447 14.1328 1274 119.209 1338.42 454.315
2150 0 91.2214 14.4155 1315 120.925 1338.7 452.538
2151 0 96.2882 13.5011 1300 122.782 1338.31 450.593
2152 0 100.121 14.3226 1434 122.258 1337.35 450.722
2153 0 101.261 14.2207 1440 120.025 1337.44 455.592
2154 0 105.369 15.944 1680 121.498 1336.72 447.95
2155 0 108.135 12.3457 1335 126.714 1335.25 450.808
2156 0 112.337 14.0204 1575 121.455 1334.54 455.447
2157 0 115.2 14.0364 1617 121.699 1333.62 454.616
2158 0 120.235 14.3053 1720 121.738 1334.03 450.201
2159 0 120.255 14.1699 1704 136.951 1334.04 450.252
2160 0 130.404 19.0332 2482 115.515 1332.62 450.02
2161 0 129.388 9.86956 1277 129.904 1332.47 446.574
2162 0 138.421 14.2897 1978 124.061 1331.02 438.013
2163 0 141.38 15.6952 2219 122.961 1331.28 435.464
2164 0 144.245 12.6659 1827 130.072 1330.58 420.355
2165 0 152.318 12.0275 1832 130.153 1329.88 426.653
2166 0 151.424 11.8343 1792 130.992 1330.82 428.613
2167 1 91.1569 16.4222 1497 124.552 1330.26 446.51
2168 0 95.2126 15.7437 1499 125.313 1329.59 445.585
2169 0 101.473 15.8368 1607 124.8 1331.1 445.349
2170 0 100.279 13.6519 1369 127.755 1331.47 441.121
2171 0 102.249 10.8265 1107 132.844 1330.33 439.13
2172 0 109.244 12.6322 1380 130.257 1331.65 435.575
2173 0 111.199 13.0577 1452 129.385 1331.42 433.528
2174 0 114.223 15.3209 1750 124.443 1332.95 437.399
2175 0 115.208 11.6485 1342 132.198 1332.67 423.083
2176 1 68.1647 12.4111 846 124.472 1332.95 455.381
2177 0 68.1092 15.1081 1029 120.893 1333.34 460.475
2178 0 73.1956 14.2358 1042 122.548 1332.94 462.548
2179 0 73.1283 14.7959 1082 123.345 1334.08 459.76
2180 0 75.2233 13.1608 990 124.934 1334.98 459.311
2181 0 76.147 15.2206 1159 123.629 1335.63 453.881
2182 0 79.2092 16.0714 1273 122.203 1336.18 454.221
2183 0 83.3381 15.6951 1308 121.353 1336.36 455.506
2184 0 82.1692 12.5716 1033 127.638 1336.98 454.703
2185 0 86.2997 14.5308 1254 125.089 1337.73 454.523
2186 0 87.1624 10.4403 910 133.598 1338.45 449.318
2187 0 92.2593 15.9117 1468 122.801 1338.85 451.537
2188 0 96.3481 15.4232 1486 124.938 1339.58 447.321
2189 0 92.1141 13.7004 1262 128.064 1339.05 452.174
2190 0 99.1546 13.5647 1345 129.361 1339.73 444.261
2191 0 102.115 11.6829 1193 131.122 1338.84 450.252
2192 1 117.26 6.8651 805 135.043 1338.78 455.006
2193 0 118.246 8.88822 1051 133.956 1338.58 450.842
2194 1 64.0969 12.1691 780 128.928 1338.24 462.183
2195 0 65.1159 10.4429 680 132.003 1338.44 461.065
2196 0 68.1328 14.369 979 125.708 1337.59 467.619
2197 0 68.1193 12.2726 836 130.429 1336.43 466.957
2198 0 70.1903 11.8107 829 131.59 1338.2 466.128
2199 0 72.3124 15.0873 1091 125.416 1335.48 466.954
2200 0 77.1423 15.5297 1198 123.983 1335.58 464.765
2201 0 81.1677 11.7288 952 130.297 1334.43 465.372
2202 0 80.0386 12.2191 978 130.071 1334.01 464.695
2203 0 85.1428 15.0218 1279 124.291 1333.2 459.507
2204 0 90.077 15.9197 1434 121.933 1333.48 462.15
2205 0 92.2666 15.4986 1430 123.282 1332.13 458.175
2206 0 95.422 14.5669 1390 125.027 1331.16 453.247
2207 0 98.2234 16.3301 1604 121.988 1330.68 452.635
2208 0 100.339 13.4544 1350 126.17 1331.03 452.884
2209 0 104.165 13.469 1403 126.83 1329.42 444.545
2210 0 108.216 13.4731 1458 126.337 1330.08 442.999
2211 0 113.126 13.7104 1551 124.681 1331.24 444.415
2212 1 60.2229 11.6235 700 124.774 1330.16 465.906
2213 0 61.2169 11.8921 728 125.288 1331 462.337
2214 0 65.2148 12.0371 785 123.897 1330.4 463.739
2215 0 65.1863 14.0367 915 121.869 1331.73 459.558
2216 0 66.3358 13.3563 886 122.324 1330.93 461.237
2217 0 66.3358 13.3864 888 132.741 1329.91 461.088
2218 0 71.1734 14.1345 1006 122.166 1331.94 456.732
2219 0 72.2954 14.6621 1060 120.716 1332.62 457.843
2220 0 75.2486 12.9039 971 122.945 1333.33 455.596
2221 0 73.154 12.1251 887 127.78 1333.79 448.271
2222 0 77.2862 10.8169 836 128.513 1334.15 448.315
2223 0 77.275 9.31737 720 140.968 1334.26 449.942
2224 0 86.2271 15.1461 1306 121.595 1335.85 446.46
2225 0 87.2975 13.4826 1177 124.646 1336.22 442.348
2226 0 90.3271 13.7611 1243 124.083 1336.72 444.471
2227 0 93.2603 16.1162 1503 120.862 1336.9 438.611
2228 0 99.1889 14.5379 1442 122.915 1338.76 441.687
2229 0 101.246 8.69171 880 131.807 1337.9 444.801
2230 0 105.5 14.3887 1518 123.442 1339.88 437.395
2231 0 104.279 11.9487 1246 128.364 1339.91 440.104
2232 0 110.273 17.6199 1943 118.445 1339.3 440.686
2233 0 114.397 16.0406 1835 121.268 1340.56 437.3
2234 0 118.321 12.1703 1440 127.549 1340.34 438.281
2235 0 119.185 12.7449 1519 127 1339.5 440.412
2236 1 72.0613 14.3073 1031 122.196 1338.29 460.122
2237 0 75.3202 14.7504 1111 121.548 1337.46 459.287
2238 0 77.0812 13.5701 1046 125.16 1338.49 456.376
2239 0 81.1235 13.954 1132 124.247 1337.79 456.362
2240 0 81.1235 13.9047 1128 121.779 1337.77 456.4
2241 0 87.0813 12.0003 1045 128.286 1336.05 453.134
2242 0 93.0311 15.1455 1409 123.537 1336.34 450.65
2243 0 96.2165 15.1325 1456 121.889 1334.02 456.996
2244 0 96.2165 15.2884 1471 135.426 1331.99 457.042
2245 0 103.212 15.502 1600 122.978 1332.62 452.945
2246 0 105.109 14.1853 1491 127.308 1333.09 449.334
2247 0 109.245 14.4262 1576 127.083 1331.36 447.35
2248 0 113.304 16.2042 1836 124.837 1330.9 446.266
2249 0 115.236 12.8259 1478 132.264 1331.04 441.063
2250 1 64.1675 12.8881 827 124.474 1331.44 470.452
2251 0 63.2569 11.3031 715 130.126 1331.17 466.674
2252 0 65.2174 10.8253 706 132.157 1331.74 463.408
2253 0 71.1427 12.7209 905 127.651 1329.73 458.989
2254 0 73.1091 13.7876 1008 126.247 1330.46 460.653
2255 0 75.2615 13.6192 1025 125.027 1331.39 461.3
2256 0 78.2817 10.871 851 131.157 1331.34 456.337
2257 0 79.3496 13.5476 1075 126.384 1331.37 452.967
2258 0 85.7962 11.9819 1028 127.712 1331.07 452.568
2259 0 85.7784 11.996 1029 136.312 1330.09 452.477
2260 0 93.6872 17.9961 1686 116.83 1332.98 449.455
2261 0 93.5224 14.5099 1357 124.149 1332.89 448.345
2262 0 92.3832 10.3265 954 132.35 1333.87 444.008
2263 0 95.3824 17.4141 1661 122.449 1334.08 436.412
2264 0 102.474 13.3595 1369 126.4 1335 442.059
2265 0 102.581 14.2717 1464 126.878 1336.73 436.495
2266 0 105.583 12.2274 1291 131.667 1336.61 428.545
2267 0 109.427 14.8958 1630 126.546 1337.05 427.687
2268 0 111.528 13.4227 1497 129.077 1338.02 430.341
2269 0 113.56 13.1913 1498 129.368 1337.37 432.603
2270 0 118.465 15.4138 1826 123.618 1337.92 436.699
2271 0 125.511 14.2697 1791 125.65 1338.17 434.16
2272 0 126.586 11.8733 1503 121.646 1339.3 424.47
2273 0 133.47 13.9582 1863 117.578 1340.06 426.687
2274 0 132.572 11.473 1521 121.954 1340.44 427.828
2275 0 135.657 11.7355 1592 120.813 1341.1 432.108
2276 1 83.1877 9.9534 828 120.772 1340.28 457.083
2277 0 86.2118 15.4039 1328 111.8 1340 457.124
2278 0 87.1671 13.2619 1156 116.606 1339.16 453.497
2279 0 95.3036 12.4339 1185 117.078 1340.03 453.329
2280 0 94.2684 11.0854 1045 119.653 1337.92 452.678
2281 0 94.2744 13.8744 1308 137.362 1336.01 449.596
2282 0 102.362 12.9149 1322 117.861 1338.52 451.444
2283 0 106.34 10.4288 1109 118.524 1338.15 457.859
2284 0 106.327 10.4113 1107 137.042 1338.13 458.084
2285 0 106.347 10.3435 1100 136.575 1338.14 458.205
2286 1 117.32 11.9417 1401 119.898 1334.67 447.458
2287 0 118.235 13.4056 1585 119.548 1334.18 443.032
2288 0 121.288 11.6417 1412 122.46 1332.18 439.089
2289 0 128.289 12.8071 1643 120.954 1331.76 435.391
2290 0 133.248 11.6099 1547 122.303 1329.97 436.222
2291 0 133.217 11.8078 1573 122.144 1331.16 436.488
2292 0 137.206 12.893 1769 145.326 1331.23 433.19
2293 1 84.0461 9.68516 814 144.128 1330.91 462.24
2294 0 81.0701 13.2971 1078 116.27 1329.44 456.329
2295 0 87.3187 14.7506 1288 113.135 1330.03 454.937
2296 0 88.1097 12.9044 1137 116.657 1329.24 451.713
2297 0 90.274 14.6886 1326 115.101 1329.84 447.876
2298 0 95.3183 18.2756 1742 107.1 1329.5 455.511
2299 0 98.2252 19.1499 1881 107.169 1330.11 440.572
2300 0 100.291 12.713 1275 115.144 1330.33 445.425
2301 0 102.326 13.2126 1352 114.484 1331.07 445.686
2302 0 104.194 15.5959 1625 112.294 1331.94 435.476
2303 0 107.444 14.6029 1569 112.762 1331.7 442.274
2304 0 109.274 13.4158 1466 115.552 1332.17 435.316
2305 0 113.287 14.8826 1686 112.789 1333.57 436.735
2306 0 116.43 14.4378 1681 113.081 1332.99 438.28
2307 0 121.369 15.77 1914 111.664 1335.01 437.271
2308 0 123.486 16.4796 2035 112.655 1334.62 430.964
2309 0 126.278 14.3097 1807 116.452 1336 427.904
2310 0 126.278 14.2542 1800 144.136 1336.98 427.719
2311 0 126.286 10.7138 1353 122.13 1336.32 430.387
2312 1 202.6 15.7552 3192 115.746 1337.66 390.149
2313 0 200.643 7.43608 1492 125.941 1337.91 413.078
2314 1 83.4082 15.7059 1310 111.271 1337.8 452.835
2315 0 85.2494 16.1057 1373 113.122 1338.09 449.108
2316 0 86.4029 16.3536 1413 112.458 1338.51 452.495
2317 0 91.4141 16.7589 1532 111.735 1339.6 448.967
2318 0 93.3534 14.4183 1346 116.441 1339.49 444.172
2319 0 97.3186 16.0298 1560 113.676 1339.14 445.308
2320 0 100.452 16.6647 1674 113.056 1339.29 448.453
2321 0 103.382 16.8404 1741 114.367 1338.42 439.562
2322 0 109.252 18.2422 1993 111.416 1337.79 449.333
2323 0 110.28 16.6485 1836 116.062 1337.08 446.068
2324 0 113.463 18.0235 2045 115.042 1336.77 446.291
2325 0 117.282 14.9725 1756 120.195 1336.87 445.848
2326 0 122.413 14.5328 1779 120.572 1336.24 446.343
2327 0 121.259 14.2175 1724 123.087 1334.82 443.073
2328 0 128.182 13.7149 1758 124.357 1334.16 439.575
2329 0 132.219 17.7433 2346 117.599 1333.64 443.746
2330 0 136.443 13.8739 1893 126.418 1332.96 431.799
2331 0 142.372 15.5929 2220 122.607 1332.14 430.779
2332 0 147.425 14.855 2190 123.764 1332.11 431.044
2333 1 83.099 13.1289 1091 121.936 1331.14 460.793
2334 0 86.1983 14.0026 1207 119.357 1331.11 457.075
2335 0 89.2926 14.0997 1259 118.228 1330.08 457.15
2336 0 88.128 12.1414 1070 122.534 1330.87 459.439
2337 0 92.2939 14.2913 1319 121.924 1330.08 448.379
2338 0 95.1858 12.6594 1205 124.631 1329.29 445.745
2339 0 98.2459 14.9828 1472 121.27 1329.72 443.992
2340 0 97.4014 11.4885 1119 127.727 1329.96 440.835
2341 0 104.158 16.2062 1688 118.238 1330.04 444.295
2342 0 107.184 12.6791 1359 124.856 1330.14 439.037
2343 0 107.356 12.5471 1347 125.115 1330.24 438.694
2344 0 108.159 10.9098 1180 128.613 1331.53 435.561
2345 0 117.171 15.6011 1828 120.187 1332.7 432.775
2346 0 119.262 14.1117 1683 122.784 1332.36 429.075
2347 0 124.215 12.9131 1604 122.416 1332.67 430.704
2348 0 123.15 13.2278 1629 121.735 1332.74 432.098
2349 0 129.399 13.1995 1708 123.811 1334.27 422.612
2350 0 129.235 9.97406 1289 126.839 1335.71 432.638
2351 0 138.265 11.977 1656 126.944 1336.49 419.22
2352 0 144.349 13.1487 1898 125.991 1336.13 413.2
2353 0 151.426 14.0069 2121 124.014 1337.25 407.806
2354 0 157.286 20.1671 3172 114.399 1337.77 412.532
2355 0 162.426 13.3661 2171 124.756 1338.96 412.145
2356 0 168.377 14.7645 2486 122.778 1339.63 411.836
2357 0 172.417 14.6331 2523 124.549 1340.16 408.667
2358 0 178.549 14.5226 2593 124.501 1339.28 405.56
2359 1 206.522 11.5145 2378 124.329 1340.35 416.289
2360 0 207.412 12.7862 2652 124.1 1339.42 408.211
2361 0 208.413 12.1873 2540 125.809 1339.18 406.519
2362 0 210.445 12.5924 2650 126.978 1339.3 400.658
2363 0 209.718 12.9078 2707 129.198 1339.02 389.46
2364 0 209.718 12.884 2702 145.114 1338.01 389.523
2365 1 284.759 14.1137 4019 127.581 1337.48 364.009
2366 1 258.511 11.4347 2956 127.588 1337.49 379.897
2367 1 54.1117 12.6775 686 112.367 1335.66 478.784
2368 0 55.0396 10.9376 602 114.787 1334.19 478.475
2369 0 59.1486 12.3418 730 112.662 1332.52 475.722
2370 0 63.0783 13.7607 868 109.128 1331.56 476.482
2371 0 62.1974 10.338 643 114.995 1330 475.02
2372 0 66.1956 13.5205 895 110.156 1330.97 471.24
2373 0 68.1947 16.8928 1152 105.333 1330.08 473.352
2374 0 68.1104 11.8191 805 112.865 1329.26 473.335
2375 0 70.1546 13.8551 972 110.776 1329.19 473.135
2376 0 72.1128 12.8549 927 114.3 1327.99 463.542
2377 0 72.1128 12.7578 920 133.993 1327.01 463.588
2378 0 72.1128 12.6607 913 133.826 1325.98 463.696
2379 0 78.1646 14.124 1104 113.293 1328.6 463.11
2380 0 79.1803 12.541 993 116.22 1329.09 462.609
2381 0 83.1851 12.8509 1069 116.07 1328.58 456.502
2382 0 82.1986 11.7642 967 117.533 1329.19 458.699
2383 0 87.087 15.651 1363 113.375 1329.3 452.07
2384 0 90.1741 16.2242 1463 113.645 1330 455.056
2385 0 93.4056 12.0764 1128 119.578 1330.03 448.996
2386 0 93.252 12.3214 1149 119.232 1331.26 451.696
2387 0 97.2486 12.648 1230 118.639 1330.16 449.06
2388 1 55.1903 12.5384 692 116.105 1332.15 465.354
2389 0 58.2786 11.874 692 117.457 1331.55 464.454
2390 0 60.0932 15.0766 906 113.211 1331.44 463.022
2391 0 61.2125 12.3994 759 118.242 1333.79 463.955
2392 0 62.1186 12.0254 747 118.739 1333.58 467.195
2393 0 64.1012 17.2384 1105 113.893 1333.56 459.444
2394 1 93.2549 7.90307 737 124.034 1335.3 461.136
2395 0 94.3103 13.1269 1238 139.663 1337.26 448.653
2396 0 86.7802 16.2825 1413 107.774 1336.46 443.234
2397 0 88.5714 23.0774 2044 101.258 1335.35 451.059
2398 0 87.9567 17.304 1522 108.612 1336.83 441.296
2399 0 92.3905 19.2444 1778 107.112 1337.37 447.17
2400 0 93.3914 25.2057 2354 101.223 1337.35 447.904
2401 0 93.6236 28.6253 2680 99.2194 1337.66 444.938
2402 0 94.6432 19.7584 1870 109.885 1338.81 443.526
2403 0 96.5559 22.6915 2191 108.398 1338.37 451.812
2404 0 94.5258 16.5669 1566 119.882 1337.19 448.957
2405 0 94.5258 16.4188 1552 150.729 1336.2 449.081
2406 0 95.4522 13.0118 1242 129.534 1335.36 452.486
2407 0 99.1587 16.4686 1633 124.364 1335.17 454.47
2408 0 102.516 13.949 1430 128.958 1336.24 453.61
2409 0 107.552 14.9137 1604 127.925 1333.7 450.279
2410 0 108.291 17.73 1920 124.687 1333.6 450.18
2411 0 114.874 15.4081 1770 128.007 1332.31 443.637
2412 1 66.1297 16.2106 1072 121.706 1332.62 474.027
2413 0 68.2969 9.89796 676 130.459 1331.28 474.149
2414 0 70.458 14.9309 1052 123.943 1330.87 469.368
2415 0 73.3219 13.4748 988 126.719 1330.31 465.661
2416 0 76.5503 18.8765 1445 116.167 1330.46 467.368
2417 0 77.2666 14.0164 1083 125.724 1329.49 462.848
2418 0 78.2385 15.1077 1182 124.751 1329.66 456.939
2419 0 80.2311 15.6298 1254 124.71 1329.44 456.565
2420 0 85.3559 19.1902 1638 118.145 1329.2 456.534
2421 0 85.3559 19.2371 1642 127.978 1329.22 456.555
2422 0 92.3589 15.7862 1458 124.848 1329.26 449.872
2423 0 93.4631 16.1026 1505 125.081 1329.73 451.298
2424 0 97.4042 17.4941 1704 122.207 1329.49 444.716
2425 0 97.3822 17.4364 1698 125.794 1329.47 444.641
2426 0 97.3898 17.3427 1689 125.551 1329.45 444.626
2427 0 106.944 15.4474 1652 126.641 1331.36 438.45
2428 0 109.336 19.9569 2182 118.595 1330.86 440.284
2429 0 112.381 14.6644 1648 128.228 1332.07 433.012
2430 0 114.326 12.3069 1407 132.519 1332.4 431.568
2431 0 115.536 16.6702 1926 123.463 1333.05 433.143
2432 0 125.575 17.1611 2155 121.797 1333.86 425.238
2433 0 131.368 16.3815 2152 122.269 1334.05 424.597
2434 0 137.594 15.851 2181 123.171 1334.92 423.565
2435 0 140.772 15.8981 2238 122.75 1335.32 420.879
2436 0 139.557 11.5652 1614 130.546 1334.82 420.152
2437 1 89.6586 10.9527 982 125.496 1336.15 451.672
2438 0 89.5734 14.9821 1342 119.883 1336.57 449.583
2439 0 91.3718 12.0059 1097 126.056 1337.22 445.597
2440 0 94.1901 16.4773 1552 119.87 1336.49 441.842
2441 0 97.3846 14.8483 1446 122.683 1338.03 443.515
2442 0 97.2698 12.9742 1262 125.729 1337.07 446.943
2443 0 101.74 11.844 1205 127.646 1338.16 446.175
2444 0 106.532 13.6016 1449 125.881 1337.24 440.81
2445 0 112.543 16.0561 1807 120.772 1337.65 448.372
2446 0 113.392 16.5443 1876 122.256 1336.36 442.542
2447 0 120.449 13.7153 1652 126.165 1336.57 443.471
2448 0 127.567 15.4507 1971 123.393 1335.81 440.922
2449 0 132.52 16.4654 2182 122.71 1335.61 437.761
2450 1 76.4568 12.0983 925 125.496 1334.42 464.429
2451 0 78.3901 13.369 1048 122.285 1333.44 466.349
2452 0 80.3805 16.0611 1291 119.457 1333.35 463.273
2453 1 152.712 12.8215 1958 128.869 1331.68 428.188
2454 0 152.712 12.8281 1959 153.29 1329.67 428.247
2455 0 159.614 10.3562 1653 135.91 1331.46 422.921
2456 0 160.609 11.8736 1907 131.008 1330.21 430.814
2457 0 161.657 10.8501 1754 132.119 1330.13 431.634
2458 0 161.443 10.4495 1687 130.227 1329.82 437.534
2459 0 155.324 6.97254 1083 138.165 1329.37 436.252
2460 0 155.324 6.99186 1086 163.015 1329.38 436.493
2461 0 158.433 10.8942 1726 135.304 1329.29 421.629
2462 0 154.368 8.77775 1355 134.83 1329.52 436.475
2463 0 158.459 13.8648 2197 129.84 1329.66 424.603
2464 0 156.801 11.1862 1754 134.432 1329.27 428.45
2465 1 124.303 15.9288 1980 127.935 1329.16 431.364
2466 0 128.394 14.1284 1814 131.657 1330.32 428.001
2467 0 131.546 13.8202 1818 132.84 1330.38 425.473
2468 0 135.416 16.5933 2247 128.082 1331.24 423.405
2469 0 140.314 16.8978 2371 126.127 1331.79 428.976
2470 0 144.524 13.6102 1967 133.593 1331.89 419.568
2471 0 152.482 17.4709 2664 124.548 1332.72 423.138
2472 0 153.647 13.2511 2036 134.951 1332.62 412.413
2473 1 95.4328 13.6431 1302 128.36 1333.23 444.073
2474 0 96.3719 12.3065 1186 131.389 1333.95 443.501
2475 0 101.336 12.9076 1308 131.854 1334.32 439.313
2476 0 105.383 16.6915 1759 124.364 1335.31 438.524
2477 0 106.258 14.4177 1532 130.042 1335.62 433.454
2478 0 111.28 13.7851 1534 130.796 1336.09 434.155
2479 0 112.281 13.4039 1505 132.748 1335.29 432.519
2480 0 120.328 14.9259 1796 130.092 1336.97 432.071
2481 0 123.374 15.0437 1856 130.055 1337.1 427.765
2482 0 128.273 13.6506 1751 132.338 1336.98 429.626
2483 0 135.37 16.8944 2287 125.348 1336.71 431.846
2484 0 138.225 15.2577 2109 128.301 1337.92 429.43
2485 0 142.239 11.9728 1703 134.7 1336.36 427.324
2486 0 147.639 14.2239 2100 131.347 1336.55 420.826
2487 0 157.499 14.2096 2238 130.649 1336.29 422.322
2488 0 162.432 14.5168 2358 128.941 1335.86 422.137
2489 0 169.376 12.304 2084 132.99 1335.77 415.724
2490 0 174.284 11.2632 1963 132.002 1335.29 421.338
2491 0 182.428 10.5138 1918 134.873 1334.94 412.616
2492 0 187.418 10.1804 1908 133.884 1334.32 416.792
2493 0 194.415 12.5813 2446 133.706 1333.55 404.825
2494 0 201.325 13.0237 2622 132.407 1333.81 406.614
2495 0 210.371 13.7139 2885 131.558 1331.64 399.947
2496 1 224.492 8.79318 1974 138.897 1331.85 397.213
2497 0 224.476 12.8922 2894 132.844 1330.87 384.886
2498 0 232.592 15.1596 3526 129.166 1331.13 386.052
2499 0 241.548 14.345 3465 131.993 1330.52 382.018
2500 0 247.663 14.758 3655 130.875 1330.7 379.297
2501 1 67.3234 8.2438 555 117.214 1328.7 468.928
2502 0 66.2813 14.2423 944 113.708 1331.2 464.574
2503 0 69.0724 9.93161 686 120.532 1330.76 463.691
2504 0 67.0852 9.64445 647 121.445 1328.7 463.691
2505 0 73.1445 12.2497 896 116.905 1329.29 463.402
2506 0 75.092 16.4332 1234 109.221 1329.41 468.788
2507 0 72.1386 7.41628 535 128.271 1330.95 456.146
2508 0 79.1075 14.7647 1168 115.385 1329.17 458.334
2509 0 77.1102 13.3964 1033 132.977 1328.14 455.889
2510 0 84.2206 14.9251 1257 115.063 1332.12 454.809
2511 0 84.1396 12.1584 1023 121.471 1332.84 450.301
2512 0 86.3872 14.3771 1242 118.564 1332.95 453.448
2513 0 89.5308 13.7495 1231 119.63 1333.01 451.918
2514 0 91.2428 13.0202 1188 121.004 1331.99 452.219
2515 0 95.2437 14.6466 1395 119.473 1333.58 446.513
2516 0 96.1636 11.3972 1096 126.121 1333.33 436.358
2517 0 98.2133 12.6256 1240 124.664 1334.17 441.986
2518 0 101.473 15.0779 1530 120.78 1334.89 436.869
2519 0 101.473 15.0385 1526 143.261 1334.92 436.929
2520 0 107.64 18.4689 1988 116.441 1335.91 438.59
2521 0 108.687 12.4946 1358 126.304 1335.32 438.418
2522 0 105.634 9.26788 979 131.268 1337.15 439.99
2523 0 194.896 14.2076 2769 126.455 1336.87 398.843
2524 0 197.857 14.1061 2791 127.873 1337.81 398.478
2525 0 373.476 26.8986 10046 109.888 1335.8 299.895
2526 0 376.933 32.4647 12237 98.9066 1333.36 308.018
2527 0 376.551 18.0002 6778 114.731 1336.1 315.215
2529 0 380.861 17.576 6694 117.557 1335.8 316.397
2530 0 253.987 28.3164 7192 108.414 1334.87 366.388
2531 1 210.922 14.9676 3157 123.206 1334.35 403.338
2532 0 212.946 14.1444 3012 122.514 1334.32 412.126
2533 1 165.412 12.1575 2011 125.572 1332.82 425.892
2534 1 81.5903 11.0675 903 117.4 1331.39 462.488
2535 0 85.7214 12.0273 1031 116.255 1331.91 457.075
2536 0 88.4705 10.139 897 115.783 1331.16 462.338
2537 0 89.5805 13.6637 1224 113.166 1330.3 455.916
2538 0 92.441 10.5148 972 118.203 1330.33 450.734
2539 0 93.3365 13.1996 1232 115.586 1329.54 451.312
2540 0 100.359 13.6211 1367 113.463 1328.32 454.274
2541 0 101.402 12.1398 1231 116.552 1328.48 449.452
2542 0 103.319 13.5116 1396 114.631 1328.33 450.026
2543 0 107.391 13.0365 1400 115.039 1328.08 447.376
2544 0 109.401 10.6398 1164 119.443 1328.98 438.792
2545 0 112.403 15.2576 1715 114.164 1329.36 441.133
2546 0 116.405 12.3362 1436 118.585 1329.54 437.093
2547 0 116.363 11.954 1391 118.058 1329.42 441.796
2548 0 122.334 12.613 1543 117.206 1328.91 436.307
2549 0 125.421 12.3265 1546 118.466 1329.16 427.787
2550 0 129.458 15.1864 1966 113.185 1330.18 430.837
2551 0 135.374 12.6243 1709 116.829 1329.58 426.591
2552 1 80.4853 13.9404 1122 110.569 1331.62 450.102
2553 0 81.2761 13.2019 1073 110.454 1330.52 451.736
2554 0 84.1776 9.78883 824 115.982 1331.02 449.477
2555 0 84.1776 9.86011 830 117.908 1331.99 449.76
2556 0 87.3594 9.87873 863 116.457 1332.14 446.005
2557 0 90.1778 10.5791 954 116.128 1333.31 444.659
2558 0 95.2277 12.5384 1194 112.131 1334.42 446.644
2559 0 98.2481 14.1784 1393 108.76 1335.33 446.882
2560 0 101.204 14.0607 1423 110.172 1334.58 439.275
2561 0 102.19 12.8486 1313 112.179 1335.82 443.249
2562 0 107.495 15.7217 1690 110.086 1335.09 437.764
2563 0 107.222 10.8933 1168 116.633 1337.18 436.159
2564 0 107.222 10.9492 1174 128.994 1339.2 435.903
2565 0 114.367 9.5832 1096 117.515 1337.49 443.406
2566 1 205.595 13.0061 2674 122.433 1337.19 387.942
2567 1 132.501 10.2565 1359 111.392 1336.71 451.171
2568 0 132.377 9.40499 1245 117.517 1336.58 439.705
2569 0 133.436 9.93736 1326 116.637 1335.71 440.956
2570 0 133.301 13.0306 1737 113.6 1335.68 435.701
2571 0 135.238 12.2376 1655 114.768 1336.47 435.859
2572 0 143.581 18.7559 2693 104.747 1335.41 441.599
2573 1 152.25 10.4631 1593 116.591 1334.97 436.696
2574 0 148.257 14.7717 2190 113.029 1333.66 422.878
2575 0 152.232 13.821 2104 114.205 1333.69 423.669
2576 0 156.225 9.99842 1562 120.173 1332.29 415.56
2577 0 156.224 11.8483 1851 117.086 1331.95 423.727
2578 0 167.342 13.6965 2292 114.101 1330.72 422.442
2579 0 172.287 12.0439 2075 115.265 1331.25 426.164
2580 0 175.244 10.8706 1905 119.196 1330.78 407.428
2581 0 182.39 13.6794 2495 116.606 1329.52 406.273
2582 0 185.214 12.58 2330 118.806 1329.9 395.748
2583 0 195.346 17.0262 3326 111.374 1329.78 401.132
2584 0 198.57 14.7655 2932 113.993 1328.88 396.759
2585 0 203.633 11.3341 2308 116.329 1327.74 401.128
2586 0 210.501 15.5962 3283 109.904 1328.59 398.73
2587 0 214.461 14.4735 3104 112.404 1328.33 390.154
2588 0 221.659 14.6622 3250 112.944 1328.86 383.944
2589 0 229.516 9.59847 2203 119.864 1328.86 376.095
2590 0 237.825 14.8302 3527 113.111 1328.71 372.049
2591 1 181.634 15.2394 2768 109.224 1330.35 404.168
2592 0 184.312 13.4391 2477 112.909 1330.79 402.792
2593 0 190.559 13.9589 2660 113.059 1331.34 397.23
2594 0 194.586 13.9733 2719 114.617 1331.94 374.339
2595 0 201.408 18.1473 3655 108.049 1331.68 380.213
2596 0 207.558 15.3355 3183 111.283 1332.36 387.302
2597 0 212.341 15.2632 3241 113.511 1332.18 365.761
2598 0 222.319 15.2574 3392 110.808 1333.4 371.211
2599 0 227.497 15.3145 3484 111.807 1335.05 365.346
2600 0 233.448 14.0417 3278 113.696 1335.37 365.968
2601 0 242.48 19.4614 4719 108.096 1335.4 362.719
2602 0 250.646 16.6929 4184 111.072 1335.89 366.901
2603 0 257.415 14.7855 3806 113.958 1336.49 362.508
2604 0 266.555 14.7024 3919 113.915 1336 362.374
2605 0 277.481 14.5704 4043 113.367 1336.44 349.824
2606 0 285.542 19.3457 5524 106.865 1335.29 349.347
2607 0 327.543 6.89986 2260 126.277 1336.07 332.489
2608 0 329.739 7.76979 2562 123.802 1335.61 338.491
2609 0 330.652 8.03865 2658 125.285 1335.63 314.209
2610 0 339.947 17.2498 5864 110.678 1335.56 318.809
2611 0 353.723 30.4815 10782 96.7189 1334.34 317.512
2612 0 363.745 18.8869 6870 107.405 1334.92 309.998
2613 0 377.142 20.7959 7843 105.922 1334.64 313.68
2614 0 372.756 14.9106 5558 111.82 1334.33 331.618
2615 0 371.674 10.0195 3724 118.623 1332.81 322.827
2616 0 372.664 10.1486 3782 116.799 1332.38 334.956
2618 0 379.556 17.8393 6771 109.658 1330.48 289.849
2620 0 372.831 12.0698 4500 116.94 1330.05 275.194
2622 0 379.871 33.1507 12593 93.75 1329.11 309.29
2623 0 375.717 24.9177 9362 102.471 1328.42 293.547
2625 0 365.651 21.2197 7759 105.409 1328.45 284.583
2628 0 368.94 19.0925 7044 108.668 1328.44 288.617
2629 0 373.965 20.0153 7485 106.778 1329.24 290.333
2630 0 372.862 18.9454 7064 107.315 1329.13 288.281
2633 0 416.479 17.0237 7090 72.1543 1323.37 272.575
2634 0 424.031 20.1943 8563 71.4444 1321.48 318.719
2635 0 429.107 32.57 13976 67.5947 1319.99 329.443
2636 0 421.243 26.8942 11329 69.9798 1317.79 304.369
