time division length width area intensity CMx CMy
0 0 68.1406 17.9335 1222 121.12 1344.51 432.104
1 0 77.7903 22.1493 1723 115.457 1345.82 435.051
2 0 70.1539 15.9791 1121 122.708 1347.23 432.321
3 0 75.6563 15.3986 1165 119.879 1347.66 437.127
4 0 76.1781 20.5046 1562 116.558 1347.91 436.445
5 0 81.6211 18.6226 1520 118.624 1348.33 432.143
6 0 79.1924 19.5726 1550 116.534 1347.59 439.548
7 0 82.2994 18.3355 1509 119.266 1346.9 435.537
8 0 84.0829 17.673 1486 122.172 1346.29 429.779
9 0 90.7436 21.963 1993 114.585 1343.68 437.212
10 0 90.2923 22.4272 2025 118.825 1343.4 427.272
11 0 91.4 28.0416 2563 116.519 1342.6 425.228
12 0 91.2821 20.6503 1885 124.969 1341.73 427.11
13 0 99.381 19.5711 1945 125.15 1340.78 430.945
14 1 48.2049 10.2064 492 136.293 1340.83 449.996
15 0 50.1838 9.26594 465 140.658 1339.53 450.649
16 0 55.0632 13.3665 736 136.52 1337.8 450.298
17 0 55.1888 13.9521 770 143.405 1334.65 446.238
18 0 57.0724 15.6643 894 139.211 1333.19 445.856
19 0 57.0996 12.627 721 147.456 1332.92 444.809
20 0 58.1391 14.7233 856 148.588 1331.53 440.443
21 0 62.2229 17.2284 1072 141.493 1331.74 439.762
22 0 65.1781 17.8894 1166 140.284 1331.57 438.979
23 0 66.1968 16.3452 1082 144.066 1330.81 435.14
24 0 66.1132 15.9575 1055 145.809 1330.79 433.458
25 0 68.1244 15.1194 1030 147.056 1331.12 431.631
26 0 70.2264 13.1005 920 150.035 1330.98 431.445
27 0 72.1612 14.7309 1063 145.782 1331.3 429.629
28 0 75.2183 15.8605 1193 139.981 1332.24 429.141
29 0 78.1063 13.1872 1030 140.476 1333.33 428.437
30 0 81.3167 18.9506 1541 129.382 1334 425.917
31 0 85.4182 17.9002 1529 125.067 1335.78 426.864
32 0 86.2748 16.2968 1406 121.543 1337.74 425.651
33 0 90.1724 15.1488 1366 122.225 1339.42 421.561
34 0 92.5776 19.3675 1793 116.726 1340.13 425.828
35 0 96.2246 17.0123 1637 117.688 1343.27 425.202
36 0 98.2129 13.5726 1333 118.14 1344.32 430.105
37 0 106.833 21.3605 2282 111.906 1344.24 425.525
38 0 108.456 24.2955 2635 109.933 1344.86 424.797
39 1 56.4475 26.9986 1524 101.44 1344.88 451.544
40 0 58.2693 10.503 612 115.284 1343.65 445.636
41 0 63.149 18.1159 1144 108.667 1345.11 447.94
42 0 60.1009 18.1861 1093 112.162 1345.16 442.925
43 0 62.0453 12.378 768 120.418 1343.42 443.095
44 0 65.118 12.5772 819 122.466 1343.23 443.287
45 0 71.3148 16.322 1164 114.019 1341.3 447.74
46 0 71.1506 17.6527 1256 116.319 1340.2 444.93
47 0 71.1705 14.1351 1006 126.852 1338.77 438.453
48 0 75.1593 15.7665 1185 124.316 1337.65 440.947
49 0 78.1053 18.6159 1454 120.03 1336.4 443.836
50 0 79.193 16.3903 1298 126.752 1335.31 439.311
51 0 82.0991 16.1269 1324 127.741 1334.27 433.643
52 0 86.0779 12.1983 1050 138.51 1332.9 435.215
53 0 88.1047 15.8675 1398 132.86 1332.38 431.519
54 0 92.2627 17.2659 1593 128.659 1331.37 430.59
55 0 92.3532 13.4917 1246 136.635 1330.34 426.87
56 1 49.1202 10.8713 534 131.283 1330.52 449.687
57 0 51.1171 13.3224 681 128.824 1328.54 447.046
58 0 49.2152 14.7109 724 130.008 1329.22 444.061
59 0 55.0866 12.8888 710 130.41 1329.71 446.062
60 0 56.0883 13.3005 746 129.354 1329.56 443.799
61 0 59.2453 18.9551 1123 120.124 1329.68 441.369
62 0 60.092 17.207 1034 119.338 1330.24 443.661
63 0 67.7449 23.4852 1591 110.949 1331.09 439.272
64 0 63.2632 16.0599 1016 118.428 1333.77 442.598
65 0 64.318 13.1223 844 121.365 1334.92 436.966
66 0 68.2772 13.3573 912 117.489 1338.03 436.66
67 0 73.4818 17.4329 1281 108.903 1339.93 442.052
68 0 72.3327 20.7513 1501 108.549 1341.54 435.263
69 0 74.3053 14.4135 1071 108.783 1342.86 444.327
70 0 75.5388 23.6038 1783 103.566 1343.36 441.164
71 0 78.4182 13.9381 1093 111.771 1343.94 437.664
72 0 82.3703 13.4393 1107 109.586 1344.54 442.223
73 0 86.13 11.204 965 115.07 1344 432.525
74 0 86.13 11.1808 963 144.691 1343.01 432.754
75 0 93.741 25.5384 2394 105.178 1343.16 434.87
76 0 90.3125 14.5384 1313 116.46 1342.93 428.973
77 0 97.3148 18.8461 1834 110.56 1342.5 437.192
78 0 101.242 14.6481 1483 115.145 1341.85 437.5
79 1 49.1261 13.5162 664 113.127 1341.65 457.655
80 0 49.2454 12.9352 637 114.033 1340.6 459.148
81 0 50.0564 14.0441 703 117.189 1339.44 453.661
82 0 57.1644 13.6973 783 118.992 1338.26 453.567
83 0 54.0784 17.715 958 116.454 1336.02 449.651
84 0 54.1186 13.1563 712 124.142 1334.7 455.645
85 0 57.2862 24.8751 1425 108.769 1333.46 456.992
86 0 60.2309 14.7433 888 125.117 1332.05 452.114
87 0 60.1808 17.3976 1047 121.845 1331.15 449.411
88 0 63.3167 19.6473 1244 117.899 1330.08 447.05
89 0 59.2151 14.878 881 128.259 1329.82 444.859
90 0 62.2901 16.8245 1048 124.551 1328.62 443.427
91 0 64.1917 14.8617 954 134.049 1328.73 441.592
92 0 66.2833 16.4446 1090 130.927 1328.44 438.35
93 0 70.1994 15.3705 1079 131.41 1328.68 439.884
94 0 69.4087 14.8541 1031 133.739 1328.3 439.685
95 0 73.3131 21.8515 1602 119.915 1328.79 443.13
96 0 70.1582 12.5288 879 138.521 1329.29 434.127
97 0 75.3888 19.2469 1451 126.54 1331.08 430.803
98 0 79.42 13.4853 1071 128.678 1332.78 434.603
99 0 80.499 15.2548 1228 125.577 1334.45 431.294
100 0 82.2785 14.2078 1169 127.132 1336.01 428.781
101 0 88.3386 20.7837 1836 115.032 1337.62 433.953
102 0 89.8601 18.9517 1703 115.948 1338.88 430.925
103 0 91.3923 16.5441 1512 113.679 1340.75 433.867
104 0 96.6069 21.0337 2032 113.856 1341.58 424.807
105 0 95.3778 16.7859 1601 114.977 1342.54 430.202
106 1 49.1807 9.2516 455 118.938 1343.31 447.701
107 0 50.2083 6.33361 318 121.937 1343.9 445.997
108 0 54.1582 18.5383 1004 104.47 1343.04 451.311
109 0 55.1401 17.4827 964 110.316 1343.82 454.237
110 0 55.083 11.292 622 118.849 1342.86 453.215
111 0 59.0446 12.3127 727 118.076 1342.33 452.75
112 0 60.2821 13.2378 798 117.771 1341.48 450.929
113 0 61.1 12.5859 769 125.029 1340.27 448.07
114 0 61.2305 13.8166 846 124.307 1338.92 450.838
115 0 62.1623 11.1322 692 128.855 1337.38 448.048
116 0 67.2692 20.6335 1388 114.795 1336.2 445.727
117 0 68.2019 13.3867 913 127.103 1334.53 444.497
118 0 74.3303 14.9603 1112 118.777 1332.61 447.171
119 0 75.2242 14.7293 1108 121.532 1331.23 444.043
120 0 73.3515 11.1654 819 125.201 1330.14 445.266
121 0 77.1462 21.8417 1685 113.361 1328.47 438.872
122 0 76.142 17.5856 1339 111.975 1327.37 436.202
123 0 74.1396 14.2973 1060 117.813 1326.43 439.737
124 1 87.3067 19.609 1712 114.986 1325.71 424.401
125 0 90.426 30.2347 2734 106.909 1324.97 432.277
126 0 90.211 12.637 1140 127.933 1325.42 429.677
127 0 99.4134 17.3518 1725 118.477 1325.6 431.929
128 1 51.101 13.033 666 121.321 1326.3 448.426
129 0 54.1631 12.2777 665 120.72 1325.76 445.877
130 0 52.3603 12.414 650 118.36 1325.34 444.098
131 0 57.2942 11.8337 678 117.465 1327.26 443.535
132 0 57.2789 11.7495 673 127.166 1329.27 443.478
133 0 65.428 22.3146 1460 104.91 1332.05 441.003
134 0 60.0775 14.4147 866 111.606 1334.36 446.15
135 0 65.2191 14.5816 951 109.33 1336.39 444.624
136 0 72.2476 20.2083 1460 103.297 1337.71 445.463
137 0 70.557 29.7774 2101 99.6326 1338.1 442.029
138 0 73.3968 24.0337 1764 102.363 1339.16 443.33
139 0 71.35 26.1528 1866 101.924 1339.19 442.033
140 0 81.2934 19.4727 1583 102.227 1339.77 450.86
141 0 77.2235 23.5939 1822 102.844 1339.13 446.789
142 0 88.5605 23.0012 2037 102.646 1338.74 442.878
143 0 88.7557 14.4329 1281 111.436 1338.86 442.746
144 0 89.3166 17.1301 1530 111.233 1338.35 446.832
145 0 95.4583 20.0402 1913 112.243 1337.6 437.954
146 0 93.3004 28.3814 2648 107.901 1335.81 435.017
147 0 94.3941 16.1875 1528 120.378 1335.36 435.073
148 0 96.4882 14.0224 1353 131.557 1334.18 431.511
149 0 102.235 15.8068 1616 125.561 1332.05 431.777
150 0 102.235 15.797 1615 136.292 1330.04 431.789
151 1 57.1929 13.9703 799 121.901 1330.62 457.681
152 0 58.1241 15.3809 894 119.089 1326.48 453.814
153 0 62.5765 17.3068 1083 116.603 1327.56 452.079
154 0 63.6912 18.0088 1147 113.425 1326.06 455.18
155 0 62.1887 14.4078 896 120.048 1325.52 448.723
156 0 64.4304 13.3788 862 127.246 1324.78 449.237
157 0 64.1173 15.2221 976 126.712 1323.61 442.614
158 0 71.1904 19.1458 1363 117.704 1323.18 444.558
159 0 72.2736 14.2514 1030 123.683 1323.45 445.41
160 0 73.3088 16.6419 1220 123.564 1323.38 436.828
161 0 78.2672 18.8968 1479 118.032 1323.1 441.575
162 0 78.2672 18.7562 1468 140.663 1324.1 441.631
163 0 83.4015 32.949 2748 105.523 1323.92 437.853
164 0 87.6516 19.2809 1690 113.827 1325.69 439.875
165 0 87.3359 21.8238 1906 113.11 1327.11 435.689
166 0 87.3359 21.8352 1907 137.166 1328.16 435.894
167 0 90.1896 25.779 2325 109.281 1329.11 430.269
168 0 93.5105 14.362 1343 117.951 1331.71 429.192
169 0 97.8323 24.3989 2387 108.318 1332.6 428.168
170 0 97.8323 24.6647 2413 130.644 1334.56 428.039
171 1 159.31 30.5506 4867 109.264 1334.82 405.18
172 0 165.82 19.7021 3267 119.809 1335.68 400.155
173 0 171.717 19.8699 3412 120.568 1336.57 403.018
174 0 175.72 17.5336 3081 124.966 1337.39 397.595
175 1 117.77 15.7596 1856 126.156 1337.45 422.128
176 1 62.3391 14.6297 912 119.423 1337.4 450.842
177 0 64.1458 19.7831 1269 114.921 1336.5 454.157
178 0 64.2058 13.0985 841 127.654 1335.88 448.981
179 0 66.1313 11.583 766 132.171 1335.29 450.29
180 0 69.1466 16.2698 1125 126.164 1334.2 449.056
181 0 70.3675 13.1169 923 135.854 1333.19 447.849
182 0 73.1844 13.8691 1015 133.934 1331.53 446.401
183 0 78.1488 17.0828 1335 124.905 1329.96 448.387
184 0 78.2573 11.3983 892 134.991 1328.39 446.109
185 0 81.2972 15.2773 1242 132.154 1326.47 440.529
186 0 84.179 16.3342 1375 130.851 1325.5 441.088
187 1 46.087 12.0641 556 130.565 1324.83 460.164
188 0 47.0862 12.6789 597 132.633 1324.36 456.903
189 0 51.2023 18.8663 966 119.301 1324.49 454.011
190 0 53.0953 13.6735 726 126.767 1323.9 455.226
191 0 57.2176 13.0904 749 125.773 1324.15 454.549
192 0 54.0994 16.7285 905 122.892 1322.39 452.284
193 0 57.1329 14.0025 800 129.135 1322.73 450.301
194 0 55.1403 13.9644 770 131.283 1323.19 449.355
195 0 60.1756 17.7314 1067 122.285 1322.15 450.189
196 0 58.0991 13.2704 771 134.992 1322.93 445.3
197 0 59.093 13.3688 790 132.548 1323.73 444.541
198 0 61.0806 12.3444 754 134.338 1325.63 445.171
199 0 66.1377 16.5564 1095 122.338 1326.99 447.5
200 0 69.2099 15.3735 1064 124.842 1328.23 442.195
201 0 71.3069 24.3314 1735 111.436 1329.77 445.281
202 0 71.1569 15.8663 1129 121.977 1332.03 442.918
203 0 73.1873 16.287 1192 124.278 1333.61 436.576
204 0 76.2349 25.8412 1970 112.684 1334.69 437.8
205 0 79.0501 14.7248 1164 124.48 1336.47 437.524
206 0 81.3439 15.6619 1274 123.986 1337.14 437.819
207 0 85.3039 17.889 1526 122.884 1337.65 444.623
208 1 44.0594 11.5299 508 126.065 1338.23 456.531
209 0 44.0428 10.4217 459 128.593 1337.51 457.752
210 0 50.0533 9.62973 482 128.178 1337.59 458.637
211 0 50.1985 11.1756 561 131.153 1334.57 458.67
212 0 49.1528 12.2475 602 131.89 1333.14 454.849
213 0 52.4466 12.7749 670 130.301 1333.4 457.903
214 0 53.0847 9.13634 485 134.332 1334.44 450.379
215 0 53.0847 9.1175 484 134.651 1334.43 450.539
216 0 60.2435 15.8191 953 127.194 1331.64 454.424
217 0 60.2954 12.87 776 132.2 1330.56 455.469
218 0 62.1703 21.039 1308 119.051 1328.77 450.966
219 0 61.1141 13.8921 849 134.033 1327.53 449.74
220 0 62.062 12.2619 761 135.593 1326.12 452.033
221 0 69.4498 15.3348 1065 128.21 1325.21 451.126
222 0 67.0826 13.297 892 133.244 1324.09 450.02
223 0 67.0826 13.3269 894 133.21 1322.1 450.155
224 0 70.1387 13.4305 942 134.357 1322.69 444.677
225 0 72.1284 14.0999 1017 135.035 1321.64 442.558
226 0 75.3487 14.2139 1071 134.474 1321.21 442.828
227 0 76.5358 14.0457 1075 137.051 1321.15 438.861
228 0 78.7117 18.3835 1447 129.133 1321.14 436.475
229 0 81.1853 14.9904 1217 129.702 1321.49 433.786
230 0 86.5579 13.2628 1148 131.145 1322.14 431.975
231 0 86.3208 16.624 1435 122.07 1322.83 431.558
232 0 91.6724 14.5409 1333 123.984 1325.31 428.164
233 0 93.8121 13.0687 1226 129.155 1326.3 423.866
234 1 45.28 11.5062 521 123.816 1328.71 446.71
235 0 45.3275 11.3397 514 120.858 1329.92 449.107
236 0 53.783 10.5424 567 117.122 1332.27 453.43
237 0 51.4759 8.74195 450 119.618 1333.98 453.264
238 0 57.3722 13.8046 792 108.335 1334.4 454.497
239 0 54.15 12.1145 656 115.309 1333.65 450.389
240 0 54.15 12.2807 665 128.209 1335.68 450.317
241 0 57.2348 16.9652 971 115.281 1335.09 449.288
242 0 61.2055 14.6392 896 116.292 1334.58 455.887
243 0 62.1103 14.1361 878 121.671 1334.1 451.36
244 0 63.149 12.1775 769 127.131 1333.46 453.871
245 0 63.0759 14.6014 921 122.346 1333.33 457.251
246 0 63.0759 14.6014 921 124.221 1333.38 457.202
247 0 69.3302 13.3275 924 127.238 1331.11 452.003
248 0 71.4081 16.1326 1152 122.398 1330.06 451.592
249 0 72.2001 15.9695 1153 126.501 1329.23 445.937
250 0 76.3233 15.6964 1198 122.195 1327.95 451.865
251 0 80.3364 16.518 1327 122.353 1326.15 445.78
252 1 43.0896 10.9539 472 128.136 1323.56 463.701
253 0 45.048 12.1648 548 131.938 1323.07 461.693
254 0 46.0539 11.6603 537 129.477 1321.55 460.769
255 0 46.081 9.02757 416 135.476 1320.11 459.195
256 0 51.3365 15.2718 784 123.818 1319.47 459.436
257 0 51.0942 13.9938 715 128.722 1319.07 456.021
258 0 54.1288 13.9852 757 124.716 1318.87 455.495
259 0 53.1209 16.9989 903 125.148 1318.82 453.783
260 0 53.1044 13.0309 692 134.162 1318.25 450.298
261 0 57.1864 13.832 791 127.709 1317.95 450.587
262 0 61.4217 23.9004 1468 109.696 1318.66 451.761
263 0 59.2517 14.3962 853 125.7 1318.44 444.211
264 0 57.2874 11.0321 632 129.899 1319.56 445.253
265 0 65.4109 13.5757 888 122.224 1321.11 447.921
266 0 65.2356 16.0189 1045 119.598 1323.64 442.194
267 0 69.6592 23.012 1603 110.477 1325.28 441.934
268 0 69.3754 14.8179 1028 118.901 1327.58 445.828
269 0 72.3426 21.412 1549 109.107 1330.07 440.946
270 0 74.1927 17.8589 1325 112.732 1331.63 438.851
271 0 78.1776 14.4415 1129 116.268 1332.48 440.182
272 0 80.4108 25.6682 2064 105.717 1333.81 443.612
273 0 84.616 20.9771 1775 110.607 1333.89 440.918
274 1 44.0767 11.7296 517 119.366 1333.64 458.859
275 0 43.1313 11.523 497 120.932 1333.33 460.026
276 0 44.0302 16.2843 717 117.418 1333.78 459.152
277 0 45.1453 14.2872 645 123.541 1332.95 455.558
278 0 47.1392 13.9374 657 121.457 1332.43 460.918
279 0 48.2955 13.3139 643 127.236 1331.5 458.493
280 0 48.3014 13.6435 659 128.267 1330.29 457.974
281 0 52.0981 15.3748 801 124.745 1329.47 456.901
282 0 54.1275 16.6828 903 122.966 1327.91 457.637
283 0 55.0875 19.9864 1101 117.349 1326.66 453.985
284 0 55.3529 14.9044 825 122.861 1324.89 457.262
285 0 58.4116 16.0927 940 122.445 1323.66 456.371
286 0 59.0978 15.1613 896 125.818 1322.7 454.252
287 0 62.2664 14.7752 920 125.81 1321.23 452.366
288 0 63.166 16.7653 1059 121.901 1320.37 448.398
289 0 63.1596 13.6321 861 129.305 1319.44 449.415
290 0 65.1735 16.7706 1093 137.098 1318.49 450.857
291 0 71.3669 17.8094 1271 120.543 1319.22 446.165
292 0 70.2988 15.5337 1092 125.959 1318.47 442.527
293 0 73.0969 16.2387 1187 126.127 1318.57 438.475
294 0 76.0593 13.6998 1042 128.534 1318.34 441.815
295 1 41.0581 12.6163 518 126.322 1318.63 455.639
296 0 45.1026 11.0858 500 123.446 1320.65 457.356
297 0 46.3571 13.094 607 119.542 1322.52 458.226
298 0 46.085 15.3412 707 112.888 1323.04 459.934
299 0 50.1523 20.7369 1040 108.422 1324.19 456.159
300 0 50.0916 13.7748 690 118.7 1326.13 454.367
301 0 51.1213 16.5489 846 114.52 1327.6 454.009
302 0 53.1912 17.1833 914 117.676 1329.98 453.062
303 0 59.7767 18.268 1092 115.8 1332.39 454.186
304 0 52.0505 11.8154 615 128.893 1333.09 451.41
305 0 57.2595 15.7703 903 124.414 1334.89 453.137
306 0 59.1713 16.1227 954 121.827 1335.26 454.113
307 0 62.1014 16.9884 1055 120.932 1336.03 450.923
308 0 60.0831 13.0153 782 130.251 1335.8 452.436
309 0 62.0718 14.3866 893 130.106 1335.5 450.428
310 0 66.1649 18.0307 1193 124.873 1334.5 447.682
311 0 69.0852 15.8789 1097 128.727 1334.36 451.602
312 0 70.4205 13.9874 985 133.678 1333.45 451.446
313 0 74.2712 14.4605 1074 134.105 1332 451.095
314 0 74.2234 15.3456 1139 135.186 1330.47 447.756
315 0 78.5046 17.4512 1370 131.055 1329.1 446.212
316 1 45.0862 13.7293 619 127.489 1327.69 466.806
317 0 43.1141 9.13855 394 129.769 1327.2 463.472
318 0 43.1142 9.27768 400 147.52 1326.15 463.455
319 0 47.181 10.9578 517 126.547 1324.56 458.855
320 0 50.1993 13.2074 663 133.567 1323.86 460.275
321 0 48.1175 13.5086 650 131.283 1322.06 457.778
322 0 53.3615 18.1966 971 117.732 1321.44 460.283
323 0 53.3615 18.1779 970 134.94 1319.4 460.284
324 0 53.109 11.8436 629 131.151 1320.69 454.789
325 0 59.1792 15.6981 929 120.832 1321 455.38
326 0 61.1854 25.2184 1543 110.854 1320.06 452.671
327 0 58.1161 14.0065 814 129.929 1320.45 448.501
328 0 62.2441 16.4514 1024 122.715 1321.39 449.605
329 0 64.2979 17.3878 1118 120.531 1321.28 447.631
330 0 67.4043 15.5035 1045 120.905 1321.79 446.963
331 0 69.4973 17.5546 1220 115.829 1322.89 449.247
332 0 69.4843 13.8305 961 121.9 1323.99 440.366
333 1 207.859 15.5875 3240 122.128 1325.38 390.8
334 1 144.812 18.4239 2668 116.406 1327.25 415.086
335 1 42.1184 15.1003 636 110.28 1329.01 457.631
336 0 46.3542 12.2535 568 114.192 1330.36 457.498
337 0 42.2049 8.98 379 119 1330.99 456.768
338 0 50.7665 15.6008 792 109.904 1332.4 454.981
339 0 47.2158 11.8393 559 116.064 1334.57 459.848
340 0 49.215 21.335 1050 109.604 1335.36 456.248
341 0 49.0564 14.0655 690 118.751 1335.56 460.416
342 0 55.5058 20.0159 1111 110.421 1335.73 462.014
343 0 51.1089 13.4223 686 122.019 1335.88 460.63
344 0 51.1006 14.7748 755 139.07 1335.03 458.703
345 0 55.0473 15.5503 856 143.805 1334.89 459.339
346 0 55.0578 14.8026 815 147.748 1333.44 458.906
347 0 56.229 14.7077 827 149.079 1332.31 460.845
348 0 56.2304 14.654 824 143.655 1330.34 460.735
349 0 59.1603 17.5624 1039 145.423 1328.84 456.244
350 0 62.13 15.5802 968 150.829 1327.69 455.222
351 0 63.1599 14.4079 910 153.604 1326.6 455.122
352 0 66.2256 16.5042 1093 148.697 1325.33 453.011
353 0 68.1153 15.9436 1086 148.758 1323.95 454.498
354 0 72.1474 15.995 1154 148.539 1322.58 450.353
355 0 73.2079 15.2443 1116 149.423 1321.38 447.911
356 1 40.0625 9.95944 399 152.607 1321.24 465.784
357 0 41.0708 15.5829 640 145.942 1321.02 459.941
358 0 42.0767 11.8593 499 150.958 1320.29 459.697
359 0 42.0387 10.2049 429 151.548 1319.96 462.128
360 0 42.0802 10.0522 423 150.993 1320.21 459.208
361 0 46.0874 14.9499 689 136.996 1319.43 452.824
362 0 47.295 15.7945 747 133.89 1318.48 452.114
363 0 49.1669 14.3389 705 126.048 1320.39 453.837
364 0 51.1959 17.4819 895 119.94 1321.58 453.073
365 0 52.0603 15.0787 785 120.452 1322.19 453.266
366 0 55.1907 20.4745 1130 112.723 1324.62 450.581
367 0 55.1907 20.4926 1131 124.651 1325.66 450.428
368 0 57.0972 12.9253 738 120.783 1327.91 448.108
369 0 60.1976 13.2563 798 119.258 1330.54 448.753
370 0 62.3766 18.4204 1149 112.35 1332.08 452.13
371 0 62.3246 14.2801 890 118.853 1332.6 448.13
372 0 69.1809 26.8138 1855 105.324 1333.57 443.321
373 0 68.3728 19.5984 1340 112.466 1333.79 445.659
374 0 71.2817 17.6623 1259 116.707 1334 448.099
375 0 72.2393 14.6319 1057 122.005 1334.01 443.282
376 0 74.1339 11.9918 889 121.782 1333.53 452.013
377 0 77.2173 20.5394 1586 116.72 1333.15 446.18
378 0 80.1881 16.4488 1319 122.933 1332.49 449.5
379 0 81.1442 15.2814 1240 126.819 1331.25 444.621
380 0 85.2128 17.9903 1533 124.688 1330 444.911
381 0 87.2037 15.7906 1377 127.755 1328.92 445.187
382 0 90.2758 15.1757 1370 132.426 1328.03 441.785
383 1 51.1498 11.3588 581 136.062 1325.98 462.126
384 0 53.1431 16.4085 872 123.086 1324.49 460.763
385 0 56.0741 11.574 649 128.063 1323.31 463.646
386 0 56.1697 11.8925 668 129.238 1322.04 458.298
387 0 58.1454 14.2402 828 127.551 1321.59 459.033
388 0 59.1935 11.4202 676 130.428 1320.89 455.257
389 0 58.1836 13.234 770 130.236 1319.71 453.648
390 0 61.2218 12.3159 754 128.558 1320.25 450.428
391 0 66.2748 14.2739 946 123.393 1319.34 451.142
392 0 66.2787 13.6846 907 126.709 1319.55 443.001
393 0 71.312 14.5698 1039 124.692 1319.55 444.003
394 0 74.4788 15.0513 1121 123.893 1320.31 439.295
395 0 77.2356 17.7509 1371 119.349 1320.71 440.657
396 0 79.4505 14.6003 1160 122.685 1320.8 440.794
397 0 86.5766 20.8833 1808 109.439 1321.97 442.939
398 0 83.1823 10.5311 876 121.449 1322.64 438.003
399 0 97.4097 20.5832 2005 107.525 1324.28 436.955
400 0 90.1442 12.8239 1156 117.595 1326.69 431.543
401 0 100.275 17.2126 1726 111.229 1328.74 431.203
402 0 97.2634 12.8414 1249 117.055 1329.97 428.357
403 0 102.342 20.7636 2125 105.848 1330.9 438.9
404 0 108.417 18.687 2026 111.766 1332.82 427.576
405 1 56.0723 13.6431 765 104.586 1334.85 463.736
406 0 59.2156 20.1129 1191 104.581 1334.4 454.991
407 0 60.0616 14.8015 889 125.178 1334.88 455.803
408 0 63.1149 16.0659 1014 108.464 1335.28 456.889
409 0 63.2834 13.3684 846 120.58 1334.46 453.845
410 0 63.0814 10.7639 679 127.982 1333.78 455.395
411 0 68.1831 14.8277 1011 121.736 1333.38 454.591
412 0 71.1888 12.6284 899 127.199 1332.58 454.813
413 0 70.2914 12.4197 873 132.115 1331.29 452.283
414 0 73.3264 16.6788 1223 126.53 1329.95 446.065
415 0 78.4467 13.4869 1058 128.619 1329.07 452.14
416 0 78.4467 13.5251 1061 141.376 1327.08 452.128
417 0 82.3496 18.0207 1484 128.716 1327.2 445.411
418 0 88.5122 16.0091 1417 126.964 1325.45 446.188
419 0 89.174 16.0697 1433 131.546 1323.94 442.496
420 0 89.2655 13.3198 1189 135.415 1322.12 439.421
421 1 55.3331 12.4519 689 132.756 1322.63 459.151
422 0 52.2256 12.0247 628 131.365 1321.99 458.868
423 0 52.1887 7.99024 417 137.815 1320.88 458.674
424 0 59.354 9.41806 559 133.61 1321.01 458.268
425 0 58.5499 12.2801 719 126.798 1320.11 455.797
426 0 60.1261 15.3511 923 125.738 1320.03 450.983
427 0 64.3968 15.389 991 127.526 1317.88 448.832
428 0 65.2971 17.183 1122 122.07 1317.61 450.536
429 0 66.1433 15.3152 1013 123.921 1319 447.862
430 0 66.4062 14.2155 944 127.605 1319.86 447.184
431 0 68.3283 13.8595 947 128.612 1321.28 446.567
432 0 70.218 12.3615 868 129.657 1322.61 444.515
433 0 70.218 12.3757 869 153.849 1323.6 444.708
434 0 74.3072 13.3769 994 126.975 1328.7 443.423
435 0 81.7491 20.1837 1650 116.332 1330.29 442.419
436 1 40.3686 10.4784 423 128.948 1332.05 455.979
437 0 47.6863 12.3725 590 122.546 1334.48 459.2
438 0 43.2197 15.7799 682 116.155 1334.14 460.44
439 0 47.0934 17.4971 824 114.87 1335.42 461.676
440 0 45.1939 9.40393 425 131.741 1336.71 461.567
441 0 48.3095 15.0281 726 122.799 1336.76 459.325
442 0 47.1682 10.982 518 131.506 1336.59 459.631
443 0 50.1395 12.7444 639 130.194 1335.43 459.809
444 0 49.1734 14.7234 724 132.269 1335.74 458.849
445 0 53.1794 14.6861 781 131.904 1334.47 459.933
446 0 53.2473 13.0335 694 138.999 1333.32 460.924
447 0 54.0795 14.1643 766 143.44 1332.17 458.151
448 0 56.262 13.1528 740 143.959 1330.99 457.564
449 0 59.266 15.1352 897 136.771 1329.22 455.464
450 0 60.3055 13.3155 803 139.306 1327.57 457.968
451 0 63.4301 14.6303 928 137.381 1326.19 454.762
452 0 66.5919 14.8366 988 134.891 1324.88 456.094
453 0 66.2777 15.0578 998 131.81 1323.26 454.727
454 0 69.4361 15.2658 1060 131.417 1321.92 452.897
455 0 71.3079 13.9115 992 128.131 1320.87 451.001
456 0 74.4188 15.2112 1132 127.709 1318.76 444.686
457 0 76.0881 14.3781 1094 129.118 1318.89 443.767
458 0 76.0881 14.4438 1099 136.788 1318.88 443.83
459 1 44.0333 12.5814 554 122.863 1317.4 461.648
460 0 40.095 10.924 438 130.393 1317.72 458.936
461 0 45.1347 17.0157 768 118.727 1320.16 456.591
462 0 46.3643 13.9547 647 118.164 1320.68 460.141
463 0 46.112 16.6768 769 113.68 1319.82 458.017
464 0 48.138 16.245 782 113.513 1320.03 453.226
465 0 48.138 15.9957 770 128.566 1321.12 453.213
466 0 53.3215 17.9102 955 114.647 1323.56 451.536
467 0 53.2215 19.6161 1044 114.467 1325.97 454.314
468 0 55.3091 15.0247 831 120.084 1327.74 453.795
469 0 56.1319 15.909 893 118.599 1330.14 452.594
470 0 59.2084 16.0112 948 118.55 1331.57 452.707
471 0 58.1649 13.2554 771 124.136 1332.5 452.911
472 0 60.2816 12.4748 752 126.509 1332.3 452.028
473 0 61.1996 14.2158 870 126.306 1333.57 450.29
474 0 66.3101 14.7338 977 125.998 1333.53 450.299
475 0 67.2393 13.9056 935 130.061 1333.3 450.338
476 0 69.1097 14.1803 980 131.341 1332.45 449.679
477 0 72.241 11.9461 863 137.614 1331.95 451.684
478 0 73.2073 17.2251 1261 129.615 1331.6 449.857
479 0 76.1875 15.7637 1201 133.713 1331.13 449.563
480 0 75.1785 12.0114 903 139.833 1329.9 447.651
481 0 81.1904 16.5291 1342 133.25 1328.8 447.276
482 0 83.262 15.9737 1330 132.521 1328.46 446.411
483 1 45.1052 11.0409 498 137.135 1327.63 465.337
484 0 46.0832 11.566 533 136.09 1326.03 462.85
485 0 46.1363 9.94877 459 137.002 1324.81 465.776
486 0 53.3272 14.7767 788 126.401 1323.2 462.627
487 0 51.0555 16.1197 823 122.254 1322.36 464.038
488 0 52.0343 12.4149 646 138.221 1321.78 456.085
489 0 56.3832 15.1109 852 129.539 1320.34 454.818
490 0 56.2594 11.0204 620 137.911 1320.57 455.484
491 0 59.1795 14.7517 873 126.801 1320.6 453.329
492 0 61.334 13.777 845 127.863 1320.39 451.334
493 0 63.1989 14.1458 894 126.616 1320.61 446.989
494 0 65.1624 16.1903 1055 121.41 1320.19 444.377
495 0 68.2545 17.0538 1164 119.279 1320.42 439.824
496 0 74.9854 15.323 1149 119.826 1321.96 444.943
497 0 73.2546 17.9374 1314 118.166 1322.55 439.038
498 0 72.2747 13.1443 950 124.144 1324.02 438.149
499 0 81.5112 17.838 1454 113.517 1325.38 442.141
500 0 77.4786 13.5909 1053 122.126 1327.2 435.802
501 0 81.2805 11.6264 945 124.572 1327.24 437.09
502 0 81.2805 11.774 957 137.8 1328.17 437.07
503 0 89.4707 14.6417 1310 122.354 1331.13 432.613
504 1 45.1982 12.7439 576 119.689 1331.71 454.821
505 0 48.2564 12.1227 585 121.202 1332.26 454.456
506 0 50.0863 12.7779 640 118.734 1333.08 458.23
507 0 53.2719 13.7408 732 117.276 1333.34 457.892
508 0 54.1776 17.4242 944 113.162 1334.04 458.587
509 0 55.4277 15.3533 851 117.175 1333.6 458.524
510 0 54.0869 13.8851 751 124.218 1333.08 455.41
511 0 56.2336 14.3509 807 123.506 1332.71 456.561
512 0 58.2279 15.0615 877 124.252 1331.77 456.887
513 0 59.1824 10.3071 610 133.695 1330.25 458.479
514 0 62.1562 13.9487 867 128.348 1329.85 454.856
515 0 62.0748 16.3512 1015 125.857 1327.96 452.014
516 0 63.1266 12.9739 819 130.437 1326.97 453.441
517 0 68.1466 13.0748 891 127.575 1324.81 452.367
518 0 68.231 14.0992 962 124.801 1324.89 451.162
519 0 69.3123 15.5384 1077 121.824 1323.65 447.599
520 0 73.2316 16.1679 1184 121.009 1322.69 444.91
521 0 73.4052 12.8056 940 127.389 1322.07 444.169
522 0 75.1586 15.0881 1134 122.318 1320.83 443.768
523 0 80.1382 15.6105 1251 122.815 1320.38 441.763
524 0 82.1381 18.4689 1517 117.436 1319.53 438.041
525 0 88.4101 15.3602 1358 120.244 1319.72 437.395
526 0 86.4782 15.1252 1308 121.249 1319.84 433.576
527 0 90.2471 13.6182 1229 123.055 1320.26 435.078
528 0 91.3901 12.4412 1137 125.188 1320.77 431.086
529 1 44.1805 11.2719 498 124.289 1321.91 454.064
530 0 47.3725 12.9189 612 123.325 1323.29 452.585
531 0 48.2807 18.2889 883 108.851 1324.17 455.395
532 0 53.6705 14.0301 753 115.24 1325.64 450.542
533 0 54.2753 15.7714 856 111.828 1327.55 449.084
534 0 55.3198 13.2864 735 116.15 1329.31 450.494
535 0 58.3209 14.0944 822 114.504 1331.54 450.951
536 0 63.5052 15.983 1015 112.866 1332.4 447.245
537 0 57.2187 13.597 778 119.108 1332.94 446.378
538 0 60.312 12.9162 779 120.483 1334.6 447.431
539 0 68.6877 13.8016 948 117.745 1335 448.729
540 0 68.6877 13.787 947 136.048 1335.99 448.61
541 0 69.2575 16.1138 1116 118.175 1335.59 450.018
542 0 70.2789 15.6092 1097 122.989 1335.56 448
543 0 70.2145 12.7609 896 128.117 1335.23 451.175
544 0 73.3608 13.9039 1020 129.515 1334.55 449.351
545 0 82.2896 18.5443 1526 121.767 1333.06 453.147
546 0 77.2735 17.4963 1352 126.949 1331.12 449.773
547 1 47.0599 13.3659 629 130.579 1331.16 465.583
548 0 45.0304 11.3035 509 136.515 1329.31 462.365
549 0 49.113 13.1941 648 133.522 1328.22 461.491
550 0 47.2625 9.94446 470 136.721 1326.96 464.032
551 0 48.1885 11.206 540 136.102 1325.51 462.194
552 0 51.3745 15.4551 794 127.729 1323.09 455.427
553 0 52.2672 15.8034 826 127.254 1322.38 455.485
554 0 54.1179 13.1934 714 132.374 1323.13 457.829
555 0 60.1129 17.5004 1052 121.529 1321.96 453.547
556 0 56.0951 15.8124 887 126.964 1321.17 452.157
557 0 60.0424 14.1234 848 127.219 1321.39 451.666
558 0 60.0665 14.5672 875 126.173 1321.32 447.473
559 0 64.3091 15.6121 1004 120.75 1321.27 449.228
560 0 65.1605 13.1521 857 125.103 1320.58 444.503
561 0 65.1605 13.0907 853 122.491 1319.59 444.475
562 0 69.2632 16.0547 1112 116.353 1320.84 448.555
563 0 73.5931 18.5479 1365 115.955 1322.72 443.73
564 0 73.2588 16.6669 1221 116.541 1323.05 443.265
565 0 77.5164 15.7902 1224 116.731 1324.47 441.429
566 0 80.3137 17.5313 1408 112.092 1326.46 443.322
567 0 79.4561 11.8934 945 122.931 1328.43 436.307
568 0 82.1444 12.9163 1061 118.333 1330.66 441.13
569 0 88.3533 17.5771 1553 114.243 1332.61 438.684
570 0 88.2149 17.4007 1535 115.749 1333.98 431.537
571 0 91.4232 15.0728 1378 119.462 1334.61 437.623
572 1 47.1366 11.8379 558 116.405 1336.16 460.143
573 0 50.2402 13.9131 699 117.063 1336.56 456.136
574 0 49.2468 13.9298 686 118.859 1335.94 456.038
575 0 53.4657 12.8868 689 119.062 1336.26 457.791
576 0 56.3206 14.4885 816 116.591 1335.74 460.252
577 0 56.2304 16.7703 943 116.735 1335.94 456.554
578 0 55.2588 14.1878 784 125.818 1334.31 461.04
579 0 61.4227 13.285 816 125.621 1333.69 461.42
580 0 64.3948 15.5758 1003 121.493 1332.99 459.649
581 0 62.1757 14.2178 884 125.882 1331.59 457.219
582 0 67.5387 18.9965 1283 114.751 1328.31 462.909
583 0 67.3233 17.8987 1205 121.171 1326.42 457.206
584 0 65.0873 13.8583 902 131.742 1325.11 455.502
585 0 71.0838 17.3598 1234 123.283 1324.26 454.937
586 0 71.0838 17.4864 1243 131.422 1323.25 454.914
587 0 72.2005 14.4597 1044 129.813 1321.54 453.018
588 0 75.149 13.7194 1031 132.403 1320.38 452.362
589 0 78.1934 15.2187 1190 129.913 1319.81 448.837
590 0 79.2571 13.0588 1035 130.983 1318.87 448.113
591 0 84.3529 17 1434 124.741 1318.55 448.588
592 0 87.2673 13.3612 1166 133.217 1317.99 442.941
593 1 44.0483 14.0755 620 123.526 1317.51 464.247
594 0 46.1881 12.4491 575 129.294 1318.11 462.297
595 0 52.7278 13.5223 713 115.589 1319.46 464.506
596 0 46.2466 9.27636 429 126.503 1319.6 458.51
597 0 53.1351 15.1877 807 115.682 1319.97 461.613
598 0 50.0504 15.1647 759 122.354 1322.03 456.407
599 0 50.0344 15.2495 763 121.396 1323.05 456.36
600 0 55.0478 12.8434 707 126.157 1324.55 456.191
601 0 57.103 13.1692 752 124.134 1327.42 455.674
602 0 56.0954 15.5806 874 125.146 1329.19 454.491
603 0 57.1402 11.7781 673 129.284 1329.84 456.366
604 0 63.0952 16.5306 1043 119.008 1330.81 456.769
605 0 63.1547 15.1849 959 122.142 1331.03 457.792
606 0 66.1732 16.7288 1107 122.768 1330.15 456.289
607 0 68.2944 17.3074 1182 123.808 1329.65 454.444
608 0 69.4074 15.0416 1044 130.336 1328.54 453.983
609 0 70.3015 14.0964 991 130.961 1328.45 452.344
610 0 75.2671 13.6315 1026 130.24 1328.13 455.666
611 0 76.1807 13.5205 1030 132.208 1327.13 453.048
612 0 81.276 17.2868 1405 125.636 1326.41 453.423
613 1 41.0623 9.91178 407 136.425 1324.96 472.231
614 0 42.1432 12.1728 513 130.743 1324.07 472.148
615 0 44.378 10.005 444 135.732 1322.96 469.529
616 0 42.3609 11.402 483 141.01 1321.47 466.853
617 0 46.4301 13.3965 622 126.169 1321.14 465.399
618 0 46.4462 11.1742 519 127.514 1320.22 464.341
619 0 48.0614 15.3762 739 126.976 1317.24 462.904
620 0 50.1106 18.08 906 119.726 1316.19 460.62
621 0 54.0964 14.8069 801 121.953 1315.16 459.668
622 0 54.1693 17.4453 945 117.339 1315.18 460.193
623 0 54.0783 13.2031 714 124.81 1314.58 459.699
624 0 57.1823 13.5182 773 124.448 1314.79 456.246
625 0 58.2122 12.5575 731 127.743 1314.31 454.798
626 0 58.2162 13.3296 776 126.951 1314.55 451.384
627 0 60.2001 15.5315 935 123.372 1315.72 450.425
628 0 61.2726 16.7122 1024 121.331 1316.53 449.784
629 0 67.2962 15.8553 1067 118.881 1317.87 451.648
630 0 66.158 24.502 1621 109.025 1318.46 449.868
631 0 66.2951 15.1746 1006 122.576 1320.03 442.142
632 0 69.161 16.1074 1114 119.906 1321.86 444.635
633 0 70.1297 13.1328 921 129.442 1322.87 440.151
634 0 75.2778 14.5993 1099 126.136 1324.66 441.157
635 1 37.0106 12.0776 447 125.213 1325.74 459.447
636 0 42.0829 13.6635 575 123.11 1327.62 460.028
637 0 43.1881 19.3572 836 118.734 1328.26 458.476
638 0 40.324 12.2756 495 131.206 1329.8 460.754
639 0 44.3094 10.3364 458 135.62 1329.63 461.991
640 0 48.3716 17.0348 824 123.519 1330.92 463.658
641 0 46.2171 13.7612 636 138.237 1331.98 459.404
642 0 51.4 15.6031 802 129.852 1330.4 461.219
643 0 49.2029 12.7635 628 139.404 1329.95 460.435
644 0 50.1276 12.4283 623 139.961 1329.6 461.599
645 0 54.0982 14.1225 764 136.268 1328.3 460.882
646 0 56.0851 13.9966 785 138.075 1328.03 459.851
647 0 56.2287 16.3795 921 135.239 1326.54 459.746
648 0 56.0694 13.8578 777 140.067 1325.41 458.906
649 0 59.083 17.7716 1050 133.333 1324.39 454.533
650 0 61.3917 15.8816 975 136.541 1323.75 455.678
651 0 63.2346 16.589 1049 133.652 1322.27 454.96
652 0 68.3209 17.6666 1207 129.177 1321.21 454.683
653 0 67.1479 17.3051 1162 134.141 1320.32 451.699
654 0 68.1483 17.8141 1214 134.153 1319.42 452.353
655 0 72.2481 14.9623 1081 137.13 1318.5 445.798
656 0 74.1584 13.633 1011 138.64 1317.52 444.364
657 0 75.7557 14.098 1068 137.713 1316.94 441.205
658 0 79.4937 14.781 1175 134.888 1316.76 440.967
659 0 81.2694 14.3843 1169 137.687 1317.74 438.165
660 0 83.2453 17.1301 1426 131.318 1317.8 439.017
661 0 84.3984 15.5809 1315 134.466 1318.38 431.551
662 0 88.2588 18.0605 1594 130.915 1319.52 430.312
663 1 48.0631 14.0857 677 127.997 1321.19 453.765
664 0 51.2838 11.2901 579 127.04 1322.36 454.337
665 0 50.1158 14.3069 717 124.529 1324.77 451.354
666 0 50.1357 16.1761 811 122.007 1326.83 448.392
667 0 52.2967 14.7046 769 118.29 1329.53 449.386
668 0 56.3124 14.7215 829 118.253 1330.6 448.175
669 0 55.0431 16.2055 892 117.632 1332.85 448.164
670 0 57.1939 13.5329 774 120.655 1333.31 450.479
671 0 58.1297 18.8716 1097 114.16 1334.08 449.937
672 0 60.1915 14.8858 896 120.47 1334.01 449.405
673 0 62.2494 19.1327 1191 116.118 1334.49 447.652
674 0 64.1789 13.8987 892 126.881 1333.9 449.98
675 0 64.0752 11.3304 726 134.72 1333.65 447.629
676 0 70.143 17.5071 1228 129.857 1333.42 449.353
677 0 71.1066 17.3964 1237 127.792 1332.72 454.381
678 0 75.1216 17.9842 1351 130.617 1331.21 446.996
679 0 77.3167 15.2231 1177 135.373 1329.53 444.684
680 0 78.3124 15.6042 1222 135.898 1327.9 444.727
681 0 82.2509 17.4223 1433 131.724 1326.7 441.867
682 0 83.4381 20.8298 1738 124.425 1324.86 438.784
683 0 88.2555 15.1492 1337 131.362 1323.58 439.275
684 0 90.4219 15.5604 1407 128.57 1322.22 438.571
685 1 45.1211 12.0121 542 135.924 1321.65 453.95
686 0 44.3032 13.3625 592 132.554 1319.93 454.704
687 0 48.1287 12.6328 608 132.214 1319.04 455.809
688 0 51.0714 17.4266 890 121.962 1318.35 453.796
689 0 52.1808 16.4237 857 121.839 1317.96 450.317
690 0 57.101 18.476 1055 114.293 1317.46 447.059
691 0 56.1958 16.4247 923 115.05 1317.39 450.095
692 0 59.3002 20.9274 1241 111.994 1317.2 439.336
693 0 60.3485 15.5099 936 117.426 1318.54 440.592
694 0 59.1376 15.4555 914 117.329 1319.1 440.123
695 0 67.1108 17.8064 1195 110.527 1320.34 443.151
696 0 69.2379 16.9416 1173 114.027 1321.44 436.942
697 0 66.3221 12.4544 826 118.939 1321.66 434.373
698 0 69.4263 24.9329 1731 105.897 1323.32 436.027
699 0 71.3356 19.191 1369 111.828 1326.22 430.714
700 0 76.197 13.8194 1053 117.109 1327.77 440.888
701 0 78.4093 18.1101 1420 112.74 1329.06 437.706
702 0 78.4093 18.1866 1426 136.694 1331.11 437.79
703 0 84.145 17.4936 1472 114.062 1332.14 434.917
704 0 85.3216 13.8652 1183 114.546 1332.56 436.284
705 0 89.42 21.6394 1935 108.868 1332.47 435.333
706 1 49.4641 14.8593 735 108.033 1332.47 456.99
707 0 47.1604 11.3443 535 117.404 1331.93 450.677
708 0 46.2006 9.61026 444 122.507 1331.72 450.649
709 0 53.3455 18.1646 969 112.732 1332.09 451.875
710 0 53.0682 13.6428 724 116.677 1331.79 451.104
711 0 55.0729 17.7038 975 114.323 1330.29 450.007
712 0 56.1161 13.5434 760 120.936 1328.84 451.718
713 0 58.1539 12.4153 722 126.262 1327.69 450.006
714 0 56.2923 10.6764 601 126.037 1325.92 448.456
715 0 62.1326 13.954 867 118.689 1324.85 446.427
716 0 63.2576 15.5554 984 117.123 1322.93 444.111
717 0 65.2071 12.2379 798 121.286 1321.5 445.249
718 0 65.5188 11.1571 731 123.383 1319.99 442.42
719 0 71.3793 14.9903 1070 117.452 1319.56 440.817
720 0 71.1701 13.9384 992 121.346 1318.57 440.752
721 0 76.7756 15.5127 1191 117.528 1318.12 438.323
722 0 75.2963 12.3512 930 124.86 1318.71 437.942
723 0 80.1805 14.6669 1176 121.843 1319.02 433.367
724 0 81.4104 13.8189 1125 123.647 1319.17 432.249
725 0 84.309 16.8903 1424 119.947 1319.22 425.607
726 0 89.2411 18.1194 1617 120.69 1320.43 425.363
727 0 95.2964 19.7804 1885 115.732 1320.82 425.401
728 1 51.1126 9.05844 463 127.138 1321.45 444.702
729 0 54.5358 10.2502 559 118.106 1322.24 450.372
730 0 53.3395 12.5236 668 121.853 1324.97 443.988
731 0 57.3124 14.2552 817 116.594 1327.17 443.718
732 0 57.3124 14.2727 818 129.84 1328.17 443.797
733 0 61.2203 13.4269 822 119.764 1331.12 441.505
734 0 63.2189 20.342 1286 111.509 1332.66 441.073
735 0 66.1801 13.7201 908 122.079 1333.01 442.322
736 0 70.2016 17.6777 1241 116.429 1334.46 444.614
737 0 69.4029 13.8179 959 125.432 1334.9 445.638
738 0 74.303 20.4299 1518 114.874 1335.5 447.823
739 0 73.2168 15.2561 1117 125.395 1334.12 444.847
740 0 77.2335 18.4117 1422 125.121 1333.96 444.138
741 0 77.2762 14.7652 1141 134.366 1333.37 445.05
742 0 80.191 14.5652 1168 136.918 1332.23 446.586
743 0 83.4153 15.5847 1300 136.63 1330.83 445.031
744 0 82.3723 11.2781 929 144.975 1329.29 448.305
745 0 87.3698 15.4401 1349 137.635 1327.67 439.566
746 0 90.378 15.5458 1405 137.347 1325.95 441.606
747 0 93.5161 16.2325 1518 135.625 1324.28 439.11
748 0 94.2377 15.6519 1475 137.831 1323.28 438.649
749 0 99.2586 17.2579 1713 133.387 1321.57 436.943
750 0 101.31 15.4575 1566 137.157 1320.66 436.07
751 0 101.214 15.245 1543 137.623 1319.41 432.632
752 0 105.27 16.1109 1696 136.377 1318.45 427.995
753 0 106.264 14.2098 1510 137.404 1318.02 428.443
754 0 111.449 16.3214 1819 133.431 1317.79 424.512
755 0 116.738 17.8604 2085 129.215 1317.65 428.764
756 0 117.476 17.4503 2050 135.143 1317.68 422.326
757 0 117.388 14.3882 1689 139.501 1317.4 422.223
758 0 123.35 20.9647 2586 131.028 1318.31 418.655
759 0 126.54 18.5633 2349 130.13 1317.94 421.928
760 0 129.773 16.9296 2197 133.34 1318.77 415.62
761 0 132.382 16.8679 2233 132.732 1319.54 412.253
762 0 138.611 17.5744 2436 130.33 1320.54 416.034
763 0 143.813 18.6978 2689 127.888 1321.92 414.389
764 0 144.672 18.4693 2672 129.51 1323.87 412.821
765 0 147.535 18.6803 2756 131.761 1325.43 410.449
766 0 149.528 18.4715 2762 135.22 1326.25 404.238
767 0 154.803 20.2773 3139 130.206 1326.98 408.476
768 0 155.49 19.5897 3046 134.584 1328.31 399.145
769 0 155.49 19.4868 3030 148.712 1330.33 399.037
770 1 81.2554 11.7654 956 141.999 1330.12 441.65
771 0 83.2379 13.8399 1152 138.637 1330.44 441.633
772 0 85.2597 14.6845 1252 139.122 1330.1 441.748
773 0 86.1365 14.2797 1230 139.972 1330.81 446.585
774 0 87.2 15.2294 1328 139.364 1329.74 443.377
775 0 86.1011 13.5654 1168 144.85 1328.43 442.932
776 0 91.2665 15.1425 1382 141.966 1326.6 442.028
777 0 92.1773 16.9999 1567 138.129 1326.02 442.285
778 0 93.2876 15.9614 1489 141.012 1324.09 442.43
779 0 96.4268 15.4729 1492 139.934 1322.85 441.926
780 0 96.2922 13.781 1327 142.329 1320.92 438.886
781 0 98.5216 13.5808 1338 143.42 1319.6 435.294
782 0 102.393 15.3428 1571 136.687 1318.42 434.849
783 0 102.187 12.6239 1290 139.433 1317.31 432.366
784 1 56.1665 8.31456 467 126.94 1317.27 460.086
785 0 57.2275 7.98568 457 132.516 1316.85 456.807
786 0 60.1215 12.1255 729 123.073 1315.48 452.975
787 0 62.2329 16.149 1005 114.592 1314.86 453.328
788 0 63.1618 13.5842 858 118.111 1314.38 450.228
789 0 65.4111 14.4318 944 112.832 1314.56 449.479
790 0 64.2274 12.845 825 112.89 1312.93 449.839
791 0 65.0918 13.6884 891 112.814 1314.17 445.962
792 0 65.0582 15.1557 986 108.004 1313.81 443.784
793 0 66.1294 11.1902 740 109.985 1315.17 445.538
794 0 67.2186 15.576 1047 106.627 1316.31 438.479
795 0 67.1534 15.8592 1065 105.787 1317.61 438.425
796 0 66.2718 10.7436 712 111.423 1318.6 438
797 0 68.1477 14.6593 999 104.906 1320.6 442.618
798 0 72.0981 16.1447 1164 103.206 1323.32 444.675
799 0 71.4578 11.3634 812 106.849 1324.87 442.272
800 0 73.328 10.6781 783 107.876 1325.1 438.246
801 0 75.0948 18.3768 1380 99.9833 1327.38 444.13
802 0 74.2956 20.9703 1558 100.553 1328.64 435.358
803 0 71.2609 12.5876 897 111.365 1330.82 437.336
804 0 73.2562 12.8453 941 110.226 1331.78 438.878
805 0 73.2071 14.4248 1056 109.518 1331.92 439.07
806 0 77.0842 15.6452 1206 107.164 1331.91 441.245
807 0 77.2416 11.587 895 113.184 1332.28 444.149
808 0 76.2165 13.5404 1032 113.354 1332.1 439.357
809 0 78.1482 15.3682 1201 110.897 1330.01 440.079
810 0 75.2175 10.4098 783 120.481 1329.24 445.369
811 0 79.1775 12.7056 1006 115.89 1328.73 444.359
812 0 80.1434 12.2406 981 116.986 1328.13 442.915
813 0 79.2199 12.6231 1000 119.449 1327.27 442.931
814 0 81.2631 15.0622 1224 114.634 1326.07 443.73
815 0 84.2636 15.226 1283 118.732 1325.19 444.857
816 0 83.2553 13.6808 1139 121.4 1323.84 444.229
817 0 85.2815 14.7629 1259 117.079 1322.75 443.792
818 0 86.205 14.7323 1270 118 1321.83 442.824
819 0 87.3095 19.7115 1721 111.518 1320.76 437.632
820 0 89.5502 17.6437 1580 111.563 1321.01 443.175
821 0 88.281 12.7547 1126 117.861 1320.6 442.183
822 0 88.2393 15.6166 1378 113.786 1319.89 439.256
823 0 90.4373 22.4465 2030 104.318 1319.42 440.561
824 0 90.2612 15.289 1380 114.688 1321.18 436.901
825 0 93.8657 15.16 1423 112.466 1321.19 437.433
826 0 93.3977 18.4266 1721 107.657 1321.52 436.5
827 0 90.2894 12.2606 1107 116.983 1322.58 430.28
828 0 92.4098 13.8622 1281 111.753 1323.49 436.269
829 0 92.3719 12.6012 1164 113.125 1324.87 431.628
830 0 91.4086 12.8216 1172 111.567 1326.08 433.846
831 0 96.7482 18.7394 1813 103.939 1328.14 436.703
832 0 99.6003 16.1646 1610 107.37 1329.89 432.017
833 0 94.4301 14.7305 1391 108.302 1331.98 431.883
834 0 95.3183 13.4182 1279 111.446 1333.37 434.383
835 0 90.2801 12.1511 1097 114.435 1333.89 430.868
836 0 95.2521 15.4327 1470 109.089 1335.54 436.291
837 0 94.4173 15.6327 1476 109.198 1335.11 437.62
838 0 95.3912 12.7475 1216 110.903 1335.11 440.419
839 0 93.2695 15.1925 1417 108.886 1335.21 442.155
840 0 98.307 20.8225 2047 105.802 1334.56 440.712
841 0 98.1743 16.5216 1622 108.768 1334.33 444.503
842 0 96.2275 17.1676 1652 110.346 1334.01 442.896
843 0 93.192 18.6497 1738 110.6 1332.88 443.578
844 0 94.3406 13.7799 1300 118.052 1331.2 443.138
845 0 96.7099 16.0376 1551 114.375 1330.23 444.689
846 0 95.3037 17.1452 1634 114.072 1328.75 440.027
847 0 93.3159 18.0891 1688 114.028 1327.76 435.546
848 0 93.3701 14.4693 1351 118.006 1326.32 438.887
