time division length width area intensity CMx CMy
0 0 92.3635 15.6988 1450 131.619 196.381 424.269
1 1 52.0701 15.3831 801 126.112 197.994 446.742
2 0 52.1978 16.8781 881 119.817 199.02 447.385
3 0 53.3154 13.4108 715 124.159 200.856 444.126
4 0 54.0929 11.3878 616 125.446 199.852 446.489
5 0 55.3172 14.1728 784 122.471 199.383 444.61
6 0 60.2896 12.5229 755 125.383 198.781 443.34
7 0 62.2798 16.5383 1030 118.79 198.285 447.121
8 0 67.6013 22.1741 1499 112.322 198.041 449.707
9 0 65.198 18.9576 1236 114.535 195.54 452.944
10 0 66.1363 15.9217 1053 122.655 194.822 445.43
11 0 70.1034 18.4584 1294 120.009 194.003 447.233
12 0 72.1887 19.823 1431 122.681 193.367 443.616
13 0 76.4072 19.6055 1498 122.035 192.246 448.834
14 0 74.3725 21.2444 1580 123.345 191.561 446.547
15 0 78.3409 17.6408 1382 130.195 190.283 446.759
16 0 82.1485 20.5969 1692 128.451 188.23 445.322
17 1 45.2767 11.4849 520 144.24 187.171 458.327
18 0 42.1776 10.6455 449 152.666 185.844 455.274
19 0 48.2391 12.4795 602 146.213 184.993 456.385
20 0 48.0687 11.9204 573 149.96 186.253 452.337
21 0 51.1806 12.7978 655 147.437 185.481 452.333
22 0 52.1342 15.5752 812 142.619 185.612 451.452
23 0 51.1888 12.112 620 151.248 184.829 448.673
24 0 53.256 13.4633 717 147.287 184.766 448.911
25 0 55.2809 12.4998 691 147.502 184.996 449.122
26 0 57.1805 13.8684 793 144.095 184.837 446.841
27 0 59.1893 15.0196 889 142.214 184.827 442.316
28 0 61.1337 16.7665 1025 136.434 185.444 442.829
29 0 64.2472 11.3935 732 140.918 187.307 443.477
30 1 124.71 17.665 2203 139.547 186.98 408.427
31 0 128.393 20.4061 2620 130.368 188.634 408.247
32 0 131.419 16.5882 2180 129.857 190.913 409.803
33 0 137.648 18.7798 2585 126.969 192.631 404.42
34 1 71.2491 10.7791 768 126.625 194.324 437.954
35 0 74.4356 10.5595 786 122.501 197.113 442.734
36 0 81.5305 20.2378 1650 110.568 197.246 444.48
37 0 78.5557 11.5587 908 122.427 197.855 434.175
38 0 84.8363 14.97 1270 116.18 198.397 440.562
39 1 43.0777 8.12486 350 118.909 199.997 460.186
40 0 43.0777 13.1855 568 113.176 198.884 459.581
41 0 48.1126 16.6069 799 110.538 198.603 459.788
42 0 50.1525 17.7259 889 108.753 198.188 462.4
43 0 49.3551 10.2928 508 123.539 197.476 456.087
44 0 50.113 15.0859 756 120.529 196.656 453.579
45 1 101.333 16.5593 1678 124.127 194.7 432.71
46 1 51.1662 12.2542 627 125.761 194.343 456.482
47 0 53.181 14.3096 761 128.109 192.464 455.225
48 0 55.1308 14.9644 825 127.928 191.393 454.173
49 0 58.3776 17.5067 1022 122.31 190.051 456.817
50 0 59.0754 17.5031 1034 125.465 187.829 454.952
51 0 59.1324 15.9304 942 128.219 187.207 455.05
52 0 61.1862 14.0228 858 134.122 185.499 451.619
53 0 64.063 13.3462 855 135.68 184.932 449.122
54 0 69.3242 20.8441 1445 121.882 183.446 451.909
55 0 68.2705 13.5197 923 136.783 183.29 447.541
56 0 71.3229 15.549 1109 129.127 182.852 451.417
57 0 73.119 13.4712 985 139.138 182.593 441.958
58 1 42.0642 13.6934 576 134.523 182.672 457.127
59 0 42.0955 10.8563 457 140.567 182.871 455.867
60 0 42.1223 13.4608 567 137.974 182.536 452.877
61 0 44.0548 11.7354 517 138.099 182.828 454.983
62 0 47.0776 15.2514 718 130.49 183.091 453.421
63 0 47.1514 14.3368 676 130.355 183.908 450.402
64 0 47.1405 12.5794 593 128.346 184.428 453.897
65 0 48.1805 13.7608 663 124.1 187.258 455.309
66 0 49.1354 13.5747 667 125.706 190.457 450.466
67 0 54.1367 15.701 850 121.404 192.451 450.101
68 0 55.048 17.0397 938 117.656 194.441 454.567
69 0 56.2406 22.866 1286 109.939 194.859 456.274
70 0 54.2869 14.7365 800 119.46 195.981 450.715
71 0 56.1726 12.8889 724 122.641 195.796 450.062
72 0 58.0704 15.774 916 115.343 196.147 458.1
73 0 62.1703 13.656 849 121.325 196.062 451.889
74 0 64.0832 12.1093 776 123.514 195.521 453.274
75 0 66.2012 18.8365 1247 117.154 195.395 451.99
76 0 68.1813 21.0908 1438 116.303 194.274 451.886
77 0 66.4219 12.4507 827 128.658 193.805 451.016
78 0 69.2359 11.9736 829 129.77 193.568 454.028
79 0 74.2962 17.7936 1322 123.939 192.624 452.427
80 0 77.504 18.7603 1454 123.755 191.656 448.468
81 0 78.2599 14.7968 1158 131.294 190.429 448.903
82 0 82.2008 13.1994 1085 134.415 189.217 450
83 0 85.0949 20.53 1747 126.343 187.357 446.208
84 0 86.2402 14.506 1251 138.7 185.837 444.145
85 0 90.6062 17.6919 1603 132.488 184.517 446.275
86 0 88.1171 13.221 1165 147.064 183.482 440.509
87 1 52.2008 11.8772 620 144.919 182.008 458.497
88 0 56.1041 15.1326 849 134.6 181.473 459.055
89 0 55.0695 13.2197 728 141.812 180.065 456.78
90 0 59.368 16.4567 977 134.08 180.244 455.468
91 0 58.0913 13.2378 769 145.521 179.589 451.083
92 0 61.2986 16.1505 990 137.303 180.804 450.438
93 0 60.2484 14.6892 885 142.693 180.962 446.953
94 0 65.0854 15.6717 1020 137.632 180.688 449.491
95 0 66.2276 13.4989 894 142.71 181.383 446.836
96 0 69.4015 14.4377 1002 137.844 181.59 447.007
97 0 73.2077 18.1402 1328 128.464 183.325 447.031
98 0 74.3003 23.2435 1727 119.219 184.559 444.867
99 0 76.1806 14.61 1113 129.9 187.119 442.532
100 0 79.1278 24.8206 1964 118.332 187.638 437.831
101 0 81.2145 19.3562 1572 121.288 190.149 442.697
102 0 84.3405 19.5161 1646 118.685 191.481 444.198
103 0 87.464 18.2932 1600 121.071 192.935 438.509
104 0 91.2335 22.13 2019 116.165 193.913 442.461
105 0 91.0965 19.3092 1759 118.454 195.497 441.566
106 0 97.3976 16.6123 1618 124.748 195.614 435.74
107 0 105.165 19.3411 2034 118.849 195.851 440.47
108 0 102.286 19.035 1947 122.333 195.835 433.94
109 0 106.435 21.5155 2290 119.81 195.777 435.252
110 1 63.4079 14.73 934 123.643 195.415 459.627
111 0 55.0514 10.4629 576 131.616 195.08 462.583
112 0 59.1825 11.0675 655 132.191 194.38 459.774
113 0 62.3001 15.1043 941 131.232 192.986 457.097
114 0 61.1492 13.9168 851 136.525 191.53 454.163
115 0 63.081 14.0454 886 134.877 189.87 458.915
116 0 67.1933 19.5853 1316 125.308 188.442 451.265
117 0 68.3205 14.5052 991 136.582 186.926 452.607
118 0 71.504 16.3487 1169 131.654 185.305 453.803
119 0 73.3701 12.5392 920 141.992 184.041 450.733
120 0 78.4058 16.5039 1294 132.433 182.367 448.306
121 0 77.2199 15.3976 1189 135.544 180.941 447.675
122 0 81.5018 15.4598 1260 134.587 179.517 443.937
123 0 83.3023 17.7306 1477 130.435 178.517 442.684
124 0 86.4103 24.2101 2092 118.564 177.526 448.59
125 0 88.2222 16.4698 1453 135.963 178.004 435.778
126 0 92.349 16.1236 1489 136.171 177.829 433.772
127 0 94.3173 16.0734 1516 134.104 177.864 436.353
128 0 96.1531 15.3089 1472 137.8 177.96 430.522
129 0 102.343 20.2749 2075 126.984 178.075 427.695
130 0 103.463 24.6561 2551 117.611 178.215 434.369
131 0 107.266 19.6334 2106 125.476 180.619 425.192
132 1 59.2932 11.9238 707 126.505 181.174 450.849
133 0 56.4174 17.1224 966 120.198 183.168 450.252
134 0 58.2403 7.45189 434 133.862 186.38 451.975
135 0 64.4319 15.2254 981 122.596 187.736 443.657
136 0 67.7263 14.6915 995 122.22 188.917 442.961
137 0 70.2662 18.7857 1320 118.886 191.977 448.496
138 0 71.0947 16.6398 1183 120.626 192.505 450.075
139 0 72.2005 14.8891 1075 124.289 193.253 447.232
140 0 74.1714 13.7519 1020 125.518 193.4 446.315
141 0 79.2835 16.3716 1298 121.01 192.506 450.817
142 0 78.1233 15.8211 1236 125.311 192.687 442.69
143 0 86.2837 14.3133 1235 125.537 192.219 450.525
144 0 83.0795 19.5716 1626 125.359 190.958 444.422
145 0 89.0883 16.2984 1452 129.248 190.534 447.426
146 0 89.2508 15.4508 1379 134.434 189.269 443.009
147 0 92.1426 15.8667 1462 135.215 187.99 440.913
148 0 94.2725 15.8265 1492 138.389 186.491 444.216
149 0 95.4016 17.3582 1656 135.117 184.289 438.58
150 0 95.4016 17.2219 1643 135.54 181.319 438.562
151 0 102.175 14.485 1480 141.086 182.426 438.92
152 0 105.409 12.2002 1286 143.949 180.106 436.066
153 0 111.433 16.3596 1823 136.057 179.111 437.537
154 0 113.281 13.5593 1536 139.822 178.267 434.202
155 1 67.4156 16.109 1086 126.046 178.608 458.797
156 0 65.2281 15.3461 1001 132.998 177.7 453.586
157 0 68.1336 15.2788 1041 131.28 176.793 454.192
158 0 65.1825 12.6414 824 137.235 176.334 449.517
159 0 74.4541 16.0099 1192 128.104 176.41 450.091
160 0 74.2486 16.0946 1195 129.283 176.397 447.654
161 0 73.2003 14.2486 1043 134.259 176.145 442.563
162 0 76.3476 15.1937 1160 129.564 177.309 446.426
163 0 81.3698 13.2973 1082 130.295 177.783 444.101
164 0 81.3108 14.4753 1177 127.307 178.742 439.736
165 0 86.3457 13.3533 1153 126.586 180.766 442.341
166 0 90.5803 18.6354 1688 117.346 181.22 443.28
167 0 89.3275 19.2662 1721 119.53 182.691 433.127
168 0 95.6631 16.7045 1598 121.388 184.965 434.491
169 0 100.568 19.9965 2011 115.811 186.423 435.822
170 0 101.35 18.3127 1856 118.438 187.742 435.178
171 1 53.1856 11.9957 638 123.875 189.784 457.873
172 0 54.0467 9.12174 493 130.489 190.525 456.842
173 0 57.1702 17.789 1017 120.304 190.625 455.176
174 0 57.041 15.1645 865 125.198 191.632 454.871
175 0 60.1873 14.2555 858 125.526 190.808 458.987
176 0 62.1646 16.022 996 125.092 190.605 455.321
177 0 64.2495 19.7978 1272 123.267 189.588 455.05
178 0 66.1178 13.8087 913 134.055 189.223 456.69
179 0 68.1938 16.2331 1107 131.864 188.453 455.596
180 0 69.2422 13.1423 910 139.453 187.421 453.809
181 0 72.2906 15.7558 1139 137.531 186.359 454.51
182 0 74.2988 16.5279 1228 135.956 184.647 452.552
183 0 77.2269 15.435 1192 135.678 182.747 451.632
184 0 80.2357 16.0278 1286 134.327 181.301 450.918
185 0 82.2434 14.2017 1168 137.12 179.659 450.975
186 0 85.2605 17.253 1471 132.328 178.028 449.606
187 0 89.2748 14.7858 1320 136.597 176.94 449.143
188 0 91.2643 16.8193 1535 135.752 176.317 444.124
189 0 91.5786 15.4949 1419 138.218 176.144 440.699
190 1 47.2184 13.0669 617 137.955 176.258 463
191 0 51.2842 16.3013 836 129.032 175.467 462.184
192 0 48.2935 11.3059 546 147.211 173.991 453.806
193 0 50.2509 14.2485 716 137.858 173.027 455.01
194 0 52.1473 12.3305 643 142.72 175.841 457.546
195 0 55.123 17.343 956 130.728 174.501 454.94
196 0 55.142 12.4587 687 142.426 175.457 453.553
197 0 58.07 13.1737 765 135.829 176.382 457.429
198 0 60.3572 16.2864 983 132.229 177.578 453.466
199 0 62.1456 17.4429 1084 129.388 178.941 449.9
200 0 63.2847 13.463 852 134.633 180.658 451.207
201 0 65.1245 15.1863 989 128.143 182.926 454.114
202 0 65.2662 13.2075 862 134.461 184.497 449.55
203 0 67.1477 13.031 875 135.671 186.063 448.605
204 0 71.224 16.2445 1157 129.687 187.273 448.181
205 0 71.2509 15.3402 1093 131.649 188.694 446.868
206 0 76.2468 16.2236 1237 130.212 189.217 449.515
207 0 79.1318 21.1546 1674 123.626 189.176 449.951
208 0 80.4471 14.2578 1147 132.007 189.901 448.004
209 0 82.2785 13.4665 1108 136.782 189.585 445.557
210 0 87.3245 14.761 1289 133.87 189.6 445.154
211 0 87.2159 16.3846 1429 133.266 188.767 446.368
212 0 92.5947 14.3637 1330 138.049 187.729 439.391
213 1 49.2963 15.4576 762 134.352 186.967 464.14
214 0 50.1619 12.3201 618 140.79 186.626 464.115
215 0 50.1619 12.3002 617 143.603 186.626 464.078
216 0 54.1353 14.7778 800 133.466 184.202 465.35
217 0 55.1521 14.1427 780 136.437 182.746 462.64
218 0 55.0851 11.7818 649 139.752 181.361 460.747
219 0 58.1937 14.8126 862 137.954 179.811 457.987
220 0 59.2112 13.4434 796 138.744 177.962 459.513
221 0 59.2351 12.3913 734 142.286 177.237 458.362
222 0 60.1715 12.1985 734 142.47 176.124 457.127
223 0 64.2339 13.6999 880 138.511 175.759 454.785
224 0 66.4263 14.5575 967 136.324 174.819 452.849
225 0 66.424 13.0073 864 141.836 173.75 448.475
226 0 69.2727 15.1142 1047 137.649 173.821 448.282
227 0 72.3616 15.5331 1124 135.884 173.996 448.108
228 0 73.3526 13.1965 968 141.449 174.377 444.987
229 0 77.3448 14.041 1086 137.45 174.531 442.901
230 0 77.3284 12.8931 997 138.974 175.224 442.473
231 0 83.1945 19.2922 1605 122.105 175.09 440.292
232 0 85.3221 13.2557 1131 129.691 178.046 439.263
233 0 86.2754 14.3262 1236 129.617 178.861 435.884
234 0 91.4372 18.3186 1675 122.804 180.31 430.601
235 1 51.0721 13.1383 671 121.007 179.677 455.438
236 0 50.2136 10.3159 518 125.813 181.444 456.977
237 0 56.0462 14.2918 801 118.623 183.991 457.556
238 0 54.194 17.3082 938 115.908 185.506 455.418
239 0 52.3165 11.8892 622 125.363 188.688 452.915
240 0 57.15 15.0306 859 123.75 189.354 458.52
241 0 57.2171 14.5761 834 125.326 189.778 456.162
242 0 58.141 14.8088 861 127.365 189.29 454.426
243 0 61.1227 14.0046 856 130.95 188.981 458.29
244 0 63.3149 16.5364 1047 128.902 187.685 451.573
245 0 66.209 16.2214 1074 129.396 187.631 458.266
246 0 67.0745 14.2379 955 138.152 186.984 458.199
247 0 68.2714 14.1787 968 137.715 185.439 456.233
248 0 71.307 14.711 1049 137.848 184.567 453.698
249 0 75.1792 14.9775 1126 139.202 183.48 454.408
250 0 75.4312 14.3972 1086 138.245 182.052 454.272
251 0 78.3044 15.7973 1237 135.749 180.192 449.047
252 0 82.2739 15.2539 1255 137.152 178.321 449.225
253 0 85.412 15.7823 1348 139.36 177.385 447.863
254 1 46.0835 11.132 513 142.526 176.489 465.729
255 0 46.2098 14.2178 657 138.505 175.018 463
256 0 50.0909 12.3775 620 137.184 174.182 466.027
257 0 49.0814 11.3281 556 142.96 174.683 462.923
258 0 52.0445 14.5068 755 136.744 174.371 460.462
259 0 52.0689 14.6921 765 136.016 173.556 458.614
260 0 53.2023 13.1197 698 140.547 173.814 457.271
261 0 55.1556 15.7554 869 132.326 173.012 456.247
262 0 57.0905 13.9953 799 134.347 173.735 455.327
263 0 58.1153 16.2952 947 130.337 173.426 451.616
264 0 60.1645 14.6266 880 131.566 174.55 449.55
265 0 61.1044 13.2069 807 133.804 175.974 450.16
266 0 63.1446 17.6104 1112 125.701 177.776 446.709
267 0 66.2848 12.4765 827 130.688 180.028 450.618
268 0 67.2157 14.6394 984 129.707 181.828 446.705
269 0 72.2465 12.7619 922 125.92 184.131 449.069
270 0 73.4281 13.4281 986 124.239 185.858 449.378
271 0 75.1878 16.3856 1232 122.866 186.45 444.838
272 0 77.3432 12.7484 986 129.144 188.14 446.1
273 0 77.2721 11.7636 909 130.256 188.506 449.292
274 0 84.2291 12.656 1066 130.355 188.693 448.386
275 0 88.2636 12.7006 1121 132.64 188.486 445.671
276 0 89.2044 14.4948 1293 132.2 188.18 444.03
277 1 53.3497 14.0394 749 129.646 188.939 463.654
278 0 52.1994 12.2798 641 134.997 187.836 463.41
279 0 53.1761 13.8784 738 135.424 187.051 463.343
280 0 56.1232 11.5104 646 140.509 182.341 463.927
281 0 56.0598 13.4678 755 136.668 181.326 461.987
282 0 56.1242 14.9134 837 135.857 180.688 462.935
283 0 60.1733 12.68 763 137 179.526 460.701
284 0 61.0885 13.2595 810 132.336 177.948 463.243
285 0 64.1093 17.049 1093 128.753 175.756 457.833
286 0 67.1605 15.4704 1039 131.926 174.725 458.743
287 0 67.256 15.5971 1049 132.451 173.735 455.629
288 0 70.198 14.9434 1049 130.131 172.529 454.598
289 0 73.1182 14.6065 1068 132.219 171.73 451.724
290 0 75.2001 16.3697 1231 129.643 171.29 449.928
291 0 77.441 15.4182 1194 130.729 171.534 448.016
292 0 78.2715 17.2988 1354 128.814 170.953 441.465
293 0 83.2032 17.5714 1462 128.053 171.057 444.632
294 0 85.2212 15.4656 1318 132.112 170.892 444.799
295 1 44.1517 8.85583 391 138.972 171.785 463.128
296 0 43.1532 9.68642 418 140.376 171.548 461.151
297 0 52.225 14.0354 733 133.473 172.862 456.978
298 0 55.4256 15.6787 869 123.119 174.059 460.307
299 0 51.6902 13.1553 680 133.463 175.163 453.776
300 0 54.1742 14.3795 779 131.013 177.19 454.336
301 0 55.2797 13.6578 755 129.609 178.64 455.189
302 0 57.0937 19.4242 1109 119.671 180.759 456.23
303 0 57.0983 13.6782 781 133.734 184.846 454.738
304 0 64.2254 15.1498 973 126.887 185.78 455.763
305 0 64.2305 16.2851 1046 127.904 187.612 457.076
306 0 65.1051 16.435 1070 127.641 187.348 453.98
307 0 67.3708 16.5502 1115 125.935 188.44 457.807
308 0 71.1855 17.925 1276 126.84 187.891 453.998
309 0 71.2474 17.1655 1223 128.681 187.774 455.556
310 0 72.2439 16.9288 1223 132.478 186.608 452.361
311 0 75.3402 15.1181 1139 136.998 186.335 452.565
312 0 78.2818 16.9005 1323 135.594 185.345 450.348
313 0 81.5998 17.2917 1411 133.956 184.169 455.739
314 0 82.2392 15.4792 1273 142.948 182.754 449.366
315 0 84.2776 14.2743 1203 146.587 181.905 448.431
316 1 40.124 11.1654 448 144.701 182.487 470.891
317 0 45.207 12.0999 547 144.826 180.329 468.671
318 0 47.2999 12.7907 605 141.64 176.383 464.549
319 0 49.1606 12.9169 635 139.383 174.956 465.184
320 0 50.2746 12.7102 639 143.7 173.709 464.501
321 0 48.1292 12.695 611 143.016 172.849 461.02
322 0 54.3959 13.3466 726 136.988 172.14 461.069
323 0 55.2629 17.0277 941 132.123 172.129 457.481
324 0 55.1218 13.2434 730 138.989 171.578 458.09
325 0 58.0731 13.0181 756 134.894 171.857 460.508
326 0 60.1107 19.1647 1152 125.116 170.753 457.343
327 0 60.0762 13.5827 816 136.2 170.754 454.554
328 0 65.0974 18.2189 1186 126.04 171.696 452.374
329 0 65.0841 14.827 965 132.988 171.889 446.923
330 0 70.15 17.0634 1197 125.02 172.799 446.577
331 0 69.2279 13.6795 947 129.204 173.907 448.001
332 0 73.4254 17.991 1321 121.185 175.387 444.079
333 0 74.1668 15.2899 1134 121.605 177.175 447.063
334 0 79.4872 17.7135 1408 118.2 178.609 443.006
335 0 80.2797 16.455 1321 119.541 180.551 441.729
336 0 81.1913 15.4204 1252 121.998 182.91 443.442
337 0 83.266 15.9729 1330 121.127 183.799 445.995
338 0 87.3187 15.495 1353 122.086 185.111 442.349
339 0 93.8101 21.7567 2041 113.795 185.76 447.35
340 0 94.3101 19.7434 1862 117.033 187.111 448.475
341 1 53.2533 13.9334 742 122.984 186.611 462.462
342 0 54.1435 12.2268 662 126.483 186.943 461.908
343 0 56.2732 15.6558 881 121.275 187.691 460.443
344 0 55.3861 12.4219 688 137.547 185.917 458.27
345 0 57.0733 12.6679 723 138.422 185.834 457.911
346 0 59.1925 11.2176 664 141.164 184.432 458.779
347 0 61.1325 13.5771 830 137.206 183.511 458.302
348 0 60.1238 10.5782 636 146.322 181.836 456.759
349 0 63.1793 12.3142 778 140.062 180.134 455.447
350 0 64.1426 11.9889 769 142.164 179.216 452.866
351 0 69.0806 12.9559 895 137.182 177.933 454.928
352 0 70.1449 12.2033 856 141.107 176.928 449.721
353 0 72.2195 13.0851 945 137.778 175.572 452.754
354 0 75.0611 13.3358 1001 139.184 174.392 446.444
355 0 78.1895 11.7535 919 138.399 173.212 450.177
356 0 80.1196 12.5437 1005 135.893 172.554 450.224
357 0 83.2062 15.4676 1287 134.298 172.403 441.768
358 1 43.2383 9.55173 413 137.409 171.332 462.174
359 0 47.182 11.8689 560 134.684 171.298 460.58
360 0 48.041 13.7383 660 132.411 171.912 460.329
361 0 49.1978 10.0817 496 138.794 172.427 455.363
362 0 49.1657 15.0511 740 132.922 171.754 454.584
363 0 56.2598 16.1572 909 119.595 173.776 460.252
364 0 55.1888 18.1196 1000 118.883 174.589 457.643
365 0 56.3691 18.6272 1050 117.027 175.862 455.508
366 0 56.1861 13.9536 784 122.7 178.991 452.107
367 0 58.0954 11.55 671 124.699 179.888 456.595
368 0 60.137 13.2364 796 123.045 181.263 453.823
369 0 67.2206 22.4039 1506 111.021 183.569 451.848
370 0 67.1336 13.987 939 121.284 185.152 456.818
371 0 65.234 12.6161 823 125.508 187.134 451.102
372 0 72.0752 29.0668 2095 107.087 185.678 452.589
373 0 72.2618 14.9595 1081 120.655 186.057 452.413
374 0 76.4252 20.8178 1591 116.866 186.521 444.835
375 0 76.1271 18.3378 1396 120.661 186.503 452.082
376 0 80.1808 16.5002 1323 123.186 185.955 449.85
377 0 81.2874 15.7712 1282 126.711 185.44 450.563
378 0 83.2789 20.7015 1724 120.786 184.447 453.87
379 0 87.2837 18.2852 1596 125.211 183.5 451.47
380 1 45.0946 12.9284 583 133.561 181.463 471.13
381 0 49.0799 11.9193 585 136.624 180.617 468.901
382 0 51.1239 13.3988 685 136.685 182.524 466.372
383 0 51.1225 11.4235 584 141.344 180.286 466.997
384 0 54.0651 12.6884 686 133.265 178.404 465.806
385 0 55.1537 14.2148 784 132.601 176.136 464.005
386 0 57.146 13.4043 766 130.458 175.46 466.127
387 0 56.121 14.4866 813 133.621 174.336 463.093
388 0 59.085 12.2705 725 135.407 173.745 461.028
389 0 60.276 14.4834 873 132.362 172.393 454.676
390 0 62.1691 14.7018 914 129.949 171.688 453.235
391 0 67.2621 11.5072 774 132.26 170.78 456.395
392 0 69.3239 16.0118 1110 125.487 170.511 453.989
393 0 73.1596 16.6622 1219 125.025 170.719 452.43
394 0 73.1889 11.969 876 133.347 171.42 448.315
395 0 76.0947 13.9432 1061 127.933 171.619 450.32
396 0 79.0435 16.8262 1330 124.092 171.87 448.108
397 0 80.2079 16.1705 1297 122.701 173.436 445.463
398 0 83.169 14.4886 1205 124.169 174.066 440.81
399 0 87.3604 24.3474 2127 111.136 175.386 442.242
400 0 89.1819 16.6514 1485 118.211 178.327 442.818
401 0 89.2621 12.5137 1117 123.932 180.271 437.983
402 0 94.5833 17.8044 1684 117.597 181.686 437.682
403 0 97.3061 17.8714 1739 118.916 183.561 435.451
404 0 102.549 19.5907 2009 115.252 184.442 441.821
405 1 57.3426 13.4804 773 117.859 184.966 461.63
406 0 55.1681 8.24752 455 128.813 184.664 456.914
407 0 56.1561 11.4324 642 137.76 187.363 457.081
408 0 62.1206 14.3109 889 121.418 188.174 457.883
409 0 64.2189 15.5717 1000 123.575 187.039 458.307
410 0 66.1704 13.2385 876 129.704 186.962 458.199
411 0 65.2177 12.8646 839 131.94 186.381 455.914
412 0 74.2479 15.1385 1124 127.128 185.28 459.958
413 0 71.1684 14.5992 1039 131.943 183.829 455.308
414 0 73.2601 14.7693 1082 133.04 182.58 453.333
415 0 76.138 14.0403 1069 133.173 181.61 454.018
416 0 76.1124 12.5866 958 139.915 180.198 448.98
417 0 79.0812 12.3291 975 141.635 179.566 448.302
418 0 84.3188 11.8953 1003 137.632 177.865 451.5
419 0 85.2498 12.6335 1077 140.176 176.141 444.789
420 0 85.1294 11.089 944 140.418 174.74 443.917
421 0 91.1978 12.917 1178 139.867 174.119 440.853
422 1 46.0622 8.18458 377 140.294 173.801 465.772
423 0 49.2438 13.0169 641 132.175 172.08 461.282
424 0 53.1841 10.0594 535 136.279 173.46 460.774
425 0 53.3221 15.547 829 124.35 172.197 458.385
426 0 57.1457 15.6267 893 123.389 171.915 457.862
427 0 55.1605 13.3973 739 130.306 172.356 455.853
428 0 57.2419 12.9101 739 129.563 172.475 453.157
429 0 61.3441 12.3239 756 125.844 173.872 455.255
430 0 62.1816 14.9401 929 121.89 174.537 455.425
431 0 66.3324 20.9551 1390 113.019 174.952 456.03
432 0 67.3053 15.2885 1029 122.678 176.948 448.727
433 0 68.139 13.6632 931 122.897 178.149 452.999
434 0 67.1872 13.2912 893 127.06 180.908 445.122
435 0 71.3714 15.2722 1090 122.518 182.704 447.192
436 0 77.2788 22.3477 1727 110.652 183.313 451.141
437 0 78.2475 16.1539 1264 119.926 185.853 451.508
438 0 83.5204 14.9904 1252 121.583 186.371 449.226
439 0 82.6786 17.1024 1414 119.884 186.833 448.348
440 0 83.4463 14.3805 1200 125.573 188.043 444.718
441 0 84.3191 13.7573 1160 128.21 188.117 443.478
442 0 87.337 14.862 1298 128.341 187.678 443.338
443 0 92.2481 17.0302 1571 125.784 186.743 446.295
444 0 94.3547 16.9467 1599 129.557 187.065 444.867
445 0 94.1759 13.2093 1244 137.633 185.97 445.492
446 0 96.1406 15.3837 1479 137.755 184.513 444.128
447 0 98.2016 15.2034 1493 143.896 183.562 438.516
448 0 101.269 14.8022 1499 143.291 182.424 434.938
449 0 105.453 15.7227 1658 139.226 180.559 436.432
450 0 109.257 15.3216 1674 138.916 179.336 438.158
451 0 112.4 14.9288 1678 140.078 178.022 434.816
452 0 117.272 18.956 2223 129.752 176.57 437.705
453 0 118.323 16.3535 1935 133.352 175.257 435.779
454 0 121.249 16.7919 2036 134.895 174.011 429.629
455 0 127.534 16.8347 2147 134.354 173.258 425.29
456 0 131.389 20.2985 2667 127.808 172.244 425.97
457 0 133.308 13.9827 1864 139.573 172.323 422.363
458 0 136.308 13.829 1885 138.543 172.297 419.338
459 0 142.361 16.3528 2328 134.599 171.515 413.917
460 0 147.485 18.3477 2706 131.975 171.772 410.78
461 0 150.567 16.1655 2434 136.295 171.765 403.798
462 0 156.567 15.9037 2490 133.575 172.507 406.138
463 0 160.944 17.9379 2887 130.428 173.318 399.053
464 0 165.932 22.2862 3698 123.762 173.813 398.111
465 0 165.932 22.3163 3703 139.098 174.788 398.196
466 1 80.5455 14.2404 1147 129.352 177.8 436.002
467 0 84.5485 16.2274 1372 128.423 180.097 432.976
468 0 85.3597 12.7929 1092 134.176 182.172 435.457
469 0 86.1619 14.4147 1242 130.981 184.297 438.839
470 0 88.1921 13.5159 1192 134.411 185.92 438.48
471 0 91.4314 17.751 1623 128.895 186.648 436.488
472 0 95.2096 19.8299 1888 124.037 186.425 437.991
473 0 100.31 16.13 1618 130.689 187.794 440.275
474 0 97.2719 15.2973 1488 135.704 187.728 440.735
475 0 97.2927 15.1604 1475 140.172 187.517 436.323
476 0 101.259 16.5911 1680 139.412 186.371 435.901
477 0 105.211 17.232 1813 140.084 185.855 439.496
478 0 106.281 18.4793 1964 139.405 185.175 437.169
479 0 106.133 13.8882 1474 152.22 184.668 435.157
480 0 107.263 15.5413 1667 149.461 183.314 433.271
481 0 110.281 16.9022 1864 147.205 182.117 436.274
482 0 111.377 18.6394 2076 144.367 181.03 433.082
483 0 112.24 17.4715 1961 149.036 179.013 427.931
484 0 115.286 18.6493 2150 144.92 177.501 428.826
485 0 117.115 15.5915 1826 152.9 176.79 429.375
486 0 118.297 19.4426 2300 144.155 175.185 427.786
487 0 119.15 18.5229 2207 146.817 174.098 423.638
488 0 121.249 19.1342 2320 148.476 173.786 424.32
489 0 121.145 16.4596 1994 153.676 173.005 420.536
490 0 122.207 16.963 2073 152.311 172.968 420.781
491 0 126.496 18.4749 2337 148.128 172.485 415.071
492 0 129.213 21.6232 2794 140.928 172.292 416.212
493 0 128.177 18.3107 2347 148.441 172.516 413.519
494 0 128.265 17.0194 2183 150.88 172.399 408.344
495 0 133.149 16.3125 2172 150.638 172.606 411.909
496 0 132.407 16.5928 2197 152.098 173.984 408.471
497 0 135.401 16.8462 2281 149.533 174.741 408.025
498 0 135.302 21.803 2950 140.755 176.255 407.47
499 0 136.411 18.7008 2551 143.907 177.169 403.92
500 0 139.401 16.0615 2239 149.277 179.513 403.016
501 0 140.709 18.4779 2600 147.36 180.758 401.887
502 0 140.696 18.6359 2622 157.961 182.725 401.895
503 0 142.497 18.3231 2611 148.788 184.165 403.488
504 0 144.66 21.2637 3076 143.594 185.382 397.524
505 0 144.536 19.6836 2845 148.038 186.031 400.628
506 0 148.513 21.6614 3217 142.462 186.435 403.015
507 0 147.517 17.903 2641 151.133 186.466 401.544
508 0 150.548 22.7901 3431 142.782 186.806 401.799
509 0 146.466 16.55 2424 159.026 186.33 399.617
510 0 148.577 16.6647 2476 160.632 185.938 402.821
511 0 153.543 18.3401 2816 156.722 185.636 403.846
512 0 152.529 18.4161 2809 159.99 184.459 405.929
513 0 153.43 18.4775 2835 161.829 183.089 398.99
514 0 157.901 19.8035 3127 158.996 182.444 401.263
515 0 155.349 18.3329 2848 164.793 180.765 405.903
516 0 160.469 20.409 3275 157.132 179.52 404.603
517 0 160.382 18.219 2922 162.678 177.503 402.497
518 0 161.403 23.147 3736 151.985 176.078 400.384
519 0 162.746 17.1618 2793 165.592 174.894 396.325
520 0 163.426 17.5676 2871 163.989 173.924 396.555
521 0 165.329 18.3695 3037 163.17 173.484 396.394
522 0 164.72 18.6437 3071 161.411 172.334 394.515
523 0 164.531 17.6866 2910 166.571 171.944 393.222
524 0 165.393 20.2306 3346 157.213 171.126 396.869
525 0 166.587 16.8981 2815 164.509 171.216 389.68
