time division length width area intensity CMx CMy
0 0 77.5578 18.0253 1398 130.469 1034.2 427.256
1 0 81.124 13.954 1132 135.489 1036 424.357
2 0 84.2399 13.6752 1152 135.71 1036.24 424.829
3 0 84.2629 11.9863 1010 140.356 1036.56 419.145
4 0 84.2629 11.9151 1004 153.985 1037.58 418.97
5 0 92.3226 13.2687 1225 133.239 1037.77 421.233
6 0 98.4703 19.61 1931 121.361 1037.43 428.894
7 0 96.2344 21.6347 2082 121.036 1036.1 428.211
8 0 104.245 24.5574 2560 117.861 1035.1 429.346
9 0 105.401 19.0701 2010 126.942 1033.26 415.027
10 0 114.525 19.5678 2241 127.286 1032.93 419.966
11 1 56.1127 10.4967 589 144.358 1031.35 440.701
12 0 57.2391 11.3384 649 150.277 1030.36 442.071
13 0 60.1241 13.1561 791 147.391 1029.26 441.474
14 0 62.1752 11.9501 743 149.677 1029.37 441.871
15 0 64.091 13.512 866 151.68 1027.44 441.46
16 0 63.3741 11.6451 738 158.004 1024.84 438.802
17 0 69.336 14.3071 992 148.944 1022.91 441.179
18 0 68.3361 13.5799 928 138.29 1020.82 440.041
19 0 72.2466 14.6997 1062 145.88 1021.47 436.411
20 0 75.3402 15.9012 1198 149.516 1020 433.014
21 0 76.145 15.1684 1155 153.098 1019.38 429.706
22 0 77.2252 16.1605 1248 151.855 1019.45 429.013
23 0 80.2757 14.3879 1155 154.439 1018.81 426.739
24 0 84.1 13.5196 1137 155.074 1019.53 426.298
25 0 85.1103 12.7129 1082 158.109 1020.62 422.206
26 1 49.1719 10.1481 499 153.685 1020.46 441.621
27 0 50.0534 11.1281 557 150.28 1020.65 440.822
28 0 51.1436 10.8322 554 146.278 1021.47 442.863
29 0 58.4527 14.3022 836 134.083 1023.67 440.728
30 0 54.3835 11.566 629 140.191 1022.23 436.017
31 0 57.4207 12.1907 700 133.217 1023.82 436.587
32 0 60.146 12.32 741 126.949 1028.69 439.339
33 0 62.2862 13.5504 844 122.134 1030.63 438.265
34 0 66.3537 13.5335 898 118.339 1032.63 442.812
35 0 68.3643 17.1873 1175 127.934 1033.32 439.481
36 0 67.2284 15.6481 1052 118.971 1034.97 436.747
37 0 68.2649 15.1762 1036 121.181 1034.32 432.608
38 0 75.6976 27.055 2048 107.767 1034.39 437.34
39 0 72.4048 12.9411 937 117.571 1036.16 446.475
40 0 73.2018 14.4669 1059 122.855 1035.49 437.295
41 0 77.1284 14.1064 1088 125.285 1035.4 437.079
42 0 78.4146 12.995 1019 129.575 1034.94 438.711
43 0 81.1092 13.0565 1059 131.165 1033.5 432.416
44 0 85.4926 16.2704 1391 128.146 1032.38 440.262
45 0 89.2941 13.4723 1203 136.057 1031.3 434.211
46 0 90.2221 16.1379 1456 138.571 1030.91 434.433
47 1 49.1298 12.986 638 143.81 1030.37 454.364
48 0 49.0536 14.1478 694 141.602 1028.57 453.836
49 0 48.0713 13.376 643 141.277 1027.54 455.84
50 0 50.0866 12.6182 632 146.522 1026.22 453.149
51 0 49.075 11.8594 582 151.887 1024.49 451.146
52 0 52.1409 12.8306 669 150.368 1022.87 450.196
53 0 55.1812 13.6822 755 146.572 1022.04 451.201
54 0 55.1567 15.5738 859 145.068 1021.45 447.64
55 0 57.1902 15.632 894 143.63 1020.29 445.824
56 0 57.1902 15.4922 886 146.169 1019.29 445.869
57 0 61.3123 15.5434 953 138.137 1019.27 445.339
58 0 62.33 16.4126 1023 138.248 1019.06 440.088
59 0 62.3144 14.2824 890 146.57 1019.18 436.509
60 0 65.1227 16.3845 1067 139.539 1019.37 436.912
61 0 68.1558 14.6869 1001 140.937 1019.49 438.201
62 0 71.1726 15.1182 1076 140.392 1019.57 435.463
63 0 77.2497 16.9451 1309 132.943 1020.81 431.884
64 0 72.3296 13.8394 1001 138.027 1022.7 433.405
65 0 76.2077 14.7098 1121 132.717 1023.91 433.778
66 0 78.199 16.4324 1285 132.39 1026.58 427.361
67 0 82.2121 16.4696 1354 125.708 1027.57 439.258
68 0 86.3757 14.3906 1243 133.369 1028.82 431.717
69 0 88.2711 19.7913 1747 125.714 1030.53 427.761
70 1 49.1691 9.74188 479 136.094 1031.06 449.386
71 0 49.1576 12.6532 622 140.818 1031.2 449.799
72 0 49.1137 10.7913 530 147.145 1032.58 449.036
73 0 52.0986 14.4534 753 136.635 1030.88 448.833
74 0 51.0465 11.9695 611 144.378 1030.29 449.337
75 0 54.1857 12.937 701 146.792 1029.81 448.058
76 0 56.1764 12.9236 726 146.628 1028.94 451.716
77 0 59.0259 13.7397 811 144.972 1028.73 450.075
78 0 59.1086 14.025 829 148.253 1027.9 452.776
79 0 62.1164 13.9577 867 148.37 1026.16 450.731
80 0 61.1393 11.8418 724 153.746 1024.9 449.182
81 0 64.117 13.9433 894 147.296 1023.75 447.752
82 0 64.0988 13.9004 891 148.104 1023.4 445.517
83 0 67.1468 14.163 951 151.059 1022.04 444.238
84 0 69.0643 13.6539 943 151.055 1021.07 444.228
85 0 71.0737 14.4779 1029 148.028 1019.67 442.918
86 0 72.1702 12.7061 917 153.085 1018.71 444.47
87 0 76.1336 14.7372 1122 151.39 1017.71 442.093
88 0 78.1527 12.1173 947 155.971 1016.37 440.867
89 1 43.0502 10.9639 472 149.534 1014.96 454.252
90 0 43.0441 13.7766 593 146.659 1014.3 453.44
91 0 43.0441 13.823 595 133.934 1012.27 453.499
92 0 46.1478 9.62126 444 151.68 1014.09 451.786
93 0 50.1114 10.756 539 146.904 1015.17 451.165
94 0 47.1632 12.7218 600 147.2 1014.78 448.088
95 0 51.3564 12.2672 630 143.979 1016.3 448.273
96 0 52.2462 13.5895 710 142.875 1016.84 444.745
97 0 51.2461 12.4107 636 137.027 1019.27 446.748
98 0 55.3154 18.1143 1002 126.446 1022.24 443.213
99 0 55.2711 15.5416 859 130.484 1024.08 441.93
100 0 57.2409 15.1989 870 129.539 1025.8 443.341
101 0 61.7369 15.8252 977 123.695 1027.86 446.588
102 0 63.2684 14.9047 943 123.645 1028.87 443.97
103 0 61.3257 17.1543 1052 122.42 1030.5 442.736
104 0 65.2368 15.3135 999 122.176 1031.39 444.677
105 0 66.1433 16.1165 1066 120.401 1032.23 437.674
106 0 67.2313 13.5502 911 122.17 1032.28 445.268
107 0 69.259 14.8428 1028 123.229 1032.67 443.16
108 0 71.1475 15.3906 1095 129.007 1031.28 441.787
109 0 73.1847 13.1175 960 131.6 1031.49 440.701
110 0 73.1847 13.0492 955 137.106 1031.51 440.882
111 0 80.1405 12.7526 1022 139.245 1030.54 439.753
112 0 82.2033 15.413 1267 134.182 1029.99 439.941
113 1 45.1151 11.9472 539 140.521 1029.47 459.657
114 0 41.0919 7.30071 300 151.487 1028.58 458.777
115 0 45.0423 12.1219 546 143.095 1027.62 454.566
116 0 49.0756 10.331 507 144.203 1026.69 458.369
117 0 49.065 11.0466 542 143.821 1024.43 459.391
118 0 54.1921 12.3819 671 142.577 1022.64 456.435
119 0 54.3195 14.1386 768 147.395 1021.73 451.785
120 0 57.2168 15.3102 876 139.568 1020.36 451.159
121 0 57.2199 14.4705 828 142.882 1018.75 446.43
122 0 61.2852 15.9419 977 138.401 1017.28 446.865
123 0 61.2614 12.6344 774 145.205 1015.79 444.722
124 0 63.3739 12.2606 777 144.965 1015.81 442.932
125 0 66.2703 15.648 1037 137.39 1015.46 441.581
126 0 66.1583 12.8329 849 144.024 1014.9 440.564
127 0 66.17 12.7399 843 149.809 1014.88 440.58
128 0 70.179 14.4915 1017 141.342 1014.96 433.38
129 0 74.1893 10.7293 796 142.053 1015.94 438.8
130 0 74.3205 13.5898 1010 147.354 1016.07 432.234
131 0 78.2277 12.9494 1013 143.257 1018.16 434.284
132 0 79.1784 13.6527 1081 139.401 1019.24 429.772
133 0 86.1331 15.4993 1335 134.003 1021.65 428.651
134 0 88.2554 16.5089 1457 130.446 1023.7 427.679
135 0 91.1866 13.7301 1252 131.845 1025.33 430.13
136 1 47.0766 7.79581 367 132.978 1027.03 450.207
137 0 50.2582 10.5853 532 125.667 1029.08 454.124
138 0 56.3474 14.3574 809 122.546 1029.3 452.985
139 0 56.6558 13.9085 788 121.567 1029.75 449.858
140 0 54.3078 9.85125 535 127.813 1029.92 452.499
141 0 58.1882 10.741 625 129.766 1029.11 452.152
142 0 59.1611 14.0633 832 125.626 1029.36 449.048
143 0 61.2437 13.5198 828 129.998 1027.84 449.75
144 0 61.2437 13.4218 822 132.018 1025.85 449.734
145 0 68.1691 15.2855 1042 136.442 1026.93 450.462
146 0 66.1176 13.9146 920 140.477 1025.46 449.074
147 0 69.3348 13.4997 936 143.232 1024.91 448.588
148 0 73.3453 14.9294 1095 143.594 1024.02 446.911
149 0 76.206 15.0119 1144 141.289 1022 446.934
150 0 75.1483 14.7442 1108 145.476 1020.39 440.301
151 0 76.2126 12.5176 954 151.518 1019.75 442.69
152 0 82.4518 15.5121 1279 144.497 1018.17 440.142
153 0 83.3231 14.7618 1230 148.007 1016.51 436.88
154 0 87.1696 17.5176 1527 142.403 1015.29 435.217
155 0 92.2882 15.7658 1455 142.85 1014.42 437.466
156 0 93.3469 15.6834 1464 144.714 1013.75 433.572
157 0 94.2251 14.8262 1397 146.199 1012.46 430.735
158 0 99.4012 13.4405 1336 148.313 1011.61 427.046
159 1 51.0897 8.94505 457 146.396 1011.74 448.168
160 0 54.1508 11.2648 610 143.315 1011.96 443.662
161 0 56.267 13.3649 752 134.694 1009.91 443.992
162 0 56.267 13.3649 752 132.18 1008.92 443.87
163 0 58.0849 10.9839 638 137.53 1011.94 445.665
164 0 65.6167 14.9657 982 124.246 1015.72 446.23
165 0 64.2586 14.5973 938 124.393 1017.13 442.962
166 0 69.408 18.4129 1278 118.837 1018.35 441.064
167 0 68.0861 12.7339 867 125.836 1020.14 440.701
168 0 72.4329 13.8749 1005 122.305 1022.42 442.597
169 0 74.2359 20.8929 1551 114.686 1023.35 437.583
170 0 75.1747 14.2468 1071 120.315 1025.15 441.089
171 0 79.2074 16.0212 1269 120.167 1026.37 438.732
172 0 76.2353 11.3071 862 128.579 1026.01 436.951
173 0 81.4588 12.8286 1045 130.499 1026.98 437.177
174 0 85.4386 12.6289 1079 131.383 1027.53 437.66
175 0 85.1563 15.2308 1297 129.537 1027.35 441.612
176 0 90.3179 14.1722 1280 132.929 1023.58 439.255
177 0 92.2998 14.8213 1368 136.035 1023.41 436.196
178 0 96.2167 14.4881 1394 146.178 1022.85 436.002
179 0 97.2653 15.5246 1510 144.611 1022.88 437.66
180 0 101.227 15.243 1543 145.034 1021.89 429.813
181 0 104.455 13.422 1402 150.61 1022.14 430.197
182 1 57.4081 11.3921 654 145.566 1021.57 453.173
183 0 57.3474 11.8576 680 138.685 1020.29 454.844
184 0 62.3481 12.0613 752 137.707 1019.2 453.172
185 0 64.2509 15.0037 964 132.326 1016.81 449.488
186 0 65.0932 14.6559 954 133.352 1015.9 450.065
187 0 67.1476 16.1138 1082 129.294 1014.74 449.55
188 0 70.2285 18.3686 1290 126.371 1014.1 443.078
189 0 71.1499 15.4884 1102 130.337 1013.31 442.253
190 0 73.2743 14.5344 1065 132.244 1012.31 441.387
191 0 76.1484 12.6858 966 134.733 1011.63 440.141
192 0 75.2233 13.3735 1006 141.188 1009.02 438.324
193 0 81.4558 15.8614 1292 134.217 1009.88 441.339
194 0 81.3026 18.0806 1470 132.601 1009.99 432.399
195 0 83.38 14.7637 1231 138.859 1009.37 433.508
196 0 85.5016 14.4442 1235 139.564 1010.92 432.943
197 0 88.4527 14.8215 1311 136.003 1011.22 428.105
198 0 91.36 12.2701 1121 137.494 1012.51 432.89
199 0 92.585 15.9313 1475 130.048 1013.8 425.919
200 0 95.7777 12.9988 1245 133.503 1015.81 427.745
201 0 98.6856 15.6152 1541 128.419 1017.63 423.816
202 0 103.766 13.0679 1356 128.926 1019.96 427.94
203 0 107.98 15.0028 1620 125.962 1021.96 426.299
204 0 112.172 16.9472 1901 130.988 1023.17 422.165
205 0 112.159 17.1186 1920 131.97 1024.15 422.367
206 1 61.6056 15.583 960 130.99 1025.61 446.128
207 0 60.1324 13.1211 789 133.03 1023.65 451.529
208 0 63.0729 12.2715 774 139.543 1023.49 444.913
209 0 65.1835 14.5282 947 134.423 1023.35 444.464
210 0 68.159 14.3781 980 136.782 1023.54 445.81
211 0 71.0801 15.166 1078 140.125 1022.95 446.482
212 0 72.2176 14.484 1046 145.136 1022.43 445.631
213 0 74.142 15.4703 1147 145.66 1021.51 444.573
214 0 75.1173 13.3791 1005 150.399 1020.26 444.593
215 0 80.085 15.2338 1220 146.369 1018.84 440.752
216 0 81.202 15.2706 1240 148.716 1017.69 441.013
217 0 85.4009 15.5268 1326 145.333 1017.22 440.358
218 0 87.1232 13.3374 1162 148.401 1014.75 434.348
219 0 91.2182 14.6791 1339 134.432 1015.42 436.186
220 1 47.0509 10.8181 509 140.208 1015.54 455.703
221 0 49.0811 11.6338 571 138.461 1013.15 452.989
222 0 48.1059 10.8718 523 135.526 1010.75 456.172
223 0 50.0996 11.2176 562 141.071 1010.18 454.121
224 0 53.111 12.4833 663 136.265 1009.47 452.069
225 0 56.1457 15.7626 885 130.061 1008.95 448.831
226 0 57.1345 13.6345 779 132.561 1008.51 449.407
227 0 56.0318 11.4399 641 138.651 1008.9 448.259
228 0 60.307 12.7846 771 135.681 1009.38 444.318
229 0 65.2907 14.3512 937 130.799 1009.42 445.832
230 0 64.2333 12.7815 821 133.325 1010.73 442.324
231 0 68.2559 13.4494 918 128.914 1010.76 440.199
232 0 70.1477 14.1558 993 126.791 1013.18 441.12
233 0 71.1742 14.8228 1055 126.797 1014.52 437.689
234 0 71.2064 13.6364 971 129.9 1016.52 435.943
235 0 75.3228 13.2496 998 129.548 1017.9 437.205
236 0 81.3944 14.743 1200 127.018 1020.2 435.276
237 0 83.5551 15.3312 1281 127.365 1022.39 434.024
238 1 41.4079 9.94978 412 132.352 1022.36 456.847
239 0 45.2889 11.1948 507 130.511 1024.45 456.726
240 0 45.2919 12.3863 561 132.221 1023.84 454.61
241 0 46.59 10.9466 510 136.712 1024.55 456.218
242 0 45.356 14.0444 637 130.942 1023.33 455.165
243 0 47.0736 10.6004 499 134.355 1025.59 457.661
244 0 50.0947 13.7939 691 124.682 1024.83 458.373
245 0 51.2332 12.1991 625 128.558 1025.37 460.722
246 0 50.1542 11.2653 565 135.304 1024 458.265
247 0 52.1346 12.9089 673 132.14 1022.65 458.211
248 0 57.1454 15.0143 858 128.725 1021.75 457.943
249 0 58.1488 13.3451 776 132.523 1020.85 457.17
250 0 58.1941 14.108 821 131.531 1019.65 456.482
251 0 56.2522 12.1951 686 138.593 1017.83 452.303
252 0 61.2157 14.065 861 132.195 1016.55 454.192
253 0 62.201 13.376 832 134.38 1015.34 452.06
254 0 67.2582 14.987 1008 130.458 1013.92 451.038
255 0 68.2182 12.6213 861 137.382 1012.56 448.606
256 0 68.1984 14.2819 974 136.34 1011.88 442.783
257 0 71.2783 14.0435 1001 133.694 1011.83 448.886
258 0 74.4125 16.2473 1209 130.191 1010.83 443.635
259 0 74.4125 16.2741 1211 138.098 1010.82 443.81
260 0 79.1805 13.6902 1084 134.863 1010.05 438.88
261 1 42.0522 8.27543 348 133.954 1011.23 460.011
262 0 41.1557 8.94164 368 132.438 1011.01 458.163
263 0 46.11 11.7979 544 128.908 1011.17 455.355
264 0 44.0298 10.4475 460 129.811 1011.95 454.243
265 0 50.0858 12.8779 645 122.896 1012.9 452.788
266 0 50.0858 12.798 641 136.367 1013.92 452.708
267 0 49.0298 14.3994 706 121.669 1016.23 450.766
268 0 53.0672 13.7185 728 120.203 1019.03 453.986
269 0 54.0812 14.4043 779 126.28 1021.85 448.78
270 0 51.0776 11.5119 588 128.935 1023.49 450.704
271 0 53.0551 12.308 653 129.53 1023.82 448.138
272 0 57.0881 14.2236 812 127.053 1025.42 449.367
273 0 54.13 12.3776 670 134.212 1024.92 450.952
274 0 61.1807 12.8962 789 131.018 1025.88 451.27
275 0 62.1461 12.4545 774 133.703 1025.66 451.385
276 0 67.3938 16.0252 1080 125.141 1025.61 452.266
277 0 67.185 15.9857 1074 127.6 1024.92 451.392
278 0 66.1218 15.3958 1018 131.196 1023.45 447.971
279 0 66.179 13.7808 912 133.459 1023.13 450.76
280 0 69.1281 12.9904 898 135.526 1022.76 451.216
281 0 72.3742 14.0796 1019 134.553 1021.35 448.499
282 0 74.1654 12.2159 906 138.599 1019.14 450.566
283 0 79.07 16.4538 1301 130.652 1018.06 446.463
284 1 40.0444 9.9889 400 139.828 1016.2 463.01
285 0 42.0432 10.8222 455 137.387 1015.55 462.659
286 0 44.0467 8.96776 395 138.795 1014.41 463.096
287 0 46.0337 12.0564 555 131.13 1013.32 462.065
288 0 46.0337 12.1433 559 135.236 1012.33 462.141
289 0 48.2113 11.7815 568 131.384 1010.49 456.917
290 0 50.05 13.3067 666 127.697 1010.11 457.131
291 0 50.065 13.0231 652 130.179 1010.32 451.285
292 0 54.2729 13.211 717 126.141 1009.31 449.304
293 0 53.1197 10.4669 556 131.198 1009.91 451.252
294 0 56.2219 13.6246 766 125.757 1009.6 449.286
295 0 61.2363 19.2533 1179 115.214 1010.32 448.877
296 0 57.2421 10.2722 588 129.367 1010.67 449.029
297 0 64.407 12.6539 815 122.912 1012.04 450.129
298 0 61.1871 14.3331 877 122.673 1013.11 444.778
299 0 68.3576 14.0145 958 118.229 1014.05 447.551
300 0 63.1272 12.958 818 122.088 1016.05 444.229
301 0 73.3048 15.2514 1118 115.678 1017.4 447.406
302 0 71.343 18.4741 1318 112.921 1019.13 448.866
303 0 70.0434 18.203 1275 126.494 1021.21 443.665
304 0 72.1159 15.0175 1083 130.888 1022.56 444.101
305 0 74.1193 15.9608 1183 129.063 1024.15 444.375
306 0 77.199 19.3526 1494 119.178 1024.44 446.529
307 0 79.1746 16.2426 1286 125.748 1024.37 443.684
308 0 80.0882 14.996 1201 130.929 1024.02 441.619
309 0 84.15 15.3298 1290 130.447 1023.95 443.016
310 0 87.2928 17.9282 1565 127.798 1023.06 445.233
311 0 89.0873 15.2435 1358 132.621 1022.87 443.316
312 1 46.1122 11.2768 520 140.048 1021.94 460.6
313 0 49.1331 12.6595 622 138.318 1019.85 462.024
314 0 50.1253 11.2518 564 137.22 1018.91 464.415
315 0 52.2212 15.7024 820 133.057 1018.02 459.318
316 0 52.2394 13.7635 719 141.462 1016.53 458.697
317 0 56.1672 15.4182 866 133.322 1015.08 459.439
318 0 57.1267 12.516 715 139.873 1013.92 460.941
319 0 57.0589 15.1072 862 135.993 1012.45 457.602
320 0 58.0696 14.9304 867 138.96 1010.58 454.7
321 0 61.1533 15.6492 957 137.402 1009.49 454.394
322 0 61.1532 13.5071 826 142.397 1007.81 449.45
323 0 63.0885 14.2974 902 139.956 1008.26 451.079
324 0 67.2479 16.9373 1139 133.871 1007.87 448.385
325 0 69.1818 14.657 1014 136.959 1007.92 447.289
326 0 70.2315 13.6406 958 139.902 1007.66 444.084
327 0 74.1226 14.53 1077 137.284 1007.7 442.164
328 0 74.2112 15.8467 1176 134.554 1008.32 442.273
329 0 77.1282 15.0529 1161 135.053 1008.66 438.885
330 0 79.3482 15.7534 1250 133.389 1009.39 436.447
331 0 84.6404 21.1128 1787 122.18 1010.86 437.607
332 0 83.4778 19.2506 1607 125.737 1012.55 432.702
333 0 86.1965 15.3835 1326 129.517 1013.64 434.679
334 0 90.392 18.7185 1692 121.796 1015.66 437.095
335 1 49.2181 9.20393 453 130.11 1018.86 453.121
336 0 50.0403 9.6722 484 132.692 1020.69 453.382
337 0 51.1407 12.4363 636 129.412 1021.34 454.423
338 0 53.1458 12.9267 687 127.432 1021.78 454.146
339 0 52.1517 15.244 795 123.073 1023.86 456.22
340 0 58.365 16.157 943 124.422 1023.72 455.718
341 0 55.1804 13.2475 731 136.109 1022.78 455.524
342 0 57.1504 16.1154 921 129.649 1023.25 456.134
343 0 56.0858 15.0662 845 135.844 1022.96 456.574
344 0 59.0562 15.0027 886 138.137 1021.37 453.722
345 0 60.1677 15.8391 953 136.077 1021.66 454.877
346 0 63.1413 13.5094 853 141.689 1020.31 454.851
347 0 63.0966 12.5205 790 146.004 1019.36 456.019
348 0 66.192 16.5277 1094 140.249 1018.1 452.77
349 0 66.192 16.5277 1094 124.523 1016.11 452.709
350 0 69.1468 13.493 933 145.353 1015.13 448.617
351 0 71.2445 13.8818 989 146.89 1013.9 449.586
352 0 72.2044 14.3482 1036 143.748 1012.57 449.514
353 0 77.1211 14.9505 1153 144.944 1011.15 444.357
354 0 78.1677 16.2599 1271 140.694 1010.49 446.399
355 0 78.1696 16.4386 1285 126.746 1010.46 446.45
356 0 82.1857 12.3014 1011 149.47 1009.28 437.152
357 0 87.3421 14.6092 1276 142.869 1009.4 437.638
358 0 94.374 18.13 1711 133.099 1009.2 439.088
359 1 45.0413 10.0352 452 144.226 1008.59 456.985
360 0 47.06 9.94475 468 143.41 1008.7 455.731
361 0 49.0907 14.626 718 132.797 1008.6 455.372
362 0 52.1298 10.6657 556 138.399 1008.37 455.372
363 0 54.0675 12.7063 687 132.456 1010 453.921
364 0 55.0672 13.7832 759 130.748 1010.36 451.007
365 0 57.1105 13.0974 748 129.239 1011.94 450.802
366 0 58.0987 13.632 792 127.249 1014.08 448.098
367 0 61.0894 13.3084 813 125.818 1016.08 449.771
368 0 64.1019 17.3786 1114 117.743 1017.87 449.313
369 0 63.1873 13.2147 835 123.304 1020.07 445.892
370 0 65.3156 15.3562 1003 121.554 1021.67 445.342
371 0 68.2334 12.5012 853 125.121 1021.89 449.076
372 0 70.1719 15.7898 1108 132.309 1023.19 445.518
373 0 72.211 12.7127 918 137.907 1022.52 443.243
374 1 39.12 10.864 425 137.861 1024.07 463.835
375 0 36.0404 10.4882 378 141.796 1022.93 462.939
376 0 40.1071 15.1843 609 130.105 1022.04 466.319
377 0 38.1878 11.6006 443 145.424 1021.4 463.115
378 0 40.0372 13.987 560 135.904 1021.04 464.375
379 0 40.225 11.6594 469 140.458 1019.35 467.335
380 0 42.0575 12.364 520 141.808 1018.7 464.294
381 0 44.0385 12.3982 546 141.54 1017.64 466.621
382 0 43.0748 11.9559 515 144.928 1016.91 464.911
383 0 46.0363 12.6422 582 141.223 1015.96 465.385
384 0 47.0863 12.1904 574 145.991 1014.14 462.911
385 0 49.0662 14.2053 697 137.983 1012.94 461.966
386 0 49.0617 12.9021 633 143.074 1011.5 459.872
387 0 49.133 12.9445 636 142.085 1010.29 458.619
388 0 53.1014 13.9168 739 138.713 1010.81 456.624
389 0 55.2143 13.5472 748 137.603 1010.17 458.278
390 0 54.0535 15.0592 814 136.557 1009.49 453.002
391 0 55.1153 12.4466 686 144.172 1008.61 451.531
392 0 58.1478 13.4313 781 140.977 1008.72 449.778
393 0 62.2688 17.4726 1088 129.313 1008.87 452.776
394 0 60.162 15.9902 962 136.112 1008.86 446.495
395 0 63.1882 18.0097 1138 132.055 1009.86 447.286
396 0 63.1051 13.739 867 140.997 1009.43 444.345
397 0 66.2014 13.9876 926 139.392 1010.41 443.576
398 0 69.2386 15.0205 1040 135.302 1011.56 443.122
399 0 72.1622 13.3172 961 139.947 1013.12 442.766
400 0 74.2903 14.053 1044 138.096 1014.88 439.231
401 1 40.2138 12.5082 503 126.759 1016.99 460.262
402 0 40.2453 10.0633 405 130.847 1017.82 457.425
403 0 41.0499 11.4008 468 135.387 1019.55 455.823
404 0 45.1231 14.1834 640 128.197 1020.78 457.145
405 0 45.097 13.3047 600 127.847 1021.09 457.758
406 0 45.0372 12.3231 555 131.297 1021.57 459.31
407 0 46.0735 12.9142 595 136.8 1022.45 458.071
408 0 49.0834 12.1222 595 132.956 1023.76 461.062
409 0 49.1374 11.8036 580 134.769 1022.87 459.202
410 0 51.2627 12.1921 625 134.57 1022.88 459.43
411 0 52.3124 12.2915 643 136.638 1021.73 459.935
412 0 54.2156 14.1472 767 133.391 1021.34 458.102
413 0 57.1976 14.7559 844 131.931 1019.02 456.827
414 0 57.3166 12.0558 691 141.265 1018.04 455.317
415 0 61.2381 13.8966 851 134.016 1017.3 457.985
416 0 60.2201 12.3713 745 139.021 1016.5 456.979
417 0 62.3718 13.4516 839 138.936 1015.06 452.928
418 0 66.2858 15.2974 1014 132.696 1013.85 454.831
419 0 67.2342 12.3598 831 137.366 1012.03 453.514
420 0 71.2839 14.2809 1018 135.606 1010.8 452.522
421 1 38.0716 11.636 443 137.424 1011.17 464.962
422 0 37.071 10.0618 373 140.544 1010.17 463.233
423 0 38.0464 11.1443 424 135.514 1009.46 464.358
424 0 42.1367 12.4357 524 135.317 1009.06 460.891
425 0 40.0523 10.9856 440 137.9 1008.97 459.682
426 0 41.0312 11.7472 482 139.286 1008.28 458.461
427 0 45.0508 12.1196 546 137.223 1008.77 457.258
428 0 46.0707 14.1956 654 131.578 1008.58 455.228
429 0 47.2097 11.9679 565 133.166 1010.25 454.235
430 0 47.2097 12.0103 567 149.206 1012.28 454.257
431 0 47.1988 10.8689 513 135.094 1011.75 454.776
432 0 52.094 14.7234 767 129.037 1013.28 454.997
433 0 51.2113 12.6925 650 135.912 1014.54 453.835
434 0 55.1558 14.3231 790 131.68 1017.1 452.09
435 0 59.5269 14.6488 872 128.228 1018.81 455.202
436 0 56.143 13.3231 748 136.305 1019.53 448.051
437 0 61.3268 14.9527 917 131.961 1021.8 450.576
438 0 59.3417 14.4081 855 134.089 1022.8 450.009
439 0 62.2757 13.1673 820 136.278 1022.72 448.805
440 0 63.165 12.3644 781 142.301 1023.51 449.457
441 0 66.2089 15.8136 1047 133.318 1024.18 451.834
442 0 69.2926 14.9222 1034 136.755 1023.29 450.41
443 0 70.243 15.0335 1056 139.216 1022.47 448.035
444 0 71.2081 12.948 922 142.503 1023.25 450.835
445 0 74.1932 13.8557 1028 142.748 1022.45 446.875
446 0 78.2373 12.6921 993 144.753 1021.46 447.618
447 0 79.4784 14.0793 1119 144.547 1020.18 447.539
448 0 82.2685 12.6658 1042 146.626 1019.44 444.283
449 1 49.0499 11.0092 540 136.972 1018.64 465.28
450 0 50.4442 10.8437 547 132.079 1016.41 467.393
451 0 50.0368 12.0312 602 135.558 1015.47 462.405
452 0 54.2732 10.2997 559 133.63 1014.57 464.234
453 0 52.2326 10.1852 532 136.509 1013.24 461.15
454 0 54.1818 13.307 721 128.003 1011.75 461.302
455 0 56.227 13.0364 733 132.246 1010.57 456.153
456 0 55.1553 12.8727 710 131.923 1010.02 450.946
457 0 58.1588 13.274 772 131.488 1009.99 452.299
458 0 63.2669 13.8619 877 128.948 1009.74 452.702
459 0 62.2462 14.8764 926 130.392 1009.27 449.527
460 0 66.1898 17.3138 1146 125.177 1009.03 445.492
461 0 65.158 11.0501 720 138.335 1009.23 446.254
462 0 68.1618 12.9691 884 132.05 1009.97 445.521
463 0 72.5215 16.5744 1202 121.192 1010.96 448.255
464 0 72.4277 12.15 880 135.491 1011.9 440.152
465 0 77.096 16.2525 1253 125.339 1012.32 440.353
466 0 76.1916 12.9411 986 132.02 1014.28 436.245
467 0 80.0963 12.0355 964 132.785 1016.87 439.816
468 0 86.461 17.4183 1506 120.365 1019.32 441.08
469 0 85.3689 13.4007 1144 131.122 1020.51 435.413
470 0 88.2881 11.8023 1042 136.723 1021.64 435.264
471 1 44.0863 9.02775 398 136.151 1022.94 460.58
472 0 45.1339 11.9644 540 133.281 1022.4 456.83
473 0 46.0588 12.5492 578 132.87 1023.65 459.529
474 0 48.1071 12.4098 597 130.884 1023.83 457.832
475 0 46.0521 13.2024 608 130.396 1023.58 462.326
476 0 48.1322 10.4504 503 139.797 1023.83 458.362
477 0 50.1844 11.7965 592 138.873 1023.7 460.076
478 0 53.0172 12.6751 672 139.219 1019.82 457.988
479 0 54.0964 14.3817 778 133.567 1018.56 460.79
480 0 56.0967 10.4463 586 140.623 1017.74 459.773
481 0 58.0843 12.4302 722 142.064 1015.89 457.561
482 0 59.1425 11.9373 706 144.456 1015.49 456.52
483 0 60.3302 12.3487 745 143.097 1012.99 456.144
484 0 65.1117 11.8565 772 143.587 1010.38 455.412
485 0 64.284 13.7981 887 139.391 1009.63 452.554
486 0 64.164 11.2524 722 146.23 1008.59 450.089
487 0 69.1749 14.0947 975 137.707 1007.91 449.775
488 0 70.1855 12.9372 908 142.518 1007.32 446.218
489 0 71.3984 12.5913 899 142.325 1006.76 443.987
490 0 75.2157 13.0026 978 139.696 1006.91 443.811
491 0 80.2458 15.7641 1265 133.557 1006.8 442.378
492 1 45.0527 10.8762 490 140.443 1005.39 459.129
493 0 42.0333 8.4219 354 144.551 1004.93 459.051
494 0 45.0331 14.7003 662 134.804 1005.29 452.255
495 0 47.0605 12.7496 600 136.027 1006.22 454.325
496 0 49.1806 13.5419 666 131.3 1007.37 453.791
497 0 48.0613 12.817 616 141.589 1007.32 452.081
498 0 50.0526 13.6257 682 138.828 1009.48 450.214
499 0 50.0449 10.8103 541 147.421 1010.87 451.593
500 0 53.2267 14.5791 776 137.682 1013.9 452.423
501 0 55.0526 13.5688 747 141.738 1014.23 449.584
502 0 57.0297 13.8524 790 140.908 1015.33 449.389
503 0 58.0991 14.7334 856 140.52 1016.71 450.657
504 0 60.0438 15.2722 917 139.775 1018.04 451.015
505 0 60.043 12.5743 755 148.462 1018.27 452.142
506 0 62.0428 12.0884 750 148.959 1018.29 452.357
507 0 64.1044 13.634 874 147.713 1019.54 450.195
508 0 69.0787 14.5052 1002 145.344 1019.34 447.624
509 0 71.0643 14.5502 1034 146.072 1019.39 446.877
510 1 36.1088 9.83141 355 148.685 1019.34 466.958
511 0 38.1365 10.3051 393 151.036 1018.71 464.954
512 0 42.0749 9.60193 404 146.933 1017.7 468.854
513 0 40.1311 12.6087 506 143.543 1016.49 467.069
514 0 41.0449 12.06 495 145.994 1015.99 467.261
515 0 42.029 12.8245 539 145.555 1014.17 465.301
516 0 45.1913 12.9228 584 144.818 1012.62 463.399
517 0 45.1913 12.9228 584 142.466 1010.62 463.443
518 0 48.0633 12.3379 593 147.513 1008.82 462.315
519 0 48.0296 12.5756 604 147.515 1007.78 459.634
520 0 49.09 14.1169 693 142.121 1007.34 458.711
521 0 52.0439 13.258 690 142.401 1006.43 457.704
522 0 53.1336 13.1932 701 143.146 1005.71 454.981
523 0 53.1297 13.2694 705 149.403 1004.75 455.057
524 0 56.1303 13.6646 767 142.93 1004.98 451.051
525 0 57.2096 12.7601 730 142.729 1005.06 449.712
526 0 60.1002 12.5956 757 141.017 1004.37 447.696
527 0 62.2424 14.2668 888 133.87 1004.91 448.251
528 0 64.236 15.3808 988 133.586 1006.83 446.48
529 0 64.1051 13.1815 845 139.612 1006.52 445.638
530 0 65.1951 13.59 886 138.087 1007.59 445.761
531 0 69.0395 17.4393 1204 128.131 1009.69 443.146
532 0 72.2701 13.3804 967 136.387 1010.54 443.181
533 0 74.311 14.1164 1049 134.55 1012.96 440.281
534 0 75.3363 12.942 975 140.48 1014.73 438.869
535 1 39.0804 8.7512 342 143.02 1015.77 457.868
536 0 41.0331 9.62639 395 142.228 1017.04 458.739
537 0 42.05 8.91796 375 143.147 1018.51 459.563
538 0 45.1335 10.9675 495 137.584 1020.39 460.659
539 0 45.1115 10.3965 469 143.397 1020.35 458.377
540 0 46.1855 12.5581 580 144.786 1022.49 455.328
541 0 49.1364 15.5078 762 135.993 1023.78 458.962
542 0 49.5588 13.5798 673 143.731 1023.75 454.819
543 0 52.0448 13.1617 685 140.41 1024.36 460.978
544 0 50.11 12.7719 640 145.217 1023.12 459.455
545 0 52.0295 12.8389 668 145.656 1022.43 460.319
546 0 57.0899 13.9955 799 140.014 1020.68 458.254
547 0 57.1239 14.4073 823 138.88 1019.9 461.006
548 0 57.0463 12.113 691 147.515 1018.74 458.996
549 0 58.1232 14.0219 815 140.602 1017.28 455.333
550 0 62.167 15.8444 985 134.012 1016.3 457.02
551 0 64.2007 12.8815 827 137.343 1015.02 455.952
552 0 62.1308 12.6025 783 140.637 1013.82 451.738
553 0 62.1308 12.6346 785 146.769 1012.83 451.702
554 0 67.1739 13.666 918 137.465 1011.47 450.228
555 0 69.1455 13.9995 968 135.425 1009.67 448.283
556 0 73.1549 16.3352 1195 128.304 1009.73 447.643
557 0 74.2135 12.5045 928 134.889 1009.38 445.798
558 0 78.2825 15.278 1196 129.704 1009.34 441.585
559 0 82.4009 16.3469 1347 125.551 1008.93 440.144
560 0 81.2607 15.2964 1243 125.887 1009.2 441.395
561 0 89.3953 16.5333 1478 122.84 1009.58 438.025
562 0 88.1947 13.4815 1189 129.494 1010.38 435.059
563 0 91.3714 15.0594 1376 126.312 1011.56 432.843
564 1 47.0652 12.5145 589 130.93 1013.13 452.844
565 0 50.2927 12.9641 652 125.4 1014.04 453.02
566 0 50.1 12.016 602 125.163 1016.44 450.992
567 0 52.4043 13.4913 707 119.256 1018.88 451.068
568 0 53.2937 12.5531 669 118.987 1021.08 450.619
569 0 53.1993 9.94374 529 123.875 1023.01 451.773
570 0 55.2515 13.0313 720 121.453 1024.08 452.039
571 0 54.2124 13.1704 714 123.959 1023.97 448.731
572 0 60.1868 13.9399 839 124.839 1025.03 450.99
573 0 60.1868 13.807 831 138.995 1025.04 451.028
574 0 61.2593 13.0103 797 129.725 1025.34 453.277
575 0 64.4653 13.8989 896 131.737 1025.28 452.502
576 0 66.3494 14.7401 978 125.982 1024.71 454.226
577 0 67.2127 12.081 812 135.02 1024.14 455.275
578 0 69.1603 15.7605 1090 131.18 1023.17 451.011
579 0 71.2713 14.2273 1014 135.539 1021.52 450.237
580 0 73.201 12.8277 939 135.862 1021.46 453.331
581 0 75.2655 14.1366 1064 134.779 1019.86 449.148
582 0 79.1769 15.7369 1246 131.034 1018.56 450.171
583 0 79.1561 14.0356 1111 136.637 1016.8 446.531
584 0 84.2984 13.9742 1178 135.014 1015.7 446.096
585 0 84.2857 13.9763 1178 130.686 1015.7 446.117
586 1 45.0876 9.51481 429 139.487 1012.92 463.27
587 0 47.0387 10.5658 497 138.064 1012.34 464.32
588 0 50.1088 11.8143 592 134.475 1011.43 461.628
589 0 53.2349 15.2344 811 128.163 1007.5 460.255
590 0 50.2758 9.86558 496 137.798 1006.34 457.107
591 0 51.2007 13.9256 713 129.234 1005.65 459.99
592 0 52.1065 12.7623 665 127.513 1007.7 458.547
593 0 56.1491 11.1845 628 126.234 1007.63 454.568
594 0 56.1486 9.95572 559 128.122 1007.84 457.512
595 0 60.3184 11.489 693 123.934 1008.04 455.831
596 0 64.1854 12.682 814 121.031 1008.68 455.828
597 0 64.299 16.0967 1035 117.456 1009.55 452.848
598 0 63.1553 13.4114 847 124.065 1010.85 453.495
599 0 68.2092 14.5582 993 121.43 1012.4 452.231
600 0 69.259 16.3733 1134 119.086 1013.38 449.069
601 0 69.2716 13.3965 928 125.002 1015.44 448.947
602 0 74.1654 16.5845 1230 119.903 1017.05 448.656
603 0 75.3822 10.5595 796 131.101 1017.34 450.482
604 0 78.3087 15.5921 1221 124.567 1018.12 445.424
605 0 81.384 11.6239 946 129.677 1017.75 447.486
606 0 83.2476 13.1175 1092 130.332 1018.35 443.986
607 0 86.3762 12.2487 1058 129.637 1018.09 448.128
608 0 88.4494 15.7039 1389 127.568 1016.93 441.599
609 0 92.3215 12.7814 1180 129.775 1017.17 447.39
610 0 94.3006 15.8642 1496 127.816 1016.92 437.939
611 0 99.6773 13.4935 1345 133.193 1015.86 436.757
612 0 101.277 13.3297 1350 134.055 1015.06 439.107
613 1 51.5008 12.4852 643 128.03 1014.29 466.215
614 0 52.2504 13.11 685 127.569 1012.78 463.698
615 0 54.2692 14.7598 801 123.302 1011.71 463.755
616 0 55.2122 14.7612 815 124.193 1009.74 460.637
617 0 57.3048 14.4316 827 124.948 1008.24 461.212
618 0 57.2585 11.7712 674 130.218 1007.45 459.408
619 0 59.209 12.7345 754 128.594 1006.25 458.476
620 0 61.1814 12.5528 768 131.348 1004.65 456.099
621 0 65.2241 17.9995 1174 120.946 1004.18 450.604
622 0 66.1634 14.7665 977 128.016 1004.29 451.897
623 0 68.2343 14.2304 971 130.643 1003.83 446.119
624 0 70.2077 14.4998 1018 129.915 1003.97 442.564
625 0 74.1091 16.5702 1228 126.077 1004.12 444.257
626 0 77.2405 16.8823 1304 126.302 1004.66 441.476
627 1 44.2192 11.443 506 128.834 1006 461.692
628 0 43.1103 8.55944 369 137.398 1007.06 458.678
629 0 44.0254 10.5394 464 133.957 1008.18 457.593
630 0 47.0267 12.5035 588 129.687 1008.46 455.616
631 0 48.0684 13.5432 651 126.935 1010.05 455.057
632 0 45.0484 9.07913 409 129.054 1010.42 452.802
633 0 50.1544 14.2958 717 122.636 1012.31 450.042
634 0 53.186 13.7818 733 122.218 1014.51 453.715
635 0 53.3201 17.6106 939 119.154 1014 450.482
636 0 56.1261 16.9796 953 119.373 1015.78 455.725
637 0 58.1466 15.9253 926 123.876 1016.99 453.119
638 0 60.1455 14.0991 848 127.246 1017.35 452.587
639 0 60.1122 13.1754 792 130.574 1018.14 453.644
640 0 62.3131 15.4863 965 126.885 1018.91 453.553
641 0 62.111 16.3095 1013 126.026 1018.74 455.041
642 0 64.1596 12.5157 803 133.37 1017.71 452.976
643 0 71.4576 14.1063 1008 130.162 1016.98 453.285
644 0 71.2575 14.4546 1030 127.945 1016.87 453.002
645 0 72.4429 15.281 1107 127.865 1016.02 451.637
646 0 76.3472 16.0582 1226 127.694 1015.75 451.446
647 1 41.122 13.3748 550 130.358 1014.4 467.236
648 0 40.1392 12.0082 482 132.073 1013.37 467.822
649 0 42.2435 10.7235 453 135.468 1011.4 466.015
650 0 44.3448 12.7185 564 127.551 1011.29 465.229
651 0 46.4325 13.245 615 127.543 1010.16 463.202
652 0 48.2035 12.8829 621 124.401 1006.48 463.132
653 0 46.0327 11.0574 509 130.403 1005.2 460.43
654 0 46.0327 11.1225 512 138.59 1004.18 460.416
655 0 50.0447 14.3272 717 123.474 1004.51 457.48
656 0 53.1027 16.9671 901 118.162 1004.19 452.532
657 0 52.093 11.2491 586 129.887 1003.48 450.746
658 0 54.251 15.1149 820 122.129 1003.43 451.61
659 0 56.2323 13.9955 787 124.335 1005.22 451.207
660 0 58.1335 12.9529 753 126.328 1004.5 448.365
661 0 60.2524 17.2441 1039 116.199 1006.05 450.984
662 0 63.1237 16.3488 1032 119.571 1006.56 445.35
663 0 63.1965 13.3552 844 123.552 1008.55 447.796
664 0 67.1698 12.7587 857 125.079 1010.2 443.182
665 0 71.4759 13.9767 999 122.119 1012.51 444.877
666 0 70.3099 15.6592 1101 122.953 1014.75 443.862
667 1 38.0286 13.5424 515 122.054 1015.6 461.179
668 0 39.058 10.0876 394 129.419 1016.86 457.561
669 0 39.0608 10.138 396 146.048 1017.87 457.556
670 0 40.136 10.589 425 132.887 1018.63 459.906
671 0 39.0906 11.128 435 132.257 1020.4 457.246
672 0 40.0686 11.5302 462 126.665 1021.27 456.959
673 0 41.0444 11.987 492 131.333 1020.9 458.242
674 0 45.2012 15.796 714 122.604 1021.26 461.571
675 0 43.1495 11.3327 489 135.926 1020.54 459.28
676 0 42.1365 11.178 471 137.437 1019.9 459.773
677 0 45.1282 13.9824 631 130.696 1019.13 461.694
678 0 46.0352 13.0335 600 134.482 1017.33 460.195
679 0 47.057 12.6867 597 135.635 1016.11 459.737
680 0 47.1318 10.3964 490 140.733 1014.52 459.053
681 0 49.0496 12.9461 635 136.564 1013.83 456.499
682 0 49.0911 13.6277 669 133.401 1012.27 456.502
683 0 53.1451 14.1876 754 129.115 1011.08 458.462
684 0 53.3056 11.0495 589 136.385 1009.32 455.506
685 0 54.1648 11.6496 631 135.214 1008.13 451.802
686 0 56.1451 11.7909 662 131.787 1007.26 452.39
687 0 62.3566 14.0482 876 127.417 1006.43 448.211
688 0 61.4328 14.6827 902 126.392 1005.61 446.979
689 0 63.2388 12.6505 800 129.426 1005.47 443.362
690 0 63.2804 12.7212 805 129.753 1005.17 438.2
691 0 67.4345 13.4501 907 127.278 1005.43 440.985
692 0 72.4774 13.4939 978 125.885 1005.76 439.985
693 0 71.2424 11.9171 849 129.661 1006.4 436.42
694 0 73.2271 15.6772 1148 123.134 1007.45 430.954
695 0 75.4157 15.1295 1141 118.519 1009.32 431.929
696 0 82.5427 16.8034 1387 115.211 1010.44 433.199
697 0 82.485 13.8934 1146 122.237 1011.17 429.764
698 1 48.3075 10.5574 510 116.973 1013.58 452.549
699 0 48.1813 11.685 563 119.133 1017.04 455.481
700 0 47.1969 10.382 490 123.735 1018.19 453.92
701 0 52.3888 12.5408 657 121.428 1019.34 453.537
702 0 52.4493 15.5579 816 119.38 1020.25 452.471
703 0 53.1943 13.5165 719 124.121 1021.23 452.181
704 0 53.1943 13.5165 719 136.709 1022.27 452.256
705 0 57.2735 14.9284 855 122.932 1021.43 452.589
706 0 56.1954 14.5385 817 125.115 1021.49 451.635
707 0 62.3059 15.6004 972 122.217 1021.29 452.02
708 0 59.1219 13.9373 824 129.871 1021.27 452.12
709 0 61.3443 14.1007 865 130.372 1021.05 450.933
710 0 64.2079 17.1318 1100 125.85 1019.92 450.318
711 0 66.31 15.5029 1028 131.266 1018.3 450.737
712 0 67.2182 15.2042 1022 132.706 1017.58 449.342
713 0 67.2182 15.1001 1015 129.062 1017.57 449.403
714 0 73.5423 17.6633 1299 128.408 1015.45 450.741
715 0 75.1523 14.2777 1073 136.552 1013.45 444.636
716 1 37.0627 10.0101 371 136.081 1012.64 465.631
717 0 39.2493 9.68169 380 133.361 1009.03 462.718
718 1 83.5408 15.4176 1288 133.585 1007.79 440.613
719 0 85.3886 14.9083 1273 136.112 1007.28 433.386
720 0 87.3484 15.9362 1392 133.927 1005.67 430.447
721 1 47.4149 12.2957 583 133.358 1004.48 455.118
722 0 48.223 14.267 688 132.688 1004.68 453.658
723 0 50.3114 14.0525 707 131.935 1004.62 450.3
724 0 49.2598 14.4337 711 133.817 1004.98 449.353
725 0 54.1035 14.3799 778 127.078 1004.7 451.278
726 0 52.0708 13.0015 677 131.784 1005.6 450.703
727 0 56.161 14.0133 787 129.573 1006.22 448.468
728 0 60.3431 15.9919 965 122.708 1008 450.817
729 0 60.3485 14.4328 871 126.052 1008.66 445.99
730 0 61.225 14.4712 886 125.95 1011.38 445.774
731 0 65.2384 16.8612 1100 123.727 1013.16 443.555
732 0 66.2187 15.6904 1039 127.843 1015.81 448.338
733 0 70.1919 16.2412 1140 125.643 1017.12 447.066
734 0 70.2005 17.2648 1212 127.138 1018.6 444.885
735 0 74.1229 17.6868 1311 125.789 1019.5 447.005
736 0 75.2169 15.0232 1130 135.157 1020.45 445.591
737 0 79.1878 16.8334 1333 132.918 1021.3 444.293
738 1 44.2281 9.33795 413 138.085 1021.49 465.705
739 0 45.1676 11.4684 518 137.647 1020.53 464.99
740 0 46.1202 11.4483 528 139.61 1020.15 463.968
741 0 47.1753 11.8494 559 137.662 1020.94 465.283
742 0 49.1203 12.6831 623 135.499 1020.74 462.177
743 0 52.127 12.4504 649 135.667 1019.17 464.1
744 0 53.0467 14.6852 779 133.372 1018.02 464.606
745 0 54.1061 12.0134 650 137.742 1015.56 464.002
746 0 57.1272 13.9863 799 134.317 1014.8 463.508
747 0 59.046 13.481 796 135.845 1012.54 461.388
748 0 61.1765 13.0933 801 136.076 1011.76 460.347
749 0 62.0641 12.6804 787 138.174 1010.28 459.41
750 0 62.1496 14.3042 889 135.031 1008.7 457.58
751 0 65.2073 14.891 971 132.441 1007.72 456.969
752 0 69.1083 15.3817 1063 132.275 1007.62 456.923
753 0 66.0699 13.5463 895 137.441 1007.49 452.102
754 0 70.0832 15.396 1079 133.812 1006.6 454.392
755 0 73.0547 14.6192 1068 134.973 1006.21 453.628
756 0 75.2391 15.6036 1174 132.089 1006.29 452.221
757 0 76.2446 15.2929 1166 133.491 1006.28 452.49
758 0 79.1342 13.8625 1097 139.59 1007.07 448.274
759 0 83.1961 15.5055 1290 135.209 1006.79 447.767
760 0 84.3125 13.7821 1162 138.94 1007.94 446.622
761 0 88.4419 17.096 1512 133.489 1008.64 441.412
762 0 99.9299 18.9733 1896 126.366 1009.97 444.858
763 0 94.2419 15.2692 1439 139.006 1011.3 442.913
764 0 96.2335 18.0187 1734 134.66 1013.25 439.666
765 0 96.093 14.1634 1361 145.04 1014.26 439.028
766 0 99.1217 13.7003 1358 147.576 1015.14 437.498
767 0 104.26 16.4972 1720 135.687 1016.42 439.998
768 0 104.189 12.5637 1309 145.387 1017.59 441.289
769 0 106.182 15.8501 1683 143.333 1018.31 433.117
770 0 108.276 13.327 1443 149.027 1018.78 434.884
771 0 120.536 16.1446 1946 141.693 1017.15 433.551
772 0 120.312 17.2052 2070 142.954 1016.63 431.773
773 0 120.473 15.1154 1821 146.713 1017.42 424.613
774 1 56.1898 12.1552 683 137.343 1016.67 463.868
775 0 58.1169 9.9971 581 146.601 1015.9 462.923
776 0 59.1975 10.8619 643 144.258 1014.69 461.625
777 0 60.0921 12.5807 756 145.37 1012.4 460.897
778 0 62.1757 11.2584 700 147.991 1011.07 458.701
779 0 65.0544 13.6347 887 141.985 1010.13 459.264
780 0 69.1259 16.969 1173 134.765 1007.49 456.332
781 0 69.0885 13.5768 938 143.754 1006.15 453.615
782 0 70.3957 12.2309 861 147.818 1004.87 451.945
783 0 70.1836 14.0204 984 148.467 1004.65 454.186
784 0 73.1701 15.8945 1163 152.486 1004.51 454.253
785 0 77.2228 18.1294 1400 143.488 1004.02 455.973
786 0 77.1766 17.3628 1340 147.513 1002.38 450.828
787 0 80.1438 18.105 1451 142.408 1002.19 448.877
788 0 82.1515 18.3076 1504 139.35 1002.36 446.606
789 0 81.1926 16.8242 1366 144.233 1001.82 444.734
790 0 83.1924 17.5256 1458 142.898 1002.06 445.731
791 0 87.2648 15.092 1317 147.819 1002.78 442.169
792 0 87.073 17.3992 1515 137.805 1001.51 439.48
793 0 86.1985 13.1673 1135 144.685 1003.84 440.226
794 0 89.3105 15.3733 1373 147.613 1003.52 439.058
795 0 91.1883 16.5701 1511 144.238 1005.1 437.071
796 0 90.2561 17.2177 1554 143.125 1007.33 435.051
797 0 91.2789 20.4209 1864 137.655 1009.07 436.555
798 0 92.2496 15.0787 1391 150.39 1010.55 435.85
799 0 95.5586 21.6412 2068 138.836 1012.16 439.458
800 0 96.3359 17.0341 1641 143.174 1013.98 436.516
801 0 98.3061 20.5887 2024 137.043 1015.5 439.86
802 0 98.3405 17.2665 1698 149.855 1016.49 435.095
803 0 98.0892 17.1986 1687 148.057 1017.74 434.177
804 0 98.134 16.8443 1653 168.087 1018.1 435.931
805 0 100.149 17.1744 1720 167.92 1018.79 435.111
806 0 103.188 17.3469 1790 167.044 1018.27 436.48
807 0 104.238 18.2659 1904 167.046 1018.5 433.631
808 0 104.236 17.4604 1820 169.448 1018.44 432.612
809 0 107.457 19.4868 2094 162.403 1017.16 433.434
810 0 105.214 16.2241 1707 174.248 1016.05 433.257
811 0 108.196 17.3297 1875 167.735 1015.55 436.598
812 0 108.2 16.1553 1748 175.238 1015.28 434.783
813 0 109.265 19.1736 2095 166.77 1014.62 434.655
814 0 109.317 18.3869 2010 169.91 1013.23 430.602
815 0 113.233 19.5349 2212 166.438 1011.96 433.152
816 0 112.212 17.5115 1965 172.889 1010.91 431.108
817 0 112.212 17.5739 1972 158.682 1008.9 431.067
818 0 115.278 16.8896 1947 174.163 1008.88 411.776
819 0 116.219 17.7854 2067 171.835 1007.93 410.036
820 0 117.24 18.0826 2120 170.618 1007.77 409.794
821 0 121.255 20.8981 2534 161.433 1007.26 409.883
822 0 119.197 17.794 2121 170.061 1006.89 406.331
823 0 123.338 20.1073 2480 161.826 1006.81 404.711
824 0 124.372 16.8286 2093 172.066 1007.13 404.976
825 0 120.449 18.8545 2271 169.069 1007.95 401.609
