time division length width area intensity CMx CMy
0 0 53.2956 12.4213 662 111.896 1337.47 430.527
1 0 58.1973 17.4922 1018 105.376 1338.59 431.639
2 0 58.0725 10.9863 638 111.174 1339.42 435.522
3 0 60.2268 24.5738 1480 100.335 1338.89 434.609
4 0 60.2268 24.5904 1481 108.598 1339.95 434.519
5 0 61.1295 12.1382 742 108.765 1340.49 435.54
6 0 68.3403 13.8279 945 107.11 1339.95 433.642
7 0 66.0787 25.8782 1710 98.038 1338.63 439.422
8 0 68.0874 14.408 981 109.169 1337.57 436.144
9 0 70.1806 17.3552 1218 108.864 1335.54 431.347
10 0 70.1325 11.7492 824 115.246 1334.84 439.402
11 0 75.5778 16.0232 1211 118.99 1334.13 430.016
12 0 76.1365 15.5642 1185 126.401 1333 433.388
13 0 77.1999 17.7332 1369 124.633 1332.1 430.287
14 1 42.0768 13.0238 548 122.889 1331.45 453.279
15 0 42.0386 8.94416 376 138.731 1329.9 448.989
16 0 44.0549 11.8489 522 133.481 1328.78 448.822
17 0 45.0446 12.2101 550 131.613 1328.68 449.331
18 0 45.0446 12.1213 546 127.363 1326.68 449.328
19 0 47.1397 14.0434 662 131.486 1325.05 444.248
20 0 47.0418 14.3489 675 132.641 1323.63 443.351
21 0 51.135 13.8848 710 131.258 1324.87 444.09
22 0 50.0579 12.046 603 139.131 1324.7 440.965
23 0 51.1511 14.4083 737 135.444 1323.98 436.44
24 0 56.1564 18.7512 1053 124.976 1324.66 437.981
25 0 54.1305 13.6522 739 136.23 1325.09 434.088
26 0 58.2104 14.0525 818 133.751 1324.36 432.988
27 0 59.121 12.7028 751 135.205 1324.76 432.081
28 0 61.2488 15.5921 955 127.805 1325.36 433.449
29 0 64.2149 17.021 1093 121.577 1326.89 433.684
30 0 63.0855 13.9969 883 128.393 1326.98 432.205
31 0 66.0572 13.125 867 124.9 1329.02 431.586
32 0 71.2807 13.6503 973 117.329 1331.56 433.63
33 0 72.3076 16.0979 1164 114.163 1333.2 427.015
34 0 79.6432 17.93 1428 107.944 1334.74 432.775
35 0 79.6432 17.817 1419 127.16 1335.76 432.716
36 0 88.4414 26.967 2385 99.6335 1336.72 427.582
37 0 83.4043 16.5699 1382 107.602 1337.51 430
38 0 84.2433 11.5261 971 112.154 1338.7 425.382
39 0 91.3777 25.3672 2318 99.8542 1337.67 430.3
40 1 44.2797 10.0046 443 109.163 1338.07 447.217
41 0 53.1834 16.5653 881 102.711 1337.93 446.211
42 0 51.198 14.8639 761 105.941 1336.65 447.256
43 0 52.2149 11.5293 602 107.143 1337.47 447.993
44 0 55.4195 14.9045 826 107.653 1336.35 449.593
45 0 58.2694 14.759 860 107.564 1335.59 448.569
46 0 55.218 11.7353 648 116.852 1335.11 448.914
47 0 59.3954 15.4726 919 116.487 1333.24 443.415
48 0 57.2965 13.9101 797 120.939 1332.14 443.376
49 0 60.1194 13.39 805 124.234 1330.69 443.214
50 0 63.2874 13.4308 850 123.741 1329.07 443.834
51 0 64.1564 14.1685 909 123.982 1327.14 441.787
52 0 65.1912 12.9772 846 129.043 1325.7 440.551
53 0 68.3556 13.9272 952 125.779 1325.07 441.484
54 0 72.3278 19.1766 1387 118.433 1324.12 438.3
55 0 72.294 15.354 1110 124.21 1322.75 435.479
56 0 73.2971 15.7032 1151 132.199 1321.78 434.753
57 0 83.1674 14.5971 1214 119.792 1321.66 434.759
58 1 46.2773 11.3231 524 119.952 1321.45 447.748
59 0 45.2248 13.5545 613 122.564 1321.97 442.496
60 0 48.4131 12.0835 585 123.362 1321.91 439.983
61 0 47.3034 10.0627 476 123.544 1321.72 441.842
62 0 52.1592 11.0815 578 121.131 1322.5 440.92
63 0 52.2127 11.8171 617 118.006 1323.79 438.987
64 0 61.5573 19.9001 1225 103.728 1325.49 439.248
65 0 58.2006 18.6424 1085 105.326 1326.36 432.853
66 0 59.0832 12.2539 724 111.218 1328.77 435.62
67 0 62.8091 17.7044 1112 107.19 1331.11 434.641
68 0 62.2251 13.4994 840 110.692 1332.61 437.763
69 0 63.21 11.2324 710 110.176 1334.75 442.563
70 0 67.2601 12.9349 870 112.033 1335.23 438.313
71 0 70.2906 15.9338 1120 117.791 1335.44 438.316
72 0 70.6473 14.5936 1031 120.274 1336.17 438.101
73 0 71.181 14.1611 1008 124.235 1335.87 437.531
74 0 74.1855 17.8337 1323 117.197 1335.76 441.22
75 0 76.2473 15.0169 1145 128.138 1335.1 434.048
76 0 79.4645 14.1698 1126 128.424 1334.32 435.786
77 0 82.1938 15.0011 1233 130.393 1333.91 434.222
78 0 84.2468 15.7513 1327 132.666 1333.15 435.041
79 0 88.2608 18.4113 1625 126.955 1331.68 436.579
80 0 93.9167 15.1091 1419 129.785 1330.64 438.904
81 1 44.1242 10.5837 467 136.805 1330.05 453.448
82 0 46.0688 11.3309 522 135.625 1329.62 450.736
83 0 50.0476 14.6261 732 128.396 1327.64 453.247
84 0 53.1159 13.913 739 129.468 1325.94 448.9
85 0 54.1712 14.7865 801 126.826 1324.24 449.271
86 0 55.2031 13.8398 764 130.497 1323.65 448.911
87 0 56.2273 15.0105 844 131.988 1322.38 443.757
88 0 58.2203 13.1226 764 134.296 1321.28 443.766
89 0 61.1446 14.8991 911 130.655 1320.93 438.903
90 0 63.1179 13.0233 822 136.314 1320.25 439.172
91 0 63.1304 13.084 826 143.442 1318.26 439.223
92 0 66.0651 13.7743 910 130.782 1320.04 437.604
93 0 71.1416 16.3617 1164 124.787 1320.2 434.612
94 0 71.1915 12.8667 916 131.395 1320.17 431.546
95 0 75.2187 14.6772 1104 124.861 1320.28 432.887
96 0 77.3518 15.604 1207 123.824 1321.28 430.031
97 0 80.3621 16.239 1305 121.173 1322.55 425.472
98 0 83.3031 16.59 1382 119.674 1324.65 425.704
99 0 84.53 13.0604 1104 122.901 1326.27 426.118
100 0 88.6423 14.9139 1322 118.498 1328.09 426.483
101 1 52.5555 15.4313 811 109.922 1329.44 443.85
102 0 49.6328 17.5287 870 108.247 1331.23 440.08
103 0 52.5273 16.8103 883 107.894 1332.85 442.683
104 0 54.3629 18.1742 988 104.116 1334.15 444.406
105 0 54.099 14.7138 796 106.013 1335.87 443.242
106 0 54.3227 7.54749 410 116.615 1334.52 444.039
107 0 62.5166 13.5484 847 109.06 1335.61 446.708
108 0 59.2309 12.4766 739 118.65 1334.66 444.207
109 0 64.3164 14.1177 908 113.308 1334.65 447.719
110 0 63.3045 13.8537 877 136.512 1334.73 447.092
111 0 64.3538 14.8554 956 122.233 1334.02 442.665
112 0 66.268 11.1668 740 123.204 1333.49 444.416
113 0 69.305 13.8951 963 125.472 1333.17 442.533
114 0 77.9288 19.3253 1506 113.02 1332.46 447.815
115 0 73.2389 14.3913 1054 125.882 1331.33 438.514
116 0 77.2332 13.7376 1061 127.276 1329.87 439.321
117 0 79.5948 13.2044 1051 130.566 1327.97 436.181
118 1 47.574 11.5399 549 124.993 1327.06 458.332
119 0 43.0928 12.3919 534 133.367 1325.58 454.712
120 0 44.0865 10.6609 470 131.619 1324.37 455.547
121 0 45.1483 11.6284 525 130.657 1322.79 453.221
122 0 46.5304 9.21979 429 133.676 1321.2 451.492
123 0 51.2362 12.7644 654 127.196 1319.77 449.468
124 0 52.2589 14.7726 772 124.065 1319.65 446.715
125 0 53.268 12.9158 688 128.219 1319.24 442.677
126 0 56.2473 14.7918 832 122.647 1318.6 443.482
127 0 56.2473 14.6852 826 136.564 1318.59 443.547
128 0 55.2731 13.5147 747 127.056 1318.76 439.396
129 0 59.5129 17.6937 1053 118.262 1319.02 437.132
130 0 60.4155 14.5161 877 128.056 1319.7 436.534
131 0 64.2444 17.9938 1156 118.836 1321.68 435.08
132 0 62.6179 13.2869 832 123.221 1322.93 435.005
133 0 66.7224 12.6794 846 123.191 1324.98 433.079
134 0 67.2836 15.0111 1010 116.243 1327.27 430.745
135 0 71.3141 13.7 977 115.21 1328.79 431.924
136 0 73.6664 16.2896 1200 112.552 1329.73 430.272
137 0 73.2528 14.9619 1096 114.809 1330.98 426.853
138 0 80.2955 15.2811 1227 114.918 1331.51 429.786
139 0 80.5644 13.3558 1076 114.407 1332.35 430.219
140 0 87.4874 18.837 1648 109.775 1332.03 427.851
141 0 83.5147 17.6017 1470 114.242 1331.69 427.46
142 0 90.4984 23.8015 2154 106.525 1331.55 429.403
143 0 90.7013 16.9898 1541 117.99 1330.35 427.398
144 0 90.7013 16.8686 1530 140.143 1329.34 427.339
145 1 47.4635 11.314 537 123.903 1329.35 451.322
146 0 48.3185 10.5964 512 132.771 1328.38 453.385
147 0 51.236 10.2467 525 134.861 1328.38 450.552
148 0 54.3451 14.2607 775 125.599 1327.41 453.502
149 0 54.2668 13.3415 724 125.979 1325.62 455.236
150 0 57.4175 12.9229 742 127.868 1324.2 452.875
151 0 60.1301 13.1216 789 128.815 1322.95 451.582
152 0 60.3354 15.1155 912 126.899 1322.08 450.868
153 0 61.2541 13.4032 821 133.167 1320.35 447.396
154 0 65.3105 16.1383 1054 129.581 1318.84 446.456
155 0 67.2606 14.139 951 132.92 1317.28 446.532
156 0 68.2528 17.0103 1161 132.634 1316.84 444.269
157 0 70.2243 16.0771 1129 135.25 1315.91 437.332
158 0 72.3231 16.1083 1165 134.273 1315.19 436.921
159 0 74.2786 13.6109 1011 133.435 1314.72 438.298
160 0 78.2824 21.5374 1686 118.936 1315.25 439.371
161 1 40.0919 11.0247 442 129.765 1314.72 452.957
162 0 41.0924 8.49306 349 151.037 1313.85 454.682
163 0 46.2749 13.8952 643 119.865 1316.8 450.684
164 0 43.2086 7.26708 314 123.554 1319.37 455.232
165 0 47.304 12.1977 577 119.075 1320.84 446.943
166 0 49.802 10.5618 526 119.757 1323.11 447.437
167 0 48.5855 13.255 644 114.921 1324 443.059
168 0 51.268 12.776 655 114.673 1326.39 445.163
169 0 53.0295 11.2579 597 116.817 1328.36 447.869
170 0 50.0504 10.5494 528 117.417 1329.44 448.629
171 0 56.3432 14.7667 832 107.495 1330.41 452.769
172 0 56.3813 13.7457 775 114.062 1329.57 445.787
173 0 59.3499 16.7313 993 111.846 1330.91 450.351
174 0 59.2358 10.0108 593 122.239 1329.69 452.973
175 0 59.115 14.0743 832 122.079 1330.03 450.469
176 0 62.0921 15.0744 936 123.254 1328.73 448.79
177 0 62.1768 14.893 926 128.51 1328.66 448.403
178 0 63.1525 13.7287 867 142.687 1328.25 447.935
179 0 65.2812 13.8325 903 145.544 1328.59 447.269
180 0 68.3855 13.5994 930 142.281 1326.66 448.874
181 0 69.253 16.1582 1119 142.368 1325.3 444.622
182 0 71.2237 13.1136 934 148.519 1323.94 446.85
183 0 75.2658 17.4581 1314 135.755 1322.63 446.395
184 0 76.3009 14.7312 1124 143.736 1321.52 443.402
185 0 78.2611 15.3205 1199 139.144 1319.7 442.849
186 0 85.4191 15.5469 1328 140.242 1318.69 438.904
187 1 43.2648 14.9544 647 131.394 1318.12 459.249
188 0 45.2036 14.0254 634 136.369 1318.12 454.211
189 0 46.236 12.7822 591 136.147 1317.29 453.591
190 0 44.5057 11.6165 517 140.035 1316.35 451.828
191 0 47.3934 12.027 570 138.026 1314.69 450.607
192 0 48.2248 14.1628 683 131.832 1313.99 447.382
193 0 49.0958 14.0949 692 134.288 1313.98 450.13
194 0 52.0715 15.5747 811 130.75 1314.07 446.48
195 0 51.0842 14.0944 720 133.453 1313.39 448.676
196 0 53.1323 14.4733 769 131.246 1315.26 450.86
197 0 56.1203 14.9678 840 128.007 1315.42 446.758
198 0 58.1728 13.4943 785 129.697 1315.51 444.367
199 0 59.2092 13.4101 794 126.035 1317.87 445.11
200 0 61.174 14.4996 887 123.156 1319.78 447.511
201 0 62.145 14.1765 881 125.278 1320.82 441.222
202 0 65.3293 18.093 1182 118.987 1322.89 439.648
203 0 65.3293 18.292 1195 137.292 1324.93 439.659
204 0 67.247 12.7738 859 135.469 1325.8 442.215
205 0 67.2746 13.4375 904 146.834 1326.73 442.941
206 0 71.1751 16.7755 1194 132.24 1328.12 439.841
207 0 72.1863 15.3076 1105 137.433 1328.15 438.805
208 0 73.0712 15.5602 1137 140.151 1328.52 438.46
209 0 76.1811 13.481 1027 143.222 1328.5 438.163
210 0 80.1938 15.4501 1239 141.801 1329.47 440.366
211 1 44.3147 10.0644 446 155.7 1329.75 457.5
212 0 44.119 12.693 560 155.446 1328.73 455.712
213 0 46.2985 13.521 626 151.722 1327.67 457.537
214 0 49.1312 13.1892 648 151.631 1326.66 457.225
215 0 49.107 13.216 649 152.196 1325.29 455.863
216 0 50.1055 12.6733 635 151.548 1323.39 452.187
217 0 53.165 14.502 771 142.533 1322.64 450.451
218 0 53.0926 12.7325 676 147.494 1320.52 448.892
219 0 57.1569 16.2535 929 132.805 1319.37 447.405
220 0 57.1301 17.854 1020 143.675 1318.12 447.597
221 0 57.0831 12.7008 725 153.811 1316.47 445.499
222 0 61.2689 14.771 905 144.2 1315.67 443.698
223 0 65.1418 16.7941 1094 138.083 1315.26 443.642
224 0 64.2537 14.2249 914 146.018 1315.16 441.861
225 0 68.201 16.3047 1112 140.145 1314.6 439.228
226 0 69.1809 16.2473 1124 140.853 1313.79 435.152
227 0 70.1273 13.8035 968 143.97 1314.2 435.829
228 0 75.1292 15.8261 1189 136.878 1315.15 435.616
229 0 77.0962 13.8009 1064 145.596 1315.46 432.508
230 0 79.1355 15.5809 1233 141.182 1316.46 433.676
231 0 83.2335 17.7933 1481 132.469 1315.95 430.926
232 0 84.1815 13.9817 1177 141.803 1318.56 425.844
233 1 48.2222 14.1843 684 127.126 1320.5 453.706
234 0 47.0596 11.8361 557 139.609 1323.16 447.876
235 0 47.1682 17.7238 836 125.133 1322.41 451.342
236 0 50.2312 12.1239 609 131.337 1326.18 444.131
237 0 51.1735 14.871 761 126.828 1327.55 442.698
238 0 54.1224 15.5204 840 126.882 1327.74 444.674
239 0 55.1165 12.4827 688 133.955 1329.65 444.734
240 0 56.053 14.629 820 131.255 1329.27 443.345
241 0 56.1915 13.8989 781 137.341 1328.98 445.078
242 0 60.2084 11.8588 714 136 1328.42 447.118
243 0 62.0707 15.9657 991 133.694 1328.04 442.849
244 0 62.0725 16.0135 994 140.552 1328.04 442.762
245 0 65.3203 15.9675 1043 135.041 1327.36 443.615
246 0 68.109 15.945 1086 138.873 1327.1 448.006
247 0 70.2104 17.4618 1226 136.43 1325.65 447.095
248 0 72.0865 16.4386 1185 142.52 1324.88 443.803
249 0 77.2154 16.2403 1254 140.699 1323.79 444.045
250 0 78.2145 14.831 1160 145.96 1322.6 441.866
251 0 81.2623 15.3823 1250 142.086 1320.9 440.463
252 0 85.2816 16.7211 1426 137.316 1319.74 438.345
253 0 89.3445 16.677 1490 137.152 1318.75 437.442
254 0 92.4864 17.2458 1595 135.061 1317.34 438.402
255 1 47.2345 13.0413 616 140.997 1316.85 453.701
256 0 47.167 12.4663 588 142.707 1316.18 450.842
257 0 52.1768 11.6335 607 141.087 1315.9 451.122
258 0 52.317 12.6727 663 138.142 1315.27 450.985
259 0 52.317 12.6727 663 154.658 1315.27 450.985
260 0 56.2929 14.922 840 133.026 1314.28 448.114
261 0 61.709 14.2767 881 129.488 1314.79 447.602
262 0 59.123 13.7172 811 132.035 1314.27 441.858
263 1 123.261 12.8021 1578 139.811 1313.57 412.544
264 0 129.351 17.4255 2254 130.693 1314.38 408.084
265 0 133.284 18.2993 2439 127.33 1315.44 406.446
266 0 133.268 18.4966 2465 138.158 1317.44 406.416
267 1 71.3246 13.8942 991 128.813 1319.75 436.846
268 0 73.1487 12.7275 931 130.39 1322.07 438.222
269 0 75.2582 14.4303 1086 130.237 1324.29 434.416
270 0 80.3011 17.1106 1374 120.627 1326.03 436.907
271 0 81.2153 15.0957 1226 126.306 1326.44 432.838
272 0 83.3133 14.6915 1224 127.653 1327.69 433.811
273 0 87.3026 13.9744 1220 129.716 1328.28 435.384
274 0 89.3274 14.6987 1313 131.723 1328.43 433.566
275 1 48.0403 10.7618 517 135.967 1328.93 457.159
276 0 50.1632 12.1603 610 134.6 1329.07 455.475
277 0 52.1671 12.9584 676 135.142 1327.79 454.398
278 0 54.2421 14.5275 788 134.799 1326.46 453.83
279 0 53.2476 14.9866 798 134.741 1325.57 452.975
280 0 57.2252 14.6439 838 134.63 1324.8 454.841
281 0 59.3249 14.311 849 136.653 1322.25 451.623
282 0 60.1378 17.6096 1059 128.678 1322.95 452.53
283 0 61.1446 15.5697 952 132.131 1320.63 452.94
284 0 62.0953 14.2523 885 137.501 1320.44 449.946
285 0 65.2631 15.1847 991 135.092 1318.81 448.238
286 0 68.1216 16.5439 1127 131.565 1317.63 447.162
287 0 71.1362 15.2665 1086 131.494 1316.74 446.192
288 0 71.1362 15.2946 1088 138.415 1314.71 446.169
289 0 75.4224 13.0598 985 133.632 1314.19 445.545
290 0 76.2328 14.0753 1073 134.388 1313.29 437.898
291 0 80.2528 14.6662 1177 130.492 1313.07 436.071
292 0 83.3182 15.4468 1287 129.152 1312.15 433.953
293 1 41.058 8.69501 357 133.451 1314.11 455.403
294 0 48.0426 9.86624 474 130.711 1314.09 453.359
295 0 50.1314 10.2331 513 130.08 1314.66 450.897
296 0 49.1111 9.97738 490 124.857 1314.76 454.216
297 0 52.0579 12.9856 676 124.83 1316 446.882
298 0 53.0389 12.5003 663 121.982 1317.39 447.484
299 0 56.2145 11.9008 669 120.293 1318.44 447.719
300 0 56.0728 11.2176 629 119.838 1320.65 447.784
301 0 60.0759 16.4958 991 110.397 1321.4 448.124
302 0 62.4271 16.4672 1028 110.881 1324.44 450.513
303 0 63.249 15.3204 969 125.576 1326.09 447.946
304 0 61.1531 11.7247 717 135.527 1327.51 444.229
305 0 65.2126 13.709 894 128.714 1328.97 445.163
306 0 67.1697 14.6197 982 122.117 1329.28 442.026
307 0 70.1992 14.06 987 122.957 1329.3 443.464
308 0 74.2456 14.1692 1052 123.273 1328.66 445.66
309 0 76.2093 15.523 1183 120.345 1328.41 440.338
310 0 78.4226 13.3508 1047 127.155 1327.92 442.838
311 0 83.2945 15.5112 1292 120.026 1327.43 442.666
312 0 83.2246 13.9382 1160 125.945 1326.83 438.566
313 0 86.2747 15.1261 1305 126.454 1325.26 439.7
314 0 88.313 14.392 1271 125.945 1324.13 438.107
315 0 96.8127 17.9005 1733 117.651 1323.27 441.653
316 0 98.5067 15.8263 1559 124.468 1322.04 439.609
317 0 99.3605 15.9822 1588 124.369 1320.48 432.414
318 0 101.474 16.7037 1695 122.588 1319.11 434.044
319 1 55.0893 11.3271 624 127.875 1318.85 456.33
320 0 55.0576 12.8774 709 129.072 1316.96 452.364
321 0 57.1346 13.757 786 126.949 1315.37 450.197
322 0 57.3905 11.0123 632 129.521 1311.82 447.935
323 0 60.5841 12.8582 779 125.616 1312.25 444.548
324 0 57.0584 10.6032 605 121.691 1311.41 441.164
325 0 62.0551 11.5704 718 116.574 1311.74 440.901
326 0 65.3011 17.1207 1118 107.671 1311.74 442.538
327 0 67.1732 13.7257 922 112.612 1311.83 439.831
328 0 67.2782 11.5193 775 117.902 1312.66 433.13
329 0 71.2056 10.1397 722 115.022 1312.33 440.652
330 0 73.1023 13.6931 1001 113.074 1313.47 432.214
331 0 73.1095 13.4456 983 112.683 1314.5 431.88
332 0 76.1768 17.9713 1369 106.965 1315.34 427.59
333 0 78.0964 14.9815 1170 109.631 1316.44 426.467
334 0 83.2032 13.3649 1112 109.261 1318.68 426.838
335 0 88.4456 18.9947 1680 102.414 1320.4 432.252
336 0 88.3318 18.8947 1669 105.985 1322.58 424.275
337 0 90.2414 10.9041 984 114.883 1323.8 424.059
338 0 93.278 13.7975 1287 111.587 1324.94 419.734
339 0 101.652 17.5992 1789 104.944 1326.18 432.988
340 0 102.51 13.2085 1354 114.421 1326.46 427.264
341 1 55.0488 13.7696 758 109.063 1326.42 450.993
342 0 60.2584 9.29331 560 113.388 1326.33 452.629
343 0 62.1157 12.8953 801 118.431 1325.42 453.719
344 0 66.2212 15.1613 1004 114.998 1323.89 453.375
345 0 65.287 16.3126 1065 114.598 1324.47 448.504
346 0 66.1184 11.7365 776 122.965 1322.6 452.201
347 0 70.5532 17.1077 1207 113.069 1321.68 455.181
348 0 67.2072 9.95429 669 131.404 1320.34 448.247
349 0 67.2072 9.8799 664 151.648 1319.35 448.205
350 0 73.2943 14.0666 1031 121.042 1317.63 447.078
351 0 76.1613 14.942 1138 122.05 1316.11 444.775
352 0 78.0968 11.7675 919 125.529 1314.87 443.371
353 0 79.1975 12.614 999 126.067 1313.31 444.216
354 0 82.2097 15.2658 1255 121.432 1312.66 439.019
355 0 82.2097 15.4483 1270 132.425 1311.67 439.037
356 1 48.0266 10.7024 514 122.938 1310.91 455.802
357 0 46.0679 10.3326 476 122.889 1310.82 456.54
358 0 49.1772 11.001 541 122.168 1310.38 453.582
359 0 51.1416 10.4416 534 123.609 1313.54 451.652
360 0 54.0954 11.4058 617 116.935 1313.99 450.131
361 0 53.1013 14.5759 774 112.576 1313.7 445.5
362 0 53.1013 14.5759 774 120.473 1313.7 445.5
363 0 55.1487 16.6278 917 108.891 1314.57 443.451
364 0 55.065 13.0391 718 111.901 1314.76 444.323
365 0 61.069 12.6087 770 109.49 1316.9 447.206
366 0 62.1939 11.3998 709 108.75 1318.83 447.166
367 0 62.1038 11.9316 741 108.646 1320.34 441.822
368 0 68.6554 20.6393 1417 98.3253 1321.13 445.52
369 0 65.3547 14.1841 927 104.419 1324.31 441.038
370 0 71.5196 20.1903 1444 98.205 1325.1 445.993
371 0 74.4173 14.889 1108 102.815 1326.06 448.102
372 0 71.2046 12.6818 903 115.522 1327.65 445.018
373 0 73.4097 15.3931 1130 114.626 1327.26 440.548
374 0 76.2755 15.0507 1148 116.853 1327.8 439.824
375 0 80.2287 19.8807 1595 109.233 1326.65 442.667
376 0 80.2202 15.0212 1205 118.191 1326.32 441.74
377 0 82.185 18.1542 1492 113.696 1325.72 444.58
378 0 90.3867 19.5825 1770 110.462 1325.08 445.318
379 0 86.2329 13.7535 1186 122.739 1323.58 440.223
380 0 89.3502 15.8701 1418 119.798 1322.91 443.251
381 0 93.4259 14.7818 1381 123.059 1321.78 440.207
382 0 94.2511 13.8778 1308 126.659 1320.92 434.227
383 0 99.2306 16.3155 1619 120.978 1320.07 434.75
384 1 58.5786 12.24 717 122.481 1319.38 458.863
385 0 54.2012 11.7894 639 119.897 1318.55 456.818
386 0 54.0495 12.3775 669 121.692 1317.02 452.398
387 0 56.0713 12.7695 716 135.993 1317.07 453.256
388 0 61.3455 16.3663 1004 111.076 1314.36 450.173
389 0 60.2289 14.4449 870 114.652 1314.25 449.875
390 0 61.2768 13.8878 851 115.821 1313.35 445.756
391 0 67.293 15.217 1024 113.209 1312.57 445.542
392 0 66.252 12.1959 808 118.832 1313.12 443.438
393 0 67.0863 12.5659 843 119.074 1312.91 441.624
394 0 72.0749 13.8744 1000 115.116 1313.22 440.541
395 0 71.1481 14.4769 1030 116.459 1313.95 438.973
396 0 74.186 13.237 982 116.237 1314.05 441.297
397 0 74.1124 8.52759 632 123.307 1315.05 440.231
398 0 77.2405 12.4805 964 117.207 1315.8 435.568
399 0 84.4586 23.3606 1973 103.138 1316.71 438.967
400 0 83.2642 11.8058 983 119.11 1319.48 437.219
401 0 85.2993 14.3612 1225 113.494 1321.12 432.479
402 0 89.1635 17.4062 1552 108.224 1321.56 426.091
403 0 96.9335 20.8287 2019 104.737 1322.86 435.55
404 0 94.3797 15.7449 1486 116.892 1323.53 435.359
405 1 51.0723 13.4907 689 118.303 1323.53 453.612
406 0 50.1079 13.4909 676 119.833 1324.21 452.703
407 0 53.2848 14.4131 768 122.51 1325.23 453.501
408 0 57.4502 17.389 999 114.263 1326.4 452.382
409 0 55.0511 12.443 685 120.309 1326.31 453.618
410 0 59.152 14.9953 887 118.914 1327.59 453.304
411 0 59.0652 12.5624 742 124.049 1326.7 453.09
412 0 59.0405 16.0398 947 120.001 1326.11 449.664
413 0 61.1427 12.9697 793 124.615 1324.23 450.562
414 0 64.134 12.0997 776 127.264 1323.15 451.265
415 0 64.0781 13.4679 863 124.224 1322.2 449.48
416 0 67.1585 15.6495 1051 120.647 1321.31 447.955
417 0 75.516 15.1756 1146 118.336 1320.41 449.843
418 0 71.1267 13.497 960 124.482 1318.65 443.107
419 0 74.1623 13.3221 988 123.874 1317.27 442.528
420 0 76.0916 13.4706 1025 124.766 1315.92 441.341
421 0 80.1889 14.1167 1132 123.244 1315.07 439.511
422 0 83.3278 12.8408 1070 123.636 1314.19 439.247
423 1 41.0416 9.21016 378 122.77 1313.93 458.164
424 0 44.0744 8.34951 368 124.918 1313.74 456.432
425 0 49.0398 8.62565 423 124.019 1313.29 451.352
426 0 48.0747 14.1447 680 117.544 1312.5 449.934
427 0 48.1493 9.26285 446 125.251 1313.2 450.126
428 0 54.0915 11.536 624 119.264 1313.28 449.066
429 0 56.2915 16.9475 954 105.319 1314.29 449.756
430 0 56.2915 17.1429 965 112.662 1315.25 449.703
431 0 59.2262 19.434 1151 99.9183 1314.53 443.337
432 0 59.172 16.6802 987 103.719 1315.95 445.568
433 0 63.3141 12.2721 777 109.812 1317.79 445.336
434 0 61.2124 16.696 1022 106.555 1320.01 438.806
435 0 64.0484 18.7827 1203 107.846 1322.31 447.387
436 0 65.5073 13.0673 856 115.986 1321.46 445.063
437 0 66.186 19.2337 1273 108.633 1323.58 447.721
438 0 69.1297 15.3914 1064 113.361 1324.55 443.641
439 0 67.1755 10.0185 673 121.917 1324.68 441.78
440 0 71.1788 12.869 916 119.252 1325.65 444.224
441 0 74.149 13.0548 968 118.567 1326.38 444.597
442 0 79.3555 13.9751 1109 117.179 1325.68 446.308
443 0 81.4013 13.8696 1129 119.536 1324.99 441.04
444 0 83.1928 13.4026 1115 120.782 1325.03 444.196
445 0 85.1951 15.2826 1302 120.046 1324.33 440.725
446 0 90.2473 17.9839 1623 115.998 1323.44 441.308
447 0 91.2052 15.0211 1370 123.631 1322.21 437.69
448 0 97.6393 18.0972 1767 113.65 1321.54 444.137
449 0 97.291 13.7834 1341 121.801 1320.03 435.99
450 0 100.585 16.4238 1652 115.813 1318.34 439.284
451 0 104.369 17.7351 1851 115.502 1317.28 432.372
452 0 106.46 13.3008 1416 122.11 1315.84 432.427
453 0 111.577 17.7187 1977 116.581 1314.75 423.495
454 1 62.3213 11.0556 689 123.81 1313.23 448.415
455 0 63.2027 13.4488 850 120.315 1312.66 449.182
456 0 64.2137 11.9912 770 122.321 1311.64 447.382
457 0 67.221 13.225 889 121.435 1311.36 445.047
458 0 66.3444 12.1337 805 124.887 1311.38 445.248
459 0 71.5294 13.9523 998 122.448 1310.9 442.261
460 0 72.4386 15.2405 1104 121.418 1310.29 438.189
461 0 76.4917 13.6747 1046 123.149 1310.8 437.632
462 0 76.2398 14.1134 1076 121.787 1311.45 439.043
463 0 81.7006 15.973 1305 118.19 1312.23 435.943
464 0 83.3732 16.2042 1351 119.299 1313.73 433.608
465 0 91.0475 19.3306 1760 112.639 1314.78 430.087
466 0 92.4308 15.9687 1476 112.78 1317.96 433.691
467 0 96.4316 16.9861 1638 112.702 1320.71 429.7
468 0 92.2411 13.5298 1248 118.16 1322.48 427.835
469 0 96.2317 15.338 1476 116.122 1324.76 425.68
470 0 98.574 11.6461 1148 121.463 1326.06 432.838
471 0 104.994 13.4293 1410 118.278 1326.97 428.508
472 0 109.344 17.3764 1900 114.485 1326.86 425.243
473 0 110.379 16.6246 1835 117.682 1327.59 426.423
474 0 112.464 16.2097 1823 118.711 1327.88 422.1
475 1 59.1744 11.5928 686 120.182 1328.8 453.946
476 0 67.7199 13.3343 903 118.358 1327.46 452.835
477 0 67.2144 14.7736 993 121.315 1326.39 451.245
478 0 66.166 14.2671 944 126.89 1326.3 447.5
479 0 70.1442 14.6698 1029 122.966 1326.28 451.51
480 0 71.1538 12.6908 903 125.628 1325.25 449.295
481 0 75.3823 15.7995 1191 123.533 1323.53 449.837
482 0 75.124 17.0518 1281 124.806 1322.86 448.017
483 0 76.313 12.488 953 134.475 1320.44 443.145
484 0 81.3239 14.0426 1142 127.351 1317.45 444.409
485 0 82.3869 15.6214 1287 124.846 1316.11 441.013
486 0 85.3698 13.5059 1153 129.011 1314.98 436.858
487 0 87.2432 14.6258 1276 126.232 1313.98 438.208
488 0 87.1978 12.0645 1052 132.753 1312.7 433.289
489 0 92.2767 13.4704 1243 130.342 1312.17 432.39
490 0 94.2856 14.944 1409 129.331 1312.36 424.407
491 0 98.2903 14.4165 1417 129.675 1312.25 424.78
492 1 54.1893 10.1496 550 125.656 1313.1 451.207
493 0 55.1921 12.8098 707 119.013 1312.71 452.004
494 0 53.0998 11.017 585 125 1312.86 444.617
495 0 55.1161 12.0292 663 122.299 1313.46 445.17
496 0 60.489 11.6385 704 118.439 1315.06 449.605
497 0 59.0558 13.3772 790 119.156 1314.24 444.196
498 0 60.1045 12.8443 772 119.618 1313.74 445.702
499 0 64.122 15.4705 992 115.55 1315.32 444.74
500 0 67.0868 14.3396 962 117.56 1317.79 442.483
501 0 68.0812 20.358 1386 109.652 1318.51 443.972
502 0 68.0949 12.2917 837 122.551 1319.74 440.473
503 0 70.2111 15.667 1100 116.969 1321.16 444.266
504 0 72.1133 13.4649 971 123.782 1322.56 440.836
505 0 74.0937 15.3859 1140 121.578 1323.21 440.354
506 0 77.2425 13.5677 1048 124.893 1322.94 442.995
507 0 79.1653 14.615 1157 125.809 1324.3 439.487
508 0 80.2056 13.5153 1084 128.446 1324.05 438.864
509 0 83.1127 15.0639 1252 126.693 1324.08 437.231
510 0 84.1958 16.1647 1361 124.306 1324.02 442.917
511 0 88.1491 14.4301 1272 130.364 1323.86 439.583
512 0 91.2907 15.8066 1443 128.406 1324.05 436.108
513 0 93.1289 13.6692 1273 132.227 1323.29 437.669
514 1 51.1254 8.03905 411 134.034 1322.88 461.859
515 0 53.039 10.2943 546 130.996 1322.4 457.505
516 0 56.1879 9.37925 527 131.006 1318.2 458.947
517 0 56.1879 9.0055 506 137.105 1316.22 458.601
518 0 58.34 12.6671 739 126.973 1316.77 453.824
519 0 60.1569 11.3703 684 128.651 1314.16 451.284
520 0 62.2413 15.5202 966 119.519 1314.51 453.535
521 0 62.1807 11.9169 741 128.067 1314.07 447.897
522 0 64.1449 12.6433 811 127.219 1312.67 446.713
523 0 64.1449 12.6588 812 136.43 1311.68 446.568
524 0 69.2357 15.0356 1041 125.149 1311.73 442.802
525 0 70.1368 13.4594 944 124.907 1311.89 443.109
526 0 76.238 15.7664 1202 120.073 1311.53 440.123
527 0 75.1973 11.902 895 123.601 1312.18 442.121
528 0 78.1605 15.0971 1180 121.129 1312.92 437.921
529 0 81.3916 15.6404 1273 119.132 1312.91 437.677
530 0 83.2458 16.0489 1336 118.098 1314.26 436.678
531 1 43.0758 10.4699 451 120.029 1316.59 455.803
532 0 46.1567 10.031 463 119.713 1317.83 456.352
533 0 54.1313 13.4673 729 111.119 1320.64 455.15
534 0 46.1199 10.1475 468 123.776 1321.94 452.797
535 0 48.1673 11.0656 533 125.407 1324.21 453.233
536 0 48.171 11.0647 533 132.749 1326.2 453.259
537 0 53.3927 14.9833 800 114.436 1325.42 452.158
538 0 51.2574 15.6075 800 119.245 1327.05 450.579
539 0 53.2586 15.2088 810 119.928 1327.13 452.465
540 0 56.2386 13.5316 761 125.574 1327.65 450.996
541 0 55.3017 13.8151 764 126.274 1327.51 450.158
542 0 56.2497 12.6579 712 128.81 1327.33 453.185
543 0 61.3546 13.8213 848 126.555 1327.03 449.425
544 0 61.3818 15.1674 931 125.504 1325.92 451.418
545 0 62.0899 10.4204 647 130.714 1325.66 454.02
546 0 65.0826 14.0591 915 124.746 1323.64 447.078
547 0 67.3191 13.3989 902 125.947 1322.78 448.181
548 0 69.1271 11.3125 782 130.358 1321.74 446.468
549 0 72.1614 15.3545 1108 120.956 1320.11 442.195
550 0 75.2558 13.288 1000 123.395 1318.9 440.194
551 0 77.3193 12.6618 979 121.53 1317.92 445.343
552 1 42.0495 9.60773 404 123.849 1317.85 459.181
553 0 42.0495 9.79798 412 117.825 1316.92 459.231
554 0 43.0463 11.9871 516 120.531 1315.48 456.829
555 0 43.143 8.76156 378 126.222 1313.78 456.643
556 0 46.1448 12.0707 557 118.995 1313.33 452.646
557 0 48.1036 14.5935 702 114.893 1311.05 452.369
558 0 51.1162 12.8922 659 117.498 1311.01 450.422
559 0 48.1004 11.3097 544 119.369 1312.78 449.945
560 0 52.1133 13.2404 690 116.009 1312.4 448.735
561 0 50.1818 11.2192 563 119.005 1313.04 448.735
562 0 54.1363 12.3208 667 118.459 1314.24 447.375
563 0 56.1724 12.5328 704 117.58 1315.91 448.297
564 0 56.246 11.8231 665 119.323 1317.19 447.89
565 0 58.1218 12.6286 734 118.944 1318.15 444.444
566 0 62.3623 13.3574 833 116.555 1320.39 443.283
567 0 64.277 11.4504 736 118.338 1322.43 443.083
568 0 63.1736 11.9037 752 116.324 1324.29 440.327
569 0 69.3874 17.5968 1221 105.826 1325.64 439.44
570 0 73.1594 15.4867 1133 108.583 1326.73 439.034
571 0 74.3845 13.8873 1033 111.574 1327.07 442.414
572 0 75.2602 13.553 1020 116.881 1328.01 439.726
573 0 75.2602 13.5928 1023 126.633 1329.03 439.877
574 0 80.2179 12.3788 993 121.823 1328.11 436.69
575 0 83.1785 10.7961 898 127.331 1328.07 438.911
576 0 86.4295 12.542 1084 122.577 1326.26 434.492
577 0 91.4311 16.0667 1469 119.601 1325.74 435.809
578 1 47.1512 12.5978 594 118.916 1324.34 463.072
579 0 49.2906 15.6013 769 115.062 1323.67 465.428
580 0 47.1111 11.2924 532 125.164 1322.95 461.724
581 0 50.1265 12.3687 620 123.079 1321.4 460.266
582 0 50.0682 10.5257 527 125.92 1320.08 459.71
583 0 53.1207 11.5398 613 125.116 1318.09 457.028
584 0 55.314 12.5104 692 123.718 1317.47 456.653
585 0 55.3252 12.4717 690 116.204 1316.46 456.599
586 0 59.2402 13.0317 772 124.358 1314.46 457.972
587 0 61.118 13.5312 827 125.466 1313.41 456.349
588 0 61.0813 12.8845 787 128.891 1314.6 455.531
589 0 65.1531 13.1536 857 129.09 1314.18 452.286
590 0 69.1626 14.5454 1006 125.532 1313.23 450.016
591 0 70.2244 11.9759 841 131.801 1312.52 448.478
592 0 69.3922 11.0963 770 133.666 1312.23 446.381
593 0 75.1132 14.1919 1066 125.465 1312.14 445.92
594 0 79.265 14.0541 1114 125.938 1312.07 443.809
595 0 79.1357 14.7721 1169 125.435 1312.33 440.772
596 1 47.102 12.6958 598 125.294 1313.89 459.415
597 0 45.1214 10.3277 466 132.281 1315.02 459.18
598 0 47.0994 9.80905 462 133.017 1316.07 461.258
599 0 46.0863 10.22 471 134.563 1316.26 459.505
600 0 49.0722 12.1046 594 129.261 1318.29 459.135
601 0 50.0193 12.0953 605 129.788 1320.25 460.017
602 0 52.1391 14.212 741 126.332 1321.55 456.973
603 0 55.19 16.869 931 123.951 1322.4 458.263
604 0 54.103 12.1065 655 136.284 1323.27 456.018
605 0 58.1332 15.2409 886 126.861 1322.97 454.86
606 0 59.1356 14.4076 852 132.04 1323.46 454.258
607 0 60.0829 13.8475 832 133.163 1322.82 455.04
608 0 63.1399 15.9012 1004 129.944 1321.96 453.959
609 0 63.4539 13.8211 877 134.855 1321.67 453.633
610 0 63.1691 12.9019 815 137.902 1321.62 454.89
611 0 69.1487 15.4305 1067 132.712 1320.41 457.265
612 0 70.1416 14.7701 1036 136.261 1319.39 450.885
613 0 73.1454 14.6284 1070 136.836 1318.14 451.136
614 0 74.2099 13.5831 1008 138.17 1316.23 446.852
615 1 40.0477 9.91318 397 141.461 1316.28 467.861
616 0 43.0627 9.103 392 142.592 1314.57 468.23
617 0 44.0887 10.4335 460 141.42 1312.92 464.376
618 0 47.038 12.8194 603 133.638 1312.06 464.496
619 0 46.093 12.5399 578 136.469 1310.83 463.332
620 0 50.059 13.0246 652 134.544 1309.37 462.632
621 0 49.0883 14.1785 696 132.659 1308.61 458.119
622 0 49.1545 13.5898 668 134.217 1306.46 458.722
623 0 51.0535 12.1833 622 136.257 1306.98 456.617
624 0 52.1493 12.771 666 138.52 1307.83 451.054
625 0 55.2925 11.2854 624 139.354 1307.95 451.673
626 0 55.0959 14.6653 808 133.624 1308.65 451.126
627 0 59.1393 13.6627 808 133.619 1309.14 448.97
628 0 59.2428 12.0352 713 138.658 1310.39 445.515
629 0 62.2533 13.4129 835 134.922 1311.71 446.353
630 0 65.3092 13.2141 863 133.152 1311.8 444.254
631 0 66.3266 13.6597 906 131.437 1313.47 443.52
632 0 71.327 17.9736 1282 118.484 1314 438.864
633 0 70.435 12.9339 911 130.88 1315.82 440.393
634 0 77.2502 15.7928 1220 124.334 1317.55 438.618
635 1 38.0686 11.7157 446 129.002 1320.82 458.296
636 0 39.0775 12.7695 499 129.379 1322.56 457.257
637 0 40.0724 10.9801 440 134.6 1323.06 459.395
638 0 41.0923 12.1677 500 133.782 1323.62 456.102
639 0 46.0345 12.6644 583 133.024 1324.86 457.05
640 0 45.1305 14.5799 658 131.299 1325.23 456.299
641 0 51.2458 15.7281 806 126.122 1325.29 459.968
642 0 50.1029 15.8873 796 128.443 1323.83 456.182
643 0 51.0901 13.4664 688 136.513 1323.24 456.875
644 0 55.4657 18.4438 1023 120.57 1322.84 461.019
645 0 52.3166 12.6919 664 137.614 1321.81 456.446
646 0 56.1043 13.8136 775 136.565 1321.51 455.334
647 0 55.1849 11.1081 613 144.393 1321.15 458.599
648 0 59.145 14.6589 867 136.02 1319.46 454.502
649 0 57.0947 13.8542 791 140.2 1317.82 455.539
650 0 61.2585 13.8266 847 137.442 1317.03 454.2
651 0 64.1253 16.6861 1070 134.493 1314.82 453.436
652 0 64.2048 12.9585 832 139.206 1313.71 449.195
653 0 67.247 14.6326 984 134.223 1312.45 449.915
654 0 67.247 14.6624 986 148.364 1311.44 449.967
655 0 72.1745 15.0746 1088 133.252 1310.99 443.168
656 0 76.3088 19.5914 1495 123.644 1310.32 442.219
657 0 77.2847 13.5861 1050 134.905 1309.87 440.345
658 1 40.0214 10.9941 440 133.693 1310.46 457.33
659 0 42.0263 10.8979 458 131.867 1311.55 456.985
660 0 45.036 11.9238 537 129.993 1311.55 454.153
661 0 45.0809 13.9305 628 125.549 1312.46 451.489
662 0 50.0797 12.6398 633 123.269 1313.47 453.916
663 0 56.6829 15.8249 897 113.384 1315.73 452.4
664 0 51.1401 14.1181 722 122.73 1314.63 450.048
665 0 52.1428 12.3315 643 125.924 1316.52 451.115
666 0 54.2674 14.4654 785 124.535 1319.02 449.899
667 0 56.2164 16.5432 930 121.939 1320.73 449.811
668 0 59.1014 18.5613 1097 117.111 1322.32 449.859
669 0 59.1014 18.3752 1086 134.282 1323.32 449.81
670 0 59.0689 13.7467 812 135.176 1323.94 446.803
671 0 62.0984 14.0744 874 131.165 1325.56 446.606
672 0 65.1495 14.9656 975 128.487 1325.79 449.462
673 0 66.2862 18.9029 1253 124.967 1325.87 447.958
674 0 68.0408 15.7259 1070 132.131 1325.54 448.592
675 0 73.2868 16.606 1217 129.991 1324.84 449.376
676 0 68.0624 12.8412 874 141.616 1324.39 446.097
677 0 76.1422 14.1971 1081 135.677 1323.33 448.331
678 0 78.1733 19.4823 1523 126.321 1321.64 449.281
679 0 80.1718 13.2715 1064 139.141 1320.23 446.261
680 0 84.3164 16.4618 1388 131.82 1318.77 443.403
681 1 43.04 11.7333 505 135.321 1317.74 463.119
682 0 41.1087 11.9683 492 134.608 1316.11 462.673
683 0 47.027 11.0787 521 132.977 1314.56 462.286
684 0 45.1615 9.65425 436 138.381 1313.12 458.693
685 0 47.1088 12.3544 582 131.278 1312.05 456.84
686 0 49.2566 13.785 679 127.193 1311.14 454.599
687 0 50.2858 13.2841 668 128.611 1309.95 453.072
688 0 53.0654 17.0167 903 119.577 1309.61 450.691
689 0 55.2643 17.7692 982 116.288 1309.44 451.962
690 0 54.1159 13.9515 755 124.767 1309.46 449.475
691 0 55.322 14.2439 788 124.811 1309.36 445.949
692 0 59.1276 14.5279 859 122.087 1309.57 448.773
693 0 59.2698 13.0421 773 125.186 1310.33 446.287
694 0 65.3474 14.9356 976 118.591 1311.23 445.414
695 0 64.1103 17.8598 1145 113.761 1312.56 440.727
696 0 65.2093 14.8138 966 118.281 1313.71 440.806
697 0 68.2252 17.0465 1163 117.882 1314.69 439.894
698 0 69.2319 15.3109 1060 120.194 1316.78 438.575
699 0 72.1945 16.2755 1175 117.412 1319.05 440.219
700 0 74.2015 18.2611 1355 116.46 1320.18 437.692
701 0 74.2128 12.6393 938 128.143 1321.33 439.388
702 0 82.1243 16.4507 1351 121.42 1322.51 438.893
703 0 82.1285 18.5441 1523 118.567 1323.48 441.737
704 0 81.1317 15.2961 1241 148.316 1325.6 438.237
705 0 88.1645 14.0986 1243 130.956 1324.28 437.023
706 1 45.0281 13.4805 607 126.565 1324.08 458.896
707 0 48.1342 13.4831 649 126.98 1323.71 457.629
708 0 50.066 12.2239 612 133.065 1324.1 456.922
709 0 52.1194 14.2557 743 128.012 1323.94 455.754
710 0 53.1797 13.257 705 130.8 1322.69 456.759
711 0 54.1407 14.6655 794 128.204 1321.59 457.797
712 0 54.0399 18.7824 1015 122.63 1321.34 456.427
713 0 54.0399 18.6899 1010 128.289 1320.29 456.416
714 0 60.069 14.7331 885 130.664 1318.68 450.837
715 0 60.1169 14.8877 895 133.413 1317.83 451.051
716 0 64.0872 16.2279 1040 129.258 1316.13 448.504
717 0 66.0997 13.0409 862 129.051 1314.1 450.716
718 0 67.103 14.0828 945 132.258 1313.23 446.942
719 0 72.3126 17.0786 1235 124.315 1312.56 448.854
720 0 72.1568 17.3927 1255 125.774 1309.68 441.923
721 0 76.3699 18.4235 1407 122.821 1309 445.397
722 0 77.4042 18.2161 1410 127.126 1309.14 438.957
723 0 78.3357 14.8847 1166 131.89 1308.98 439.153
724 0 80.2983 17.6841 1420 125.182 1309.43 434.375
725 0 83.3055 16.5415 1378 128.663 1309.61 434.359
726 0 87.2981 16.4379 1435 128.367 1311.12 435.652
727 0 88.285 15.4953 1368 132.445 1311.41 430.989
728 1 48.196 10.1461 489 133.687 1312.24 452.155
729 0 54.1505 15.4015 834 115.74 1313.05 455.007
730 0 53.1779 15.3447 816 123.325 1316.99 450.228
731 0 55.3647 12.517 693 127.833 1319.53 447.237
732 0 55.2514 13.5562 749 132.069 1321.99 447.276
733 0 56.116 12.8484 721 129.241 1323.45 449.938
734 0 59.3251 16.4686 977 124.465 1324.72 448.758
735 0 59.1001 12.8934 762 132.966 1325.18 448.371
736 0 63.1746 16.8897 1067 129.107 1325.96 445.547
737 0 64.141 15.8557 1017 136.353 1326.87 448.928
738 0 65.1142 15.5573 1013 136.29 1327.3 448.732
739 0 69.2475 15.4374 1069 138.276 1326.38 448.728
740 0 72.1975 14.4742 1045 139.108 1325.75 450.913
741 0 74.4261 18.0985 1347 132.316 1325.12 450.272
742 0 76.1208 15.7119 1196 138.33 1324.14 447.536
743 0 79.3129 19.3411 1534 130.64 1322.29 448.268
744 0 80.2821 15.022 1206 139.776 1321.41 445.968
745 0 85.1363 15.9157 1355 136.976 1319.44 443.903
746 0 89.302 18.443 1647 131.47 1317.6 442.982
747 1 46.1242 11.4257 527 135.097 1315.08 467.269
748 0 48.2425 12.1884 588 135.48 1314.51 465.156
749 0 47.1203 9.71981 458 143.284 1313.24 462.028
750 0 50.2289 14.2348 715 132.757 1312.37 461.173
751 0 55.2263 13.1459 726 129.605 1309.91 457.103
752 0 55.1671 16.9123 933 120.646 1309.62 456.118
753 0 55.1181 12.3372 680 127.504 1309.3 458.909
754 0 57.1356 13.0917 748 126.824 1308.4 457.16
755 0 59.1468 14.8782 880 122.901 1308.18 455.857
756 0 61.1608 14.6499 896 121.093 1307.95 456.797
757 0 61.1608 14.6663 897 135.132 1306.94 456.816
758 0 65.1686 13.2119 861 125.815 1309.14 451.993
759 0 65.0562 12.5584 817 126.705 1309.06 449.534
760 0 67.1455 12.942 869 125.275 1310.06 449.26
761 0 69.1924 14.438 999 123.052 1311.03 447.242
762 0 72.1561 12.7501 920 126.134 1312.26 446.485
763 0 74.2821 15.7373 1169 122.254 1313.94 443.388
764 0 78.2206 13.2446 1036 125.437 1315.73 445.836
765 0 79.1715 14.3865 1139 125.628 1316.67 443.538
766 0 81.42 12.1837 992 127.939 1318.06 440.086
767 0 88.4356 15.4576 1367 118.403 1318.82 439.765
768 1 44.0707 10.1882 449 121.399 1321.47 459.354
769 0 48.0981 14.1378 680 126.638 1322.64 461.357
770 0 48.0786 11.1692 537 134.035 1323.4 459.467
771 0 52.292 13.8453 724 125.59 1323 465.224
772 0 53.2027 16.5969 883 125.359 1321.39 460.788
773 0 54.1635 13.8654 751 129.305 1322.92 461.361
774 0 57.2262 13.8223 791 129.708 1322.61 460.917
775 0 57.1913 12.7117 727 134.883 1321.42 462.95
776 0 61.2796 12.2063 748 132.905 1320.04 463.814
777 0 61.1819 13.6969 838 132.846 1318.68 462.975
778 0 65.2241 15.4698 1009 127.237 1317.46 464.242
779 0 68.1201 15.3406 1045 129.077 1316.28 458.631
780 0 69.1363 13.6108 941 132.37 1313.64 454.803
781 0 71.2647 14.2146 1013 132.061 1312.13 454.471
782 0 75.137 16.2902 1224 127.728 1310.7 451.756
783 0 78.4339 16.4852 1293 128.74 1309.33 450.404
784 1 37.2725 9.14884 341 133.71 1307.35 471.886
785 0 38.2498 12.1831 466 130.841 1306.87 468.255
786 0 42.5635 12.6869 540 125.25 1305.08 467.643
787 0 45.3669 9.43419 428 126.322 1304.39 467.201
788 0 42.0442 12.249 515 116.682 1306.81 459.808
789 0 44.1388 12.4154 548 115.239 1304.58 460.453
790 0 46.1334 12.724 587 119.015 1306.79 456.111
791 0 47.0965 11.8905 560 119.97 1307.63 454.602
792 0 49.2863 12.7013 626 116.436 1307.29 453.163
793 0 51.313 13.5638 696 112.595 1307.78 452.909
794 0 49.0393 11.7253 575 116.522 1308.59 448.788
795 0 54.3504 19.0247 1034 103.813 1309.51 451.449
796 0 56.469 12.2545 692 113.34 1311.85 446.868
797 0 53.2668 10.3629 552 116.962 1313.33 444.678
798 0 57.3988 16.4812 946 109.974 1315.31 443.059
799 0 59.0761 15.2854 903 112.971 1316.83 443.348
800 0 63.3684 14.1869 899 108.526 1318.42 444.328
801 0 65.2957 14.1663 925 110.292 1319.72 446.179
802 0 63.2786 11.0148 697 117.449 1320.92 445.578
803 0 64.1777 12.4342 798 116.546 1322.45 441.306
804 0 68.1724 15.4755 1055 124.456 1322.91 442.754
805 0 67.387 10.3284 696 133.582 1323.59 445.284
806 0 72.2735 17.9596 1298 119.921 1323.21 445.704
807 0 74.3485 14.8759 1106 128.46 1323.55 441.605
808 0 80.3013 14.5701 1170 126.309 1323.41 448.585
809 0 77.0977 12.5166 965 132.808 1322.32 445.057
810 0 83.4845 13.5714 1133 128.981 1321.18 446.635
811 0 84.2522 13.1035 1104 130.688 1320.54 442.99
812 1 46.2577 12.0628 558 128.545 1320.52 464.898
813 0 46.4655 13.1065 609 125.304 1319.77 463.253
814 0 46.5033 12.3862 576 129.674 1318.36 459.3
815 0 48.309 13.186 637 132.812 1316.81 457.495
816 0 52.3482 16.3138 854 124.995 1315.48 456.539
817 0 51.0736 15.2721 780 125.722 1313.57 454.6
818 0 50.0667 12.5832 630 134.651 1313.32 455.781
819 0 56.1483 16.9907 954 124.491 1312.54 456.073
820 0 55.394 14.5323 805 132.383 1312.46 452.712
821 0 59.4611 12.7983 761 134.511 1311.45 451.606
822 0 61.4049 17.6859 1086 124.114 1311.47 450.645
823 0 63.5378 15.6285 993 127.885 1311.14 447.309
824 0 64.3718 15.659 1008 128.031 1311.25 444.994
825 0 66.3817 14.3564 953 131.155 1312.2 444.473
826 0 70.406 16.4048 1155 128.181 1313.05 441.697
827 0 68.2959 13.6758 934 133.94 1313.89 442.521
828 0 71.5157 14.3465 1026 133.84 1315.19 438.127
829 0 74.252 16.1073 1196 130.862 1316.78 436.089
830 0 78.2361 14.8653 1163 131.877 1318.19 434.767
831 0 78.3364 14.8079 1160 133.406 1320.39 434.416
832 1 44.6578 12.0696 539 132.97 1322.33 452.57
833 0 43.085 13.5082 582 134.808 1323.53 449.686
834 0 43.1851 16.464 711 124.909 1325.07 455.757
835 0 45.2648 13.0786 592 134.642 1326.32 451.743
836 0 48.0831 14.0174 674 131.365 1327.45 454.668
837 0 47.077 13.6585 643 137.669 1327.8 454.297
838 0 49.1587 11.7375 577 141.522 1327.94 455.362
839 0 50.0708 13.6607 684 136.183 1327.41 455.466
840 0 53.0555 12.666 672 140.018 1327.42 458.274
841 0 54.0873 15.2161 823 136.934 1326.88 457.858
842 0 52.0928 13.0536 680 145.254 1325.92 455.124
843 0 55.3092 15.6032 863 138.574 1324.67 454.436
844 0 60.1147 14.2894 859 140.063 1323.19 456.893
845 0 61.1788 14.8908 911 138.651 1322.55 453.92
846 0 60.2181 13.4677 811 144.413 1321.79 453.154
847 0 63.1439 16.8346 1063 135.339 1319.73 450.291
848 0 65.2541 14.8956 972 140.159 1318.15 450.144
849 0 66.2286 14.2688 945 142.594 1316.63 446.834
850 0 70.132 12.505 877 141.6 1314.58 448.788
851 0 72.2844 17.777 1285 132.623 1313.37 443.378
852 0 74.2684 12.0509 895 146.355 1311.87 443.611
853 0 78.2577 16.4201 1285 140.503 1310.94 440.632
854 1 40.3168 9.69818 391 145.806 1311.39 458.455
855 0 44.1317 12.1681 537 138.609 1311.16 454.063
856 0 45.1709 10.6263 480 141.246 1311.55 455.742
857 0 47.1906 11.0192 520 139.965 1311.31 454.212
858 0 48.1514 11.007 530 140.253 1311.72 454.108
859 0 49.1341 12.7814 628 140.465 1312.69 451.981
860 0 54.1062 16.3382 884 130.655 1313.18 453.282
861 0 53.1368 13.9451 741 136.942 1313.65 453.02
862 0 53.2395 14.1248 752 138.319 1314.39 453.076
863 0 58.1854 18.4239 1072 126.196 1316.41 450.756
864 0 61.1781 16.4928 1009 130.384 1317.38 450.197
865 0 63.405 19.6199 1244 121.703 1318.97 448.256
866 0 63.1689 16.7171 1056 128.612 1320.39 445.941
867 0 66.4442 17.3379 1152 130.736 1322.63 450.129
868 0 69.1175 14.3958 995 136.731 1323.67 446.978
869 0 74.53 20.1261 1500 125.611 1323.26 446.944
870 0 75.2737 17.4165 1311 134.186 1323.85 444.531
871 0 72.133 12.0611 870 144.153 1323.41 444.567
872 0 78.2402 14.8517 1162 138.306 1323.52 442.498
873 0 82.3498 16.1628 1331 135.243 1322.61 443.294
874 0 84.1933 12.9226 1088 143.015 1322.52 443.039
875 1 40.2553 10.334 416 141.892 1321.88 464.966
876 0 42.1516 10.8418 457 141.077 1321.46 461.829
877 0 47.2393 12.3626 584 137.317 1319.33 461.647
878 0 48.2213 12.2145 589 135.669 1318.15 462.895
879 0 50.0652 13.822 692 133.876 1317.52 460.487
880 0 52.1439 14.4408 753 131.936 1316 461.598
881 0 52.0509 10.5858 551 141.574 1316.26 460.505
882 0 57.1169 15.5471 888 130.47 1314.76 459.925
883 0 57.1263 14.2316 813 133.41 1313.8 457.734
884 0 57.2023 11.8352 677 135.722 1312.13 455.439
885 0 60.1225 14.0214 843 131.243 1310.9 454.989
886 0 63.4371 16.6937 1059 126.536 1310.65 451.776
887 0 64.1759 16.3301 1048 130.326 1310.78 448.58
888 0 65.2007 12.6379 824 134.393 1309.89 449.89
889 0 70.1712 13.8803 974 133.727 1309.21 446.407
890 0 71.3308 14.6921 1048 131.415 1309.8 442.185
891 0 74.2007 15.4311 1145 129.842 1309.88 440.76
892 0 77.1559 19.1949 1481 121.846 1310.02 442.608
893 0 77.2135 14.7902 1142 131.926 1310.37 436.898
894 1 40.0717 11.8038 473 131.622 1311.75 457.057
895 0 42.1485 13.9981 590 130.693 1313.31 455.553
896 0 44.0974 12.0189 530 132.436 1314.5 455.04
897 0 45.299 12.6714 574 131.571 1315.61 452.206
898 0 49.2922 13.7344 677 124.805 1317.95 456.097
899 0 48.2881 12.7154 614 135 1320 451.769
900 0 50.2269 12.7024 638 135.155 1320.94 453.456
901 0 53.2995 14.3716 766 132.886 1322.54 454.661
902 0 52.222 13.5 705 137.095 1323.55 454.824
903 0 54.2058 15.4596 838 136.402 1323.7 453.476
904 0 57.0618 16.0352 915 132.948 1324.36 453.404
905 0 59.0856 14.8767 879 133.626 1323.44 453.272
906 0 62.0958 15.927 989 131.959 1323.82 451.2
907 0 63.2093 14.8396 938 139.029 1323.32 454.43
908 0 64.2539 16.8239 1081 136.852 1323.03 453.361
909 0 65.1914 13.2533 864 145.74 1321.95 451.462
910 0 68.1858 13.6245 929 146.167 1321.41 450.903
911 0 72.0851 16.1753 1166 142.272 1320.9 451.115
912 0 74.1453 16.6834 1237 142.359 1319.51 448.666
913 0 75.3604 14.9946 1130 145.329 1318.89 449.839
914 0 74.2549 12.4571 925 153.977 1317.76 447.108
915 0 80.3297 14.6148 1174 147.721 1316.3 445.094
916 1 44.1049 9.86285 435 152.09 1314.66 461.634
917 0 44.1564 10.8478 479 149.503 1312.74 461.148
918 0 45.1777 9.82787 444 148.178 1310.67 462.011
919 0 47.1102 13.0333 614 145.467 1311.25 456.847
920 0 47.151 13.8703 654 145.719 1311.12 454.272
921 0 52.0495 13.5256 704 143.314 1310.78 454.651
922 0 52.0341 13.3758 696 145.812 1310.7 452.534
923 0 54.0478 13.7101 741 138.136 1310.65 452.345
924 0 57.1142 14.007 800 129.356 1313.57 452.025
925 0 56.3079 13.9057 783 130.34 1313.94 448.272
926 0 61.2632 19.049 1167 118.023 1314.54 448.575
927 0 61.2537 14.5461 891 125.902 1315.14 445.629
928 0 63.2756 13.3859 847 128.74 1316.39 442.857
929 0 64.3363 11.6264 748 132.336 1317.76 441.436
930 0 65.2298 12.9849 847 126.793 1320.16 440.999
931 0 67.1932 12.3822 832 130.809 1321.94 438.621
932 0 72.2246 14.7872 1068 125.471 1323.77 443.995
933 0 75.2565 15.7063 1182 123.602 1325.06 439.168
934 0 77.2054 12.3308 952 128.8 1325.91 440.632
935 0 81.3723 17.9791 1463 119.237 1327.32 441.957
936 0 82.2704 13.8446 1139 128.577 1327.96 437.712
937 0 84.2297 14.2467 1200 130.092 1328 439.548
938 0 87.2225 15.535 1355 128.266 1328.28 434.694
939 1 43.0901 12.3462 532 130.303 1328.61 458.897
940 0 49.5882 11.6963 580 129.881 1328.31 461.188
941 0 46.2006 11.9479 552 133.63 1328.24 460.449
942 0 49.0506 12.5177 614 129.459 1324.59 461.322
943 0 49.0857 14.1793 696 132.5 1324.55 457.951
944 0 53.1058 17.0603 906 127.89 1324.64 461.252
945 0 54.0914 14.2167 769 135.104 1324 456.375
946 0 54.1541 14.588 790 133.937 1323.47 457.313
947 0 55.191 11.886 656 138.733 1321.7 455.948
948 0 57.142 14.5952 834 133.633 1320.6 455.715
949 0 59.1181 10.8258 640 140.602 1318.38 455.069
950 0 61.2338 15.6939 961 130.913 1316.12 448.657
951 0 64.2036 13.3793 859 134.255 1314.75 450.304
952 0 67.2608 17.4991 1177 123.74 1314.42 450.124
953 0 68.1908 16.0579 1095 127.403 1314.16 445.644
954 0 74.5393 19.815 1477 117.651 1314.09 447.108
955 0 71.4348 14.0268 1002 130.779 1313.27 441.94
956 0 75.2485 15.4023 1159 126.362 1314.2 443.835
957 0 80.3577 14.2861 1148 125.348 1313.77 440.49
958 0 82.5484 17.2747 1426 118.527 1314.15 439.607
959 0 85.2926 16.1327 1376 119.62 1314.65 437.994
960 0 87.3031 16.3453 1427 120.263 1314.72 435.411
961 1 44.1979 14.0052 619 125.173 1316.91 451.74
962 0 45.2464 9.79084 443 133.427 1318.75 452.165
963 0 50.102 13.1133 657 125.723 1320.26 453.02
964 0 53.1619 15.5186 825 119.684 1321.28 452.589
965 0 52.1081 16.6001 865 122.926 1322.9 451.71
966 0 53.2981 16.0418 855 125.64 1323.49 447.098
967 0 58.2202 14.823 863 129.214 1326.01 449.66
968 0 60.0942 22.3316 1342 115.429 1327.3 448.324
969 0 59.1089 16.2243 959 130.064 1328.08 446.39
970 0 62.0878 14.6728 911 130.402 1328.24 451.338
971 0 66.0445 17.4276 1151 127.413 1328.62 448.366
972 0 68.3184 13.5103 923 134.976 1328.75 451.221
973 0 67.1777 13.7843 926 138.519 1327.87 444.907
974 0 70.1133 17.7712 1246 131.183 1326.86 449.873
975 0 74.1486 16.858 1250 135.594 1326.63 448.116
976 0 73.053 15.0028 1096 137.953 1325.38 445.428
977 0 75.0846 14.3438 1077 144.147 1323.67 447.628
978 0 82.1285 16.3403 1342 136.814 1322.69 446.291
979 1 43.0375 11.4087 491 140.725 1322.12 463.063
980 0 46.1512 15.0375 694 135.754 1320.23 461.638
981 0 43.0294 11.5038 495 140.937 1318.35 462.289
982 0 47.0247 11.8023 555 143.649 1317.14 458.914
983 0 47.1846 13.1611 621 137.594 1315.82 457.728
984 0 48.0592 15.3977 740 130.019 1315.11 456.282
985 0 52.3371 16.2791 852 127.16 1312.33 453.115
986 0 53.3659 14.26 761 130.852 1313.37 453.823
987 0 55.126 16.8886 931 125.637 1312.25 451.522
988 0 55.1556 15.701 866 126.088 1311.94 451.782
989 0 55.2015 13.2243 730 128.115 1312.34 449.311
990 0 58.2426 15.693 914 123.59 1311.7 446.518
991 0 61.2523 17.1259 1049 118.71 1312.1 444.762
992 0 61.1677 15.1387 926 122.111 1312.22 445.577
993 0 64.2869 20.1752 1297 113.072 1312.66 441.187
994 0 66.2825 16.0827 1066 124.038 1313.95 442.633
995 0 69.3408 18.9499 1314 118.381 1315.56 439.977
996 0 73.3859 15.8477 1163 125.902 1316.72 438.885
997 0 72.1881 15.5289 1121 124.307 1318.54 438.863
998 0 77.3667 16.7643 1297 123.27 1321.22 436.411
999 0 77.1761 17.5961 1358 124.074 1322.07 434.623
1000 0 82.1615 14.5202 1193 132.138 1323.21 435.638
1001 0 82.1278 16.7057 1372 135.534 1324.73 431.985
1002 0 85.2825 17.2251 1469 134.583 1325 433.816
1003 0 86.2097 14.9751 1291 139.078 1324.95 428.509
1004 0 90.2391 14.65 1322 130.588 1325.62 430.191
1005 0 93.1242 14.4001 1341 137.981 1326.4 434.306
1006 1 50.0582 10.328 517 136.76 1326.39 454.981
1007 0 49.0849 8.94368 439 142.417 1326.75 454.834
1008 0 55.1042 12.4129 684 135.427 1326.06 454.354
1009 0 57.3081 17.0133 975 134.315 1326.52 454.152
1010 0 60.3636 14.4458 872 140.193 1325.59 455.269
1011 0 60.2146 14.7971 891 138.563 1324.42 454.063
1012 0 60.2004 12.8571 774 146.415 1323.6 451.532
1013 0 65.2822 15.793 1031 138.126 1321.91 451.39
1014 0 69.2655 17.6567 1223 133.614 1320.41 449.954
1015 0 70.1911 15.6573 1099 139.12 1318.89 448.793
1016 0 73.1676 15.9633 1168 138.167 1316.47 447.604
1017 0 76.2277 15.047 1147 137.535 1315.73 444.115
1018 0 79.3955 15.7188 1248 136.642 1314.97 445.525
1019 0 80.1565 14.584 1169 138.751 1313.86 443.636
1020 0 84.3594 15.92 1343 136.216 1313.06 440.034
1021 0 87.158 16.2922 1420 135.242 1312.48 440.609
1022 0 89.3697 15.7548 1408 134.271 1312.35 438.585
1023 0 91.2355 16.6383 1518 132.511 1311.19 433.039
1024 1 45.1576 11.1831 505 138.354 1313.21 455.972
1025 0 47.0454 11.542 543 133.009 1312.48 451.902
1026 0 50.0518 11.9676 599 136.419 1313.49 454.866
1027 0 49.2659 13.4982 665 134.006 1313.01 455.974
1028 0 51.1071 13.2271 676 135.096 1314.66 455.286
1029 0 54.0915 14.8452 803 129.553 1315.98 452.66
1030 0 53.1044 14.4433 767 132.794 1317.42 451.901
1031 0 57.1317 15.228 870 130.057 1318.59 450.476
1032 0 58.1125 11.6154 675 138.964 1320.86 449.732
1033 0 58.1182 14.4017 837 134.223 1321.64 451.412
1034 0 61.1437 16.0278 980 131.305 1323.61 451.821
1035 0 62.1285 14.8402 922 133.677 1324.93 451.837
1036 0 64.1327 13.3785 858 137.707 1325.08 450.366
1037 0 65.1845 12.549 818 138.353 1326.24 451.554
1038 0 68.2021 14.3251 977 135.549 1325.5 450.615
1039 0 71.1936 14.3974 1025 136.929 1325.33 451.486
1040 0 75.1531 14.5836 1096 134.972 1325.07 451.99
1041 0 78.2878 15.7368 1232 133.818 1323.78 449.131
1042 1 39.047 9.32209 364 141.047 1324.22 466.382
1043 0 42.1888 12.7522 538 132.667 1320.89 468.08
1044 0 41.1026 6.52027 268 134.112 1319.63 466.485
1045 0 42.0472 9.22772 388 133.513 1319.14 463.791
1046 0 46.2141 13.1561 608 126.444 1316.39 458.947
1047 0 48.2584 10.7753 520 130.708 1314.71 457.979
1048 0 49.2143 12.2729 604 130.874 1314.48 461.808
1049 0 51.1006 11.8003 603 129.582 1313.05 461.697
1050 0 51.0893 13.9168 711 126.511 1311.5 460.567
1051 0 52.0529 11.6228 605 130.147 1310.09 459.82
1052 0 55.266 11.4356 632 128.728 1310.78 457.522
1053 0 53.2732 11.5443 615 128.431 1310.45 453.163
1054 0 57.0933 10.2639 586 126.52 1310.38 454.831
1055 0 60.0995 11.5974 697 125.874 1310.16 450.106
1056 0 62.1461 13.243 823 118.463 1309.69 445.79
1057 0 65.1016 11.8891 774 120.31 1310.34 445.795
1058 0 65.1632 12.3843 807 120.919 1310.07 440.591
1059 0 67.235 9.83119 661 125.29 1310.84 442.507
1060 0 69.1516 12.5811 870 121.411 1311.89 439.099
1061 0 72.142 12.8081 924 122.211 1312.62 439.003
1062 0 72.2999 12.8908 932 123.383 1313.67 436.486
1063 0 76.1313 11.4933 875 124.922 1314.86 438.106
1064 0 79.273 12.6273 1001 123.479 1315.61 437.975
1065 1 43.1565 11.9565 516 120.667 1319.38 456.18
1066 0 47.4046 12.5937 597 120.725 1320.51 451.111
1067 0 49.1617 9.11279 448 123.087 1322.11 452.516
1068 0 50.2416 11.0466 555 122.301 1322.74 448.423
1069 0 51.2527 12.5847 645 120.4 1323.88 449.402
1070 0 54.2049 12.2314 663 120.757 1325.26 447.24
1071 0 56.3884 11.4208 644 120.699 1325.66 453.138
1072 0 56.3307 11.681 658 125.106 1326.76 454.287
1073 0 59.1645 11.4089 675 125.175 1326.4 452.819
1074 0 59.4729 10.8621 646 129.045 1326.44 451.714
1075 0 62.1467 13.1141 815 128.282 1327.29 452.793
1076 0 64.379 12.3798 797 129.783 1326.17 450.462
1077 0 66.1388 11.9748 792 131.372 1325.37 453.968
1078 0 69.233 14.704 1018 127.981 1325.13 448.99
1079 0 69.3054 14.198 984 126.299 1323.73 450.039
1080 0 72.3676 13.39 969 128.801 1322.14 444.852
1081 0 76.2341 12.5272 955 129.463 1321.06 444.579
1082 1 37.1003 11.2937 419 129.019 1320.46 461.179
1083 0 41.1343 11.2801 464 126.772 1319.27 462.427
1084 0 39.0286 10.5051 410 128.829 1318.42 462.578
1085 0 44.268 12.0629 534 124.449 1316.89 459.169
1086 0 46.1332 14.198 655 120.224 1315.27 457.055
1087 0 46.1578 12.3056 568 120.055 1312.83 454.835
1088 0 47.0485 13.5392 637 118.361 1311.89 457.234
1089 0 46.1274 12.0752 557 123.047 1310.92 454.045
1090 0 49.3245 10.583 522 124.439 1310.95 452.232
1091 0 52.0623 10.449 544 124.542 1311.12 449.081
1092 0 53.2824 12.7434 679 119.82 1312.14 448.374
1093 0 53.0599 12.4953 663 119.733 1311.78 450.152
1094 0 55.0979 13.3036 733 118.757 1312.56 447.218
1095 0 57.1308 11.4649 655 121.901 1312.78 444.98
1096 0 58.1909 13.1464 765 122.061 1315.05 442.007
1097 0 60.3643 12.1595 734 121.012 1316.12 444.113
1098 0 64.2231 12.2386 786 119.288 1318.07 442.443
1099 0 65.2873 16.0981 1051 114.72 1320.33 437.694
1100 0 68.1083 12.7738 870 119.63 1321.54 437.14
1101 0 70.2054 13.4463 944 121.188 1322.9 442.936
1102 0 72.325 16.5503 1197 116.049 1325.51 438.559
1103 0 73.2046 13.4418 984 124.549 1326.38 437.954
1104 0 74.2204 10.9 809 129.07 1326.71 438.89
1105 0 80.1969 15.624 1253 120.244 1327.12 438.283
1106 1 42.0356 10.9669 461 124.839 1326.26 459.67
1107 0 40.0123 12.1463 486 127.506 1325.83 458.302
1108 0 47.2649 13.0753 618 123.157 1326.79 461.652
1109 0 47.1523 12.3854 584 125.709 1326.64 462.502
1110 0 48.6302 16.0189 779 120.619 1326.73 456.833
1111 0 51.5579 14.7019 758 124.154 1324.48 457.691
1112 0 50.0951 12.8156 642 128.09 1323.98 461.308
1113 0 53.242 16.378 872 122.022 1321.99 457.284
1114 0 53.1403 14.791 786 126.608 1320.83 460.258
1115 0 53.1791 14.3665 764 129.437 1318.83 460.267
1116 0 56.0823 14.1043 791 129.459 1317.08 460.924
1117 0 57.1867 14.4964 829 128.575 1315.38 458.788
1118 0 64.4421 19.5525 1260 115.829 1314.43 459.252
1119 0 63.3381 16.404 1039 124.031 1313.16 456.085
1120 0 65.4016 15.5042 1014 124.25 1312.87 455.61
1121 0 64.2452 12.4523 800 131.03 1311.97 451.781
1122 0 69.2608 15.1312 1048 123.983 1311.38 450.731
1123 0 68.295 14.9059 1018 126.481 1310.92 444.887
1124 0 71.2961 14.2925 1019 128.037 1309.9 448.576
1125 0 72.3311 13.1479 951 131.066 1309.95 446.797
1126 0 78.3257 15.6654 1227 123.354 1310.38 445.329
1127 1 38.0561 12.7706 486 128.393 1311.48 458.909
1128 0 42.0641 10.9119 459 132.412 1311.75 457.261
1129 0 41.0339 10.1623 417 139.317 1311.96 458.95
1130 0 46.146 12.6988 586 130.048 1312.72 458.16
1131 0 46.432 11.6084 539 135.501 1311.81 453.199
1132 0 49.2181 15.7665 776 125.879 1314.02 454.372
1133 0 47.2276 12.5139 591 138.821 1316.13 451.868
1134 0 50.1664 12.9968 652 135.092 1317.08 454.064
1135 0 51.2451 14.5185 744 131.391 1318.88 457.29
1136 0 54.1824 15.7062 851 130.637 1319.9 457.559
1137 0 53.0834 14.6562 778 137.028 1321 455.401
1138 0 52.1451 13.8076 720 140.712 1321.31 454.446
1139 0 58.127 14.3135 832 136.572 1321.29 457.21
1140 0 60.1076 16.0712 966 133.829 1321.43 456.889
1141 0 60.1832 14.0072 843 140.814 1320.98 454.06
1142 0 59.0695 13.9158 822 142.491 1320.21 454.296
1143 0 65.1761 14.5605 949 138.693 1319.89 455.476
1144 0 68.1615 15.8447 1080 135.675 1318.06 454.507
1145 0 67.1574 13.6545 917 142.315 1316.68 451.654
1146 0 70.1273 13.1475 922 142.307 1314.77 453.77
1147 0 75.1199 15.442 1160 135.198 1313.88 451.641
1148 0 76.306 15.4247 1177 135.372 1311.81 448.41
1149 0 78.0878 15.3673 1200 134.482 1311.16 443.375
1150 1 41.189 8.2789 341 144.018 1309.09 462.575
1151 0 40.0516 11.1856 448 138.004 1308.31 463.571
1152 0 44.0423 11.4436 504 143.234 1307.15 459.718
1153 0 45.0678 7.69951 347 146.176 1306.16 459.277
1154 0 47.2743 11.3592 537 137.628 1306.33 457.903
1155 0 46.0832 12.0868 557 141.111 1306.67 453.883
1156 0 48.1314 11.0323 531 138.972 1306.87 455.416
1157 0 49.2164 11.7237 577 139.534 1307.19 450.468
1158 0 51.2169 16.2251 831 132.829 1307.91 447.229
1159 0 54.2469 12.9224 701 137.312 1308.15 445.638
1160 0 56.2086 14.4284 811 134.17 1308.86 445.428
1161 0 56.1812 13.0649 734 137.794 1309.84 445.113
1162 0 59.1074 15.4803 915 130.906 1310.31 445.374
1163 0 61.0396 14.5316 887 130.218 1312.09 443.129
1164 0 61.0805 15.8479 968 128.896 1313.55 442.65
1165 0 65.0709 13.6774 890 134.427 1315.63 438.698
1166 0 64.061 12.7223 815 137.557 1317.37 439.48
1167 0 69.0926 14.6036 1009 133.941 1320.18 439.385
1168 0 72.1937 16.3172 1178 130.744 1321.19 438.881
1169 0 73.0895 15.1869 1110 133.448 1323.71 440.466
1170 0 76.1111 14.5577 1108 135.81 1323.12 440.212
1171 0 76.1531 13.2365 1008 141.171 1323.84 438.233
1172 0 83.1559 15.7054 1306 133.523 1324.18 437.841
1173 0 86.3214 18.4311 1591 128.498 1324.43 439.41
1174 1 45.1949 10.2667 464 141.323 1324.34 458.966
1175 0 46.1107 13.3592 616 137.675 1324.85 457.487
1176 0 48.2951 11.0156 532 140.539 1324.23 458.976
1177 0 48.1759 12.8487 619 138.246 1323.39 460.202
1178 0 52.3012 12.3898 648 139.773 1322.76 458.134
1179 0 53.1737 13.5405 720 136.617 1322.43 459.683
1180 0 56.0617 17.4451 978 128.743 1321.65 459.942
1181 0 57.1026 17.7575 1014 127.691 1320.8 457.416
1182 0 60.1786 16.4344 989 130.613 1319.17 456.176
1183 0 60.105 18.4178 1107 126.921 1317.93 455.332
1184 0 62.1109 14.8122 920 135.72 1316.62 452.562
1185 0 63.1544 15.7234 993 134.34 1314.61 451.386
1186 0 66.2593 15.1224 1002 135.419 1313.2 447.632
1187 0 71.0769 15.0682 1071 133.076 1312.66 448.83
1188 0 70.2027 16.9082 1187 132.189 1312.16 443.618
1189 0 72.0937 15.147 1092 135.842 1312.4 442.542
1190 0 73.1827 17.0122 1245 131.756 1311.37 441.361
1191 0 78.2144 14.8822 1164 133.565 1310.99 438.43
1192 0 79.2971 15.8896 1260 132.291 1311.69 435.319
1193 0 82.2284 13.9611 1148 134.713 1312.27 434.916
1194 0 85.4038 16.5449 1413 130.001 1312.69 430.706
1195 1 45.0399 11.8562 534 137.504 1315.16 451.537
1196 0 47.1598 11.7473 554 133.865 1316.73 453.143
1197 0 46.1068 10.4106 480 140.069 1317.9 446.919
1198 0 51.1596 13.7804 705 130.113 1319.3 446.349
1199 0 53.1447 12.7953 680 127.049 1320.29 448.765
1200 0 54.1641 13.9945 758 125.677 1321.39 445.426
1201 0 58.1886 14.9686 871 123.559 1323.05 446.188
1202 0 56.076 15.2115 853 125.801 1324.21 447.213
1203 0 61.0626 16.6059 1014 124.612 1325.25 447.201
1204 0 60.109 13.2925 799 132.075 1326.46 445.821
1205 0 59.0728 11.2912 667 137.583 1326.47 447.555
1206 0 64.201 13.6914 879 132.848 1326.83 444.547
1207 0 69.3268 19.5018 1352 119.953 1327.18 450.396
1208 0 71.281 17.1013 1219 127.587 1326.55 443.639
1209 0 73.3225 15.7114 1152 130.438 1326.77 448.781
1210 0 76.0838 18.2825 1391 127.61 1326.49 447.475
1211 0 79.3297 16.0469 1273 132.942 1325.36 445.682
1212 0 81.1966 14.8036 1202 138.522 1324.07 444.417
1213 0 83.3034 14.8133 1234 139.997 1322.51 444.9
1214 0 86.2906 14.9727 1292 140.281 1321.83 442.974
1215 0 87.1782 19.202 1674 134.038 1320.51 438.09
1216 1 45.1938 10.6209 480 144.302 1319.56 460.658
1217 0 51.3214 11.9833 615 140.493 1319.15 459.195
1218 0 48.2736 11.6006 560 143.464 1317.81 458.616
1219 0 54.376 12.6343 687 138.55 1316.21 457.703
1220 0 54.1289 14.1699 767 135.196 1314.26 457.037
1221 0 56.1893 13.8638 779 141.836 1312.31 453.798
1222 0 58.1183 14.849 863 137.547 1311.75 452.937
1223 0 61.1364 15.8989 972 127.996 1312.3 450.432
1224 0 63.1164 14.1802 895 133.217 1311.05 448.131
1225 0 65.2627 15.6598 1022 129.072 1312.39 444.47
1226 0 67.1683 15.5133 1042 129.818 1312.61 442.557
1227 0 69.2596 14.2074 984 134.568 1313.05 441.817
1228 0 70.144 13.0018 912 137.622 1313.1 440.198
1229 0 77.3988 16.8995 1308 128.039 1314.48 437.284
1230 0 78.2024 16.8281 1316 130.141 1316.4 436.847
1231 0 81.3578 17.7611 1445 127.677 1317.18 437.297
1232 0 82.2536 15.3063 1259 133.801 1319.41 436.353
1233 0 85.2285 15.8398 1350 134.267 1321.74 434.967
1234 0 87.526 15.5954 1365 135.721 1323.35 433.681
1235 0 90.1204 18.8526 1699 130.691 1324.56 433.388
1236 0 92.2076 16.2351 1497 140.029 1325.49 432.129
1237 1 48.0812 11.9589 575 142.07 1327.58 456.908
1238 0 52.1477 8.43757 440 144.87 1327.57 458.395
1239 0 57.0661 11.8634 677 141.487 1327.83 456.431
1240 0 56.0624 11.7904 661 142.56 1327.6 459.071
1241 0 60.0403 13.7075 823 140.519 1326.9 456.04
1242 0 58.1085 10.8246 629 148.226 1326.52 457.126
1243 0 64.2608 15.7639 1013 139.541 1324.35 455.308
1244 0 66.0362 18.2779 1207 134.876 1322.84 455.867
1245 0 68.0689 15.3374 1044 141.239 1321.51 453.4
1246 0 70.0824 14.9824 1050 139.13 1320.83 453.961
1247 0 72.1323 14.002 1010 139.769 1319.36 455.217
1248 0 74.0603 15.2848 1132 140.102 1318.04 450.855
1249 0 79.0855 15.0091 1187 138.617 1316.19 451.441
1250 0 80.2169 15.4082 1236 138.514 1314.92 448.037
1251 0 85.169 15.7334 1340 137.83 1313.77 445.031
1252 0 86.1468 16.0888 1386 136.314 1313.06 445.509
1253 0 89.0779 16.087 1433 135.378 1312.2 444.242
1254 0 92.1674 13.2368 1220 141.053 1311.31 442.677
1255 0 91.2136 12.9257 1179 145.136 1311.46 436.183
1256 0 94.2438 15.2265 1435 138.846 1310.79 433.227
1257 1 51.0826 11.5303 589 140.431 1309.53 457.489
1258 0 52.0492 12.0463 627 139.439 1309.56 455.903
1259 0 54.069 10.0057 541 141.512 1308.78 455.05
1260 0 57.1773 13.0821 748 139.194 1309 449.515
1261 0 60.0463 12.89 774 139.574 1308.44 449.332
1262 0 61.0333 15.0246 917 135.899 1309.77 449.315
1263 0 62.1252 15.9034 988 134.701 1309.93 446.464
1264 0 65.1059 13.24 862 140.933 1312.15 446.773
1265 0 65.1474 15.7182 1024 138.362 1313.33 444.617
1266 0 69.0591 14.1473 977 141.207 1315.36 444.013
1267 0 69.0957 14.9213 1031 140.863 1317.27 439.966
1268 0 73.0838 15.2838 1117 139.715 1318.66 441.498
1269 0 73.033 14.0074 1023 143.873 1319.98 440.447
1270 0 78.0432 16.273 1270 136.475 1320.98 444.862
1271 0 79.0913 15.2356 1205 138.964 1322.48 444.692
1272 0 82.0783 16.1797 1328 137.83 1322.53 440.891
1273 0 82.1394 15.3398 1260 140.76 1322.4 441.637
1274 0 88.1146 14.2769 1258 142.657 1322.53 440.147
1275 0 90.2026 17.1725 1549 136.303 1322.61 442.256
1276 0 91.2143 13.7149 1251 142.201 1321.51 442.496
1277 1 52.0749 10.965 571 141.751 1320.75 463.075
1278 0 52.1359 9.95475 519 143.628 1319.17 462.857
1279 0 55.1282 12.4256 685 139.968 1317.54 461.391
1280 0 58.2642 14.6745 855 132.216 1317.8 460.835
1281 0 60.2423 13.1137 790 133.463 1316.47 457.514
1282 0 61.3504 14.8002 908 131.119 1315.27 454.746
1283 0 63.2065 13.2265 836 135.394 1314.2 454.177
1284 0 66.166 12.9372 856 135.595 1313.05 455.557
1285 0 67.0795 15.7723 1058 130.019 1312.32 454.283
1286 0 71.1698 17.114 1218 127.334 1311.5 451.684
1287 0 72.1564 15.0091 1083 131.926 1310.87 450.74
1288 0 74.2616 13.7891 1024 132.812 1309.89 452.614
1289 0 75.179 16.1747 1216 129.484 1309.44 447.582
1290 0 76.2166 14.0783 1073 133.437 1309.68 446.028
1291 0 77.1627 13.0503 1007 138.304 1308.64 443.37
1292 0 83.2187 16.9073 1407 127.259 1308.65 444.974
1293 0 82.1964 14.3559 1180 133.17 1309.13 442.295
1294 0 86.1992 13.9676 1204 133.536 1309.4 440.607
1295 0 89.3013 15.1845 1356 131.226 1309.66 437.93
1296 0 92.0971 13.6269 1255 136.582 1310.95 434.632
1297 0 96.1973 16.6117 1598 129.988 1311.73 432.273
1298 0 97.262 15.5559 1513 134.74 1312.69 427.531
1299 1 54.1263 12.2676 664 134.556 1315.16 453.482
1300 0 58.1549 12.6731 737 130.794 1315.92 455.311
1301 0 57.1246 12.9716 741 135.287 1316.66 449.772
1302 0 60.2323 10.8082 651 131.346 1318.3 447.988
1303 0 63.0634 12.9076 814 129.474 1318.03 451.548
1304 0 64.031 14.7741 946 126.734 1318.46 451.146
1305 0 66.0543 12.2929 812 131.511 1319.79 448.982
1306 0 70.1456 14.1563 993 128.068 1319.56 447.673
1307 0 69.1183 11.0535 764 134.979 1318.68 449.634
1308 0 75.132 13.8689 1042 130.619 1318.76 445.2
1309 0 78.1039 15.1977 1187 128.808 1319.09 445.479
1310 0 79.1251 14.5845 1154 130.89 1318.6 444.572
1311 0 82.1335 14.9756 1230 131.227 1318.08 445.346
1312 0 84.1386 13.7511 1157 135.01 1316.18 444.271
1313 0 89.1348 14.4051 1284 133.559 1315.32 443.389
1314 0 92.1836 13.7877 1271 134.177 1314.43 443.825
1315 0 94.1543 16.4942 1553 129.95 1312.26 443.482
1316 0 98.1807 14.9928 1472 134.702 1311.88 440.923
1317 1 52.06 14.637 762 130.445 1311.38 463.672
1318 0 55.0521 13.242 729 130.801 1309.5 462.778
1319 0 55.0778 13.4537 741 134.88 1308.45 456
1320 0 57.0731 12.3876 707 135.723 1307.39 456.89
1321 0 58.1626 12.9121 751 136.266 1306.55 452.037
1322 0 59.2781 13.9343 826 132.551 1307.58 451.436
1323 0 62.1918 14.9537 930 129.124 1307.02 449.766
1324 0 63.1687 15.3874 972 129.359 1306.75 446.539
1325 0 67.3749 15.5102 1045 127.136 1307.12 447.5
1326 0 70.1459 15.0116 1053 129.442 1307.43 442.904
1327 0 69.3476 13.7424 953 133.035 1307.62 441.257
1328 0 69.2758 13.8143 957 134.109 1307.87 440.839
1329 0 75.3461 12.3961 934 134.448 1309.49 443.347
1330 0 77.3255 17.4716 1351 127.086 1310.24 439.98
1331 0 78.2698 13.5684 1062 138.013 1312.32 436.911
1332 0 84.2538 14.3376 1208 134.246 1313.71 437.959
1333 1 47.1157 12.204 575 134.988 1316.09 456.172
1334 0 50.1238 13.4667 675 133.71 1317.46 455.136
1335 0 50.1115 12.0731 605 136.172 1317.24 453.337
1336 0 48.1193 13.903 669 135.662 1318.45 451.683
1337 0 48.0585 9.59248 461 136.291 1318.77 458.167
1338 0 50.0372 10.8719 544 140.518 1320.63 455.583
1339 0 51.0625 12.1224 619 137.535 1321.17 454.446
1340 0 52.0876 9.33044 486 144.529 1320.84 456.679
1341 0 54.079 15.7177 850 133.046 1321.15 456.014
1342 0 57.3589 14.1216 810 135.405 1321.7 455.165
1343 0 60.2861 15.9075 959 132.555 1321.42 452.796
1344 0 59.1119 15.1239 894 135.95 1320.89 456.327
1345 0 62.0788 14.2561 885 136.123 1319.53 456.18
1346 0 65.0653 14.1858 923 136.798 1318.64 453.614
1347 0 67.0994 14.0538 943 137.495 1317.04 452.075
1348 0 69.2056 15.1866 1051 136.179 1315.96 451.044
1349 0 71.0867 16.2337 1154 132.12 1313.71 449.91
1350 0 75.279 18.3185 1379 125.764 1313.13 449.708
1351 0 76.3708 16.6556 1272 128.97 1312.3 447.763
1352 0 76.2722 14.6711 1119 135.866 1311.03 446.321
1353 0 80.1169 13.8423 1109 134.968 1310.16 446.628
1354 0 84.2989 17.3312 1461 125.289 1309.43 443.739
1355 0 86.1709 18.3705 1583 122.784 1308.51 439.273
1356 0 86.2252 16.051 1384 128.298 1308.24 436.414
1357 0 92.2803 17.5986 1624 123.72 1308.51 437.563
1358 0 92.3063 15.7086 1450 127.47 1308.1 434.273
1359 0 95.3074 17.3963 1658 122.581 1307.64 429.363
1360 0 96.3303 15.478 1491 125.517 1307.77 430.327
1361 0 101.469 19.4936 1978 118.315 1308.29 424.299
1362 0 104.385 15.414 1609 124.262 1308.66 423.354
1363 0 107.394 15.8482 1702 127.28 1310.03 422.706
1364 1 59.2397 14.5173 860 123.459 1310.83 444.719
1365 0 59.2147 11.281 668 130.817 1312.95 446.001
1366 0 62.2294 11.9879 746 136.22 1314.24 446.835
1367 0 67.2868 14.9212 1004 128.979 1316.87 446.399
1368 0 70.1816 14.7902 1038 130.546 1318.66 444.944
1369 0 72.2485 18.1734 1313 125.376 1318.59 443.036
1370 0 73.5026 14.0267 1031 134.803 1320.33 445.092
1371 0 76.442 15.3188 1171 137.882 1321.27 441.069
1372 0 78.3676 15.4401 1210 136.364 1321.51 443.515
1373 0 81.1602 16.5106 1340 135.561 1321.46 441.841
1374 0 82.2066 15.7652 1296 138.543 1320.58 437.502
1375 0 85.2963 15.5106 1323 139.983 1320.73 438.222
1376 0 88.1633 14.7227 1298 142.106 1321.2 440.324
1377 0 91.2606 13.4341 1226 144.161 1320.83 440.449
1378 0 94.2527 13.1455 1239 145.429 1320.12 437.489
1379 0 97.2902 14.5852 1419 139.583 1318.28 437.982
1380 1 51.1145 11.2493 575 142.301 1316.5 460.381
1381 0 51.0924 11.9 608 140.368 1315.81 460.982
1382 0 54.129 8.77533 475 146.032 1313.28 460.773
1383 0 56.1319 9.63802 541 145.237 1312.11 458.281
1384 0 60.0391 14.5072 871 138.889 1311.14 453.991
1385 0 60.124 13.0065 782 142.285 1310.58 450.271
1386 0 63.2482 14.7514 933 138.791 1309.54 448.717
1387 0 67.1029 15.2452 1023 135.592 1308.33 447.198
1388 0 66.1652 15.5066 1026 135.157 1307.58 447.49
1389 0 73.1816 15.605 1142 132.065 1308.04 444.532
1390 0 74.3158 16.8336 1251 130.404 1307.87 442.677
1391 0 74.4039 12.7681 950 138.638 1307.39 438.767
1392 0 77.2152 14.8805 1149 135.559 1307.77 440.931
1393 0 81.2737 14.9987 1219 133.284 1309.02 438.194
1394 0 84.358 17.4731 1474 129.396 1309.07 434.168
1395 0 87.4014 16.8876 1476 129.049 1309.97 432.15
1396 0 90.6419 15.1916 1377 131.42 1310.76 432.333
1397 0 93.3404 22.6697 2116 116.115 1311.93 437.877
1398 0 94.5749 14.1052 1334 136.292 1313.87 428.342
1399 0 98.7096 15.966 1576 132.15 1315.9 428.135
1400 0 102.437 16.4199 1682 132.059 1317.77 427.497
1401 0 108.558 19.2247 2087 125.878 1319.62 428.144
1402 0 107.392 14.6845 1577 137.592 1321.42 424.559
1403 1 57.3737 8.90652 511 137.317 1322.15 456.08
1404 0 61.3951 11.7599 722 136.202 1322.57 452.012
1405 0 63.4214 12.5352 795 136.922 1323.01 450.337
1406 0 65.2243 10.6095 692 137.13 1324.59 452.314
1407 0 68.2214 11.8438 808 132.984 1323.75 450.986
1408 0 70.113 13.0361 914 133.172 1323.27 453.868
1409 0 75.2009 13.8828 1044 130.951 1323.35 454.433
1410 0 75.2919 12.8699 969 136.391 1322.18 451.616
1411 0 81.1634 15.6351 1269 127.552 1321.43 452.886
1412 0 83.2498 16.6006 1382 129.614 1319.82 448.882
1413 0 86.1358 16.207 1396 129.691 1318.18 452.413
1414 0 87.3109 16.3897 1431 132.658 1317.03 447.512
1415 0 87.1204 12.2589 1068 142.43 1314.1 446.599
1416 0 86.1205 12.8541 1107 152.397 1312.1 445.94
1417 0 97.1644 13.1838 1281 138.136 1313.02 444.803
1418 0 96.2 12.7963 1231 140.089 1311.28 442.492
1419 1 49.1671 14.1151 694 129.349 1311.05 466.638
1420 0 52.1617 11.8861 620 133.937 1309.48 464.813
1421 0 52.1617 11.7519 613 141.498 1307.48 464.768
1422 1 63.2779 9.27654 587 134.247 1308.9 463.731
1423 0 53.1836 12.0714 642 135.335 1308.26 458.805
1424 0 58.2675 13.3865 780 129.449 1307.86 458.524
1425 0 57.365 12.6384 725 135.215 1307.95 454.35
1426 0 59.3152 11.2619 668 135.311 1308.88 454.629
1427 0 60.1268 13.4549 809 128.65 1308.78 448.392
1428 0 59.2785 12.7702 757 131.658 1308.83 447.016
1429 0 66.0985 13.5101 893 128.386 1310.19 448.585
1430 0 64.1819 14.0538 902 132.299 1310.82 450.766
1431 0 67.3292 12.1047 815 138.523 1312.18 444.526
1432 0 70.0634 11.1756 783 139.201 1313.64 447.886
1433 0 71.1501 12.2698 873 140.868 1315.12 443.75
1434 0 72.4112 13.0919 948 135.972 1316.93 446.096
1435 0 78.1258 16.755 1309 128.81 1318.28 442.21
1436 0 80.1527 14.8591 1191 132.552 1320.06 439.908
1437 0 83.0921 17.1376 1424 129.454 1319.36 440.249
1438 0 86.1944 15.9639 1376 132.053 1319.67 444.394
1439 0 87.082 12.8959 1123 139.443 1320.07 442.886
1440 0 91.1221 13.7508 1253 136.889 1320.1 443.117
1441 0 92.1473 13.7497 1267 137.385 1320.04 444.556
1442 0 97.2288 14.4607 1406 136.947 1319.49 438.129
1443 0 100.133 14.7504 1477 136.715 1318.65 438.342
1444 0 104.151 13.5284 1409 136.642 1318.58 437.989
1445 0 107.468 14.8137 1592 136.52 1317.29 436.698
1446 0 111.148 14.2512 1584 138.526 1315.41 432.342
1447 0 113.276 12.0237 1362 143.434 1314.27 431.869
1448 0 120.441 16.4811 1985 131.552 1312.77 434.461
1449 0 122.333 15.3433 1877 135.918 1311.1 423.862
1450 0 130.251 14.5488 1895 136.993 1310.24 429.21
1451 0 131.228 15.4235 2024 133.343 1309.29 427.727
1452 0 137.281 13.5343 1858 137.728 1308.52 421.003
1453 0 139.377 14.7012 2049 135.845 1307.95 420.529
1454 0 146.703 16.9799 2491 131.72 1307.32 413.955
1455 0 150.293 16.3548 2458 131.904 1307.42 413.823
1456 0 153.724 15.6579 2407 133.134 1307.4 405.741
1457 0 159.506 16.1749 2580 130.235 1307.18 407.237
1458 0 162.704 14.1546 2303 134.397 1307.01 396.301
1459 1 80.3455 10.3677 833 131.508 1307.81 442.158
1460 0 79.1597 10.9652 868 131.644 1307.95 437.607
1461 0 86.1866 12.5077 1078 134.581 1307.6 436.661
1462 0 86.2693 12.8783 1111 133.716 1307.93 432.92
1463 0 89.1979 13.9017 1240 132.757 1309.43 426.242
1464 0 96.3054 15.077 1452 128.584 1310.64 422.372
1465 0 97.26 13.1503 1279 133.921 1312.8 409.286
1466 0 101.14 13.8619 1402 135.063 1315.09 410.988
1467 0 104.266 17.1772 1791 125.313 1316.62 414.467
1468 0 106.302 14.3272 1523 135.074 1318.99 411.119
1469 0 110.273 18.164 2003 130.256 1320.53 416.319
1470 0 113.55 18.4237 2092 131.901 1321.87 423.641
1471 0 117.302 13.7509 1613 141.474 1323.76 427.526
1472 0 120.509 14.8121 1785 138.604 1324.45 428.508
1473 0 122.339 15.2037 1860 141.536 1324.5 427.252
1474 0 127.252 15.0017 1909 143.098 1324.81 424.631
1475 0 130.253 14.7712 1924 145.334 1324.75 424.122
1476 0 135.366 15.3509 2078 145.507 1324.62 421.628
1477 0 140.463 19.6921 2766 137.965 1323.88 420.124
1478 0 141.376 15.9504 2255 148.983 1323.1 418.536
1479 0 144.305 15.5504 2244 150.717 1321.91 418.09
1480 0 149.233 14.9632 2233 154.06 1320.42 415.693
1481 0 152.234 17.9198 2728 147.446 1319.39 418.089
1482 0 153.246 16.2288 2487 154.559 1317.9 412.131
1483 0 156.29 16.1366 2522 155.97 1316.96 412.086
1484 0 158.294 15.01 2376 159.346 1315.89 408.073
1485 0 165.352 15.5607 2573 155.834 1314.91 408.381
1486 0 167.389 17.6177 2949 149.862 1313.78 399.157
1487 0 170.301 16.2124 2761 156.372 1312.64 403.449
1488 0 171.553 16.4556 2823 158.866 1312.02 392.011
1489 0 176.508 16.0673 2836 158.029 1310.87 390.356
1490 0 179.561 15.2929 2746 159.583 1310.53 388.398
1491 0 178.405 15.1173 2697 162.754 1310.56 383.033
1492 0 184.535 17.3137 3195 155.414 1310.59 381.2
1493 0 187.502 16.4798 3090 160.08 1310.32 380.093
1494 0 193.178 19.9143 3847 150.511 1310.6 380.508
1495 0 195.428 18.2062 3558 157.078 1311.16 378.173
1496 0 198.394 19.4159 3852 152.717 1311.91 376.779
1497 0 200.315 18.6805 3742 153.286 1312.31 374.083
1498 0 202.478 17.4389 3531 157.604 1313.94 379.207
1499 0 206.363 19.5287 4030 150.884 1315.83 374.305
1500 0 207.675 17.8982 3717 155.096 1317.32 372.262
1501 0 213.594 19.4668 4158 150.107 1318.7 370.451
1502 0 214.782 18.1859 3906 151.627 1320.58 373.178
1503 0 218.469 20.9824 4584 146.649 1321.93 371.315
1504 0 217.679 19.0464 4146 153.811 1323.21 369.183
1505 0 224.638 20.0323 4500 153.29 1323.85 369.53
1506 0 224.599 19.3545 4347 156.439 1324.69 369.84
1507 0 226.554 17.9074 4057 163.17 1324.6 369.943
1508 0 228.701 19.7113 4508 159.669 1324.58 371.194
1509 0 233.674 20.7554 4850 160.865 1324.27 359.518
1510 0 236.532 20.1707 4771 164.822 1324.43 361.327
1511 0 237.503 17.4608 4147 178.382 1323.73 359.852
1512 0 241.534 18.5771 4487 175.694 1322.43 365.197
