time division length width area intensity CMx CMy
0 0 89.5107 25.3936 2273 125.368 1121.31 431.684
1 0 87.3602 22.5961 1974 127.997 1121.53 434.06
2 0 87.3602 22.5961 1974 127.716 1121.53 434.06
3 0 87.3602 22.5961 1974 127.6 1121.53 434.06
4 0 87.3602 22.5961 1974 127.541 1121.53 434.06
5 1 100.788 17.77 1791 117.118 1124.54 436.448
6 0 101.286 24.5739 2489 114.227 1124.59 430.386
7 0 104.239 22.7841 2375 114.504 1123.84 433.104
8 1 57.5245 11.8384 681 118.687 1123.78 451.764
9 0 58.3981 15.4115 900 108.913 1118.7 458.699
10 0 62.2072 20.705 1288 111.313 1119.74 455.995
11 0 61.1397 17.2556 1055 116.952 1119.57 453.622
12 0 61.1318 17.8958 1094 115.993 1119.68 456.693
13 0 66.5669 20.1752 1343 116.426 1118.37 456.242
14 0 64.1556 16.9432 1087 125.446 1118.45 451.15
15 0 65.2091 15.4426 1007 141.63 1116.24 445.763
16 0 67.1824 16.6264 1117 144.133 1115.2 447.747
17 0 67.162 14.8745 999 151.557 1113.28 446.416
18 0 69.1364 14.4352 998 152.821 1112.54 444.141
19 0 71.2096 13.5937 968 157.158 1111.46 441.381
20 0 77.1774 17.5051 1351 144.231 1111.1 441.283
21 0 79.0856 17.715 1401 144.283 1109.42 440.419
22 0 80.0805 17.0828 1368 148.235 1108.41 436.165
23 0 83.1301 13.1 1089 158.808 1108.39 433.247
24 0 86.1791 14.4118 1242 155.293 1108.32 432.076
25 1 46.091 11.4773 529 155.792 1107.95 450.637
26 0 49.1804 11.834 582 151.471 1108.75 449.789
27 0 50.1265 12.8475 644 148.995 1108.93 448.351
28 0 52.0488 13.91 724 144.278 1109.3 445.999
29 0 54.1399 15.3307 830 131.576 1110.46 446.748
30 0 54.0591 13.4112 725 134.681 1109.12 447.171
31 0 59.643 16.9844 1013 121.446 1112.7 446.075
32 0 58.2672 16.2355 946 119.897 1111.43 447.874
33 0 65.9939 18.2138 1202 111.527 1114.16 450.942
34 0 62.9198 20.0732 1263 109.108 1115.27 450.827
35 0 67.2344 28.7799 1935 105.903 1116.62 444.02
36 0 67.2634 22.6869 1526 108.192 1118.22 447.232
37 0 66.4938 18.7386 1246 111.738 1118.58 445.701
38 0 63.1911 24.2123 1530 106.19 1118.89 453.17
39 0 68.6797 18.9139 1299 107.587 1118.37 454.457
40 0 73.3592 21.9741 1612 109.066 1118.66 448.565
41 0 73.2814 27.7287 2032 106.996 1118.74 447.735
42 0 79.0134 26.5778 2100 107.632 1118 448.432
43 0 84.4848 21.3293 1802 114.689 1117.28 446.33
44 0 81.2926 16.3852 1332 129.496 1116.92 445.889
45 0 83.2784 16.3308 1360 134.774 1116.58 445.757
46 1 43.0926 13.0649 563 138.687 1115.54 464.011
47 0 47.34 10.3929 492 145.967 1114.96 461.671
48 0 46.2377 10.5974 490 148.686 1111.59 461.545
49 0 46.0388 12.2505 564 151.454 1110.09 461.291
50 0 45.0469 12.4981 563 141.92 1108.09 461.231
51 0 47.1352 11.4564 540 156.707 1108.03 458.411
52 0 50.0901 13.316 667 150.91 1109.35 457.943
53 0 52.3245 14.1999 743 148.517 1108.22 453.847
54 0 54.536 15.9528 870 142.849 1106.39 452.083
55 0 57.1876 16.2273 928 141.222 1105.77 450.562
56 0 57.187 15.4406 883 140.737 1105.93 449.622
57 0 59.2944 17.2698 1024 132.995 1105.54 448.754
58 0 60.3071 17.0295 1027 122.496 1104.55 448.896
59 0 62.2617 14.8727 926 138.794 1104.87 444.99
60 0 62.4219 13.9214 869 141.747 1105.01 441.902
61 0 66.3468 14.2283 944 142.123 1105.2 442.246
62 0 66.2304 15.0384 996 138.672 1106.32 444.277
63 0 69.314 13.5182 937 142.701 1107.62 438.03
64 0 71.2426 13.3909 954 142.396 1109.64 439.781
65 0 71.1966 13.1748 938 140.18 1111.14 438.855
66 0 75.1235 13.8439 1040 135.6 1112.51 437.125
67 0 78.2699 13.6195 1066 124.433 1114.64 431.511
68 0 86.4077 12.5568 1085 119.492 1116.39 437.876
69 0 83.2911 15.776 1314 116.913 1117.24 437.167
70 0 90.7369 18.3057 1661 114.597 1117.72 426.964
71 0 95.6441 19.3948 1855 110.213 1118.62 439.115
72 1 53.2258 20.7794 1106 100.074 1119.48 462.788
73 0 54.0897 14.6608 793 107.943 1118.93 458.866
74 0 54.117 15.3002 828 109.2 1119.79 456.716
75 0 53.3424 14.0976 752 107.872 1119 456.198
76 0 53.1493 10.6304 565 114.354 1118.58 458.995
77 0 54.3053 11.6195 631 117.458 1116.43 460.727
78 0 58.2896 16.0406 935 117.93 1114.68 457.473
79 0 58.1879 14.0923 820 123.428 1113.78 455.876
80 0 57.0599 11.1637 637 128.397 1112.78 456.653
81 0 58.1156 10.4275 606 136.751 1111.01 452.038
82 0 58.1156 10.4619 608 130.201 1109.01 451.993
83 0 65.1375 8.6279 562 138.062 1108.76 454.454
84 0 67.0945 15.5602 1044 128.423 1106.15 451.784
85 0 68.0632 14.0898 959 133.883 1104.55 447.683
86 0 71.1998 13.5394 964 135.702 1103.33 447.321
87 0 72.1259 12.6307 911 136.974 1102.87 444.355
88 0 74.0697 13.4603 997 135.94 1102.42 443.843
89 0 77.1118 13.4739 1039 137.947 1102.1 442.563
90 0 81.2173 14.6028 1186 134.119 1102.12 439.358
91 0 84.079 16.1872 1361 131.323 1101.72 438.364
92 0 85.1574 14.1503 1205 138.521 1101.88 436.226
93 0 83.1364 13.5199 1124 140.198 1101.74 434.752
94 0 94.1207 16.3832 1542 133.717 1102.1 433.417
95 0 90.5543 14.102 1277 140.161 1102.52 426.527
96 0 95.2319 14.869 1416 140.481 1103.51 427.367
97 0 100.508 17.2325 1732 130.388 1104.99 423.156
98 0 100.497 17.2841 1737 136.884 1105.97 423.282
99 0 106.648 14.6744 1565 130.885 1107.31 422.988
100 0 109.572 12.0925 1325 122.46 1110.73 424.609
101 1 61.7678 13.4212 829 107.626 1113.25 445.546
102 0 61.3055 12.2338 750 109.2 1113.73 446.357
103 0 63.7249 18.5014 1179 103.339 1114.95 451.076
104 0 63.1825 22.3638 1413 104.05 1115.65 447.101
105 0 71.2178 14.8558 1058 103.384 1115.72 456.994
106 0 70.2919 17.911 1259 104.257 1116.92 454.764
107 0 71.3344 24.252 1730 103.475 1116.57 450.562
108 0 83.8554 21.5609 1808 103.921 1115.78 452.157
109 0 77.2248 23.0884 1783 103.711 1115.08 455.907
110 0 84.5031 18.5319 1566 112.628 1114.48 446.494
111 0 84.6821 21.1024 1787 113.573 1114.52 443.895
112 0 84.3396 24.4251 2060 110.373 1113.63 450.956
113 0 89.3601 19.7515 1765 123.026 1113.16 442.284
114 0 88.2867 14.6228 1291 133.983 1113.37 439.744
115 0 93.2761 15.5881 1454 135.855 1111.46 439.549
116 1 49.1238 9.89337 486 139.914 1111.32 458.551
117 0 51.2788 12.9878 666 131.146 1110.52 461.09
118 0 51.1378 11.3615 581 141.394 1108.33 460.355
119 0 55.089 13.3057 733 132.473 1106.78 460.948
120 0 54.2508 12.9399 702 139.611 1104.26 458.689
121 0 55.2718 14.4016 796 136.009 1102.76 454.597
122 0 58.1804 12.9941 756 144.234 1102.72 452.122
123 0 58.2231 13.9979 815 142.172 1102.19 449
124 0 64.2077 11.9768 769 145.17 1102.71 449.367
125 0 64.088 12.6857 813 145.074 1102.47 447.513
126 0 68.3884 13.3063 910 142.267 1102.34 448.516
127 0 67.1964 14.8669 999 140.752 1101.51 443.67
128 0 66.1092 13.5685 897 145.019 1101.51 443.512
129 0 73.1084 11.7634 860 144.265 1102.68 444.528
130 0 71.1328 11.8089 840 145.606 1103.83 437.426
131 0 75.1692 15.6447 1176 134.366 1106.15 440.194
132 0 80.2453 19.1164 1534 122.594 1106.2 444.317
133 0 81.195 13.6708 1110 129.012 1108.99 440.771
134 1 49.4107 12.6491 625 125.722 1111.58 456.982
135 0 49.4107 12.6491 625 146.437 1113.6 457.163
136 0 54.411 10.5493 574 122.664 1114.11 456.648
137 0 49.4174 14.3877 711 114.443 1115.16 459.654
138 0 51.442 14.5795 750 116.365 1115.86 454.36
139 0 52.2834 13.8859 726 116.273 1115.27 459.764
140 0 54.4844 13.0129 709 121.68 1114.58 459.348
141 0 56.4045 20.6012 1162 109.812 1113.63 464.517
142 0 56.4037 14.7685 833 123.604 1114.25 459.371
143 0 58.2756 14.2084 828 124.732 1114.17 461.083
144 0 56.1935 11.9587 672 138.582 1112.64 459.113
145 0 61.2857 14.979 918 133.041 1111.8 458.103
146 0 61.2857 14.9953 919 119.023 1111.79 458.187
147 0 63.2007 11.5505 730 140.581 1111.31 455.115
148 0 63.2007 11.5663 731 131.393 1110.33 455.228
149 0 66.2085 12.8533 851 140.592 1108.79 451.199
150 0 67.2093 11.9031 800 142.169 1106.53 450.864
151 0 71.2733 14.9285 1064 137.429 1105.15 450.68
152 0 74.3312 15.7942 1174 131.935 1104.07 454.652
153 0 72.1852 11.6644 842 143.248 1102.39 446.542
154 0 72.1883 11.6778 843 137.472 1101.38 446.432
155 0 80.3853 13.7961 1109 141.238 1100.44 444.326
156 1 43.0722 11.1209 479 146.896 1100.58 462.699
157 0 41.0433 7.69918 316 147.991 1101.45 464.263
158 0 45.1468 10.0561 454 147.284 1100.77 460.577
159 0 45.061 11.1626 503 142.952 1100.17 459.837
160 0 49.1016 12.3418 606 136.604 1100.17 458.644
161 0 48.0685 10.1314 487 144.154 1101.32 455.698
162 0 50.0986 13.2738 665 135.089 1100.89 453.833
163 0 54.0688 11.7073 633 136.047 1100.8 452.477
164 0 57.1412 17.1155 978 120.894 1101.37 453.925
165 0 55.3433 14.1842 785 124.639 1103.23 449.819
166 0 55.3433 14.2023 786 128.011 1106.18 449.855
167 0 63.0468 14.0531 886 117.076 1106.09 451.238
168 0 61.4285 14.6837 902 117.016 1108.19 447.938
169 0 61.7299 16.8638 1041 112.993 1110.09 452.097
170 0 66.556 17.1134 1139 108.537 1111.73 459.061
171 0 66.556 17.1284 1140 115.783 1112.72 459.095
172 1 137.829 18.1021 2495 120.337 1112.86 416.796
173 1 70.5698 16.0267 1131 116.577 1114.01 448.332
174 0 73.6197 25.5638 1882 108.28 1114.22 452.903
175 0 79.5674 19.5055 1552 114.296 1114.21 448.822
176 0 74.3643 17.5487 1305 117.064 1113.55 453.294
177 0 78.2619 15.167 1187 122.329 1113.19 449.652
178 0 80.612 15.6056 1258 121.209 1112.56 453.723
179 0 90.4994 20.0554 1815 116.053 1112.44 453.337
180 0 85.3457 19.5558 1669 122.12 1110.87 449.313
181 0 86.2678 13.5972 1173 134.457 1109.62 446.621
182 0 86.2678 13.6899 1181 155.736 1108.6 446.628
183 1 50.077 10.5238 527 137.918 1108.71 464.831
184 0 48.2315 9.62027 464 143.562 1106.94 462.502
185 0 52.2156 14.0188 732 136.638 1105.06 459.783
186 0 53.2268 16.1009 857 132.795 1103.49 457.653
187 0 51.0979 12.1336 620 146.44 1102.96 455.1
188 0 54.1162 11.0688 599 138.321 1102.25 460.79
189 0 57.0873 13.6983 782 134.015 1099.68 457.519
190 0 58.1282 12.1456 706 137.326 1098.42 456.511
191 0 59.1726 15.4125 912 130.583 1098.96 451.519
192 0 64.09 15.7279 1008 128.266 1098.61 452.828
193 0 64.1151 13.9437 894 133.328 1097.85 449.426
194 0 66.2677 14.2905 947 129.099 1097.29 451.882
195 0 71.269 15.9536 1137 127.22 1098.06 446.098
196 0 71.378 15.2568 1089 127.168 1099.31 449.131
197 0 72.5481 14.5007 1052 126.958 1099.59 445.861
198 0 73.2488 14.089 1032 125.787 1101.08 445.314
199 0 76.2849 12.6762 967 126.76 1102.12 445.915
200 0 79.2751 12.5386 994 128.606 1103.18 440.396
201 0 82.1883 20.4652 1682 115.439 1105.89 440.953
202 0 86.2776 28.1185 2426 109.44 1106.96 435.432
203 0 86.2776 28.1765 2431 121.744 1108.98 435.616
204 0 92.4665 30.5083 2821 103.326 1109.36 441.638
205 0 97.7098 20.6018 2013 107.905 1111.69 442.767
206 0 97.4614 18.869 1839 109.048 1111.61 443.49
207 0 100.435 34.9082 3506 101.939 1111.1 435.481
208 0 100.233 26.6081 2667 107.598 1111.58 434.157
209 0 107.319 22.9223 2460 110.511 1110.8 431.73
210 0 110.476 20.8642 2305 110.097 1110.85 436.28
211 0 114.448 16.0859 1841 116.172 1110.41 432.857
212 1 69.3519 24.3541 1689 106.016 1110.57 456.002
213 0 64.1203 12.7261 816 120.091 1109.77 456.419
214 0 73.4298 16.1515 1186 116.847 1109.78 457.367
215 0 66.1086 18.1368 1199 114.623 1108.32 461.856
216 0 71.1566 13.4211 955 124.784 1107.23 452.373
217 0 71.2851 13.0883 933 130.527 1105.87 451.789
218 0 74.4096 14.4874 1078 128 1104.75 453.415
219 0 77.2271 14.4379 1115 131.357 1103.29 448.57
220 0 80.1945 13.0682 1048 131.619 1102.48 447.357
221 0 82.3213 14.0182 1154 134.623 1100.65 441.618
222 0 88.2308 21.3191 1881 120.844 1099.66 446.754
223 0 90.4831 21.7941 1972 122.763 1098.98 441.151
224 0 93.3801 16.1169 1505 133.195 1098.22 434.31
225 1 54.4863 12.9023 703 129.927 1099.05 459.097
226 0 53.0608 11.2512 597 135.936 1098.13 455.419
227 0 50.1129 10.9952 551 142.154 1098.32 451.541
228 0 55.1719 13.5758 749 137.081 1098.21 451.413
229 0 57.071 14.7711 843 130.885 1098.73 449.686
230 0 56.0764 12.9288 725 129.727 1099.97 450.47
231 0 59.2806 11.6733 692 127.478 1099.73 448.568
232 0 61.1668 13.1934 807 124.87 1102.17 446.917
233 0 62.3426 9.70444 605 131.007 1104.02 449.041
234 0 66.1944 13.0827 866 121.099 1105.45 450.048
235 0 70.447 17.0767 1203 115.524 1107.01 445.346
236 0 70.447 17.2754 1217 116.788 1108.98 445.455
237 0 73.228 13.1097 960 117.378 1110.61 446.133
238 0 78.3701 11.854 929 117.454 1111.57 448.178
239 0 77.2007 12.8367 991 120.696 1112.55 445.237
240 1 156.714 19.1176 2996 120.863 1111.46 400.916
241 0 161.77 16.2144 2623 117.944 1111.68 410.784
242 0 171.082 23.9359 4095 114.001 1111.59 406.559
243 1 90.5555 16.454 1490 114.878 1111.49 447.266
244 0 88.2634 12.7573 1126 125.14 1111.65 446.895
245 0 93.4063 16.7441 1564 122.327 1110.64 442.964
246 0 95.2374 10.6891 1018 135.352 1109.61 443.175
247 0 98.4555 14.7681 1454 129.572 1108.15 436.742
248 0 98.4555 14.7884 1456 133.623 1107.15 436.82
249 1 57.2415 13.8361 792 128.383 1103.75 459.468
250 0 56.3579 13.2723 748 132.491 1102.74 456.906
251 0 57.2258 12.442 712 134.229 1105.15 457.563
252 0 60.2184 12.903 777 134.824 1103.37 457.039
253 0 63.12 14.4962 915 131.426 1102.15 457.674
254 0 63.1501 15.2177 961 130.858 1100.63 455.538
255 0 64.0437 13.1941 845 136.607 1099.56 449.891
256 0 67.1179 13.7072 920 135.122 1098.56 448.237
257 0 67.1181 13.6178 914 125.995 1096.55 448.171
258 0 73.2211 16.2248 1188 128.95 1097.46 444.131
259 1 37.038 11.7987 437 133.707 1098.22 463.995
260 0 39.0485 9.78269 382 136.521 1098.19 461.929
261 0 41.0724 10.2015 419 134.322 1098.42 459.773
262 0 43.0406 10.6411 458 132.212 1098.58 458.38
263 0 45.0247 12.9262 582 129.313 1099.46 455.995
264 0 51.4754 15.3277 789 118.845 1100.37 458.665
265 0 47.1809 13.6284 643 126.535 1101.59 453.855
266 0 50.2686 13.6268 685 121.527 1103.16 455.886
267 0 52.1176 14.237 742 117.891 1104.95 457.615
268 0 53.1267 14.4372 767 119.721 1106.67 455.035
269 0 53.152 11.9657 636 121.146 1108.32 452.19
270 0 54.1554 12.1872 660 119.3 1110.34 453.377
271 0 66.4682 19.4981 1296 105.782 1111.36 454.752
272 0 58.1297 15.8611 922 115.946 1112.61 450.458
273 0 61.1106 14.0074 856 118.047 1112.78 454.578
274 0 60.2401 12.7988 771 126.495 1112.65 453.695
275 0 64.1817 15.7677 1012 119.871 1112.6 456.335
276 0 64.093 12.8563 824 130.484 1112.53 452.08
277 0 66.0881 14.4655 956 132.805 1111.93 452.446
278 0 70.1246 15.2585 1070 128.228 1111.24 453.101
279 0 69.2661 11.5641 801 132.878 1111.52 455.414
280 0 73.1955 13.3205 975 132.49 1110.36 454.2
281 0 75.1451 13.4274 1009 132.662 1108.61 454.442
282 0 76.1066 14.3614 1093 133.111 1108.06 449.776
283 0 82.2259 17.9749 1478 126.576 1106.57 449.751
284 0 81.1996 14.101 1145 138.59 1105.25 445.425
285 0 87.2157 12.9449 1129 139.503 1103.48 450.082
286 0 90.1097 16.3911 1477 132.311 1102.33 446.401
287 0 92.1186 13.678 1260 138.825 1101.11 443.987
288 1 48.0715 11.8573 570 137.958 1100.07 463.644
289 0 48.2299 12.1087 584 137.346 1098.37 463.043
290 0 51.1832 13.3247 682 131.438 1097.98 460.21
291 0 51.1283 14.669 750 129.761 1098.06 457.747
292 0 51.2355 12.2181 626 132.423 1097.14 456.639
293 0 54.2419 13.0526 708 133.369 1096.6 454.661
294 0 58.2651 13.8505 807 129.31 1096.66 455.77
295 0 57.2199 13.4394 769 131.401 1097.17 450.732
296 0 61.2497 14.9388 915 126.316 1097.44 453.039
297 0 62.2032 14.4365 898 126.656 1098.83 450.864
298 0 62.2032 14.5491 905 136.546 1100.83 450.891
299 0 66.1779 13.4788 892 124.519 1102.07 450.278
300 0 65.185 11.9506 779 129.626 1103.73 445.96
301 0 67.4559 13.8461 934 124.1 1105.86 447.034
302 0 72.5733 14.5646 1057 120.919 1107.91 443.231
303 0 75.2615 14.1108 1062 122.766 1109.53 442.306
304 0 78.3358 18.9824 1487 114.209 1111.23 445.643
305 0 81.4483 14.5491 1185 120.022 1112.48 444.371
306 0 81.4483 14.5491 1185 138.237 1112.47 444.163
307 1 43.0274 9.064 390 121.656 1115.03 466.803
308 0 50.1997 8.48611 426 127.413 1114.2 464.674
309 0 48.0496 11.3008 543 130.49 1113.6 459.387
310 0 48.0252 9.91147 476 132.92 1112.27 461.739
311 0 49.0309 10.5648 518 133.624 1112.79 461.307
312 0 50.0339 9.71342 486 138.638 1112.24 462.883
313 0 54.0687 12.4101 671 132.709 1110.39 461.763
314 0 56.1854 13.7936 775 128.942 1109.56 459.746
315 0 59.2039 15.9449 944 125.096 1108.31 461.22
316 0 56.2116 13.5026 759 130.502 1106.98 457.848
317 0 58.154 10.7817 627 134.727 1105.63 459.651
318 0 64.4275 15.304 986 122.463 1104.02 461.213
319 0 65.1659 14.3633 936 128.314 1102.65 456.256
320 0 65.4134 11.8019 772 131.386 1101.53 457.365
321 0 68.3068 14.9619 1022 128.432 1101.22 451.098
322 0 70.4151 14.2583 1004 129.14 1099.51 449.867
323 0 74.3224 13.3876 995 129.646 1099.19 451.357
324 0 76.1677 15.6366 1191 124.153 1098.56 449.296
325 0 79.2212 13.5822 1076 129.582 1097.14 444.157
326 1 39.1004 8.82344 345 129.333 1097.68 462.168
327 0 45.1061 12.1491 548 127.96 1097.77 458.885
328 0 45.0795 11.3355 511 131.718 1098.35 458.804
329 0 49.0648 13.4108 658 125.43 1098.14 456.842
330 0 50.1284 12.2884 616 126.735 1099.52 458.268
331 0 52.1968 15.7098 820 113.915 1100.68 458.195
332 0 51.3211 12.6069 647 116.986 1101.59 456.465
333 0 58.8044 18.8421 1108 104.136 1103.36 456.916
334 0 65.1101 19.3518 1260 103.805 1105.99 455.223
335 0 60.9787 12.529 764 109.501 1108.15 455.776
336 0 62.551 13.0933 819 108.129 1110.11 456.369
337 0 64.4602 15.1101 974 107.001 1110.68 453.685
338 0 63.3512 14.8221 939 108.838 1110.17 456.359
339 0 69.1874 18.2837 1265 104.964 1111.7 460.073
340 0 70.3945 16.7769 1181 108.709 1112.1 456.698
341 0 68.5945 14.6951 1008 113.403 1112.14 456.023
342 0 68.32 14.3589 981 116.695 1111.25 454.241
343 0 69.5101 14.8899 1035 118.449 1110.95 454.594
344 0 77.6431 13.678 1062 121.202 1110.84 455.056
345 0 73.4176 13.8659 1018 125.798 1109.9 453.63
346 0 76.2788 10.7763 822 132.319 1108.75 454.814
347 0 78.5399 15.9664 1254 128.137 1107.23 448.76
348 1 44.1615 11.0956 490 133.624 1108.64 469.496
349 0 45.0268 11.4821 517 134.954 1106.55 468.147
350 0 48.0224 10.5576 507 135.657 1105.87 464.757
351 0 47.0176 12.6336 594 130.263 1104.35 465.481
352 0 48.1443 12.6079 607 131.044 1101.84 463.764
353 0 48.1856 11.0614 533 125.934 1099.55 457.439
354 0 47.0546 9.28709 437 132.403 1096.45 458.419
355 0 49.0617 12.9633 636 123.766 1095.63 458.544
356 0 50.093 12.5167 627 123.131 1095.24 454.982
357 0 51.1023 15.0678 770 117.595 1094.9 457.7
358 0 53.137 13.8322 735 120.895 1094.36 454.924
359 0 54.0512 9.4355 510 128.355 1094.13 452.6
360 0 56.208 11.7599 661 123.604 1094.96 453.475
361 0 58.1754 13.9578 812 120.058 1095.2 450.645
362 0 59.1237 12.4823 738 124.069 1094.67 447.599
363 0 62.3284 11.4555 714 125.641 1096.63 448.277
364 0 61.1587 12.0506 737 122.634 1097.61 446.28
365 0 66.1421 14.8166 980 117.587 1099.65 446.712
366 0 66.1421 14.9678 990 113.698 1102.61 446.663
367 0 69.2806 14.5784 1010 122.323 1102.17 441.476
368 0 71.2067 12.6954 904 121.851 1103.69 440.26
369 0 73.4056 13.0508 958 119.562 1105.47 440.696
370 0 78.2295 12.9235 1011 120.225 1107.55 445.116
371 0 77.3953 9.36749 725 123.806 1108.25 441.884
372 0 82.3706 14.8111 1220 115.408 1109.04 447.817
373 0 85.0858 15.2082 1294 112.719 1108.8 440.23
374 0 88.348 12.7451 1126 123.903 1110.47 447.125
375 0 91.1586 12.8128 1168 125.047 1110.47 444.128
376 1 49.2465 11.2698 555 128.908 1110.75 464.132
377 0 51.1252 14.5721 745 128.715 1110.44 463.693
378 0 54.045 14.784 799 127.235 1109.89 464.746
379 0 55.1095 10.9056 601 137.055 1109.34 461.136
380 0 55.1479 11.859 654 138.451 1108.45 462.827
381 0 54.1044 10.4058 563 140.993 1107.07 464.472
382 0 59.0719 13.3566 789 137.417 1106.37 460.07
383 0 61.0948 13.6345 833 136.37 1105.09 458.324
384 0 61.4671 12.8199 788 138.428 1103.1 458.636
385 0 64.3278 11.83 761 141.141 1101.29 455.698
386 0 72.6743 15.8653 1153 131.173 1099.92 454.952
387 0 68.3334 13.6976 936 138.721 1098.17 450.288
388 0 70.3515 14.3423 1009 136.047 1098.05 450.136
389 0 74.4754 15.0788 1123 135.282 1096.49 445.335
390 0 75.3471 13.2852 1001 137.921 1096.45 446.712
391 0 80.354 15.6059 1254 134.078 1095.88 442.921
392 0 82.3556 18.1165 1492 129.078 1095.66 442.086
393 0 85.3704 12.9904 1109 136.971 1095.02 438.228
394 0 88.3195 15.4326 1363 130.811 1096.07 440.422
395 0 89.3483 16.0831 1437 131.541 1096.79 437.504
396 0 94.5497 19.9366 1885 123.943 1097.1 438.085
397 0 93.3446 14.0876 1315 135.996 1098.02 431.039
398 0 95.3027 15.1832 1447 135.26 1099.15 432.768
399 0 99.3113 17.7321 1761 127.911 1100.72 430.797
400 1 51.1081 10.6637 545 128.406 1104.36 455.62
401 0 55.1314 12.9146 712 123.205 1106.71 454.081
402 0 58.6781 18.7634 1101 113.637 1104.16 454.559
403 0 62.3164 18.8233 1173 114.784 1109.02 457.205
404 0 60.2659 12.6605 763 125.113 1111.42 452.498
405 0 62.2112 13.1488 818 128.125 1110.74 454.434
406 0 63.3137 17.0895 1082 119.527 1111.99 455.47
407 0 66.2095 13.3818 886 125.367 1112.11 454.207
408 0 69.1281 17.5327 1212 122.396 1112.01 453.722
409 0 69.1529 14.8656 1028 130.506 1111.57 452.555
410 0 69.0889 12.5635 868 135.635 1111.45 452.865
411 0 71.1056 15.2449 1084 134.376 1111.01 455.391
412 0 77.1815 14.0837 1087 136.866 1109.57 452.446
413 0 76.1683 11.921 908 142.04 1108.02 452.506
414 0 80.2601 13.5808 1090 136.518 1107.17 453.5
415 0 83.3213 17.4025 1450 128.565 1105.67 445.65
416 0 88.2777 14.7149 1299 132.319 1104.52 447.57
417 1 45.0821 12.9098 582 129.196 1104.75 469.077
418 0 47.0555 11.412 537 135.279 1102.4 465.399
419 0 49.1885 13.8854 683 129.66 1101.47 464.095
420 0 51.0889 11.4311 584 134.253 1100.25 462.464
421 0 53.1206 16.0766 854 126.118 1099.58 457.567
422 0 55.2151 16.5353 913 121.562 1098.31 460.138
423 0 55.1967 13.6059 751 127.944 1097.56 455.979
424 0 56.0794 14.8004 830 126.129 1096.93 456.047
425 0 60.0583 16.9335 1017 124.786 1095.97 455.751
426 0 59.0829 15.6898 927 133.216 1096.5 450.915
427 0 59.0563 12.7675 754 141.052 1096.78 446.849
428 0 62.2002 13.2154 822 135.697 1096.43 448.773
429 0 64.2164 13.1742 846 135.415 1097.94 447.66
430 0 67.1359 14.4334 969 132.257 1098.53 447.263
431 0 69.1163 14.3381 991 132.706 1099.57 445.381
432 0 72.1993 15.2772 1103 131.304 1100.97 444.268
433 0 73.2238 16.7569 1227 130.137 1102.67 443.44
434 0 73.1486 14.3543 1050 135.129 1104.73 441.317
435 0 73.1486 14.8328 1085 130.442 1107.77 440.876
436 0 80.2701 18.0391 1448 128.412 1107.41 440.462
437 0 88.5644 17.524 1552 123.203 1110.02 448.705
438 0 87.2348 15.9455 1391 130.809 1110.17 444.851
439 1 49.1677 9.62013 473 132.216 1111.51 461.311
440 0 50.1026 9.99947 501 133.068 1108.86 465.299
441 0 52.1892 10.1745 531 136.652 1109.46 463.748
442 0 52.0661 11.4662 597 137.085 1108.38 461.251
443 0 52.1371 12.1986 636 137.78 1107.31 462.171
444 0 57.2144 12.3745 708 136.879 1107.67 461.38
445 0 57.2759 11.9597 685 139.861 1107.36 460.145
446 0 59.4912 12.4388 740 140.486 1106.34 460.464
447 0 60.078 11.5017 691 144.048 1104.6 459.589
448 0 64.0859 12.8734 825 139.234 1103.99 457.818
449 0 64.1164 12.8984 827 139.723 1101.7 458.209
450 0 68.1254 13.2696 904 138.523 1100.81 458.829
451 0 68.1628 12.9836 885 140.72 1099.5 455.708
452 0 72.0796 14.8863 1073 135.829 1098.4 456.48
453 0 74.2093 16.5613 1229 133.901 1096.78 451.598
454 0 73.1547 12.8768 942 141.95 1096 448.713
455 0 78.2083 13.7965 1079 139.01 1095.68 447.583
456 0 82.2292 16.8067 1382 132.067 1094.69 446.198
457 0 84.253 14.9668 1261 135.618 1094.29 444.557
458 0 87.2015 17.6832 1542 129.187 1094.08 440.815
459 0 89.2919 13.0471 1165 138.233 1094.04 441.216
460 0 92.1061 14.7764 1361 134.702 1094.02 440.819
461 0 94.2046 17.4195 1641 131.063 1094.64 432.873
462 0 99.2359 14.2993 1419 135.937 1095.23 436.104
463 0 101.159 15.3026 1548 136.494 1095.61 432.234
464 0 106.191 14.86 1578 133.843 1097.29 436.373
465 0 107.308 13.4007 1438 139.3 1098.78 428.816
466 0 110.385 15.5275 1714 135.191 1100.42 429.523
467 0 114.256 14.7475 1685 138.732 1103.05 424.428
468 0 116.269 13.2537 1541 143.056 1105.25 424.826
469 0 120.422 14.5157 1748 137.554 1107.77 424.419
470 0 125.517 15.0736 1892 135.368 1109.3 425.879
471 0 130.877 14.632 1915 123.277 1110.68 420.505
472 0 131.679 13.3659 1760 123.868 1110.49 418.26
473 0 139.939 16.3214 2284 122.721 1110.89 417.187
474 0 139.939 16.2071 2268 149.365 1110.86 417.098
475 1 214.148 22.2744 4770 120.053 1110.54 388.724
476 1 78.534 17.1645 1348 122.251 1110.68 451.763
477 0 78.6676 13.9956 1101 124.171 1109.98 457.252
478 0 83.5198 19.0613 1592 116.996 1108.61 457.006
479 0 84.1725 20.8857 1758 120.081 1107.84 451.043
480 0 86.2598 15.0476 1298 130.421 1105.46 449.34
481 0 89.2973 17.089 1526 128.706 1104.37 448.319
482 0 92.2534 15.2406 1406 132.716 1103.21 451.589
483 0 93.2076 15.1919 1416 135.903 1101.58 444.527
484 0 97.3033 17.7178 1724 132.518 1100.52 441.364
485 0 102.287 16.8936 1728 132.83 1098.97 440.499
486 1 55.1497 13.3274 735 138.237 1097 462.497
487 0 56.2178 8.92955 502 142.833 1096.09 465.215
488 0 58.2838 12.5935 734 138.88 1095.27 461.5
489 0 60.2815 15.8589 956 133.434 1094.62 459.985
490 0 63.5118 13.3204 846 134.22 1094.98 460.492
491 0 65.508 16.7003 1094 129.875 1094.02 456.07
492 0 65.3553 16.3108 1066 136.226 1093.71 449.36
493 0 65.3074 15.0672 984 136.278 1094.57 446.458
494 0 67.274 14.4038 969 136.045 1095.26 448.503
495 0 71.1808 12.7984 911 139.672 1094.96 446.707
496 0 73.6458 14.1624 1043 135.43 1095.72 443.715
497 0 78.4868 17.1749 1348 128.144 1097 442.784
498 0 78.5331 16.5281 1298 130.56 1099.18 441.784
499 0 85.4865 21.6993 1855 119.426 1100.61 441.059
500 0 83.5258 15.133 1264 129.921 1103.28 439.603
501 0 87.3267 18.1502 1585 125.997 1104.85 440.763
502 0 87.5543 13.9571 1222 133.439 1106.23 439.331
503 0 89.6647 14.7104 1319 131.47 1108.07 436.123
504 0 99.9835 18.5031 1850 122.532 1109.17 443.95
505 0 96.4623 16.8563 1626 125.469 1110.19 438.164
506 0 98.7706 11.7444 1160 129.41 1110.08 436.181
507 1 58.8255 14.1265 831 122.554 1111.23 461.613
508 0 55.5208 12.806 711 130.16 1110.39 460.336
509 0 62.4365 15.5198 969 123.276 1111.05 462.921
510 0 61.7455 11.6932 722 131.04 1110.53 461.338
511 0 60.4484 13.1021 792 130.514 1110.44 459.67
512 0 64.1731 14.0402 901 128.108 1109.19 459.289
513 0 63.2039 13.0372 824 132.975 1108.66 457.436
514 0 67.41 15.25 1028 128.07 1107.08 454.682
515 0 71.2744 16.4575 1173 126.442 1106.21 456.469
516 0 68.406 10.7301 734 135.877 1104.19 457.703
517 0 74.4791 16.085 1198 126.316 1103.11 455.691
518 0 72.2788 10.2935 744 138.659 1102.39 453.694
519 0 79.2637 15.3917 1220 128.675 1100.79 451.954
520 0 79.2834 14.4166 1143 132.338 1099.18 445.682
521 1 44.0996 11.6101 512 133.021 1100.05 466.213
522 0 41.1833 11.8252 487 131.684 1098.95 463.817
523 0 44.0877 13.0422 575 129.508 1098.44 462.88
524 0 47.2256 11.3709 537 127.248 1098.3 464.989
525 0 48.1858 14.2781 688 124.542 1097.87 459.766
526 0 48.06 10.9863 528 130.72 1097.78 461.191
527 0 50.1519 14.3364 719 121.819 1098.03 458.748
528 0 52.1084 13.1457 685 124.231 1098.91 460.032
529 0 52.2275 12.4647 651 124.668 1098.89 457.289
530 0 52.0848 9.98372 520 126.188 1100.5 459.969
531 0 55.1219 12.2275 674 121.286 1102.18 457.703
532 0 55.3351 12.5779 696 122.74 1103.13 454.882
533 0 60.1848 14.5718 877 113.007 1105.73 455.128
534 0 65.8191 16.4238 1081 107.873 1107.83 457.485
535 0 65.3622 14.7792 966 111.823 1109.42 451.694
536 0 70.8068 11.9762 848 111.395 1110.61 455.912
537 0 67.2519 14.8546 999 109.556 1111.27 454.505
538 0 66.511 10.6449 708 112.668 1112.34 446.496
539 0 72.5614 15.6833 1138 106.781 1112.58 458.141
540 0 78.7355 23.9663 1887 101.018 1111.47 455.986
541 0 80.7256 16.9711 1370 108.347 1112.11 455.634
542 0 81.5938 17.2562 1408 111.958 1111.55 450.005
543 0 80.4966 15.3298 1234 122.275 1110.72 450.18
544 1 40.038 9.94056 398 126.445 1111.74 469.492
545 0 41.1391 14.2687 587 122.753 1110.32 467.027
546 0 42.1558 11.1728 471 134.367 1109.11 467.478
547 0 44.0636 12.7543 562 132.502 1107.89 466.696
548 0 46.1264 14.0267 647 120.55 1104.36 466.833
549 0 44.1987 12.3986 548 124.102 1102.92 466.515
550 0 46.1007 11.7786 543 125.565 1102.09 466.783
551 0 47.1236 13.1144 618 125.228 1100.28 463.864
552 0 47.0931 11.6365 548 127.354 1099.6 464.869
553 0 47.054 12.4113 584 126.563 1098.25 462.983
554 0 49.1956 12.0336 592 126.627 1097.57 464.12
555 0 48.1184 11.4925 553 130.799 1096.57 459.235
556 0 54.2403 17.6068 955 120.507 1095.92 455.685
557 0 53.0606 12.3067 653 129.949 1095.79 452.89
558 0 55.1167 11.5936 639 129.936 1095.57 453.304
559 0 60.4251 14.7124 889 120.114 1095.63 455.94
560 0 57.249 13.2229 757 126.089 1096.09 449.363
561 0 60.2084 12.9716 781 123.576 1095.5 454.105
562 0 64.2948 12.8626 827 125.105 1096.67 448.03
563 0 65.3444 12.1663 795 125.971 1097.59 446.614
564 1 147.639 19.927 2942 119.815 1098.91 409.931
565 1 112.992 13.4522 1520 124.988 1100.87 428.031
566 0 117.657 18.3924 2164 116.508 1103.4 428.512
567 1 73.1413 13.303 973 119.44 1104.49 441.778
568 0 83.762 21.2149 1777 110.039 1106.21 439.947
569 0 79.4251 16.418 1304 115.485 1107.93 440.87
570 0 84.3529 15.0914 1273 117.582 1109.24 440.442
571 1 41.2681 13.4487 555 127.623 1108.93 460.937
572 0 41.024 11.6761 479 134.507 1109.94 458.495
573 0 45.2672 12.3931 561 121.69 1113 467.257
574 0 46.4814 15.1674 705 124.766 1111.46 464.055
575 0 45.0903 13.6393 615 145.795 1111.08 466.112
576 0 48.2635 12.8669 621 149.196 1110.5 467.646
577 0 50.2421 14.6093 734 141.647 1110.88 468.582
578 0 50.3251 14.2474 717 152.304 1111.29 468.547
579 0 54.1479 15.4946 839 149.707 1109.87 467.758
580 0 56.1143 15.807 887 146.453 1108.84 469.6
581 0 57.3463 18.3621 1053 143.16 1107.59 465.511
582 0 57.1734 15.2519 872 152.333 1105.5 463.628
583 0 59.3802 16.4028 974 149.807 1104.18 466.103
584 0 63.3057 15.591 987 151.432 1102.95 464.097
585 0 65.3719 15.2359 996 152.133 1101.76 463.797
586 0 66.249 14.5361 963 155.383 1100.33 461.703
587 0 69.2261 12.3364 854 162.889 1099.28 459.465
588 0 71.3286 14.9309 1065 154.254 1098.49 460.081
589 0 73.1908 15.6987 1149 154.385 1097.38 455.182
590 0 75.2375 12.4406 936 159.038 1096.88 456.878
591 0 76.3115 13.0649 997 158.394 1096.41 451.418
592 0 79.2182 12.9516 1026 158.169 1095.6 450.421
593 1 46.0557 12.55 578 151.194 1097.03 468.356
594 0 48.0518 11.5917 557 155.668 1096.92 467.158
595 0 50.096 15.1908 761 141.357 1096.36 464.857
596 0 51.2019 15.4877 793 135.537 1097.03 462.129
597 0 51.1811 15.5722 797 128.991 1098.04 462.137
598 0 53.328 13.2388 706 140.176 1098.17 460.459
599 0 57.206 14.5964 835 129.321 1099.97 464.685
600 0 57.1867 14.0417 803 135.092 1101.25 461.969
601 0 56.0525 12.2385 686 141.717 1102.74 458.179
602 0 61.2736 13.6274 835 137.083 1103.81 458.695
603 0 61.2109 12.4978 765 141.089 1104.74 457.188
604 0 67.2243 15.4111 1036 133.032 1105.4 457.76
605 0 66.2113 14.2574 944 136.894 1105.39 456.001
606 0 69.2934 14.1572 981 139.297 1105.48 453.901
607 0 70.2347 12.9138 907 143.17 1105.05 455.508
608 0 75.2857 17.4137 1311 133.512 1104.73 454.145
609 0 77.2417 14.7718 1141 140.005 1104.65 453.259
610 0 81.2413 16.4202 1334 137.079 1103.69 453.465
611 1 40.1779 9.3335 375 144.659 1104.54 474.885
612 0 44.0653 11.0291 486 149.364 1103.95 472.558
613 0 47.021 13.1431 618 144.672 1102.44 473.123
614 0 45.1546 11.2281 507 147.454 1101.15 473.142
615 0 48.2033 13.2771 640 143.275 1099.9 470.252
616 0 51.0483 15.0054 766 140.919 1098.92 469.054
617 0 51.0849 13.1546 672 144.81 1097.98 470.042
618 0 53.1103 16.6258 883 136.575 1096.26 465.733
619 0 53.0781 15.3359 814 145.72 1095.34 464.638
620 0 53.0528 15.2678 810 147.256 1094.17 460.962
621 0 61.2654 18.6076 1140 130.234 1093.53 461.446
622 0 59.2402 16.2896 965 135.603 1093.43 459.743
623 0 63.2161 17.9226 1133 132.658 1093.06 456.2
624 0 64.2572 18.0213 1158 130.093 1092.29 457.273
625 0 66.0755 16.0876 1063 134.42 1092.49 451.77
626 0 65.1469 14.1373 921 138.966 1092.68 450.683
627 0 69.1243 13.9025 961 141.425 1093.73 448.197
628 0 70.2841 13.417 943 141.694 1094.58 443.951
629 0 76.0802 13.8144 1051 138.061 1095.9 443.894
630 1 40.0292 10.1426 406 140.421 1096.25 458.724
631 0 43.0756 12.1879 525 136.343 1098.77 458.44
632 0 45.253 10.0988 457 134.269 1101.01 460.074
633 0 46.0647 13.3942 617 135.318 1102.54 456.293
634 0 46.1295 13.332 615 137.846 1103.82 456.078
635 0 49.0318 14.4396 708 131.305 1106.36 456.061
636 0 49.125 12.8855 633 134.953 1107.71 456.785
637 0 53.2778 14.6027 778 123.51 1107.33 459.793
638 0 56.2314 13.6045 765 126.754 1107.94 461.518
639 0 58.17 12.6182 734 126.76 1109.03 461.729
640 0 57.2945 11.5369 661 135.846 1108.84 460.749
641 0 58.3035 13.2754 774 132.191 1108.54 459.702
642 0 61.2499 12.8327 786 134.248 1107.4 457.532
643 0 63.2454 14.5939 923 131.967 1107.28 458.285
644 0 66.4404 14.4791 962 133.654 1107.03 457.474
645 0 68.2744 13.2114 902 138.898 1105.79 458.627
646 0 71.4476 13.7164 980 138.496 1105 458.608
647 0 71.3377 14.0318 1001 141.084 1104.46 456.797
648 0 78.3361 15.0888 1182 136.227 1102.89 455.054
649 0 79.2239 15.8664 1257 136.349 1100.8 455.935
650 1 42.0715 11.1952 471 143.824 1101.15 469.96
651 0 43.031 15.8955 684 132.808 1099.96 469.104
652 0 45.0396 11.501 518 141.927 1098.24 467.454
653 0 45.0483 12.2091 550 138.56 1098.63 467.751
654 0 49.1736 16.0045 787 129.584 1097.42 465.058
655 0 48.3191 12.8107 619 138.83 1096.6 459.91
656 0 52.2042 13.5238 706 136.585 1095.87 460.29
657 0 53.2267 14.9549 796 130.196 1095.48 459.56
658 0 54.0982 14.5476 787 134.156 1095.48 458.213
659 0 55.2096 12.9325 714 134.735 1096.16 458.178
660 0 57.2421 13.9932 801 133.869 1096.46 455.192
661 0 59.4267 13.3442 793 133.566 1096.91 451.615
662 0 65.5175 16.0415 1051 123.59 1098.13 456.224
663 0 62.2769 15.8807 989 129.146 1099 450.366
664 0 65.51 13.6773 896 129.377 1100.72 449.085
665 0 68.4263 14.9212 1021 129.164 1103.2 446.465
666 0 71.4557 17.8012 1272 122.977 1105.74 449.459
667 0 74.3147 18.2064 1353 123.733 1106.64 443.809
668 0 76.2944 15.663 1195 126.129 1107.94 444.746
669 0 79.312 14.714 1167 126.207 1110.11 447.087
670 0 83.3626 16.3982 1367 124.422 1110.18 443.927
671 0 84.3128 14.8495 1252 123.936 1111.75 446.859
672 1 48.4211 10.925 529 128.803 1112.87 464.601
673 0 48.655 10.6669 519 126.162 1113.4 468.324
674 0 45.4069 12.9275 587 131.395 1112.2 463.727
675 0 48.1287 11.6147 559 137.081 1111.69 466.12
676 0 50.2153 16.5288 830 127.88 1111.12 465.219
677 0 51.1816 14.9468 765 131.697 1109.91 462.906
678 0 55.5793 15.5454 864 128.881 1108.38 467.186
679 0 53.2768 14.847 791 132.636 1106.77 460.961
680 0 56.3858 14.1525 798 132.777 1105.19 462.632
681 0 57.3938 15.9773 917 129.279 1103.53 458.779
682 0 60.2224 13.3173 802 136.696 1102.05 460.342
683 0 63.3506 17.5373 1111 129.408 1100.94 456.418
684 0 65.0665 15.6455 1018 131.652 1099.68 457.338
685 0 65.1448 16.5785 1080 131.713 1098.55 451.598
686 0 71.2532 18.1185 1291 127.406 1097.58 451.191
687 0 70.2518 14.3057 1005 135.348 1096.76 451.481
688 0 74.2035 15.471 1148 133.808 1095.47 447.455
689 0 78.2777 19.2009 1503 125.652 1095.14 446.629
690 0 77.254 14.6141 1129 137.269 1094.34 441.918
691 1 41.1085 10.9953 452 135.319 1096.41 463.509
692 0 46.0349 11.8823 547 133.751 1097.19 460.539
693 0 46.0279 10.2329 471 141.902 1097.28 459.17
694 0 49.5757 13.2323 656 130.195 1098.19 459.03
695 0 46.0595 13.8951 640 133.802 1098.94 455.53
696 0 46.1777 13.9894 646 132.978 1100.57 453.989
697 0 50.2505 13.2934 668 133.045 1101.72 455.939
698 0 50.3537 15.7486 793 130.479 1102.91 449.975
699 0 53.3533 11.6956 624 135.646 1105.84 451.587
700 0 54.124 13.3952 725 129.601 1107.47 454.77
701 0 59.1566 13.4558 796 130.046 1109.14 454.069
702 0 58.0507 14.918 866 126.503 1110.64 454.367
703 0 59.0872 16.1287 953 125.199 1111.51 453.639
704 0 62.1153 13.9096 864 129.492 1111.16 452.115
705 0 62.2205 15.7183 978 129.434 1111.93 450.547
706 0 68.1231 14.6793 1000 130.502 1111.57 453.656
707 0 69.1289 17.5903 1216 126.934 1110.32 450.808
708 0 70.1085 15.7756 1106 130.975 1110.41 452.04
709 0 72.2119 13.9728 1009 136.576 1110.11 453.333
710 0 75.1498 13.3201 1001 138.512 1109.33 453.838
711 0 77.175 15.1474 1169 137.145 1107.7 450.798
712 0 80.1748 14.7428 1182 138.632 1106.44 450.866
713 0 82.2086 19.0491 1566 129.323 1104.82 452.379
714 0 81.1515 13.3701 1085 142.257 1103.16 446.557
715 0 89.3474 18.3105 1636 131.717 1100.9 443.408
716 0 89.2166 17.6425 1574 133.065 1099.34 443.524
717 0 94.2373 14.1451 1333 138.251 1098.26 443.618
718 1 55.0697 13.3286 734 132.623 1098.34 462.627
719 0 52.0448 11.5093 599 135.484 1097.05 464.215
720 0 55.1084 12.1579 670 134.124 1096.48 460.196
721 0 54.121 13.1927 714 134.246 1094.58 456.522
722 0 60.1174 15.7525 947 114.535 1093.95 458.005
723 0 60.2112 16.4089 988 123.019 1095.3 453.094
724 0 59.2667 12.8065 759 128.652 1095.3 451.918
725 0 65.18 15.2194 992 122.017 1095.59 452.614
726 0 61.1784 10.9843 672 130.692 1096.07 453.378
727 0 65.3411 13.3301 871 125.751 1096.82 449.976
728 0 70.2067 14.3434 1007 126.255 1098.02 446.928
729 0 76.307 19.5788 1494 113.147 1098.81 450.455
730 0 76.1333 15.683 1194 121.017 1100.53 444.915
731 0 75.1566 13.2523 996 126.879 1102.96 445.252
732 0 79.4439 11.442 909 127.608 1105.13 446.343
733 0 82.5172 15.7301 1298 127.652 1106.53 442.962
734 0 85.6729 13.2948 1139 133.763 1107.27 445.397
735 0 85.4671 14.2979 1222 133.259 1107.82 446.922
736 0 88.4995 12.3843 1096 137.349 1109.07 443.322
737 0 93.2943 14.5347 1356 135.536 1109.09 444.954
738 1 51.2061 17.6541 904 125.978 1110.61 465.602
739 0 51.1099 10.2328 523 141.459 1110.26 467.086
740 0 53.086 12.3196 654 142.352 1109.73 464.59
741 0 57.2216 12.1283 694 143.586 1108.67 465.04
742 0 58.62 11.6172 681 139.305 1107.11 466.606
743 0 61.3682 12.5146 768 139.03 1105.91 466.09
744 0 61.295 12.709 779 141.015 1103.53 462.652
745 0 64.2707 15.248 980 135.519 1102.9 464.663
746 0 67.3937 13.4286 905 137.093 1101.48 465.168
747 0 67.2341 11.2443 756 142.544 1100.06 463.431
748 0 73.2562 16.2717 1192 130.601 1098.01 462.182
749 0 72.2083 11.9515 863 142.475 1096.7 459.641
750 0 75.3158 13.1845 993 139.804 1096.33 459.283
751 0 79.2748 15.4021 1221 135.027 1095.77 458.549
752 0 79.3466 13.7498 1091 141.3 1094.91 454.042
753 0 82.2039 15.4616 1271 136.779 1093.97 450.528
754 0 84.5844 15.6294 1322 136.879 1093.3 449.843
755 0 88.24 16.8518 1487 133.109 1093.61 448.558
756 1 46.0888 13.257 611 135.455 1094.31 468.75
757 0 47.3344 10.1195 479 142.008 1094.49 468.432
758 0 49.1975 10.4274 513 141.91 1095.07 468.306
759 0 49.2281 14.5649 717 134.455 1095.51 462.81
760 0 52.1105 11.3989 594 137.774 1096.36 463.401
761 0 54.1642 13.0714 708 132.685 1096.33 462.151
762 0 54.331 13.6018 739 134.468 1098.4 460.811
763 0 56.3563 14.8342 836 129.249 1099.24 459.183
764 0 56.3591 14.5496 820 131.522 1101.3 459.676
765 0 59.1857 13.2464 784 135.8 1101.18 459.923
766 0 61.1186 15.5763 952 135.641 1103.82 461.192
767 0 61.0699 12.6576 773 141.268 1105.65 461.697
768 0 62.0987 13.704 851 143.625 1107.24 459
769 0 68.0789 15.5408 1058 136.025 1107.43 461.755
770 0 71.1805 18.6708 1329 132.031 1107.17 459.588
771 0 72.1609 13.6085 982 142.265 1108.12 460.81
772 0 72.0399 15.2971 1102 140.98 1108.02 461.273
773 0 75.0859 16.7275 1256 139.736 1108.38 460.803
774 0 78.2912 15.2252 1192 142.256 1107.13 462.023
775 0 80.1451 15.2848 1225 144.511 1106.57 458.55
776 0 83.0553 19.0355 1581 137.515 1104.5 459.564
777 0 86.0455 17.0259 1465 143.319 1102.72 456.554
778 1 48.0785 9.90048 476 149.828 1102.2 474.75
779 0 47.0553 12.1772 573 143.309 1100.6 476.475
780 0 48.0301 11.8259 568 145.465 1098.69 472.687
781 0 50.1551 11.8233 593 145.12 1097.2 471.644
782 0 49.078 12.6533 621 143.596 1095.79 471.623
783 0 51.1324 12.2036 624 144.883 1095.03 468.599
784 0 52.0993 14.1269 736 137.406 1090.7 464.967
785 0 56.1716 18.6749 1049 124.919 1089.69 466.411
786 0 55.2367 14.3021 790 131.439 1089.24 461.642
787 0 59.1014 17.5461 1037 124.517 1088.38 463.448
788 0 60.1512 14.4469 869 129.085 1087.77 460.891
789 0 60.0746 15.7637 947 128.075 1087.71 455.614
790 0 62.1525 15.3172 952 125.477 1088.05 458.879
791 0 64.2454 18.4916 1188 119.195 1088.82 459.798
792 0 68.6534 14.5951 1002 123.247 1089.07 455.393
793 0 69.1495 17.3682 1201 120.26 1090.51 453.172
794 0 72.1476 18.8087 1357 121.302 1091.57 452.809
795 0 73.225 17.1799 1258 120.529 1093.02 452.758
796 0 73.2221 16.5387 1211 125.917 1094.09 442.47
797 0 74.2204 16.3971 1217 125.615 1096.4 447.944
798 0 79.261 20.6028 1633 118.417 1098.11 446.246
799 0 80.0708 17.6469 1413 123.66 1099.82 444.058
800 0 82.1431 15.8504 1302 129.743 1100.47 445.009
801 0 84.1914 20.6553 1739 123.321 1102.4 438.189
802 0 87.1661 21.7057 1892 123.48 1103.58 439.11
803 0 87.3697 23.5207 2055 122.525 1105.27 444.348
804 0 87.2907 14.7438 1287 138.454 1105.35 441.657
805 0 93.1926 15.1085 1408 136.283 1105.42 444.777
806 1 47.0454 13.3488 628 144.401 1104.63 465.553
807 0 50.0767 12.1014 606 141.736 1105.64 465.97
808 0 53.3234 12.7899 682 137.913 1106.28 466.466
809 0 55.2951 18.9348 1047 125.304 1106.31 461.957
810 0 53.3973 12.5287 669 138.788 1105.56 462.419
811 0 58.1453 15.2377 886 132.946 1105.66 466.139
812 0 61.1602 14.9444 914 134.199 1104.59 463.551
813 0 62.298 17.2397 1074 132.965 1103.05 460.823
814 0 65.5674 20.3607 1335 125.512 1101.8 465.082
815 0 62.1218 13.1516 817 142.894 1100.57 458.408
816 0 67.1655 15.3948 1034 137.79 1099.72 457.946
817 0 70.149 18.5605 1302 128.366 1097.95 457.729
818 0 70.1113 16.3882 1149 139.409 1097.44 454.59
819 0 73.3501 18.0368 1323 133.895 1096.85 453.469
820 0 75.1824 18.1558 1365 134.024 1096.14 451.88
821 0 76.2843 19.8599 1515 131.452 1095.04 451.692
822 0 82.2957 17.5343 1443 134.895 1095.48 448.49
823 0 81.6397 16.3891 1338 138.534 1095.11 443.585
824 0 85.2248 17.2016 1466 134.654 1095.77 442.198
825 0 87.6018 17.3398 1519 135.496 1096.21 434.411
826 1 48.2115 12.9015 622 139.159 1097.49 456.273
827 0 56.4978 12.7616 721 133.372 1098.48 459.25
828 0 51.4958 13.0884 674 135.254 1098.73 457.617
829 0 51.6282 11.8346 611 139.227 1101.4 457.825
830 0 54.5643 13.507 737 133.805 1101.07 454.236
831 0 60.1836 17.8454 1074 121.954 1105.11 460
832 0 58.1788 18.8041 1094 122.102 1105.6 458.674
833 0 61.3546 15.5164 952 127.527 1107.19 455.205
834 0 62.636 19.0146 1191 124.272 1109.68 455.349
835 0 63.2909 13.9041 880 130.284 1109.49 451.861
836 0 68.3681 17.0109 1163 121.461 1111.21 455.087
837 0 68.329 15.2205 1040 130.103 1110.65 453.355
838 0 72.6196 17.6123 1279 127.409 1110.63 453.352
839 0 74.4128 14.8093 1102 132.563 1110.56 454.913
840 0 77.4415 15.728 1218 135.47 1110.6 456.356
841 0 80.5492 16.1268 1299 136.328 1110.41 456.373
842 0 81.1637 12.8752 1045 149.449 1110.26 454.947
843 0 85.4615 16.3934 1401 148.293 1108.03 452.538
844 1 48.4386 9.68235 469 151.546 1107.5 476.499
845 0 49.2697 12.6244 622 151.219 1106 469.545
846 0 50.2632 12.8325 645 154.071 1104.27 469.254
847 0 51.4057 12.3333 634 154.998 1102.82 466.2
848 0 54.1724 14.4539 783 143.475 1099.58 467.335
849 0 56.3004 15.5772 877 139.58 1097.87 469.707
850 0 59.3511 15.2314 904 139.072 1096.36 467.369
851 0 57.2338 12.2131 699 147.605 1095.22 463.529
852 0 61.2737 14.9819 918 141.295 1095.56 461.199
853 0 63.2438 15.7328 995 138.219 1094.73 461.791
854 0 65.5394 15.1664 994 138.335 1094.25 461.989
855 0 67.3028 15.4377 1039 137.796 1093.61 457.458
856 0 69.2394 17.5478 1215 135.122 1093.74 454.275
857 0 74.2958 13.4059 996 140.289 1093.94 451.47
858 0 76.617 14.0308 1075 139.406 1093.77 449.487
859 0 78.3798 13.4984 1058 138.744 1094.61 450.163
860 0 81.4504 14.6224 1191 138 1095.29 446.285
861 1 43.3508 14.9248 647 129.564 1096.13 466.917
862 0 45.2778 12.8981 584 132.943 1097.34 464.42
863 0 46.3359 14.1791 657 131.58 1099.63 459.836
864 0 51.4931 16.2352 836 125.075 1101.06 463.843
865 0 51.2675 16.8528 864 123.238 1102.03 463.038
866 0 52.3715 16.4211 860 125.608 1103.07 460.636
867 0 52.4404 13.768 722 130.756 1104.81 461.857
868 0 53.2564 13.4444 716 136.577 1105.37 460.154
869 0 55.2256 17.2022 950 129.391 1105.71 461.558
870 0 56.1906 15.9813 898 137.383 1105.73 460.235
871 0 57.3629 12.4122 712 143.913 1105.87 460.462
872 0 59.155 14.7409 872 140.518 1105.94 460.886
873 0 60.2146 13.7674 829 142.879 1106.03 461.877
874 0 64.3805 15.0667 970 139.828 1105.95 461.148
875 0 63.2866 13.984 885 144.936 1105.5 461.815
876 0 68.1977 16.5108 1126 138.291 1104.13 462.075
877 0 69.3493 15.7752 1094 139.487 1103.03 460.241
878 0 69.4141 15.2995 1062 144.224 1101.91 457.577
879 0 75.5192 18.9223 1429 134.645 1101.37 458.857
880 0 77.6098 16.9824 1318 138.73 1099.41 456.168
881 0 79.355 15.2101 1207 142.391 1097.61 452.599
882 0 82.5479 16.7903 1386 137.896 1096.68 455.291
883 0 81.5275 13.4065 1093 146.413 1095.33 451.122
884 0 88.0036 16.5675 1458 137.392 1094.58 445.661
885 0 90.8215 15.7562 1431 138.327 1094.18 445.334
886 1 48.4342 9.47678 459 144.706 1093.25 464.292
887 0 49.5207 12.621 625 139.406 1094 463.158
888 0 49.4575 13.2235 654 137.688 1093.06 458.751
889 0 52.6397 11.4552 603 141.453 1093.5 457.602
890 0 57.512 15.0925 868 126.926 1093.75 457.187
891 0 51.348 11.8992 611 135.517 1093.52 454.206
892 0 55.1598 13.4337 741 134.417 1094.82 454.209
893 0 59.0909 15.3154 905 127.939 1095.02 452.89
894 0 63.106 15.2759 964 125.829 1096.64 454.154
895 0 64.151 16.2429 1042 125.645 1097.76 450.934
896 0 67.2234 15.3667 1033 126.918 1099.17 450.166
897 0 67.1421 13.1363 882 126.314 1101.47 449.092
898 0 69.1093 15.2512 1054 124.806 1103.23 445.198
899 0 73.1415 16.1468 1181 123.095 1105.21 447.136
900 0 75.5095 14.3426 1083 123.288 1105.95 446.552
901 0 77.3128 14.6677 1134 127.179 1106.82 446.995
902 0 81.1082 18.8514 1529 118.733 1107.42 448.34
903 0 88.8198 16.2126 1440 122.138 1108.6 451.41
904 0 85.2866 16.9311 1444 126.06 1109.56 441.972
905 1 44.1439 12.7991 565 131.405 1110.02 467.867
906 0 48.0395 11.6363 559 127.714 1109.34 466.912
907 0 49.1112 12.1154 595 135.178 1109.26 467.025
908 0 51.2227 15.0129 769 131.641 1108.11 466.276
909 0 54.5214 13.2425 722 138.044 1107.31 465.27
910 0 54.2962 13.2238 718 141.06 1105.81 464.253
911 0 58.3166 16.6676 972 133.13 1106.07 463.219
912 0 61.3141 16.4889 1011 134.018 1104.57 461.951
913 0 61.2917 16.3154 1000 137.193 1103.24 462.295
914 0 61.2 14.0033 857 142.404 1101.84 462.247
915 0 65.2875 16.0674 1049 136.018 1100.62 457.341
916 0 68.4051 17.4256 1192 133.867 1099.3 455.614
917 0 69.2864 14.938 1035 140.992 1097.35 453.567
918 0 72.1971 16.8982 1220 134.139 1097.06 453.677
919 0 74.386 13.8198 1028 139.833 1096.26 449.487
920 0 79.2824 16.725 1326 132.262 1095.68 450.419
921 0 79.4716 17.3521 1379 132.723 1095.65 443.309
922 1 42.425 10.0413 426 140.362 1096.02 466.915
923 0 46.2066 11.8381 547 133.404 1095.45 464.024
924 0 44.4004 12.7702 567 133.582 1094.86 460.594
925 0 48.5368 13.6391 662 133.644 1095.76 455.325
926 0 49.372 13.6312 673 132.336 1095.74 454.364
927 0 48.2186 11.3027 545 134.862 1095.54 454.444
928 0 53.3706 13.247 707 137.511 1099.34 457.263
929 0 55.2089 12.987 717 137.615 1100.66 456.371
930 0 54.3122 13.2567 720 136.283 1102.5 453.188
931 0 57.3462 15.3803 882 126.711 1104.12 453.596
932 0 57.2513 10.4801 600 134.998 1105.91 456.383
933 0 61.557 12.2488 754 128.256 1107.05 454.87
934 0 66.7323 13.8314 923 123.876 1108.24 453.681
935 0 64.3591 12.8187 825 128.228 1109.51 453.387
936 0 69.3349 26.7686 1856 108.58 1108.87 456.419
937 0 69.6593 12.8626 896 128.337 1110.35 453.729
938 0 72.4482 10.7525 779 128.203 1111.12 455.237
939 0 76.308 12.384 945 127.179 1110.11 451.129
940 0 76.4212 14.3546 1097 129.26 1109.7 449.474
941 0 78.3028 13.8054 1081 132.167 1109.02 448.759
942 0 85.39 14.8729 1270 128.492 1108.67 450.372
943 0 80.4616 11.5707 931 137.367 1106.83 446.289
944 0 84.5921 14.2566 1206 133.691 1105.97 445.961
945 0 86.4305 11.5353 997 137.756 1105.05 442.384
946 0 89.8547 15.1244 1359 132.074 1103.81 442.996
947 0 93.4789 13.8962 1299 134.971 1102.37 442.065
948 0 96.7347 15.6821 1517 131.102 1100.99 440.993
949 0 99.6613 15.7734 1572 129.611 1099.35 441.113
950 0 100.553 10.9892 1105 140.819 1098.73 433.357
951 1 54.5022 9.68768 528 130.333 1099.16 460.985
952 0 53.4659 13.1112 701 126.864 1098.16 458.411
953 0 57.3978 12.9448 743 122.328 1097.51 458.489
954 0 59.5654 13.0445 777 134.605 1097 454.024
955 0 60.2857 14.5142 875 132.09 1096.18 450.744
956 0 62.3213 12.2109 761 135.548 1096.53 451.51
957 0 63.2936 13.6349 863 132.557 1094.76 452.214
958 0 65.4882 13.9567 914 131.327 1096.78 450.518
959 0 67.2105 14.8191 996 131.659 1095.67 447.068
960 0 69.2096 14.3333 992 133.324 1096.52 442.786
961 0 71.6461 13.4131 961 133.287 1098.43 443.282
962 0 74.5951 14.7195 1098 130.463 1099.82 442.112
963 0 75.2652 14.4954 1091 131.074 1101.42 438.638
964 0 77.514 13.0041 1008 134.144 1103.93 437.905
965 0 81.2684 12.3787 1006 129.561 1106.5 435.062
966 0 82.6648 15.3874 1272 126.83 1107.42 436.866
967 0 82.4244 12.7753 1053 131.894 1108.95 432.272
968 0 89.4825 13.7904 1234 129.735 1109.7 438.829
969 0 92.489 12.0663 1116 133.047 1110.99 436.793
970 0 94.512 13.6808 1293 129.022 1111.08 437.664
971 0 96.0181 13.4454 1291 131.777 1110.86 436.487
972 0 99.7581 14.4349 1440 132.894 1110.83 438.298
973 0 104.842 16.8826 1770 131.57 1109.89 434.001
974 1 56.4287 10.9873 620 130.271 1110.88 460.406
975 0 60.4395 11.6149 702 136.16 1109.22 455.977
976 0 60.3767 15.3039 924 130.677 1108.93 458.185
977 0 62.4058 11.8418 739 136.248 1106.84 454.575
978 0 66.1442 12.4879 826 130.189 1105.77 454.742
979 0 66.0945 10.1975 674 140.921 1105.08 453.218
980 0 71.39 12.7889 913 133.042 1103.1 451.723
981 0 71.2157 10.9667 781 134.517 1101.69 448.052
982 0 74.1751 11.9447 886 133.047 1100.39 448.889
983 0 78.2579 13.7877 1079 130.905 1100.11 445.945
984 0 80.1456 12.627 1012 134.904 1098.49 443.85
985 0 84.2601 14.3959 1213 131.688 1097.12 439.289
986 0 88.1898 16.3738 1444 127.368 1096.28 437.227
987 0 89.3233 13.4791 1204 131.287 1096.46 439.009
988 0 91.22 14.8104 1351 130.774 1096.16 435.515
989 0 98.3004 17.5788 1728 123.654 1096.33 435.865
990 0 97.3451 12.8717 1253 133.847 1094.86 431.314
991 0 102.453 16.6613 1707 128.147 1096.04 428.218
992 1 55.297 13.8344 765 122.805 1097.95 453.877
993 0 58.3055 15.9676 931 117.996 1097.62 452.562
994 0 54.5887 10.2402 559 133.623 1098.31 447.102
995 0 57.4169 10.5718 607 126.745 1099.98 448.084
996 0 68.7466 13.9207 957 120.929 1102.14 451.218
997 0 63.0547 14.6857 926 123.545 1103.43 448.626
998 0 64.0693 13.9693 895 121.86 1105.9 448.536
999 0 66.252 17.3278 1148 120.944 1106.28 446.254
1000 0 73.177 13.6655 1000 120.035 1107.97 447.398
1001 0 81.8218 15.8271 1295 113.107 1110.18 448.966
1002 0 73.5317 12.4572 916 122.731 1110.49 443.063
1003 0 77.2035 17.3179 1337 110.954 1110.75 441.094
1004 0 81.3889 19.9659 1625 109.215 1111.26 448.1
1005 0 87.1978 14.6334 1276 116.027 1111.46 449.966
1006 0 86.4765 17.9818 1555 116.568 1110.76 445.648
1007 0 88.1787 16.2965 1437 119.879 1110.03 450.197
1008 0 90.2153 13.7227 1238 128.82 1109.49 441.094
1009 1 50.1781 11.4791 576 126.092 1107.63 467.095
1010 0 55.285 8.98978 497 130.008 1105.97 468.67
1011 0 51.198 12.481 639 132.787 1105.03 464.955
1012 0 53.1369 13.9075 739 130.039 1103.25 464.241
1013 0 57.1942 13.6203 779 127.866 1103.06 465.525
1014 0 53.0771 11.0971 589 137.941 1101.27 464.53
1015 0 58.272 13.334 777 132.071 1101.57 464.49
1016 0 60.6203 14.5166 880 127.543 1100.93 462.616
1017 0 60.4632 13.6116 823 136.362 1100.25 459.235
1018 0 62.4528 16.6366 1039 130.941 1098.95 457.868
1019 0 64.4803 15.369 991 134.56 1098.15 457.513
1020 0 65.2529 11.9535 780 141.495 1097.54 457.881
1021 0 67.4141 16.9549 1143 135.173 1096.43 453.838
1022 0 70.3405 17.0883 1202 132.749 1095.23 453.805
1023 0 72.2527 13.9787 1010 140.576 1094.6 451.053
1024 0 73.341 13.7031 1005 141.624 1092.21 447.22
1025 0 76.2084 14.4735 1103 146.379 1091.87 445.759
1026 0 75.0635 14.4145 1082 153.662 1092.22 448.979
1027 0 78.042 14.7357 1150 153.243 1092.91 447.61
1028 1 43.0482 11.6846 503 152.658 1093.44 466.256
1029 0 43.0867 10.8386 467 154.771 1094.82 467.188
1030 0 44.0594 13.4137 591 150.054 1096.42 465.232
1031 0 44.023 13.6065 599 152.109 1097.68 462.738
1032 0 46.2701 14.2641 660 147.612 1101.13 466.765
1033 0 45.0955 12.8616 580 155.679 1102.22 464.393
1034 0 49.0986 15.4994 761 143.281 1104.35 467.286
1035 0 48.1081 12.3472 594 152.34 1103.76 466.736
1036 0 48.0819 13.6642 657 151.718 1105.75 467.772
1037 0 46.0195 12.0818 556 154.171 1105.03 468.3
1038 0 49.0755 13.0615 641 152.073 1104.55 469.418
1039 0 49.0325 13.0933 642 152.93 1105.22 470.118
1040 0 52.0345 14.3366 746 148.804 1104.87 472.068
