time division length width area intensity CMx CMy
0 0 69.6809 16.7621 1168 133.844 1196.31 433.022
1 0 69.4596 12.0934 840 140.561 1195.57 436.532
2 0 69.4596 12.079 839 140.34 1194.59 436.557
3 0 69.6809 16.7621 1168 132.98 1193.31 433.022
4 0 69.6809 16.7621 1168 132.967 1191.31 433.022
5 0 80.34 15.1232 1215 113.407 1199.83 436.798
6 0 82.5273 26.6336 2198 107.022 1199.67 434.333
7 0 85.4693 13.069 1117 114.92 1199.56 435.655
8 1 183.184 21.2573 3894 116.723 1198.37 392.485
9 0 186.523 22.7854 4250 114.327 1197.21 401.02
10 0 189.17 13.1734 2492 124.471 1196.51 393.384
11 1 157.485 18.5351 2919 116.429 1195.39 417.793
12 0 159.687 13.6956 2187 125.043 1194.92 404.663
13 1 103.572 14.8786 1541 122.19 1194.03 433.609
14 0 108.365 14.7465 1598 121.774 1193.66 438.398
15 1 61.3549 11.7187 719 139.167 1192.2 449.431
16 0 65.1596 10.5894 690 142.435 1190.86 453.367
17 0 67.1902 11.6684 784 144.126 1189.04 450.638
18 0 69.2059 14.5363 1006 140.257 1188.14 447.598
19 0 71.2098 14.057 1001 146.651 1187.05 443.181
20 0 74.1927 13.6671 1014 140.079 1186.33 441.756
21 0 76.2314 12.6851 967 140.711 1184.59 444.585
22 0 79.2458 16.8716 1337 135.612 1184.18 436.102
23 0 81.1532 13.9859 1135 140.172 1183.94 438.553
24 0 83.2491 15.0993 1257 139.228 1183.85 436.173
25 0 86.2454 20.488 1767 125.634 1183.58 439.403
26 0 88.2567 12.7922 1129 138.942 1182.5 430.113
27 0 92.1601 18.1857 1676 128.495 1183.39 427.012
28 0 95.7627 15.4235 1477 130.394 1183.45 426.722
29 0 95.4617 12.5076 1194 131.092 1184.74 423.235
30 0 100.337 17.0425 1710 122.732 1187.33 424.824
31 0 104.365 14.8805 1553 119.55 1189.1 426.811
32 0 112.285 15.0866 1694 114.841 1189.6 427.649
33 0 114.426 22.8269 2612 107.209 1191.06 428.489
34 0 115.876 23.9566 2776 108.089 1192.01 419.305
35 0 117.607 15.3732 1808 113.558 1195.03 413.919
36 0 125.658 19.8157 2490 107.781 1195.6 423.799
37 0 134.084 18.0335 2418 108.096 1196.6 426.572
38 1 76.2882 28.3268 2161 99.5345 1196.17 447.992
39 0 65.6493 11.7747 773 114.177 1196.71 442.376
40 0 72.4646 30.7874 2231 97.7624 1196.74 451.659
41 0 73.3852 9.78399 718 110.666 1197 451.274
42 0 76.7096 19.3326 1483 104.896 1195.11 450.249
43 0 75.4568 16.3007 1230 112.344 1194.64 447.857
44 0 79.5153 14.601 1161 122.617 1194.04 445.216
45 0 77.3804 13.2979 1029 131.33 1193.53 446.365
46 0 82.2782 14.9736 1232 130.773 1192.29 448.946
47 0 86.5382 15.3227 1326 132.731 1191.3 442.265
48 0 85.2561 13.1486 1121 142.32 1189.24 440.032
49 0 91.3178 14.9478 1365 142.662 1187.41 439.892
50 0 91.3344 14.8684 1358 146.367 1184.43 439.954
51 0 95.1749 13.7957 1313 146.638 1184.39 436.615
52 1 47.1424 7.5728 357 148.266 1185.17 462.793
53 0 49.1241 10.3208 507 146.083 1183.57 456.142
54 0 52.1777 12.8599 671 142.621 1182.55 451.241
55 0 56.2742 12.8656 724 136.986 1181.65 455.088
56 0 56.2391 12.1446 683 137.687 1181.47 452.324
57 0 60.3567 14.3149 864 130.856 1181.12 448.47
58 0 61.3652 11.7493 721 139.614 1182.32 450.614
59 0 64.4843 12.0649 778 133.451 1180.62 449.527
60 0 66.4084 12.8448 853 135.141 1180.34 444.26
61 0 67.3035 14.0706 947 131.258 1180.69 446.432
62 0 72.2044 14.1127 1019 130.414 1180.93 438.809
63 0 75.3368 13.3268 1004 129.397 1182.74 440.552
64 0 77.3623 12.1765 942 132.824 1184.42 437.011
65 0 82.671 14.721 1217 124.745 1185.92 438.036
66 0 80.9827 15.5836 1262 122.12 1187.13 434.469
67 0 85.6145 18.6884 1600 107.681 1189.02 440.624
68 0 89.9011 21.5459 1937 106.303 1190.66 428.175
69 0 94.1271 29.2264 2751 101.229 1190.94 429.529
70 1 190.24 20.8369 3964 108.347 1192.5 392.47
71 0 192.715 23.9058 4607 106.393 1192.79 388.772
72 1 53.432 11.903 636 107.256 1194.53 451.03
73 0 57.5861 25.2492 1454 98.3453 1193.42 453.904
74 0 61.842 14.6017 903 105.081 1194.21 454.736
75 0 61.2147 17.1854 1052 102.606 1194.13 457.953
76 0 63.4064 18.547 1176 104.419 1193.61 458.454
77 0 63.3585 15.2466 966 112.756 1192.31 453.862
78 0 64.2417 12.8577 826 121.483 1191.87 455.843
79 0 64.4443 12.4293 801 127.755 1191.01 452.002
80 0 68.1044 14.7861 1007 123.749 1189.95 453.097
81 0 69.4103 12.9088 896 133.977 1188.24 451.119
82 0 69.4103 12.9664 900 140.053 1186.25 451.111
83 0 76.2464 15.0958 1151 130.389 1186.04 449.878
84 0 76.4227 16.6574 1273 131.04 1183.37 445.759
85 0 79.4878 17.2479 1371 132.308 1181.77 442.805
86 0 82.7716 15.6817 1298 136.502 1180.43 441.38
87 0 83.8305 15.1496 1270 135.968 1180.18 438.924
88 0 89.7694 15.8517 1423 133.151 1179.83 436.256
89 0 91.6682 14.9452 1370 139.777 1179.32 430.99
90 1 45.4353 8.40756 382 141.482 1179.54 455.531
91 0 48.7168 11.7208 571 135.527 1178.51 452.972
92 0 50.836 12.3141 626 137.923 1178.91 449.74
93 0 50.836 12.2944 625 143.742 1178.92 449.75
94 0 52.2912 13.5778 710 135.076 1179.4 449.297
95 0 52.3388 13.5655 710 134.687 1179.1 449.663
96 0 52.6254 11.9524 629 138.262 1181.46 449.283
97 0 56.9187 12.755 726 131.868 1182.6 446.939
98 0 56.9187 12.7199 724 147.388 1183.58 446.927
99 0 64.1746 14.9124 957 125.3 1185.53 446.84
100 0 66.3613 15.28 1014 114.178 1187.7 446.454
101 0 66.0509 18.4101 1216 106.59 1189.14 449.92
102 0 73.5818 12.5303 922 107.896 1191.43 448.002
103 0 80.8654 22.6797 1834 102.029 1192.09 443.128
104 0 75.9643 15.086 1146 106.966 1193.97 448.184
105 0 75.2256 16.1647 1216 107.614 1193.44 448.542
106 0 82.8479 15.7276 1303 111.214 1194.48 436.052
107 0 80.6227 16.1369 1301 108.916 1194.44 445.453
108 0 83.7247 16.2795 1363 111.078 1193.38 441.562
109 0 91.2664 16.9833 1550 109.822 1193.3 442.446
110 0 90.1731 19.7953 1785 111.699 1192.35 434.853
111 0 100.156 20.6378 2067 108.067 1192.34 446.326
112 0 93.9439 14.8599 1396 119.62 1191.63 438.095
113 0 92.7617 11.4487 1062 133.678 1190.58 434.837
114 0 95.6822 13.2313 1266 134.793 1189.72 431.758
115 1 50.3791 8.1383 410 134.51 1189.48 460.356
116 0 50.5394 10.3286 522 137.644 1187.38 453.32
117 0 55.3401 14.5645 806 129.636 1186.54 454.77
118 0 57.2602 16.1543 925 132.564 1184.96 453.588
119 0 58.2997 13.1562 767 134.488 1181.13 457.574
120 0 58.2376 10.8864 634 142.208 1179.89 453.759
121 0 61.2764 12.2723 752 139.218 1178.78 451.48
122 0 66.5162 15.3045 1018 132.712 1177.85 450.085
123 0 68.2418 13.5987 928 135.739 1177.1 447.254
124 0 68.2016 14.7504 1006 135.387 1176.38 445.716
125 0 71.2483 13.4038 955 137.976 1176.19 443.198
126 0 74.3489 14.97 1113 135.723 1175.88 441.874
127 0 79.2077 17.6119 1395 130.265 1175.67 439.508
128 0 80.333 19.4067 1559 128.443 1175.77 438.812
129 0 81.2709 15.1346 1230 136.594 1177.13 437.513
130 0 83.5116 15.3751 1284 133.071 1178.8 437.321
131 0 84.936 13.6573 1160 136.009 1181.22 429.735
132 0 88.8233 19.2855 1713 123.597 1181.46 430.024
133 0 94.9443 16.9573 1610 124.505 1184.1 426.471
134 0 95.0488 18.0749 1718 125.205 1186.36 429.349
135 0 95.0488 18.2327 1733 129.533 1188.33 429.5
136 1 60.6695 12.7247 772 114.773 1189.78 451.538
137 0 65.8369 14.1106 929 114.988 1190.5 446.478
138 0 63.3656 10.9365 693 117.062 1191.27 449.789
139 0 63.3861 11.2959 716 117.221 1192.61 455.912
140 0 67.2337 23.0242 1548 111.335 1191.47 455.454
141 0 68.5412 13.2475 908 123.859 1191.74 452.389
142 0 67.3982 13.3831 902 129.519 1191.54 452.216
143 0 70.3599 15.7476 1108 127.009 1191.88 453.06
144 0 73.4145 15.9505 1171 135.466 1190.44 448.715
145 0 73.3369 13.3221 977 141.654 1189.86 450.51
146 0 72.3344 14.9998 1085 147.405 1189.81 452.222
147 0 78.1436 15.6507 1223 139.218 1187.15 446.878
148 0 78.1436 15.5483 1215 149.898 1185.17 446.833
149 0 81.4136 13.6587 1112 144.227 1184.68 441.352
150 0 84.4398 13.0507 1102 143.488 1182.18 439.142
151 1 43.2087 9.18797 397 140.766 1179.64 458.159
152 0 46.186 11.6052 536 135.491 1179.28 454.948
153 0 47.1923 10.5102 496 133.258 1177.64 456.129
154 0 47.1876 10.6384 502 126.986 1176.65 456.225
155 0 53.5901 13.6033 729 141.376 1176.44 456.679
156 0 51.5939 12.986 670 146.63 1175.27 458.136
157 0 52.2763 12.2044 638 147.745 1176.02 452.122
158 0 58.5051 14.5628 852 141.06 1175.72 452.879
159 0 58.5885 13.1596 771 144.484 1174.63 450.327
160 0 62.6064 14.1998 889 139.189 1174.54 447.663
161 0 62.5626 12.4196 777 142.089 1175.67 447.157
162 0 65.2878 14.7041 960 133.693 1175.82 444.974
163 0 64.731 12.6524 819 136.39 1175.54 441.751
164 0 71.7139 17.1096 1227 125.296 1177.33 442.998
165 0 73.6708 19.0442 1403 120.233 1179.26 443.393
166 0 73.6832 16.0416 1182 132.647 1181.24 440.815
167 0 76.6969 16.5065 1266 119.261 1182.12 437.853
168 0 79.3456 13.1072 1040 119.871 1184.69 439.379
169 0 87.8794 13.0292 1145 118.551 1186.38 437.243
170 0 87.5802 13.5533 1187 117.756 1187.26 435.635
171 0 91.9933 18.8818 1737 126.721 1188.31 441.331
172 0 90.4329 24.7919 2242 103.42 1187.8 443.052
173 0 96.5468 21.2747 2054 107.03 1188.71 437.705
174 0 99.3326 21.9767 2183 107.604 1188.7 432.721
175 0 101.657 7.74175 787 120.546 1189.25 433.001
176 1 53.358 11.5634 617 116.044 1187.45 461.274
177 0 53.3768 10.3228 551 119.998 1187.04 460.855
178 0 57.579 16.0823 926 116.035 1187.22 456.849
179 0 62.057 20.175 1252 111.326 1187.25 458.127
180 0 56.8303 11.0329 627 124.955 1185.05 462.432
181 0 58.6057 12.4561 730 126.345 1184.11 463.056
182 0 58.5836 13.6557 800 134.659 1183.24 462.006
183 0 60.5088 11.2215 679 136.551 1182.04 458.06
184 0 62.6574 15.2895 958 130.804 1180.9 458.117
185 0 67.4194 13.8981 937 133.438 1179.31 455.919
186 0 67.752 14.3169 970 134.656 1178.24 452.012
187 0 70.5455 16.259 1147 136.782 1177.17 451.871
188 0 72.3483 15.0384 1088 129.113 1176.77 448.153
189 0 71.2212 12.735 907 135.286 1174.46 445.386
190 0 75.8196 14.0993 1069 131.129 1173.71 447.282
191 0 77.8634 14.6796 1143 129.471 1174.5 442.336
192 0 80.6525 12.0517 972 135.326 1174.7 440.775
193 1 44.1932 13.1921 583 126.925 1174.41 456.935
194 0 46.715 11.5381 539 126.946 1174.16 457.692
195 0 53.0133 11.0727 587 124.175 1175.6 458.135
196 0 48.3884 9.67173 468 128.5 1176.53 456.357
197 0 50.5426 9.65522 488 124.59 1177.06 456.719
198 0 54.4535 8.06193 439 124.328 1178.28 456.433
199 0 56.5753 13.239 749 116.527 1179.15 456.312
200 0 60.4097 20.2451 1223 110.855 1179.4 452.597
201 0 57.182 10.1431 580 116.945 1182.7 453.217
202 0 62.4088 14.0525 877 112.186 1184.24 452.243
203 0 62.4088 14.1006 880 130.333 1186.27 452.267
204 0 64.479 9.64655 622 111.32 1187.2 457.243
205 0 65.2441 20.7375 1353 104.942 1187.78 450.123
206 1 131.717 17.8488 2351 111.238 1187.81 429.532
207 1 69.3708 17.0389 1182 106.314 1188.7 454.055
208 0 72.5016 22.5926 1638 103.105 1187.51 454.716
209 0 75.535 14.6819 1109 110.197 1187.23 450.344
210 0 78.5323 22.564 1772 104.407 1187.15 452.06
211 0 78.4512 26.9467 2114 103.326 1186.18 450.392
212 0 77.5096 13.1726 1021 114.517 1186.34 455.358
213 0 80.2555 15.0768 1210 116.079 1185.2 448.975
214 0 82.3957 11.736 967 118.807 1184.33 451.258
215 0 84.5595 10.2058 863 121.987 1182.93 453.739
216 1 46.0965 11.4325 527 118.871 1183.03 468.311
217 0 46.186 11.497 531 122.614 1182.92 467.032
218 0 49.15 13.5097 664 122.378 1181.56 461.741
219 0 52.121 18.457 962 113.681 1179.99 466.229
220 0 50.2844 12.1111 609 123.576 1179.35 460.918
221 0 51.345 9.6991 498 130.667 1177.2 461.1
222 0 54.1041 13.474 729 124.41 1175.92 459.999
223 0 56.2855 16.7539 943 120.407 1173.82 456.778
224 0 59.1831 14.8522 879 122.542 1172.96 457.04
225 0 59.309 14.6352 868 124.041 1172.67 454.434
226 0 61.1546 15.191 929 124.46 1172.02 450.467
227 0 62.1833 14.216 884 131.044 1171.61 452.55
228 0 62.2419 12.8531 800 137.611 1171.51 449.176
229 0 66.474 15.7054 1044 129.585 1171.78 445.658
230 0 69.3102 14.4135 999 128.987 1173.08 443.378
231 0 69.2441 12.1599 842 128.828 1172.75 444.502
232 0 72.3365 12.511 905 127.756 1175.06 441.766
233 0 78.2728 13.6829 1071 125.847 1176.91 442.799
234 1 41.1909 7.64731 315 126.873 1178.59 462.102
235 0 44.0995 12.6759 559 123.438 1179.96 455.721
236 0 44.0995 12.7439 562 135.722 1181 455.742
237 0 48.4309 13.1941 639 116.322 1185.92 455.244
238 0 49.7218 10.9409 544 116.322 1187.06 458.322
239 0 55.8252 12.4496 695 112.878 1187.75 463.812
240 0 52.1498 18.4469 962 109.681 1185.83 456.689
241 0 57.629 10.2726 592 108.948 1186.18 460.976
242 0 60.137 16.5622 996 106.249 1186.68 452.874
243 0 58.6405 14.6656 860 112.531 1186.38 456.343
244 0 58.1574 17.401 1012 110.651 1185.66 457.072
245 0 58.1287 13.0572 759 119.742 1185.03 456.339
246 0 61.2507 14.6121 895 119.84 1184.09 457.727
247 0 63.078 13.6656 862 121.52 1182.24 459.215
248 0 63.1209 11.8344 747 127.319 1181.49 460.079
249 0 66.1942 16.1343 1068 123.269 1183.4 455.798
250 0 67.3179 14.8697 1001 126.446 1181.68 451.229
251 0 66.2532 13.0107 862 132.617 1180.58 447.615
252 0 69.3785 13.52 938 134.145 1178.91 446.329
253 0 73.1884 14.1552 1036 133.511 1177 447.884
254 0 73.2519 15.3716 1126 133.979 1175.02 442.678
255 0 75.2204 14.7965 1113 135.844 1173.86 441.645
256 0 78.3714 13.5126 1059 138.157 1172.72 439.341
257 0 78.3644 13.4755 1056 146.544 1171.74 439.311
258 1 43.0919 9.97867 430 141.758 1170.23 462.235
259 0 48.2501 16.0414 774 128.523 1170.24 462.105
260 0 47.1307 15.022 708 130.089 1171.48 461.274
261 0 48.1018 13.1596 633 135.57 1170.82 457.019
262 0 50.13 13.7642 690 131.275 1171.02 457.551
263 0 52.1131 18.4599 962 124.992 1172.39 454.276
264 0 53.0656 13.5304 718 133.132 1173.07 452.677
265 0 55.1697 15.407 850 129.327 1174.27 449.972
266 0 58.0818 18.5945 1080 121.907 1176.4 448.583
267 0 60.1423 15.4301 928 123.812 1177.98 448.677
268 0 59.1381 12.6314 747 129.863 1179.71 449.191
269 0 62.2039 16.7514 1042 119.549 1181.48 444.631
270 0 64.1359 18.0554 1158 115.041 1183.5 447.934
271 0 67.1857 16.7 1122 114.763 1184.66 447.692
272 0 69.354 17.0286 1181 117.034 1185.62 444.986
273 0 72.1034 15.6719 1130 117.386 1185.91 449.7
274 0 72.1657 13.6353 984 126.089 1185.54 446.909
275 0 77.0918 18.6401 1437 116.461 1185.82 448.955
276 0 80.1194 22.1669 1776 113.816 1185.92 450.717
277 1 44.127 12.5547 554 130.088 1185.09 461.919
278 0 44.061 13.7536 606 123.525 1184.97 465.485
279 0 40.0969 10.6492 427 129.511 1184.57 462.878
280 0 46.0636 16.3253 752 121.177 1183.75 464.211
281 0 50.3746 12.4269 626 126.502 1182.31 464.843
282 0 50.197 14.3236 719 124.409 1181.6 462.648
283 0 50.0995 13.2536 664 128.068 1180.07 460.357
284 0 51.0744 13.5097 690 126.345 1179.36 463.528
285 0 54.1663 13.4216 727 126.924 1177.42 465.154
286 0 53.2724 15.5803 830 123.511 1176.38 463.463
287 0 55.391 13.8109 765 126.997 1175.34 462.303
288 0 60.2426 15.8858 957 122.886 1173.98 458.764
289 1 118.472 16.2571 1926 127.577 1171.79 431.481
290 0 121.962 11.8971 1451 132.725 1171.25 429.138
291 0 125.136 12.0589 1509 134.052 1171.61 423.703
292 0 130.173 12.299 1601 129.899 1170.83 426.814
293 1 70.3554 14.0714 990 124.6 1170.98 452.194
294 0 71.3617 14.4615 1032 124.287 1171.02 449.089
295 0 76.3764 14.9784 1144 122.272 1171.92 447.676
296 1 39.1828 9.49396 372 124.409 1170.71 466.715
297 0 42.6589 12.0256 513 119.398 1172.9 464.624
298 0 42.6589 12.1897 520 138.41 1175.02 464.752
299 0 41.1531 13.8264 569 119.807 1175.61 458.395
300 0 45.1011 10.8645 490 119.759 1177.36 462.698
301 0 45.23 12.337 558 118.645 1180.74 462.073
302 0 47.402 14.2188 674 115.513 1183.2 456.939
303 0 52.1552 21.0525 1098 105.961 1184.44 460.274
304 0 52.1355 21.0413 1097 106.085 1185.85 461.329
305 0 52.5198 21.4205 1125 105.163 1186.67 464.196
306 0 52.5198 21.5157 1130 115.772 1187.67 464.334
307 0 57.4646 16.7755 964 111.356 1187.69 461.786
308 0 61.8039 19.9502 1233 109.888 1187.24 462.152
309 0 58.3226 13.6997 799 121.511 1186.84 462.186
310 0 58.2752 12.4238 724 125.715 1185.55 462.318
311 0 62.0918 16.3146 1013 121.912 1185.9 459.432
312 0 67.5851 19.3238 1306 115.97 1185.82 464.432
313 0 66.2517 15.5015 1027 129.563 1183.81 459.654
314 0 67.2232 17.6873 1189 124.788 1183.24 458.929
315 0 70.455 14.7044 1036 132.829 1181.77 457.641
316 0 74.4107 16.4089 1221 125.782 1181.05 455.68
317 1 36.3296 11.2855 410 134.99 1179.55 472.637
318 0 39.0988 8.90053 348 134.256 1177.74 474.609
319 0 35.1318 11.158 392 133.245 1177.16 473.689
320 0 39.3313 13.1702 518 130.388 1175.78 470.293
321 0 40.2954 17.3469 699 122.974 1175.93 469.757
322 0 42.3014 13.0965 554 131.816 1173.82 466.388
323 0 44.2286 13.4755 596 128.087 1172.96 465.572
324 0 43.0784 14.9031 642 122.783 1172.79 461.207
325 0 43.1001 12.9002 556 128.254 1171.44 459.82
326 0 46.1936 12.1878 563 121.776 1170.84 459.199
327 0 50.277 12.988 653 122.395 1171.33 458.813
328 0 51.23 13.2149 677 127.084 1171.44 459.202
329 0 53.0965 15.0292 798 123.031 1171.73 457.484
330 0 54.1277 14.7429 798 124.135 1172.79 455.361
331 0 56.1547 18.8942 1061 116.008 1174.84 453.172
332 0 59.3376 16.8864 1002 114.542 1175.92 454.83
333 0 64.1245 15.6259 1002 112.983 1178.8 453.066
334 0 63.4948 12.3632 785 116.211 1181.68 456.652
335 0 67.4983 16.919 1142 110.448 1183.09 453.919
336 0 73.5882 17.5436 1291 109.112 1184.87 453.022
337 0 68.2616 14.4884 989 115.75 1185.86 448.881
338 0 74.6196 19.8473 1481 109.356 1186.96 452.269
339 0 75.8887 15.2328 1156 116.541 1186.13 455.567
340 0 77.5956 15.8514 1230 119.308 1186.83 451.331
341 0 79.6366 13.9383 1110 123.782 1186.86 452.732
342 0 80.4798 13.2331 1065 128.003 1186.16 450.278
343 1 44.5335 14.6856 654 125.93 1186.15 467.15
344 0 43.2623 12.7362 551 133.227 1186.17 467.439
345 0 44.1576 9.21698 407 138.413 1185.85 471.056
346 0 45.2497 12.1548 550 140.784 1183.61 465.913
347 0 50.0534 14.4446 723 137.66 1181.76 468.277
348 0 50.2207 13.1022 658 142.219 1183.09 466.629
349 0 53.4363 14.391 769 142.945 1181 464.434
350 0 55.2795 17.9271 991 130.297 1179.78 464.458
351 0 54.3587 13.3925 728 138.36 1178.33 462.471
352 0 57.2976 16.8244 964 131.887 1176.52 459.364
353 0 62.6782 17.4861 1096 125.891 1175.52 463.669
354 0 64.3097 14.9433 961 138.606 1173.93 460.24
355 0 65.2247 16.4508 1073 134.921 1172.94 457.107
356 0 67.3133 15.4501 1040 134.407 1172.19 455.845
357 0 69.4494 14.5286 1009 136.685 1171.62 452.796
358 0 71.2664 15.7578 1123 135.615 1171.11 449.138
359 0 74.3273 16.0103 1190 134.903 1171.31 451.405
360 0 78.7215 16.209 1276 133.98 1171.46 445.927
361 0 81.8424 21.6514 1772 123.63 1171.72 444.67
362 0 85.5306 17.8766 1529 131.469 1171.5 438.636
363 1 45.301 12.3397 559 138.496 1172.04 459.946
364 0 44.1834 9.82269 434 140.099 1173.08 460.401
365 0 48.3598 14.9918 725 129.93 1175.05 457.108
366 0 47.471 15.2093 722 141.981 1177.05 457.109
367 0 51.6418 14.3876 743 130.603 1178.66 459.988
368 0 55.411 18.4079 1020 120.114 1180.35 458.238
369 0 54.2908 12.1199 658 129.512 1182.2 458.228
370 0 54.1167 14.0437 760 134.32 1182.97 455.062
371 0 57.1239 16.8231 961 125.065 1183.7 456.829
372 0 59.1928 14.7653 874 126.384 1184.46 462.098
373 0 63.2387 13.6783 865 120.63 1184.39 460.279
374 0 67.3587 16.6571 1122 120.691 1185.15 461.58
375 0 67.2731 24.4674 1646 114.173 1185.24 459.62
376 0 67.3813 13.6536 920 132.488 1186.16 460.91
377 0 69.5417 15.976 1111 134.728 1185.41 457.07
378 0 72.3431 17.887 1294 132.777 1184.85 454.969
379 0 76.4826 17.2719 1321 133.946 1183.87 455.363
380 0 78.371 15.1459 1187 141.745 1182.7 454.116
381 1 38.1862 11.6273 444 146.39 1182.09 470.786
382 0 41.1464 16.9881 699 134.658 1180.61 470.923
383 0 41.3899 14.5204 601 141.94 1179.4 467.288
384 0 44.1674 16.7318 739 135.874 1177.95 467.03
385 0 47.2722 14.5963 690 140.835 1176.04 465.668
386 0 49.0872 14.0974 692 143.25 1174.66 466.642
387 0 49.4297 13.2309 654 144.245 1173.62 467.971
388 0 49.09 13.5262 664 145.066 1173.39 465.012
389 0 52.1799 17.4588 911 138.483 1172.34 461.408
390 0 53.1143 14.9677 795 143.088 1172.32 460.775
391 0 57.2375 16.6674 954 138.338 1171.95 458.464
392 0 59.3063 18.1768 1078 135.013 1171.76 455.196
393 0 58.4108 17.3084 1011 135.545 1171.2 455.232
394 0 62.5138 17.5961 1100 131.551 1172.41 455.912
395 0 66.5563 15.8062 1052 138.409 1172.82 447.512
396 0 65.3064 17.839 1165 135.225 1173.15 446.93
397 0 72.4027 17.6789 1280 132.471 1174.42 445.865
398 0 74.2631 14.8122 1100 138.535 1175.16 445.061
399 0 74.7237 16.1261 1205 134.832 1176.78 441.012
400 0 81.4796 16.6299 1355 128.561 1179.87 444.948
401 0 81.0545 16.8775 1368 131.61 1181.45 440.596
402 0 89.3308 14.5079 1296 132.204 1182.85 440.468
403 0 91.3914 21.0414 1923 122.494 1184.78 438.977
404 0 92.5538 15.6774 1451 127.609 1186.59 438.657
405 1 47.2486 11.1538 527 134.146 1186.59 459.814
406 0 52.2192 15.2243 795 123.064 1187.22 459.887
407 0 50.4747 12.7192 642 129.399 1187.47 460.765
408 0 53.4794 15.1834 812 128.895 1187.93 461.686
409 0 54.2768 13.4864 732 139.924 1187.07 457.728
410 0 57.6212 13.8317 797 137.414 1187.05 459.413
411 0 60.6211 16.5454 1003 137.397 1186.8 457.834
412 0 64.6847 13.2953 860 142.219 1185.44 459.558
413 0 65.6983 15.7538 1035 139.586 1183.77 456.779
414 0 71.9836 16.726 1204 133.637 1183.17 457.331
415 0 71.3626 16.0588 1146 139.578 1182.13 453.398
416 0 71.8985 14.9934 1078 142.083 1180.86 453.519
417 0 75.5374 14.4167 1089 141.32 1179.64 452.256
418 0 79.9067 14.5795 1165 140.805 1178.02 451.083
419 0 84.655 17.3882 1472 134.63 1176.9 449.281
420 0 86.7079 15.6387 1356 135.782 1175.23 448.751
421 0 90.9343 20.8722 1898 128.171 1174.46 442.28
422 0 89.7082 14.8147 1329 139.749 1173.73 439.901
423 0 95.774 17.4891 1675 133.06 1172.92 442.734
424 0 96.7198 15.8189 1530 137.616 1172.09 437.59
425 0 101.771 15.299 1557 139.567 1171.74 433.366
426 1 54.2552 14.4871 786 137.933 1172.27 456.457
427 0 53.1939 11.6367 619 146.099 1172.77 456.412
428 0 54.292 11.9539 649 143.475 1172.39 456.103
429 0 57.4272 15.2193 874 137.493 1173.63 451.432
430 0 61.152 15.764 964 135.14 1174.59 452.294
431 0 62.4387 16.4802 1029 134.238 1175.29 449.891
432 0 64.3747 12.7845 823 142.108 1176.67 447.289
433 0 66.4195 15.1913 1009 138.168 1178.85 447.338
434 0 74.485 14.6338 1090 136.826 1181.12 446.769
435 0 73.4475 14.718 1081 156.352 1183.1 446.737
436 0 76.5625 17.3975 1332 134.917 1183.67 443.297
437 0 78.4792 14.4752 1136 137.763 1186.21 444.331
438 0 79.3552 13.7735 1093 145.336 1186.48 444.101
439 0 83.7528 14.2921 1197 139.711 1187.27 441.716
440 1 41.0832 10.8317 445 138.249 1189.04 465.652
441 0 46.1643 12.2172 564 137.569 1188.83 464.308
442 0 45.0974 11.3976 514 141.412 1188.12 465
443 0 48.2449 11.0064 531 146.064 1186.99 462.896
444 0 50.0577 11.1471 558 143.86 1186.99 466.713
445 0 50.1803 12.7341 639 146.023 1185.77 461.427
446 0 52.1238 12.3744 645 146.473 1183.63 463.522
447 0 53.366 11.9927 640 149.412 1182.15 459.494
448 0 56.0738 10.8785 610 149.649 1182.14 464.484
449 0 61.211 13.723 840 143.787 1181.69 458
450 0 63.1806 14.5931 922 142.445 1180.95 458.713
451 0 64.2072 16.4467 1056 139.214 1179.35 456.745
452 0 65.1259 13.758 896 147.018 1178.04 453.732
453 0 68.1396 14.0594 958 145.99 1176.58 454.876
454 0 70.2076 13.6452 958 148.239 1175.28 452.902
455 0 75.392 16.2749 1227 140.878 1174.72 451.652
456 0 75.2639 14.8278 1116 146.177 1173.48 448.257
457 0 78.3209 14.7598 1156 146.253 1172.79 446.331
458 0 81.2665 15.8368 1287 142.753 1172.36 444.74
459 0 83.4813 14.0031 1169 147.778 1170.85 442.191
460 1 45.2561 10.761 487 144.331 1171.79 460.501
461 0 47.2301 9.88775 467 143.407 1171.81 459.355
462 0 53.2802 12.1809 649 138.051 1172.59 459.27
463 0 50.3418 11.3623 572 141.33 1173.64 459.687
464 0 51.2143 10.622 544 144.849 1174.24 456.294
465 0 53.2202 12.965 690 136.22 1177.01 453.664
466 0 55.042 14.5707 802 133.374 1179.29 451.585
467 0 57.4614 14.4445 830 136.764 1180.47 451.988
468 0 54.4526 10.9269 595 138.24 1183.1 456.269
469 0 57.0636 10.4795 598 136.084 1184.81 455.699
470 0 60.0858 13.1645 791 129.933 1186.62 456.336
471 0 63.2592 15.6973 993 112.726 1187.45 455.814
472 0 64.0718 13.2664 850 114.624 1187.58 453.393
473 0 68.4194 12.2041 835 118.88 1185.66 457.129
474 0 68.4194 12.3649 846 125.335 1184.62 457.24
475 0 72.4012 13.1351 951 121.344 1186.08 454.097
476 0 71.3483 12.6702 904 128.67 1185.23 454.552
477 0 76.1751 11.4473 872 126.005 1185.03 456.352
478 0 79.2521 15.8986 1260 120.995 1184.88 450.625
479 0 78.2565 12.9063 1010 129.749 1183.23 451.61
480 0 83.1384 14.3857 1196 128.319 1182.32 450.407
481 0 85.2084 12.2875 1047 131.734 1181.2 451.681
482 0 88.3225 14.5037 1281 131.384 1179.9 446.89
483 0 91.287 13.6274 1244 132.227 1178.29 446.937
484 0 95.2906 13.7999 1315 132.608 1177.13 445.262
485 1 46.2046 8.74371 404 135.569 1176.09 467.146
486 0 49.6045 11.7328 582 134.029 1175.72 464.301
487 0 52.711 13.5645 715 129.091 1175.09 460.951
488 0 51.6249 10.5375 544 134.673 1174.06 459.046
489 0 52.3776 9.67972 507 137.256 1173.3 457.45
490 0 56.6391 15.2545 864 124.769 1172.58 458.888
491 0 56.4112 12.5684 709 127.794 1172.02 458.777
492 0 59.2599 14.6136 866 125.527 1171.76 454.001
493 0 61.5441 11.6989 720 125.872 1172.39 454.574
494 0 65.6192 17.1901 1128 116.409 1172.51 451.466
495 0 67.3103 14.5594 980 120.746 1172.93 450.067
496 0 69.6397 12.0621 840 122.594 1173.51 450.127
497 0 71.3099 14.9488 1066 118.584 1174.68 445.573
498 0 72.499 15.214 1103 123.389 1176.57 446.116
499 0 72.3127 15.2117 1100 121.895 1177.88 442.132
500 0 80.5683 16.1974 1305 116.924 1181.12 448.126
501 0 77.6501 11.5905 900 126.991 1182.27 444.239
502 0 80.9278 13.2217 1070 124.445 1183.7 443.871
503 1 50.3227 12.082 608 117.018 1184.39 459.956
504 0 50.5098 10.5722 534 115.129 1185.18 465.073
505 0 49.1542 14.7292 724 110.349 1186.36 463.876
506 0 48.0678 16.1023 774 106.571 1186.85 464.835
507 0 49.0293 11.2382 551 117.263 1186.38 462.367
508 0 51.1832 14.7119 753 115.487 1185.62 461.368
509 0 53.162 11.9822 637 120.695 1184.91 463.044
510 0 54.2384 13.0535 708 121.196 1183.93 461.583
511 0 55.1516 11.7676 649 122.972 1183.52 463.388
512 0 58.1304 14.175 824 120.524 1182.46 460.337
513 0 59.0524 14.9867 885 121.105 1182.07 462.285
514 0 61.1907 14.463 885 121.598 1181.26 461.252
515 0 64.1115 16.986 1089 118.291 1179.98 461.656
516 0 65.3327 14.694 960 122.603 1177.94 459.677
517 0 68.1791 16.8673 1150 116.816 1176.8 459.37
518 0 65.2193 10.1504 662 128.888 1175.89 457.222
519 0 69.1014 15.5134 1072 121.376 1174.49 453.882
520 0 70.0322 12.7798 895 125.701 1173.27 455.476
521 0 72.0413 12.3818 892 128.33 1172.41 448.228
522 0 79.1651 17.394 1377 116.263 1171.54 451.586
523 0 77.2335 13.9318 1076 124.223 1170.96 448.086
524 0 79.2728 13.258 1051 123.217 1170.77 448.992
525 0 84.275 17.2412 1453 118.366 1170.77 441.315
526 0 85.3261 12.212 1042 122.199 1170.67 442.443
527 0 84.2953 11.6021 978 124.234 1171.57 437.518
528 0 90.2328 14.0525 1268 122.629 1172.46 432.001
529 0 94.3339 18.5511 1750 116.381 1172.5 440.147
530 0 96.3447 15.2266 1467 120.352 1173.58 438.581
531 0 98.495 14.3561 1414 121.21 1175.53 432.576
532 0 105.225 14.084 1482 121.829 1176.72 432.033
533 1 56.1094 12.7251 714 114.238 1179.44 454.845
534 0 58.1021 10.7053 622 114.658 1181.13 454.302
535 0 63.3005 12.8593 814 112.377 1183.04 453.104
536 0 61.221 11.63 712 113.169 1183.18 451.654
537 0 61.1073 14.3518 877 110.375 1184.68 449.246
538 0 68.2719 26.9364 1839 96.466 1185.21 455.003
539 0 73.5397 15.801 1162 106.632 1185.21 448.719
540 0 73.5959 17.1069 1259 105.964 1185.74 451.763
541 0 76.2893 12.8983 984 111.379 1185.7 455.092
542 0 77.3653 20.4226 1580 105.201 1187.44 455.139
543 0 76.3803 14.8206 1132 119.282 1186.72 451.627
544 0 85.7815 23.0819 1980 105.002 1186.3 456.077
545 0 83.5061 17.0766 1426 115.384 1185.16 453.607
546 0 84.5856 14.6242 1237 121.201 1183.59 452.095
547 0 89.5528 18.9385 1696 114.946 1182.51 453.191
548 0 88.3138 12.1159 1070 129.762 1181.11 445.922
549 0 91.3857 14.6522 1339 124.899 1179.64 445.367
550 0 95.4434 20.3471 1942 116.413 1178.63 445.699
551 0 98.2352 14.9437 1468 125.188 1177.07 441.342
552 0 100.337 15.8366 1589 123.707 1176.44 440.329
553 0 105.203 17.7657 1869 119.852 1174.74 434.547
554 1 55.2424 13.8481 765 125.488 1174.58 458.099
555 0 58.6501 13.6573 801 123.557 1172.16 455.606
556 0 60.3646 13.7001 827 125.382 1171.84 450.981
557 0 62.182 14.0234 872 126.242 1170.17 454.466
558 0 63.0812 12.6979 801 128.78 1170.63 452.594
559 0 67.3453 14.8191 998 123.594 1170.33 451.074
560 0 68.2441 12.4113 847 127.906 1170.59 446.41
561 0 72.1868 14.9889 1082 122.132 1170.14 445.877
562 0 74.4198 13.6254 1014 123.43 1171.57 445.559
563 0 76.3447 13.5307 1033 122.349 1172.69 445.683
564 0 75.3383 11.4284 861 124.733 1174.24 442.425
565 0 79.4094 13.4745 1070 120.511 1176.06 440.156
566 0 84.3639 15.3976 1299 113.465 1178.1 441.998
567 1 43.4985 9.74747 424 110.559 1179.06 463.342
568 0 46.2503 9.79453 453 109.539 1182.05 463.179
569 0 46.544 14.7602 687 106.63 1183.38 459.656
570 0 47.3063 14.8817 704 106.574 1184.46 460.966
571 0 50.0759 11.9219 597 120.91 1185.5 461.58
572 0 51.09 12.7814 653 119.554 1189.25 459.58
573 0 50.5376 12.0109 607 119.988 1189.44 459.956
574 0 57.0908 12.9618 740 118.682 1188.84 462.146
575 0 54.0635 14.9824 810 122.363 1188.03 462.295
576 0 56.0678 12.6097 707 129 1187.76 464.242
577 0 56.0827 11.7148 657 128.945 1187.68 462.017
578 0 58.192 12.1494 707 134.235 1187.93 463.95
579 0 60.0668 14.3507 862 131.327 1186.2 460.107
580 0 62.0845 13.4011 832 132.179 1184.76 462.456
581 0 63.3018 13.254 839 137.129 1183.57 459.102
582 0 66.148 14.9211 987 133 1182.26 459.494
583 0 68.2122 12.7397 869 139.002 1180.81 459.006
584 0 72.1867 15.4876 1118 132.232 1179.66 461.199
585 0 72.2092 11.0235 796 145.548 1178.28 455.226
586 1 36.086 9.5882 346 137.309 1178.08 479.136
587 0 39.0245 8.91747 348 146.253 1176.59 473.845
588 0 40.0844 11.6504 467 140.769 1175.51 473.3
589 0 43.1925 11.6455 503 140.819 1174.08 472.75
590 0 43.0561 10.2192 440 141.666 1174.33 472.757
591 0 43.105 10.4628 451 142.816 1173.78 468.304
592 0 44.0662 14.6825 647 132.034 1172.8 465.345
593 0 46.1412 12.1583 561 140.027 1172.96 462.333
594 0 52.0744 15.8811 827 134.498 1173.45 466.966
595 0 51.0649 13.5122 690 135.717 1173.32 465.272
596 0 52.0388 13.7205 714 136.997 1174.23 463.86
597 1 105.327 16.1022 1696 149.13 1173.94 435.807
598 1 54.0573 13.3747 723 140.859 1176.35 464.34
599 0 57.1091 14.5861 833 134.287 1177.75 462.389
600 0 63.263 19.5375 1236 125.079 1179.22 462.21
601 0 60.0633 13.8687 833 138.947 1180.88 461.055
602 0 64.0974 18.3471 1176 130.043 1181.84 459.727
603 0 64.1717 13.1366 843 142.082 1182.49 460.008
604 0 66.0681 15.3629 1015 137.841 1183.41 459.424
605 0 67.1637 15.2612 1025 138.9 1183.31 457.103
606 0 69.0386 14.0356 969 143.121 1183.46 458.633
607 0 73.1625 15.6774 1147 137.957 1183.25 461.356
608 0 74.1351 15.3638 1139 139.876 1182.61 457.553
609 0 75.1167 16.8405 1265 136.458 1182.34 457.779
610 0 79.2011 14.8356 1175 140.138 1181.33 455.66
611 0 82.2663 21.479 1767 128.183 1180.43 454.33
612 1 43.1144 11.7826 508 144.972 1180.06 476.598
613 0 45.0238 13.5706 611 142.648 1178.39 475.664
614 0 45.0624 13.0486 588 142.274 1177.11 473.796
615 0 47.1847 13.9452 658 141.739 1175.83 470.57
616 0 49.1413 15.0383 739 139.181 1174.32 469.451
617 0 50.2886 13.7009 689 136.493 1173.37 469.083
618 0 49.3052 11.7837 581 139.546 1171.54 467.029
619 0 51.2173 12.3591 633 142.395 1171.07 468.126
620 0 54.3381 14.8699 808 134.869 1169.74 466.952
621 0 56.4225 13.9483 787 129.978 1169.1 464.524
622 0 61.3365 17.4773 1072 121.16 1168.75 461.608
623 0 59.4897 13.952 830 128.667 1168.41 460.284
624 0 65.3112 15.8931 1038 122.055 1167.83 458.273
625 0 63.3624 13.5885 861 126.336 1167.84 454.445
626 0 65.1938 14.5106 946 124.576 1168.36 453.284
627 0 68.2146 13.9413 951 126.534 1169.32 451.19
628 0 69.2932 16.9569 1175 121.534 1169.84 449.152
629 0 70.4524 13.0443 919 126.519 1171.34 449.123
630 0 74.2104 13.3539 991 124.482 1171.26 444.98
631 0 77.2272 17.442 1347 118.416 1173.32 445.693
632 0 84.5723 19.1552 1620 112.503 1175.49 447.585
633 0 83.2482 13.8862 1156 125.272 1177.42 442.036
634 1 43.0352 9.6665 416 129.904 1179.6 464.512
635 0 50.3963 16.1917 816 114.608 1182.66 465.419
636 0 47.1928 12.5019 590 122.922 1183.27 460.729
637 0 47.258 11.2362 531 121.708 1183.77 461.433
638 0 51.0582 13.5728 693 124.547 1182.58 462.358
639 0 51.1577 14.3087 732 124.53 1183.96 461.992
640 0 49.16 12.4085 610 135.843 1183.66 462.418
641 0 53.0731 12.8314 681 130.454 1183.36 465.25
642 0 58.0591 13.4863 783 129.82 1182.14 461.784
643 0 58.0494 12.61 732 132.936 1182.2 462.418
644 0 59.1274 13.4456 795 134.199 1181.83 460.883
645 0 62.1381 15.1276 940 133.763 1180.95 463.849
646 0 66.1748 16.0484 1062 129.407 1179.99 465.265
647 0 66.162 14.0262 928 138.245 1179.28 461.461
648 0 71.0846 14.3632 1021 137.17 1178.16 459.655
649 0 73.1367 15.4505 1130 136.004 1175.91 458.588
650 0 75.0874 13.8239 1038 138.088 1175.08 459.203
651 0 76.1048 16.5824 1262 134.193 1174.03 455.789
652 1 40.0486 12.8094 513 132.101 1171.98 474.821
653 0 41.0274 14.3806 590 132.812 1172.54 471.444
654 0 39.0874 12.843 502 138.596 1171.6 469.932
655 0 40.1301 13.6307 547 141.521 1171.33 465.04
656 0 43.5271 13.8764 604 138.374 1171.06 463.079
657 0 44.1329 14.6829 648 135.307 1170.22 463.273
658 0 48.1202 16.2925 784 128.895 1169.31 465.667
659 0 48.2938 16.5653 800 131.43 1169.79 460.515
660 0 47.0842 13.5927 640 141.081 1170.2 458.977
661 0 51.1991 14.1604 725 135.568 1171.36 458.632
662 0 53.3096 15.9633 851 132.844 1172.57 456.878
663 0 59.8282 18.4194 1102 126.762 1173.98 457.12
664 0 54.2698 14.0594 763 139.054 1175.86 454.988
665 0 60.6171 17.3219 1050 129.578 1178.66 454.71
666 0 60.1266 15.4175 927 133.953 1181 454.901
667 0 61.3238 18.0354 1106 127.467 1182.22 456.304
668 0 64.4195 16.6409 1072 129.394 1183.4 453.627
669 0 67.2368 18.4274 1239 124.155 1185.82 454.749
670 0 67.2288 17.314 1164 126.569 1186.01 455.729
671 0 69.247 16.2462 1125 129.102 1187.61 450.332
672 0 70.1787 15.7455 1105 133.915 1187.53 451.26
673 0 73.0909 17.143 1253 132.002 1187.8 451.042
674 1 38.0369 12.7508 485 139.841 1186.33 468.513
675 0 38.1825 14.8235 566 138.18 1185.9 471.405
676 0 39.3699 12.0142 473 145.753 1185.19 470.228
677 0 41.2871 11.0931 458 144 1184.15 473.738
678 0 41.341 12.9169 534 147.092 1182.9 469.83
679 0 44.319 13.3803 593 141.462 1182.15 470.175
680 0 43.2236 13.3029 575 140.605 1180.05 466.553
681 0 43.1502 12.862 555 141.973 1178.6 466.582
682 0 46.1664 13.5813 627 144.491 1177.08 467.435
683 0 48.0225 14.7223 707 140.962 1175.65 465.147
684 0 50.1694 13.5939 682 143.28 1174 464.911
685 0 52.1204 16.4619 858 137.233 1173.38 462.58
686 0 52.1204 16.4427 857 138.894 1173.39 462.543
687 0 53.1899 12.258 652 145.511 1171.53 462.411
688 0 56.1232 17.7467 996 134.351 1170.57 458.97
689 0 56.1886 13.3123 748 143.761 1169.92 454.302
690 0 60.1845 20.2046 1216 130.245 1169.69 452.772
691 0 60.1027 15.4402 928 141.133 1170.03 452.487
692 0 66.3094 15.488 1027 138.737 1171.08 452.876
693 0 66.3094 15.5634 1032 136.765 1172.1 452.865
694 0 69.1979 17.1826 1189 135.388 1172.1 449.91
695 0 69.2435 15.5538 1077 142.24 1173.26 446.75
696 0 71.3007 14.7684 1053 143.279 1175.14 446.459
697 0 73.2122 13.5223 990 146.986 1175.39 446.95
698 0 72.2442 12.2224 883 152.243 1177.38 442.764
699 0 77.2015 15.6992 1212 143.802 1180.55 445.223
700 0 78.1835 14.4148 1127 146.785 1181.7 438.35
701 0 83.3329 14.7241 1227 143.646 1183.11 439.822
702 0 87.3473 16.3142 1425 138.758 1184.55 439.305
703 0 92.4347 16.3791 1514 137.587 1185.69 440.067
704 1 58.218 12.2471 713 144.729 1185.55 456.707
705 0 59.2548 13.9398 826 143.932 1186.51 455.712
706 0 61.1352 15.6211 955 142.679 1184.98 453.515
707 0 66.3106 17.1617 1138 137.021 1184.04 456.768
708 0 66.2575 15.485 1026 144.625 1185.33 456.426
709 0 68.126 17.7612 1210 142.383 1185.08 455.455
710 0 69.5706 15.0495 1047 150.829 1184.09 455.175
711 0 72.3381 15.7455 1139 149.83 1182.7 453.256
712 0 74.2092 15.1733 1126 151.216 1181.56 454.839
713 0 76.3183 15.0685 1150 151.432 1180.14 453.354
714 0 81.1846 16.8505 1368 146.633 1178.34 449.208
715 0 81.2582 13.9678 1135 153.187 1176.33 447.981
716 0 84.2128 15.3777 1295 150.569 1174.51 444.745
717 0 84.1903 13.2201 1113 154.001 1173.6 444.441
718 1 48.0219 12.0153 577 147.515 1174.02 464.972
719 0 47.0918 12.7623 601 144.927 1172.62 464.561
720 0 45.086 10.6907 482 145.898 1172.05 465.714
721 0 49.0728 13.1845 647 143.348 1171.53 462.512
722 0 50.2789 12.192 613 139.432 1171.04 459.158
723 0 56.6255 17.9601 1017 127.844 1171.86 459.266
724 0 57.3589 17.2772 991 130.624 1171.29 456.042
725 0 58.3961 16.1997 946 132.844 1171.6 454.834
726 0 62.2625 17.0729 1063 127.343 1172.48 458.446
727 0 59.1319 13.9011 822 135.836 1173.13 454.635
728 0 62.2869 13.486 840 141.806 1174.57 452.085
729 0 64.1972 18.9572 1217 126.233 1175.4 453.039
730 0 66.1123 14.6871 971 136.501 1177.38 450.953
731 0 67.207 15.177 1020 139.012 1179.73 448.82
732 0 68.1901 12.8758 878 140.7 1182.05 451.573
733 0 70.1368 15.4698 1085 144.96 1183.89 448.639
734 0 72.1976 18.117 1308 141.287 1184.43 446.047
735 0 77.2489 17.1006 1321 142.684 1184.86 449.613
736 1 41.0585 7.55021 310 154.703 1187.48 469.59
737 0 46.206 11.2323 519 146.784 1187.53 469.728
738 0 44.0364 9.53756 420 150.626 1187.35 470.2
739 0 45.0546 12.0742 544 153.307 1186.89 467.572
740 0 45.0456 12.8758 580 155.212 1186.23 467.064
741 0 49.0542 12.1702 597 154.766 1185.61 468.447
742 0 52.0296 16.7212 870 143.105 1180.78 469.914
743 0 52.0731 15.2862 796 148.56 1179.77 468.161
744 0 54.0518 14.0051 757 151.808 1177.82 470.867
745 0 56.0237 15.0294 842 150.526 1177.04 469.274
746 0 57.0773 15.2075 868 152.24 1175.53 466.584
747 0 57.0934 12.9612 740 158.785 1173.91 466.854
748 0 62.1652 15.6036 970 148.832 1171.63 466.22
749 0 62.0815 15.383 955 154.163 1170.71 462.303
750 0 65.1447 18.1903 1185 146.337 1170.6 462.754
751 0 66.1099 13.4171 887 157.01 1169.83 463.989
752 0 66.1099 13.4322 888 151.394 1169.83 463.945
753 0 71.1144 20.4459 1454 141.114 1168.73 458.79
754 0 71.2089 14.8998 1061 155.321 1168.27 455.58
755 0 73.2526 17.2554 1264 146.31 1168.04 457.234
756 0 76.1378 14.1454 1077 154.896 1167.74 452.576
757 0 79.0976 13.8437 1095 156.946 1167.78 448.195
758 0 82.1425 14.8766 1222 152.899 1168.19 450.341
759 1 47.05 11.4134 537 154.477 1167.66 464.933
760 0 43.0529 10.22 440 155.639 1168.59 464.666
761 0 48.1057 12.3686 595 148.624 1168.71 463.292
762 0 48.0493 11.6131 558 153.84 1171.05 461.618
763 0 50.0986 11.6371 583 151.326 1174.6 464.542
764 0 52.1038 15.6035 813 144.23 1177.14 462.754
765 0 50.1782 10.3431 519 151.95 1179.7 463.574
766 0 53.1541 13.8089 734 146.409 1180.94 461.279
767 0 54.13 12.5069 677 149.653 1182.23 463.569
768 0 57.1112 14.2179 812 146.824 1183.52 461.696
769 0 59.1408 13.1381 777 147.625 1183.63 461.476
770 0 62.161 14.4625 899 144.681 1184.1 462.034
771 0 64.2198 16.2567 1044 139.962 1184.4 460.396
772 0 65.1902 12.6706 826 149.879 1184.62 462.527
773 0 69.1688 15.4694 1070 144.626 1184.91 461.497
774 0 68.0955 13.9804 952 149.518 1183.7 461.221
775 0 74.203 16.684 1238 144.067 1181.56 462.984
776 0 75.0618 14.1217 1060 151.658 1179.38 462.966
777 0 77.175 15.5232 1198 148.793 1178.16 463.726
778 0 80.0947 13.4466 1077 155.498 1176.68 458.5
779 1 42.1054 10.8537 457 156.646 1177.25 474.867
780 0 42.0414 9.58579 403 160.757 1173.76 474.069
781 0 44.0158 12.4501 548 153.71 1172.93 473.117
782 0 45.1032 10.3762 468 152.402 1172.46 476.024
783 0 46.0785 12.5221 577 152.343 1171.66 469.39
784 0 49.0543 10.784 529 151.42 1170.76 469.69
785 0 49.25 15.7563 776 139.765 1168.93 466.675
786 0 52.0326 11.6273 605 145.179 1169.88 466.145
787 0 53.0256 13.9555 740 140.955 1168.67 463.351
788 0 54.0929 14.1054 763 140.123 1168.54 460.028
789 0 54.1195 10.4029 563 147.103 1167.75 456.728
790 0 55.0867 13.9598 769 137.277 1168.29 458.85
791 0 58.1635 13.0838 761 138.159 1169.01 457.879
792 0 58.1204 11.4418 665 139.241 1168.71 453.78
793 0 61.0848 12.2289 747 135.635 1169.87 454.699
794 0 62.1724 12.6101 784 140.985 1170.76 451.438
795 0 66.3102 13.5273 897 133.532 1172.33 450.605
796 0 66.2948 13.0629 866 135.803 1173.26 448.676
797 0 68.2608 14.1956 969 133.256 1175.61 450.329
798 0 71.1383 11.2738 802 136.128 1177.2 451.297
799 0 73.2282 14.1749 1038 131.652 1178.5 450.164
800 0 75.23 11.6044 873 142.074 1179.33 447.964
801 0 78.5739 13.0196 1023 139.76 1180.7 448.205
802 0 79.1385 12.118 959 144.269 1181.86 447.048
803 0 83.2447 12.5413 1044 147.154 1183.56 447.83
804 0 86.3626 15.1802 1311 143.832 1183.52 444.959
805 0 87.2741 14.3571 1253 145.053 1183.36 447.212
806 1 47.1665 13.8022 651 150.415 1182.89 465.943
807 0 49.2207 12.7792 629 150.313 1183.54 464.509
808 0 48.3724 11.9903 580 147.522 1181.82 467.324
809 0 50.3086 13.2582 667 147.699 1180.83 466.435
810 0 52.2967 16.1769 846 142.123 1180.4 465.586
811 0 54.4963 14.1111 769 152.962 1180.21 464.425
812 0 56.233 13.942 784 152.76 1179.49 464.381
813 0 57.5121 13.2146 760 155.859 1178.02 464.963
814 0 57.2815 12.4647 714 160.566 1176.66 460.934
815 0 60.4683 13.9908 846 155.501 1175.54 459.628
816 0 62.4126 14.4202 900 154.881 1174.76 457.753
817 0 64.3175 14.926 960 149.344 1173.32 458.3
818 0 66.4481 15.4406 1026 153.806 1172.34 456.376
819 0 68.3516 15.0838 1031 152.145 1172.14 451.518
820 0 72.2092 15.9675 1153 147.736 1171.43 452.196
821 0 73.5952 13.3297 981 155.247 1170.74 448.59
822 0 77.2384 20.262 1565 138.021 1170.99 446.437
823 0 77.5506 12.263 951 153.851 1170.7 444.25
824 0 79.2806 11.2007 888 152.66 1171.47 442.032
825 0 83.3573 15.7755 1315 141.924 1171.88 442.091
826 0 86.4991 13.0175 1126 141.703 1172.43 439.676
827 0 91.3509 16.0808 1469 135.869 1174.05 436.965
828 0 96.5248 17.0422 1645 133.062 1174.92 433.378
829 1 51.2683 13.7122 703 134.711 1176.02 446.622
830 0 54.2125 12.0268 652 136.469 1176.21 442.615
831 0 55.067 14.0011 771 132.996 1178.51 444.761
832 0 57.1146 14.5497 831 131.977 1179.52 443.61
833 0 56.3367 10.7745 607 138.407 1181.15 443.297
834 0 61.2866 14.9625 917 132.272 1183.42 445.872
835 0 61.2847 11.52 706 134.677 1183.42 449.425
836 0 64.1989 11.5267 740 128.67 1185.08 451.493
837 0 65.1754 14.8522 968 129.341 1186.52 452.678
838 0 68.2486 13.4362 917 133.033 1186.14 450.498
839 0 71.1918 16.3783 1166 129.516 1185.25 451.417
840 0 75.5913 14.3138 1082 135.36 1185.1 453.903
841 0 79.395 14.5853 1158 135.423 1184.89 454.82
842 0 80.4191 16.5011 1327 137.748 1184.93 452.71
843 0 82.4057 16.1882 1334 143.9 1182.97 454.244
844 0 87.2327 17.161 1497 141.807 1182.17 453.624
845 0 90.4176 15.6717 1417 142.111 1180.46 451.74
846 0 90.489 16.024 1450 144.677 1178.64 451.028
847 0 93.4838 13.2429 1238 150.355 1177.36 447.306
848 1 53.1559 12.2282 650 142.791 1175.48 469.952
849 0 57.0827 11.2293 641 146.388 1174.14 466.693
850 0 55.3541 11.9774 663 141.849 1174.03 468.122
851 0 57.3258 14.0949 808 138.511 1172.55 465.037
852 0 59.3154 14.1616 840 138.724 1172.97 460.867
853 0 61.6244 14.0204 864 135.848 1172.72 461.756
854 0 63.12 15.0665 951 136.703 1173.89 459.96
855 0 63.2928 14.9622 947 136.756 1172.77 456.344
856 0 65.1479 12.5561 818 142.549 1173.08 455.254
857 0 67.2187 13.7164 922 139.753 1172.86 453.437
858 0 71.1258 17.5464 1248 128.484 1172.91 455.401
859 0 72.0941 11.9705 863 140.045 1174.03 451.088
860 0 74.3526 16.1528 1201 133.674 1174.16 450.041
861 0 77.2648 15.4533 1194 132.3 1175.28 448.49
862 0 78.2182 16.5818 1297 132.241 1176.62 445.207
863 0 86.2944 16.6407 1436 128.57 1178.3 447.514
864 0 86.4053 17.4411 1507 129.127 1179.67 447.443
865 0 88.2982 15.9007 1404 131.514 1180.99 443.613
866 0 90.2396 15.7359 1420 132.444 1182.05 442.363
867 0 95.1859 17.5341 1669 129.447 1183.72 441.993
868 1 51.1799 12.036 616 137.229 1185.03 462.784
869 0 51.144 13.374 684 136.408 1185.03 461.807
870 0 51.1435 9.6982 496 149.506 1185.16 462.738
871 0 55.1648 13.9582 770 140.052 1185.42 462.461
872 0 58.1124 13.5943 790 138.882 1185.2 463.446
873 0 58.2305 14.4598 842 137.909 1184.91 461.449
874 0 61.0578 15.6245 954 139.775 1184.55 464.434
875 0 62.0593 13.4227 833 147.359 1184.24 462.593
876 0 64.1112 12.3223 790 148.523 1183.62 463.22
877 0 65.0863 13.3515 869 147.229 1182.28 459.021
878 0 70.1071 15.7901 1107 141.271 1180.95 459.438
879 0 72.0727 14.6241 1054 143.59 1180.2 459.556
880 0 73.0637 15.0827 1102 145.065 1178.11 455.544
881 0 78.0652 17.242 1346 138.66 1176.62 456.579
882 0 81.1399 14.0498 1140 146.157 1175.45 453.359
883 0 83.0995 15.331 1274 144.15 1174.01 451.907
884 0 86.1559 14.23 1226 142.906 1172.94 452.111
885 0 88.0862 14.202 1251 144.45 1172.33 448.46
886 1 45.0982 9.9117 447 145.179 1171.36 464.132
887 0 49.1407 11.2941 555 140.75 1171.61 464.896
888 0 48.0405 10.9699 527 138.928 1171.23 462.205
889 0 51.0847 11.3733 581 137.287 1171.4 461.268
890 0 51.0809 11.5307 589 139.083 1171.16 456.329
891 0 51.2416 12.6265 647 137.037 1170.79 456.128
892 0 55.2471 13.4668 744 136.766 1171.49 455.208
893 0 55.2218 13.9438 770 136.225 1171.67 451.956
894 0 58.0891 14.1679 823 131.313 1173.37 455.622
895 0 57.3977 12.9448 743 134.782 1174.74 456.257
896 0 61.1036 11.8324 723 137.347 1176.29 453.159
897 0 63.2698 13.4029 848 129.331 1178.3 449.266
898 0 65.2028 11.1498 727 133.446 1180.32 451.208
899 0 68.2172 14.3072 976 128.165 1181.91 448.971
900 0 70.1519 15.9511 1119 122.992 1182.65 449.024
901 0 70.4079 14.558 1025 128.709 1183.48 449.767
902 0 74.1418 15.2411 1130 125.496 1184.06 448.696
903 0 75.4425 10.8825 821 135.244 1184.9 450.77
904 0 81.158 16.4247 1333 125.688 1186.27 449.707
905 0 80.1668 12.3493 990 135.918 1186.15 450.436
906 0 84.2256 16.2065 1365 128.848 1185.38 445.667
907 0 86.1783 15.7348 1356 132.286 1185.11 445.058
908 1 44.0407 9.33227 411 138.988 1185.74 470.518
909 0 46.0865 11.1529 514 137.325 1185.06 471.216
910 0 49.1546 10.8433 533 139.987 1183.77 469.268
911 0 54.0701 10.9857 594 136.067 1183.7 469.914
912 0 52.051 15.1582 789 131.739 1181.99 464.449
913 0 51.2082 14.3336 734 135.465 1180.8 463.157
914 0 55.1679 13.9936 772 131.737 1179.5 467.922
915 0 53.083 11.6422 618 140.314 1178.15 462.141
916 0 55.1711 11.1834 617 138.82 1177.03 462.841
917 0 60.1602 14.1954 854 133.078 1174.93 460.746
918 0 59.1236 13.7508 813 135.053 1174.27 456.478
919 0 61.187 12.519 766 135.013 1173.77 456.612
920 0 65.2235 14.642 955 130.007 1173.06 455.054
921 0 71.3815 14.6677 1047 125.307 1173.23 456.653
922 0 71.2786 13.6927 976 132.845 1172.84 454.646
923 0 70.1919 14.9448 1049 131.753 1172.6 446.25
924 0 75.2325 14.5815 1097 130.141 1172.36 447.025
925 0 75.2155 13.0026 978 133.86 1173.58 447.444
926 1 36.046 9.90402 357 135.457 1174.87 465.63
927 0 40.0446 13.1353 526 131.065 1175.96 460.808
928 0 41.0457 10.2812 422 142.545 1176.8 462.711
929 0 45.0537 11.6528 525 141.059 1178.36 460.6
930 0 47.0765 13.0851 616 133.032 1180.29 461.041
931 0 45.1187 13.0544 589 132.435 1182.05 457.638
932 0 50.1069 18.221 913 118.747 1183.15 461.413
933 0 50.1333 12.0279 603 128.166 1184.91 459.94
934 0 55.6015 14.7298 819 120.955 1185.88 459.266
935 0 53.2143 15.5785 829 123.416 1187.15 459.458
936 0 55.1406 10.3009 568 131.511 1187.42 459.475
937 0 55.142 15.8319 873 124.751 1187.97 460.48
938 0 59.1447 13.4754 797 125.038 1188.74 461.941
939 0 59.1348 16.7752 992 121.686 1187.92 455.897
940 0 62.161 16.3607 1017 125.925 1187.71 457.004
941 0 64.2419 13.2001 848 133.101 1186.99 459.192
942 0 65.1388 14.4921 944 132.088 1186.34 460.64
943 0 69.1032 15.4262 1066 130.403 1184.9 458.174
944 0 71.1395 15.0971 1074 132.472 1183.85 457.145
945 0 72.3369 15.8011 1143 131.091 1182.31 457.14
946 0 74.083 13.4444 996 137.95 1181.17 453.728
947 1 38.0224 9.28399 353 145.983 1180.76 471.071
948 0 43.0652 12.6088 543 134.856 1179.1 470.814
949 0 42.0491 11.772 495 138.527 1177.43 469.04
950 0 43.0193 12.6455 544 137.686 1177.26 467.169
951 0 45.1019 12.4163 560 136.929 1176.06 464.504
952 0 47.0541 12.7938 602 137.055 1175.77 463.083
953 0 47.1114 13.7546 648 133.046 1175.14 460.96
954 0 48.0537 12.5277 602 145.653 1174.54 462.073
955 0 50.1971 11.7935 592 148.351 1173.97 458.785
956 0 50.0164 13.6155 681 145.192 1173.93 458.479
957 0 51.0427 11.8332 604 146.263 1173.7 459.022
958 0 54.0306 15.7503 851 138.488 1173.66 456.518
959 0 58.073 13.5519 787 142.733 1173.97 455.009
960 0 55.0825 13.1621 725 148.297 1174.38 452.534
961 0 59.0186 13.9278 822 144.485 1175.72 452.94
962 0 59.0882 14.1991 839 144.53 1177.17 452.466
963 0 62.065 16.4827 1023 137.939 1179.04 451.56
964 0 65.087 15.3487 999 139.473 1181.63 450.486
965 0 68.1267 18.0986 1233 126.914 1183.36 450.407
966 0 66.0689 15.06 995 135.141 1184.4 451.086
967 0 69.1984 15.4628 1070 135.178 1186.37 446.509
968 0 72.2352 16.8893 1220 133.866 1186.92 449.325
969 0 75.1295 14.9608 1124 137.825 1188.39 448.271
970 0 75.1197 18.8233 1414 130.25 1188.12 447.047
971 0 77.3296 15.4275 1193 138.483 1188.12 449.804
972 0 82.2221 21.3203 1753 129.929 1187.84 450.483
973 0 80.152 13.8736 1112 152.492 1187.03 445.573
974 1 43.0382 11.5014 495 143.289 1187.54 466.091
975 0 45.0737 11.936 538 148.37 1186.25 464.66
976 0 48.2653 13.5087 652 144.196 1185.82 466.845
977 0 48.0761 13.957 671 144.022 1184.11 463.89
978 0 47.1288 12.3067 580 144.019 1182.32 463.584
979 0 49.1704 13.4634 662 143.733 1180.76 463.751
980 0 52.1846 14.8703 776 136.896 1179.77 462.678
981 0 53.2151 14.5072 772 135.223 1178.22 459.617
982 0 54.3023 13.3696 726 137.008 1176.89 461.678
983 0 55.1863 13.9709 771 138.735 1176.47 456.65
984 0 58.4229 15.9526 932 134.526 1175.12 455.69
985 0 58.2555 12.7713 744 141.704 1173.76 456.679
986 0 63.1934 17.2803 1092 128.873 1173.44 454.887
987 0 65.2259 15.0707 983 133.556 1172.47 448.2
988 0 66.3596 15.7475 1045 132.288 1172.47 449.946
989 0 70.4402 16.2833 1147 127.46 1172.43 448.409
990 0 69.2831 17.0027 1178 126.367 1172.53 449.138
991 0 72.2765 16.6029 1200 131.569 1172.39 439.556
992 0 75.5884 18.2171 1377 125.378 1172.72 440.996
993 0 76.3454 13.2425 1011 130.694 1173.25 444.296
994 0 80.4831 16.6992 1344 129.603 1174.16 440.102
995 0 80.3739 14.7187 1183 132.426 1175.57 438.234
996 0 83.3287 13.8848 1157 135.687 1175.34 436.581
997 0 87.1418 14.8035 1290 133.238 1176.82 436.467
998 0 92.5758 14.5178 1344 128.147 1179.41 437.871
999 0 95.4901 16.0226 1530 129.502 1179.58 438.935
1000 1 50.063 14.5017 726 120.165 1180.17 460.147
1001 0 53.1572 16.3289 868 117.075 1182.52 457.479
1002 0 59.3175 16.3695 971 116.439 1183.31 456.331
1003 0 56.072 10.6649 598 117.781 1183.31 454.752
1004 0 57.1943 10.9277 625 122.134 1183.72 453.802
1005 0 59.1838 12.1317 718 122.762 1183.83 459.39
1006 0 60.1532 10.5564 635 130.013 1183.49 456.54
1007 0 64.2338 13.1084 842 128.456 1184.01 457.698
1008 0 64.2338 13.0461 838 148.526 1183.97 457.442
1009 0 68.1421 14.6018 995 131.422 1183.62 456.49
1010 0 71.2162 14.5192 1034 134.758 1182.67 454.756
1011 0 74.086 18.4785 1369 130.602 1181.55 456.749
1012 0 78.1707 18.2037 1423 132.86 1180.59 452.803
1013 0 82.2554 17.628 1450 133.187 1178.79 454.163
1014 0 83.2535 15.4708 1288 143.393 1177.19 452.834
1015 0 86.1664 18.0233 1553 138.173 1175.12 448.312
1016 0 88.3343 16.5734 1464 138.449 1174.84 450.377
1017 1 48.1526 12.0658 581 148.971 1173.19 467.812
1018 0 48.064 12.3377 593 150.386 1171.95 465.761
1019 0 50.3609 12.331 621 148.643 1171.06 465.715
1020 0 51.071 11.7875 602 150.601 1170.53 465.291
1021 0 53.1274 12.8747 684 148.965 1169.88 461.627
1022 0 56.1006 13.5114 758 143.234 1168.58 460.406
1023 0 56.1003 13.9393 782 146.001 1168.13 457.99
1024 0 57.2819 12.1853 698 148.921 1168.75 458.917
1025 0 59.085 15.1646 896 141.469 1168.67 459.134
1026 0 61.1574 12.9829 794 146.131 1169.3 458.81
1027 0 62.0639 13.3089 826 145.16 1169.89 455.674
1028 0 65.1471 13.907 906 143.834 1170.71 455.417
1029 0 69.1089 14.2529 985 141.61 1172.24 454.9
1030 0 68.0887 10.7801 734 150.629 1173.96 452.883
1031 0 72.2057 14.4171 1041 140.359 1175.16 451.631
1032 0 74.1521 12.4878 926 143.962 1176.89 452.937
1033 0 75.1158 12.9001 969 147.168 1178.99 447.523
1034 1 40.0996 10.3243 414 142.529 1180.5 470.331
1035 0 42.0309 11.444 481 141.904 1180.95 469.206
1036 0 43.1856 15.5376 671 133.759 1181.54 470.17
1037 0 43.0756 15.8558 683 132.234 1182.18 472.029
1038 0 47.1383 13.5346 638 136.558 1181.71 470.904
1039 0 49.106 13.5829 667 137.702 1182.74 470.555
1040 0 50.1645 16.9044 848 135.54 1182.92 472.882
1041 0 50.0833 11.9801 600 147.658 1180.76 471.81
1042 0 49.0173 10.8125 530 152.532 1179.01 468.994
1043 0 52.0514 13.8325 720 146.296 1178.78 470.946
1044 0 55.1736 17.3634 958 138.545 1177.51 469.859
1045 0 55.0712 13.5824 748 146.519 1176.56 470.259
1046 0 57.0758 13.5959 776 146.514 1173.64 467.04
1047 0 57.0998 12.7846 730 149.877 1172.29 464.323
1048 0 62.0814 15.8824 986 142.991 1171.42 464.562
1049 0 62.2066 13.2783 826 149.45 1171 460.462
1050 0 64.2694 14.0814 905 147.019 1170.06 460.906
1051 0 67.1584 16.3643 1099 143.414 1169.2 457.67
1052 0 66.1775 14.5064 960 148.851 1168.72 456.773
1053 0 69.1863 14.7862 1023 147.444 1168.41 456.175
1054 0 72.2592 16.0395 1159 145.604 1167.96 454.432
1055 0 73.264 15.5329 1138 148.756 1168.06 451.258
1056 0 77.2503 16.1164 1245 145.047 1168.02 452.188
1057 0 77.3536 15.7588 1219 148.856 1168.97 448.715
1058 0 80.3222 15.2386 1224 151.498 1169.13 447.216
1059 0 81.3323 15.4797 1259 153.089 1170.13 445.243
1060 0 83.2941 15.9315 1327 152.761 1170.46 442.32
1061 1 46.0587 9.3142 429 151.823 1171.92 465.853
1062 0 45.1109 11.3276 511 155.442 1172.73 461.569
1063 0 46.0583 9.90049 456 159.2 1174.75 460.689
1064 0 51.0668 13.3355 681 150.628 1176.87 459.432
1065 0 52.1007 11.7657 613 155.599 1178.11 458.659
1066 0 54.2534 15.6857 851 143.705 1177.3 454.788
1067 0 54.2534 15.6119 847 138.424 1178.32 454.834
1068 0 57.0788 15.3122 874 145.094 1179.17 456.928
1069 0 57.038 13.377 763 148.452 1180.73 457.782
1070 0 58.0625 14.7772 858 148.557 1182.16 454.311
1071 0 63.0783 19.6264 1238 136.412 1182.45 453.851
1072 0 64.1676 15.366 986 147.399 1183.07 455.811
1073 0 66.0839 15.1777 1003 147.577 1183.46 456.362
1074 0 66.1859 15.8644 1050 147.294 1183.23 456.013
1075 0 70.0275 17.9787 1259 146.7 1183.06 456.072
1076 1 36.0728 7.40169 267 158.843 1182.93 475.614
1077 0 36.0235 10.1878 367 157.902 1182.33 474.308
1078 0 42.072 13.9523 587 146.71 1181.87 474.054
1079 0 42.016 11.4718 482 158.349 1181.4 469.801
1080 0 45.0496 12.3641 557 152.3 1179.5 472.35
1081 0 45.0433 13.2095 595 153.294 1178.56 469.76
1082 0 46.2082 11.9243 551 156.083 1176.51 468.657
1083 0 46.208 15.6466 723 151.433 1176.09 462.812
1084 0 47.0973 13.8437 652 155.977 1174.48 465.287
1085 0 50.1015 17.1452 859 147.164 1172.96 463.264
1086 0 51.0736 14.391 735 151.956 1171.96 463.439
1087 0 50.1961 13.2281 664 156.212 1170.99 461.089
1088 0 52.35 13.2951 696 155.644 1171.3 460.812
1089 0 56.2191 17.0938 961 144.774 1171.08 459.084
1090 0 56.1976 15.054 846 153.28 1171.05 456.374
1091 0 59.2096 15.8082 936 149.98 1171 455.45
1092 0 61.2835 14.1311 866 152.646 1170.95 453.016
1093 0 60.5565 14.9447 905 154.972 1170.98 449.704
1094 0 62.3217 14.4572 901 155.357 1171.89 448.675
1095 0 68.2892 15.0976 1031 150.293 1173.1 450.388
1096 0 68.5898 15.2501 1046 150.973 1175.23 448.386
1097 0 68.4038 16.7388 1145 150.917 1175.81 445.113
1098 0 72.3547 15.9077 1151 151.298 1177.58 444.511
1099 0 74.4606 17.4589 1300 149.554 1179.66 442.79
1100 0 78.753 17.7771 1400 146.858 1180.47 444.797
1101 0 78.3404 15.6497 1226 154.273 1182.24 442.754
1102 0 80.3343 14.0787 1131 156.221 1183.46 446.634
1103 0 83.6626 14.4389 1208 155.741 1184.69 445.368
1104 0 86.5062 13.9528 1207 158.142 1185.06 443.516
1105 1 45.2833 10.7987 489 155.857 1186.22 464.26
1106 0 45.6319 12.294 561 151.237 1186.81 466.344
1107 0 48.5272 12.9 626 153.337 1185.76 463.88
1108 0 48.4247 11.172 541 155.414 1185.11 467.281
1109 0 50.3666 14.1165 711 145.221 1185.93 465.066
1110 0 51.0555 17.3537 886 138.421 1185.48 464.542
1111 0 54.3092 15.6327 849 139.959 1184.21 465.827
1112 0 56.1006 13.3154 747 145.85 1183.31 464.194
1113 0 58.0921 12.9794 754 144.667 1181.48 465.008
1114 0 62.0523 16.341 1014 136.201 1180.15 461.81
1115 0 61.168 13.6836 837 143.547 1178.33 458.55
1116 0 65.196 15.5684 1015 139.596 1177.52 461.238
1117 0 66.3068 14.1162 936 143.878 1175.51 457.938
1118 0 68.0532 14.9442 1017 141.855 1173.99 457.615
1119 0 71.1732 14.4577 1029 142.048 1173 455.371
1120 0 72.0514 13.7541 991 142.972 1171.88 456.852
1121 0 77.146 15.3086 1181 138.08 1171.05 454.709
1122 1 41.0882 10.3679 426 147.298 1171.26 468.397
1123 0 39.0335 11.6054 453 141.828 1170.93 470.269
1124 0 41.1196 13.6918 563 136.06 1170.2 469.966
1125 0 42.0431 12.0828 508 141.545 1170.08 463.876
1126 0 44.1012 11.723 517 139.619 1170.62 466.072
1127 0 47.1166 11.843 558 138.645 1171.11 464.192
1128 0 48.2004 12.9252 623 133.888 1171.56 462.998
1129 0 48.1149 13.3846 644 131.699 1169.71 459.382
1130 0 49.024 12.1165 594 132.072 1171.31 459.946
1131 0 51.0941 14.3461 733 128.547 1172.3 455.441
1132 0 53.0881 14.071 747 127.082 1174.18 460.273
1133 0 53.1019 13.7095 728 131.106 1175.76 455.018
1134 0 55.1459 12.9112 712 130.638 1176.88 454.469
1135 0 58.114 13.8177 803 129.535 1178.48 457.386
1136 0 59.254 12.9612 768 133.025 1179.56 454.008
1137 0 60.1261 12.5569 755 133.923 1180.58 458.217
1138 0 66.1658 15.3705 1017 126.929 1180.94 458.794
1139 0 67.1913 13.9453 937 130.923 1181.09 459.696
1140 0 70.2597 14.973 1052 129.967 1180.73 457.199
1141 0 71.3093 13.168 939 134.909 1180.31 455.109
1142 0 78.2692 17.1715 1344 125.623 1179.99 456.58
1143 0 77.1356 14.5199 1120 132.459 1179.56 454.629
1144 1 42.1408 11.3429 478 135.383 1178.05 472.653
1145 0 45.1018 9.46747 427 135.356 1176.97 474.953
1146 0 44.1946 10.7027 473 134.934 1175.56 470.495
1147 0 45.2115 13.4479 608 131.387 1175.48 469.91
1148 0 49.0872 13.914 683 134.611 1175.17 472.653
1149 0 48.0671 13.7516 661 138.098 1173.97 469.899
1150 0 51.0689 15.391 786 136.332 1172.61 467.435
1151 0 52.0153 14.8995 775 136.8 1171.81 465.919
1152 0 53.0804 13.4701 715 140.253 1170.45 465.151
1153 0 55.1459 15.051 830 137.01 1170.13 460.86
1154 0 57.0884 14.6089 834 137.538 1169.79 460.754
1155 0 58.0601 13.7788 800 138.574 1170.28 461.475
1156 0 60.0654 15.3333 921 137.18 1170.06 456.756
1157 0 61.1225 14.3155 875 139.584 1169.71 457.317
1158 1 34.115 9.08692 310 136.671 1170.49 473.648
1159 0 35.1378 11.9245 419 138.241 1171.21 469.258
1160 0 34.0375 11.9868 408 141.257 1171.8 468.417
1161 0 36.0493 14.397 519 131.017 1172.85 467.805
1162 0 35.0185 8.85246 310 140.206 1173.15 470.11
1163 0 38.3494 12.2557 470 131.936 1174.99 465.936
1164 0 38.1176 15.7408 600 126.305 1176.63 465.358
1165 0 38.2191 12.3237 471 137.62 1178.29 465.329
1166 0 40.2458 13.0448 525 133.992 1179.35 465.888
1167 0 40.4583 12.655 512 137.146 1181.54 464.174
1168 0 43.2321 14.5494 629 131.903 1182.04 466.016
1169 0 44.2267 11.3054 500 140.2 1184.41 466.148
1170 0 45.106 13.2133 596 138.478 1184.15 466.453
1171 0 48.2475 11.4617 553 138.817 1184.76 468.307
1172 0 47.0299 14.714 692 136.074 1184.7 465.617
1173 0 50.1182 15.0245 753 134.896 1184.78 466.125
1174 0 52.1457 15.0732 786 132.576 1185.08 468.579
1175 0 53.1212 18.2978 972 128.429 1184.6 468.098
1176 0 54.1531 16.121 873 132.561 1184.4 469.535
1177 0 56.1805 16.803 944 132.716 1183.4 468.099
1178 0 56.1196 15.8768 891 137.615 1182.67 467.222
1179 0 61.1404 14.6221 894 136.975 1181.6 467.435
1180 0 63.2548 14.8131 937 136.403 1179.62 466.104
1181 0 65.3768 15.7089 1027 136.024 1178.31 463.731
1182 0 68.4108 16.5032 1129 134.502 1176.76 460.779
1183 0 70.1329 19.1636 1344 129.55 1175.23 457.394
1184 0 71.2662 16.4313 1171 136.218 1173.55 457.213
1185 0 74.1429 18.4913 1371 132.733 1172.9 454.821
1186 0 74.1494 14.5517 1079 142.55 1170.9 451.968
1187 0 77.1758 17.5573 1355 136.444 1170.5 448.473
1188 1 37.1118 13.1225 487 147.012 1170.92 467.343
1189 0 39.2104 14.6135 573 137.565 1170.03 469.628
1190 0 40.0758 13.6741 548 144.175 1170.16 463.828
1191 0 41.2285 12.0548 497 147.748 1169.18 459.807
1192 0 42.2014 17.5113 739 134.955 1169.88 460.505
1193 0 43.403 14.1695 615 142.38 1169.5 457.285
1194 0 46.1564 17.484 807 131.628 1170.63 459.161
1195 0 47.0942 15.0762 710 140.355 1172.12 458.345
1196 0 51.06 15.8637 810 135.275 1174.12 457.611
1197 0 50.0502 16.0639 804 136.383 1175.31 457.983
1198 0 52.0507 16.1189 839 137.499 1177.35 455.052
1199 0 56.199 16.1035 905 133.17 1179.11 459.735
1200 0 53.0632 18.6004 987 133.883 1181.53 453.802
1201 0 58.2372 15.7803 919 135.936 1183.3 458.076
1202 0 59.347 14.8786 883 137.725 1184.2 457.173
1203 0 61.1522 17.252 1055 137.066 1185.12 456.349
1204 0 65.3036 17.3344 1132 135.746 1185.5 457.584
1205 0 61.1776 14.0084 857 148.177 1184.84 458.34
1206 0 63.1631 14.7079 929 151.059 1185.09 457.953
1207 0 67.2251 20.052 1348 143.717 1184.92 455.148
1208 0 70.264 18.2312 1281 147.254 1183.9 456.863
1209 0 72.507 15.5295 1126 154.79 1184.04 457.708
1210 0 76.1752 15.7663 1201 154.826 1183.22 456.535
1211 0 78.287 15.5071 1214 157.058 1182.6 457.214
1212 0 80.2259 15.8178 1269 156.461 1181.74 458.547
1213 0 82.3079 19.0018 1564 151.98 1180.57 453.703
1214 1 43.1924 13.2662 573 157.518 1178.86 474.562
1215 0 42.1652 9.77109 412 165.993 1178.08 474.568
1216 0 47.2355 16.0049 756 152.827 1176.9 470.996
1217 0 48.1177 14.4437 695 156.233 1175.24 470.518
1218 0 49.1094 14.6408 719 156.832 1174 465.981
1219 0 51.131 13.397 685 159.356 1172.98 466.234
1220 0 53.326 15.1896 810 153.185 1171.43 464.347
1221 0 56.1553 17.8077 1000 146.481 1170.73 462.758
1222 0 57.1838 16.9454 969 148.163 1169.94 459.068
1223 0 59.2276 16.8502 998 145.827 1169.31 459.396
1224 0 61.334 16.3857 1005 144.468 1169.38 458.955
1225 0 62.1135 16.1801 1005 146.708 1169.5 456.637
1226 0 66.3672 15.369 1020 149.276 1169.29 453.003
1227 0 66.3829 16.0282 1064 148.545 1170.02 453.606
1228 0 70.1951 17.6651 1240 142.106 1170.76 452.892
1229 0 73.1308 16.3132 1193 148.434 1171.61 448.153
1230 0 76.2627 18.3314 1398 143.064 1173.23 447.857
1231 0 79.18 16.532 1309 142.214 1174.6 447.46
1232 0 80.1645 13.8341 1109 149.372 1176.17 448.256
1233 0 81.1461 14.2336 1155 149.887 1177.99 444.865
1234 0 85.1828 13.8174 1177 150.838 1179.81 446.086
1235 0 88.2456 16.3181 1440 146.686 1181.25 444.53
1236 1 46.1073 13.2083 609 146.279 1181.47 464.829
1237 0 48.056 14.4623 695 146.374 1182.91 466.278
1238 0 49.1014 12.7084 624 153.011 1183.68 463.676
1239 0 52.1536 12.9425 675 151.339 1184.06 467.344
1240 0 56.2236 13.8554 779 143.474 1185.15 469.775
1241 0 56.2872 13.9286 784 147.276 1184.07 468.173
1242 0 56.3006 11.7406 661 154.66 1184.38 467.812
1243 0 59.2051 13.5799 804 150.252 1183 466.476
1244 0 63.2782 15.1079 956 143.045 1181.88 468.232
1245 0 65.3293 13.2406 865 149.335 1180.84 464.658
1246 0 68.2608 13.8293 944 146.45 1178.83 463.156
1247 0 71.3188 14.288 1019 147.151 1178.16 460.981
1248 0 74.2718 13.3294 990 147.172 1176.02 460.893
1249 1 38.1837 10.8947 416 144.752 1175.3 477.24
1250 0 42.2681 10.4097 440 148.441 1174.19 474.914
1251 0 42.3772 11.2089 475 150.971 1172.89 473.131
1252 0 44.3234 13.6948 607 145.442 1171.46 470.941
1253 0 43.3445 13.0351 565 149.11 1171.14 468.488
1254 0 46.3358 13.7906 639 143.36 1169.96 468.219
1255 0 46.1482 12.3949 572 148.83 1169.98 468.404
1256 0 47.3381 15.0196 711 141.921 1168.98 466.513
1257 0 50.2839 15.2136 765 140.325 1168.61 464.592
1258 0 49.0922 13.4237 659 146.068 1168.39 463.129
1259 0 53.1564 15.7648 838 137.043 1168.44 463.94
1260 0 55.1526 14.4508 797 139.956 1168.26 460.469
1261 0 56.1471 13.8565 778 139.654 1169.27 461.503
1262 0 58.3418 13.8837 810 140.464 1170.29 454.328
1263 0 60.3807 14.4086 870 137.817 1170.85 457.668
1264 0 60.2549 11.1692 673 149.759 1172.67 453.666
1265 0 63.1674 12.9655 819 144.69 1173.31 454.209
1266 0 67.3656 14.8741 1002 138.619 1176.09 453.962
1267 0 68.4128 12.5269 857 145.368 1177.02 451.015
1268 0 71.3603 13.2427 945 140.506 1179.3 453.68
1269 0 73.2227 12.5234 917 143.634 1179.58 453.252
1270 1 40.1109 9.89756 397 137.474 1183.39 468.866
1271 0 42.2797 10.1467 429 135.573 1182.91 466.828
1272 0 40.0537 13.6816 548 128.354 1183.08 471.276
1273 0 40.4773 11.9573 484 135.227 1182.45 466.3
1274 0 44.4671 12.9759 577 132.066 1183.18 466.842
1275 0 44.1776 11.7254 518 135.537 1181.17 470.255
1276 0 44.3003 13.0699 579 132.661 1180.93 471.561
1277 0 45.1031 12.8373 579 134.701 1179.58 470.846
1278 0 46.1212 10.9711 506 137.275 1178.42 472.144
1279 0 48.1012 13.2221 636 134.057 1177.3 470.906
1280 0 49.1913 11.0589 544 136.98 1175.6 467.892
1281 0 49.0896 9.92063 487 140.392 1174.15 470.031
1282 0 52.0615 12.7349 663 135.006 1172.31 466.579
1283 0 56.0814 13.944 782 132.138 1171.59 466.497
1284 0 55.1359 11.8616 654 137.17 1171.15 466.509
1285 0 56.0439 11.6337 652 139.114 1170.26 463.673
1286 0 58.1004 10.5507 613 141.315 1167.45 457.546
1287 0 59.2209 9.91205 587 142.15 1166.95 462.443
1288 0 63.181 13.5959 859 135.653 1167.39 458.793
1289 0 64.1765 11.8735 762 140.091 1166.56 453.315
1290 0 69.2602 13.6153 943 136.313 1165.75 451.902
1291 0 70.1142 12.4796 875 137.558 1165.09 450.25
1292 0 74.1113 12.6836 940 140.599 1166.33 451.864
1293 1 44.0225 9.90402 436 137.86 1166.82 469.805
1294 0 46.037 8.97105 413 138.91 1167.21 469.639
1295 0 43.1341 9.34296 403 141.466 1168.3 468.804
1296 0 45.1287 11.1902 505 139.2 1170.64 467.43
1297 0 48.0198 13.9526 670 132.167 1171.62 464.757
1298 0 51.1108 13.7349 702 132.556 1172.48 465.242
1299 0 52.1129 14.1424 737 135.894 1173.94 463.17
1300 0 51.0598 11.3788 581 138.546 1174.67 465.083
1301 0 53.234 13.7506 732 135.769 1176.18 462.531
1302 0 54.0714 12.0581 652 139.828 1177.39 463.386
1303 0 58.3361 11.7423 685 138.511 1179.28 462.502
1304 0 58.2514 10.4375 608 143.857 1179.5 461.206
1305 0 58.1017 11.1012 645 141.955 1180.21 462.55
1306 0 63.1748 13.9613 882 137.655 1179.9 459.79
1307 0 63.1122 13.8642 875 137.293 1179.21 463.361
1308 0 67.1607 13.1327 882 141.141 1179.64 460.475
1309 0 68.0936 14.3038 974 138.241 1179.06 462.423
1310 0 72.1812 12.0253 868 140.789 1178.81 464.543
1311 0 74.1867 12.6168 936 141.566 1178.69 460.657
1312 0 74.2622 15.378 1142 137.759 1177.27 456.121
1313 0 76.2333 12.6454 964 139.936 1175.53 463.635
1314 0 80.2469 13.1843 1058 142.189 1174.54 457.228
1315 0 85.1732 14.9225 1271 138.906 1172.21 455.607
1316 1 46.0617 13.3951 617 138.031 1171.71 471.515
1317 0 47.0391 9.43896 444 144.396 1170.9 474.604
1318 0 46.0865 11.6737 538 146.11 1169.69 468.933
1319 0 50.0432 13.888 695 135.935 1167.33 470.541
1320 0 49.2337 12.6336 622 142.494 1166.38 466.85
1321 0 49.1221 11.3594 558 148.708 1165.58 466.014
1322 0 52.1953 13.7369 717 143.381 1164.43 464.573
1323 0 53.2394 14.8762 792 140.049 1163.97 463.792
1324 0 53.2361 14.1445 753 144.009 1164.01 459.87
1325 0 58.1299 12.7129 739 145.553 1164.09 458.44
1326 0 59.2349 16.2067 960 133.526 1165.41 459.301
1327 0 59.1414 12.7322 753 145.319 1165.16 456.572
1328 0 62.1651 13.4802 838 140.112 1165.66 457.093
1329 0 64.182 11.3739 730 144.31 1167.34 456.679
1330 0 65.1916 13.2532 864 141.392 1168.27 455.883
1331 0 65.1613 12.2005 795 148.629 1169.97 451.636
1332 0 71.2263 12.0742 860 146.771 1171.08 449.174
1333 0 71.1246 13.5256 962 143.843 1172.69 449.278
1334 0 75.2274 16.9885 1278 133.736 1175.52 448.177
1335 0 76.2143 15.5351 1184 138.039 1177.5 449.188
1336 0 77.2354 14.5141 1121 142.483 1177.97 447.921
1337 0 79.1987 13.523 1071 144.72 1178.96 444.372
1338 0 84.2518 14.9789 1262 137.476 1179.64 445.808
1339 1 42.1465 9.27717 391 138.34 1180.5 470.079
1340 0 44.0557 9.60148 423 140.504 1180.48 469.619
1341 0 43.0668 9.79874 422 147.111 1180.23 467.083
1342 0 48.1742 12.8492 619 140.893 1178.95 466.96
1343 0 49.0902 13.3224 654 137.508 1178.99 469.815
1344 0 52.1695 13.3411 696 139.776 1178.06 468.034
1345 0 53.0538 14.2497 756 133.944 1177.71 466.323
1346 0 53.0178 12.675 672 138.167 1178.09 468.363
1347 0 58.0624 12.8827 748 137.086 1177.03 466.357
1348 0 56.1485 12.0751 678 139.742 1174.22 463.819
1349 0 61.1578 15.4191 943 132.174 1172.13 460.566
1350 0 65.1079 15.0519 980 130.736 1172.86 462.366
1351 0 63.0941 16.6418 1050 130.36 1172.14 458.958
1352 0 65.2036 15.8887 1036 130.518 1170.96 461.984
1353 0 67.1344 16.534 1110 128.105 1170.08 456.979
1354 0 71.274 17.6782 1260 122.683 1168.49 460.351
1355 0 69.1269 14.5674 1007 130.567 1168.67 457.227
1356 0 74.092 17.7077 1312 123.002 1168.27 450.879
1357 0 78.0867 16.8915 1319 123.101 1168.73 452.984
1358 0 77.236 16.4172 1268 124.497 1167.41 449.914
1359 0 80.1567 17.6155 1412 121.103 1167.71 444.661
1360 0 81.2264 15.0197 1220 125.186 1168.54 442.736
1361 0 86.2668 16.1708 1395 122.5 1168.65 443.639
1362 0 90.3188 15.5339 1403 122.716 1169.14 438.931
1363 0 91.299 14.8852 1359 123.338 1170.45 443.014
1364 0 94.1932 15.4257 1453 124.351 1171.52 436.077
1365 0 95.3597 12.9405 1234 129.195 1173.61 436.857
1366 1 53.2925 12.2156 651 123.289 1175.65 458.917
1367 0 53.175 13.7471 731 121.471 1176.26 457.383
1368 0 54.0603 12.486 675 125.098 1178.01 454.773
1369 0 55.2472 12.0549 666 124.464 1178.9 457.117
1370 0 60.7258 14.7055 893 118.948 1182.18 453.779
1371 0 60.0436 13.2737 797 121.625 1180.1 458.325
1372 0 61.1059 14.9576 914 121.768 1180.73 457.667
1373 0 63.1756 12.2832 776 128.615 1179.95 454.887
1374 0 66.1044 12.7677 844 128.127 1181.87 454.1
1375 0 66.3344 13.4018 889 128.255 1181.27 455.741
1376 0 69.226 12.6109 873 130.219 1181.19 454.948
1377 0 72.2105 14.7347 1064 126.492 1180.23 457.86
1378 0 76.1968 14.9088 1136 127.207 1178.95 454.056
1379 0 79.384 14.8267 1177 126.973 1178.43 452.837
1380 0 82.2652 14.2709 1174 129.157 1177.84 452.143
1381 0 82.337 16.1288 1328 126.384 1176.73 454.734
1382 0 84.3392 13.2916 1121 132.614 1174.47 451.406
1383 0 86.2979 13.0594 1127 135.779 1172.79 444.719
1384 0 92.5578 14.8016 1370 130.886 1170.54 445.742
1385 1 51.3681 11.8945 611 131.244 1168.83 461.182
1386 0 49.3886 13.2419 654 128.124 1167.84 462.2
1387 0 49.4174 8.41809 416 137.065 1166.92 459.752
1388 0 53.3418 12.2418 653 131.825 1166.36 456.957
1389 0 54.1776 11.5915 628 133.315 1167.44 458.715
1390 0 59.1064 14.6515 866 125.714 1168.75 459.469
1391 0 60.0514 14.8373 891 122.504 1168.96 457.972
1392 0 63.2924 18.9122 1197 115.306 1169.62 452.672
1393 0 62.1503 11.0217 685 131.057 1169.92 451.988
1394 0 65.1829 11.1072 724 129.735 1170.63 448.492
1395 0 70.1558 16.4349 1153 120.297 1170.63 447.545
1396 0 70.1732 12.1841 855 129.851 1172.02 450.587
1397 0 74.2421 14.0217 1041 126.524 1173.22 446.356
1398 0 75.1071 12.9016 969 129.902 1175.51 448.284
1399 0 76.1574 13.3802 1019 131.182 1177.46 443.603
1400 0 80.2297 14.0472 1127 129.368 1180.1 442.815
1401 1 45.1118 9.66487 436 133.702 1182.07 463.009
1402 0 47.0667 11.2819 531 131.778 1182.77 461.544
1403 0 47.0638 10.5814 498 135.653 1182.68 460.733
1404 0 49.0968 11.6097 570 130.586 1184.01 466.372
1405 0 47.0821 12.2977 579 134.575 1184.94 462.732
1406 0 53.0965 11.9782 636 130.308 1185.1 466.303
1407 0 54.088 13.8108 747 127.627 1184.09 464.898
1408 0 55.2531 15.1123 835 130.898 1183.57 464.614
1409 0 57.1172 12.273 701 136.7 1183.25 468.153
1410 0 60.0769 14.2983 859 132.062 1182.74 467.917
1411 0 61.1679 13.3403 816 135.931 1181.14 466.145
1412 0 65.1626 13.3972 873 134.415 1179.67 465.306
1413 0 67.0936 14.4276 968 133.827 1179.03 464.344
1414 0 68.1196 14.7681 1006 133.508 1177.54 465.068
1415 0 71.1222 15.1851 1080 132.276 1176.05 461.444
1416 0 73.1459 12.7006 929 134.927 1174.66 465.033
1417 0 76.1032 11.4844 874 139.674 1172.94 460.796
1418 0 81.1486 15.4162 1251 130.703 1172.2 460.505
1419 0 79.063 12.4964 988 140.306 1171.3 455.066
1420 1 43.0447 8.24724 355 138.166 1170.65 475.09
1421 0 41.0796 8.93387 367 135.343 1170.63 476.131
1422 0 45.1469 11.7173 529 133.093 1170.08 473.238
1423 0 44.1243 13.8246 610 131.407 1169.29 470.597
1424 0 47.176 10.7258 506 136.569 1169 469.601
1425 0 45.132 12.0314 543 134.37 1168.53 467.368
1426 0 48.0562 12.3813 595 127.798 1168.85 467.492
1427 0 49.0576 11.4763 563 129.753 1169.43 468.142
1428 0 51.0629 14.5703 744 124.235 1169.78 463.902
1429 0 49.2836 12.5397 618 134.595 1170.41 464.54
1430 0 54.073 12.4276 672 132.012 1170.86 465.86
1431 0 55.1442 15.2691 842 128.239 1172.24 461.973
1432 0 56.1261 14.7525 828 129.258 1173.86 463.232
1433 0 58.0932 12.8242 745 133.773 1174.7 462.262
1434 0 59.1996 14.3244 848 130.54 1176.94 459.358
1435 0 60.1664 12.8643 774 133.079 1177.3 457.913
1436 0 62.2742 14.2595 888 130.491 1179.38 458.964
1437 0 64.294 15.538 999 129.044 1179.75 457.982
1438 0 67.1224 14.8237 995 131.709 1180.45 459.021
1439 0 69.1694 14.8621 1028 132.628 1180.3 459.979
1440 0 68.1111 12.5971 858 138.07 1180.34 459.908
1441 0 73.2753 12.8283 940 137.335 1179.89 460.837
1442 0 75.5598 16.08 1215 132.229 1178.88 459.105
1443 1 40.0866 6.43606 258 138.031 1179.19 481.504
1444 0 43.1145 11.9681 516 132.955 1178.34 477.576
1445 0 41.2214 8.15111 336 139.036 1176.49 479.711
1446 0 43.2637 9.2225 399 138.396 1175 478.15
1447 0 41.4497 7.81671 324 144.512 1172.9 476.194
1448 0 47.5665 11.8991 566 137.509 1171.69 470.076
1449 0 47.3782 12.643 599 132.204 1169.43 471.047
1450 0 50.4094 13.4697 679 130.135 1168 468.166
1451 0 52.1206 12.9507 675 131.647 1167.08 467.901
1452 0 52.0814 8.92834 465 146.142 1168.61 467.57
1453 0 54.1779 14.6739 795 134.795 1167.07 467.52
1454 0 56.2325 14.9913 843 134.139 1166.57 465.759
1455 0 56.1851 12.9928 730 138.785 1166.37 464.567
1456 0 56.2031 14.0384 789 134.786 1165.7 464.702
1457 0 58.1418 10.0272 583 141.506 1166.43 463.626
1458 0 61.614 12.6919 782 134.373 1166.52 457.754
1459 0 64.4095 15.0599 970 131.833 1166.32 453.75
1460 0 61.3996 10.505 645 140.909 1167.68 453.6
1461 0 66.2773 15.0429 997 133.648 1168.94 450.275
1462 0 69.2811 14.1308 979 133.683 1169.88 453.38
1463 0 71.3635 16.2548 1160 130.913 1171.3 452.124
1464 0 70.311 13.8101 971 137.609 1172.38 447.929
1465 0 76.4742 14.0439 1074 134.858 1174.45 449.185
1466 1 39.1542 9.83292 385 140.974 1176.73 464.616
1467 0 43.0792 10.5155 453 137.545 1177.24 466.291
1468 0 47.0638 13.4923 635 131.647 1179.56 465.279
1469 0 44.1647 12.2722 542 135.251 1180.03 465.67
1470 0 49.1079 13.3176 654 126.982 1182.85 467.791
1471 0 49.1909 14.1693 697 128.842 1179.38 463.758
1472 0 47.086 13.7833 649 130.98 1184.06 466.022
1473 0 50.2231 14.9931 753 126.842 1184.29 467.268
1474 0 53.0954 15.2367 809 126.271 1184.38 467.837
1475 0 50.136 11.3691 570 136.372 1184.03 467.898
1476 0 53.0887 12.6016 669 134.549 1183.32 465.898
1477 0 56.0795 13.5165 758 132.612 1182.55 464.669
1478 0 57.0721 12.0549 688 136.047 1182.69 464.515
1479 0 58.0224 12.5124 726 134.709 1182.55 467.893
1480 0 61.0632 13.527 826 134.421 1181.41 463.958
1481 0 64.1539 13.6858 878 134.556 1180.49 465.394
1482 0 64.103 14.1023 904 135.008 1179.41 461.701
1483 0 68.1119 17.9557 1223 126.975 1177.21 461.797
1484 0 70.0863 16.1372 1131 130.164 1176.27 459.82
1485 1 35.081 11.0316 387 138.62 1175.53 475.525
1486 0 37.1342 10.6102 394 136.954 1174.47 474.739
1487 0 39.0809 11.796 461 138.126 1172.84 470.946
1488 0 41.0172 16.3834 672 126.939 1172.33 470.796
1489 0 44.0739 13.795 608 129.844 1171.39 468.508
1490 0 42.0541 12.3412 519 134.389 1170.95 465.834
1491 0 43.1306 13.262 572 134.147 1170.79 464.624
1492 0 46.2034 14.4578 668 130.807 1170.63 465.07
1493 0 49.1349 15.4676 760 130.743 1171.24 462.503
1494 0 50.156 12.0823 606 138.282 1170.72 461.238
1495 0 54.1672 14.6583 794 132.644 1171.95 464.044
1496 0 51.1327 14.3744 735 139.536 1172.25 461.607
1497 0 51.0433 15.7905 806 134.841 1173.28 460.877
1498 0 55.074 17.0316 938 132.125 1175.25 458.882
1499 0 56.0387 15.4536 866 135.947 1176.79 458.88
1500 0 57.0615 15.825 903 134.421 1178.4 459.798
1501 0 56.1308 13.7892 774 141.41 1179.37 456.203
1502 0 60.1142 16.3356 982 137.048 1180.82 457.375
1503 0 58.092 14.8041 860 144.114 1182.57 455.454
1504 0 64.1982 15.5612 999 138.181 1184.22 457.227
1505 0 66.0865 16.3725 1082 138.691 1184.99 456.427
1506 0 68.1991 17.8008 1214 135.62 1185.03 458.336
1507 0 69.1881 16.101 1114 141.241 1185.15 459.509
1508 0 66.1553 15.1311 1001 146.72 1185.31 454.395
1509 0 71.1933 15.6616 1115 144.512 1184.74 459.63
1510 0 73.2154 14.6554 1073 146.83 1184.17 457.585
1511 0 77.1327 15.7261 1213 141.154 1183.78 456.001
1512 1 42.3444 10.698 453 145.024 1183.27 476.102
