time division length width area intensity CMx CMy
0 0 62.3959 20.5142 1280 121.478 662.405 443.666
1 0 61.3596 13.8039 847 127.391 662.929 443.515
2 0 61.3208 14.6606 899 137.987 664.018 443.043
3 0 61.3208 14.6769 900 137.232 664.998 443.262
4 0 61.3208 14.6769 900 136.911 665.998 443.262
5 0 69.3262 19.401 1345 121.58 665.67 441.361
6 0 75.7189 16.8254 1274 123.513 665.7 440.319
7 0 77.4861 20.0939 1557 121.592 665.195 437.355
8 0 79.2348 14.3245 1135 127.669 665.462 437.85
9 0 82.2259 13.7426 1130 127.882 663.925 438.28
10 0 86.4439 14.1363 1222 128.739 663.165 434.857
11 1 42.3734 10.9031 462 125.47 661.703 460.476
12 0 47.0903 14.228 670 122.746 662.227 460.851
13 0 46.1561 10.2695 474 136.262 660.677 458.646
14 0 48.0952 13.0782 629 135.014 660.064 457.394
15 0 49.5399 14.2713 707 143.419 657.318 459.69
16 0 49.3943 13.0177 643 155.748 655.888 454.947
17 0 51.2081 10.389 532 162.857 654.137 456.695
18 0 53.261 14.1379 753 153.457 653.38 454.178
19 0 54.3592 13.0245 708 157.475 652.452 452.244
20 0 57.4507 11.5751 665 158.017 652.029 453.394
21 0 58.2198 13.6036 792 156.346 650.282 448.851
22 0 62.3039 13.2095 823 155.617 649.245 447.026
23 0 61.225 13.7689 843 155.206 649.32 445.246
24 0 65.352 14.4754 946 153.455 649.076 442.841
25 0 66.2433 12.6956 841 157.941 648.961 441.315
26 0 71.2286 14.0533 1001 152.336 648.824 440.232
27 0 72.2272 13.6098 983 151.907 649.531 438.556
28 0 75.3155 13.2642 999 157.864 648.833 434.249
29 0 77.4787 11.3192 877 154.464 650.464 433.518
30 0 82.3053 13.0004 1070 146.228 653.34 434.791
31 1 46.3223 13.6651 633 129.536 656.885 452.283
32 0 46.0643 11.8747 547 129.265 657.505 451.38
33 0 43.0902 9.93264 428 124.484 659.348 450.757
34 0 51.6445 14.6579 757 114.046 660.682 453.931
35 0 51.0701 24.2999 1241 105.249 660.8 456.843
36 1 99.8636 19.6768 1965 115.921 662.507 436.501
37 1 48.1372 9.72221 468 115.791 664.513 458.521
38 0 55.1588 12.9807 716 112.223 664.07 459.994
39 0 53.4418 12.7054 679 114.096 664.256 459.094
40 0 53.3394 10.3488 552 115.565 663.942 461.112
41 0 54.8023 12.6637 694 114.863 663.785 461.546
42 0 51.3837 7.04503 362 123.086 663.569 462.715
43 0 60.4262 12.7594 771 124.851 661.805 455.048
44 0 60.2223 14.1476 852 136.41 661.054 453.721
45 0 62.2511 16.9957 1058 135.719 660.13 454.508
46 0 63.1575 13.9018 878 145.759 659.268 454.208
47 0 66.2122 14.9519 990 144.427 658.246 453.858
48 0 69.1584 14.474 1001 149.599 656.304 452.366
49 0 68.1638 12.558 856 162.965 654.148 449.637
50 0 72.2242 12.932 934 158.827 652.599 452.244
51 0 73.2735 14.0706 1031 158.962 651.029 446.703
52 0 75.3283 12.7309 959 162.694 650.658 446.105
53 0 80.2525 12.7971 1027 159.789 649.36 447.346
54 0 83.2289 14.6824 1222 157.399 648.25 443.26
55 0 85.2233 12.3088 1049 162.181 647.478 442.612
56 1 47.0176 13.8246 650 153.406 648.431 456.795
57 0 48.0151 11.4131 548 155.914 648.108 455.708
58 0 51.0864 12.8018 654 152.061 647.792 453.557
59 0 54.0618 14.8904 805 148.939 647.971 452.909
60 0 54.0488 14.4684 782 152.469 648.066 450.422
61 0 54.1337 14.8706 805 155.119 648.145 448.446
62 0 58.1263 14.761 858 149.695 648.855 449.524
63 0 60.095 13.8614 833 150.899 650.63 447.707
64 0 61.0828 15.5036 947 149.927 652.17 444.501
65 0 62.1375 13.5184 840 148.82 653.755 447.104
66 0 62.2323 13.4014 834 146.228 655.239 445.887
67 0 67.2519 13.8732 933 130.572 657.605 445.659
68 0 72.2326 15.8239 1143 123.37 659.019 445.101
69 0 71.4046 13.9767 998 126.354 660.217 443.143
70 0 75.1459 17.2464 1296 119.095 660.982 448.061
71 0 73.1601 14.7622 1080 120.612 661.119 446.506
72 0 81.8102 17.7484 1452 115.082 661.613 448.923
73 0 82.4044 12.9362 1066 121.062 661.433 449.498
74 0 81.168 16.5706 1345 118.432 661.114 447.729
75 0 85.2339 20.1328 1716 117.952 660.809 436.158
76 1 42.0407 10.8229 455 129.411 661.453 461.756
77 0 44.0313 12.6501 557 132.032 659.643 463.803
78 0 45.1685 16.9144 764 128.103 655.928 462.211
79 0 49.1441 13.145 646 134.441 655.108 461.201
80 0 46.1911 10.4566 483 142.106 654.594 462.681
81 0 51.2436 14.7336 755 137.861 652.862 461.972
82 0 52.2783 17.3877 909 132.649 651.496 459.361
83 0 51.1113 12.0521 616 144.891 650.812 460.907
84 0 55.2528 15.0038 829 139.756 648.381 458.42
85 0 56.1002 12.549 704 146.244 646.849 457.189
86 0 59.338 17.1897 1020 135.455 645.604 457.392
87 0 60.3617 14.9101 900 139.048 645.68 455.83
88 0 59.1966 13.1933 781 144.754 645.074 452.763
89 0 62.3043 11.813 736 148.322 644.613 452.31
90 0 64.124 13.6922 878 141.174 644.541 450.13
91 0 64.1588 12.3288 791 144.484 643.989 446.756
92 0 67.186 14.7352 990 140.794 644.021 446.456
93 0 72.1269 13.5317 976 140.283 644.332 442.575
94 0 72.1808 15.766 1138 136.837 644.307 440.148
95 0 72.2277 11.533 833 144.896 644.573 439.737
96 0 77.1564 14.166 1093 140.99 645.311 437.068
97 0 76.1557 11.6209 885 139.919 647.229 435.398
98 0 76.1557 11.5553 880 129.156 649.234 435.365
99 0 85.2437 12.7869 1090 132.962 649.295 433.953
100 0 87.2001 12.3394 1076 119.383 652.437 440.666
101 0 95.9275 18.9205 1815 112.458 654.453 430.369
102 0 97.476 17.9018 1745 108.39 655.76 439.737
103 0 99.4616 15.6241 1554 109.063 657.757 440.003
104 0 102.57 19.5769 2008 111.252 659.759 423.695
105 0 105.533 16.2129 1711 112.098 660.613 428.717
106 0 110.514 17.3552 1918 109.479 660.935 436.418
107 0 110.414 19.771 2183 108.569 660.435 436.645
108 1 174.236 12.0469 2099 120.435 659.112 403.972
109 1 120.231 16.4268 1975 115.168 659.867 419.121
110 0 124.703 8.18745 1021 118.338 659.03 440.287
111 1 65.7698 23.3694 1537 105.339 657.93 452.213
112 0 62.249 12.0163 748 117.493 658.421 453.984
113 0 65.3188 16.3506 1068 118.723 657.11 453.874
114 0 70.4645 13.3117 938 120.181 656.552 460.985
115 0 69.299 12.5399 869 132.455 654.023 452.999
116 0 71.3052 14.8376 1058 130.107 652.66 450.392
117 0 74.2969 13.0423 969 131.207 651.844 452.569
118 0 76.2344 13.2486 1010 139.982 650.216 447.949
119 1 40.0627 11.6068 465 132.241 650.237 468.198
120 0 39.1125 8.53947 334 140.47 648.838 466.746
121 0 38.0167 9.8904 376 137.468 647.348 464.471
122 0 43.1317 11.3142 488 132.717 646.342 465.059
123 0 44.0327 14.2394 627 127.215 645.482 463.179
124 0 45.0714 11.4707 517 135.458 644.453 459.095
125 0 48.0601 13.1502 632 129.685 643.807 458.72
126 0 43.0794 11.444 493 136.554 643.842 454.761
127 0 49.2188 13.247 652 127.903 643.597 456.821
128 0 48.1921 11.9522 576 131.351 643.604 455.8
129 0 51.1044 16.0064 818 124.033 644.311 455.216
130 0 50.1019 10.6583 534 133.927 645.948 451.706
131 0 52.1723 12.7846 667 126.736 648.292 450.682
132 0 57.0917 16.9202 966 117.116 648.099 448.734
133 0 61.2725 12.6158 773 117.158 651.04 453.203
134 0 58.2826 14.567 849 118.869 652.986 451.581
135 0 63.5114 15.1626 963 114.65 654.56 446.933
136 0 64.2318 21.5937 1387 105.913 655.084 453.596
137 0 65.2486 12.3987 809 113.623 657.224 455.435
138 0 69.158 12.1461 840 113.082 657.794 455.504
139 1 148.871 17.2431 2567 120.284 657.494 415.704
140 1 75.339 18.5694 1399 111.02 657.921 454.259
141 0 75.2381 16.4677 1239 115.113 657.826 449.897
142 0 76.3149 17.6506 1347 117.526 657.245 447.569
143 0 81.9948 20.733 1700 114.938 657.462 441.3
144 0 78.1288 13.5033 1055 131.011 656.294 447.776
145 0 83.3299 12.0965 1008 133.947 655.56 448.67
146 0 86.3148 14.5746 1258 131.021 654.459 449.622
147 0 88.1161 13.8 1216 132.566 653.304 444.284
148 0 91.2985 14.4581 1320 133.914 651.874 447.527
149 0 95.2587 15.0852 1437 135.614 650.342 439.855
150 1 51.0548 11.6933 597 135.893 649.218 462.194
151 0 55.3821 11.8089 654 135.142 647.948 462.078
152 0 56.2159 12.4698 701 130.916 646.451 460.395
153 0 58.2063 14.0191 816 128.506 644.642 458.534
154 0 58.2041 13.5386 788 131.883 642.675 458.231
155 0 59.1851 13.0438 772 134.35 642.736 455.228
156 0 61.3013 12.6751 777 137.539 641.717 454.073
157 0 63.2127 14.2376 900 132.6 642.634 453.848
158 0 63.3219 12.6023 798 138.31 642.019 449.811
159 0 67.3773 13.0014 876 138.634 641.1 447.389
160 0 70.1734 14.2789 1002 131.651 641.166 448.076
161 0 76.412 16.3456 1249 124.136 642.207 449.487
162 0 74.5574 13.6807 1020 128.775 642.298 444.188
163 0 76.163 14.062 1071 127.022 642.262 442.88
164 0 78.5789 14.6986 1155 124.604 643.71 437.163
165 0 84.2598 16.7933 1415 118.484 645.895 438.367
166 0 82.2681 12.7388 1048 132.077 647.284 443.052
167 1 46.5052 11.5041 535 118.729 650.316 454.135
168 0 49.2266 17.328 853 109.558 652.604 456.905
169 0 51.1897 10.9006 558 114.892 654.362 456.729
170 0 52.1862 16.4028 856 110.41 655 452.417
171 0 52.1862 16.077 839 129.623 656.039 452.306
172 0 54.7941 12.0998 663 114.979 656.143 454.95
173 0 61.7044 19.2855 1190 108.588 656.003 451.034
174 0 60.0686 16.1982 973 109.775 656.983 459.375
175 0 62.4618 17.4026 1087 111.816 656.246 453.779
176 0 63.4909 11.2457 714 117.578 653.048 460.578
177 0 65.2839 18.2128 1189 110.96 652.625 459.675
178 0 66.2942 19.7152 1307 109.354 652.568 464.375
179 0 68.1103 14.9023 1015 119.231 651.82 456.734
180 0 69.2312 13.101 907 124.571 650.432 457.077
181 0 70.3414 17.3724 1222 123.386 649.845 452.672
182 0 73.2826 17.0846 1252 125.322 648.098 453.457
183 0 74.1337 16.5512 1227 129.029 647.35 452.985
184 0 79.3005 16.7969 1332 127.114 645.735 455.294
185 0 78.1123 13.6598 1067 136.663 643.787 449.605
186 0 84.4685 16.4914 1393 129.789 642.75 449.438
187 0 82.1212 13.8576 1138 144.301 641.104 445.153
188 0 85.1891 14.0746 1199 137.353 640.606 445.902
189 0 89.3091 15.5303 1387 136.273 638.413 440.753
190 0 89.2341 12.1702 1086 144.143 637.232 437.902
191 0 94.1814 13.2723 1250 139.24 637.982 435.64
192 0 97.2884 14.5341 1414 137.414 638.065 435.007
193 0 100.386 14.7231 1478 138.571 637.482 430.457
194 0 103.401 12.408 1283 140.408 636.585 431.529
195 0 108.561 13.025 1414 137.782 639.708 427.557
196 0 110.475 14.863 1642 134.593 640.563 424.27
197 1 61.3868 12.5597 771 127.071 639.162 446.271
198 0 59.2701 8.62154 511 127.863 641.493 456.129
199 0 65.2034 11.7172 764 123.552 641.546 454.152
200 0 66.1779 17.0601 1129 120.363 642.891 447.653
201 0 68.2612 13.712 936 117.274 645.261 453.554
202 0 70.1604 14.8659 1043 116.999 647.528 447.853
203 0 70.1604 14.8659 1043 134.89 649.5 448.058
204 0 75.3974 17.494 1319 112.484 650.857 445.247
205 0 76.1606 18.3953 1401 109.764 652.193 450.526
206 0 78.2209 12.2346 957 114.824 652.152 452.736
207 0 80.1233 15.0768 1208 113.458 652.941 448.33
208 0 87.4647 17.2069 1505 112.588 652.409 445.138
209 0 84.3512 14.3448 1210 115.451 651.454 447.422
210 0 91.3485 14.0889 1287 117.495 652.033 435.256
211 1 50.1433 13.601 682 115.625 650.63 464.814
212 0 54.1093 14.1011 763 116.304 650.448 464.63
213 0 52.0485 13.8717 722 119.532 652.454 461.662
214 0 58.284 11.7871 687 119.721 652.635 462.892
215 0 55.3176 13.07 723 119.538 650.766 463.127
216 0 58.5737 15.6384 916 119.098 649.684 459.257
217 0 60.3709 13.9306 841 125.073 648.341 460.699
218 0 61.3025 13.8004 846 125.056 647.116 460.533
219 0 63.4255 15.8138 1003 126.583 645.244 451.283
220 0 63.3133 14.4046 912 127.007 644.586 454.48
221 0 65.2892 13.0956 855 131.002 643.096 456.461
222 0 65.2265 14.166 924 132.489 641.702 450.653
223 0 67.2522 12.6836 853 135.625 641.001 449.566
224 0 70.5109 13.0618 921 134.989 640.847 448.906
225 0 71.3481 14.7446 1052 132.351 640.282 448.733
226 0 73.4167 15.1737 1114 133.181 639.67 444.757
227 0 74.2796 15.1859 1128 136.096 639.543 443.434
228 0 78.2539 17.0854 1337 133.405 639.415 440.625
229 0 79.4397 16.201 1287 134.305 639.881 438.327
230 0 84.7019 14.9583 1267 136.067 640.977 438.922
231 0 84.5878 14.0919 1192 134.147 640.929 437.767
232 1 47.4219 14.255 676 121.747 644.068 458.938
233 0 48.1051 13.2418 637 128.11 645.575 457.075
234 0 50.1398 11.1688 560 124.679 647.082 459.452
235 0 48.1014 12.931 622 126.241 649.153 453.19
236 0 48.1014 12.9934 625 135.365 651.146 453.098
237 0 54.2082 13.2268 717 120.413 652.589 453.615
238 0 56.1762 13.7425 772 119.201 654.439 454.966
239 0 57.3292 15.7511 903 115.447 656.101 460.899
240 0 56.0589 16.3043 914 116.399 655.782 456.234
241 0 61.4673 13.5682 834 113.113 656.258 459.083
242 0 60.1195 12.8744 774 118.11 655.791 458.879
243 0 63.1628 14.3755 908 120.779 654.964 456.384
244 0 59.0816 11.628 687 126.978 650.598 460.15
245 0 63.0913 17.546 1107 120.752 650.173 457.241
246 0 65.1083 16.5878 1080 125.31 649.161 456.156
247 0 65.0905 16.4079 1068 125.542 647.739 456.39
248 0 70.4124 16.5738 1167 126.08 646.737 456.327
249 0 69.1199 11.8779 821 136.418 645.136 454.85
250 0 72.1076 11.9266 860 137.549 644.343 454.157
251 0 77.1612 13.5042 1042 133.891 643.497 452.936
252 1 41.0084 10.6807 438 138.174 641.607 467.655
253 0 45.0933 13.2392 597 130.538 640.256 468.729
254 0 44.1134 11.7878 520 137.104 638.627 463.027
255 0 43.0693 9.63564 415 144.048 637.822 462.518
256 0 49.116 16.5323 812 124.534 638.224 462.734
257 0 48.135 18.0118 867 116.112 637.271 462.421
258 0 46.0253 10.6246 489 133.65 638.54 461.487
259 0 48.0868 11.916 573 133.066 640.073 459.679
260 0 51.0699 11.9444 610 130.866 639.969 457.328
261 0 51.1123 10.9954 562 131.278 639.923 454.916
262 0 53.1345 12.0825 642 127.224 638.659 457.192
263 0 52.1135 10.3812 541 134.089 638.213 452.299
264 1 111.574 12.494 1394 134.43 638.798 425.032
265 0 114.356 13.7903 1577 133.066 640.251 417.179
266 0 121.513 13.2167 1606 131.265 642.161 419.84
267 0 120.918 11.7269 1418 132.032 643.841 419.438
268 0 127.465 16.0123 2041 127.803 645.851 413.754
269 0 133.717 14.6728 1962 124.398 647.446 419.945
270 0 138.96 16.4436 2285 122.778 649.602 405.1
271 0 139.435 9.2516 1290 129.23 650.261 419.978
272 1 75.3516 16.2173 1222 118.764 651.924 447.318
273 0 75.3344 11.2167 845 124.693 652.12 451.811
274 0 79.3672 14.54 1154 126.197 652.123 445.272
275 0 82.1922 17.8849 1470 119.592 652.033 451.208
276 0 84.2413 13.9005 1171 131.963 652.108 444.939
277 1 48.0842 11.3967 548 137.765 650.849 463.558
278 0 51.0552 14.3374 732 125.202 653.448 463.678
279 0 50.1956 12.1325 609 126.632 651.202 465.304
280 0 52.0783 16.936 882 121.133 651.824 460.762
281 0 54.0496 13.3951 724 127.456 651.113 463.327
282 0 55.0545 14.2404 784 126.872 650.533 460.807
283 0 58.1786 16.9134 984 122.947 648.948 459.511
284 0 57.0483 11.7444 670 136.613 647.631 459.334
285 0 60.1475 13.9823 841 133.32 645.95 458.892
286 0 64.1312 14.829 951 129.766 644.551 457.142
287 0 64.117 13.179 845 133.888 643.4 456.798
288 0 67.1289 13.0197 874 133.129 641.748 456.129
289 0 68.1165 13.8146 941 133.671 639.849 449.586
290 0 73.1721 14.8554 1087 128.173 639.431 449.962
291 0 75.2473 13.0503 982 131.627 639.445 448.24
292 1 41.0758 10.1033 415 133.954 639.923 462.81
293 0 40.0987 10.3744 416 133.147 639.625 464.49
294 0 39.048 8.8865 347 134.666 639.527 464.68
295 0 44.0839 9.95829 439 133.303 640.046 460.13
296 0 46.0169 12.039 554 131.368 640.105 457.377
297 0 46.0287 8.23399 379 135.182 642.277 460.414
298 0 48.1343 11.3848 548 130.765 643.339 456.901
299 0 52.1066 15.3915 802 124.879 644.939 453.663
300 0 51.0694 11.7291 599 129.067 646.818 453.127
301 0 53.0649 13.6813 726 121.161 648.621 457.41
302 0 54.1733 13.5491 734 121.717 650.849 453.282
303 0 55.1208 11.7379 647 124.556 652.682 454.085
304 0 57.2247 12.3373 706 122.448 654.004 452.667
305 0 59.0884 11.5759 684 122.702 654.009 455.904
306 0 59.0884 11.4405 676 119.963 655.036 456.052
307 0 62.3505 14.7874 922 118.593 655.773 456.108
308 0 64.0948 10.9681 703 128.565 655.474 453.283
309 0 69.2288 16.2649 1126 120.568 654.787 450.903
310 0 69.4028 17.4345 1210 121.343 653.578 449.207
311 0 71.2912 17.3233 1235 123.015 653.876 449.507
312 0 71.2512 14.4699 1031 130.801 653.613 450.323
313 0 74.2536 13.1037 973 135.434 651.841 452.946
314 0 75.1624 11.1226 836 138.287 651.013 450.797
315 0 76.4158 12.733 973 139.749 649.544 447.99
316 0 84.3835 15.157 1279 131.59 648.578 444.816
317 0 85.2682 11.1882 954 137.456 647.178 450.405
318 0 88.3095 14.5737 1287 133.304 645.204 442.756
319 0 91.3001 15.345 1401 130.869 644.13 443.903
320 0 95.2794 14.7251 1403 132.491 642.406 438.449
321 1 49.0924 13.3218 654 132.535 642.943 459.492
322 0 51.0979 9.33501 477 139.562 641.82 454.239
323 0 51.1253 8.52808 436 136.534 640.959 461.264
324 0 56.0939 9.19887 516 135.882 639.928 455.946
325 0 58.2421 10.2847 599 134.224 637.539 454.102
326 0 58.3731 12.0604 704 129.3 636.727 448.732
327 0 55.2394 12.1109 669 126.614 637.667 439.031
328 0 61.2605 11.9653 733 127.958 637.644 441.113
329 0 58.1158 10.4963 610 126.657 636.415 441.854
330 0 62.1062 9.66087 600 128.245 637.982 443.427
331 0 67.1759 12.4152 834 121.267 640.017 439.319
332 0 69.1742 13.7768 953 116.409 641.318 440.28
333 1 142.22 16.1159 2292 116.495 643.654 411.158
334 0 143.778 12.0951 1739 123.825 646.424 401.889
335 1 329.42 33.2524 10954 108.226 645.693 296.261
336 0 332.494 34.5781 11497 107.327 647.691 300.024
337 1 86.6615 20.7012 1794 104.346 650.529 439.824
338 0 88.621 7.81982 693 114.04 651.773 443.442
339 0 91.2657 21.6511 1976 107.469 651.217 436.528
340 0 90.3774 13.8973 1256 117.111 652.197 429.515
341 0 97.5359 15.0611 1469 116.867 652.64 432.85
342 0 99.5305 13.8048 1374 121.574 652.06 430.638
343 0 102.421 13.7472 1408 125.153 651.368 434.615
344 0 104.573 11.3605 1188 131.59 650.635 436.493
345 1 57.2781 11.6624 668 123.6 650.513 459.241
346 0 60.3875 11.0288 666 127.575 648.949 457.143
347 0 64.4009 10.4812 675 127.547 648.527 458.046
348 0 63.3057 13.0004 823 133.236 648.264 453.601
349 0 64.1103 10.9967 705 138.326 644.146 453.664
350 0 65.0564 10.0682 655 137.337 643.212 451.067
351 0 67.1344 10.0247 673 136.324 641.893 447.832
352 0 71.1456 14.2665 1015 128.56 640.507 448.171
353 0 74.1147 12.3592 916 130.551 639.145 447.684
354 0 75.1582 13.0658 982 137.235 637.825 446.51
355 0 80.19 14.3784 1153 132.646 637.301 444.245
356 0 79.1236 12.9544 1025 135.278 636.48 441.193
357 0 82.2475 12.4137 1021 136.976 636.016 438.932
358 0 84.1944 12.8512 1082 136.25 635.492 434.453
359 0 85.1727 12.234 1042 138.748 635.913 437.047
360 0 87.2319 11.1886 976 141.016 636.416 428.007
361 0 93.246 14.8746 1387 131.857 637.071 430.25
362 1 49.4788 8.69059 430 131.358 637.358 454.23
363 0 51.1349 8.6047 440 130.848 638.834 454.73
364 0 53.0549 12.7415 676 123.382 640.084 451.377
365 0 55.0774 13.0362 718 124.305 639.613 450.414
366 0 55.0774 12.9454 713 122.823 640.561 450.365
367 0 59.0983 14.7551 872 129.497 642.206 454.162
368 0 60.2 13.4385 809 128.805 644.145 454.653
369 0 62.0622 11.279 700 130.766 646.107 454.873
370 0 62.1444 13.7905 857 130.267 648.007 455.664
371 0 65.1125 15.1737 988 126.144 648.688 452.355
372 0 66.0385 17.2627 1140 122.734 649.544 455.598
373 0 70.1826 16.4001 1151 118.228 649.603 455.109
374 0 70.1799 12.183 855 130.819 649.366 456.681
375 0 73.172 17.7254 1297 121.593 650.062 457.325
376 0 75.377 18.6662 1407 124.667 650.192 453.81
377 0 75.2817 15.1033 1137 136.943 649.622 451.658
378 0 80.1382 14.6996 1178 137.666 649.169 451.873
379 0 80.2599 16.3593 1313 136.097 648.526 450.869
380 0 85.2417 17.9372 1529 133.048 647.458 453.491
381 0 86.1655 15.1917 1309 140.822 646.818 444.332
382 0 87.1213 16.3221 1422 139.584 645.334 445.951
383 1 48.0417 8.76322 421 148.701 643.411 464.99
384 0 49.1232 12.2956 604 141.187 641.947 463.81
385 0 50.0882 12.8174 642 136.343 641.025 463.151
386 0 49.0299 12.0743 592 141.22 639.434 460.6
387 0 56.4561 13.8515 782 132.627 639.634 460.506
388 0 53.3833 11.8202 631 138.758 638.571 457.675
389 0 55.3475 11.2381 622 137.548 637.895 459.461
390 0 54.4331 11.2432 612 141.649 637.095 453.24
391 0 59.337 14.3755 853 134.868 636.678 451.576
392 0 60.0671 15.2163 914 132.43 635.241 453.478
393 0 62.0804 13.112 814 139.303 634.158 452.946
394 0 65.1325 17.3953 1133 130.741 635.59 447.72
395 0 69.0809 17.0235 1176 130.213 636.157 451.058
396 0 71.1418 17.9782 1279 127.271 636.511 451.267
397 0 68.0949 12.8644 876 139.728 637.411 444.048
398 0 71.1792 17.182 1223 129.869 638.524 449.699
399 0 75.1592 15.9262 1197 130.559 640.401 444.573
400 0 81.2171 17.484 1420 125.811 643.252 443.376
401 0 80.2069 16.7816 1346 128.403 648.184 441.134
402 0 85.385 20.0621 1713 121.699 649.28 442.48
403 0 85.139 15.6333 1331 130.219 651.165 437.694
404 1 49.0494 11.1112 545 128.815 653.802 463.561
405 0 49.055 11.1711 548 137.009 653.785 461.969
406 0 53.1382 17.3698 923 122.293 653.116 462.819
407 0 56.0568 12.63 708 121.616 651.758 460.103
408 0 52.0922 11.0765 577 135.357 654.303 459.516
409 0 54.1392 14.4258 781 134.849 653.415 461.403
410 0 58.0977 15.6977 912 130.987 652.999 463.455
411 0 58.1612 14.6489 852 138.089 652.704 463.566
412 0 61.1424 15.2758 934 137.621 651.407 463.125
413 0 61.2107 14.1642 867 142.392 649.57 460.954
414 0 61.113 14.0232 857 142.032 649.028 461.7
415 0 65.155 16.4991 1075 138.477 648.108 460.177
416 0 67.1427 16.3979 1101 138.87 646.584 458.96
417 0 71.2522 17.1784 1224 135.058 645.212 457.952
418 0 72.3221 13.2878 961 145.405 643.665 455.685
419 0 74.15 15.2259 1129 144.067 642.463 452.761
420 0 78.2185 17.2593 1350 135.821 641.208 453.664
421 1 42.1185 11.4439 482 145.616 640.654 468.102
422 0 45.0973 10.9984 496 143.792 639.855 466.825
423 0 42.094 12.4483 524 142.628 638.786 465.906
424 0 47.2995 12.2623 580 141.24 636.148 461.871
425 0 47.0744 15.8685 747 130.521 634.839 460.752
426 0 48.1737 11.1679 538 147.593 634.723 459.993
427 0 50.096 14.5321 728 141.077 635.295 457.559
428 0 51.1356 12.5157 640 144.298 635.122 456.406
429 0 52.0683 15.23 793 139.44 636.633 455.493
430 0 54.2835 12.9874 705 141.8 637.36 456.631
431 0 55.1299 13.2777 732 141.861 638.514 456.846
432 0 58.0865 14.3579 834 140.854 640.101 453.422
433 0 57.0489 14.4087 822 142.618 641.897 454.235
434 0 59.0698 14.6268 864 143.059 644.535 451.968
435 0 62.2904 13.7742 858 148 648.589 452.748
436 0 63.0702 14.8406 936 144.689 649.326 452.014
437 0 64.2646 12.9153 830 147.13 652.335 450.561
438 0 65.3716 13.5074 883 152.403 652.069 449.196
439 0 69.2789 15.517 1075 142.046 653.236 452.552
440 0 71.169 13.1096 933 152.26 653.488 450.555
441 0 75.296 15.9902 1204 145.636 653.698 452.583
442 0 77.2891 14.9568 1156 150.638 652.705 450.659
443 0 80.2214 16.2924 1307 148.392 651.72 452.476
444 0 82.2824 17.051 1403 148.116 651.481 450.228
445 1 45.2939 12.8936 584 155.048 650.716 466.656
446 0 47.4643 11.2716 535 156.665 649.4 468.991
447 0 49.2616 11.916 587 158.106 648.615 466.31
448 0 46.2725 12.4264 575 152.565 646.602 469.341
449 0 49.3874 12.7765 631 157.055 644.951 463.233
450 0 52.313 13.0369 682 156.82 643.977 464.026
451 0 55.3293 13.7179 759 153.494 642.711 464.187
452 0 54.0758 13.703 741 153.263 643.794 464.915
453 0 55.1084 14.0813 776 151.724 641.856 463.356
454 0 57.2144 12.5668 719 155.581 640.99 461.291
455 0 57.1771 13.7293 785 152.563 640.701 460.536
456 0 58.1093 13.7499 799 151.797 639.344 458.559
457 0 60.1199 13.9554 839 151.762 638.955 453.507
458 0 60.2334 11.8207 712 155.244 638.49 452.468
459 0 63.2684 14.0987 892 148.714 638.58 453.7
460 0 66.2013 17.2202 1140 142.661 638.211 449.502
461 0 68.1823 14.7252 1004 144.486 638.565 452.248
462 0 69.2841 12.8168 888 151.864 639.223 445.431
463 0 71.2808 13.1452 937 152.031 639.576 443.229
464 1 38.0373 10.2531 390 149.833 642.079 462.185
465 0 39.0725 11.1844 437 150.449 643.142 459.966
466 0 40.0542 9.587 384 151.75 644.208 459.396
467 0 42.0309 11.0157 463 146.6 647.06 461.959
468 0 43.1493 10.0581 434 150.558 649.071 458.924
469 0 47.0959 12.7612 601 139.022 651.141 460.589
470 0 46.099 13.0589 602 137.106 652.759 460.563
471 0 51.3135 16.0387 823 117.261 653.785 462.618
472 0 50.1375 16.7539 840 115.932 653.636 455.965
473 0 55.4333 14.3776 797 118.871 653.68 464.529
474 0 56.4167 15.0665 850 119.404 654.044 462.62
475 0 55.4117 15.3758 852 122.421 653.682 461.986
476 0 55.3333 12.5783 696 134.147 652.741 460.491
477 0 59.2749 15.5715 923 125.306 652.43 462.208
478 0 59.4269 13.3946 796 129.899 651.98 459.299
479 0 60.2009 13.7705 829 133.203 650.495 462.223
480 0 61.387 13.2764 815 135.487 649.369 459.864
481 0 65.2239 17.0183 1110 129.523 648.086 457.641
482 0 66.2286 13.3628 885 140.19 647.019 457
483 0 72.3653 18.0473 1306 127.984 645.106 457.314
484 0 71.2653 12.7832 911 140.228 644.165 457.059
485 0 72.1804 13.7849 995 139.905 642.435 452.416
486 0 76.1766 14.9258 1137 140.373 641.681 452.966
487 0 79.1242 15.5199 1228 138.748 640.619 449.149
488 0 81.2092 14.358 1166 138.741 639.738 447.123
489 0 83.0896 13.6239 1132 140.089 638.921 447.135
490 1 46.0806 11.6535 537 135.363 639.633 466.184
491 0 46.0848 12.6723 584 133.628 638.743 462.947
492 0 48.3076 13.414 648 133.085 638.66 458.387
493 0 48.2419 12.1471 586 133.41 638.669 454.193
494 0 50.0892 13.9352 698 132.977 635.827 456.702
495 0 51.026 13.4637 687 134.677 636.374 455.905
496 0 52.0794 13.1338 684 133.779 636.899 453.184
497 0 57.1272 16.3845 936 126.181 638.525 452.057
498 0 56.2085 13.4677 757 131.388 640.361 454.815
499 0 58.1392 15.7037 913 124.399 642.327 453.874
500 0 58.2643 13.7649 802 129.288 644.817 450.352
501 0 60.2417 12.6657 763 130.722 646.054 453.682
502 0 62.273 16.1547 1006 126.784 647.739 453.387
503 0 68.4281 17.8874 1224 118.775 649.687 457.102
504 0 69.3182 18.5089 1283 121.602 651.472 454.005
505 0 69.2325 12.7541 883 131.728 652.481 451.882
506 0 74.4261 14.511 1080 125.877 652.91 451.131
507 0 74.4915 13.1827 982 133.749 652.403 452.073
508 0 78.5505 15.2004 1194 134.729 651.852 446.451
509 0 79.3855 12.5464 996 144.042 651.692 448.467
510 0 85.7093 14.9109 1278 140.703 650.782 448.249
511 1 42.6426 11.9599 510 136.751 652.608 469.361
512 0 45.0599 12.8718 580 141.869 650.653 465.872
513 0 46.2596 12.4299 575 142.198 649.598 466.748
514 0 48.2845 15.0566 727 137.509 648.453 466.541
515 0 50.1257 13.4063 672 137.814 648.391 466.872
516 0 50.1488 12.3832 621 139.013 646.622 467.728
517 0 52.1493 11.9657 624 139.965 645.489 464.522
518 0 53.1363 13.9265 740 137.65 644.747 463.284
519 0 52.1595 12.1934 636 143.659 643.319 461.423
520 0 53.3351 11.1184 593 145.793 642.17 462.293
521 0 58.1373 14.4142 838 139.259 641.243 460.031
522 0 57.1604 13.9082 795 139.996 640.136 459.319
523 0 60.0442 13.8565 832 140.793 639.502 457.272
524 0 59.2278 12.95 767 143.477 639.415 455.005
525 0 61.1636 11.7717 720 143.857 639.469 457.499
526 0 65.1291 15.0624 981 139.746 638.946 451.53
527 0 66.1265 12.3702 818 143.252 640.082 453.174
528 0 68.1298 11.5368 786 146.257 640.991 452.964
529 0 71.1466 12.8327 913 144.728 640.746 449.512
530 0 74.3525 13.3419 992 141.942 641.844 448.922
531 0 77.3453 14.765 1142 136.73 643.466 446.96
532 0 80.2768 13.2292 1062 140.991 644.432 444.961
533 0 83.2089 17.6904 1472 127.877 647.068 443.255
534 0 84.3475 15.8867 1340 128.944 649.132 444.977
535 0 87.3557 14.8588 1298 131.089 650.901 442.422
536 0 89.3979 13.054 1167 131.416 651.482 441.613
537 0 92.231 18.0525 1665 124.494 652.43 438.874
538 1 52.0987 11.2863 588 127.44 654.553 458.177
539 0 52.043 17.2742 899 122.347 653.632 460.42
540 0 52.1304 16.5546 863 123.368 651.546 459.459
541 0 55.2979 13.4182 742 128.263 652.067 464.493
542 0 55.0877 13.5965 749 134.406 653.059 459.489
543 0 56.2484 15.7693 887 139.389 650.132 458.423
544 0 61.0624 16.4586 1005 133.336 649.803 459.802
545 0 61.2627 14.3807 881 142.355 648.503 458.531
546 0 61.1518 11.0381 675 152.265 646.807 459.092
547 0 64.1992 13.6295 875 145.313 645.486 461.133
548 0 67.1565 14.2205 955 148.338 644.798 454.382
549 0 69.1063 15.6715 1083 144.235 643.594 452.04
550 0 72.2285 15.9632 1153 144.512 642.614 452.056
551 0 73.1884 14.9614 1095 147.043 641.155 448.28
552 0 76.2271 13.6566 1041 149.171 639.754 452.632
553 0 80.1796 14.4301 1157 145.226 638.593 451.199
554 0 84.4305 16.1908 1367 141.652 637.866 449.032
555 0 85.0831 15.4555 1315 144.956 637.139 445.662
556 0 86.1495 14.2311 1226 150.326 637.076 443.441
557 0 88.4774 17.8351 1578 141.857 636.596 442.244
558 1 48.0564 11.9027 572 149.823 635.654 459.934
559 0 50.0492 12.5876 630 144.617 635.551 459.117
560 0 50.1815 13.5508 680 143.196 635.941 457.829
561 0 53.1463 13.2465 704 139.55 635.378 459.075
562 0 53.1072 16.5702 880 135.367 636.926 454.702
563 0 55.0667 17.0157 937 130.723 638.027 453.678
564 0 57.2345 15.0084 859 130.934 639.616 451.111
565 0 59.1164 16.2222 959 127.428 641.433 451.612
566 0 62.1137 12.0424 748 130.598 643.528 451.447
567 0 64.1224 15.7979 1013 122.652 645.389 449.501
568 0 66.2954 16.4114 1088 119.224 647.113 453.543
569 0 67.1933 13.0072 874 124.279 648.699 449.231
570 0 70.1166 18.4835 1296 116.602 650.221 452.068
571 0 70.1446 15.1972 1066 135.722 650.443 448.523
572 0 73.2809 16.9212 1240 132.529 651.495 448.719
573 0 72.1053 13.0781 943 137.071 652.601 454.273
574 0 76.3836 13.0133 994 142.814 651.558 447.511
575 1 39.0118 11.7144 457 143.755 650.842 469.228
576 0 45.0362 13.1228 591 145.721 650.335 466.838
577 0 41.1062 10.6553 438 149.075 649.646 468.731
578 0 44.0736 9.73371 429 158.417 649.848 470.315
579 0 45.027 10.8379 488 156.08 647.959 469.611
580 0 47.1747 13.3758 631 149.035 646.837 468.954
581 0 48.0369 13.5104 649 146.451 646.237 469.812
582 0 50.1645 13.9541 700 147.389 644.769 467.554
583 0 50.1992 15.6775 787 145.587 643.189 468.132
584 0 54.1309 17.0882 925 141.405 642.375 464.286
585 0 54.1436 11.6173 629 153.687 640.733 467.688
586 0 56.1922 13.9521 784 148.802 640.028 464.269
587 0 58.1486 15.1164 879 145.875 638.922 463.48
588 0 59.0876 14.5547 860 148.307 638.236 460.871
589 0 63.3486 13.9388 883 148.232 637.331 460.575
590 0 64.123 16.1564 1036 143.208 637.035 461.553
591 0 66.1396 13.9402 922 147.972 636.685 458.569
592 0 68.1719 14.3901 981 148.402 635.737 452.608
593 0 72.148 14.7336 1063 145.738 635.484 455.231
594 0 74.2964 14.1864 1054 149.418 635.706 453.542
595 0 78.3054 19.0919 1495 133.113 635.667 452.631
596 0 80.327 19.2961 1550 132.319 636.506 453.028
597 0 80.3436 17.2882 1389 137.692 637.424 453.976
598 1 43.0705 12.7465 549 147.69 637.585 466.989
599 0 45.0293 11.2815 508 145.337 639.138 467.372
600 0 44.0983 14.3996 635 140.619 640.794 468.765
601 0 47.2975 12.1571 575 147.085 644.743 466.369
602 0 47.1131 13.3084 627 143.876 644.116 468.215
603 0 47.0201 10.2935 484 152.8 644.002 466.452
604 0 49.0552 13.0465 640 143.848 644.948 467.772
605 0 53.1095 14.4795 769 141.064 644.975 465.153
606 0 54.0277 14.5666 787 142.488 645.211 466.116
607 0 54.0595 13.0782 707 147.781 644.992 465.587
608 0 53.0495 12.6486 671 149.791 644.307 465.79
609 0 57.0645 13.8615 791 145.287 644.929 467.851
610 0 61.1511 15.8133 967 141.534 643.389 463.9
611 0 62.136 13.7923 857 147.156 642.73 464.049
612 0 63.0916 16.3255 1030 142.644 642.021 462.516
613 0 64.0846 12.6083 808 151.349 640.462 465.035
614 0 65.106 12.9174 841 152.791 639.231 460.792
615 0 67.1718 13.9642 938 151.984 638.124 457.44
616 0 71.0753 15.5328 1104 148.079 637.039 456.764
617 0 74.0941 14.2521 1056 150.432 635.839 456.952
618 0 73.0724 12.6861 927 154.265 634.314 453.914
619 0 78.0387 15.0054 1171 154.342 633.778 451.792
620 0 80.1007 15.6428 1253 150.936 632.506 455.168
621 0 81.1134 14.3503 1164 151.196 631.858 449.704
622 0 84.1666 14.2693 1201 151.343 631.72 446.849
623 0 88.1751 18.0436 1591 143.598 631.58 441.909
624 0 89.1463 16.4337 1465 147.021 630.911 440.732
625 1 48.1555 8.68021 418 152.222 630.782 463.876
626 0 50.0273 12.2133 611 143.29 631.282 462.319
627 0 51.0761 11.8255 604 146.796 632.669 460.682
628 0 57.214 14.4196 825 139.041 632.851 458.765
629 0 55.4094 13.7522 762 141.161 636.367 452.462
630 0 57.4721 14.2504 819 140.125 636.979 449.962
631 0 57.065 13.4408 767 138.73 637.688 451.557
632 0 60.2616 15.9803 963 130.964 641.602 449.448
633 0 61.2117 15.3402 939 135.607 643.529 448.265
634 0 63.408 13.1371 833 141.637 644.635 448.25
635 0 67.1963 16.3253 1097 131.857 647.503 450.582
636 0 69.1802 22.015 1523 123.952 649.061 453.664
637 0 70.206 17.349 1218 131.663 649.909 450.58
638 0 69.3705 13.4783 935 146.784 650.415 443.387
639 0 74.1904 13.6945 1016 145.022 652.311 447.559
640 0 73.2685 16.4054 1202 149.98 650.867 445.319
641 0 76.275 15.4179 1176 150.842 650.914 447.848
642 0 78.3545 14.1281 1107 156.78 649.506 443.211
643 0 81.2732 14.7158 1196 155 649.798 447.565
644 0 81.2052 13.5706 1102 160.884 649.423 445.864
645 1 43.0265 9.25011 398 164.42 649.384 465.482
646 0 45.0261 11.0825 499 160.439 648.495 465.852
647 0 46.1096 12.0365 555 163.654 647.602 466.863
648 0 48.1951 11.9722 577 163.685 646.04 464.988
649 0 49.0576 12.4344 610 159.815 643.749 468.877
650 0 49.0477 11.4175 560 165.584 642.923 468.6
651 0 47.1143 11.8011 556 173.7 642.3 466.777
652 0 48.1064 12.8465 618 173.191 640.228 463.942
653 0 49.163 12.3263 606 166.573 640.368 466.074
654 0 50.0699 11.7236 587 167.112 638.973 465.353
655 0 52.2154 13.157 687 160.809 637.875 464.801
656 0 51.197 11.7585 602 163.498 637.289 463.271
657 0 53.1927 12.1445 646 159.692 636.923 461.204
658 0 54.1268 13.8933 752 157.746 637.203 458.984
659 0 52.0461 12.8924 671 159.195 637.724 458.866
660 0 55.0292 15.4463 850 153.834 637.967 456.145
661 0 58.0735 14.6711 852 150.258 638.579 453.157
662 0 58.0613 13.7096 796 150.126 639.56 453.705
663 0 58.0759 11.7949 685 155.736 639.276 451.892
664 0 60.121 12.6578 761 151.954 640.749 453.505
665 0 61.1024 15.3676 939 146.841 643.543 450.444
666 0 61.1168 12.4679 762 152.316 645.885 449.881
667 0 63.1709 12.0625 762 150.571 647.059 451.539
668 1 30.06 8.48302 255 150.337 648.29 467.51
669 0 32.0088 8.65386 277 148.249 650.285 469.801
670 0 33.0767 12.2443 405 142.879 650.585 468.007
