time division length width area intensity CMx CMy
0 0 83.3349 15.8517 1321 123.269 1042.26 432.298
1 0 82.1602 16.0905 1322 122.808 1043.22 433.049
2 0 81.1657 14.4273 1171 127.009 1044.37 434.663
3 0 84.2934 12.2074 1029 127.285 1043.86 429.669
4 0 91.2118 18.9997 1733 117.385 1044.35 435.275
5 0 92.4502 10.6544 985 121.635 1043.83 441.518
6 0 94.2917 12.6522 1193 122.728 1042.99 437.355
7 0 94.2976 12.9272 1219 132.591 1041.97 437.361
8 0 102.423 14.8209 1518 122.615 1041.7 429.755
9 0 105.561 13.7645 1453 125.61 1039.72 431.564
10 0 108.326 19.1828 2078 122.877 1039.38 425.981
11 1 60.1458 19.486 1172 119.593 1038.6 450.15
12 0 58.1185 12.5261 728 133.107 1038.01 454.207
13 0 60.2344 14.51 874 130.471 1036.86 452.372
14 0 64.1964 11.6829 750 144.985 1035.49 450.528
15 0 64.2284 14.6508 941 149.181 1033.75 448.511
16 0 67.3722 15.6741 1056 148.746 1031.88 447.509
17 0 70.155 14.0546 986 153.377 1030.41 447.303
18 0 70.0618 12.0037 841 154.705 1029.74 445.674
19 0 73.1079 15.8122 1156 148.848 1028.7 444.558
20 0 75.0615 13.9619 1048 151.302 1027.56 443.24
21 0 76.1492 13.7231 1045 154.414 1026.53 439.037
22 0 79.0919 14.1607 1120 149.245 1027.03 436.271
23 0 84.1589 14.0924 1186 149.133 1026.79 433.771
24 0 83.1763 13.0806 1088 153.584 1026.54 430.224
25 0 89.2752 14.6289 1306 148.822 1026.91 433.808
26 0 90.2932 13.9213 1257 152.257 1027.22 431.532
27 0 94.2375 15.5564 1466 147.812 1027.2 426.205
28 0 96.2365 14.4332 1389 152.557 1027.31 427.11
29 0 98.2409 15.065 1480 139.632 1027.35 426.051
30 0 98.2316 15.0155 1475 139.315 1027.34 425.996
31 1 110.295 16.7188 1844 139.356 1032.63 420.087
32 0 115.362 15.5077 1789 128.354 1034.38 424.625
33 0 115.154 19.6085 2258 118.736 1036.08 421.76
34 1 63.3416 19.4027 1229 110.137 1038.45 443.041
35 0 65.1854 9.21986 601 109.664 1040.53 451.877
36 0 68.29 17.25 1178 110.166 1040.63 443.19
37 0 67.2375 11.5114 774 113.857 1041.34 444.671
38 0 71.2365 16.0171 1141 110.266 1041.74 441.127
39 1 148.77 11.1783 1663 118.055 1041.34 418.987
40 1 77.4576 22.1024 1712 104.939 1040.91 446.332
41 0 78.311 13.3698 1047 109.651 1040.96 452.196
42 0 80.4977 18.7086 1506 110.309 1040.09 443.835
43 0 81.13 12.9175 1048 118.011 1039.22 436.578
44 0 86.1346 12.0277 1036 123.531 1038.53 444.476
45 0 89.354 16.2052 1448 116.954 1037.33 441.886
46 0 93.2708 13.4554 1255 123.619 1035.99 443.665
47 0 93.2708 13.5734 1266 135.333 1034.98 443.785
48 1 48.1104 11.5568 556 132.158 1034.48 461.782
49 0 49.2025 10.8531 534 137.831 1033.05 457.556
50 0 51.0837 13.3702 683 137.924 1031.55 459.855
51 0 53.0501 14.3826 763 140.183 1029.86 458.624
52 0 52.0279 13.3966 697 144.769 1028.26 459.062
53 0 53.0148 13.0907 694 136.022 1027.3 459.156
54 0 59.1675 13.6054 805 137.599 1027.36 452.998
55 0 61.2887 16.6915 1023 130.708 1026.51 454.169
56 0 62.3264 16.1729 1008 133.708 1024.96 450.642
57 0 61.3908 13.6014 835 141.371 1025.3 450.489
58 0 64.2809 13.9077 894 140.07 1025.37 448.171
59 0 63.1712 12.8065 809 144.939 1025.08 443.916
60 0 69.306 14.371 996 138.496 1025.23 445.692
61 0 67.1874 15.0326 1010 142.608 1025.35 441.048
62 0 71.2938 13.7039 977 139.042 1026.06 444.47
63 0 71.2597 12.7281 907 140.567 1026.95 439.872
64 0 76.3038 16.1853 1235 129.049 1028.82 438.893
65 0 77.1324 14.7798 1140 127.991 1030.3 442.382
66 0 79.1723 20.0702 1589 117.72 1032.89 434.399
67 0 86.3827 20.7217 1790 112.398 1035.06 440.719
68 1 42.2472 9.18405 388 120.095 1035.96 456.577
69 0 49.4658 9.64302 477 115.365 1036.49 455.352
70 0 51.391 13.6211 700 110.35 1038.97 457.867
71 0 50.3353 9.23805 465 110.692 1041.34 462.548
72 0 49.1446 11.3135 556 109.41 1039.59 461.588
73 0 54.2459 13.107 711 112.186 1038.58 458.617
74 0 54.2281 13.2957 721 109.302 1037.51 465.11
75 0 58.1067 12.8212 745 112.683 1037.14 462.205
76 0 57.1034 18.0199 1029 113.349 1036.73 455.724
77 0 58.0886 13.2728 771 126.387 1035.85 457.179
78 0 58.1921 12.9743 755 127.984 1035.48 460.689
79 0 59.1508 9.33209 552 136.911 1034.65 458.562
80 0 64.073 13.3754 857 129.592 1033.76 458.432
81 0 64.073 13.391 858 124.824 1032.77 458.361
82 0 67.4815 11.2179 757 135.135 1030.79 460.606
83 0 68.324 15.002 1025 136.286 1029.77 453.84
84 0 71.3979 12.6474 903 138.487 1028.14 455.382
85 0 71.267 12.2497 873 140.519 1026.82 450.101
86 0 74.3855 15.7289 1170 137.032 1025.56 449.199
87 0 76.5997 14.8695 1139 138.702 1024.58 445.901
88 0 78.3457 14.8828 1166 140.285 1024.15 443.721
89 1 40.4361 8.7051 352 147.622 1023.36 461
90 0 42.4251 10.3712 440 140.641 1023.07 461.477
91 0 44.6833 12.6445 565 137.124 1022.91 455.531
92 0 47.6397 12.5106 596 133.612 1022.9 452.631
93 0 46.4354 12.3613 574 135.49 1022.02 446.577
94 0 46.1841 9.85187 455 135.996 1022.2 449.991
95 0 49.3027 11.8046 582 135.665 1022.35 447.196
96 0 49.1456 8.89194 437 134.572 1023.2 449.492
97 0 52.3042 12.5994 659 130.59 1025.16 446.578
98 0 54.2649 14.9452 811 119.354 1027.62 446.693
99 0 54.3108 8.85644 481 129.811 1029.7 446.243
100 0 55.4082 12.8681 713 121.254 1031.2 444.809
101 0 61.8039 11.941 738 115.378 1033.62 447.772
102 0 67.0151 15.0414 1008 106.264 1035.91 452.341
103 0 62.4497 20.5605 1284 106.562 1036.39 445.89
104 0 65.369 12.483 816 110.45 1037.8 447.949
105 0 67.5885 16.6152 1123 108.191 1038.11 445.378
106 0 67.2512 12.5351 843 112.652 1038.02 446.12
107 0 70.3075 11.023 775 112.274 1038.88 444.764
108 0 72.3005 18.1741 1314 108.706 1038.42 443.663
109 0 74.3315 17.1663 1276 108.012 1038.21 451.41
110 0 77.5872 9.96298 773 120.585 1037.44 446.95
111 1 41.0345 10.6983 439 125.722 1037.86 466.989
112 0 40.084 10.977 440 127.305 1037.3 467.598
113 0 41.2426 12.0264 496 126.831 1035.74 468.819
114 0 42.1632 12.2619 517 131.015 1033.71 467.261
115 0 42.1632 12.2619 517 130.54 1031.71 467.261
116 0 46.4645 10.7179 498 133.165 1029.07 465.315
117 0 47.0911 12.4864 588 131.451 1031.06 465.844
118 0 49.0982 11.0187 541 135.608 1029.19 466.272
119 0 50.1228 12.3297 618 130.706 1028.14 467.12
120 0 53.3095 12.1554 648 135.071 1026.65 463.795
121 0 54.2484 14.9682 812 130.69 1025.13 461.042
122 0 54.0566 14.3368 775 132.182 1023.89 457.413
123 0 57.0764 12.9826 741 133.259 1023.35 456.717
124 0 59.1631 13.8938 822 135.08 1022.15 456.091
125 0 59.1631 13.8431 819 131.056 1021.2 456.161
126 0 59.1855 13.9561 826 134.019 1021.95 452.369
127 0 62.2749 14.2112 885 131.731 1021.92 451.374
128 0 61.3478 11.28 692 137.442 1021.59 450.175
129 0 64.2773 16.0865 1034 129.073 1022.48 446.507
130 0 68.3225 14.2559 974 131.155 1023 446.662
131 0 68.296 13.8368 945 131.688 1024.59 443.116
132 0 78.6479 17.9789 1414 115.399 1026.22 446.533
133 0 73.1933 12.8427 940 126.988 1028.74 444.281
134 0 78.2358 17.2555 1350 114.455 1030.43 445.34
135 0 82.4384 15.7936 1302 113.078 1032.17 447.458
136 1 44.4458 15.862 705 105.565 1035.43 466.769
137 0 43.1673 13.7836 595 112.425 1035.08 462.255
138 0 47.2199 10.7582 508 112.86 1036.62 463.413
139 0 46.2315 9.51732 440 115.482 1035.27 466.17
140 0 48.3232 14.8997 720 111.383 1034.31 465.024
141 0 50.3257 12.1409 611 114.196 1036.56 464.172
142 0 50.3172 12.0436 606 115.373 1036.59 463.957
143 0 52.3252 14.6966 769 118.411 1034.81 460.918
144 0 52.2182 18.1354 947 113.1 1034.39 468.406
145 0 52.2182 18.212 951 115.809 1033.41 468.388
146 0 56.2008 13.8966 781 128.666 1032.53 463.286
147 0 57.2537 12.5232 717 131.467 1031.92 464.926
148 0 58.225 14.7016 856 130.255 1029.96 459.416
149 0 64.6105 17.8764 1155 122.805 1028.83 463.597
150 0 59.1796 12.5212 741 139.695 1026.85 460.918
151 0 65.1902 14.6648 956 134.441 1026.23 459.726
152 0 65.4598 15.9029 1041 134.978 1023.9 455.688
153 0 66.1931 14.9109 987 136.75 1023.14 457.244
154 0 70.1591 15.0087 1053 135.998 1021.44 454.752
155 0 73.2854 16.3471 1198 136.983 1020.7 448.563
156 0 75.3399 15.7685 1188 138.831 1020.01 451.606
157 0 77.3379 13.6414 1055 145.609 1019.2 446.27
158 0 81.4942 16.2834 1327 139.181 1018.53 445.919
159 1 42.0857 11.5479 486 142.926 1019.64 461.726
160 0 44.1274 9.56322 422 147.178 1019.71 462.036
161 0 45.0352 10.4807 472 146.148 1019.74 458.761
162 0 49.1964 14.0051 689 132.414 1020.18 459.994
163 0 49.1049 10.6303 522 139.138 1020.46 458.094
164 0 50.0994 11.2975 566 137.505 1022.15 455.859
165 0 54.1622 14.4751 784 126.135 1024.1 455.51
166 0 57.3376 15.1733 870 124.618 1025.93 457.547
167 0 56.1236 15.3233 860 127.336 1028.06 452.483
168 0 58.144 14.6705 853 128.395 1029.43 455.32
169 0 58.25 11.1931 652 126.017 1030.69 454.779
170 0 61.1113 14.3018 874 124.125 1031.34 452.961
171 0 62.3185 14.811 923 122.648 1032.54 454.297
172 0 63.3016 13.9333 882 125.379 1032 453.709
173 0 65.3202 13.518 883 127.533 1032.58 453.382
174 0 70.2323 15.1497 1064 129.242 1033.01 454.62
175 0 73.434 19.3507 1421 124.146 1033.27 453.084
176 0 72.2799 14.2778 1032 138.458 1031.9 452.872
177 0 74.2804 15.6569 1163 137.491 1031.32 452.321
178 0 76.2891 15.5986 1190 138.413 1031.37 451.217
179 0 78.2203 19.2022 1502 132.291 1029.78 453.921
180 0 81.4776 17.6367 1437 142.778 1028.64 447.72
181 0 85.4245 17.0443 1456 138.084 1027.34 452.002
182 1 43.0507 10.8941 469 141.075 1027.36 469.736
183 0 44.0839 9.27775 409 144.892 1026.73 470.252
184 0 48.0418 10.9072 524 142.015 1025.02 468.34
185 0 49.0783 11.6752 573 142.531 1023.14 466.435
186 0 51.0926 13.7789 704 134.425 1019.34 466.74
187 0 54.3113 15.0982 820 136.059 1018.18 462.033
188 0 55.3865 12.819 710 140.165 1017.24 460.051
189 0 55.1515 14.9951 827 136.885 1017.51 462.261
190 0 56.1917 13.3472 750 139.34 1016.28 460.332
191 0 55.2957 12.0986 669 143.75 1015.74 456.854
192 0 57.1501 11.7235 670 144.402 1015.13 456.348
193 0 60.2318 13.9627 841 139.829 1014.82 453.243
194 0 62.1667 13.4477 836 139.406 1015.87 451.937
195 0 66.279 15.646 1037 136.6 1015.89 448.971
196 0 67.3532 15.055 1014 136.299 1017.02 452.396
197 0 70.3968 18.1827 1280 130.22 1019.03 443.958
198 0 71.189 17.3482 1235 130.523 1020.29 448.595
199 0 76.3399 17.3828 1327 129.814 1021.62 442.833
200 0 76.3816 13.0791 999 135.924 1022.51 442.277
201 0 78.1752 13.9047 1087 132.892 1025.31 444.364
202 0 81.7492 12.8075 1047 135.091 1026.74 442.569
203 0 85.4328 13.3087 1137 132.459 1028.4 444.614
204 0 88.7933 17.3887 1544 126.271 1029.88 446.647
205 1 48.3065 5.81703 281 135.851 1031.04 466.402
206 0 46.4302 10.8981 506 128.64 1031.12 463.253
207 0 48.281 9.4447 456 130.382 1031.24 465.419
208 0 51.244 10.4793 537 127.927 1031.53 468.19
209 0 52.1706 12.3249 643 130.698 1030.34 462.272
210 0 55.2919 11.8462 655 128.177 1032.41 464.357
211 0 56.1377 12.8434 721 133.202 1031.99 464.903
212 0 55.0612 10.1342 558 141.756 1031.31 461.183
213 0 55.0612 10.2068 562 136.187 1030.3 461.187
214 0 61.2444 13.7809 844 136.667 1028.74 459.528
215 0 63.1837 15.7161 993 132.759 1027.57 463.286
216 0 65.1753 14.929 973 136.909 1026.35 459.509
217 0 68.3204 15.0907 1031 137.467 1025.13 457.885
218 0 69.1591 14.7052 1017 140.137 1023.34 454.86
219 0 74.2365 14.0632 1044 138.955 1022.24 455.71
220 0 75.2774 14.5064 1092 141.55 1020.57 451.823
221 0 76.1429 14.7748 1125 142.556 1019.29 449.068
222 1 40.0317 10.7415 430 147.333 1019.14 466.172
223 0 42.028 10.374 436 145.433 1018.55 466.617
224 0 48.0255 11.0774 532 141.479 1018.16 466.137
225 0 48.0661 12.3996 596 140.097 1017.03 464.072
226 0 50.1232 10.973 550 143.456 1017.44 460.353
227 0 49.2333 12.2884 605 142.663 1017.12 458.559
228 0 52.2022 13.5626 708 138.085 1014.94 453.503
229 0 53.4639 13.0929 700 140.18 1015.9 454.35
230 0 54.1567 10.9866 595 140.41 1019.6 458.094
231 0 56.1104 14.3645 806 130.944 1020.88 452.908
232 0 57.3917 13.0158 747 130.104 1022.1 453.602
233 0 58.3057 11.8342 690 131.707 1024.18 451.583
234 0 62.1379 14.677 912 127.316 1025.51 452.967
235 0 66.3071 15.6846 1040 121.194 1028.06 455.216
236 0 66.1782 13.5694 898 129.7 1029.61 452.235
237 0 65.2232 14.4734 944 124.724 1031.1 452.755
238 0 70.2438 14.35 1008 124.919 1031.79 450.628
239 0 68.2672 12.0702 824 128.103 1033.11 453.384
240 0 72.0938 14.7863 1066 123.999 1033.48 453.053
241 0 76.1655 15.8602 1208 123.167 1032.81 451.102
242 0 75.189 12.3688 930 129.903 1032.57 451.116
243 0 79.2344 11.75 931 131.63 1032.08 453.959
244 0 79.3485 13.0437 1035 133.127 1031.22 449.594
245 0 83.1977 14.8562 1236 132.098 1030.75 448.977
246 0 87.3906 17.0957 1494 127.26 1029.19 448.394
247 0 89.528 12.3313 1104 137.949 1028.26 445.371
248 0 91.5832 11.7926 1080 138.845 1027.15 447.719
249 0 94.5878 12.7501 1206 139.262 1025.83 441.944
250 1 52.3333 9.93631 520 131.623 1023.18 467.683
251 0 52.2271 12.1393 634 130.606 1021.72 463.932
252 0 55.1748 11.8714 655 130.869 1019.93 463.202
253 0 57.3003 12.8446 736 129.59 1019.04 458.74
254 0 57.0953 10.1409 579 137.444 1017.33 459.173
255 0 58.203 14.1402 823 130.972 1016.41 457.339
256 0 59.4972 11.614 691 136.658 1015.64 457.36
257 0 61.4137 10.8608 667 137.312 1015.97 457.585
258 0 65.3674 16.2925 1065 126.423 1015.26 453.425
259 0 68.3355 12.702 868 135.009 1014.76 448.397
260 0 71.2893 14.4482 1030 135.642 1014.92 449.393
261 0 73.3284 14.3464 1052 134.52 1015.25 449.589
262 0 75.3936 16.9112 1275 131.239 1016.52 446.711
263 0 75.3936 16.9245 1276 129.8 1017.53 446.597
264 0 83.8668 25.0039 2097 115.958 1017.95 442.265
265 0 84.8984 14.7117 1249 132.018 1019.23 442.013
266 1 44.4445 10.5525 469 125.362 1022.44 463.403
267 0 44.4445 10.6875 475 132.461 1025.39 463.375
268 0 48.6917 12.5689 612 122.123 1026.31 455.49
269 0 50.7577 14.0668 714 119.448 1027.74 454.718
270 0 51.7533 12.4243 643 130.787 1028.76 455.697
271 0 50.4929 12.6552 639 123.7 1030.15 455.232
272 0 53.2501 12.0939 644 124.564 1031.69 460.944
273 0 53.2256 10.8031 575 129.92 1031.92 462.626
274 0 55.3499 11.8699 657 123.96 1032.18 462.376
275 0 57.1622 12.1234 693 127.791 1031.73 460.892
276 0 61.3353 12.6028 773 125.537 1031.71 462.794
277 0 60.3556 15.6738 946 122.384 1031.28 463.022
278 0 61.4242 10.3054 633 132.278 1031.19 465.529
279 0 65.3021 14.655 957 129.338 1029 457.696
280 0 66.2853 13.2458 878 133.883 1027.5 455.35
281 0 66.1817 11.7253 776 137.157 1027.15 455.191
282 0 66.2054 11.6305 770 122.582 1027.19 455.194
283 0 73.2152 12.4155 909 135.846 1024.83 453.6
284 1 37.0579 10.578 392 132.599 1024.18 473.13
285 0 39.0256 10.0703 393 134.995 1022.28 470.036
286 0 39.0256 10.1984 398 128.153 1020.29 470.018
287 0 44.0828 9.23262 407 134.56 1019.56 469.98
288 0 44.062 10.7122 472 133.358 1019.15 467.265
289 0 44.1456 11.8019 521 131.056 1018.07 468.309
290 0 43.056 10.498 452 136.173 1018.11 463.201
291 0 49.0511 13.5369 664 129.73 1017.54 460.47
292 0 48.1684 12.9961 626 126.77 1016.72 458.217
293 0 50.239 11.3259 569 130.861 1016.88 458.246
294 0 51.1671 11.3745 582 130.187 1016.6 456.266
295 0 52.2321 10.0896 527 132.061 1017.39 455.33
296 0 52.2598 10.0842 527 131.67 1017.34 455.7
297 0 57.1742 11.876 679 128.364 1018.81 453.702
298 0 56.2166 10.1571 571 130.513 1020.58 453.576
299 0 59.119 11.2993 668 127.344 1022.09 450.313
300 0 63.275 14.2868 904 120.563 1023.27 453.299
301 0 61.2225 10.9927 673 127.597 1024.89 449.643
302 0 68.4267 12.8459 879 120.9 1027.28 455.02
303 0 69.258 12.4029 859 123.872 1029 449.652
304 0 70.1776 13.1808 925 123.711 1028.28 451.729
305 0 72.2787 12.1751 880 127.88 1028.75 449.691
306 0 73.1919 14.3322 1049 122.555 1029.07 450.371
307 0 72.1907 13.215 954 123.818 1029.9 451.794
308 1 43.0911 9.02739 389 129.72 1028.62 466.347
309 0 44.0276 12.0152 529 123.072 1028.72 469.703
310 0 41.0233 11.3838 467 129.97 1027.81 464.886
311 0 46.0716 11.8728 547 128.442 1027.95 468.578
312 0 45.0766 11.8243 533 130.36 1027.68 469.373
313 0 47.1147 11.2067 528 132.674 1025.74 466.97
314 0 51.0455 13.008 664 128.738 1024.52 467.215
315 0 50.2012 10.8364 544 131.246 1026.99 465.283
316 0 52.166 12.8436 670 129.033 1025.83 468.052
317 0 51.229 12.532 642 131.146 1023.79 462.782
318 0 55.1203 13.0805 721 129.166 1022.68 461.774
319 0 56.1306 13.9318 782 128.066 1021.38 459.98
320 0 56.1509 10.2403 575 134.706 1020.13 461.325
321 0 59.1082 11.572 684 133.284 1019.61 457.732
322 0 63.1705 12.8858 814 128.514 1018.27 459.631
323 0 65.1305 15.1081 984 125.55 1018.15 456.318
324 0 67.1216 13.8108 927 128.237 1017.53 451.834
325 0 68.2217 13.6907 934 129.822 1017.12 451.318
326 0 70.1179 12.0654 846 131.52 1017.45 451.498
327 0 73.0688 13.412 980 130.192 1017.38 449.278
328 0 75.2222 14.1979 1068 129.509 1017.58 446.308
329 0 82.1707 17.0499 1401 123.037 1018.62 446.273
330 0 80.145 14.7608 1183 127.898 1019.15 445.199
331 1 43.0534 7.7578 334 137.575 1021.51 464.272
332 0 47.0982 11.8263 557 131.092 1022.82 461.206
333 0 47.1044 11.4214 538 130.703 1023.13 462.52
334 0 47.0291 13.1621 619 130.721 1025.95 458.95
335 0 48.2893 10.6235 513 136.776 1025.23 459.22
336 0 50.1657 14.8109 743 124.711 1028.76 460.794
337 0 53.201 19.8305 1055 115.105 1029.34 464.094
338 0 54.0961 13.7718 745 126.47 1031.14 462.243
339 0 57.2364 13.8373 792 125.04 1031.36 464.253
340 0 56.1497 10.9885 617 130.417 1031.3 464.674
341 0 56.1497 11.0597 621 148.879 1031.24 464.407
342 0 60.1188 14.5379 874 128.467 1030.81 461.812
343 0 63.2419 15.164 959 127.82 1030.67 462.81
344 0 65.1451 15.5346 1012 127.832 1029.89 460.082
345 0 65.1451 15.596 1016 133.152 1028.91 460.07
346 0 68.2597 15.3385 1047 134.188 1028 460.45
347 0 72.2344 13.5531 979 135.697 1027.09 463.254
348 0 72.3501 14.1119 1021 135.92 1025.06 461.692
349 0 75.3024 14.7273 1109 137.472 1024.09 457.358
350 0 80.2746 16.3688 1314 131.304 1022.5 459.313
351 0 80.392 17.1908 1382 131.323 1020.9 456.244
352 0 84.5662 18.2461 1543 129.346 1019.87 452.61
353 0 85.2035 13.7788 1174 139.572 1018.14 448.417
354 1 43.0478 12.6371 544 135.583 1018.78 468.035
355 0 46.0953 7.20247 332 135.94 1018.44 468.798
356 0 48.1159 12.3036 592 130.059 1016.5 464.346
357 0 50.0223 12.9742 649 126.76 1016.83 464.418
358 0 51.1919 13.2052 676 126.982 1016.48 464.036
359 0 52.2491 12.0385 629 128.949 1016.42 459.033
360 0 56.1772 16.4302 923 118.475 1016.11 457.515
361 0 56.1483 18.6292 1046 119.008 1014.65 459.266
362 0 59.2758 14.5422 862 124.984 1014.18 457.261
363 0 61.2234 14.6023 894 125.541 1016.4 455.904
364 0 62.2029 12.0895 752 128.104 1017.78 455.09
365 0 65.2071 13.6795 892 125.422 1019.9 455.36
366 0 67.0832 15.5777 1045 123.09 1020.92 447.459
367 0 68.1812 11.6601 795 130.151 1023.11 448.928
368 0 72.2248 14.0256 1013 125.794 1024.78 451.344
369 0 76.302 15.9498 1217 122.677 1026.24 450.097
370 0 77.1658 13.957 1077 128.536 1027.76 449.67
371 0 81.2335 14.3044 1162 127.16 1028.53 449.295
372 0 83.1372 14.1814 1179 126.941 1030.96 446.438
373 1 42.1114 11.0184 464 127.649 1031.09 467.237
374 0 42.0316 10.3731 436 127.943 1030.71 468.642
375 0 43.0604 8.31391 358 135.983 1031.28 469.612
376 0 49.3914 12.897 637 128.185 1031.99 471.195
377 0 49.1674 12.793 629 133.409 1031.7 468.603
378 0 50.0164 14.7352 737 129.573 1030.37 470.646
379 0 52.1204 15.5409 810 129.446 1027 470.838
380 0 52.1204 15.5409 810 128.531 1025 470.842
381 0 55.2246 11.0096 608 141.081 1024.6 473.215
382 0 54.116 15.3928 833 136.577 1023.94 469.959
383 0 56.2299 12.4133 698 141.583 1021.43 469.34
384 0 56.2399 14.0825 792 142.215 1019.96 463.313
385 0 59.3296 13.484 800 140.428 1018.51 468.804
386 0 62.2156 13.9354 867 141.197 1017.17 463.475
387 0 62.1794 11.885 739 147.805 1016.39 461.641
388 0 65.135 16.3814 1067 138.814 1016.15 461.298
389 0 66.1316 15.4692 1023 138.172 1015.41 461.833
390 0 68.2126 14.3815 981 143.317 1014.87 456.265
391 0 68.2708 12.4504 850 145.866 1013.98 455.473
392 0 73.1651 14.7475 1079 141.634 1014.4 453.807
393 0 76.1094 14.4792 1102 140.278 1014.41 452.799
394 1 39.2305 10.9354 429 142.711 1014.24 467.713
395 0 42.1399 12.3873 522 138.466 1014.91 467.858
396 0 42.0605 11.959 503 136.581 1014.96 464.819
397 0 45.0973 13.9033 627 133.466 1016.89 464.754
398 0 45.1168 13.1658 594 133.958 1017.43 461.424
399 0 48.1518 13.229 637 134.424 1019.22 462.443
400 0 49.07 16.1606 793 127.985 1021.86 461.453
401 0 50.0736 12.4417 623 135.589 1023.94 463.777
402 0 49.2109 12.6192 621 133.444 1025.94 461.002
403 0 53.0176 14.3537 761 128.398 1027.48 460.234
404 0 55.1452 15.2144 839 126.729 1029.15 460.965
405 0 58.0581 12.2119 709 131.443 1028.91 460.745
406 0 56.0646 10.5236 590 148.788 1027.7 463.322
407 0 62.2255 14.3992 896 129.494 1029.68 462.497
408 0 63.1282 15.4131 973 127.395 1029.56 464.154
409 0 63.1375 12.4807 788 133.651 1029.57 462.742
410 0 66.1175 14.2171 940 132.794 1028.83 461.468
411 0 67.1605 13.8325 929 135.142 1028.05 461.929
412 0 68.249 13.7145 936 138.484 1026.84 461.386
413 0 71.138 15.7581 1121 133.689 1025.79 460.044
414 0 73.1777 13.3921 980 138.304 1024.28 460.072
415 1 40.05 12.784 512 133.539 1022.93 477.412
416 0 42.0409 9.82377 413 141.467 1022.26 476.424
417 0 40.2102 7.85869 316 140.646 1021.54 478.665
418 0 42.1942 12.8928 544 135.45 1020.25 474.908
419 0 45.0821 11.2905 509 140.104 1020.45 471.114
420 0 46.0928 11.8457 546 137.093 1019.16 472.26
421 0 49.1655 13.18 648 135.272 1018.28 467.577
422 0 48.1958 12.1587 586 133.652 1017.75 469.551
423 0 54.1612 15.0477 815 135.936 1015.05 467.211
424 0 52.0365 15.4123 802 133.756 1015.21 465.517
425 0 54.0806 13.4984 730 136.288 1014.79 464.11
426 0 53.1587 13.1305 698 139.364 1014.29 461.301
427 0 55.1047 13.1205 723 138.996 1014.4 461.943
428 0 58.0368 16.0932 934 131.142 1014.97 463.208
429 0 58.1513 14.6342 851 137.254 1015.9 458.436
430 0 59.1112 13.9906 827 139.556 1016.72 456.516
431 0 60.1549 15.7427 947 136.738 1018.27 456.552
432 0 62.0489 11.2975 701 142.539 1019.85 455.797
433 0 67.0658 16.1632 1084 132.44 1021.6 455.331
434 0 69.2448 13.4595 932 138.072 1023.95 454.22
435 0 70.1902 12.6941 891 139.285 1025.89 453.324
436 0 73.2848 15.4193 1130 131.052 1027.17 452.696
437 0 76.1475 14.577 1110 131.54 1030 453.055
438 0 78.3705 16.2178 1271 129.601 1029.43 451.958
439 0 79.1491 11.9774 948 137.662 1030.17 451.347
440 0 81.3222 12.2353 995 138.041 1030.12 451.468
441 0 88.1026 15.3117 1349 134.142 1030.13 452.54
442 0 89.2023 15.9749 1425 134.641 1030.16 451.785
443 1 44.067 11.9591 527 138.651 1029.8 471.968
444 0 46.0761 11.698 539 142.186 1029.34 471.145
445 0 51.1312 12.6342 646 143.192 1028.62 467.105
446 0 49.1266 10.1981 501 145.988 1027.75 471.427
447 0 50.2422 10.7877 542 146.55 1026.13 467.011
448 0 56.2183 13.75 773 140.075 1025.35 463.95
449 0 54.1665 10.7262 581 145.842 1024.42 462.499
450 0 60.3235 14.7538 890 135.746 1022.93 460.04
451 0 63.2538 21.5956 1366 123.038 1022.4 460.467
452 0 65.2569 12.627 824 139.102 1020.94 462.347
453 0 64.2916 12.2878 790 138.58 1019.45 460.822
454 0 70.287 14.4408 1015 132.939 1017.97 457.594
455 0 72.2975 16.7364 1210 128.275 1017.37 458.167
456 0 75.2462 15.6154 1175 130.367 1016.37 455.337
457 0 76.1939 15.5655 1186 131.879 1015.86 447.797
458 0 81.3387 16.9538 1379 126.878 1016.63 449.171
459 0 82.4347 14.9694 1234 131.788 1015.59 446.32
460 0 84.2704 14.7501 1243 133.196 1015.93 442.978
461 0 85.5796 14.1739 1213 133.575 1015.99 442.485
462 0 88.2395 13.8373 1221 136.964 1016.44 440.41
463 0 93.3193 14.9487 1395 134.128 1017.77 438.589
464 0 97.3625 16.9778 1653 129.596 1019.18 436.331
465 0 98.7566 16.3736 1617 131.437 1020.58 431.164
466 0 103.528 15.6382 1619 132.309 1022.01 432.287
467 0 106.6 16.7636 1787 128.217 1023.95 427.953
468 0 108.458 12.9913 1409 135.024 1026.01 433.626
469 0 114.641 16.6083 1904 127.753 1028.69 429.141
470 1 60.4336 13.6183 823 123.706 1029.72 458.851
471 0 60.3274 9.91257 598 131.545 1030.86 458.831
472 0 65.3147 15.2033 993 127.273 1030.6 453.551
473 0 70.4058 14.6863 1034 123.825 1031.09 459.678
474 0 67.2674 12.7402 857 129.085 1031.01 452.737
475 0 70.3497 11.6134 817 132.634 1030.76 456.826
476 0 73.3638 14.9665 1098 126.635 1030.33 456.507
477 0 74.2161 9.48581 704 136.108 1030.15 459.186
478 0 77.4234 13.8589 1073 131.571 1029.04 453.273
479 0 81.2254 14.7368 1197 131.033 1028.29 454.481
480 0 83.204 15.1435 1260 131.557 1027.82 451.646
481 0 88.2868 17.2619 1524 126.897 1026.73 453.282
482 0 88.305 14.6424 1293 131.945 1025.01 451.761
483 0 90.2146 12.5589 1133 137.471 1023.28 447.75
484 0 91.2632 14.1459 1291 135.62 1021.78 448.227
485 0 94.3415 13.6207 1285 137.224 1020.6 441.252
486 0 96.1954 13.5246 1301 137.857 1018.69 440.105
487 0 103.437 16.0581 1661 131.176 1017.97 439.359
488 0 105.257 14.0989 1484 134.383 1016.99 438.301
489 0 106.286 11.9018 1265 139.023 1016.31 436.03
490 0 107.262 12.5394 1345 143.017 1016.49 432.395
491 0 112.307 15.7337 1767 132.527 1015.89 431.597
492 0 118.19 15.7204 1858 132.651 1015.82 428.074
493 0 125.407 17.2399 2162 129.712 1015.74 425.295
494 0 127.377 15.3874 1960 133.833 1015.56 424.067
495 0 133.369 18.2202 2430 128.681 1016.45 422.961
496 1 74.2969 11.7771 875 134.403 1017.71 451.394
497 0 77.1421 12.2761 947 132.674 1019.18 451.569
498 0 81.2774 13.4847 1096 129.865 1021.07 449.345
499 0 80.395 14.1302 1136 130.065 1023.21 443.029
500 0 86.3103 14.6448 1264 128.099 1025.91 441.642
501 0 86.27 14.7676 1274 129.669 1026.87 441.565
502 0 91.5045 14.8517 1359 129.288 1028.37 442.577
503 0 90.2862 13.7784 1244 132.248 1029.56 440.046
504 0 95.3249 16.2812 1552 128.123 1030.71 441.015
505 0 99.1849 16.9582 1682 128.622 1032 439.776
506 0 100.27 12.616 1265 136.149 1031.52 439.702
507 0 105.166 14.2917 1503 134.87 1030.98 436.92
508 0 107.275 13.1251 1408 137.669 1031.69 438.051
509 0 113.442 13.6369 1547 137.59 1031.37 434.338
510 0 117.361 15.5162 1821 134.169 1030.95 434.3
511 0 120.374 14.6128 1759 136.48 1029.7 431.277
512 1 64.1542 9.91362 636 132.895 1029.76 465.761
513 0 65.6069 14.7393 967 130.738 1027.57 458.414
514 0 65.4291 10.1484 664 138.837 1026.16 458.038
515 0 72.6453 14.7979 1075 132.437 1024.91 454.973
516 0 76.6258 17.6311 1351 124.797 1023.34 456.855
517 0 74.3734 14.1986 1056 133.491 1021.57 451.108
518 0 76.3042 13.6952 1045 133.703 1020.86 450.225
519 0 83.2855 16.6656 1388 127.553 1018.49 452.704
520 0 82.4146 14.148 1166 132.829 1017.67 451.981
521 0 85.2146 14.8331 1264 132.636 1017.14 446.634
522 0 88.3307 12.9513 1144 133.44 1015.81 445.736
523 0 93.7032 14.4819 1357 131.482 1015.68 442.966
524 0 93.451 15.9335 1489 129.422 1015.06 440.781
525 0 96.509 15.4183 1488 130.581 1015.02 435.636
526 0 99.6947 12.769 1273 135.895 1014.91 433.799
527 0 103.407 14.4478 1494 132.191 1015.25 433.216
528 1 60.1835 10.9 656 129.32 1016.28 457.732
529 0 58.4837 8.00224 468 133.91 1016.47 455.915
530 0 60.2564 11.3681 685 128.476 1018.04 455.439
531 0 64.3326 15.5598 1001 120.778 1019.49 453.629
532 0 69.1466 13.7245 949 122.396 1020.43 450.3
533 0 68.1513 13.9102 948 125.771 1022.55 451.143
534 0 73.2551 14.1424 1036 124.055 1024.57 449.557
535 0 74.3578 9.52152 708 131.839 1026.01 450.736
536 0 77.3348 13.5127 1045 126.082 1027.49 447.034
537 0 80.1277 13.6906 1097 125.192 1028.44 447.434
538 0 84.2103 14.345 1208 123.893 1028.92 448.369
539 0 88.3475 15.3145 1353 122.588 1029.51 446.759
540 0 88.3497 12.2128 1079 130.205 1029.72 445.587
541 0 92.3004 12.6868 1171 134.441 1029.85 445.752
542 0 98.2823 14.2243 1398 130.145 1029.33 447.206
543 0 100.528 14.4337 1451 131.44 1029.12 445.467
544 1 54.4169 11.3935 620 136.303 1028.36 465.913
545 0 56.3043 11.1892 630 135.659 1026.93 468.794
546 0 59.1939 12.8054 758 133.442 1025.99 465.888
547 0 63.1163 15.1625 957 129.533 1024.79 464.962
548 0 62.1871 13.379 832 134.517 1024.33 464.005
549 0 63.068 14.413 909 132.286 1024.56 458.767
550 0 68.0806 15.5257 1057 129.446 1023.26 458.588
551 0 69.1235 13.7146 948 131.782 1022.22 461.62
552 0 71.1769 14.3586 1022 131.902 1020.7 456.108
553 0 74.1568 16.519 1225 127.201 1019.19 457.317
554 0 76.1273 14.0554 1070 128.531 1017.72 451.239
555 0 77.0685 14.6623 1130 128.855 1017.06 447.987
556 1 40.0139 10.1965 408 131.473 1016 468.819
557 0 42.1147 11.8723 500 129.798 1015.96 467.212
558 0 43.1062 10.9497 472 130.864 1014.95 468.568
559 0 44.2248 11.0797 490 131.42 1017.19 463.896
560 0 47.0675 11.4941 541 127.63 1016.85 463.725
561 0 47.0681 13.8948 654 126.68 1015.77 464.353
562 0 48.0623 12.8999 620 132.16 1017.69 460.669
563 0 50.2966 14.5934 734 126.063 1019.4 457.944
564 0 52.5442 15.4537 812 123.908 1021.01 459.164
565 0 52.3414 13.6603 715 129.397 1022.85 458.425
566 0 53.1981 13.3463 710 131.324 1023.91 457.328
567 0 56.4814 14.5712 823 126.13 1026.56 459.716
568 0 58.2052 14.552 847 126.205 1027.99 458.924
569 0 61.3652 15.2041 933 125.012 1030.05 457.953
570 0 60.2129 12.3562 744 129.32 1031.05 458.617
571 0 62.2906 14.1755 883 127.258 1031.07 456.106
572 0 68.2271 16.5037 1126 122.498 1032.13 460.165
573 0 67.2327 13.3715 899 128.007 1032.29 460.641
574 0 71.3959 14.3145 1022 128.372 1031.49 459.542
575 0 76.4031 15.6669 1197 127.988 1031.23 459.829
576 0 77.3191 15.0674 1165 134.102 1030.24 457.545
577 0 77.3129 13.8269 1069 136.737 1030.11 462.078
578 0 82.3354 15.3276 1262 137.231 1029.28 458.413
579 0 84.1934 16.9728 1429 135.777 1028.29 456.863
580 0 87.195 17.0193 1484 135.824 1028.54 453.834
581 0 89.1368 13.2044 1177 143.192 1027.4 455.246
582 0 92.3071 18.4818 1706 135.404 1026.08 448.893
583 1 48.3155 13.5153 653 144.418 1024.13 471.795
584 0 50.1881 13.549 680 143.216 1023 473.709
585 0 53.1627 13.3176 708 144.718 1021.25 472.39
586 0 55.2076 14.1828 783 142.263 1020.41 473.037
587 0 54.1782 14.5631 789 144.236 1018.92 469.114
588 0 59.1012 17.1908 1016 137.458 1017.96 468.692
589 0 61.0614 18.4405 1126 135.782 1016.99 465.172
590 0 63.2895 18.7393 1186 135.588 1016.8 464.824
591 0 66.3462 18.2226 1209 135.997 1015.93 465.681
592 0 68.0999 16.0793 1095 143.342 1015.19 462.616
593 0 67.2722 16.4704 1108 146.654 1015.13 459.657
594 0 71.2784 16.3724 1167 147.423 1014.83 458.811
595 0 73.095 15.9518 1166 148.083 1015.82 458.559
596 0 74.2832 16.2621 1208 149.574 1016.57 456.516
597 0 78.2772 17.9746 1407 144.78 1017.37 457.56
598 0 78.2969 14.4578 1132 155.022 1018.67 455.96
599 0 82.3092 18.3941 1514 146.716 1020.03 452.701
600 0 86.5524 17.3306 1500 147.631 1022.04 452.231
601 0 89.3702 17.4107 1556 149.311 1023.64 450.634
602 0 93.5975 20.2463 1895 141.036 1024.61 453.687
603 0 94.5975 19.5988 1854 149.348 1025.59 453.649
604 0 100.462 16.3942 1647 149.944 1025.71 450.464
605 0 102.27 20.8272 2130 140.652 1025.81 445.179
606 1 52.2923 14.0939 737 154.014 1026.55 472.562
607 0 54.2618 13.8956 754 157.398 1025.74 469.67
608 0 57.1605 14.503 829 152.791 1025.34 471.606
609 0 55.3408 16.0279 887 154.176 1025.7 468.004
610 0 57.4723 13.7632 791 157.636 1024.87 469.464
611 0 61.4216 16.9973 1044 150.273 1023.99 468.45
612 0 61.3018 14.4368 885 158.642 1022.8 467.93
613 0 67.3331 16.2179 1092 152.7 1021.81 467.059
614 0 68.415 21.7496 1488 140.18 1020.88 468.309
615 0 70.3538 16.3602 1151 153.216 1018.9 460.302
616 0 74.5659 16.9649 1265 150.134 1017.49 461.36
617 0 76.2672 15.8784 1211 152.446 1016.05 458.049
618 0 78.34 17.1049 1340 149.221 1015.05 456.849
619 0 82.7034 16.529 1367 148.457 1013.85 456.658
620 0 82.2778 16.5051 1358 149.624 1013.17 454.257
621 0 90.6398 21.613 1959 136.004 1012.56 451.187
622 0 88.2968 19.6496 1735 148.052 1010.43 449.041
623 0 94.5094 18.6013 1758 143.135 1011.85 443.011
624 0 97.4914 19.1914 1871 140.942 1011.18 439.924
625 1 53.243 12.6402 673 149.545 1012.62 463.389
626 0 51.4527 12.1665 626 150.444 1012.49 463.064
627 0 55.4271 15.0107 832 146.776 1012.59 459.186
628 0 53.3755 13.9015 742 149.776 1013.86 457.976
629 0 58.2432 16.4654 959 142.584 1016 455.803
630 0 57.2965 15.2016 871 147.459 1016.29 452.905
631 0 59.2411 16.1881 959 145.65 1017.97 453.146
632 0 66.783 18.4927 1235 138.911 1020.07 455.884
633 0 66.4769 21.6767 1441 136.199 1021.19 451.604
634 0 69.2398 17.851 1236 144.044 1022.61 451.875
635 0 71.4789 20.1178 1438 139.467 1025.02 453.288
636 0 74.2576 17.0084 1263 149.395 1027 451.342
637 0 74.4675 16.7858 1250 151.21 1027.52 454.706
638 0 75.4496 17.5747 1326 150.183 1028.73 453.932
639 0 78.3105 20.904 1637 144.078 1028.99 448.773
640 0 80.4383 15.2291 1225 155.936 1029.22 451.524
641 0 82.2748 19.8117 1630 149.321 1028.23 448.016
642 0 86.4496 17.062 1475 154.487 1027.49 450.218
643 0 87.3876 16.3524 1429 156.818 1027.01 447.355
644 0 96.3648 19.6856 1897 144.986 1026.38 452.362
645 1 47.3375 11.3652 538 162.569 1025.38 470.31
646 0 50.298 13.1019 659 155.763 1024.7 471.759
647 0 51.1552 15.2477 780 157.512 1023.63 466.872
648 0 55.2566 13.8445 765 156.66 1022.51 469.007
649 0 58.228 15.5252 904 154.04 1021.65 465.579
650 0 59.1841 19.1268 1132 147.328 1020.37 463.955
651 0 61.2674 16.6973 1023 153.555 1019.07 463.305
652 0 61.4267 15.026 923 160.19 1018.06 460.355
653 0 63.1889 15.6198 987 160.798 1017.1 458.286
654 0 69.2731 18.1889 1260 150.854 1016.61 455.715
655 0 70.3787 15.2035 1070 160.091 1015.82 454.291
656 0 73.198 17.0223 1246 153.796 1015.73 453.305
657 0 73.1763 14.3626 1051 163.177 1014.89 449.388
658 0 78.2525 17.009 1331 155.217 1014.99 447.47
659 0 81.4121 17.2702 1406 153.591 1015.86 447.913
660 0 82.3572 17.6427 1453 155.781 1015.54 443.184
661 0 85.4242 16.5176 1411 156.065 1016.36 440.704
662 0 87.3792 18.5857 1624 154.699 1017.58 440.781
663 0 91.6398 18.54 1699 152.752 1019.73 438.446
664 0 92.5691 15.6208 1446 158.934 1020.74 438.421
665 0 97.4936 17.796 1735 155.735 1022.85 435.064
666 0 102.525 18.0444 1850 153.835 1025 432.778
667 0 102.449 16.7889 1720 160.079 1026.81 429.774
668 0 110.45 19.6106 2166 150.486 1027.99 431.326
669 0 116.285 19.3663 2252 149.186 1029.04 430.586
670 0 116.363 17.497 2036 158.446 1030.37 425.964
671 0 122.638 20.2955 2489 151.259 1030.93 423.708
672 0 127.695 19.7031 2516 152.298 1030.8 424.304
673 1 71.4823 12.2548 876 157.733 1031.68 455.349
674 0 74.4828 13.2648 988 159.032 1030.24 453.905
675 0 77.8349 13.9912 1089 157.987 1029.72 451.65
676 0 75.749 13.3995 1015 146.777 1030.7 452.629
677 0 82.6775 15.0222 1242 156.163 1028.69 450.297
678 0 85.6718 13.8318 1185 159.058 1027.34 449.602
679 0 88.6292 14.6904 1302 158.538 1025.72 447.087
680 0 90.4709 13.9824 1265 161.687 1024.61 442.583
681 0 96.7142 15.7474 1523 153.8 1022.76 445.292
682 0 96.5391 14.0772 1359 161.301 1020.83 434.589
683 0 100.861 13.4145 1353 160.15 1019.89 434.143
684 0 106.514 13.3879 1426 160.535 1018.33 430.833
685 1 65.5777 11.0708 726 146.876 1017.76 457.53
686 0 62.2073 11.4456 712 149.982 1016.86 453.048
687 0 66.4261 9.2283 613 154.387 1016.19 451.24
688 0 67.3047 8.87011 597 153.762 1016.03 449.975
689 0 71.219 10.6854 761 140.35 1014.14 443.248
690 0 74.3585 10.8125 804 141.97 1013.82 447.154
691 0 77.1987 9.49498 733 144.693 1013.52 446.374
692 0 77.1852 11.0902 856 145.085 1013.97 440.804
693 0 80.2403 12.3878 994 140.799 1014.07 436.575
694 0 80.247 12.3868 994 130.898 1014.07 436.632
695 0 80.247 11.5768 929 132.356 1014.04 437.392
696 0 89.3549 11.8516 1059 139.305 1018.36 434.022
697 0 92.3865 11.3004 1044 142.171 1019.14 431.454
698 0 96.0678 10.2324 983 144.587 1020.8 427.072
699 0 99.7074 12.1355 1210 139.245 1023.22 430.888
700 0 101.463 13.6602 1386 135.849 1025.24 424.628
701 0 106.561 12.3779 1319 138.184 1026.23 429.282
702 0 107.615 11.6805 1257 144.537 1027.75 425.716
703 0 111.534 12.606 1406 135.522 1029.33 428.49
704 0 111.574 9.08814 1014 146.415 1028.57 413.278
705 0 120.585 11.7178 1413 139.96 1029.21 419.72
706 0 125.669 11.8167 1485 142.457 1029.26 418.127
707 1 72.3074 7.53726 545 133.211 1028.99 449.09
708 0 74.2249 4.37858 325 139.938 1028.87 451.865
709 0 79.1651 9.0065 713 134.296 1028.34 450.972
710 0 77.2673 10.3278 798 136.742 1027.22 445.474
711 0 79.2105 12.2585 971 135.666 1025.32 446.394
712 0 82.1225 9.25446 760 142.367 1024.57 445.25
713 0 83.1549 9.16362 762 141.81 1023.19 445.546
714 0 87.2083 10.2513 894 140.628 1021.55 443.833
715 0 88.3681 10.6034 937 140.129 1020.91 439.979
716 0 91.2538 11.9995 1095 138.52 1018.61 439.584
717 0 92.3176 8.10246 748 142.429 1017.64 437.93
718 0 96.2988 8.2971 799 142.123 1016.48 431.496
719 0 101.315 11.5185 1167 135.111 1015.82 431.315
720 0 105.529 10.1962 1076 138.92 1014.53 424.63
721 0 106.364 11.3949 1212 136.895 1014.75 430.153
722 0 110.695 10.425 1154 139.958 1014.38 422.723
723 0 111.457 11.7803 1313 136.11 1014.19 421.778
724 0 118.872 10.7342 1276 137.017 1014.9 419.982
725 0 120.769 12.263 1481 133.599 1014.94 410.81
726 0 128.802 13.4703 1735 129.377 1015.46 415.257
727 1 69.3978 8.55935 594 129.593 1017.29 437.113
728 0 74.7765 10.1502 759 124.51 1017.84 437.722
729 0 72.7476 5.09982 371 130.833 1018.78 442.089
730 0 77.3553 12.0224 930 120.655 1020.62 439.903
731 0 78.5974 12.7612 1003 121.196 1023.02 441.199
732 0 82.4729 14.4169 1189 117.8 1025.05 439.108
733 0 84.4325 12.7558 1077 116.722 1026.87 448.344
734 0 85.4354 11.1312 951 122.437 1027.33 441.284
735 0 87.8978 10.7739 947 127.727 1027.74 438.272
736 0 87.8473 10.5752 929 117.223 1028.75 438.465
737 0 92.9451 10.8344 1007 127.248 1028.68 435.419
738 1 51.5599 8.08769 417 121.151 1028.72 462.379
739 0 50.3077 9.91896 499 125.988 1028.68 456.385
740 0 52.3812 9.67905 507 125.434 1028.68 457.087
741 0 55.6002 9.46041 526 124.331 1027.18 461.316
742 0 57.6375 7.61656 439 129.153 1026.79 456.385
743 0 58.2978 9.26279 540 131.185 1026.39 460.019
744 0 57.2923 7.05156 404 134.983 1024.22 462.181
745 0 60.2675 10.5364 635 129.816 1023.35 460.488
746 0 60.2792 10.5343 635 111.839 1022.34 460.323
747 0 66.4321 12.4036 824 126.267 1020.26 458.857
748 0 67.504 9.61425 649 130.405 1018.84 458.27
749 0 69.3069 13.7072 950 125.112 1017.3 456.947
750 0 70.3128 13.6391 959 124.757 1016.57 451.588
751 0 77.3414 11.223 868 122.327 1015.32 452.122
752 0 78.518 14.3024 1123 118.938 1013.77 446.608
753 0 79.2222 10.9944 871 123.211 1013.24 444.292
754 0 82.2488 16.4501 1353 114.766 1013.46 449.976
755 0 88.4631 13.8702 1227 117.536 1013.04 447.051
756 0 89.431 11.1594 998 122.685 1012.75 444.44
757 0 91.3391 12.9298 1181 119.853 1012.96 446.889
758 1 54.2358 10.7125 581 119.034 1014.14 460.372
759 0 54.3029 12.5592 682 114.63 1015.09 460.999
760 0 55.0482 10.954 603 118.667 1014.94 459.867
761 0 55.2461 11.6569 644 117.511 1017.2 460.86
762 0 59.1491 10.5665 625 118.933 1018.22 458.523
763 0 61.1938 13.923 852 113.857 1019.59 454.151
764 0 61.1219 10.8145 661 119.466 1022.43 459.384
765 0 64.1344 16.5746 1063 111.336 1022.99 458.158
766 0 64.1315 10.6188 681 122.119 1024.08 454.965
767 0 66.1318 13.5638 897 118.671 1024.67 456.316
768 0 68.2672 13.5351 924 118.541 1026.49 458.843
769 0 70.2607 13.5211 950 120.056 1026.77 457.427
770 0 74.5082 13.3676 996 119.069 1027.22 459.079
771 0 74.2098 13.9739 1037 118.966 1027.57 458.58
772 0 76.2715 15.1957 1159 117.463 1027.35 460.051
773 0 79.188 13.2091 1046 122.993 1026.34 457.809
774 0 83.3274 14.065 1172 122.869 1026.34 456.939
775 0 83.2213 12.5569 1045 125.9 1025.42 461.256
776 0 86.1932 10.8477 935 130.312 1023.46 459.765
777 0 91.3759 15.9342 1456 124.527 1021.68 454.862
778 1 48.1298 12.6533 609 126.655 1021.03 475.91
779 0 54.177 10.2811 557 130.515 1019.4 474.955
780 0 56.1953 13.0794 735 125.721 1018.1 473.563
781 0 53.0941 11.5455 613 131.408 1016.25 470.992
782 0 55.3016 14.4842 801 127.403 1013.34 465.375
783 0 59.3452 17.71 1051 120.538 1013.26 462.606
784 0 61.2008 15.7188 962 123.458 1012.79 465.332
785 0 61.2107 15.2914 936 126.24 1012.23 463.718
786 0 63.316 17.4048 1102 121.919 1011.15 464.202
787 0 65.2702 16.4547 1074 123.108 1010.56 458.966
788 0 65.2066 14.247 929 128.453 1010.58 456.058
789 0 70.3439 12.8085 901 129.238 1010.2 455.558
790 0 70.3016 14.8076 1041 126.915 1010.53 453.695
791 0 74.2453 13.1456 976 127.294 1011.44 451.452
792 0 75.2117 13.934 1048 126.703 1012.06 450.845
793 0 79.289 14.8823 1180 124.317 1012.53 447.932
794 0 80.4671 12.676 1020 132.476 1013.68 445.896
795 0 85.4448 16.1742 1382 122.682 1014.93 447.191
796 0 90.7238 19.9507 1810 116.271 1016.02 448.077
797 1 53.1616 15.0108 798 119.396 1019.25 463.395
798 0 51.1778 10.5319 539 131.019 1020.83 459.937
799 0 56.2594 12.0158 676 129.756 1022.92 461.422
800 0 51.0342 8.83721 451 137.483 1024.53 460.184
801 0 51.0228 7.54565 385 139.821 1025.41 460.613
802 0 56.0382 12.9198 724 130.845 1026.88 459.293
803 0 58.2618 13.714 799 129.85 1028.24 459.566
804 0 58.1186 11.3045 657 136.644 1028.45 458.455
805 0 61.2124 13.5267 828 129.837 1028.19 460.047
806 0 62.1867 14.955 930 129.863 1028.48 459.94
807 0 63.1678 13.8203 873 132.275 1028.59 461.245
808 0 66.1396 17.0851 1130 126.304 1028.23 460.019
809 0 68.1402 15.4681 1054 130.046 1027.63 459.864
810 0 69.154 14.1857 981 133.236 1027.09 460.004
811 0 72.3273 15.6649 1133 128.498 1026.6 461.184
812 0 74.1021 15.0063 1112 129.789 1025.91 462.05
813 0 75.1627 14.8079 1113 130.588 1025.66 457.725
814 0 79.186 14.106 1117 132.244 1024.27 454.395
815 0 79.1974 12.5004 990 137.119 1022.67 451.703
816 0 80.1376 15.0741 1208 132.131 1022.18 450.911
817 0 83.1092 13.5845 1129 134.27 1020.7 445.285
818 0 90.2296 18.5748 1676 123.408 1019.97 444.933
819 0 89.3917 15.7173 1405 128.642 1019.04 443.415
820 0 93.1786 13.179 1228 133.195 1018.46 442.106
821 0 94.2178 14.0101 1320 131.642 1017 436.292
822 0 97.2661 14.0542 1367 129.859 1017.43 440.495
823 0 101.228 15.065 1525 127.628 1017.42 438.597
824 0 102.351 11.7733 1205 136.678 1018.37 430.624
825 0 106.265 14.398 1530 128.972 1019.04 425.826
826 1 58.0333 11.838 687 129.035 1020.61 452.296
827 0 62.0768 11.5502 717 132.48 1021.63 449.841
828 0 62.0762 11.5342 716 128.447 1021.65 449.904
829 0 63.1569 14.4877 915 125.824 1024.01 445.679
830 0 68.1624 14.5535 992 123.948 1025.18 445.354
831 0 68.1674 15.2859 1042 118.583 1026.65 452.17
832 0 68.179 11.1765 762 129.281 1028.03 446.848
833 0 71.4806 13.6541 976 124.599 1029.84 446.34
834 0 74.1708 15.1138 1121 122.831 1030.65 445.968
835 0 78.087 11.1286 869 125.842 1031.92 452.246
836 0 79.3145 13.0493 1035 121.78 1033.15 448.728
837 0 82.1445 18.4309 1514 117.394 1032.56 445.278
838 0 86.1694 14.8661 1281 123.889 1032.41 447.29
839 0 89.1205 15.7652 1405 123.72 1032.12 447.799
840 0 90.2063 14.877 1342 130.554 1032.08 447.307
841 0 94.1743 16.4588 1550 126.435 1031.66 449.815
842 0 93.1565 18.002 1677 125.633 1030.49 446.41
843 0 97.1618 15.0985 1467 130.8 1029.28 445.16
844 0 99.2956 15.1769 1507 132.483 1027.36 444.188
845 1 50.064 5.03356 252 144.012 1026.99 470.349
846 0 55.0796 11.2927 622 133.048 1025.57 468.854
847 0 56.1086 9.26774 520 137.752 1023.96 466.496
848 0 55.0898 7.53316 415 143.696 1021.89 461.677
849 0 58.1152 9.96298 579 139.321 1020.21 463.275
850 0 62.1583 13.4174 834 133.881 1019.88 459.574
851 0 65.0875 14.8108 964 129.551 1018.51 461.38
852 0 68.5074 15.9399 1092 128.247 1015.9 453.347
853 0 69.1294 15.1889 1050 126.895 1014.15 453.445
854 0 72.3422 15.3576 1111 125.258 1014.15 455.246
855 0 71.1495 12.7338 906 132.36 1013.64 448.652
856 0 73.1073 13.9247 1018 129.966 1013.04 451.048
857 0 76.1152 13.519 1029 130.742 1013.33 448.098
858 0 79.0834 15.0853 1193 129.934 1014.34 443.609
859 0 82.1431 13.7687 1131 130.953 1014.5 444.497
860 0 86.2754 18.5453 1600 121.542 1015.22 444.131
861 0 88.1683 14.3476 1265 129.398 1015.77 446.053
862 0 91.3446 17.8555 1631 123.57 1017.64 442.253
863 0 95.3376 14.1917 1353 130.102 1019.21 439.406
864 0 95.2242 14.1141 1344 131.561 1020.3 437.882
865 0 96.2776 13.1391 1265 134.017 1022.53 437.755
866 0 100.201 13.4629 1349 135.068 1023.35 435.987
867 0 104.243 15.6557 1632 129.632 1025.96 439.079
868 0 109.313 18.662 2040 122.244 1026.9 438.286
869 0 110.23 15.9485 1758 129.889 1027.4 433.068
870 0 115.25 15.9826 1842 129.553 1027.59 435.291
871 0 121.556 14.8162 1801 131.087 1026.92 431.719
872 1 71.215 12.1463 865 132.311 1027.24 454.637
873 0 70.2893 10.1865 716 136.905 1027.13 452.802
874 0 71.3395 13.3026 949 134.394 1026.63 450.031
875 0 75.4984 15.2718 1153 132.033 1026.33 451.292
876 0 80.3006 16.6375 1336 128.331 1026.84 455.88
877 0 80.2305 15.5801 1250 131.279 1024.89 457.767
878 0 85.1856 15.3078 1304 131.926 1023.55 455.43
879 0 87.2651 17.04 1487 129.35 1022.58 452.202
880 0 92.2552 17.4516 1610 127.986 1020.43 452.511
881 0 93.2758 18.8366 1757 126.74 1018.45 443.987
882 0 94.5512 16.4567 1556 132.288 1016.76 442.946
883 0 97.1436 17.4999 1700 128.808 1016.67 439.701
884 0 101.189 19.0041 1923 125.097 1015.43 433.239
885 0 102.271 15.1753 1552 131.922 1014.41 434.355
886 1 55.1471 10.3723 572 132.22 1014.14 455.437
887 0 58.279 8.90543 519 134.541 1012.53 456.002
888 0 61.0477 14.1201 862 128.608 1013.44 456.825
889 0 62.0861 11.1941 695 132.446 1013.79 453.997
890 0 65.2074 16.7006 1089 123.415 1014.61 451.671
891 0 65.1804 12.3503 805 129.768 1014.31 450.113
892 0 71.145 14.0839 1002 126.69 1015.16 448.505
893 0 73.2468 18.2943 1340 118.587 1015.88 447.322
894 0 77.2755 13.9889 1081 123.893 1016.82 445.851
895 0 79.1762 15.9518 1263 124.619 1018.19 444.358
896 0 75.1725 10.0303 754 136.59 1019.4 442.926
897 0 81.2146 11.8205 960 133.164 1021.37 440.343
898 0 82.2146 13.1485 1081 131.514 1023.16 439.166
899 0 85.2362 11.5444 984 132.013 1024.59 437.184
900 0 89.2649 13.3087 1188 129.963 1026.21 441.143
901 1 56.0983 8.41381 472 134.794 1028.5 459.583
902 0 55.068 12.1305 668 129.826 1028.97 459.988
903 0 55.1212 10.1776 561 132.515 1029.47 464.401
904 0 58.0473 11.6112 674 129.42 1030.28 463.967
905 0 58.1716 13.0992 762 131.415 1026.04 459.503
906 0 60.1101 11.978 720 131.986 1026.66 460.311
907 0 62.1052 13.9602 867 128.728 1026.19 459.789
908 0 63.1529 14.0453 887 130.46 1025.62 455.37
909 0 65.0776 10.9715 714 135.434 1024.76 461.763
910 0 67.1088 14.5585 977 130.897 1023.85 455.873
911 0 69.2112 13.4371 930 133.681 1022.69 453.415
912 0 75.1131 13.1402 987 133.728 1021.69 455.788
913 0 74.0406 14.384 1065 132.619 1021.26 451.472
914 0 76.1329 11.5456 879 138.706 1020.14 453.117
915 0 81.2505 14.4245 1172 131.407 1018.47 451.509
916 0 86.1309 13.1892 1136 133.292 1017.73 450.452
917 0 87.1079 14.5452 1267 133.459 1016.63 443.898
918 0 89.1795 13.6578 1218 133.776 1015.14 447.466
919 1 53.0679 11.7962 626 132.332 1014.8 463.406
920 0 53.1091 13.783 732 129.413 1014.13 459.23
921 0 50.0594 8.66971 434 151.912 1013.14 462.2
922 0 56.1139 15.8784 891 125.523 1014.1 456.912
923 0 57.24 14.6925 841 125.121 1013.99 455.981
924 0 58.1588 13.893 808 125.939 1013.86 455.655
925 0 63.3816 15.9194 1009 124.991 1017.9 458.18
926 0 63.0908 16.9914 1072 123.872 1017.86 454.043
927 0 64.0769 14.7011 942 125.383 1019.33 451.317
928 0 66.2792 13.8958 921 124.18 1021.06 455.478
929 0 71.5613 19.4938 1395 115.515 1022.71 451.868
930 0 71.2717 16.9212 1206 117.732 1025.04 451.942
931 0 75.6417 19.751 1494 115.07 1026.64 445.59
932 0 76.1994 15.5775 1187 120.462 1027.91 449.316
933 0 76.211 14.3811 1096 123.619 1029.27 443.526
934 0 83.6845 16.0245 1341 116.755 1030.29 452.679
935 0 83.1815 18.0329 1500 118.014 1031.01 445.252
936 0 85.3451 18.3959 1570 116.484 1031.22 445.004
937 0 87.3996 14.325 1252 124.192 1030.29 448.343
938 0 90.2329 13.3654 1206 125.513 1030.63 445.289
939 0 93.4112 15.7369 1470 122.182 1030.41 447.615
940 0 96.1749 15.8565 1525 123.428 1029.65 445.459
941 1 52.1624 11.6943 610 127.621 1029.47 466.479
942 0 53.2417 11.5135 613 128.162 1028.98 469.418
943 0 55.3644 11.2708 624 133.734 1027.79 464.54
944 0 57.2779 11.3307 649 126.659 1028.81 465.513
945 0 56.2136 10.6558 599 131.79 1027.83 464.224
946 0 60.2173 14.4975 873 123.332 1027.74 464.987
947 0 61.2354 14.3708 880 124.082 1025.64 464.084
948 0 62.1584 13.53 841 126.297 1023.32 463.043
949 0 66.078 14.0591 929 123.335 1022.62 462.583
950 0 67.0856 15.428 1035 120.534 1022.25 458.8
951 0 69.0619 14.697 1015 120.978 1021.05 459.697
952 0 72.2836 15.9926 1156 117.603 1020.42 456.19
953 0 73.2268 13.984 1024 121.082 1019.28 447.387
954 0 74.2224 13.7829 1023 122.839 1019 447.973
955 0 76.2948 18.3892 1403 113.522 1018.83 451.512
956 0 80.2979 14.3839 1155 118.558 1019.74 448.735
957 0 81.3968 12.8261 1044 124.828 1018.84 445.326
958 0 84.2409 14.8147 1248 117.769 1019.21 445.897
959 0 86.147 12.5367 1080 123.779 1019.89 441.231
960 0 89.1754 16.1479 1440 117.41 1020.41 434.955
961 0 93.3655 16.7942 1568 117.453 1021.14 434.798
962 0 95.3255 21.2955 2030 111.74 1022.75 433.461
963 0 97.4324 16.4832 1606 117.828 1023.39 432.255
964 1 57.3772 10.0737 578 122.927 1025.82 454.792
965 0 56.2499 9.08446 511 126.082 1028.39 453.521
966 0 59.2542 10.4128 617 120.374 1028.48 457.467
967 0 61.2325 12.575 770 118.969 1031.14 455.906
968 0 69.173 19.8343 1372 106.555 1031.85 458.651
969 0 66.2292 16.3825 1085 112.561 1034.07 456.288
970 0 70.4107 15.0687 1061 115.188 1033.64 453.935
971 0 70.275 14.0591 988 122.073 1033.74 456.144
972 0 72.1146 15.101 1089 118.319 1033.9 452.554
973 0 75.1489 11.8432 890 124.258 1032.65 455.903
974 0 76.1436 14.8272 1129 122.395 1032.15 449.934
975 0 80.1343 14.3884 1153 121.659 1031.87 456.787
976 0 81.1838 10.7657 874 133.06 1030.13 447.38
977 0 86.2846 16.1558 1394 125.1 1028.85 451.516
978 1 47.0874 10.0027 471 129.567 1027.66 471.308
979 0 47.1247 13.9205 656 125.322 1026.52 470.683
980 0 50.1187 14.2262 713 126.794 1024.36 466.776
981 0 51.1066 11.8967 608 128.234 1022.96 468.661
982 0 53.1306 13.7585 731 123.286 1021.07 468.648
983 0 57.0298 15.2026 867 120.647 1019.83 464.285
984 0 58.1563 12.7587 742 125.473 1019.27 462.693
985 0 57.0572 12.4787 712 128.486 1018.75 459.949
986 0 56.1133 11.6372 653 128.447 1017.44 459.501
987 0 59.2024 11.6549 690 127.458 1016.54 457.967
988 0 61.1115 13.2381 809 123.398 1016.45 452.363
989 0 64.1473 14.2173 912 121.285 1016.58 453.627
990 0 66.2165 12.8065 848 120.325 1016.33 452.055
991 0 68.3459 14.5437 994 117.411 1016.64 451.624
992 0 68.277 14.324 978 117.171 1016.83 452.471
993 0 77.3131 22.9457 1774 106.157 1017.56 447.221
994 0 74.3054 12.0718 897 121.164 1018.92 448.681
995 0 77.4591 16.5378 1281 115.046 1020.06 442.469
996 0 78.2334 14.265 1116 118.173 1022.48 447.17
997 0 79.2265 12.723 1008 120.974 1023.15 441.993
998 1 47.2017 8.81324 416 120.257 1025.81 463.337
999 0 47.0405 8.56709 403 124.275 1026.99 461.593
1000 0 51.1785 12.8765 659 116.707 1028.42 459.709
1001 0 51.1098 11.0546 565 120.476 1029.51 461.515
1002 0 52.3182 13.934 729 117.272 1030.13 457.477
1003 0 55.233 17.0912 944 113.431 1030.55 458.441
1004 0 55.344 14.0937 780 118.823 1028.12 460.372
1005 0 57.0663 13.8085 788 129.646 1028.02 459.646
1006 0 60.0875 13.8631 833 126.258 1029.08 459.427
1007 0 63.0986 15.0082 947 125.717 1028.99 459.514
1008 0 61.2006 17.3364 1061 124.367 1027.99 460.856
1009 0 63.1848 13.4684 851 133.839 1028.73 459.502
1010 0 67.1952 15.6112 1049 128.836 1027.14 462.81
1011 0 68.3119 16.1026 1100 127.475 1026.03 464.077
1012 0 71.0684 17.3213 1231 128.431 1025.34 456.713
1013 0 72.0966 15.0354 1084 133.501 1024.01 456.551
1014 0 73.0791 15.5585 1137 133.763 1022.17 455.172
1015 0 80.2743 17.8762 1435 125.757 1020.3 455.664
1016 0 80.0982 19.4012 1554 124.491 1019.23 449.492
1017 0 81.1232 12.6721 1028 136.124 1018.39 451.447
1018 0 85.1935 19.9311 1698 123.081 1017.58 447.883
1019 1 46.0783 10.7209 494 131.879 1016.44 468.97
1020 0 47.0739 8.81592 415 135.696 1015.57 466.472
1021 0 48.0495 10.4684 503 133.006 1015.42 464.469
1022 0 49.0948 9.93996 488 135.129 1015.39 456.775
1023 0 48.0702 10.6095 510 135.861 1014.73 452.71
1024 0 51.1053 10.5664 540 134.359 1015.45 456.03
1025 0 50.0669 9.70701 486 135.619 1016.93 454.994
1026 0 53.0335 11.125 590 131.654 1016.75 459.23
1027 0 55.1333 11.5175 635 129.66 1017.13 458.18
1028 0 58.1425 11.9362 694 128.542 1018.3 460.033
1029 0 61.165 10.9213 668 130.406 1019.22 455.657
1030 0 60.1708 14.0766 847 125.656 1020.87 455.686
1031 0 63.113 12.6282 797 126.723 1022.72 451.082
1032 0 64.1486 10.881 698 132.341 1024.39 452.496
1033 0 66.1104 14.1884 938 126.644 1026.19 447.174
1034 0 70.146 14.313 1004 125.8 1026.85 452.294
1035 0 72.2497 11.6679 843 130.896 1028.07 452.68
1036 0 74.2614 13.2774 986 129.014 1029.16 452.743
1037 0 78.3408 18.4323 1444 119.71 1029.28 454.27
1038 0 80.2232 14.335 1150 129.553 1029.16 453.152
1039 0 84.1883 13.0897 1102 130.649 1029.08 453.562
1040 0 86.3698 17.5408 1515 125.679 1028.47 451.961
1041 0 89.66 18.4028 1650 125.051 1028 450.003
1042 1 51.3562 12.9488 665 129.532 1027.28 474.498
1043 0 53.5258 13.3394 714 126.845 1026.18 475.317
1044 0 53.3324 12.3565 659 134.706 1024.53 472.112
1045 0 57.29 12.8469 736 133.261 1022.61 469.774
1046 0 59.1558 13.8786 821 132.77 1020.2 468.374
1047 0 61.2031 16.192 991 128.472 1018.14 468.523
1048 0 62.1288 14.5665 905 133.019 1016.61 462.229
1049 0 65.1544 14.5194 946 132.476 1015.98 463.284
1050 0 65.3278 14.9554 977 132.639 1015.11 464.251
1051 0 69.2885 15.2839 1059 130.227 1014.51 462.703
1052 0 70.1926 14.0043 983 133.268 1013.87 460.385
1053 0 71.1081 13.2052 939 136.563 1013.83 457.065
1054 0 73.2533 14.757 1081 134.902 1014.61 453.323
1055 0 72.2728 11.7887 852 140.417 1014.33 452.641
1056 0 79.2258 13.0134 1031 133.369 1014.27 448.594
1057 0 80.3278 15.4866 1244 128.487 1015.57 449.645
1058 0 84.3276 14.2776 1204 133.009 1015.32 441.467
1059 0 86.1985 14.687 1266 132.458 1016.23 442.49
1060 0 87.2201 15.9826 1394 130.56 1016.54 439.445
1061 1 50.1409 9.17415 460 135.817 1018.85 461.17
1062 0 52.2009 10.0765 526 131.825 1018.86 462.981
1063 0 53.1126 11.2968 600 133.813 1020.44 455.695
1064 0 54.0842 13.1092 709 131.738 1022.59 454.206
1065 0 58.2023 15.2743 889 125.697 1024.27 455.424
1066 0 60.2995 15.3567 926 127.018 1025.03 453.232
1067 0 62.1012 16.2316 1008 124.443 1027.2 456.011
1068 0 63.0977 13.1859 832 130.177 1028.58 455.665
1069 0 65.1592 12.4157 809 130.183 1029.93 457.708
1070 0 66.0835 14.1336 934 131.297 1031.01 458.602
1071 0 68.0944 12.8351 874 132.198 1030.95 456.367
1072 0 70.048 16.5601 1160 131.238 1031.59 454.616
1073 0 73.2588 14.9197 1093 131.301 1031.15 454.953
1074 0 75.1708 13.8485 1041 134.151 1031.3 454.351
1075 0 78.3927 17.642 1383 129.62 1031.05 455.947
1076 0 79.1445 15.5412 1230 136.199 1030.79 453.883
1077 0 82.2598 14.6487 1205 139.027 1030.23 450.324
1078 0 84.1899 15.8926 1338 137.288 1029.18 454.422
1079 0 87.3421 14.9412 1305 141.726 1028.39 449.313
1080 0 90.1527 15.2963 1379 142.683 1027.15 448.653
1081 0 95.1372 17.5221 1667 137.22 1025.88 445.594
1082 1 51.2298 9.58427 491 145.921 1025.07 468.373
1083 0 56.0457 13.0429 731 137.993 1023.41 467.142
1084 0 53.1269 11.0114 585 146.462 1022.53 463.662
1085 0 55.1061 11.6321 641 145.137 1021.07 462.423
1086 0 58.1316 14.7424 857 137.672 1020.14 460.666
1087 0 53.2463 12.0008 639 144.781 1018.78 457.069
1088 0 60.2625 15.3661 926 136.271 1019.06 453.397
1089 0 62.164 11.9683 744 141.323 1018.65 453.081
1090 0 65.1533 12.8159 835 141.156 1017.52 452.15
1091 0 68.2874 15.508 1059 131.895 1018.25 449.016
1092 0 69.3142 16.6921 1157 130.33 1018.06 447.685
1093 0 70.3456 14.5141 1021 134.349 1018.33 449.07
1094 0 72.1738 17.153 1238 129.405 1019.57 445.243
1095 0 75.5222 13.3206 1006 135.07 1020.78 444.335
1096 0 75.3183 14.2329 1072 133.981 1022.21 442.422
1097 0 80.3117 14.2694 1146 130.147 1024.07 444.002
1098 0 82.2102 13.9764 1149 136.424 1024.79 440.076
1099 0 84.1688 14.7561 1242 130.05 1027.07 441.118
1100 0 87.3118 15.8512 1384 130.797 1028.87 437.197
1101 1 47.1037 10.6786 503 130.016 1031.14 460.082
1102 0 51.0851 10.9621 560 129.161 1032.72 458.893
1103 0 52.0833 10.3296 538 125.719 1032.16 463.433
1104 0 52.159 11.3499 592 127.014 1032.45 459.372
1105 0 55.2124 11.7546 649 121.766 1032.09 454.257
1106 0 55.0846 12.7622 703 122.856 1032.65 451.926
1107 0 57.1848 13.2203 756 120.234 1032.24 459.274
1108 0 58.1698 10.5209 612 130.224 1032.17 460.011
1109 0 60.1049 12.6778 762 138.417 1029.83 461.038
1110 0 64.0937 12.9342 829 135.606 1029.04 461.018
1111 0 68.1892 11.9814 817 137.89 1027.35 461.889
1112 0 67.2558 14.7794 994 133.183 1026.37 462.56
1113 0 71.2704 14.5362 1036 134.486 1024.61 461.077
1114 0 72.1287 13.2679 957 137.611 1023.2 459.668
1115 0 72.2677 13.1179 948 140.746 1021.71 458.077
1116 0 77.2234 17.5077 1352 134.107 1019.57 454.09
1117 0 78.246 15.6302 1223 138.916 1017.65 450.584
1118 0 82.2848 21.8023 1794 126.846 1016.6 449.492
1119 0 85.3289 12.61 1076 143.016 1015.21 451.032
1120 0 86.1781 13.4605 1160 142.064 1013.87 451.103
1121 0 89.2387 16.8761 1506 135.498 1013.7 448.351
1122 0 93.3594 15.9813 1492 137.529 1013.7 444.649
1123 0 94.405 15.1369 1429 140.876 1013.31 443.269
1124 0 95.2888 13.2964 1267 143.486 1012.78 441.242
1125 0 102.499 17.4636 1790 134.161 1013.14 437.659
1126 1 56.3582 12.3496 696 138.839 1014.13 461.792
1127 0 60.3587 13.8008 833 138.496 1014.83 455.333
1128 0 58.338 10.4392 609 140.246 1014.06 451.228
1129 0 62.6632 10.8517 680 136.493 1015.4 451.831
1130 0 65.2532 12.9342 844 131.821 1016.94 454.269
1131 0 66.254 12.9954 861 130.43 1019.26 452.667
1132 0 69.1904 14.6986 1017 127.471 1020.55 452.558
1133 0 68.1508 11.6947 797 136.186 1022.4 456.94
1134 0 73.2462 14.8813 1090 130.212 1024.19 451.769
1135 0 74.1445 14.5122 1076 132.362 1025.51 454.245
1136 0 77.2497 15.2234 1176 131.934 1026.43 453.352
1137 0 80.1902 15.5007 1243 130.893 1027.1 452.199
1138 0 83.1425 16.8626 1402 127.747 1027.13 453.991
1139 0 85.1752 13.1376 1119 136.92 1027.07 452.668
1140 1 48.1246 10.5144 506 136.409 1028.19 472.018
1141 0 50.1399 9.653 484 137.432 1028.22 473.376
1142 0 51.1489 11.3199 579 135.924 1026.89 472.61
1143 0 51.1171 9.78147 500 138.9 1025.77 471.356
1144 0 57.2598 13.692 784 131.179 1024.31 470.435
1145 0 57.255 12.5404 718 135.299 1022.82 470.344
1146 0 59.2413 12.4744 739 133.644 1021.62 470.897
1147 0 58.1452 15.8225 920 131.435 1019.62 464.926
1148 0 59.0995 14.6194 864 133.992 1017.46 465.338
1149 0 63.2825 11.9148 754 138.293 1016.44 464.125
1150 0 65.1965 12.8381 837 137.919 1014.86 462.584
1151 0 65.1879 11.7353 765 140.144 1014.01 461.669
1152 0 68.3009 13.2795 907 135.711 1013.36 461.004
1153 0 71.2225 15.0514 1072 132.113 1012.91 455.808
1154 0 71.0899 14.8966 1059 133.678 1012.74 452.772
1155 0 74.2146 16.0615 1192 131.153 1012.97 451.332
1156 0 74.1759 14.5195 1077 134.099 1013.52 454.05
1157 0 77.2497 14.2654 1102 135.394 1013.48 446.876
1158 0 81.1904 16.9848 1379 130.484 1013.55 448.12
1159 0 81.1333 14.507 1177 137.977 1014.57 445.365
1160 0 86.2787 18.4982 1596 127.978 1015.77 447.872
1161 0 87.2662 14.4386 1260 136.607 1016.74 446.612
1162 0 89.2506 13.9271 1243 137.815 1017.38 441.949
1163 0 92.4202 16.8145 1554 131.403 1018.51 438.879
1164 0 94.4986 15.7568 1489 133.335 1019.48 434.116
1165 0 97.6423 15.7104 1534 136.081 1021.52 432.369
1166 0 100.704 17.4968 1762 131.945 1022.83 430.657
1167 1 52.2687 9.83379 514 145.73 1025.42 456.632
1168 0 56.1863 12.7967 719 140.441 1027.42 457.072
1169 0 56.1298 13.5935 763 142.35 1027.53 456.912
1170 0 60.1408 14.3995 866 137.596 1028.53 459.979
1171 0 60.1365 13.2698 798 139.173 1030.84 459.891
1172 0 64.1068 15.0998 968 135.536 1031.03 457.222
1173 0 64.2314 15.9579 1025 136.548 1030.84 456.979
1174 0 67.3018 16.1214 1085 136.065 1030.95 457.317
1175 0 68.1367 13.8692 945 142.784 1030.68 455.244
1176 0 69.2099 12.9895 899 145.459 1030.03 455.365
1177 0 73.1511 15.2971 1119 140.021 1028.89 456.591
1178 0 75.0903 14.0764 1057 142.469 1028.37 456.758
1179 0 79.2353 16.167 1281 138.529 1027.24 453.67
1180 0 81.2123 17.7559 1442 135.202 1025.47 453.456
1181 0 81.2253 17.7162 1439 142.086 1024.46 453.463
1182 0 85.1232 16.5995 1413 138.039 1023.26 446.501
1183 0 85.1181 13.7926 1174 144.659 1021.2 444.408
1184 0 91.1271 17.8981 1631 135.34 1019.22 442.971
1185 0 92.1979 17.7987 1641 135.013 1016.97 441.104
1186 1 50.0722 11.803 591 143.191 1015.59 459.64
1187 0 50.0591 11.7261 587 146.448 1015.06 453.572
1188 0 53.1487 8.54207 454 150.383 1015.25 453.52
1189 0 55.0487 13.4063 738 138.954 1014.35 452.19
1190 0 59.1265 13.0906 774 135.734 1014.27 451.736
1191 0 59.1832 12.6894 751 134.599 1014.62 449.522
1192 0 62.1748 14.2823 888 131.712 1015.43 447.425
1193 0 65.0965 15.2543 993 128.249 1015.75 447.45
1194 0 66.107 13.463 890 133.409 1016.24 445.448
1195 0 67.0492 14.7205 987 133.155 1018.32 444.169
1196 0 69.1458 14.1296 977 132.265 1020.17 443.697
1197 0 72.2848 14.7472 1066 133.338 1021.33 445.12
1198 0 75.1529 16.3799 1231 129.786 1022.94 443.11
1199 0 75.1434 14.0931 1059 134.324 1025.23 441.619
1200 0 80.1543 16.8176 1348 125.536 1026.37 441.27
1201 0 81.0825 15.5891 1264 132.453 1027.77 437.832
1202 1 46.1229 9.88663 456 132.785 1029.14 454.254
1203 0 46.1863 10.8474 501 132.872 1029.43 453.12
1204 0 49.4151 8.74227 432 133.356 1030.18 456.574
1205 0 50.2892 13.6212 685 132.028 1030.12 454.476
1206 0 53.2868 15.4635 824 126.471 1030.41 457.556
1207 0 53.1377 11.4043 606 142.114 1029.93 460.508
1208 0 56.1865 15.7155 883 137.349 1029.14 463.472
1209 0 59.0667 14.3567 848 141.736 1028.56 462.876
1210 0 57.0906 14.0479 802 144.608 1028.11 462.85
1211 0 61.1664 17.9183 1096 136.355 1026.88 464.444
1212 0 63.1431 16.4388 1038 140.54 1025.36 460.732
1213 0 66.213 15.6012 1033 141.611 1024.39 461.319
1214 0 68.1325 19.0951 1301 130.331 1023.3 458.6
1215 0 71.3151 15.4245 1100 136.856 1022.17 456.304
1216 0 68.1459 11.7982 804 146.956 1021.35 455.755
1217 0 76.1402 16.1019 1226 136.408 1018.97 457.86
1218 0 79.2679 15.8072 1253 135.243 1018.11 457.238
1219 0 79.2115 14.6948 1164 139.043 1016.91 453.758
1220 0 82.2952 17.0605 1404 135.473 1016.12 450.415
1221 0 86.39 18.0229 1557 134.469 1014.64 446.967
1222 0 87.2171 15.9487 1391 139.07 1014.01 439.929
1223 0 90.2702 15.0216 1356 138.328 1014.18 442.921
1224 0 95.4491 16.9829 1621 134.362 1014.17 439.085
1225 0 93.304 13.7615 1284 145.104 1014.41 436.196
1226 0 100.397 18.2874 1836 134.926 1015.08 433.451
1227 0 102.318 15.7254 1609 141.717 1014.74 431.248
1228 0 105.459 18.8035 1983 135.452 1015.57 430.389
1229 0 105.459 17.3053 1825 139.758 1017.08 432.337
1230 0 112.468 17.3382 1950 140.081 1018.53 428.089
1231 0 114.563 17.7107 2029 138.904 1020.69 426.349
1232 0 117.683 15.2528 1795 144.694 1021.72 422.958
1233 0 124.536 16.1078 2006 142.094 1023.35 426.592
1234 0 125.283 15.03 1883 145.242 1024.79 418.827
1235 0 131.58 17.2291 2267 141.816 1026.54 417.71
1236 0 133.437 15.8802 2119 146.539 1027.33 415.101
1237 0 138.439 14.8152 2051 149.433 1028.13 414.595
1238 0 144.679 18.3787 2659 142.121 1028.16 415.799
1239 0 148.909 15.8486 2360 147.694 1028.4 416.175
1240 0 154.554 17.4502 2697 144.739 1028.3 414.955
1241 0 160.435 17.0848 2741 145.115 1028.06 413.416
1242 0 166.49 17.4905 2912 144.722 1027.51 404.878
1243 0 174.491 16.0238 2796 146.917 1026.84 408.19
1244 0 179.709 17.8567 3209 141.343 1025.8 408.002
1245 0 185.486 18.8855 3503 140.87 1024.63 403.307
1246 1 144.388 10.8458 1566 154.308 1023.33 421.734
1247 0 150.471 14.3948 2166 146.757 1021.65 422.348
1248 0 155.744 11.2493 1752 154.622 1020.74 418.291
1249 0 162.344 15.19 2466 148.549 1018.94 413.086
1250 0 169.66 16.1382 2738 147.465 1018 405.512
1251 0 173.647 16.2686 2825 148.03 1016.7 401.89
1252 0 180.66 16.0689 2903 146.421 1015.46 401.029
1253 0 185.626 16.0484 2979 146.173 1014.34 398.493
1254 0 189.582 15.339 2908 148.976 1013.64 385.158
1255 0 197.695 20.0359 3961 137.419 1013.46 389.868
1256 0 203.53 17.334 3528 141.351 1013.32 387.707
1257 0 209.79 16.1876 3396 144.135 1012.63 380.264
1258 1 55.3256 9.01934 499 135.226 1012.4 458.858
1259 0 55.4194 10.6461 590 133.434 1012.29 456.225
1260 0 59.3559 10.934 649 130.133 1012.31 455.316
1261 0 59.3887 12.6792 753 128.169 1012.7 456.13
1262 0 60.2251 13.8148 832 127.451 1014.64 456.322
1263 0 56.0949 9.68002 543 138.724 1014.83 455.958
1264 0 62.1164 11.736 729 136.026 1017.04 455.499
1265 0 68.2266 13.631 930 127.369 1018.84 460.48
1266 0 68.2447 13.4956 921 132.062 1020.73 454.77
1267 0 69.3492 14.5784 1011 129.653 1021.13 454.033
1268 0 71.3358 12.3781 883 135.051 1023.93 450.498
1269 0 73.5164 15.1803 1116 131.176 1024.46 448.345
1270 0 75.3172 12.6664 954 136.778 1024.95 449.164
1271 0 79.4324 13.2817 1055 133.108 1025.98 447.915
1272 0 82.5958 14.0927 1164 131.97 1026.05 447.415
1273 0 85.4669 16.1466 1380 129.324 1025.55 445.599
1274 0 88.6894 13.5755 1204 135.389 1026.08 443.688
1275 0 88.5201 14.8554 1315 133.637 1025.94 446.934
1276 0 91.3804 13.7119 1253 136.291 1025.22 445.608
1277 0 98.4358 14.1615 1394 134.96 1024.3 446.814
1278 0 99.4532 14.7104 1463 135.689 1023.01 444.653
1279 0 102.511 13.7059 1405 137.836 1021.72 444.343
1280 0 106.673 16.9584 1809 132.769 1020.38 436.737
1281 0 110.584 12.66 1400 139.543 1018.78 438.127
1282 0 115.801 14.7754 1711 136.029 1017.34 434.532
1283 0 116.722 13.6221 1590 139.408 1015.76 430.883
1284 0 124.763 15.5094 1935 132.865 1014.64 436.455
1285 0 127.471 16.6312 2120 133.599 1013.36 430.331
1286 0 129.682 16.9337 2196 133.278 1013.25 426.403
1287 1 75.5164 17.4134 1315 125.69 1011.98 453.974
1288 0 78.4293 13.0308 1022 132.307 1011.39 452.253
1289 0 80.591 11.9368 962 132.872 1010.89 452.714
1290 0 82.4405 14.1314 1165 132.112 1010.71 447.831
1291 0 85.4952 12.3165 1053 136.761 1010.58 446.118
1292 0 89.9251 15.1237 1360 132.585 1010.74 443.241
1293 0 88.463 12.1181 1072 141.016 1010.67 436.337
1294 0 93.5756 15.207 1423 133.738 1011.21 439.19
1295 0 98.5441 14.0648 1386 135.879 1012.6 437.315
1296 0 99.675 14.1159 1407 136.485 1013.84 435.514
1297 0 101.611 14.2209 1445 137.469 1014.38 433.239
1298 0 103.788 13.0747 1357 138.554 1015.22 434.779
1299 0 107.939 12.8314 1385 140.871 1017.06 427.24
1300 0 111.861 12.1312 1357 142.576 1017.92 426.373
1301 0 114.847 15.6556 1798 136.575 1019.48 424.22
1302 0 118.62 15.0227 1782 138.246 1020.74 423.249
1303 0 122.836 12.0892 1485 143.641 1021.21 424.584
1304 0 126.608 15.3308 1941 138.383 1022.46 423.188
1305 0 129.452 13.6344 1765 141.616 1022.98 416.517
1306 0 135.557 14.54 1971 140.194 1023.48 416.267
1307 0 139.514 15.6256 2180 136.613 1022.84 423.018
1308 0 149.913 16.3562 2452 135.321 1023.38 421.202
1309 0 151.877 15.5849 2367 139.253 1022.87 415.774
1310 1 86.5157 6.28788 544 148.39 1023.06 447.908
1311 0 91.6316 12.8122 1174 136.698 1021.24 449.635
1312 0 95.6061 14.8317 1418 135.74 1020.08 444.582
1313 0 99.6512 14.6611 1461 135.326 1018.52 444.85
1314 0 102.746 15.8839 1632 133.999 1017.59 439.83
1315 0 103.814 13.3797 1389 139.458 1016.08 440.106
1316 0 108.587 13.7401 1492 139.403 1014.32 439.692
1317 0 110.595 17.2974 1913 134.734 1013.42 431.957
1318 0 114.892 12.3768 1422 143.157 1012.33 432.4
1319 0 120.961 16.2697 1968 134.507 1010.91 432.638
1320 0 120.802 13.7415 1660 141.005 1010.34 427.051
1321 0 123.824 13.3254 1650 143.545 1009.53 426.419
1322 0 125.853 13.4204 1689 144.694 1009.35 422.948
1323 0 131.898 17.7182 2337 134.336 1008.51 416.601
1324 0 138.995 16.6769 2318 136.835 1008.53 417.321
1325 1 77.9744 10.8112 843 141.453 1009.25 446.887
1326 0 76.3865 8.1428 622 147.521 1010.97 436.117
1327 0 78.3154 9.53836 747 144.063 1011.36 436.588
1328 0 80.4573 12.5284 1008 137.633 1011.31 435.417
1329 0 83.6202 10.9902 919 139.665 1012.44 437.037
1330 0 86.7355 11.3333 983 138.259 1013.64 435.742
1331 0 89.7523 12.3451 1108 137.514 1016.14 431.34
1332 0 89.355 13.161 1176 137.622 1017.06 427.523
1333 0 97.536 14.4152 1406 133.527 1018.22 428.264
1334 0 98.7358 14.0881 1391 134.867 1020.72 427.746
1335 0 99.45 13.3032 1323 138.413 1021.88 427.897
1336 0 103.462 13.145 1360 138.145 1023.59 425.017
1337 0 105.743 14.4784 1531 135.016 1024.64 427.307
1338 0 108.718 13.558 1474 138.152 1024.95 420.399
1339 0 108.718 13.558 1474 148.231 1024.95 420.399
1340 0 118.369 17.8425 2112 129.728 1025.09 423.06
1341 0 123.461 17.8761 2207 130.611 1025.02 419.723
1342 0 125.34 15.7013 1968 136.681 1024.27 418.666
1343 0 130.576 14.9645 1954 137.411 1024.22 422.104
1344 0 134.34 12.9894 1745 142.249 1023.66 418.318
1345 0 138.455 14.0479 1945 142.935 1022.21 414.818
1346 0 142.536 14.5156 2069 141.183 1021.06 418.766
1347 0 147.358 15.4386 2275 140.446 1019.69 413.114
1348 0 151.538 12.7492 1932 148.018 1018.26 404.604
1349 0 156.381 15.507 2425 143.559 1016.63 405.652
1350 0 162.349 16.4707 2674 140.525 1015.36 409.394
1351 1 72.2784 8.30123 600 136.578 1014.67 456.435
1352 0 74.182 11.2022 831 138.075 1013.83 447.958
1353 0 74.2407 12.8232 952 132.243 1013.03 447.88
1354 0 75.3898 10.7972 814 136.775 1012.41 444.178
1355 0 77.0842 12.9598 999 131.961 1012.55 445.32
1356 0 80.1493 12.4518 998 133.098 1012.03 441.739
1357 0 80.1221 11.2953 905 137.063 1011.74 440.078
1358 0 84.5643 13.2325 1119 132.462 1012.06 436.339
1359 0 85.3701 11.5263 984 136.166 1011.8 434.328
1360 0 89.1678 11.7643 1049 136.059 1011.05 438.194
1361 0 93.3075 11.3603 1060 135.606 1013.17 435.647
1362 0 94.1936 15.1709 1429 131.227 1014.24 433.844
1363 0 97.3764 12.4671 1214 137.063 1015.66 435.869
1364 0 100.142 13.9003 1392 133.754 1016.32 433.634
1365 0 102.586 14.6121 1499 132.885 1018.72 430.035
1366 0 107.602 16.2172 1745 130.535 1020.21 426.054
1367 0 109.46 13.6853 1498 137.111 1021.96 425.197
1368 0 113.488 16.0898 1826 131.378 1023.82 427.492
1369 0 114.426 15.3899 1761 137.884 1024.32 424.404
1370 1 68.2098 7.28634 497 139.004 1027.53 453.3
1371 0 72.2111 10.4139 752 133.4 1027.87 453.254
1372 0 70.1859 9.13288 641 139.371 1027.19 451.849
1373 0 74.1297 13.1122 972 130.166 1026.61 455.24
1374 0 71.1451 9.40332 669 142.806 1024.97 444.848
1375 0 79.0474 13.5235 1069 127.886 1026.86 449.717
1376 0 77.1143 10.9837 847 136.535 1026.48 449.558
1377 0 78.1254 11.2255 877 138.013 1024.78 453.747
1378 0 82.2778 12.4092 1021 135.199 1024.59 450.512
1379 0 85.2413 14.0542 1198 131.727 1023.48 450.787
1380 0 87.2194 10.6398 928 138.709 1022.12 445.996
1381 0 88.1595 12.1711 1073 136.697 1020.24 443.914
1382 0 89.184 11.8407 1056 137.149 1019.04 447.005
1383 0 95.25 12.315 1173 137.24 1017.77 442.428
1384 0 92.1615 13.1508 1212 137.55 1016.21 440.528
1385 0 96.258 10.6069 1021 143.688 1015.23 434.109
1386 0 100.227 13.22 1325 137.901 1014.04 434.21
1387 1 55.0476 9.19204 506 139.634 1013.48 457.506
1388 0 56.125 5.3274 299 148.244 1013.42 453.582
1389 0 57.1414 7.26269 415 138.665 1012.68 450.834
1390 0 66.2797 8.58483 569 132.958 1012.21 457.903
1391 0 69.0977 12.8369 887 128.224 1012.5 452.362
1392 0 69.3945 9.727 675 135.196 1011.55 450.825
1393 0 71.2921 10.6463 759 131.895 1012.15 448.688
1394 0 75.242 14.5398 1094 125.799 1013.05 445.768
1395 0 73.2223 11.9089 872 131.569 1013.35 448.103
1396 0 77.2887 11.153 862 132.094 1014.23 449.553
1397 0 78.2026 14.667 1147 127.687 1016.39 445.185
1398 0 80.2625 15.9477 1280 124.659 1017.75 446.834
1399 0 87.2752 16.6027 1449 123.622 1019.82 443.092
1400 0 86.1527 14.3466 1236 126.723 1021.91 446.057
1401 0 90.1633 16.6143 1498 124.116 1022.68 443.853
1402 0 91.104 15.389 1402 126.667 1024.37 446.458
1403 0 96.1893 17.2368 1658 124.443 1025.62 443.061
1404 0 101.25 18.0346 1826 120.687 1026.65 447.898
1405 0 101.147 12.2792 1242 135.326 1026.89 441.959
1406 0 103.251 13.4623 1390 131.668 1026.8 445.133
1407 0 104.227 12.1946 1271 134.448 1026.7 444.267
1408 0 108.154 13.4992 1460 134.243 1026.6 437.846
1409 0 113.178 13.3772 1514 133.195 1026.17 439.401
1410 0 115.153 14.3462 1652 132.408 1025.2 439.944
1411 0 121.219 17.0766 2070 130.918 1023.79 436.107
1412 1 68.1586 10.0061 682 133.208 1020.93 466.861
1413 0 70.1337 9.69577 680 137.29 1018.44 459.334
1414 0 74.1022 13.8862 1029 129.395 1017.63 457.732
1415 0 76.1363 14.9863 1141 122.009 1017 458.806
1416 0 78.1139 10.9712 857 131.784 1014.88 458.385
1417 0 82.1067 13.2023 1084 126.366 1014.69 452.805
1418 0 85.1791 13.0666 1113 124.825 1012.86 455.36
1419 0 88.3041 13.4195 1185 124.643 1011.77 449.522
1420 0 88.2377 11.027 973 130.069 1011.56 447.774
1421 0 94.1539 16.8554 1587 119.439 1010.88 446.176
1422 0 94.1387 10.5164 990 129.471 1009.91 446.169
1423 0 96.125 12.3173 1184 126.283 1009.81 446.56
1424 0 99.2074 13.7187 1361 125.555 1009.52 440.892
1425 0 103.159 14.0462 1449 122.795 1009.69 437.963
1426 0 104.118 12.3321 1284 126.009 1009.66 438.776
1427 0 108.183 15.3905 1665 120.474 1010.75 431.864
1428 0 110.189 12.415 1368 126.785 1011.21 424.985
1429 0 114.253 13.1638 1504 126.316 1011.2 427.662
1430 1 64.0839 7.02205 450 126.889 1011.94 464.871
1431 0 65.084 8.06649 525 122.47 1013.01 464.543
1432 0 68.1793 8.50698 580 124.712 1014.42 458.821
1433 0 69.133 10.2556 709 121.9 1016.33 459.725
1434 0 73.0878 10.4669 765 122.285 1018.2 452.949
1435 0 74.1286 11.6824 866 118.151 1020.22 460.56
1436 0 79.1916 12.6781 1004 120.364 1021.45 454.489
1437 0 81.2726 12.2551 996 123.969 1022.46 449.08
1438 0 81.1433 13.3468 1083 125.446 1023.12 450.537
1439 0 84.2276 11.8963 1002 127.983 1022.74 452.306
1440 0 87.2555 12.2399 1068 127.422 1022.59 452.472
1441 0 91.2544 14.6842 1340 123.813 1022.08 453.719
1442 0 95.164 13.545 1289 125.256 1021.55 455.109
1443 0 96.1966 11.7572 1131 129.858 1021.38 449.002
1444 0 99.2511 14.2165 1411 127.707 1019.99 444.24
1445 0 103.408 14.1961 1468 128.5 1018.82 447.386
1446 0 104.589 17.0094 1779 125.352 1016.59 445.275
1447 0 107.225 14.3623 1540 131.332 1015.01 439.551
1448 0 110.381 13.0276 1438 133.475 1013.59 438.697
1449 0 115.542 15.0681 1741 129.188 1012.56 436.743
1450 1 64.2355 8.81133 566 134.717 1011.66 458.995
1451 0 67.3201 11.2151 755 128.849 1010.45 461.193
1452 0 69.2296 12.7691 884 127.684 1010 458.213
1453 0 67.2607 7.96899 536 134.287 1010.12 458.733
1454 0 72.2434 10.34 747 131.944 1009.5 455.578
1455 0 73.199 10.5056 769 129.876 1009.29 454.767
1456 0 77.2407 11.2505 869 130.183 1010.78 448.916
1457 0 76.1581 10.0711 767 133.314 1010.43 447.099
1458 0 81.233 14.6738 1192 122.551 1009.93 444.83
1459 0 88.5177 14.9236 1321 118.835 1010.32 450.946
1460 0 87.1887 15.931 1389 119.765 1010.49 440.514
1461 0 89.2854 15.6577 1398 121.255 1011.81 439.679
1462 0 91.4038 13.0629 1194 125.754 1012.62 438.045
1463 0 94.2742 13.8214 1303 124.539 1014.24 441.715
1464 0 98.2192 14.8647 1460 122.188 1015.63 436.688
1465 0 98.2174 13.1341 1290 126.82 1017.24 433.179
1466 0 103.222 12.1099 1250 128.254 1019.29 433.845
1467 0 105.22 12.8398 1351 126.234 1021.31 433.543
1468 0 109.23 13.1466 1436 126.494 1023.05 430.215
1469 0 111.227 11.9845 1333 127.631 1025 437.307
1470 0 116.251 12.387 1440 126.535 1025.84 434.967
1471 1 64.2249 8.1744 525 129.524 1027.49 458.086
1472 0 69.1413 11.5416 798 122.209 1027.42 461.482
1473 0 74.1454 14.6199 1084 119.196 1027.54 456.177
1474 0 72.0961 9.47347 683 126.627 1028.01 453.87
1475 0 74.0402 10.2782 761 127.523 1027.4 449.267
1476 0 79.0899 16.1968 1281 117.752 1027.22 448.777
1477 0 80.2331 12.688 1018 122.246 1026.65 451.528
1478 0 86.156 13.4175 1156 121.26 1025.74 451.903
1479 0 89.151 16.3879 1461 117.094 1025.34 451.357
1480 0 91.226 15.3904 1404 119.512 1024.49 448.487
1481 0 94.3262 12.584 1187 124.901 1022.82 448.81
1482 0 96.1348 15.1662 1458 121.795 1021.63 445.953
1483 0 102.255 17.7986 1820 116.749 1021.15 450.31
1484 0 98.2585 13.78 1354 125.154 1019.34 442.051
1485 0 106.199 15.584 1655 121.873 1018.21 439.775
1486 0 108.161 14.1734 1533 124.214 1017.12 439.789
1487 0 109.121 14.1677 1546 125.127 1016.29 438.026
1488 0 113.22 13.3898 1516 126.031 1015.84 435.892
1489 0 118.311 15.5691 1842 121.489 1014.7 432.162
1490 0 120.357 16.0439 1931 122.184 1014.37 429.136
1491 0 124.538 16.758 2087 121.142 1014.37 426.481
1492 1 69.2506 12.9963 900 116.982 1015.31 456.758
1493 0 74.2794 9.04692 672 122.832 1015.17 455.318
1494 0 74.262 12.3616 918 120.757 1014.77 449.167
1495 0 77.2623 12.6582 978 118.847 1015.24 447.383
1496 0 82.2498 15.538 1278 115.313 1015.67 443.031
1497 0 82.4323 14.2905 1178 115.694 1016.71 438.53
1498 0 87.2726 14.1052 1231 113.945 1019.51 443.548
1499 0 87.1442 12.4047 1081 117.926 1020.03 437.012
1500 0 87.1998 11.5023 1003 120.007 1021.82 436.555
1501 0 98.6306 15.1981 1499 111.164 1024.12 438.384
1502 0 95.3602 13.3284 1271 115.427 1025 432.245
1503 0 100.292 13.5005 1354 118.419 1026.19 435.629
1504 0 103.401 11.8955 1230 119.716 1027.75 431.195
1505 0 102.304 12.8734 1317 121.25 1028.22 431.221
1506 0 107.305 14.3236 1537 117.398 1028.78 434.559
1507 0 109.313 15.2498 1667 119.261 1029.02 438.081
1508 0 114.309 13.7523 1572 122.627 1029.58 436.474
1509 0 118.234 17.939 2121 117.677 1028.88 432.003
1510 0 120.287 13.4678 1620 122.35 1029.27 439.491
1511 0 124.388 12.8389 1597 126.659 1027.85 425.736
1512 0 128.387 14.986 1924 123.069 1027.19 430.572
