time division length width area intensity CMx CMy
0 0 111.848 16.2363 1816 116.681 1345.38 419.658
1 0 115.506 24.068 2780 110.687 1345.79 418.892
2 0 115.506 24.4403 2823 128.049 1346.74 418.774
3 0 127.566 21.3302 2721 110.236 1346.85 419.304
4 0 133.638 17.2406 2304 111.803 1347.57 413.464
5 0 138.235 20.1757 2789 108.167 1346.67 420.494
6 1 68.433 14.8612 1017 104.679 1346.26 454.088
7 0 68.433 14.5836 998 121.687 1345.3 453.957
8 0 71.1505 11.6654 830 112.075 1346.14 442.083
9 0 75.3931 12.9985 980 112.043 1343.52 442.48
10 0 83.6299 14.1576 1184 110.992 1343.24 445.481
11 0 80.788 19.4583 1572 109.089 1342.27 447.439
12 0 85.3941 13.7363 1173 117.747 1341.85 447.359
13 0 84.1953 22.3053 1878 108.145 1341.02 452.433
14 0 88.214 15.247 1345 123.641 1339.81 443.692
15 0 89.245 15.0036 1339 131.424 1338.08 440.957
16 0 92.2037 14.2185 1311 136.553 1336.5 435.81
17 1 49.1446 11.5781 569 140.232 1334.89 455.19
18 0 52.3166 13.1125 686 137.048 1334.59 455.481
19 0 55.1089 12.811 706 139.729 1332.81 454.296
20 0 56.1016 11.5861 650 140.805 1332.47 452.248
21 0 58.2351 12.0031 699 141.329 1332.4 450.629
22 0 60.1384 15.165 912 135.38 1331.49 446.34
23 0 61.1588 14.4542 884 137.329 1331.43 448.495
24 0 63.1478 14.9491 944 136.535 1330.96 444.34
25 0 66.1027 15.4608 1022 134.963 1330.92 444.085
26 0 68.0655 14.6036 994 137.65 1331 442.197
27 0 69.3574 13.6395 946 140.449 1332.56 438.295
28 0 71.1207 13.5685 965 143.004 1331.97 439.497
29 0 71.1225 13.6244 969 143.027 1331.94 439.541
30 0 70.1211 13.7619 965 142.758 1331.94 439.505
31 0 83.3459 18.9092 1576 125.065 1337.27 437.963
32 0 80.2605 12.9952 1043 128.414 1339.18 433.952
33 0 90.982 17.2562 1570 114.83 1340.68 435.756
34 0 94.2423 17.9325 1690 111.085 1341.82 438.899
35 0 93.3588 22.5688 2107 109.886 1342.95 434.925
36 0 97.6914 16.982 1659 111.879 1344.25 441.306
37 0 99.4232 17.853 1775 112.806 1344.78 434.86
38 1 53.7976 8.92234 480 114.106 1345.16 458.973
39 0 58.5957 7.62855 447 112.586 1345.99 463.013
40 0 57.2282 20.9861 1201 100.48 1344.15 457.169
41 0 61.5881 27.5215 1695 96.1976 1343.2 460.476
42 0 58.2492 17.2363 1004 107.223 1343.83 452.435
43 0 64.4068 19.1284 1232 105.387 1342.51 456.343
44 0 63.5297 26.1453 1661 107.528 1343.16 463.565
45 0 66.1661 18.242 1207 115.464 1342.9 454.824
46 0 66.1196 19.6765 1301 117.224 1341.35 459.539
47 0 65.1208 22.3431 1455 129.566 1339.25 458.617
48 0 66.0934 10.7878 713 143.987 1339.62 455.547
49 0 69.0921 12.7077 878 144.925 1337.54 453.789
50 0 71.1376 12.9186 919 151.286 1336.21 452.184
51 0 73.0579 15.3303 1120 148.311 1334.67 446.566
52 0 77.1032 15.0448 1160 148.921 1332.83 448.33
53 0 77.1032 14.928 1151 148.122 1330.82 448.201
54 0 80.1317 11.6683 935 144.044 1332.22 448.336
55 0 83.2822 12.7758 1064 143.056 1331.14 444.009
56 0 86.0965 14.2398 1226 142.12 1330.07 439.83
57 0 92.1717 17.9556 1655 132.614 1330.23 441.396
58 0 91.231 12.7807 1166 144.351 1330.29 437.266
59 1 50.1262 12.3289 618 142.183 1329.53 456.722
60 0 51.1039 12.2887 628 142.998 1330.25 453.747
61 0 51.2037 11.6007 594 136.05 1329.37 450.416
62 0 53.0568 14.362 762 129 1328.8 449.656
63 0 51.1309 9.83749 503 136.155 1331.65 448.702
64 0 54.0828 10.9277 591 129.279 1333.51 449.437
65 0 55.2851 15.2482 843 121.423 1334.49 444.947
66 0 60.2129 13.3028 801 115.217 1337.88 451.271
67 0 60.1449 13.6171 819 118.824 1341.43 453.322
68 0 65.5045 19.8918 1303 112.045 1342.01 452.284
69 0 68.1942 20.8375 1421 111.818 1343.28 450.493
70 0 65.315 12.1259 792 121.731 1344.48 450.016
71 0 71.2176 26.6226 1896 103.77 1344.32 458.23
72 0 74.7022 14.7117 1099 115.513 1345.68 453.242
73 0 72.6272 19.5657 1421 112.484 1345.01 456.635
74 0 75.2783 21.2279 1598 112.471 1344.29 455.414
75 0 82.4762 24.4919 2020 111.898 1343.8 450.432
76 1 45.2262 23.5262 1064 110.291 1342.24 470.352
77 0 45.1527 8.48232 383 142.614 1342.36 469.441
78 0 49.27 11.4471 564 134.603 1341.32 469.543
79 0 49.0613 13.4118 658 135.804 1341.78 467.532
80 0 49.1878 15.4306 759 133.839 1338.21 465.452
81 0 49.1878 15.451 760 126.703 1336.2 465.461
82 0 49.0649 13.4516 660 146.218 1337.48 466.402
83 0 53.1093 12.446 661 154.079 1336.28 464.979
84 0 55.1608 17.0048 938 141.097 1334.69 463.704
85 0 57.2477 15.9133 911 143.038 1333.18 459.855
86 0 58.1499 15.2709 888 148.158 1331.4 459.711
87 0 59.189 17.2667 1022 142.933 1330.74 457.176
88 0 55.2131 13.3664 738 157.6 1330.07 456.835
89 0 61.1243 13.9552 853 149.787 1329.13 457.516
90 0 62.2668 13.137 818 154.009 1328.11 452.834
91 0 65.2296 15.6524 1021 146.932 1328.24 450.779
92 0 67.3887 15.0322 1013 147.184 1328.25 450.23
93 0 68.2304 15.946 1088 146.731 1327.57 447.449
94 0 72.1791 14.9351 1078 148.183 1327.7 446.704
95 0 74.4842 15.5469 1158 149.445 1327.56 443.502
96 0 76.343 15.1029 1153 143.912 1328.03 444.473
97 0 79.2734 16.7395 1327 142.405 1330.1 441.06
98 1 39.2109 11.1449 437 139.135 1331.08 457.858
99 0 46.4782 14.2863 664 125.438 1333.94 463.364
100 0 45.1815 9.03024 408 135.917 1334.5 460.412
101 0 44.0919 13.4492 593 120.18 1337.33 463.646
102 0 48.0916 27.7803 1336 103.263 1338.14 463.4
103 0 51.2702 16.4423 843 110.442 1339.69 464.327
104 0 52.4462 19.3532 1015 107.299 1341.21 462.39
105 0 49.2656 20.3387 1002 107.31 1341.43 463.767
106 0 55.2036 14.7816 816 111.648 1341.88 463.911
107 0 55.1085 19.6159 1081 105.541 1342.86 464.785
108 0 57.4168 16.058 922 112.151 1341.84 461.98
109 0 61.4174 31.4894 1934 101.811 1341.29 461.215
110 0 60.187 20.3366 1224 109.273 1341.4 466.17
111 0 60.2804 15.2122 917 123.197 1340.72 458.652
112 0 63.2052 17.198 1087 123.206 1339.92 460.094
113 0 66.3782 17.5359 1164 123.949 1338.92 458.259
114 0 61.2397 12.6389 774 139.845 1337.34 462.899
115 0 61.2397 12.6225 773 139.376 1336.35 462.934
116 0 68.1846 20.1218 1372 124.204 1334.95 461.554
117 0 72.1523 21.4823 1550 121.653 1333.44 461.561
118 0 70.0438 13.8913 973 142.347 1333.57 454.391
119 0 70.0438 13.9056 974 142.767 1331.56 454.306
120 0 76.0511 13.2937 1011 143.124 1331.2 451.947
121 0 79.0812 14.5547 1151 142.764 1329.68 448.069
122 0 79.0769 11.7101 926 148.121 1328.7 445.216
123 0 84.1449 19.4189 1634 130.857 1327.84 447.857
124 1 49.2289 13.6912 674 136.318 1326.96 463.887
125 0 49.2677 12.0769 595 135.602 1326.14 465.487
126 0 51.0821 12.3918 633 136.171 1326.64 460.122
127 0 50.0683 13.5814 680 136.36 1326.41 458.616
128 0 55.1922 11.6864 645 137.733 1324.3 457.242
129 0 55.2705 11.0547 611 137.471 1325.42 457.282
130 0 53.1922 11.8062 628 137.925 1325.98 454.416
131 0 58.2201 15.4242 898 128.325 1328.07 455.345
132 0 59.1575 14.0472 831 124.966 1329.34 451.54
133 0 60.208 12.9053 777 128.13 1331.99 453.551
134 0 71.3811 22.7932 1627 108.114 1333.1 456.289
135 0 68.4927 22.9221 1570 110.137 1335.22 448.94
136 0 71.368 15.9035 1135 115.896 1337.06 446.209
137 0 74.3642 22.0133 1637 108.615 1337.49 454.214
138 0 76.3523 18.0086 1375 112.348 1338.98 449.036
139 0 81.8676 33.6152 2752 101.325 1338.62 445.943
140 0 79.2591 12.3014 975 119.903 1339.31 443.239
141 0 85.4809 18.2614 1561 110.353 1339.24 456.323
142 0 83.2692 14.6633 1221 119.075 1339.08 447.665
143 0 86.3951 14.943 1291 123.697 1337.81 448.76
144 0 89.2862 13.7871 1231 128.381 1337.2 445.916
145 0 89.2834 13.7092 1224 137.021 1336.19 445.811
146 0 94.3671 16.0331 1513 132.03 1336.02 445.26
147 1 56.4133 12.373 698 127.596 1336.03 468.212
148 0 53.3047 15.6084 832 121.221 1335.44 469.494
149 0 52.2994 12.7344 666 132.682 1333.51 462
150 0 56.462 11.9904 677 132.194 1332.05 465.863
151 0 57.4199 14.9426 858 130.443 1330.54 462.373
152 0 59.2547 16.3363 968 130.753 1328.81 459.599
153 0 60.0825 14.1306 849 131.028 1328.2 460.118
154 0 62.1756 15.6814 975 128.261 1326.39 458.398
155 0 62.1499 13.4353 835 135.565 1326.49 457.996
156 0 65.062 14.9857 975 130.371 1325.57 454.315
157 0 64.2047 12.9741 833 135.385 1324.99 451.014
158 0 69.1931 14.6257 1012 131.11 1324.16 451.9
159 0 71.1782 15.2715 1087 132.079 1323.5 445.928
160 0 76.3341 18.2225 1391 129.854 1323.65 447.777
161 0 75.1365 15.3055 1150 136.81 1323.66 446.384
162 0 77.2811 13.5609 1048 139.116 1323.88 441.528
163 0 80.391 13.1482 1057 136.771 1324.51 444.202
164 0 84.2053 14.5003 1221 132.703 1326.78 441.072
165 1 47.0807 11.3635 535 126.944 1329.6 459.056
166 0 46.0468 10.2504 472 131.015 1331.1 458.962
167 0 47.0668 11.643 548 129.759 1333.31 456.777
168 0 49.0245 12.7283 624 126.84 1334.49 457.538
169 0 51.2235 13.7437 704 115.786 1333.57 456.172
170 0 53.062 19.0155 1009 110.536 1336.18 461.548
171 0 54.1393 13.5946 736 115.655 1337.35 461.322
172 0 57.2331 14.0478 804 113.568 1336.67 465.251
173 0 57.1186 20.011 1143 110.238 1337.45 462.291
174 0 61.1208 15.6084 954 114.784 1337.99 463.258
175 0 58.1009 13.6142 791 122.224 1337.89 460.424
176 0 63.1158 14.4972 915 123.353 1336.77 461.484
177 0 64.0551 17.2196 1103 120.108 1336.06 461.334
178 0 65.1244 17.6278 1148 120.647 1336.32 461.334
179 0 68.0638 13.12 893 129.318 1334.5 458.179
180 0 68.0275 14.4353 982 135.561 1332.95 460.413
181 0 72.0463 15.4484 1113 128.815 1331.61 457.386
182 0 73.1083 12.2558 896 134.02 1330.02 457.583
183 0 74.1811 13.5749 1007 135.355 1329.26 456.537
184 0 78.1102 15.2989 1195 131.418 1327.89 454.557
185 0 80.3268 13.4949 1084 134.631 1325.82 452.567
186 0 83.1973 13.0413 1085 134.786 1324.39 451.652
187 0 85.1613 12.9989 1107 134.25 1323.41 450.668
188 0 85.2519 13.2783 1132 134.64 1322.17 447.427
189 0 90.3037 17.5076 1581 126.736 1322.78 442.468
190 0 93.1462 14.1498 1318 131.527 1321.75 441.367
191 0 96.2845 12.3904 1193 134.294 1320.91 438.945
192 0 97.2504 12.3701 1203 132.637 1320.64 438.78
193 1 50.1557 13.1391 659 126.97 1320.39 459.243
194 0 50.0149 8.59744 430 131.437 1321.35 459.991
195 0 55.1654 11.0939 612 129.815 1321.98 455.446
196 0 57.0994 15.0264 858 121.6 1323.02 454.594
197 0 59.1072 12.3504 730 124.897 1324.71 454.097
198 0 58.0864 13.6865 795 122.181 1325.53 451.536
199 0 61.0733 12.6569 773 119.467 1327.04 456.49
200 0 62.1758 14.6681 912 118.894 1328.24 450.68
201 0 65.2126 14.8744 970 115.577 1330.83 453.24
202 0 68.261 14.884 1016 116.902 1332.29 448.527
203 0 69.1092 16.4377 1136 115.416 1333.86 448.981
204 0 70.1211 13.2485 929 121.83 1334.72 449.465
205 0 72.1705 12.1656 878 121.434 1335.42 451.01
206 0 75.4932 14.0542 1061 118.271 1335.9 450.219
207 0 77.1639 13.2445 1022 119.925 1336.56 452.773
208 0 79.2306 12.3437 978 124.421 1336.8 448.849
209 0 84.4869 14.1679 1197 123.505 1336.08 442.713
210 1 45.3195 11.6065 526 117.749 1337.19 470.897
211 0 43.1664 10.309 445 126.555 1336.03 471.038
212 0 45.1117 13.8545 625 122.141 1335.51 471.661
213 0 46.1182 11.7307 541 119.71 1336.46 473.024
214 0 49.1394 12.6986 624 127.502 1333.26 466.641
215 0 52.0593 12.3129 641 129.782 1331.95 468.754
216 0 53.0855 13.2428 703 132.977 1331.86 463.671
217 0 56.0845 15.655 878 128.14 1330.82 464.595
218 0 54.1923 14.9652 811 132.127 1328.72 463.503
219 0 56.0306 12.3861 694 136.359 1327.41 461.816
220 0 58.1275 13.0403 758 134.125 1325.7 464.009
221 0 60.112 13.9906 841 134.215 1324.49 459.269
222 0 62.266 13.5226 842 134.285 1323.69 458.67
223 0 66.1055 13.539 895 133.073 1323.35 455.961
224 0 70.2908 16.9581 1192 123.419 1322.85 456.837
225 0 68.0839 14.9668 1019 130.453 1321.84 451.476
226 0 71.0823 11.9017 846 135.818 1322.08 448.806
227 1 40.4381 10.5099 425 130.372 1323.02 467.515
228 0 43.2922 12.2193 529 128.312 1323.43 464.83
229 0 39.0576 8.8075 344 139.61 1323.9 462.735
230 0 41.1459 12.2248 503 132.105 1324.13 462.195
231 0 46.123 11.0791 511 128.327 1325.35 462.536
232 0 46.0707 13.7832 635 123.641 1327.87 459.255
233 0 48.0856 14.079 677 119.922 1328.64 464.269
234 0 49.0996 13.4421 660 127.732 1331.5 460.567
235 0 48.1847 12.5766 606 125.865 1333.31 459.338
236 0 49.1787 12.2817 604 130.563 1335.04 458.361
237 0 52.1178 15.1196 788 121.28 1336.67 461.098
238 0 51.0326 11.5416 589 129.29 1337.39 459.832
239 0 60.5765 15.1709 919 117.521 1338.71 464.407
240 0 59.0836 14.7926 874 120.2 1339.12 463.333
241 0 58.0716 10.9348 635 130.34 1338.02 461.243
242 0 60.0965 13.8444 832 125.837 1337.62 460.276
243 0 68.3762 14.6396 1001 121.387 1337.36 464.994
244 0 68.0624 19.0854 1299 119.06 1336.67 459.675
245 0 66.0694 14.2729 943 130.038 1336.14 460.927
246 0 70.1336 14.6435 1027 128.609 1334.51 460.652
247 1 37.0294 11.0453 409 129.719 1334.68 475.413
248 0 36.1056 9.88765 357 133.067 1333.65 476.392
249 0 38.0435 10.3566 394 134.102 1332.41 475.079
250 0 39.0763 9.72455 380 133.387 1331.47 476.471
251 0 39.0293 9.45444 369 139.114 1329.47 472.843
252 0 41.0752 12.4649 512 131.34 1327.36 473.314
253 0 46.1064 13.9677 644 124.655 1322.92 470.207
254 0 45.0427 16.2956 734 122.687 1322.13 470.681
255 0 44.0547 11.2587 496 134.544 1320.77 468.296
256 0 43.1308 12.265 529 133.376 1319.85 466.352
257 0 48.0818 14.1218 679 128.757 1320.54 465.028
258 0 49.0499 13.3945 657 127.394 1319.23 463.895
259 0 49.0417 13.8046 677 130.368 1318.73 463.321
260 0 52.0577 14.9642 779 129.098 1318.92 459.638
261 0 53.0594 14.5309 771 128.198 1318.99 459.886
262 0 55.0496 15.0228 827 127.894 1320.15 456.464
263 0 55.0496 14.9865 825 122.269 1321.13 456.433
264 0 55.1134 13.318 734 129.951 1321.3 456.639
265 0 61.2814 18.7169 1147 117.915 1322.83 456.621
266 0 60.2947 14.8769 897 125.952 1325.02 454.358
267 0 60.2947 14.794 892 136.731 1327 454.541
268 0 63.1232 18.0124 1137 118.642 1329.09 455.145
269 0 64.1244 16.8734 1082 121.057 1330.2 454.019
270 0 64.1244 16.7019 1071 134.886 1331.19 453.936
271 0 69.2873 15.5728 1079 126.21 1333.28 454.056
272 0 71.129 16.6317 1183 124.325 1334.09 457.177
273 0 72.2014 14.6673 1059 132.132 1334.4 453.727
274 0 76.1219 19.5476 1488 120.504 1335.16 454.535
275 1 45.3022 12.6042 571 127.336 1334.51 473.229
276 0 44.1817 9.3704 414 132.287 1334.61 475.394
277 0 47.0326 10.4183 490 134.257 1334.18 474.02
278 0 44.1372 14.976 661 128.162 1334.04 475.067
279 0 44.0414 13.283 585 132.909 1332.08 471.66
280 0 45.1925 14.7591 667 132.394 1331.71 472.486
281 0 47.3687 14.7988 701 131.782 1330.26 469.514
282 0 47.3604 14.8859 705 140.565 1330.26 469.634
283 0 52.0612 15.3665 800 132.845 1328.06 467.498
284 0 53.0461 15.2697 810 135.01 1326.1 467.064
285 0 55.1094 16.6034 915 130.812 1324.36 465.46
286 0 54.1006 15.5636 842 142.485 1322.35 466.419
287 0 57.1673 16.303 932 132.936 1321.84 462.795
288 0 61.105 14.696 898 134.84 1321.61 463.55
289 0 61.1745 18.7987 1150 127.94 1320.72 460.282
290 0 65.1133 16.0336 1044 130.451 1319.93 462.179
291 0 66.102 15.4307 1020 134.108 1319.89 459.254
292 0 66.0892 15.1159 999 134.168 1318.96 457.697
293 0 68.1541 14.878 1014 137.249 1319.21 454.758
294 0 71.3178 17.4851 1247 131.898 1319.12 449.643
295 0 75.1832 16.9453 1274 132.115 1320.06 448.374
296 0 77.1178 17.9725 1386 129.116 1320 453.149
297 0 80.239 16.9369 1359 132.567 1321.46 447.262
298 0 84.1136 19.1883 1614 127.931 1323.16 447.706
299 0 84.1327 16.0699 1352 135.326 1324.62 442.587
300 0 86.1083 16.3747 1410 134.835 1325.97 438.864
301 1 45.0608 10.9186 492 146.132 1327.24 460.449
302 0 47.0263 11.4617 539 139.171 1328.87 463.82
303 0 49.0619 12.0052 589 137.708 1331.26 464.54
304 0 53.663 13.9947 751 128.395 1333.72 466.493
305 0 52.1063 13.722 715 125.347 1334.26 464.94
306 0 53.2386 13.1108 698 125.609 1334.64 463.024
307 0 53.2386 13.0169 693 136.364 1335.65 462.928
308 0 53.1574 11.1179 591 132.308 1334.89 464.486
309 0 56.1438 12.9489 727 129.757 1334.67 464.724
310 0 60.1632 17.8847 1076 122.075 1333.95 463.736
311 0 60.2423 17.2138 1037 126.547 1334 461.467
312 0 63.1706 17.3657 1097 127.527 1333.51 461.942
313 0 63.1012 14.6431 924 134.35 1331.78 462.946
314 0 66.2309 13.1359 870 138.907 1331 458.593
315 0 67.2384 14.6791 987 136.482 1330.05 458.034
316 0 70.2395 18.4939 1299 128.77 1328.71 458.398
317 0 72.0954 15.7846 1138 132.578 1327.69 456.671
318 0 72.0954 15.7292 1134 134.051 1326.68 456.66
319 0 78.2625 16.7385 1310 130.077 1324.2 453.574
320 1 40.023 10.5689 423 134.222 1323.3 471.033
321 0 42.0323 9.70683 408 134.919 1322.28 470.885
322 0 44.0668 12.6172 556 129.599 1321.12 468.872
323 0 45.0361 11.7239 528 134.519 1319.77 469.623
324 0 46.05 12.0738 556 133.813 1319.36 467.376
325 0 46.0331 13.4686 620 132.447 1319.17 464.361
326 0 48.1066 14.7589 710 128.732 1319.61 461.346
327 0 50.1044 12.7933 641 131.638 1322.09 460.964
328 0 51.0979 12.1923 623 131.286 1322.54 461.926
329 0 54.094 15.0664 815 125.009 1323.23 459.65
330 0 53.1037 13.2759 705 129.074 1324.11 459.123
331 0 56.3206 14.666 826 127.784 1325.67 458.573
332 0 57.4211 15.2035 873 125.99 1327.08 456.67
333 0 58.1702 12.8932 750 129.919 1327.42 455.795
334 0 65.4186 16.8912 1105 119.571 1330.61 456.09
335 0 61.2344 13.8811 850 127.489 1331.78 456.246
336 0 63.1555 19.0482 1203 120.002 1333.62 453.373
337 0 66.2176 17.2915 1145 122.513 1333.43 453.686
338 0 69.2139 14.3468 993 127.908 1335.6 455.256
339 0 70.3101 17.437 1226 123.276 1335.67 456.759
340 0 71.2579 15.1702 1081 128.344 1335.84 455.55
341 0 71.2579 15.1983 1083 140.84 1336.8 455.68
342 0 79.3992 17.582 1396 126.912 1335.64 454.42
343 0 85.2651 17.9558 1531 127.062 1335.22 456.048
344 1 48.1463 9.78268 471 135.121 1335.45 475.694
345 0 48.1463 9.82422 473 140.712 1334.45 475.683
346 0 46.1401 12.0936 558 142.057 1333.47 470.835
347 0 49.0842 12.448 611 138.439 1332.51 474.44
348 0 49.0294 12.0948 593 142.177 1330.45 471.459
349 0 53.1317 12.7419 677 139.126 1329.61 472.303
350 0 56.1966 15.2144 855 134.054 1327.77 469.86
351 0 56.2134 15.7436 885 134.286 1326.13 465.964
352 0 59.3341 15.5391 922 130.323 1325.34 470.544
353 0 59.2462 13.6043 806 135.969 1323.76 467.355
354 0 62.2127 17.2634 1074 129.681 1322.92 463.04
355 0 65.6231 16.2748 1068 128.026 1322.35 465.248
356 0 64.2073 14.7024 944 133.488 1321.56 461.079
357 0 65.1736 14.6992 958 134.244 1321.34 458.515
358 0 70.1657 17.4159 1222 127.824 1320.72 456.655
359 0 71.1695 14.8238 1055 131.734 1320.31 455.113
360 0 73.0642 14.193 1037 133.437 1320.54 452.585
361 0 75.2548 16.0123 1205 126.741 1321.53 452.64
362 0 75.1207 14.0041 1052 131.945 1320.53 450.018
363 0 78.7813 13.4423 1059 132.822 1322.7 447.829
364 0 80.386 13.5844 1092 132.128 1323.24 445.572
365 0 85.447 16.9696 1450 125.47 1325.57 447.299
366 0 87.2946 15.8773 1386 131.151 1326.2 439.514
367 1 51.4947 11.7294 604 125.194 1329.7 463.611
368 0 48.4995 7.62894 370 134.9 1331.35 464.205
369 0 52.2302 12.3109 643 126.813 1333.14 462.874
370 0 52.2837 13.5989 711 127.419 1334.4 461.494
371 0 54.2252 16.5606 898 121.465 1335.16 462.49
372 0 54.1203 13.4885 730 128.352 1335.72 465.222
373 0 53.1438 13.3224 708 130.201 1335.5 465.634
374 0 57.0476 14.111 805 128.394 1335.62 462.8
375 0 64.3038 14.8358 954 126.738 1335.78 467.806
376 0 62.1465 14.7555 917 129.66 1335.26 463.757
377 0 63.0899 14.9628 944 131.908 1334.6 464.604
378 0 67.2486 12.8032 861 133.611 1333.78 463.731
379 0 67.2595 12.8458 864 136.032 1332.99 461.236
380 0 67.235 12.8802 866 133.755 1331.97 461.089
381 0 72.267 13.5331 978 136.589 1331.17 463.228
382 0 75.122 13.325 1001 139.025 1329.59 457.845
383 0 78.1953 12.4176 971 140.137 1327.67 457.48
384 0 82.1973 15.4263 1268 134.286 1325.75 456.766
385 0 82.3834 11.4465 943 142.596 1323.96 453.958
386 0 86.2947 15.6556 1351 135.407 1322.54 449.788
387 0 90.5909 15.5424 1408 136.06 1321.78 446.61
388 0 91.4036 13.1614 1203 142.514 1321.1 445.49
389 1 49.3823 10.3681 512 139.693 1319.99 467.941
390 0 48.0421 13.0719 628 137.694 1320.21 467.209
391 0 51.1703 9.7713 500 140.898 1318.25 463.556
392 0 52.1013 11.8231 616 138.42 1318.67 464.894
393 0 51.0735 12.7268 650 139.882 1319.66 459.309
394 0 54.2471 15.6137 847 130.209 1320.7 457.723
395 0 56.1227 12.4727 700 141.517 1320.17 459.276
396 0 60.1064 12.561 755 138.583 1320.86 459.216
397 0 62.2766 12.6693 789 138.461 1322.21 457.749
398 0 65.1519 16.4999 1075 131.123 1323.17 453.066
399 0 68.2084 14.4557 986 135.578 1324.88 452.669
400 0 69.0998 17.4096 1203 129.8 1327.42 452.032
401 0 72.1355 15.3045 1104 135.801 1330.09 453.544
402 0 75.0728 17.8893 1343 129.343 1332.43 451.416
403 0 78.2235 18.5239 1449 127.914 1333.54 452.237
404 0 78.2073 15.1648 1186 136.068 1334.12 451.015
405 0 81.177 16.9752 1378 132.544 1333.78 453.123
406 0 81.177 16.9876 1379 156.42 1333.76 453.066
407 0 85.2113 13.6836 1166 143.294 1334.69 449.473
408 0 89.3313 16.3549 1461 137.309 1334.93 451.112
409 0 91.5334 15.9286 1458 136.938 1334.98 448.489
410 1 52.474 11.7582 617 141.412 1335.33 471.015
411 0 52.1152 15.2355 794 137.267 1334.27 468.836
412 0 49.1766 11.1842 550 142.455 1332.37 469.724
413 0 52.0995 12.956 675 137.436 1331.19 470.108
414 0 56.2101 17.15 964 130.558 1329.75 472.596
415 0 56.0569 13.4863 756 136.79 1330.38 471.058
416 0 59.0345 15.5502 918 132.481 1329.14 471.352
417 0 60.0922 15.5095 932 133.477 1327.77 468.585
418 0 63.2237 14.3143 905 136.224 1326.51 466.744
419 0 63.0803 12.7457 804 138.974 1325.24 463.762
420 0 68.214 18.2954 1248 127.167 1324.17 463.86
421 0 68.1651 14.8757 1014 134.226 1323.35 460.474
422 0 71.1037 14.7109 1046 131.528 1322.49 461.395
423 0 74.2282 16.099 1195 129.141 1321.83 457.269
424 0 79.311 15.0925 1197 130.483 1321.47 455.273
425 0 76.2522 13.298 1014 135.61 1321.24 449.984
426 0 79.2416 13.604 1078 133.307 1320.3 446.252
427 1 37.0705 8.68614 322 133.112 1321.56 468.736
428 0 43.0896 12.416 535 124.189 1322.07 469.049
429 0 47.1116 12.6296 595 125.331 1322.84 466.691
430 0 46.1384 10.4902 484 131.019 1323.66 465.643
431 0 46.0994 9.8049 452 133.469 1324.87 462.199
432 0 46.2055 12.6392 584 129.503 1325.02 462.147
433 0 48.2423 15.049 726 125.711 1327.25 459.833
434 0 52.5634 14.2495 749 131.632 1330 460.352
435 0 59.8819 20.507 1228 116.533 1331.36 465.564
436 0 55.1179 15.5848 859 127.581 1331.04 463.764
437 0 58.7393 15.7986 928 123.51 1333.92 467.129
438 0 55.0773 14.289 787 134.074 1332.85 460.405
439 0 58.0873 12.8083 744 135.183 1333.89 465.136
440 0 61.3566 16.0537 985 129.156 1334.2 465.192
441 0 60.0402 13.9906 840 138.839 1333.89 465.57
442 0 63.1249 13.0535 824 140.859 1333.3 464.124
443 0 65.1377 15.7205 1024 132.485 1333.33 465.87
444 0 68.1615 14.8618 1013 137.813 1332.6 463.39
445 0 68.0819 17.2146 1172 135.199 1332.24 462.625
446 0 71.082 16.7975 1194 136.992 1331.01 462.175
447 0 68.0758 13.1618 896 149.444 1329.1 462.487
448 0 71.1014 13.8957 988 149.731 1328.24 461.336
449 0 70.1485 13.9418 978 151.146 1326.86 462.922
450 0 70.0711 13.3864 938 155.076 1325.46 460.056
451 0 74.0427 14.208 1052 154.183 1324.71 457.772
452 0 79.1054 16.636 1316 146.464 1323.56 458.53
453 0 78.1949 14.1953 1110 153.036 1322.48 459.263
454 0 81.1719 13.3051 1080 152.971 1320.9 458.213
455 0 82.2264 15.2141 1251 151.672 1320.14 452.455
456 0 86.249 14.9799 1292 150.058 1319.27 450.016
457 0 86.157 13.487 1162 155.622 1319.12 442.649
458 0 88.099 15.5507 1370 150.168 1319.3 440.686
459 0 90.3275 10.3069 931 159.278 1318.26 444.187
460 0 96.3732 12.1507 1171 154.786 1318.83 441.864
461 1 55.1781 11.2726 622 147.497 1318.78 460.54
462 0 55.1996 12.3914 684 147.446 1319.3 458.377
463 0 57.1669 12.2099 698 148.063 1320.53 456.544
464 0 59.2615 11.6096 688 145.029 1322.09 457.023
465 0 59.0804 13.3547 789 144.615 1323.34 452.057
466 0 59.0476 11.2113 662 141.542 1326.22 454.172
467 0 63.1287 11.4211 721 136.2 1327.98 455.365
468 0 67.1572 11.7932 792 137.72 1330.08 454.342
469 0 66.1379 12.0959 800 136.224 1332.44 452.112
470 0 69.3339 12.5047 867 135.334 1333.22 453.621
471 0 73.1506 15.1195 1106 131.165 1334.59 452.316
472 0 75.1695 13.5161 1016 135.789 1334.91 450.951
473 0 78.0873 13.1776 1029 135.5 1335.12 452.709
474 0 77.2418 9.90397 765 143.335 1335.45 451.489
475 0 83.2135 13.8679 1154 140.993 1334.65 446.837
476 1 43.077 10.8875 469 145.896 1333.74 468.239
477 0 43.077 10.9339 471 120.654 1333.75 468.219
478 0 46.3247 10.2321 474 148.122 1335.21 468.985
479 0 48.093 11.1659 537 147.333 1333.58 468.026
480 0 51.0544 13.6913 699 141.423 1333.52 469.391
481 0 52.0912 15.588 812 136.192 1332.37 468.331
482 0 54.2468 12.8303 696 141.746 1330.47 467.565
483 0 54.1801 13.0491 707 143.281 1327.8 465.996
484 0 56.3715 13.3223 751 142.228 1324.53 465.344
485 0 55.0971 11.87 654 147.372 1323.48 463.353
486 0 53.4636 14.0095 749 154.724 1322.94 460.541
487 0 56.7328 17.6089 999 147.138 1322.72 463.844
488 0 58.0898 14.1333 821 154.504 1319.76 461.942
489 0 61.1483 15.8794 971 147.575 1319.15 459.797
490 0 64.084 16.4472 1054 145.465 1319.04 457.909
491 0 65.073 17.2575 1123 143.352 1319.16 455.587
492 0 67.2406 14.6043 982 147.621 1319.2 450.822
493 0 69.0582 15.5231 1072 144.809 1318.92 450.739
494 0 71.0696 16.2095 1152 143.378 1318.92 450.307
495 0 74.0888 16.4127 1216 142.312 1319.82 449.748
496 1 35.0203 11.9645 419 151.864 1320.43 466.58
497 0 39.1504 13.0011 509 143.754 1321.57 467.851
498 0 41.0457 13.0342 535 141.908 1323.64 467.824
499 0 44.144 11.7117 517 142.95 1325.92 466.671
500 0 43.1095 11.8303 510 141.235 1328.13 464.594
501 0 45.0297 12.6805 571 140.422 1329.18 465.328
502 0 47.0833 14.2513 671 131.784 1330.94 466.057
503 0 47.1036 18.0666 851 124.364 1334.32 463.476
504 0 49.0746 13.4489 660 132.271 1336.18 466.812
505 0 49.0404 15.579 764 130.065 1337.4 466.986
506 0 53.1177 17.3388 921 123.988 1334.98 467.115
507 0 52.1117 15.6203 814 131.002 1334.18 466.51
508 0 54.1302 17.735 960 124.46 1334.96 469.216
509 0 56.1094 16.9134 949 127.297 1334.85 466.877
510 0 58.1055 16.2119 942 128.6 1334.33 467.548
511 0 58.2148 17.4526 1016 127.367 1333.43 469.32
512 0 60.1048 15.473 930 130.667 1332.23 471.019
513 0 60.0775 15.3968 925 133.895 1331.32 464.572
514 0 62.1149 14.3122 889 136.196 1330.2 466.334
515 0 64.1411 13.4859 865 137.536 1328.62 465.932
516 0 67.1324 17.5921 1181 130.381 1327.02 462.82
517 0 67.2036 15.401 1035 136.462 1325.72 459.876
518 0 70.0513 15.4315 1081 134.517 1324.75 458.376
519 0 75.2365 17.5181 1318 129.003 1323.06 458.662
520 0 75.0857 15.5289 1166 132.196 1322.07 455.986
521 1 36.0439 9.79361 353 137.79 1320.63 475.595
522 0 39.0245 14.0681 549 130.273 1320.01 472.301
523 0 38.1172 11.281 430 139.247 1322.07 470.779
524 0 41.0367 11.2095 460 135.961 1322.03 469.98
525 0 42.036 11.3236 476 136.416 1322.08 468.5
526 0 45.161 14.6144 660 130.006 1321.77 466.285
527 0 45.1495 13.5328 611 132.416 1322.19 465.468
528 0 47.1472 14.232 671 130.098 1323.71 464.846
529 0 47.0931 13.4839 635 132.143 1323.64 463.293
530 0 50.0812 15.994 801 126.818 1325.09 461.71
531 0 52.1001 13.8963 724 129.57 1326.73 461.677
532 0 52.117 13.5464 706 130.225 1327.96 460.167
533 0 53.1214 14.5327 772 130.992 1330.19 461.759
534 0 57.3268 16.1879 928 125.658 1331.85 461.548
535 0 55.2187 15.6107 862 130.269 1333.31 460.333
536 0 57.0619 14.0724 803 133.01 1334.91 460.981
537 0 59.157 14.8249 877 129.621 1335.85 460.536
538 0 63.0783 16.1387 1018 125.401 1336.08 462.193
539 0 64.1045 16.8007 1077 124.841 1336.58 459.051
540 0 67.2576 15.9239 1071 126.447 1337.02 462.142
541 0 66.1222 15.9704 1056 134.191 1336.66 459.689
542 0 70.1304 15.2145 1067 135.383 1335.47 458.295
543 0 75.1468 17.9249 1347 129.036 1336.15 460.291
544 0 74.1481 16.8312 1248 134.063 1334.85 456.908
545 1 41.0796 10.5892 435 141.862 1334.56 476.598
546 0 40.0889 8.38137 336 144.854 1333.16 477.312
547 0 43.0844 13.2763 572 138.226 1331.91 474.479
548 0 45.0664 13.8684 625 138.683 1329.38 472.587
549 0 43.164 11.3289 489 145.006 1327.21 470.963
550 0 45.0457 14.341 646 137.413 1326.12 470.782
551 0 48.2165 14.0823 679 139.218 1326.93 466.766
552 0 50.2786 13.5246 680 135.462 1324.8 469.994
553 0 48.1646 12.3327 594 139.5 1323.94 464.96
554 0 52.254 14.2956 747 133.249 1323.53 464.494
555 0 53.0708 13.0015 690 136.055 1322.92 463.696
556 0 59.1632 15.2122 900 127.993 1322.63 463.618
557 0 59.1825 14.5313 860 131.327 1321.5 460.366
558 0 57.1013 12.9419 739 135.8 1321.5 456.616
559 0 63.1157 16.953 1070 126.574 1321.16 456.771
560 0 62.2869 13.0686 814 133.397 1320.89 455.158
561 0 67.1721 17.805 1196 125.348 1321.52 452.579
562 0 68.0735 15.0279 1023 132.432 1322.67 449.936
563 0 73.1406 17.4595 1277 126.37 1322.78 448.976
564 0 72.2892 14.4558 1045 131.5 1324.17 447.809
565 1 36.0753 11.5314 416 135.034 1325.85 463.81
566 0 41.08 13.3885 550 130.64 1327.26 464.035
567 0 42.0999 8.88362 374 133.759 1329.68 467.11
568 0 43.0638 11.2856 486 130.21 1331.29 466.743
569 0 44.0716 14.1361 623 127.864 1333.55 464.185
570 0 46.0315 12.9042 594 127.104 1334.31 465.451
571 0 45.1242 12.6983 573 126.939 1334.51 466.197
572 0 48.0512 11.9248 573 130.456 1335.34 467.782
573 0 52.1853 14.7168 768 126.483 1336.77 466.288
574 0 53.0604 17.4706 927 121.729 1334.96 468.685
575 0 55.0605 16.1459 889 127.075 1334.77 467.832
576 0 56.0559 13.8076 774 134.289 1333.99 470.978
577 0 57.1226 15.6155 892 134.233 1333.95 467.655
578 0 58.0933 12.3422 717 144.06 1332.93 468.661
579 0 60.1923 12.5597 756 143.663 1332.4 468.48
580 0 63.1403 15.1092 954 137.082 1331.46 465.553
581 0 65.18 15.3421 1000 137.393 1330.68 464.979
582 0 68.1431 12.826 874 144.445 1329.14 463.955
583 0 70.1937 14.6879 1031 141.514 1327.54 462.235
584 0 71.1768 13.9652 994 145.211 1326.14 460.441
585 0 74.196 14.583 1082 143.749 1324.63 460.773
586 0 79.2009 15.6943 1243 140.422 1323.61 458.842
587 0 82.1382 18.8585 1549 133.207 1321.93 458.687
588 1 40.0361 10.9651 439 145.472 1320.8 474.708
589 0 43.0212 11.3897 490 143.076 1319.83 472.814
590 0 42.0971 9.7869 412 146.476 1319.52 473.143
591 0 44.0688 11.187 493 142.761 1318.48 472.84
592 0 48.1638 14.6168 704 134.303 1321.35 467.773
593 0 48.0815 15.3697 739 130.908 1321.21 469.731
594 0 49.1264 16.5084 811 131.414 1320.76 468.804
595 0 49.0404 12.4387 610 141.33 1321.46 466.054
596 0 51.0606 14.2771 729 136.535 1322.18 466.381
597 0 52.145 12.2735 640 136.906 1322.53 467.311
598 0 56.1627 15.4195 866 129.778 1323.99 467.857
599 0 58.1661 17.7423 1032 125.7 1325.1 465.591
600 0 59.1807 13.0955 775 135.065 1326.73 461.427
601 0 59.1383 14.018 829 134.551 1328.38 463.65
602 0 67.2577 16.2212 1091 127.377 1329.37 464.366
603 0 66.2424 16.2887 1079 136.907 1329.4 464.762
604 0 68.1567 18.12 1235 127.789 1330.75 463.926
605 0 70.1662 15.8623 1113 133.429 1330.5 462.834
606 0 71.1718 13.7835 981 138.159 1330.89 462.325
607 0 73.196 13.7439 1006 141.193 1330.59 461.27
608 1 40.1112 9.19942 369 141.382 1331.49 480.271
609 0 41.0289 10.1636 417 140.182 1331.72 480.249
610 0 42.0162 11.4718 482 139.263 1329.99 478.544
611 0 41.0707 11.6385 478 141.481 1326.53 476.098
612 0 46.1569 16.1189 744 131.129 1325.74 477.402
613 0 50.2238 13.5792 682 133.894 1324.84 478.132
614 0 49.1093 14.1318 694 134.634 1323.55 476.496
615 0 51.0716 14.979 765 131.553 1321.98 475.55
616 0 49.3449 13.051 644 138.766 1320.38 472.912
617 0 53.1128 16.3049 866 129.395 1319.13 472.475
618 0 55.1561 13.0901 722 136.206 1318.07 470.319
619 0 55.2091 12.4979 690 137.712 1316.84 469.104
620 0 58.0882 15.3043 889 130.507 1316.41 467.859
621 0 62.2579 16.5441 1030 126.557 1315.84 464.024
622 0 61.2423 16.7368 1025 135.51 1314.85 463.912
623 0 65.4071 15.0442 984 129.678 1315.24 460.393
624 0 67.3053 15.1845 1022 129.025 1314.8 458.807
625 0 68.434 14.6711 1004 132.518 1315.84 454.945
626 0 68.3307 13.2005 902 136.44 1315.89 454.157
627 0 70.3006 11.1806 786 139.092 1315.7 454.256
628 0 75.1134 18.8382 1415 123.49 1317.12 450.079
629 1 35.0657 9.61054 337 138.617 1318.59 466.365
630 0 41.2438 11.5896 478 133.063 1319.01 463.354
631 0 40.0266 11.5673 463 131.145 1323.68 465.698
632 0 43.0638 11.4481 493 133.783 1325.56 466.844
633 0 44.0487 13.3943 590 130.51 1326.9 465.156
634 0 51.1841 12.5234 641 128.474 1328.22 466.702
635 0 48.052 15.5665 748 125.18 1330.4 466.694
636 0 49.0288 13.645 669 130.975 1332.6 468.288
637 0 49.0542 12.7206 624 137.179 1333.09 466.276
638 0 50.0647 13.7622 689 135.482 1334.29 466.817
639 0 58.0996 15.2841 888 126.807 1334.78 469.03
640 0 55.0988 14.0112 772 132.061 1335.42 468.571
641 0 56.0597 13.5213 758 136.978 1334.27 467.158
642 0 59.0751 15.3872 909 132.015 1333.28 467.351
643 0 57.0457 14.392 821 135.882 1332.71 468.643
644 0 60.1301 14.2691 858 137.281 1331.88 465.634
645 0 63.093 13.488 851 137.818 1330.71 467.37
646 0 64.1987 15.5299 997 134.591 1329.89 463.881
647 0 65.1498 14.4283 940 137.816 1329.18 466.068
648 0 68.1723 17.4264 1188 130.268 1327.67 464.604
649 0 69.1198 14.3664 993 137.629 1326.79 462.219
650 0 71.1307 15.0146 1068 137.348 1325.63 461.377
651 0 75.1561 17.9227 1347 130.784 1324.32 459.786
652 0 80.2119 16.8928 1355 130.139 1323.78 458.402
653 0 76.102 14.8354 1129 138.446 1322 452.159
654 1 43.0807 11.0258 475 137.099 1322.37 473.926
655 0 41.0482 9.76901 401 140.451 1321.67 473.698
656 0 43.0238 10.5523 454 140.372 1321.08 469.544
657 0 44.0406 13.76 606 135.058 1320.5 466.318
658 0 46.0398 13.1408 605 132.726 1320.35 468.061
659 0 47.0948 12.1032 570 138.181 1321 463.528
660 0 49.0591 13.657 670 134.125 1320.83 463.681
661 0 50.0271 12.833 642 133.561 1321.66 461.995
662 0 52.1339 14.9806 781 130.444 1320.72 461.291
663 0 54.0219 16.6969 902 127.84 1325.64 459.926
664 0 56.0745 12.5191 702 134.801 1327.05 460.746
665 0 56.0769 17.8327 1000 127.297 1329.17 456.987
666 0 58.1189 16.948 985 128.749 1331.11 457.065
667 0 62.07 14.242 884 131.733 1333.14 460.328
668 0 60.1193 13.39 805 135.476 1334.27 457.706
669 0 63.045 16.7024 1053 128.717 1335.27 457.421
670 0 65.0262 15.2861 994 133.309 1336.82 457.887
671 0 68.1239 13.1965 899 136.714 1337.1 457.974
672 0 71.1832 15.4952 1103 131.656 1337.04 458.832
673 0 74.1805 15.6106 1158 131.479 1337.58 459.162
674 0 75.1336 15.9582 1199 134.189 1335.99 456.098
675 0 78.0609 15.2958 1194 135.053 1335.26 453.931
676 0 77.0542 14.4833 1116 144.358 1334.28 455.104
677 0 77.0542 14.4574 1114 143.985 1333.29 455.092
678 1 42.0518 11.9377 502 137.345 1333.24 473.93
679 0 46.078 12.4788 575 130.934 1332.11 477.103
680 0 48.0275 12.6386 607 133.746 1329.6 474.209
681 0 50.1539 13.957 700 131.089 1328.05 471.994
682 0 48.1627 12.2501 590 135.714 1323.37 468.378
683 0 50.1252 12.6284 633 131.398 1322.05 465.444
684 0 54.1783 19.2697 1044 118.177 1321.36 466.311
685 0 54.1223 14.3564 777 130.785 1322.42 464.898
686 0 58.0618 17.4641 1014 123.326 1321.47 464.602
687 0 59.04 16.565 978 124.621 1320.64 462.778
688 0 58.058 12.1775 707 132.984 1320.41 460.424
689 0 60.0766 13.9488 838 128.112 1320.42 455.422
690 0 62.042 13.1685 817 128.934 1320.28 455.376
691 0 67.1473 16.5457 1111 121.676 1319.29 453.169
692 0 67.1341 14.4785 972 126.862 1319.82 449.354
693 0 71.0831 13.9414 991 123.762 1319.73 451.151
694 0 71.0831 14.0821 1001 131.531 1320.74 450.977
695 0 71.0831 14.2509 1013 130.548 1321.72 450.981
696 0 79.3445 14.9601 1187 120.366 1322.8 440.736
697 0 83.2985 15.1863 1265 119.622 1323.54 443.344
698 0 85.2426 14.1361 1205 120.205 1324.9 444.446
699 0 88.1307 13.4346 1184 121.225 1327.46 442.424
700 1 44.1248 11.6488 514 119.304 1328.7 460.362
701 0 49.127 12.6 619 116.858 1329.75 462.204
702 0 48.1984 10.9547 528 118.759 1331.46 462.229
703 0 47.27 9.9852 472 117.127 1332.58 465.966
704 0 52.1118 12.2813 640 116.706 1332.25 461.209
705 0 55.2864 12.5166 692 115.793 1333.21 463.341
706 0 58.3802 13.7718 804 115.545 1333.41 463.889
707 0 58.0758 15.1182 878 114.842 1331.9 464.446
708 0 59.1978 12.2302 724 122.268 1331.97 463.83
709 0 61.2075 12.0737 739 124.601 1331.18 463.177
710 0 64.2152 16.289 1046 119.245 1330.88 460.592
711 0 65.4639 12.9995 851 126.729 1329.25 455.807
712 0 67.1961 14.6586 985 124.703 1328.22 459.344
713 0 71.2354 14.417 1027 124.862 1326.89 458.746
714 0 73.252 15.6446 1146 124.937 1325.35 456.859
715 0 76.2455 17.142 1307 122.656 1324.76 452.214
716 1 35.1374 7.54182 265 138.887 1321.49 474.653
717 0 40.0793 11.1778 448 130.594 1320.69 472.732
718 0 42.2034 12.3687 522 128.648 1319.29 472.119
719 0 40.0477 11.3615 455 132.18 1318.75 471.457
720 0 41.1364 10.7691 443 135.533 1317.72 466.935
721 0 46.0773 16.6242 766 124.316 1318.28 468.048
722 0 47.068 15.0421 708 124.328 1318.13 465.388
723 0 48.336 14.3371 693 124.977 1318 465.341
724 0 55.1027 23.302 1284 108.338 1319.15 464.055
725 0 53.1472 14.0365 746 124.773 1318.8 462.371
726 0 53.1941 13.8361 736 126.135 1319.77 460.433
727 0 54.4396 15.485 843 125.286 1320.8 459.464
728 0 55.2597 13.717 758 127.716 1321.71 459.761
729 0 57.168 15.6381 894 122.86 1322.97 458.032
730 0 58.3664 15.1286 883 122.779 1324.92 460.404
731 0 57.1205 12.675 724 130.333 1327.08 457.696
732 0 63.2973 15.8301 1002 120.878 1329.22 458.87
733 0 64.2198 13.9988 899 123.802 1330.75 459.274
734 0 65.4492 16.1499 1057 120.308 1331.89 459.606
735 0 68.5019 16.9776 1163 125.405 1332.23 457.332
736 0 69.5599 16.9063 1176 135.883 1333.21 457.204
737 0 72.2802 14.2916 1033 130.493 1333.22 456.288
738 0 75.2929 15.0745 1135 128.893 1333.29 458.006
739 1 44.1769 10.1184 447 139.432 1332.48 475.107
740 0 43.267 14.2141 615 132.015 1332.45 475.374
741 0 46.3418 14.5873 676 131.593 1331.37 477.352
742 0 49.7059 13.3183 662 130.834 1330.66 478.606
743 0 47.2927 14.1882 671 132.678 1329.25 477.152
744 0 50.3283 12.339 621 131.161 1329.65 477.544
745 0 51.2766 12.8519 659 129.263 1328.12 477.912
746 0 51.2766 12.8714 660 139.917 1326.12 477.995
747 0 56.232 14.6714 825 126.964 1324.97 475.005
748 0 54.1268 13.2282 716 132.834 1323.36 472.151
749 0 58.2992 13.6365 795 131.819 1321.8 467.984
750 0 60.2217 14.8784 896 129.272 1321.19 466.411
751 0 62.2238 16.6978 1039 124.033 1320.05 469.197
752 0 63.2576 15.0496 952 129.671 1318.83 464.791
753 0 65.267 14.8467 969 127.61 1318.28 464.381
754 0 67.3441 13.8691 934 129.318 1318.06 459.508
755 1 35.0624 10.6952 375 128.669 1318.58 479.272
756 0 38.1648 10.114 386 126.593 1318.36 479.251
757 0 38.1648 10.0616 384 137.01 1318.34 479.31
758 0 37.1373 10.4747 389 134.111 1318.94 473.751
759 0 41.0958 12.2397 503 124.694 1319.54 471.674
760 0 45.1543 12.0476 544 125.443 1320.06 471.335
761 0 42.2331 12.1706 514 129.152 1321.36 470.399
762 0 47.1208 15.0464 709 119.358 1322.14 470.942
763 0 46.2383 12.6086 583 127.328 1324.05 468.741
764 0 46.2929 11.492 532 131.874 1326.68 468.643
765 0 49.5102 11.8157 585 131.853 1327.12 466.817
766 0 52.1035 15.4308 804 124.877 1328.52 466.772
767 0 54.6013 16.3732 894 122.812 1329.06 466.659
768 0 56.2509 13.4931 759 127.659 1330.68 470.414
769 0 54.3823 13.5154 735 136.958 1331.16 468.929
770 0 57.5871 15.7153 905 132.303 1331.66 471.117
771 0 59.5283 12.5823 749 138.069 1331.99 470.717
772 0 60.2723 13.439 810 137.616 1331.81 469.278
773 0 62.8654 15.0639 947 135.335 1330.82 471.013
774 0 62.4641 13.88 867 139.183 1330.7 469.859
775 0 66.5833 16.5807 1104 133.138 1329.34 468.117
776 0 70.5931 15.4123 1088 133.171 1327.65 468.502
777 0 71.6356 14.8111 1061 137.631 1325.86 461.609
778 0 72.7745 11.4463 833 142.409 1323.89 465.323
779 0 77.6705 14.8448 1153 136.612 1322.17 458.598
780 0 79.7398 15.1493 1208 135.002 1320.57 457.592
781 0 82.6561 16.3448 1351 133.135 1319.04 454.889
782 0 86.5168 16.6095 1437 133.241 1317.21 451.387
783 1 48.8541 11.9949 586 132.527 1316.88 472.449
784 0 45.4039 10.748 488 134.912 1315.96 472.48
785 0 44.1776 9.98244 441 134.408 1315.81 472.898
786 0 47.4379 11.573 549 133.699 1314.37 468.668
787 0 45.1698 11.6671 527 129.053 1315.23 469.256
788 0 48.1835 10.5638 509 130.69 1315.42 466.169
789 0 51.3133 12.5893 646 126.09 1314.74 464.981
790 0 53.1924 13.2162 703 125.737 1315.3 464.331
791 0 54.3424 12.5317 681 124.767 1316.15 462.979
792 0 55.2234 12.0239 664 125.872 1316.69 459.878
793 0 58.312 12.1587 709 123.145 1317.3 460.666
794 0 59.1073 13.484 797 124.857 1318.48 458.861
795 0 60.3022 17.346 1046 115.559 1319.46 459.771
796 0 62.206 15.2558 949 121.442 1320.94 457.81
797 0 62.2719 14.7097 916 121.138 1322.64 453.757
798 0 70.4626 17.1864 1211 114.703 1324.38 455.25
799 0 66.2223 14.4815 959 125.39 1326.21 454.556
800 0 68.4425 13.1497 900 125.807 1327.75 454.254
801 0 72.1448 15.5798 1124 120.915 1328.63 454.568
802 0 72.1609 12.8602 928 126.059 1330.35 456.192
803 0 77.2601 16.0497 1240 119.381 1331.4 454.265
804 0 79.3513 14.7698 1172 123.938 1331.64 453.59
805 0 79.175 13.6533 1081 126.772 1331.63 451.421
806 0 87.4645 21.0485 1841 114.019 1332.29 454.812
807 0 85.2003 16.3614 1394 123.26 1332.3 454.348
808 0 88.2434 14.426 1273 127.669 1331.97 450.317
809 0 95.3921 18.272 1743 118.241 1331.22 444.811
810 1 48.0749 9.08999 437 134.243 1331.88 474.007
811 0 49.151 13.7942 678 124.394 1331.41 474.227
812 0 53.2653 11.959 637 125.83 1330.43 474.986
813 0 54.1159 13.2493 717 127.444 1330.34 469.031
814 0 53.1174 14.515 771 124.97 1329.06 468.485
815 0 56.1839 11.7471 660 128.102 1327.23 465.076
816 0 59.1741 17.119 1013 119.513 1326.98 466.012
817 0 60.0865 14.7953 889 123.577 1325.38 462.717
818 0 60.0662 12.4363 747 128.145 1324.76 462.898
819 0 68.2527 14.5196 991 121.313 1323.9 463.11
820 0 65.1082 14.0382 914 125.6 1323.21 459
821 0 67.0287 13.7404 921 126.85 1322.77 455.239
822 0 68.1222 12.9473 882 128.036 1322.37 451.813
823 0 72.1929 15.5417 1122 122.551 1322.27 453.137
824 0 75.1393 14.5064 1090 125.994 1323.37 447.559
825 0 77.182 14.1095 1089 124.818 1323.71 448.536
826 0 81.1685 16.1639 1312 120.698 1324.5 448.4
827 0 84.3471 16.4202 1385 123.549 1325.57 444.243
828 0 85.3402 15.4558 1319 135.161 1326.57 444.977
829 0 88.2974 15.7876 1394 123.148 1328.15 444.991
830 0 93.2256 16.7658 1563 121.751 1329.23 441.742
831 0 93.1546 13.6118 1268 126.403 1330.92 440.246
832 1 53.1524 10.0466 534 126.285 1332.74 464.665
833 0 52.5671 13.3924 704 125.068 1334.51 460.834
834 0 54.0912 11.2218 607 125.825 1335.36 464.189
835 0 55.2096 13.0412 720 120.753 1336.29 464.003
836 0 59.1599 15.1961 899 116.29 1337.74 462.772
837 0 59.216 13.0201 771 120.518 1337.24 463.986
838 0 62.1028 15.9574 991 115.387 1334.76 461.405
839 0 62.1325 12.6826 788 122.695 1334.21 462.396
840 0 67.1106 18.179 1220 115.848 1334.41 463.869
841 0 65.0676 13.924 906 124.517 1333.89 461.173
842 0 69.0656 12.8284 886 127.792 1333.21 462.927
843 0 72.1191 12.7983 923 127.896 1332.12 463.584
844 0 72.152 9.60473 693 134.32 1330.34 462.882
845 0 75.1077 14.1264 1061 127.828 1329.43 459.185
846 1 40.1208 12.911 518 125.595 1326.8 476.483
847 0 38.0186 6.73354 256 137.371 1325.63 476.168
848 0 43.0968 11.0681 477 128.637 1323.87 474.935
849 0 47.078 9.17627 432 132.28 1322.88 474.454
850 0 47.0432 12.903 607 125.9 1322.18 473.502
851 0 48.0242 14.3469 689 128.701 1320.78 471.016
852 0 49.1031 13.828 679 130.19 1319.88 466.184
853 0 50.1041 13.7114 687 128.847 1318.61 466.917
854 0 53.1096 13.0108 691 127.567 1318.62 463.084
855 0 53.1502 14.92 793 125.354 1318.13 462.547
856 0 55.1604 14.0862 777 127.054 1317.72 462.35
857 0 55.0773 10.2946 567 132.836 1319.46 462.273
858 0 59.1811 13.0785 774 127.388 1318.92 461.952
859 0 61.2498 15.4613 947 123.126 1319.4 456.432
860 0 64.2457 15.6431 1005 120.172 1320.13 461.282
861 0 65.2582 14.3277 935 125.059 1321 456.618
862 0 68.2641 13.565 926 124.517 1322.67 458.064
863 0 69.132 17.0254 1177 119.081 1324.17 456.451
864 0 69.1228 16.9119 1169 129.99 1326.16 456.384
865 0 72.2533 15.0858 1090 123.179 1327.63 456.584
866 0 73.2647 13.458 986 130.095 1328.53 453.994
867 0 77.2436 13.5286 1045 127.592 1330.01 454.543
868 0 81.1556 16.1788 1313 120.002 1330.44 455.728
869 0 81.114 13.5365 1098 128.071 1331.52 452.422
870 0 81.2017 14.7411 1197 128.477 1331.64 452.623
871 0 90.468 15.873 1436 122.072 1330.96 458.361
872 0 89.3494 14.863 1328 129.395 1331.83 451.537
873 0 93.1255 17.5677 1636 124.572 1331.56 449.314
874 0 95.191 15.8208 1506 128.86 1330.96 450.529
875 0 97.2714 20.0059 1946 122.54 1330.84 452.358
876 0 100.106 17.5014 1752 128.205 1329.85 448.942
877 0 103.243 17.0569 1761 130.249 1327.78 449.265
878 0 108.229 15.883 1719 132.652 1326.62 448.866
879 0 111.243 15.0751 1677 133.529 1325.93 447.707
880 0 113.164 15.9857 1809 133.94 1324.35 438.861
881 1 59.0516 11.871 701 136.425 1322.59 466.19
882 0 60.0383 12.2588 736 134.144 1320.57 467.304
883 0 61.1288 12.2201 747 138.272 1320.07 464.732
884 0 65.1199 14.4349 940 132.51 1318.87 462.532
885 0 67.2489 15.5542 1046 131.983 1319.61 460.244
886 0 68.0491 16.4293 1118 130.166 1319.78 457.327
887 0 69.0714 15.7229 1086 132.259 1319.61 456.944
888 0 71.1095 14.6113 1039 135.468 1319.03 455.412
889 0 74.0963 14.8725 1102 132.419 1319.15 455.152
890 0 77.1587 15.3839 1187 130.892 1319.46 452.11
891 0 79.1722 15.1821 1202 131.255 1319.1 447.964
892 0 81.0511 15.0892 1223 132.917 1319.82 446.107
893 0 86.0978 15.6218 1345 128.351 1320.52 445.536
894 0 85.3378 14.8586 1268 126.084 1321.07 443.599
895 0 92.2821 18.0967 1670 121.816 1321.42 447.154
896 0 91.4156 17.94 1640 122.057 1323.81 436.977
897 1 46.1338 7.86842 363 130.967 1325.88 464.986
898 0 52.1182 10.4954 547 125.878 1328.04 462.583
899 0 51.1677 9.98677 511 122.403 1328.08 465.462
900 0 51.1986 10.8987 558 124.588 1328.38 461.815
901 0 53.1237 9.93907 528 127.843 1329.99 461.621
902 0 57.2625 13.3071 762 122.52 1333.46 458.546
903 0 55.1927 10.6174 586 129.394 1334.21 462.087
904 0 59.171 13.6553 808 121.114 1332.19 465.089
905 0 62.173 11.8862 739 124.947 1331.09 465.179
906 0 63.2106 17.0699 1079 117.201 1332.26 464.006
907 0 66.1609 16.2483 1075 118.967 1331.72 463.234
908 0 70.1881 16.4558 1155 118.21 1331.55 463.214
909 0 69.1424 13.841 957 124.635 1330.7 462.162
910 0 71.1332 13.6364 970 126.527 1329.77 459.726
911 0 74.1603 11.9876 889 127.657 1328.49 460.316
912 0 76.1238 12.9263 984 125.95 1327.43 460.094
913 0 80.2718 14.0273 1126 124.537 1327.03 455.114
914 0 82.1483 15.4842 1272 122.015 1326.01 453.803
915 0 84.3216 14.2431 1201 123.678 1324.25 451.463
916 0 87.1059 12.1461 1058 126.414 1323.93 450.194
917 0 91.2543 12.2405 1117 126.711 1322.8 445.128
918 0 92.1965 11.4321 1054 127.565 1321.35 444.23
919 1 49.0834 13.202 648 115.318 1321.53 467.097
920 0 50.3228 13.791 694 114.617 1320.61 462.777
921 0 49.3285 13.927 687 119.217 1320.61 462.716
922 0 52.322 11.6968 612 116.157 1321.79 462.263
923 0 55.2685 13.1902 729 113.549 1320.93 456.538
924 0 56.4106 13.0827 738 114.26 1320.75 456.915
925 0 56.3667 10.7688 607 120.843 1321.82 457.992
926 0 60.3154 13.446 811 114.524 1322.16 456.291
927 0 61.3833 11.7459 721 113.237 1323.16 457.509
928 0 62.2614 12.6403 787 114.85 1324.08 455.053
929 0 66.2114 19.1961 1271 105.148 1326.12 456.998
930 0 71.2208 15.5713 1109 107.92 1328.15 455.154
931 0 76.6848 13.6794 1049 112.067 1330.45 452.601
932 0 73.3585 15.4447 1133 112.196 1331.35 450.628
933 0 76.3776 14.5461 1111 112.607 1332.61 452.019
934 0 75.2293 12.9604 975 116.915 1333.1 448.731
935 1 38.1298 10.3856 396 115.997 1335.24 469.95
936 0 37.172 10.7877 401 109.935 1335.89 475.19
937 0 44.0352 10.0147 441 116.134 1336.67 473.422
938 0 48.2333 7.98204 385 115.486 1336.72 475.727
939 0 44.1025 13.8087 609 115.603 1336.4 471.693
940 0 51.1754 15.2417 780 112.485 1335.81 471.204
941 0 48.1293 14.7935 712 117.052 1336.14 470.942
942 0 52.2564 13.2998 695 118.278 1335.32 470.246
943 0 52.2172 13.2715 693 124.547 1331.53 472.442
944 0 55.283 13.8017 763 122.115 1331.17 469.818
945 0 55.2383 12.8896 712 128.221 1330.1 467.133
946 0 57.2605 14.5301 832 124.184 1329.62 466.543
947 0 58.2027 13.0063 757 128.585 1328.02 465.771
948 0 61.2677 13.8083 846 125.532 1326.34 467.507
949 0 64.2778 12.8971 829 127.608 1325.32 464.883
950 0 62.3549 12.7015 792 127.694 1324.34 463.646
951 0 66.408 11.9413 793 129.951 1323.2 460.545
952 1 36.0109 11.3299 408 125.721 1321.46 473.11
953 0 37.0338 9.2888 344 125.785 1320.31 473.279
954 0 38.0925 11.4983 438 122.836 1320.49 472.427
955 0 41.0492 10.5727 434 123.677 1321.33 471.281
956 0 42.2991 12.5062 529 120.365 1321.3 465.603
957 0 41.1326 12.5934 518 124.666 1320.39 463.88
958 0 47.4013 16.0333 760 110.432 1320.65 466.272
959 0 45.2055 18.1615 821 110.75 1321.7 465.743
960 0 47.2881 13.8724 656 118.331 1322.4 463.119
961 0 46.1185 10.9934 507 125.846 1323.54 460.529
962 0 49.0445 12.7231 624 122.532 1325.65 460.835
963 0 49.0943 12.2214 600 121.987 1326.3 463.508
964 0 53.092 16.0853 854 114.364 1328.42 460.645
965 0 51.0689 11.9642 611 124.476 1330.29 459.532
966 0 54.0812 11.1129 601 123.75 1332.09 462.235
967 0 55.1158 15.4765 853 116.152 1335 458.585
968 0 56.1759 13.9028 781 117.27 1334.41 464.087
969 0 58.2778 13.1954 769 117.944 1336.92 464.882
970 0 60.2564 15.2515 919 117.495 1336.11 459.492
971 0 61.1213 11.6162 710 127.358 1336.36 467.01
972 0 66.9298 16.0168 1072 112.699 1336.53 466.939
973 0 66.179 13.2519 877 124.479 1334.91 462.024
974 0 67.1541 13.0893 879 125.237 1334.41 462.719
975 0 70.1216 13.7618 965 127.074 1334.19 461.565
976 1 37.0612 11.8723 440 130.65 1331.83 477.202
977 0 39.0902 13.8654 542 127.463 1330.49 477.677
978 0 40.0733 11.2294 450 133.973 1328.62 476.389
979 0 41.1347 11.669 480 135.846 1327.63 473.298
980 0 45.2164 14.5522 658 127.41 1325.69 473.666
981 0 45.0086 14.775 665 128.901 1324.63 470.738
982 0 45.1398 14.7099 664 125.354 1326.17 472.694
983 0 44.2785 8.40137 372 139.879 1324.29 473.621
984 0 47.1025 12.6108 594 131.362 1323.66 470.968
985 0 47.1408 12.1551 573 131.236 1322.81 469.082
986 0 53.288 14.0932 751 123.698 1322.06 467.662
987 0 52.1707 13.7242 716 127.219 1321.29 464.163
988 0 53.123 13.2899 706 128.076 1321.13 460.511
989 0 53.0564 15.1725 805 124.865 1321.03 460.949
990 0 56.2521 14.5772 820 120.438 1320.63 460.627
991 0 55.0335 11.1205 612 127.147 1321.08 459.601
992 0 59.1408 13.3579 790 120.599 1321.18 459.971
993 0 61.0399 15.8912 970 119.524 1321.99 454.578
994 0 62.0788 15.6414 971 117.808 1323.09 454.574
995 0 65.2421 16.3545 1067 115.102 1324.5 455.562
996 0 66.0303 13.0849 864 121.49 1326.5 453.399
997 0 67.2005 15.2231 1023 116.804 1327.43 451.401
998 0 68.2092 13.8544 945 117.721 1329.22 449.792
999 0 71.0904 13.518 961 119.722 1330.16 447
1000 0 73.1283 14.1669 1036 117.451 1331.26 447.552
1001 0 78.2106 14.7167 1151 115.781 1332.24 452.446
1002 1 42.0433 11.9876 504 116.2 1333.04 465.73
1003 0 41.0223 9.79956 402 119.652 1334.18 470.547
1004 0 40.0865 10.2528 411 121.832 1333.96 468.737
1005 0 42.0561 8.89288 374 130.259 1334.75 470.337
1006 0 45.0408 13.2324 596 121.089 1334.72 469.784
1007 0 48.1431 14.1453 681 118.236 1334.97 469.968
1008 0 46.1072 12.3191 568 127.011 1333.94 468.761
1009 0 49.1784 13.4612 662 126.937 1334.76 470.089
1010 0 51.0985 15.0102 767 124.815 1335.01 471.179
1011 0 51.2755 11.37 583 132.106 1334.01 471.986
1012 0 51.0748 11.5713 591 135.2 1333.05 470.44
1013 0 51.132 13.2989 680 133.107 1331.83 470.721
1014 0 57.0882 14.2236 812 128.723 1328.91 472.934
1015 0 58.2364 14.3038 833 129.916 1327.13 468.782
1016 0 57.0549 14.3546 819 131.116 1326.73 466.304
1017 0 63.0803 13.3956 845 129.245 1325.92 465.841
1018 0 62.1052 11.706 727 134.396 1325.04 464.506
1019 0 68.48 17.3189 1186 119.294 1324.44 469.316
1020 0 66.097 12.1639 804 132.463 1323.5 465.443
1021 0 69.078 13.3472 922 129.821 1322.81 464.117
1022 0 69.2561 16.244 1125 125.477 1322.09 457.57
1023 0 75.262 16.994 1279 121.554 1321.59 457.047
1024 0 76.0955 14.1401 1076 128.245 1322.27 457.794
1025 0 77.1492 15.5024 1196 126.768 1322.05 451.351
1026 0 79.4444 15.0545 1196 128.462 1322.27 451.688
1027 0 83.1785 16.5067 1373 126.953 1323.31 450.342
1028 1 40.0317 11.416 457 136.705 1324.93 470.368
1029 0 46.1098 8.50146 392 137.054 1325.9 471.367
1030 0 45.1886 10.7328 485 132.324 1327.5 471.268
1031 0 48.1657 13.2459 638 131.516 1329.25 468.397
1032 0 51.1327 14.8046 757 126.235 1330.84 470.236
1033 0 50.117 13.688 686 133.211 1332.2 468.834
1034 0 54.1979 13.7644 746 130.554 1332.91 468.414
1035 0 52.1569 13.4594 702 129.679 1333.97 470.618
1036 0 57.0869 14.329 818 127.868 1335.42 469.658
1037 0 57.0717 15.0688 860 126.844 1334.69 470.237
1038 0 61.095 15.0749 921 126.841 1335.09 470.528
1039 0 63.2821 18.7257 1185 120.002 1335.39 469.74
1040 0 63.0649 13.9539 880 129.581 1334.53 471.85
1041 0 66.0889 13.5424 895 130.799 1333.94 470.682
1042 0 68.1611 13.1747 898 132.324 1333.05 471.442
1043 0 71.1764 15.1876 1081 128.42 1331.31 467.749
1044 0 73.2624 17.4305 1277 124.241 1330.51 468.242
1045 0 76.1354 15.2229 1159 127.163 1328.6 468.386
1046 0 77.1436 15.8406 1222 128.264 1326.65 463.1
1047 0 79.103 14.6897 1162 130.643 1324.97 461.09
1048 0 83.1453 17.2469 1434 124.615 1324.02 460.321
1049 0 84.2653 15.8784 1338 127.398 1322.63 456.714
1050 0 87.1673 15.5104 1352 127.982 1321.53 454.27
1051 0 87.1691 16.0607 1400 127.249 1320.13 454.388
1052 0 90.0921 16.9049 1523 126.271 1317.47 454.425
1053 0 91.1057 15.1363 1379 129.635 1318.18 450.566
1054 0 93.144 15.5458 1448 127.742 1319.51 449.068
1055 0 96.2622 16.4239 1581 125.837 1319.17 446.546
1056 1 53.0541 10.2537 544 132.95 1319.96 465.099
1057 0 51.2056 11.7956 604 130.507 1318.95 464.465
1058 0 57.1892 13.6564 781 124.787 1317.95 464.147
1059 0 56.0386 14.3472 804 124.922 1318.79 460.989
1060 0 59.1565 13.7432 813 125.633 1319.52 457.301
1061 0 59.1218 15.8486 937 121.181 1320.41 456.986
1062 0 62.3143 17.2192 1073 118.165 1322.42 453.166
1063 0 66.2681 14.3961 954 121.68 1323.99 457.358
1064 0 67.2632 13.9898 941 124.611 1325.44 452.821
1065 0 70.1072 15.8044 1108 120.709 1327.11 455.623
1066 0 71.1803 17.7296 1262 120.203 1328.23 453.286
1067 0 75.513 15.8516 1197 121.467 1329.94 453.534
1068 0 75.3994 20.8357 1571 114.927 1331.33 449.928
1069 0 78.3321 16.0471 1257 121.875 1332.72 450.031
1070 0 81.3628 14.8717 1210 123.51 1333.38 453.387
1071 0 82.2034 20.5223 1687 115.983 1333.63 452.034
1072 0 85.1344 13.3788 1139 133.776 1334.29 453.182
1073 0 88.3468 14.7713 1305 128.346 1334.04 452.071
1074 0 90.1801 16.9217 1526 124.894 1334.53 453.429
1075 0 94.1762 14.2817 1345 133.527 1333.95 451.828
1076 1 53.0428 12.9707 688 133.808 1333.64 471.916
1077 0 55.145 10.3182 569 136.654 1333.21 472.865
1078 0 58.0404 12.9737 753 135.009 1331.66 465.74
1079 0 61.3968 12.2482 752 133.983 1333.22 464.464
1080 0 61.3747 13.2791 815 134.745 1332.16 463.56
1081 0 63.2932 16.3209 1033 125.823 1331.05 460.053
1082 0 65.2961 12.8951 842 129.331 1328.49 454.97
1083 0 69.1851 13.7602 952 125.714 1327.33 457.845
1084 0 69.2768 14.0884 976 127.344 1326.5 454.192
1085 0 74.1236 16.7558 1242 120.739 1325.24 456.509
1086 0 71.1013 15.9772 1136 122.83 1324.1 454.53
1087 0 77.1217 14.6522 1130 123.993 1323.51 448.345
1088 0 79.2625 16.6031 1316 121.606 1323.15 445.432
1089 0 82.2178 16.286 1339 120.553 1322.87 440.694
1090 0 84.2796 14.2502 1201 125.988 1321.6 440.361
1091 1 47.0812 12.3616 582 120.491 1323.16 460.553
1092 0 49.0734 13.653 670 115.742 1323.31 461.84
1093 0 49.1977 12.5819 619 119.756 1323.22 458.472
1094 0 52.2969 11.2244 587 119.16 1324.2 462.428
1095 0 50.1102 12.6721 635 120.041 1325.29 457.872
1096 0 52.059 13.3694 696 117.934 1327.27 457.925
1097 0 55.12 13.6792 754 117.293 1328.73 455.934
1098 0 56.2253 14.2462 801 120.391 1329.5 455.787
1099 0 64.9859 18.9118 1229 105.584 1331.77 457.169
1100 0 59.1781 15.09 893 118.189 1333.67 454.918
1101 0 64.3002 16.0342 1031 112.899 1335.86 459.127
1102 0 67.3212 16.8892 1137 112.868 1336.39 456.456
1103 0 67.1323 14.598 980 116.184 1337.1 457.787
1104 0 70.285 18.3538 1290 109.812 1337.4 454.453
1105 0 70.0537 16.8871 1183 112.864 1337.95 457.016
1106 0 71.1047 14.0216 997 118.81 1338.61 455.476
1107 0 73.1967 14.5362 1064 121.344 1337.64 457.663
1108 0 75.1682 14.4343 1085 128.314 1337.54 454.406
1109 0 77.126 15.4423 1191 128.712 1336.42 455.254
1110 0 81.1525 14.1832 1151 129.818 1335.71 455.677
1111 0 86.225 16.283 1404 126.543 1333.9 455.568
1112 0 86.3254 14.3411 1238 132.008 1332.52 456.148
1113 1 47.1236 8.06391 380 138.745 1331.76 478.184
1114 0 47.0921 10.66 502 137.882 1330.12 474.661
1115 0 51.2472 14.6154 749 131.467 1328.35 472.029
1116 0 50.0952 12.7357 638 139.024 1326.68 471.008
1117 0 52.1036 14.9702 780 134.879 1324.51 467.923
1118 0 57.2146 13.2309 757 135.238 1323.4 470.181
1119 0 56.1625 16.2564 913 132.853 1322.01 465.861
1120 0 60.2736 15.0646 908 134.541 1320.65 463.067
1121 0 58.135 14.7244 856 136.264 1320.36 465.866
1122 0 61.1358 16.2752 995 134.006 1320.3 463.849
1123 0 65.2034 16.2722 1061 133.579 1320.26 462.401
1124 0 64.2103 13.6894 879 142.331 1319.71 460.677
1125 0 65.1761 13.2871 866 143.262 1319.55 458.838
1126 0 68.1745 13.0401 889 142.147 1320.04 460.811
1127 0 71.1556 15.5012 1103 137.917 1320.43 458.233
1128 0 73.3546 16.0726 1179 137.308 1320.44 456.002
1129 0 75.2099 13.8014 1038 142.125 1321.6 453.702
1130 0 77.1117 13.5129 1042 142.481 1322.59 454.779
1131 0 79.1238 13.5737 1074 143.291 1324.34 451.331
1132 0 81.1269 13.7562 1116 142.502 1325.48 451.265
1133 0 87.2358 16.4497 1435 136.107 1326.81 450.334
1134 0 88.0787 13.8172 1217 142.735 1329.04 447.442
1135 1 50.0627 11.2659 564 145.894 1331.03 468.371
1136 0 54.1144 11.1985 606 140.081 1332.23 472.719
1137 0 50.0431 11.0105 551 146.454 1332.55 468.579
1138 0 53.0478 10.7073 568 145.968 1332.81 469.967
1139 0 57.0638 13.5813 775 140.479 1332.94 469.689
1140 0 58.0795 14.0325 815 141.102 1332.6 469.146
1141 0 61.0617 16.164 987 139.006 1332.05 469.843
1142 0 63.0597 13.2097 833 139.044 1330.91 466.442
1143 0 64.075 14.405 923 136.403 1329.56 466.388
1144 0 66.0808 15.6627 1035 133.552 1328.38 465.797
1145 0 69.1943 15.5938 1079 138.214 1326.79 461.423
1146 0 71.0803 16.9808 1207 132.211 1325.82 460.856
1147 0 71.0412 15.7514 1119 135.629 1324.22 461.206
1148 0 75.1338 16.4107 1233 133.141 1322.17 460.968
1149 0 75.1508 19.2812 1449 133.878 1321.27 456.344
1150 0 78.5219 20.4529 1606 131.318 1319.84 457.978
1151 0 73.2949 16.6451 1220 142.99 1319.57 455.991
1152 0 72.1622 15.8255 1142 150.63 1318.58 452.215
1153 0 79.1673 20.1598 1596 131.829 1316.54 457.535
1154 0 84.2317 20.4674 1724 128.544 1316.7 448.69
1155 0 85.3495 23.3979 1997 123.194 1316.97 446.776
1156 0 90.658 20.4615 1855 128.154 1317.1 448.672
1157 0 89.2628 18.1375 1619 133.968 1317.72 448.212
1158 0 92.1607 26.8878 2478 118.076 1317.53 441.405
1159 1 46.1949 12.9235 597 147.516 1318.42 469.313
1160 0 45.1322 13.4051 605 148.046 1319.48 467.709
1161 0 46.1345 12.1167 559 146.884 1320.9 467.673
1162 0 48.0908 13.2666 638 143.077 1321.65 464.713
1163 0 47.0568 13.3881 630 141.402 1323.08 460.56
1164 0 52.0737 15.2476 794 133.718 1324.93 459.525
1165 0 52.1441 14.5558 759 138.366 1328.53 458.706
1166 0 56.1422 14.0714 790 133.738 1328.98 459.618
1167 0 58.1438 13.3634 777 135.447 1331.05 460.813
1168 0 60.1357 15.0327 904 131.964 1332.37 459.088
1169 0 61.1446 17.4014 1064 129.252 1334.15 461.958
1170 0 62.1857 17.1261 1065 128.89 1334.39 461.869
1171 0 62.1531 14.5447 904 135.26 1334.85 458.993
1172 0 64.2443 14.943 960 135.484 1334.83 460.517
1173 0 64.1014 14.9139 956 138.372 1334.8 459.423
1174 0 65.1514 14.8117 965 137.474 1335.33 464.313
1175 0 66.1532 14.9048 986 139.854 1335.04 463.472
1176 0 65.1397 15.2442 993 140.092 1334.42 464.606
1177 0 68.133 17.2897 1178 136.076 1333.23 464.365
1178 0 68.1943 15.8664 1082 139.364 1332.67 464.269
1179 0 67.1414 16.145 1084 139.833 1331.55 464.41
1180 0 68.1848 16.3086 1112 139.781 1329.86 462.567
1181 0 67.1843 15.4203 1036 150.586 1328.94 463.625
1182 0 71.0557 17.9437 1275 134.19 1328.07 464.316
1183 0 70.1935 16.0983 1130 138.888 1326.04 461.106
1184 0 70.0856 17.1219 1200 137.508 1324.57 458.353
1185 0 70.0807 18.1362 1271 133.972 1322.5 460.112
1186 0 71.1284 15.5353 1105 140.153 1320.74 456.174
1187 0 70.1394 15.9967 1122 138.881 1320.3 456.026
1188 0 71.2477 17.9795 1281 133.201 1320.78 453.555
1189 0 70.0676 17.6544 1237 134.138 1319.72 452.186
1190 0 72.1826 16.0149 1156 134.127 1319.81 453.57
1191 0 70.2341 16.3311 1147 133.012 1320.01 453.323
1192 0 70.1581 15.6504 1098 135.598 1320.87 447.855
1193 0 70.3729 15.4179 1085 134.041 1320.95 449.603
1194 0 71.1297 16.6175 1182 131.239 1321.73 451.162
1195 0 74.3753 16.726 1244 129.383 1323.68 453.916
1196 0 73.1115 17.2887 1264 129.053 1325.72 448.66
1197 0 72.122 16.4859 1189 129.165 1326.92 447.941
1198 0 70.2944 13.1447 924 134.29 1328.59 448.8
