time division length width area intensity CMx CMy
0 0 63.6177 19.9944 1272 110.613 1117.94 453.425
1 0 60.3231 8.50421 513 126.982 1119.22 446.006
2 0 60.3228 8.52083 514 141.125 1120.25 446.169
3 0 66.0836 11.4703 758 122.711 1119.84 443.466
4 0 67.6147 13.8431 936 117.972 1120.16 444.401
5 0 67.3592 11.0304 743 122.645 1119.37 438.565
6 0 73.4621 30.3149 2227 103.367 1118.11 448.714
7 0 73.4621 30.1244 2213 116.17 1117.13 448.784
8 0 79.2314 17.0008 1347 113.143 1117.86 445.652
9 0 79.2392 16.242 1287 119.092 1114.47 440.451
10 0 78.1755 17.1921 1344 118 1114.46 446.638
11 0 80.3936 20.3996 1640 116.294 1113.52 449.194
12 0 86.1586 13.1618 1134 129.315 1112.97 444.664
13 0 87.221 16.0856 1403 126.649 1112.26 440.161
14 1 49.1941 13.9041 684 125.63 1112.88 462.921
15 0 48.0273 10.0151 481 140.493 1111.24 462.187
16 0 52.0936 12.3816 645 142.101 1107.87 457.935
17 0 53.1329 12.1017 643 142.837 1107.63 455.526
18 0 56.2296 16.5038 928 136.139 1106.2 455.353
19 0 56.1793 16.9279 951 135.994 1105.29 451.493
20 0 57.2498 14.3931 824 139.498 1104.97 452.498
21 0 60.2327 15.2409 918 137.502 1104.1 448.363
22 0 64.2688 13.0545 839 139.036 1104.04 448.763
23 0 62.1773 13.8475 861 139.767 1103.64 445.469
24 0 66.2843 12.2653 813 140.838 1103.39 442.948
25 0 68.2936 12.7537 871 139.564 1103.15 440.072
26 0 71.2142 13.7894 982 136.899 1103.83 440.024
27 0 70.2759 9.23502 649 144.516 1104.22 439.304
28 0 75.2667 13.1001 986 139.812 1103.86 435.327
29 0 75.2667 13.0602 983 133.606 1103.85 435.194
30 0 75.2667 13.0469 982 133.138 1103.86 435.219
31 0 83.1881 14.0164 1166 129.85 1108.88 435.074
32 0 87.4455 17.3136 1514 116.749 1109.22 436.993
33 0 86.129 12.7483 1098 116.026 1110.69 435.539
34 1 56.593 16.0267 907 105.084 1112.17 454.224
35 0 50.1553 14.176 711 109.049 1114.03 450.004
36 0 53.5869 17.1684 920 102.451 1116.04 460.391
37 0 56.8898 11.7596 669 103.055 1117.99 460.948
38 0 54.1208 7.40934 401 112.14 1118.98 453.776
39 0 54.4235 19.5136 1062 101.537 1118.23 458.179
40 0 56.605 13.1614 745 106.326 1118.32 455.254
41 0 53.2207 15.3324 816 103.551 1117.89 461.994
42 0 60.2178 18.815 1133 104.38 1116.94 455.089
43 0 64.2282 15.1802 975 108.326 1116.34 454.519
44 0 64.1865 12.4169 797 115.881 1115.52 455.583
45 0 68.9616 10.9916 758 110.417 1114.6 462.71
46 0 68.2334 15.1685 1035 113.672 1113.08 454.527
47 0 68.2334 14.9047 1017 121.945 1112.1 454.428
48 0 71.1343 13.3128 947 126.933 1110.94 455.538
49 0 72.2026 12.7004 917 132.969 1108.66 450.686
50 0 74.2508 13.7103 1018 136.734 1107.13 450.092
51 1 44.0489 10.8516 478 137.458 1106.72 467.766
52 0 41.0657 11.1529 458 140.297 1104.81 466.247
53 0 41.0657 11.1772 459 140.662 1102.82 466.274
54 0 46.022 12.2333 563 132.785 1103.95 462.645
55 0 45.0901 12.6414 570 132.628 1103.09 462.544
56 0 46.0533 9.33702 430 137.047 1101.91 461.526
57 0 49.5341 11.8908 589 135.239 1101.65 459.065
58 0 52.3147 14.8142 775 129.768 1101.54 455.467
59 0 53.0953 13.5417 719 137.099 1101.37 454.472
60 0 54.0909 12.9227 699 138.276 1102.31 454.937
61 0 56.0483 14.9336 837 138.188 1102.57 452.625
62 0 57.1004 11.7863 673 144.455 1102.82 451.963
63 0 58.0868 11.9649 695 142.47 1104.14 449.862
64 0 61.08 12.3772 756 136.889 1105.96 448.888
65 0 64.1173 15.5184 995 127.856 1107.31 449.457
66 0 69.4112 16.8849 1172 119.268 1110.25 448.401
67 0 68.0365 16.3001 1109 118.034 1113.04 448.782
68 0 70.2294 20.8033 1461 113.626 1113.65 446.259
69 0 73.39 14.3616 1054 119.439 1115.44 446.408
70 0 77.125 16.0648 1239 116.184 1116.02 447.582
71 0 81.2218 17.3845 1412 113.191 1117.16 449.074
72 1 45.1025 11.0415 498 114.163 1117.9 464.649
73 0 41.0288 9.67614 397 119.715 1117.56 462.383
74 0 45.1168 11.3705 513 118.06 1116.79 463.587
75 0 43.1228 9.83239 424 123.469 1116.75 461.759
76 0 49.2162 15.4827 762 118.343 1115.56 465.22
77 0 48.2713 11.974 578 133.927 1114.69 464.931
78 0 50.28 17.0247 856 124.3 1114.19 462.562
79 0 51.1427 16.7375 856 125.845 1113.62 463.564
80 0 52.2398 14.5292 759 129.997 1112.13 463.781
81 0 52.2177 14.5162 758 134.365 1111.14 463.785
82 0 56.3402 18.8498 1062 125.497 1109.4 461.992
83 0 55.2811 14.363 794 140.898 1108.16 460.273
84 0 58.2793 15.9748 931 134.635 1106.4 461.377
85 0 60.1766 14.1417 851 137.519 1105.29 460.167
86 0 60.156 14.0967 848 142.36 1103.72 459.684
87 0 62.3433 14.4683 902 141.401 1102.56 454.738
88 0 66.2938 17.4828 1159 135.854 1102.04 454.185
89 0 67.189 17.3243 1164 135.475 1101.35 452.42
90 0 69.3607 14.5616 1010 140.921 1100.28 450.197
91 0 71.2914 15.3455 1094 137.845 1100.38 450.993
92 0 73.2614 14.7008 1077 140.032 1100.45 449.474
93 0 75.5403 13.463 1017 143.081 1099.64 445.659
94 0 77.2579 14.0568 1086 142.008 1100.23 446.499
95 0 79.1986 12.98 1028 150.185 1100.09 443.518
96 0 82.349 17.2437 1420 134.706 1100.28 444.068
97 1 47.0699 10.8562 511 145.368 1102.6 459.464
98 0 50.2026 14.0033 703 132.613 1104.77 455.286
99 0 50.2885 16.8627 848 129.098 1107.04 456.121
100 0 54.245 15.1719 823 128.548 1108.6 458.047
101 0 58.3099 15.7606 919 123.102 1111.11 456.128
102 0 60.5005 24.5618 1486 109.934 1112.01 456.436
103 0 57.2299 15.1669 868 122.192 1112.94 457.212
104 0 58.3311 17.5892 1026 118.422 1114.59 455.228
105 0 61.1189 21.3355 1304 114.594 1114.32 459.568
106 0 67.6473 23.6077 1597 108.909 1114.71 464.335
107 0 69.2187 15.4582 1070 116.15 1115.46 462.511
108 0 68.1308 12.1678 829 126.101 1114.49 458.373
109 0 69.3525 15.6591 1086 122.598 1113.64 458.324
110 0 72.271 16.4658 1190 127.799 1113.43 455.908
111 0 72.3423 14.9843 1084 137.291 1112 456.06
112 0 74.379 21.0274 1564 128.946 1111.54 459.369
113 0 74.2695 14.5551 1081 147.105 1110.12 453.453
114 0 74.2695 14.5551 1081 167.455 1108.1 453.34
115 0 74.2574 14.5844 1083 166.867 1106.09 453.308
116 0 85.3314 19.9458 1702 140.35 1106.62 451.754
117 0 85.26 15.4234 1315 152.6 1105.05 448.224
118 0 87.1443 16.1915 1411 156.926 1103.34 444.724
119 0 87.1443 16.1686 1409 160.664 1100.33 444.73
120 1 45.021 9.81765 442 158.69 1100.23 468.667
121 0 47.0318 13.5866 639 152.275 1099.24 466.692
122 0 51.329 14.183 728 146.926 1098.74 465.273
123 0 49.2569 12.1607 599 155.269 1099.61 458.913
124 0 50.0779 11.4621 574 153.676 1096.53 457.378
125 0 50.0779 11.4222 572 145.664 1095.51 457.388
126 0 54.1543 13.9416 755 148.558 1096.02 454.585
127 0 55.1719 14.7901 816 144.821 1096.25 457.261
128 0 59.204 16.1307 955 140.083 1096.29 454.365
129 0 58.0776 13.6369 792 146.375 1097.14 451.521
130 0 63.1305 14.9531 944 139.204 1097.65 453.306
131 0 64.2795 15.277 982 137.966 1099.65 451.384
132 0 68.1984 16.2321 1107 122.464 1100.78 454.272
133 0 65.064 12.48 812 134.485 1103.53 449.516
134 0 74.5457 18.3243 1366 115.996 1105.64 453.083
135 0 73.1505 12.1804 891 122.443 1106.97 448.937
136 0 77.4614 11.7607 911 120.327 1108.69 451.541
137 0 80.246 17.06 1369 114.246 1109.54 452.01
138 0 84.176 16.9526 1427 114.25 1110.96 448.045
139 1 46.2808 13.3749 619 114.793 1111.64 462.475
140 0 42.4051 6.76805 287 123.098 1111.86 466.857
141 0 49.4445 12.5798 622 117.029 1112.02 465.249
142 0 52.3627 23.7765 1245 108.529 1111.68 458.66
143 0 50.0635 16.6788 835 121.428 1108.84 463.262
144 0 51.1727 13.4642 689 127.761 1107.94 466.046
145 0 50.1916 13.5879 682 138.355 1106.95 466.091
146 0 55.0371 18.0787 995 128.678 1106.96 463.647
147 0 56.1858 13.0638 734 137.703 1105.85 463.022
148 0 58.2649 14.005 816 135.83 1104.65 463.463
149 0 61.2874 14.7339 903 136.649 1103.27 461.076
150 0 63.1314 16.236 1025 136.156 1101.31 460.211
151 0 63.4058 15.803 1002 137.377 1100.77 461.106
152 0 66.2623 15.8763 1052 139.305 1098.96 457.491
153 0 67.3716 14.2939 963 143.139 1098.32 455.255
154 0 70.5814 14.6214 1032 141.476 1096.84 451.72
155 0 73.407 15.6797 1151 143.575 1096.68 450.944
156 0 74.4998 15.3692 1145 142.458 1095.91 448.774
157 0 78.3718 14.5333 1139 145.449 1095.05 445.978
158 0 80.3554 14.859 1194 145.873 1094.22 441.343
159 0 84.5201 16.6824 1410 140.843 1094.63 443.226
160 0 86.3374 18.3814 1587 138.47 1094.57 438.851
161 0 88.4062 14.8632 1314 145.991 1094.62 437.2
162 0 92.2456 17.28 1594 133.821 1095.71 439.286
163 0 93.3475 17.0867 1595 134.804 1095.86 432.633
164 0 96.2222 15.0797 1451 136.579 1097.6 433.817
165 1 52.0634 13.6948 713 131.088 1100.66 455.966
166 0 54.1214 9.51564 515 138.678 1101.99 455.891
167 0 61.1437 12.2008 746 133.158 1104.77 456.307
168 0 61.2241 13.4098 821 135.043 1106.2 453.548
169 0 62.1514 14.5451 904 123.958 1106.97 455.739
170 0 62.1341 12.1672 756 129.104 1105.4 456.282
171 0 64.2126 16.3986 1053 120.791 1107.41 458.633
172 0 66.3456 14.545 965 124.342 1107.02 459.182
173 0 70.3946 21.0386 1481 116.243 1107.81 458.08
174 0 70.1743 14.4782 1016 127.558 1108.13 457.585
175 0 70.1233 10.8095 758 135.881 1108.03 458.055
176 0 73.152 19.5347 1429 127.087 1107.23 456.3
177 0 73.0677 14.466 1057 138.426 1106.28 455.454
178 0 79.2275 14.8686 1178 137.42 1106.55 454.312
179 0 79.1029 15.385 1217 138.407 1104.66 455.029
180 0 80.1281 13.4909 1081 148.445 1103.43 457.401
181 0 84.1252 16.1783 1361 139.508 1102.15 453.366
182 0 86.4431 11.5683 1000 147.074 1100.81 456.214
183 0 87.3049 13.0577 1140 150.543 1100.05 450.279
184 1 46.0719 12.4154 572 147.222 1098.7 470.804
185 0 48.0794 10.1707 489 150.64 1097.14 470.386
186 0 51.1063 12.3468 631 147.116 1095.77 468.908
187 0 52.021 10.3035 536 150.787 1094.83 464.224
188 0 54.1359 13.7986 747 141.325 1094.34 462.174
189 0 57.1261 14.0916 805 139.265 1094.13 462.682
190 0 57.1129 12.4841 713 142.454 1093.36 461.992
191 0 60.0953 15.5087 932 135.852 1092.76 460.016
192 0 59.0755 14.1006 833 142.564 1092.16 453.77
193 0 64.1037 13.9149 892 141.031 1091.48 455.185
194 0 64.1357 10.4466 670 146.128 1092.62 455.41
195 0 65.1823 10.8005 704 149.253 1092.68 453.284
196 0 67.1419 11.2448 755 149.212 1093.32 451.522
197 0 70.2026 14.2018 997 143.864 1094.7 447.399
198 0 71.112 12.642 899 148.291 1095.62 445.771
199 0 75.1385 12.9893 976 145.711 1097.12 445.165
200 0 77.2807 13.2763 1026 144.029 1098.64 445.196
201 0 78.0833 14.8944 1163 138.762 1101.14 445.206
202 0 81.1181 14.0536 1140 141.675 1102.54 441.173
203 0 87.1097 17.7133 1543 132.609 1104.97 444.75
204 1 47.0783 13.1908 621 140.892 1105.46 461.444
205 0 48.0514 13.215 635 138.6 1106.65 463.23
206 0 51.147 11.2421 575 138.736 1108.11 463.783
207 0 51.1233 12.3232 630 139.987 1110.3 461.514
208 0 55.0556 14.6579 807 136.833 1109.51 463.33
209 0 55.0808 14.6512 807 139.884 1109.24 460.934
210 0 56.0313 15.2236 853 137.703 1109.28 463.594
211 0 57.0975 15.0795 861 141.496 1107.88 464.621
212 0 59.0728 14.5245 858 143.55 1107.39 465.747
213 0 59.0655 13.1888 779 141.34 1106.46 466.7
214 0 61.1098 13.2221 808 148.126 1105.08 465.546
215 0 67.1653 13.3551 897 147.658 1103.83 465.096
216 0 65.046 13.6826 890 149.863 1102.49 463.321
217 0 67.0952 13.8758 931 152.825 1101.01 458.048
218 0 71.0872 15.6709 1114 147.093 1099.41 459.966
219 0 71.0378 13.5843 965 152.551 1097.85 457.662
220 0 75.0677 13.5478 1017 151.699 1096.31 457.392
221 0 78.1769 15.951 1247 148.61 1094.44 451.557
222 1 42.0641 9.34289 393 155.461 1093.33 471.606
223 0 45.0805 11.9564 539 152.529 1091.02 467.31
224 0 46.0349 8.79768 405 157.899 1090.47 467.78
225 0 49.1092 12.6249 620 149.606 1089.89 463.861
226 0 49.0748 11.35 557 153.018 1090.16 463.013
227 0 50.0701 14.5796 730 148.278 1092.74 459.611
228 0 50.0564 12.5259 627 151.828 1093.61 458.356
229 0 53.0465 14.3082 759 148.094 1094.83 459.111
230 0 52.1195 12.7783 666 149.712 1095.82 459.329
231 0 56.066 13.056 732 143.529 1097.38 458.832
232 0 57.0422 16.0232 914 136.39 1098.79 456.56
233 0 58.0768 14.6358 850 137.973 1100.55 456.153
234 0 63.1681 17.9679 1135 131.704 1102.39 458.089
235 0 63.0802 12.9993 820 139.59 1104.47 455.112
236 0 62.075 13.6931 850 143.386 1106.05 455.006
237 0 67.0801 14.2218 954 135.725 1107.75 454.974
238 0 72.3107 16.595 1200 128.92 1108.42 457.788
239 0 70.3852 14.2217 1001 134.688 1109.84 456.585
240 0 75.197 16.6097 1249 130.089 1110.19 455.03
241 0 76.2492 13.9542 1064 136.353 1109.25 457.168
242 0 77.1581 14.4897 1118 137.317 1108.98 453.634
243 1 40.1531 10.46 420 140.236 1108.45 472.952
244 0 42.0227 11.7317 493 139.099 1107.9 474.02
245 0 43.1398 10.9412 472 140.331 1107.16 475.305
246 0 45.1827 11.3096 511 140.194 1105.64 473.718
247 0 45.2033 14.7113 665 137.516 1104.75 470.989
248 0 48.3079 12.6687 612 140.894 1103.75 472.026
249 0 48.0506 15.8583 762 133.566 1100.68 472.074
250 0 46.1136 13.315 614 141.135 1101.07 469.822
251 0 49.0805 14.3642 705 137.603 1098.9 469.857
252 0 49.0711 11.9622 587 140.63 1097.04 471.54
253 0 52.1402 11.8143 616 141.221 1096.05 466.068
254 0 54.0768 11.761 636 141.542 1094.75 464.124
255 0 54.0649 13.4653 728 136.315 1093.58 466.416
256 0 58.2179 13.2605 772 136.925 1092.71 462.286
257 0 56.1143 11.8152 663 140.979 1093.01 459.808
258 0 61.1363 13.9688 854 133.878 1091.92 458.516
259 0 62.0513 13.9562 866 136.375 1091.61 455.191
260 0 65.1546 14.0128 913 133.794 1091.51 457.796
261 0 65.1035 12.1192 789 138.387 1090.97 450.618
262 0 67.4107 14.2411 960 134.88 1092.04 453.205
263 0 69.4543 14.3692 998 112.974 1093.08 452.461
264 0 73.1441 15.2576 1116 132.369 1093.21 446.739
265 1 37.1352 9.58658 356 139.233 1094.35 464.809
266 0 39.2079 11.4263 448 135.388 1096.83 463.583
267 0 39.2079 11.4008 447 116.758 1098.81 463.575
268 0 41.5226 14.3295 595 123.232 1101.07 457.259
269 0 42.2355 14.7033 621 118.771 1102.29 459.554
270 0 44.2296 11.7116 518 108.454 1103.39 460.811
271 0 46.1015 13.1015 604 125.245 1107.04 463.796
272 0 45.0326 11.0808 499 131.433 1108.04 464.77
273 0 48.1265 12.7373 613 129.608 1108.08 465.724
274 0 51.1076 12.8748 658 125.745 1108.66 465.356
275 0 52.1085 15.698 818 123.545 1108.37 465.116
276 0 56.0953 12.6927 712 127.893 1108.2 466.549
277 0 58.3298 16.0981 939 122.304 1108.22 467.067
278 0 59.2287 14.3174 848 129.719 1107.55 466.919
279 0 57.0974 12.2072 697 138.102 1106 466.389
280 0 60.0979 12.3133 740 139.574 1104.46 464.043
281 0 63.128 13.734 867 137.546 1104.12 462.163
282 0 63.128 13.4805 851 142.767 1103.1 462.274
283 0 67.1377 13.9862 939 137.279 1101.8 461.059
284 1 33.0164 12.8118 423 139.891 1100.57 476.116
285 0 35.1698 11.2881 397 142.317 1098.53 475.212
286 0 35.1965 11.2227 395 142.16 1097.53 475.218
287 0 40.0736 12.7266 510 138.049 1096.34 474.61
288 0 41.2012 13.9316 574 137.704 1095.97 472.256
289 0 43.1691 11.3739 491 144.454 1094.78 470.063
290 0 42.1051 12.8963 543 142.326 1094.17 467.976
291 0 44.1445 12.006 530 146.675 1092.4 466.842
292 0 46.2009 18.6793 863 129.375 1090.61 466.747
293 0 46.0218 13.7978 635 140.03 1092.77 465.517
294 0 49.0883 15.1767 745 135.903 1092.19 463.505
295 0 50.0306 14.4312 722 136.411 1093.48 462.623
296 0 54.2005 13.3209 722 136.711 1093.81 461.978
297 0 54.2864 14.8472 806 135.929 1095.23 459.763
298 0 54.1507 18.19 985 129.915 1096.69 457.549
299 0 56.1238 16.3389 917 132.51 1098.26 456.303
300 0 57.0737 14.6302 835 136.545 1099.15 456.883
301 0 59.0811 15.9442 942 133.975 1101.02 454.815
302 0 60.1375 13.6188 819 136.923 1103.11 457.957
303 0 64.1273 15.2509 978 131.515 1105.19 457.698
304 0 67.1566 17.288 1161 127.764 1106.4 456.602
305 0 65.1925 16.1982 1056 132.824 1107.33 456.837
306 0 69.1205 15.7262 1087 130.312 1107.66 458.223
307 0 69.1205 15.7262 1087 131.708 1107.64 458.166
308 1 35.0429 11.5573 405 138.363 1108.44 473.963
309 0 38.0424 10.5934 403 139.605 1108.11 475.563
310 0 40.1099 13.5129 542 138.242 1107.39 473.78
311 0 40.0539 12.2335 490 142.88 1107.35 473.798
312 0 43.0466 12.1961 525 140.579 1106.83 476.522
313 0 43.0427 13.8003 594 141.111 1104.82 474.961
314 0 44.1247 13.1899 582 146.818 1102.22 467.361
315 0 46.0293 15.9029 732 138.638 1100.8 472.693
316 0 49.0685 13.8174 678 141.848 1099.65 472.658
317 0 49.1317 13.6165 669 143.43 1097.79 471.218
318 0 51.131 15.3723 786 140.197 1096.24 469.061
319 0 51.0812 16.0333 819 140.376 1095.02 467.305
320 0 55.2192 16.0814 888 136.716 1093.87 467.15
321 0 58.1197 15.2616 887 134.971 1095.05 465.692
322 0 59.222 20.668 1224 126.203 1094 463.829
323 0 58.1037 13.321 774 143.067 1093.54 460.407
324 0 61.1331 15.4744 946 137.488 1093 459.191
325 0 64.1384 13.9386 894 139.766 1092.59 456.726
326 0 70.2403 21.5688 1515 121.782 1092.77 457.474
327 0 70.1726 15.3051 1074 134.97 1092.6 453.946
328 0 69.1738 13.2131 914 138.352 1092.66 452.511
329 0 74.2443 15.247 1132 132.637 1093.64 446.705
330 0 76.2968 13.0019 992 136.64 1094.66 449.781
331 0 83.146 17.4031 1447 128.518 1096.55 451.108
332 1 37.1413 11.3082 420 140.107 1098.84 465.743
333 0 41.0496 10.8162 444 140.205 1099.3 464.842
334 0 49.1635 12.8551 632 128.992 1102.37 466.231
335 0 44.065 11.8235 521 135.242 1103.47 464.898
336 0 47.0532 15.3018 720 126.925 1105.06 463.874
337 0 50.0408 19.3642 969 118.947 1105.23 464.857
338 0 52.2137 16.1069 841 127.715 1107.57 465.883
339 0 52.1267 12.4121 647 135.624 1107.6 465.879
340 0 55.1455 12.8025 706 133.53 1107.77 467.218
341 0 55.1455 13.4916 744 142.793 1107.81 467.507
342 0 55.1566 14.3047 789 136.72 1107.59 465.853
343 0 61.0773 16.2417 992 132.6 1107.25 466.624
344 0 60.095 15.4089 926 136.618 1106.36 460.721
345 0 60.095 15.3923 925 141.292 1106.37 460.667
346 0 65.0479 15.5424 1011 137.079 1104.56 463.871
347 0 68.123 15.7362 1072 138.257 1103.51 462.147
348 0 67.1285 15.0458 1010 140.931 1101.41 461.605
349 0 72.1687 15.7963 1140 139.027 1100.83 463.486
350 0 71.388 13.7978 985 144.994 1098.62 461.062
351 0 73.1929 14.1817 1038 144.421 1097.2 458.236
352 0 77.5493 15.6803 1216 141.044 1095.94 453.745
353 0 83.603 20.2505 1693 131.937 1094.78 454.454
354 0 83.5012 16.2632 1358 143.386 1093.92 453.891
355 0 85.388 15.1778 1296 146.754 1093.26 448.668
356 1 39.4442 12.0677 476 147.71 1093.08 468.966
357 0 45.2549 10.8054 489 147.818 1093.33 468.796
358 0 46.5951 10.4517 487 147.561 1092.51 467.253
359 0 49.3371 14.2286 702 138.943 1091.9 464.413
360 0 48.4981 12.9696 629 143.545 1092.1 461.094
361 0 53.5569 13.2196 708 139.031 1092.35 460.797
362 0 54.326 13.916 756 137.279 1092.03 460.952
363 0 57.1015 16.4969 942 134.951 1094.65 457.279
364 0 57.1759 15.1987 869 136.446 1095 459.17
365 0 58.3095 15.1948 886 138.965 1096.83 455.264
366 0 61.3986 13.8765 852 139.687 1097.74 454.275
367 0 64.5735 15.6101 1008 135.867 1100.26 453.12
368 0 65.4648 13.5951 890 141.588 1101.77 452.928
369 0 69.6045 16.6943 1162 134.387 1103.9 453.145
370 0 70.6803 17.0345 1204 136.698 1105.5 452.367
371 0 70.4689 14.1197 995 142.967 1106.24 451.135
372 0 76.6665 15.1174 1159 140.38 1107.08 453.014
373 0 82.7456 15.8679 1313 139.431 1107.01 451.776
374 0 81.5707 14.9686 1221 142.731 1107.09 452.145
375 0 83.434 15.8209 1320 146.587 1107.08 448.85
376 0 85.4587 14.6035 1248 149.095 1106.55 449.155
377 0 89.6536 15.426 1383 149.146 1106.07 448.068
378 0 91.482 14.604 1336 152.246 1104.92 450.04
379 1 54.9088 14.5878 801 139.905 1105.08 472.787
380 0 54.9129 14.5867 801 146.141 1105.09 472.788
381 0 51.4542 10.1449 522 154.345 1102.93 472.682
382 0 54.2182 15.4007 835 145.592 1101.5 469.624
383 0 56.2403 12.8555 723 150.365 1099.93 469.772
384 0 55.1366 12.5688 693 155.973 1098.19 464.361
385 0 57.1909 12.3971 709 155.186 1097.27 466.073
386 0 62.4179 14.3388 895 150.423 1095.62 462.652
387 0 65.29 14.0144 915 152.16 1094.99 461.943
388 0 67.1295 15.7308 1056 147.396 1094.59 463.113
389 0 71.3649 15.2596 1089 146.579 1093.83 459.567
390 0 71.1899 12.9934 925 155.458 1092.98 455.297
391 0 75.1943 16.1714 1216 146.095 1092.38 454.044
392 0 77.1492 15.1136 1166 150.206 1092.38 451.376
393 0 76.3273 13.4421 1026 155.447 1091.95 448.247
394 0 82.1365 17.5318 1440 143.424 1092.59 446.21
395 0 83.3394 14.435 1203 152.023 1092.79 445.51
396 0 85.3849 15.8693 1355 147.499 1093.28 444.11
397 0 86.4727 14.5248 1256 150.658 1094.54 443.588
398 1 47.085 14.4632 681 141.822 1095.89 462.204
399 0 46.0725 11.2649 519 146.17 1097.32 462.715
400 0 49.307 13.061 644 143.2 1099.09 457.888
401 0 52.5195 12.7762 671 144.765 1100.26 456
402 0 53.3472 13.3465 712 141.744 1102.3 455.239
403 0 55.328 13.2302 732 139.332 1103.55 455.541
404 0 55.0688 13.7283 756 138.788 1106 460.106
405 0 60.0811 13.5483 814 137.619 1106.83 460.36
406 0 60.0811 13.5816 816 136.408 1106.83 460.261
407 0 64.1083 15.0058 962 137.409 1107.31 461.031
408 0 64.2056 13.0518 838 143.723 1107.06 457.32
409 0 67.1361 14.1802 952 138.636 1107.51 459.755
410 0 70.1793 15.9164 1117 137.671 1106.69 460.379
411 0 70.1321 14.4869 1016 143.413 1105.78 458.702
412 0 72.0855 14.6631 1057 146.386 1104.38 454.9
413 0 77.1975 15.4668 1194 143.08 1103.58 457.798
414 1 44.132 10.2193 451 145.789 1102.37 474.785
415 0 44.0593 9.44183 416 148.019 1102.25 473.058
416 0 42.0764 9.53028 401 149.613 1100.88 473.187
417 0 47.1176 10.0812 475 147.042 1099.26 473.804
418 0 49.1272 11.0326 542 142.635 1097.72 474.734
419 0 49.114 12.5219 615 143.489 1096.07 470.106
420 0 48.1395 10.8643 523 148.65 1094.92 466.411
421 0 51.0725 12.1005 618 142.85 1093.58 467.773
422 0 53.1393 10.3313 549 142.379 1093.86 466.295
423 0 54.2572 12.6435 686 140.216 1093.71 461.621
424 0 56.1231 13.5238 759 137.908 1093.42 461.729
425 0 58.081 12.9819 754 138.788 1093.17 457.989
426 0 60.1049 13.4265 807 137.939 1092.53 456.628
427 0 62.2978 14.1418 881 136.277 1092.86 456.972
428 0 62.2325 13.2567 825 139.596 1092.8 451.785
429 0 66.4091 14.3655 954 136.03 1093.98 454.243
430 0 68.1741 12.4534 849 143.372 1094.96 449.788
431 0 69.1753 12.5623 869 142.334 1096.48 451.483
432 0 73.2828 12.213 895 142.934 1098.03 448.874
433 1 41.0811 10.1507 417 141.209 1100.02 465.079
434 0 43.0392 9.41003 405 141.625 1102.37 464.296
435 0 41.0504 9.89028 406 141.017 1104.42 464.33
436 0 49.0645 11.5766 568 135.567 1105.06 462.764
437 0 47.0512 11.1368 524 133.647 1108.12 465.437
438 0 47.2012 13.8132 652 129.59 1106.96 466.218
439 0 48.1302 9.70284 467 132.927 1107.81 464.724
440 0 52.0367 11.9147 620 126.542 1108.03 468.077
441 0 53.1441 12.3062 654 135.43 1105.72 467.824
442 0 53.1779 11.8282 629 137.55 1105.41 466.787
443 0 56.1132 13.847 777 134.412 1104.9 465.605
444 0 58.1615 13.6516 794 136.092 1103.35 465.446
445 0 59.1051 11.3527 671 141.914 1102.88 464.285
446 0 63.0557 11.6088 732 140.395 1101.89 464.592
447 0 63.1049 13.5489 855 139.13 1099.86 461.733
448 0 67.0646 13.3453 895 137.943 1099.08 460.846
449 0 68.0782 12.3975 844 140.233 1097.97 461.395
450 0 71.0511 15.3551 1091 134.393 1096.59 458.629
451 0 75.0566 18.1729 1364 130.416 1095.87 454.015
452 0 73.333 14.0455 1030 140.564 1094.19 451.851
453 0 78.1917 14.7202 1151 137.316 1093.05 455.277
454 0 80.0853 12.0621 966 143.899 1091.63 449.305
455 0 83.2238 12.4844 1039 142.842 1091.2 450.929
456 0 85.1895 15.1779 1293 138.186 1090.06 444.646
457 1 46.0453 7.66636 353 142.382 1089.69 468.278
458 0 44.0693 11.255 496 135.103 1091.21 468.891
459 0 45.0525 10.7208 483 135.027 1090.11 468.28
460 0 48.0728 11.8778 571 138.282 1089.94 461.914
461 0 49.0492 9.88803 485 138.99 1089.82 460.524
462 0 52.1784 13.5497 707 129.921 1092.57 461.006
463 0 56.166 16.1129 905 123.445 1093.32 457.948
464 0 56.099 11.9254 669 132.012 1096.45 456.365
465 0 56.0717 10.5401 591 135.547 1097.94 456.728
466 0 57.081 11.8078 674 134.42 1098.35 459.119
467 0 59.1516 14.6742 868 126.455 1101.4 455.028
468 0 60.1597 11.1204 669 135.945 1103.45 456.954
469 0 59.2047 11.6038 687 134.79 1105.91 456.191
470 0 65.2027 13.205 861 131.085 1106.48 456.581
471 0 67.1392 13.8518 930 130.574 1107.74 457.599
472 0 71.2641 14.8883 1061 128.907 1108.12 458.833
473 0 70.1707 13.5954 954 133.787 1108.21 458.55
474 0 72.2452 16.5547 1196 130.158 1108.4 453.13
475 0 74.1603 14.3473 1064 140.61 1108.11 455.287
476 0 76.2585 14.5426 1109 139.508 1107.47 454.727
477 0 79.089 14.8693 1176 139.821 1107.03 457.173
478 0 83.15 13.6861 1138 144.976 1106.77 455.192
479 0 85.1336 16.1393 1374 142.155 1105.75 454.409
480 0 88.0949 18.0374 1589 138.76 1104.64 454.765
481 0 90.0978 15.9937 1441 141.704 1103.1 454.265
482 1 47.0265 12.0783 568 146.827 1102.2 474.502
483 0 50.1429 11.9259 598 149.838 1097.09 471.672
484 0 50.2118 15.5342 780 145.367 1096.25 468.105
485 0 52.3173 12.558 657 142.84 1095.69 465.1
486 0 52.3067 11.3943 596 147.508 1093.83 462.604
487 0 53.0906 13.6371 724 144.675 1092.36 465.43
488 0 56.0817 14.0866 790 143.46 1091.43 463.876
489 0 58.1636 15.7315 915 137.2 1090.94 464.223
490 0 57.1232 15.5804 890 139.778 1090.7 461.211
491 0 58.0886 13.6171 791 143.334 1090.63 459.654
492 0 61.085 15.5521 950 137.173 1090.53 458.813
493 0 64.119 18.1225 1162 129.691 1090.91 457.9
494 0 64.0501 14.8165 949 135.544 1090.74 457.653
495 0 68.0951 15.3902 1048 134.394 1091.58 455.573
496 0 69.2096 14.1165 977 138.475 1092.01 452.596
497 0 71.2406 17.2093 1226 131.631 1093.7 451.53
498 0 73.0472 13.854 1012 137.159 1095.52 449.457
499 0 76.1246 13.9771 1064 134.145 1097.67 448.576
500 0 78.4704 13.1897 1035 133.645 1100.16 450.573
501 0 84.4445 15.6197 1319 129.425 1101.34 449.029
502 1 40.0919 10.5258 422 137.69 1102.26 465.507
503 0 44.1011 12.0632 532 131.543 1105.54 467.921
504 0 52.6161 12.0115 632 126.859 1108.1 469.071
505 0 49.1986 13.1711 648 129.762 1108.61 469.105
506 0 49.0575 15.3901 755 126.879 1108.79 467.195
507 0 49.0597 11.5981 569 137.482 1105.57 467.323
508 0 52.1321 14.1372 737 130.706 1106.37 468.581
509 0 55.1141 16.8922 931 126.822 1106.44 467.633
510 0 56.0602 14.5914 818 131.993 1106.02 468.576
511 0 54.0915 12.1831 659 138.992 1104.66 470.577
512 0 56.2777 13.6289 767 137.568 1103.76 463.688
513 0 60.1137 16.4688 990 131.195 1102.72 467.713
514 0 61.1594 14.3396 877 135.546 1101.34 466.065
515 0 61.1838 14.0233 858 138.22 1100.18 462.253
516 0 64.0569 14.5027 929 136.243 1098.34 463.769
517 0 65.0878 13.3666 870 140.191 1096.84 460.002
518 0 68.2517 11.8239 807 137.898 1097.03 457.071
519 0 73.1032 14.3222 1047 132.947 1095.28 457.729
520 0 72.1681 12.7619 921 137.25 1094.3 453.27
521 0 77.1667 13.7106 1058 133.825 1093.99 452.66
522 0 80.1427 16.0963 1290 126.009 1093.39 454.514
523 0 82.3459 14.5848 1201 130.614 1093.1 449.454
524 0 84.294 14.9002 1256 130.114 1092.12 444.081
525 0 89.2628 17.2076 1536 122.9 1092.53 449.817
526 1 43.0767 9.0304 389 135.275 1093.12 466.596
527 0 48.207 12.633 609 129.21 1092.89 462.509
528 0 48.2061 14.0646 678 127.153 1094.09 460.232
529 0 52.4836 12.785 671 126.006 1094.89 462.107
530 0 52.3825 12.5042 655 128.229 1096.23 459.368
531 0 55.4315 11.9607 663 127.109 1097.82 459.143
532 0 55.3223 15.943 882 121.437 1098.88 456.853
533 0 59.143 13.442 795 127.036 1101.12 458.555
534 0 62.2224 16.2803 1013 120.766 1103.05 457.933
535 0 61.2601 12.7979 784 128.573 1104.37 456.203
536 0 65.255 13.0105 849 126.644 1105.94 457.392
537 0 67.289 17.2093 1158 121.059 1106.96 452.717
538 0 69.4202 15.8023 1097 122.932 1107.07 454.644
539 0 69.1253 13.4104 927 125.825 1107.88 457.749
540 0 72.1846 13.2438 956 128.054 1108.49 455.909
541 0 74.1177 14.477 1073 132.866 1108.27 453.277
542 0 78.1818 15.4895 1211 130.012 1107.63 454.88
543 0 80.2257 15.0326 1206 132.171 1107.52 452.745
544 0 82.2328 12.793 1052 137.914 1106.3 451.644
545 0 86.3681 15.8044 1365 133.589 1105.18 452.227
546 0 87.2941 14.5829 1273 138.236 1103.76 447.293
547 0 90.2598 12.8518 1160 140.93 1102.47 449.349
548 1 48.0797 8.29873 399 145.108 1101.74 467.719
549 0 51.2586 9.57888 491 140.58 1100.97 468.642
550 0 52.26 13.8921 726 134.025 1099.59 464.613
551 0 56.2529 12.0527 678 135.757 1098.75 464.851
552 0 56.3595 12.7396 718 135.649 1097.29 463.572
553 0 57.2849 11.8705 680 138.657 1095.71 460.413
554 0 59.2046 13.6307 807 134.97 1094.91 458.72
555 0 64.2108 14.3278 920 132.784 1094.85 458.63
556 0 66.1729 15.1875 1005 130.251 1094.19 456.231
557 0 66.2742 14.3344 950 134.807 1093.63 453.897
558 0 68.2868 15.1127 1032 132.803 1093.67 449.808
559 0 72.1784 14.1178 1019 133.361 1093.15 450.083
560 0 74.242 16.2846 1209 130.469 1093.09 447.537
561 0 76.1735 12.7735 973 137.745 1093.75 446.804
562 0 77.2372 13.6722 1056 139.092 1094.89 445.294
563 0 78.3011 12.8606 1007 139.835 1095.78 443.285
564 0 83.3735 14.573 1215 134.895 1097.21 440.823
565 0 88.2665 15.7364 1389 131.554 1099.03 442.526
566 0 89.3854 14.2193 1271 136.139 1100.43 439.136
567 0 90.578 12.641 1145 138.311 1102.62 437.566
568 0 94.2914 14.7628 1392 133.796 1104.54 439.458
569 0 96.1718 11.2715 1084 140.461 1106.86 439.806
570 0 100.47 15.4474 1552 133.459 1107.44 432.628
571 1 60.0812 11.6343 699 131.76 1108.78 461.031
572 0 62.0868 14.4958 900 129.237 1109.38 457.848
573 0 68.4447 16.0568 1099 122.936 1109.8 459.814
574 0 65.0944 18.9724 1235 116.3 1108.45 466.683
575 0 68.1608 14.9059 1016 127.988 1108.25 460.6
576 0 69.1712 13.0835 905 134.24 1107.55 463.057
577 0 70.1966 13.2628 931 136.868 1107.18 459.94
578 0 72.198 13.4491 971 136.59 1106.69 463.425
579 0 75.169 13.5428 1018 138.627 1105.24 456.62
580 0 80.105 15.5046 1242 134.023 1104.32 458.482
581 0 82.1401 14.6457 1203 135.57 1103.74 456.395
582 0 83.3141 14.6674 1222 138.998 1102.28 453.126
583 0 86.3683 16.8117 1452 134.594 1100.9 453.855
584 0 86.393 13.7858 1191 142.887 1099.17 451.051
585 0 92.2244 15.0936 1392 140.385 1097.56 451.913
586 0 96.2254 15.5988 1501 138.361 1096.38 450.142
587 0 99.2415 16.4951 1637 137.329 1094.48 448.04
588 0 100.145 14.5589 1458 141.701 1091.95 445.228
589 1 51.275 11.0385 566 139.051 1090.49 471.3
590 0 51.2645 9.85088 505 144.992 1090.62 466.976
591 0 53.1307 9.69308 515 143.524 1089.66 468.21
592 0 56.2409 12.9265 727 139.102 1089 463.292
593 0 54.0733 11.9283 645 144.357 1088.95 462.437
594 0 60.1566 13.3319 802 138.202 1089.02 462.869
595 0 62.1055 15.2644 948 133.024 1089.8 462.332
596 0 63.2779 12.2318 774 140.417 1090.65 459.473
597 0 66.1759 12.7086 841 138.977 1091.38 460.427
598 0 67.3058 13.0004 875 139.216 1093.09 458.638
599 0 71.1771 18.7139 1332 127.149 1094.16 461.128
600 0 73.0861 15.0371 1099 134.495 1096.3 457.015
601 0 73.1199 12.1581 889 141.06 1097.92 457.799
602 0 77.1365 15.2327 1175 135.496 1098.84 455.402
603 0 77.1357 15.0125 1158 129.19 1099.82 455.185
604 0 81.1827 13.6852 1111 138.896 1100.16 455.887
605 0 85.2454 12.4933 1065 139.1 1100.22 456.009
606 1 44.1032 10.0673 444 143.074 1100.01 473.23
607 0 44.0334 14.8069 652 131.362 1099.49 477.181
608 0 45.0203 11.4615 516 139.915 1098.97 475.091
609 0 48.0957 11.7682 566 139.553 1099.71 473.746
610 0 48.0811 10.5031 505 140.875 1098.77 474.636
611 0 51.0771 12.2364 625 137.803 1100.88 474.405
612 0 53.0498 14.9105 791 131.003 1099.51 476.219
613 0 56.1843 15.4314 867 129.912 1096.64 475.576
614 0 54.1525 14.4407 782 136.01 1095.59 471.364
615 0 56.1268 14.2 797 135.301 1094.01 472.343
616 0 58.1608 14.8897 866 134.748 1092.14 468.455
617 0 58.0592 15.0019 871 133.68 1090.28 470.695
618 0 59.1094 14.194 839 138.153 1089.71 463
619 0 65.1025 12.1501 791 138.836 1087.84 465.349
620 0 66.0751 14.1354 934 136.228 1087.4 461.284
621 0 68.1125 14.2265 969 135.939 1086.92 460.911
622 0 68.1125 14.3439 977 138.352 1085.93 460.8
623 0 73.0688 15.6154 1141 134.306 1086.44 455.751
624 0 75.2057 14.8925 1120 136.034 1085.89 449.755
625 0 79.2965 12.7118 1008 139.743 1086.97 450.142
626 0 81.1959 22.8952 1859 121.324 1086.95 451.026
627 0 84.3618 15.7536 1329 134.284 1087.13 447.026
628 0 88.4217 14.9737 1324 131.838 1089.56 447.474
629 1 52.2302 10.2048 533 138.045 1092.25 461.281
630 0 49.3363 13.4789 665 133.898 1092.72 459.95
631 0 49.1539 12.3897 609 128.8 1092.61 459.107
632 0 53.311 10.9921 586 131.655 1095.55 460.811
633 0 53.1359 12.0822 642 132.421 1096.78 457.545
634 0 56.1202 13.0256 731 129.803 1098.19 458.907
635 0 56.1434 13.608 764 131.359 1100.7 455.831
636 0 54.2346 12.3722 671 134.525 1102.7 456.82
637 0 59.1315 13.7321 812 132.156 1103.13 456.032
638 0 59.1252 13.1754 779 133.655 1104.33 456.205
639 0 64.2785 12.4925 803 134.737 1104.68 453.813
640 0 66.0978 14.5996 965 131.911 1105.15 451.71
641 0 67.239 12.7456 857 138.929 1104.07 454.194
642 0 71.3115 12.214 871 140.123 1103.28 455.18
643 0 71.0929 13.0815 930 139.911 1102.7 453.843
644 0 75.1408 16.9548 1274 131.352 1101.93 454.76
645 0 78.4522 12.428 975 141.058 1100.62 452.884
646 1 44.6007 15.7845 704 125.891 1100.1 471.879
647 0 45.1448 9.6578 436 147.585 1098.09 473.101
648 0 42.0563 10.6524 448 145.955 1096.3 471.839
649 0 47.2597 10.7914 510 145.312 1095.81 469.047
650 0 47.2239 13.8277 653 140.557 1094.81 466.378
651 0 50.2153 14.4777 727 138.769 1093.44 466.077
652 0 52.0988 14.6452 763 139.338 1092.76 468.587
653 0 54.117 12.2697 664 143.87 1091.85 466.446
654 0 55.1642 11.3661 627 143.265 1091.48 467.014
655 0 56.0511 14.5046 813 139.208 1090.81 463.166
656 0 57.2166 13.9295 797 138.491 1090.65 463.148
657 0 58.2317 13.7726 802 141.133 1089.97 458.627
658 0 59.2965 15.6164 926 135.067 1090.52 460.764
659 0 62.3376 15.6246 974 136.841 1091.16 454.755
660 0 65.4932 14.8412 972 136.831 1091.33 456.305
661 0 68.6297 15.6638 1075 132.694 1092.01 451.61
662 0 72.6511 14.8793 1081 135.902 1093.49 452.299
663 0 72.4143 14.4585 1047 137.067 1095.39 449.873
664 0 71.518 13.2694 949 140.738 1096.5 447.487
665 0 75.504 15.0191 1134 138.73 1098.62 442.91
666 0 79.6136 14.2815 1137 137.395 1100.69 447.627
667 0 79.2012 13.5983 1077 138.595 1101.35 439.383
668 0 84.1502 17.7896 1497 129.084 1102.83 440.588
669 0 84.3089 12.2644 1034 138.823 1104.03 440.584
670 0 88.337 15.4295 1363 135.885 1105.77 437.048
671 0 90.3782 12.4809 1128 140.247 1106.1 439.282
672 1 49.1418 10.9276 537 134.574 1106.42 458.743
673 0 47.2043 9.44829 446 136.944 1107.16 462.233
674 0 52.306 14.2049 743 128.616 1106.09 463.455
675 0 55.3622 12.6982 703 131.526 1105.14 462.482
676 0 55.3622 12.6621 701 130.973 1104.13 462.529
677 0 57.116 12.2383 699 130.565 1103.95 464.133
678 0 60.156 12.4676 750 130.677 1102.09 462.659
679 0 61.1143 13.9738 854 128.848 1101.24 460.118
680 0 63.2339 15.4031 974 127.015 1099.34 458.231
681 0 66.276 13.9115 922 129.675 1097.76 455.357
682 0 67.2313 12.3752 832 132.032 1095.69 457.583
683 0 69.0562 12.6564 874 131.675 1094.95 453.519
684 0 72.0914 14.1764 1022 130.164 1093.42 453.405
685 0 76.171 12.6689 965 133.214 1092.05 451.824
686 0 78.0926 19.6434 1534 122.078 1091.05 451.255
687 0 77.197 10.6222 820 138.505 1090.39 447.188
688 0 82.1663 14.7262 1210 131.909 1089.39 445.55
689 0 84.238 14.3047 1205 130.495 1089.83 438.513
690 0 88.2042 16.4391 1450 126.093 1090.15 442.235
691 0 89.1612 12.7634 1138 136.709 1090.75 440.757
692 0 99.3738 16.453 1635 127.801 1091.36 441.468
693 0 96.3123 13.2278 1274 133.201 1091.18 438.807
694 0 96.2782 13.8245 1331 134.577 1091.11 438.047
695 0 96.2782 13.8661 1335 133.959 1091.09 438.142
696 1 108.449 12.3284 1337 133.553 1094.62 429.492
697 1 53.1632 12.8284 682 127.192 1097.27 456.66
698 0 54.1143 15.1901 822 122.648 1098.9 453.642
699 0 56.1086 11.7629 660 127.314 1101.56 458.008
700 0 61.0873 14.864 908 119.759 1103.33 456.187
701 0 61.0385 14.0731 859 123.224 1104.16 454.468
702 0 61.118 14.3493 877 125.665 1105.8 454.819
703 0 64.209 16.1971 1040 117.507 1107.15 454.979
704 0 67.2458 11.9859 806 123.97 1106.48 458.217
705 0 68.3552 11.7913 806 125.401 1107.28 458.553
706 0 70.2113 11.5936 814 128.792 1107 453.963
707 1 34.0735 9.30342 317 132.565 1106.68 469.347
708 0 38.109 11.8607 452 128.272 1106 472.15
709 0 39.1722 12.4323 487 125.025 1105.33 475.998
710 0 39.0831 10.4905 410 133.734 1104.63 474.115
711 0 46.022 12.1246 558 130.168 1102.94 473.151
712 0 42.2462 9.98906 422 137.725 1101.92 472.666
713 0 47.0606 14.0457 661 127.891 1100.53 471.47
714 0 47.0377 13.5211 636 126.939 1098.89 472.671
715 0 49.0674 15.5297 762 125.005 1098.04 467.308
716 0 50.0667 14.3209 717 128.185 1096.19 467.59
717 0 50.0914 14.5334 728 125.669 1094.01 467.129
718 0 50.0565 13.325 667 129.112 1092.81 465.793
719 0 53.1414 14.3203 761 124.813 1092.72 463.147
720 0 56.2914 12.4708 702 126.96 1092.3 464.44
721 0 54.128 12.5259 678 130.696 1092.28 462.071
722 0 56.1758 13.7426 772 128.807 1091.58 458.81
723 0 59.1833 12.6387 748 127.549 1091.59 459.424
724 0 61.2176 13.6399 835 127.303 1091.97 457.041
725 0 64.3068 13.4823 867 122.841 1092.43 460.625
726 0 64.1146 12.0409 772 127.442 1092.89 457.841
727 0 69.2218 13.0595 904 126.699 1093.9 454.855
728 0 69.1843 14.8444 1027 123.731 1094.59 451.163
729 0 69.3195 11.6562 808 129.142 1095.31 448.967
730 0 73.3899 17.3866 1276 121.359 1097.89 449.136
731 0 75.3616 11.0799 835 131.431 1100.41 453.453
732 0 81.3527 14.3818 1170 126.331 1102.23 449.457
733 0 83.3086 13.1079 1092 127.893 1103.79 448.722
734 0 84.2905 11.6502 982 128.722 1104.59 455.327
735 1 42.1717 11.1923 472 137.966 1105.61 468.129
736 0 41.1272 7.97526 328 144.61 1106.5 468.543
737 0 46.2131 12.2909 568 135.523 1106.29 469.444
738 0 47.3331 11.4508 542 139.589 1106.18 468.498
739 0 49.4297 12.9881 642 139.676 1105.08 466.22
740 0 52.1863 15.0614 786 134.352 1105.25 467.809
741 0 51.3074 13.1755 676 140.536 1104 467.201
742 0 53.2566 12.9937 692 140.019 1103.18 471.363
743 0 58.3125 12.8617 750 140.236 1101.81 470.635
744 0 60.315 16.7952 1013 132.309 1100.59 470.838
745 0 59.4009 13.5857 807 140.674 1099.06 468.028
746 0 59.4009 13.5688 806 131.526 1098.06 468.019
747 0 66.4441 15.3663 1021 135.623 1096.16 465.998
748 0 69.3728 14.4725 1004 136.953 1094.63 464.692
749 0 71.3101 14.4299 1029 140.345 1093 460.85
750 0 74.2391 14.9517 1110 139.544 1092.61 458.645
751 0 75.3652 15.4713 1166 138.241 1091.2 458.761
752 0 79.5578 14.5555 1158 140.989 1090.08 456.97
753 0 80.4182 17.7074 1424 132.888 1089.4 455.454
754 0 85.3615 17.6895 1510 131.337 1089.13 456.732
755 1 44.3249 11.3931 505 137.497 1088.53 473.386
756 0 46.2695 12.8594 595 138.66 1088.56 469.131
757 0 48.407 11.9817 580 139.671 1088.11 467.548
758 0 49.268 11.2852 556 143.969 1088.44 465.372
759 0 52.5276 11.2131 589 143.484 1088.99 461.871
760 0 54.4701 13.6038 741 140.177 1089.68 460.594
761 0 54.4322 14.5318 791 139.369 1091.14 458.192
762 0 57.211 14.1581 810 134.86 1094.24 464.644
763 0 58.2202 16.1971 943 131.727 1095.62 463.771
764 0 58.2314 12.9999 757 141.948 1098.34 463.087
765 0 60.1746 16.2859 980 135.692 1098.93 464.264
766 0 65.1188 19.7024 1283 127.387 1100.31 466.195
767 0 67.1836 15.6735 1053 140.03 1100.86 461.384
768 0 66.1577 14.798 979 144.072 1102.37 462.251
769 0 68.1534 14.306 975 146.101 1102.95 461.463
770 0 72.1411 15.8024 1140 143.413 1103.41 462.4
771 0 72.158 16.8103 1213 141.83 1103.76 462.282
772 0 76.3322 17.4107 1329 141.686 1103.51 459.757
773 0 78.1385 14.3335 1120 150.701 1102.47 459.393
774 0 81.1886 16.5417 1343 146.663 1102.44 464.014
775 0 82.175 14.3474 1179 153.858 1101.16 462.075
776 0 87.1769 17.1949 1499 149.165 1099.33 458.338
777 0 91.1496 16.4455 1499 151.989 1097.78 460.508
778 0 96.1541 19.4584 1871 144.812 1095.94 458.641
779 1 51.0463 12.949 661 157.368 1094.95 477.313
780 0 52.1053 11.4192 595 161.319 1093.27 475.945
781 0 53.0668 11.6834 620 158.439 1092.06 476.774
782 0 56.0683 11.6643 654 162.32 1090.24 472.466
783 0 58.0743 13.6033 790 157.78 1089.72 471.03
784 0 57.114 14.0596 803 156.797 1088.48 469.394
785 0 58.2195 15.6305 910 154.567 1086.95 465.675
786 0 61.0747 13.8846 848 152.487 1084.59 465.013
787 0 62.1554 14.5764 906 150.217 1084.31 463.13
788 0 62.0613 14.3406 890 153.106 1084.34 460.14
789 0 63.1723 13.392 846 155.025 1084.13 459.733
790 0 67.101 14.8135 994 152.775 1084.67 455.566
791 0 70.1074 15.5904 1093 145.786 1085.54 456.353
792 0 71.092 16.1199 1146 140.957 1086.7 451.916
793 0 75.2282 16.5762 1247 137.993 1086.96 450.969
794 0 76.1558 16.3218 1243 144.432 1088.37 447.048
795 0 81.2736 18.1117 1472 136.537 1089.3 448.306
796 0 82.1353 15.0849 1239 147.788 1090.67 444.138
797 0 84.2532 17.6255 1485 138.564 1092.84 439.618
798 0 86.3102 15.9077 1373 141.072 1094.35 444.292
799 0 90.1514 16.0286 1445 145.186 1096.21 442.8
800 0 94.1591 18.3944 1732 138.933 1097.62 440.906
801 1 49.0814 10.4113 511 146.838 1097.91 463.301
802 0 47.0735 12.5761 592 143.324 1099.58 464.441
803 0 49.0712 14.4688 710 140.035 1100.73 464.211
804 0 47.1465 12.2597 578 152.285 1102.44 464.455
805 0 53.0888 14.9184 792 142.442 1101.53 466.133
806 0 54.134 15.0368 814 144.995 1103.88 466.585
807 0 57.0742 16.1369 921 141.132 1103.97 468.636
808 0 56.1093 14.3826 807 145.295 1103.76 465.734
809 0 58.1819 16.7578 975 139.756 1101.18 465.613
810 0 59.2038 15.4213 913 144.074 1100.55 465.462
811 0 61.2309 15.2537 934 144.405 1100.27 463.683
812 0 62.0496 15.3909 955 142.263 1100.53 464.888
813 0 61.1348 12.0553 737 152.148 1100.58 461.46
814 0 64.2024 14.61 938 143.414 1098.59 458.32
815 0 63.2788 14.6178 925 145.068 1097.05 460.741
816 0 65.2883 14.122 922 148.345 1096.61 456.33
817 0 66.1095 15.6256 1033 143.957 1095.18 455.417
818 0 67.155 16.4991 1108 142.47 1094.86 453.346
819 0 67.1591 14.1009 947 148.216 1093.63 453.095
820 0 70.0892 16.3506 1146 143.599 1093.98 454.39
821 0 71.1785 15.412 1097 147.994 1093.68 453.081
822 0 70.326 16.6368 1170 143.39 1092.53 449.187
823 0 70.2595 13.5213 950 152.72 1092.28 447.422
824 0 72.1033 16.3654 1180 154.781 1093.34 448.972
825 0 72.2105 14.6239 1056 156.016 1093.78 450.351
826 0 73.1371 17.7065 1295 150.589 1094.36 447.87
827 0 73.1858 15.1259 1107 162.242 1095.43 447.194
828 0 73.1858 15.0302 1100 152.899 1096.45 447.154
829 0 78.2264 19.7504 1545 146.07 1098.04 448.344
830 0 76.1613 20.798 1584 146.107 1099.27 445.044
831 1 37.0843 10.8132 401 159.845 1100.27 466.249
832 0 38.1512 11.3758 434 163.134 1102 465.991
833 0 38.4467 12.0166 462 157.396 1103.89 466.156
834 0 40.1582 12.0025 482 157.28 1104.93 465.801
835 0 36.1411 12.5342 453 155.704 1105.86 464.479
836 0 39.0939 12.0479 471 147.412 1107.7 467.775
837 0 39.2464 14.2433 559 148.914 1107.29 470.186
838 0 40.2434 13.145 529 159.775 1106.59 473.049
839 0 40.1859 13.8108 555 161.067 1106.29 473.773
840 0 42.1215 14.4107 607 161.957 1106.26 477.138
841 0 41.1553 14.7004 605 163.008 1105.69 476.536
842 0 42.1578 15.4183 650 161.8 1105.71 477.769
843 0 42.0804 17.324 729 156.497 1103.79 478.365
844 0 39.0527 13.8787 542 168.875 1101.96 480.033
845 0 41.0736 15.387 632 161.88 1100.62 480.084
846 0 40.0751 16.9182 678 161.665 1099.15 477.049
847 0 41.0258 13.4306 551 166.935 1097.85 478.947
848 0 40.0257 12.492 500 170.814 1095.92 477.12
849 0 40.0432 14.6342 586 165.993 1094.57 476.52
850 0 40.0879 15.6905 629 162.56 1093.81 474.641
851 0 42.0484 15.5535 654 158.599 1092.89 476.37
852 0 40.0489 14.0578 563 166.007 1091.74 474.02
