time division length width area intensity CMx CMy
0 0 83.407 20.382 1700 118.546 1193.88 438.435
1 0 82.3143 15.8539 1305 123.661 1194.53 434.311
2 0 82.3143 15.6959 1292 144.275 1195.5 434.238
3 0 92.237 23.0602 2127 114.124 1195.68 440.533
4 0 94.1037 23.8885 2248 113.431 1195.85 436.198
5 0 94.1618 17.7885 1675 120.524 1195.7 427.966
6 0 96.5537 17.12 1653 118.73 1194.85 435.062
7 0 97.4475 23.7667 2316 130.176 1193.95 430.307
8 0 105.368 27.627 2911 114.002 1193.79 417.631
9 0 110.277 19.3784 2137 121.764 1191.25 420.993
10 1 173.679 19.5879 3402 123.252 1191.67 406.441
11 1 63.0717 13.7621 868 120.226 1190.23 448.988
12 0 64.4148 16.4093 1057 122.297 1189.22 450.552
13 0 68.2156 16.3012 1112 121.153 1188.32 449.987
14 0 68.288 13.0916 894 132.238 1186.93 450.724
15 0 72.1806 17.3038 1249 132.798 1185.16 444.612
16 0 73.0738 13.9448 1019 142.681 1182.79 445.229
17 0 73.1067 12.7485 932 148.735 1181.2 439.701
18 0 75.144 13.4808 1013 148.083 1180.02 439.994
19 0 78.1806 13.7886 1078 148.756 1179.16 439.76
20 0 81.1854 16.3453 1327 143.28 1178.87 436.83
21 0 82.2831 12.615 1038 152.302 1178.08 434.64
22 1 45.106 9.84349 444 146.86 1178.14 453.831
23 0 46.3675 9.68351 449 141.731 1179.26 455.143
24 0 49.0594 12.3727 607 135.633 1180.02 452.012
25 0 48.08 9.08902 437 140.696 1178.34 453.192
26 0 50.1665 13.216 663 134.736 1178.33 447.792
27 0 49.038 12.1742 597 137.452 1179.52 446.601
28 0 54.0699 13.1681 712 136.051 1180.51 443.979
29 0 54.0699 13.0942 708 120.997 1180.56 444.199
30 0 51.063 11.5348 589 126.228 1180.5 446.236
31 1 119.295 13.2445 1580 137.647 1185.17 416.591
32 0 125.656 13.9428 1752 126.043 1186.9 418.444
33 0 127.406 16.1687 2060 119.524 1188.48 408.728
34 0 132.678 26.4098 3504 110.117 1189.74 410.95
35 0 137.975 20.1558 2781 113.733 1191.52 416.473
36 0 137.435 26.0414 3579 112.285 1191.99 412.49
37 0 146.652 15.7584 2311 116.85 1193.2 413.223
38 1 81.4559 25.8668 2107 101.487 1194.19 448.642
39 0 80.7393 20.6095 1664 103.363 1194.27 452.839
40 0 81.3207 15.8016 1285 109.582 1194.13 444.233
41 0 79.4709 13.8415 1100 113.21 1193.74 443.197
42 0 81.4832 11.6097 946 116.156 1193.06 444.318
43 0 80.0724 15.973 1279 113.729 1191.34 450.185
44 0 86.3954 25.0361 2163 112.879 1191.64 443.778
45 0 90.4012 17.0905 1545 115.654 1189.92 447.127
46 0 91.1105 22.094 2013 116.737 1188.69 442.16
47 0 91.1105 21.8855 1994 130.714 1186.66 442.17
48 0 93.2618 12.6204 1177 139.605 1185.82 439.511
49 0 97.2203 13.1454 1278 143.501 1183.66 436.636
50 0 102.282 14.5773 1491 144.052 1182.05 437.823
51 1 54.06 8.86053 479 151.347 1180.53 458.718
52 0 53.0424 7.86163 417 154.698 1180.65 458.206
53 0 55.0341 9.52137 524 158.576 1178.54 455.664
54 0 60.3273 13.2941 802 136.418 1176.8 452.904
55 0 62.1207 13.3128 827 137.802 1175.89 449.868
56 0 62.1207 13.2806 825 144.086 1174.9 449.825
57 0 68.0889 14.672 999 132.947 1175.07 448.012
58 0 70.1731 15.5758 1093 130.453 1175.19 446.747
59 0 67.1177 13.454 903 137.698 1174.96 443.755
60 0 71.221 11.6679 831 137.875 1175.11 446.504
61 0 76.2163 13.0025 991 139.432 1175.54 442.728
62 0 76.1425 12.1089 922 142.726 1176.01 439.204
63 0 80.0792 15.0601 1206 133.618 1177.36 438.05
64 1 159.536 21.9574 3503 126.415 1179.74 406.84
65 0 169.063 22.3881 3785 122.434 1180.82 404.068
66 0 171.472 22.1786 3803 119.698 1184.2 396.811
67 0 177.511 24.6802 4381 115.381 1187.21 396.97
68 1 93.1026 13.5657 1263 120.516 1187.73 436.32
69 0 92.466 14.6108 1351 120.887 1189.85 430.096
70 0 102.186 22.0872 2257 111.27 1191.39 433.935
71 0 110.688 23.2094 2569 107.3 1192.65 435.853
72 0 106.785 14.4028 1538 113.3 1193.46 439.055
73 0 112.695 21.9709 2476 111.356 1192.63 432.414
74 0 116.452 17.226 2006 115.612 1191.54 424.593
75 1 58.3489 10.3344 603 118.803 1192.33 452.962
76 0 65.1399 9.68684 631 120.674 1191.67 460.242
77 0 65.2702 10.5561 689 129.309 1191.21 457.3
78 0 69.2098 13.2207 915 126.054 1190.95 454.854
79 0 70.1824 12.5103 878 130.956 1189.53 451.926
80 0 71.2125 14.3514 1022 127.725 1188.55 455.204
81 0 72.2444 13.399 968 133.807 1187.45 452.977
82 0 76.1959 14.0165 1068 132.325 1185.49 450.275
83 0 78.4689 14.2859 1121 135.93 1184.45 450.208
84 0 79.3482 13.0186 1033 137.745 1182.73 446.884
85 0 82.3562 14.3159 1179 135.293 1181.65 445.027
86 0 86.131 17.2876 1489 132.406 1179.97 445.966
87 0 89.1771 15.0599 1343 136.01 1179.22 444.118
88 0 91.2152 16.8612 1538 134.453 1178.32 438.223
89 1 45.0413 8.30349 374 144.655 1178.75 460.754
90 0 48.1685 11.4182 550 138.578 1177.6 457.635
91 0 48.2071 12.5293 604 133.411 1177.75 456.93
92 0 50.1883 11.8753 596 132.904 1177.48 454.611
93 0 53.0544 11.7238 622 132.368 1177.03 454.757
94 0 55.0648 11.4774 632 136.443 1177.72 452.924
95 0 56.0769 13.214 741 134.727 1177.51 452.344
96 0 58.1623 13.4623 783 131.326 1178.16 450.185
97 0 63.0895 15.7078 991 126.091 1180.06 450.166
98 0 64.2117 16.3522 1050 116.79 1182.63 452.522
99 0 62.1365 14.6613 911 123.53 1184.78 447.03
100 0 66.1207 18.1486 1200 116.539 1185.78 445.922
101 0 66.2371 10.9606 726 122.258 1188.01 446.372
102 0 68.1145 13.4333 915 114.972 1188.74 447.636
103 0 74.5614 16.2819 1214 110.939 1190.56 448.046
104 0 79.8866 14.9462 1194 108.724 1192.09 452.24
105 0 77.2039 21.9678 1696 106.228 1191.51 449.568
106 0 82.6593 11.2752 932 115.354 1192.09 451.161
107 0 79.1613 13.9967 1108 113.733 1193.39 445.404
108 0 85.3202 17.0182 1452 111.887 1191.95 445.492
109 0 87.4119 17.7093 1548 112.327 1191.77 443.129
110 0 90.3288 15.7868 1426 116.104 1190.95 444.938
111 0 87.2321 12.1629 1061 128.305 1190.33 439.944
112 0 91.1759 14.1046 1286 128.464 1189.54 441.731
113 0 97.3568 17.6362 1717 123.488 1188.02 440.416
114 1 54.213 9.68402 525 146.39 1186.3 465.806
115 0 54.213 9.68402 525 145.943 1184.32 465.752
116 0 55.0729 9.51466 524 132.647 1184.37 461.803
117 0 58.2796 14.7908 862 122.316 1182.62 463.667
118 0 58.2877 12.9015 752 130.852 1181.17 460.039
119 0 58.2877 12.8672 750 139.041 1179.17 460.065
120 0 62.2131 14.4343 898 124.646 1179.41 461.267
121 0 63.2035 15.6004 986 125.501 1177.62 454.552
122 0 65.3829 12.1438 794 129.353 1176.73 455.123
123 0 70.5708 15.1196 1067 122.618 1175.8 453.758
124 0 71.1632 18.0852 1287 121.277 1174.57 448.87
125 0 69.1664 15.4699 1070 120.735 1173.44 446.046
126 0 74.2817 13.5161 1004 129.324 1174.47 444.261
127 0 75.2171 12.2844 924 130.816 1174.36 445.807
128 0 80.3088 18.4413 1481 119.103 1173.98 443.174
129 0 80.2893 13.9371 1119 128.324 1174.79 438.716
130 0 86.2918 14.2771 1232 126.377 1175.46 439.542
131 0 91.5688 15.8242 1449 121.135 1177.45 443.331
132 0 90.2609 14.5689 1315 119.287 1178.22 436.772
133 1 47.1383 10.5222 496 126.252 1181.99 455.839
134 0 55.6446 12.49 695 112.553 1184.77 458.381
135 0 58.6188 12.8628 754 110.718 1185.97 455.55
136 0 56.1045 21.5669 1210 100.894 1183.12 463.045
137 0 58.4995 11.1283 651 108.392 1186.8 463.587
138 0 62.4699 20.9381 1308 101.437 1188.08 459.519
139 0 58.0652 18.1348 1053 102.662 1188.23 462.733
140 0 61.3026 16.3615 1003 104.986 1189.09 462.929
141 0 63.2327 15.8462 1002 107.736 1188.99 459.305
142 0 57.2748 12.2916 704 113.926 1188.8 457.751
143 0 65.253 14.3595 937 112.197 1187.39 463.871
144 0 64.314 12.5944 810 118.846 1186.82 458.843
145 0 64.314 12.5167 805 144.586 1186.82 458.722
146 0 66.232 13.1054 868 126.439 1184.71 457.218
147 0 73.2568 13.9236 1020 123.047 1184.35 459.217
148 0 73.3104 12.1947 894 126.1 1182.83 459.683
149 0 74.1978 14.6366 1086 126.176 1180.96 455.247
150 0 75.3637 13.4017 1010 131.146 1178.97 453.724
151 0 77.3352 14.8574 1149 128.655 1178.52 453.579
152 0 79.2368 14.4125 1142 131.878 1176.32 450.684
153 0 81.2525 16.9964 1381 126.937 1175.26 447.345
154 0 83.4497 15.2307 1271 129.673 1173.86 446.662
155 0 86.3066 13.313 1149 135.755 1173.55 444.704
156 1 46.3112 11.6818 541 128.943 1173.64 465.817
157 0 48.0859 11.5626 556 131.975 1173.13 462.016
158 0 47.0601 9.09476 428 136.082 1172.35 460.771
159 0 51.0604 14.5122 741 123.293 1172.12 461.924
160 0 51.1372 11.4007 583 131.686 1172.15 457.839
161 0 53.1016 11.6757 620 132.563 1171.82 453.74
162 0 55.1449 11.7146 646 129.875 1169.59 452.87
163 0 54.1541 11.9658 648 129.593 1169.69 450.745
164 0 58.2643 14.4171 840 121.45 1171.87 453.562
165 0 58.0595 13.5206 785 119.304 1173.7 455.265
166 0 62.2044 16.6708 1037 117.372 1175.64 449.103
167 0 62.4248 13.5683 847 122.397 1177.84 449.693
168 0 65.4247 14.7956 968 120.166 1179.23 449.781
169 0 68.567 23.9328 1641 104.668 1180.83 452.358
170 0 65.2733 14.5082 947 117.548 1181.68 449.77
171 0 70.6197 18.5784 1312 111.672 1182.91 448.124
172 0 74.4665 19.2033 1430 110.826 1182.72 450.592
173 0 77.42 15.5386 1203 115.773 1183.45 452.007
174 0 75.2239 12.4428 936 122.118 1183.88 447.776
175 0 80.6103 15.1221 1219 117.587 1184.01 453.81
176 0 79.4173 14.833 1178 124.092 1183 449.479
177 0 87.3863 13.9152 1216 126.299 1182.45 448.083
178 0 83.5459 10.186 851 134.575 1182.38 446.283
179 0 91.5164 16.4014 1501 124.905 1181.04 442.143
180 0 92.3938 14.9252 1379 133.297 1180.24 446.465
181 0 93.6441 13.0601 1223 133.545 1178.71 446.063
182 0 99.8963 16.2468 1623 127.503 1177.58 443.652
183 0 101.806 20.9909 2137 123.919 1176.84 435.893
184 0 102.87 16.0396 1650 132.752 1175.51 440.104
185 0 104.533 14.5983 1526 136.845 1173.49 433.474
186 0 108.67 15.0272 1633 136.741 1172.21 432.127
187 0 112.799 15.4789 1746 136.278 1171.47 430.842
188 0 115.796 14.9746 1734 137.143 1170.44 428.615
189 0 116.73 14.5035 1693 140.009 1170.58 422.376
190 0 122.906 17.1677 2110 133.166 1169.89 423.748
191 0 128.798 18.036 2323 131.141 1169.23 422.382
192 0 132.793 16.4541 2185 135.771 1168.66 416.023
193 0 136.773 17.8983 2448 133.671 1168.25 408.361
194 0 140.599 16.8991 2376 135.722 1169.05 402.753
195 1 80.4929 11.9638 963 137.995 1169.07 437.861
196 0 83.8529 13.3329 1118 134.677 1170.53 436.969
197 0 88.6348 14.7233 1305 130.457 1172.31 435.678
198 0 90.2853 13.6678 1234 127.846 1173.7 436.135
199 0 91.4175 14.0345 1283 127.522 1175.24 432.993
200 0 95.4464 11.6086 1108 128.497 1176.56 436.985
201 0 99.5532 13.2693 1321 124.53 1178.77 437.079
202 0 99.2892 12.5593 1247 128.616 1179.86 430.595
203 0 105.498 14.55 1535 124.765 1180.87 430.39
204 0 108.564 13.4575 1461 128.611 1181.67 427.51
205 0 109.542 12.6253 1383 130.444 1182.8 421.595
206 0 114.76 12.1732 1397 128.852 1182.8 425.636
207 0 117.621 14.0366 1651 127.615 1183.5 424.946
208 0 121.841 11.7695 1434 133.02 1183.54 422.524
209 0 130.893 14.0649 1841 128.614 1182.57 425.559
210 0 133.546 12.4451 1662 130.587 1183.01 423.717
211 1 73.2788 13.4145 983 131.217 1181.98 449.83
212 0 73.2117 11.9516 875 135.046 1181.01 447.502
213 0 73.1902 11.9415 874 136.697 1181.02 447.327
214 0 79.307 15.8498 1257 126.854 1178.72 450.525
215 0 79.2342 11.1694 885 137.499 1177.6 447.119
216 0 83.3369 11.3635 947 137.08 1176.39 444.818
217 0 86.3869 11.7379 1014 137.326 1175.07 440.879
218 0 88.2993 11.6083 1025 138.526 1173.78 440.425
219 0 93.1782 14.3274 1335 133.67 1172.95 439.089
220 0 96.206 14.5521 1400 128.912 1171.49 439.177
221 0 98.2359 13.2945 1306 130.325 1170.11 440.097
222 1 55.2048 9.14775 505 129.341 1167.61 461.996
223 0 59.2873 11.7057 694 125.389 1170.79 457.415
224 0 56.1718 10.4679 588 128.485 1170.21 455.512
225 0 59.4351 11.9963 713 124.592 1169.32 452.766
226 0 60.0601 10.1398 609 130.233 1169.9 448.775
227 0 62.0748 11.9694 743 126.419 1169.22 448.31
228 0 64.1569 11.4407 734 124.828 1170.66 450.071
229 0 65.1512 12.494 814 124.376 1170.89 447.322
230 0 70.0788 15.1116 1059 117.163 1171.9 448.561
231 0 70.2167 11.1939 786 121.826 1173.29 447.366
232 0 74.2441 13.267 985 116.274 1174.84 446.378
233 0 75.1485 14.5445 1093 114.323 1176.23 441.692
234 0 78.1483 14.0886 1101 118.739 1178.7 443.503
235 0 80.1947 16.834 1350 112.54 1180.09 441.833
236 0 82.0885 13.4976 1108 119.227 1182.21 443.991
237 0 85.3029 13.751 1173 117.241 1183.6 440.819
238 0 87.3878 18.6639 1631 110.905 1184.28 445.207
239 0 88.1171 12.1656 1072 119.544 1185.77 441.78
240 0 94.3416 15.8361 1494 115.104 1185.82 442.238
241 0 96.2346 13.8516 1333 120.654 1185.23 441.089
242 0 101.389 17.1715 1741 115.907 1184.88 439.234
243 1 56.0811 8.89783 499 126.457 1185.33 465.21
244 0 53.1643 10.3265 549 124.858 1184.76 468.953
245 0 56.0514 12.0068 673 126.579 1183.95 464.539
246 0 62.099 12.3835 769 128.351 1182.65 462.583
247 0 59.092 11.5413 682 127.477 1181.03 459.021
248 0 62.1801 13.4609 837 125.472 1178.75 456.976
249 0 62.162 10.7461 668 129.238 1177.4 458.913
250 0 63.108 13.0094 821 127.821 1176.33 455.256
251 0 65.1144 11.7486 765 131.19 1174.64 454.14
252 0 70.0826 14.383 1008 123.71 1172.73 456.243
253 0 71.1569 13.4632 958 127.243 1171.78 451.744
254 0 72.1925 13.2562 957 129.484 1170.62 450.211
255 0 74.1755 12.9153 958 130.137 1169.41 447.259
256 0 78.1627 15.5829 1218 124.892 1168.75 447.596
257 0 80.3319 16.519 1327 124.617 1169.37 445.169
258 0 81.2781 14.4811 1177 128.743 1168.67 439.625
259 0 86.3516 15.02 1297 129.824 1168.53 441.98
260 0 89.1732 13.199 1177 136.013 1168.84 441.359
261 0 91.179 13.15 1199 133.753 1169.07 442.029
262 1 46.0608 10.2256 471 130.924 1170.73 462.469
263 0 46.0608 10.1171 466 135.361 1172.74 462.464
264 0 46.1449 12.8075 591 125.832 1171.84 462.32
265 0 50.0902 11.1 556 130.254 1173.21 458.103
266 0 51.3673 11.3107 581 126.995 1175.52 457.697
267 0 51.3673 11.3496 583 139.907 1177.5 457.609
268 0 60.7026 16.309 990 116.24 1176.98 463.001
269 0 56.3148 13.1227 739 125.448 1177.38 455.804
270 0 56.3148 13.1582 741 144.849 1177.38 455.85
271 0 60.0402 12.958 778 127.342 1180.1 455.886
272 0 59.1311 14.1043 834 126.652 1181.35 454.51
273 0 66.1826 14.6262 968 124.384 1181.52 457.197
274 0 64.331 13.0575 840 125.26 1181.97 455.126
275 0 65.2033 13.0055 848 125.915 1181.9 452.643
276 0 69.1754 12.8948 892 124.511 1181.6 457.08
277 0 72.2782 13.282 960 125.741 1181.47 454.793
278 0 72.1022 16.6014 1197 124.14 1180.94 454.056
279 0 73.1885 13.5131 989 131.979 1179.5 454.664
280 0 79.1773 18.0228 1427 125.338 1178.09 454.06
281 0 81.1344 14.1987 1152 132.87 1177.78 452.517
282 0 81.1344 14.1863 1151 143.343 1177.78 452.599
283 1 44.0679 12.7304 561 131.854 1174.44 469.371
284 0 49.2163 8.65568 426 142 1172.52 466.885
285 0 46.0838 10.8064 498 139.616 1170.8 465.504
286 0 46.0838 10.8498 500 144.758 1170.77 465.404
287 0 48.1842 14.7559 711 134.895 1168.43 463.804
288 0 52.1813 13.0315 680 136.974 1168.2 462.951
289 0 51.1171 13.0876 669 138.148 1167.11 461.695
290 0 54.0513 14.0237 758 135.916 1166.72 460.34
291 0 55.0762 14.0169 772 136.935 1166.13 458.819
292 0 57.1238 15.2301 870 132.579 1165.43 458.721
293 0 57.0457 17.4948 998 130.233 1165.77 456.55
294 0 58.0323 13.3546 775 139.179 1165.53 454.026
295 0 60.0396 13.0247 782 137.613 1166.31 453.771
296 0 59.0443 11.6184 686 142.032 1166.41 453.366
297 0 62.1194 13.635 847 137.374 1168.05 451.668
298 0 64.1061 15.334 983 132.943 1169.81 449.37
299 0 65.1475 12.2645 799 137.11 1171.33 449.36
300 0 66.1468 14.8609 983 130.187 1172.62 450.027
301 0 69.1361 11.8751 821 134.459 1174.78 448.363
302 0 70.1387 16.6527 1168 124.647 1176.84 449.395
303 0 73.1262 14.5092 1061 127.71 1178.91 446.335
304 0 75.0533 15.0293 1128 128.702 1179.71 449.456
305 1 42.0377 12.1796 512 130.17 1181.44 465.453
306 0 47.0719 13.5325 637 124.81 1181.02 465.878
307 0 47.0719 13.575 639 129.981 1181.01 465.941
308 0 46.0651 14.0019 645 124.736 1181.09 464.002
309 0 50.1869 13.1508 660 125.129 1183.03 468.048
310 0 47.2904 15.2674 722 125.805 1183.21 464.033
311 0 50.3189 16.0973 810 124.999 1182.91 466.32
312 0 50.3043 15.0086 755 131.322 1182.29 464.257
313 0 52.3172 14.737 771 131.778 1180.61 466.384
314 0 53.2968 13.9596 744 131.8 1179.85 467.302
315 0 54.1366 14.1125 764 133.53 1178.94 464.691
316 0 54.15 14.0536 761 124.202 1177.97 464.884
317 0 57.1126 14.4451 825 133.754 1176.11 461.919
318 0 57.1126 14.5502 831 126.307 1175.14 461.943
319 0 60.2486 12.714 766 138.492 1173.16 459.996
320 0 62.3324 18.0484 1125 128.853 1171.52 458.756
321 0 66.2818 15.2682 1012 134.021 1171.37 458.82
322 0 67.1546 15.0101 1008 134.872 1169.93 454.821
323 0 69.282 13.611 943 138.601 1169.75 454.708
324 0 68.2376 12.5004 853 142.712 1169.23 450.04
325 0 68.1745 14.0668 959 141.578 1168.96 447.985
326 0 71.215 15.2075 1083 138.397 1168.98 447.109
327 0 76.2848 16.753 1278 134.331 1168.93 447.289
328 0 79.1852 17.5285 1388 132.464 1168.97 445.581
329 0 83.421 17.2738 1441 131.858 1169.77 445.317
330 0 82.1677 15.5049 1274 137.239 1170.54 442.423
331 1 34.1394 9.13899 312 141.093 1172.48 464.609
332 0 37.1741 10.1146 376 135.173 1173.8 465.883
333 0 41.1623 10.4464 430 134.821 1174.29 463.34
334 0 43.1301 13.2854 573 129.873 1176.85 461.955
335 0 43.0917 12.8099 552 130.846 1176.74 461.86
336 0 44.0838 12.635 557 128.625 1178.86 463.463
337 0 44.2325 13.4969 597 126.732 1178.88 463.893
338 0 47.1578 14.8226 699 124.309 1181.26 464.825
339 0 48.1357 13.1503 633 128.373 1181.33 463.772
340 0 49.0493 11.3355 556 130.369 1181.75 467.293
341 0 49.0493 11.3355 556 142.3 1181.75 467.437
342 0 51.1612 12.5095 640 132.097 1181.63 467.197
343 0 55.0632 12.6945 699 132.873 1181.82 467.034
344 0 56.2139 12.3991 697 135.452 1181.31 464.31
345 0 56.2139 12.3457 694 133.396 1181.32 464.35
346 0 57.0302 11.2397 641 140.432 1179.86 464.671
347 0 60.096 13.1456 790 136.251 1178.83 467.225
348 0 60.0476 13.4726 809 136.733 1176.89 459.948
349 0 64.3715 14.8047 953 133.297 1176.29 463.658
350 0 63.0635 13.1455 829 136.07 1174.43 463.524
351 1 31.063 5.89126 183 145.672 1173.24 475.978
352 0 34.107 10.4084 355 138.51 1172.01 473.856
353 0 37.0407 10.61 393 135.88 1170.27 474.293
354 0 37.1222 7.86592 292 140.432 1169.79 474.825
355 0 38.0159 10.7324 408 135.235 1169.63 471.564
356 0 39.0314 12.016 469 133.156 1168.23 469.525
357 0 41.1375 12.8836 530 132.249 1167.4 465.891
358 0 43.1853 15.1209 653 128.959 1166.88 465.518
359 0 43.054 12.5888 542 129.834 1168.09 465.943
360 0 45.0518 11.6311 524 129.038 1168.26 466.542
361 0 46.0681 13.5018 622 127.749 1168.56 461.989
362 0 47.0967 10.5527 497 131.833 1167.98 462.298
363 0 50.1057 10.7772 540 131.254 1170.12 461.126
364 0 51.076 14.0575 718 126.34 1170.59 459.157
365 0 51.1021 13.6394 697 127.11 1172.58 458.057
366 0 55.0355 17.0436 938 120.922 1173.84 459.977
367 0 53.0199 11.5051 610 131.028 1176 458.377
368 0 56.0859 15.5654 873 126.216 1177.68 454.729
369 0 62.1261 16.4504 1022 120.785 1180.07 459.73
370 0 57.1319 10.6771 610 134.974 1181.41 460.207
371 0 64.0597 13.987 896 128.181 1182.34 457.079
372 0 63.0907 14.5029 915 128.198 1183.02 459.591
373 0 65.1714 12.4134 809 135.684 1182.9 455.239
374 0 67.1101 15.8247 1062 128.321 1183.51 458.524
375 0 69.1053 13.0815 904 137.341 1183.38 458.811
376 0 72.1639 15.6172 1127 132.672 1183.01 454.228
377 0 77.0637 14.7151 1134 135.189 1182.54 457.065
378 1 42.089 11.8321 498 137.434 1182.03 473.968
379 0 41.0114 11.8747 487 136.318 1181.22 475.715
380 0 41.0138 9.04574 371 148.388 1180.31 478.17
381 0 46.1181 12.6848 585 137.361 1179.28 474.855
382 0 45.0688 11.6932 527 140.751 1178.13 473.545
383 0 46.0457 12.227 563 135.327 1175.61 474.625
384 0 48.0637 13.919 669 133.069 1174.53 472.25
385 0 49.0688 11.0661 543 138.267 1173.98 471.527
386 0 51.14 15.1154 773 130.973 1171.03 467.934
387 0 53.0382 15.1023 801 130.885 1169.63 468.803
388 0 53.0304 13.2754 704 136.439 1169.23 467.112
389 0 56.0982 15.4372 866 128.971 1168.65 465.119
390 0 57.0688 16.1209 920 128.578 1167.91 462.671
391 0 59.0611 12.3262 728 133.374 1167.16 461.573
392 0 60.0682 13.3182 800 133.576 1167.29 459.855
393 0 62.1661 13.3513 830 133.472 1167.24 457.388
394 0 64.1992 17.0096 1092 126.052 1167.73 452.364
395 0 65.3909 14.2527 932 131.72 1169.16 449.492
396 0 68.222 14.0717 960 129.083 1169.99 454.01
397 0 69.241 14.6012 1011 129.971 1171.41 451.024
398 0 74.3925 18.4293 1371 122.036 1171.97 450.588
399 0 71.3712 11.3912 813 136.165 1173.93 450.458
400 0 81.7805 15.5661 1273 122.427 1176.51 453.42
401 0 76.2272 13.0269 993 136.628 1178.01 446.697
402 0 82.4271 13.1268 1082 130.884 1180.37 450.69
403 1 44.296 9.79773 434 126.426 1181.74 464.666
404 0 43.0751 10.029 432 127.169 1184.11 467.468
405 0 45.1513 10.8081 488 131.279 1183.88 468.764
406 0 46.223 12.0286 556 136.662 1184.79 466.295
407 0 52.6246 14.3659 756 126.606 1184.8 470.839
408 0 54.1968 13.3956 726 130.621 1183.7 469.321
409 0 51.0415 13.5184 690 132.894 1183.84 466.839
410 0 54.1537 13.277 719 134.555 1182.44 467.937
411 0 56.1082 13.3848 751 135.459 1182.26 464.349
412 0 56.2304 13.8359 778 135.747 1180.98 466.449
413 0 57.1136 15.9332 910 131.974 1180.08 464.98
414 0 59.1731 15.4462 914 131.792 1178.69 467.429
415 0 61.1136 15.3976 941 132.242 1178.07 465.824
416 0 62.2593 15.9494 993 133.013 1176.78 461.964
417 0 63.1879 15.6043 986 135.385 1174.82 463.377
418 0 64.2037 14.2048 912 139.558 1173.97 461.636
419 0 66.1795 14.7176 974 135.518 1172.52 464.159
420 0 69.1528 15.1838 1050 136.934 1170.98 457.038
421 0 70.3302 14.1475 995 139.274 1170.16 454.799
422 0 75.2799 17.6541 1329 130.022 1169.34 455.75
423 0 71.1384 12.0891 860 143.03 1169.07 450.527
424 0 79.1585 16.9533 1342 131.866 1168.67 449.665
425 0 79.2441 14.5374 1152 136.431 1168.51 446.621
426 0 82.2349 15.3463 1262 134.88 1167.87 446.891
427 1 46.1096 8.82679 407 139.912 1168.97 464.818
428 0 45.0748 9.09599 410 137.788 1169.48 465.839
429 0 46.0973 11.4974 530 139.402 1170.31 460.417
430 0 48.0372 11.387 547 137.782 1171.1 461.086
431 0 52.1159 12.2803 640 134.061 1172.49 457.639
432 0 51.1579 14.1914 726 130.098 1173.83 457.227
433 0 55.0697 11.1132 612 136.243 1175.65 458.158
434 0 56.1538 17.0247 956 125.444 1178.05 456.781
435 0 58.1955 13.3859 779 130.511 1180.14 460.353
436 0 59.1079 14.4989 857 127.715 1181.23 459.475
437 0 60.1118 14.6394 880 126.702 1183.92 458.75
438 0 61.1214 15.6083 954 126.504 1183.36 459.237
439 0 64.443 16.309 1051 124.094 1184.09 457.291
440 0 66.3272 13.8556 919 130.096 1183.84 458.535
441 0 69.1381 15.375 1063 128.525 1183.79 461.414
442 0 66.1607 11.4116 755 138.494 1183.46 459.685
443 0 73.1593 15.2134 1113 130.425 1182.92 457.358
444 0 74.2163 15.2258 1130 133.19 1182.57 455.382
445 0 77.1749 17.1429 1323 129.725 1182.03 457.779
446 0 78.1974 15.6911 1227 133.678 1180.71 455.818
447 0 81.1874 16.8745 1370 132.391 1178.94 452.585
448 0 82.1563 13.2187 1086 139.331 1178.06 451.859
449 0 85.2948 20.4467 1744 126.692 1176.53 447.432
450 1 46.063 8.90086 410 139.049 1176.23 470.971
451 0 48.0919 9.73137 468 134.953 1175.03 473.378
452 0 50.0542 12.1868 610 134.182 1173.47 469.016
453 0 50.1108 14.4679 725 130.948 1172.9 464.825
454 0 53.1598 15.2183 809 129.801 1171.3 461.799
455 0 55.0682 14.5274 800 129.818 1170.25 462.716
456 0 58.2033 12.8859 750 132.364 1169.41 460.883
457 0 59.093 12.438 735 132.939 1169.03 459.295
458 0 58.0816 13.1195 762 132.552 1169.09 457.957
459 0 64.3164 13.1226 844 132.395 1168.1 454.879
460 0 66.1838 15.2152 1007 128.425 1168.5 455.895
461 0 68.2046 14.5885 995 129.307 1168.27 452.46
462 0 70.2042 15.6971 1102 128.703 1168.92 453.449
463 0 72.3044 16.1678 1169 127.447 1170.18 451.914
464 0 74.2201 14.0258 1041 131.928 1171.59 449.331
465 0 75.1579 15.6338 1175 131.27 1172.79 441.841
466 0 78.1974 15.8062 1236 130.989 1174.57 444.488
467 0 83.3874 12.5678 1048 133.598 1176.54 443.665
468 1 51.3517 13.612 699 126.647 1179.36 463.166
469 0 49.1344 13.7582 676 124.876 1182.05 464.957
470 0 49.0499 10.2141 501 132.052 1182.58 465.693
471 0 49.114 14.4562 710 129.844 1183.82 461.477
472 0 52.0726 13.5964 708 131.811 1184.12 462.465
473 0 54.052 12.673 685 130.375 1184.29 465.301
474 0 54.2666 10.817 587 134.736 1184.9 465.717
475 0 54.0783 11.8162 639 138.52 1183.49 463.214
476 0 58.1239 12.026 699 136.582 1183.76 463.584
477 0 58.2075 11.8198 688 138.548 1183.19 463.337
478 0 60.2196 12.9194 778 137.213 1182.38 461.226
479 0 63.1256 14.4791 914 134.737 1181.41 462.335
480 0 63.2262 12.3525 781 142.161 1180.54 461.513
481 0 67.2159 12.5714 845 140.192 1179.26 461.615
482 0 68.1623 11.5313 786 142.383 1177.37 457.798
483 0 70.0966 12.6825 889 139.962 1176.02 457.069
484 0 76.208 14.5785 1111 135.473 1174.5 456.061
485 0 76.3924 12.4489 951 140.253 1173.19 455.232
486 0 79.108 12.0721 955 140.921 1171.45 452.608
487 0 80.186 11.8849 953 141.976 1170.51 448.93
488 1 46.0299 11.9922 552 137.413 1170.41 466.487
489 0 45.0986 9.1577 413 140.688 1169.55 468.656
490 0 47.0705 11.6209 547 137.475 1169.55 466.135
491 0 48.0764 16.765 806 130.263 1169.68 461.623
492 0 50.0652 12.4837 625 138.504 1169.47 458.363
493 0 53.0916 11.7344 623 133.034 1169.62 459.039
494 0 54.3073 13.5157 734 130.08 1169.64 457.045
495 0 57.1736 12.8381 734 130.54 1170.45 455.719
496 0 53.1856 10.8676 578 139.119 1170.96 456.388
497 0 57.2052 11.922 682 135.22 1172.5 456.663
498 0 59.1618 12.6264 747 132.948 1172.86 455.185
499 0 61.2053 11.0285 675 134.733 1175.11 454.64
500 0 62.1874 12.7196 791 132.001 1178.83 450.498
501 0 65.3162 12.4012 810 131.94 1179.97 453.591
502 0 66.147 12.9862 859 130.603 1181.38 454.12
503 0 69.3216 15.5651 1079 126.057 1182.37 449.614
504 1 38.0546 9.88055 376 127.301 1184.49 471.984
505 0 39.0345 7.96732 311 134.084 1186.04 472.45
506 0 41.0992 11.6547 479 129.219 1185.45 469.676
507 0 39.0356 8.53067 333 135.748 1185.11 472.18
508 0 42.0396 11.1562 469 130.454 1185.55 472.418
509 0 44.0557 13.1879 581 128.525 1185.24 471.158
510 0 45.0638 10.3853 468 134.637 1185.09 472.286
511 0 45.0105 10.0199 451 139.253 1183.98 470.929
512 0 47.0894 12.9966 612 132.879 1182.6 469.735
513 0 47.0883 11.8288 557 127.867 1179.85 469.075
514 0 48.2663 11.7266 566 128.845 1178.47 467.574
515 0 52.2312 11.2576 588 129.054 1177.07 465.696
516 0 49.0599 10.0286 492 133.024 1175.55 464.311
517 0 51.1376 11.7526 601 130.557 1173.84 462.852
518 0 55.2071 12.3535 682 126.39 1172.68 462.39
519 0 56.2483 14.916 839 129.037 1171.79 463.197
520 0 56.1286 14.2173 798 129.503 1169.05 462.091
521 0 60.176 11.8818 715 132.147 1168.48 461.948
522 0 62.1468 15.7208 977 123.379 1167.68 459.451
523 0 62.1231 12.2338 760 130.458 1167.32 459.841
524 0 67.2042 16.8442 1132 121.595 1166.56 454.818
525 0 70.3294 13.4083 943 125.815 1168.77 456.904
526 0 67.2595 12.5782 846 130.268 1169.01 453.431
527 0 69.1461 13.4932 933 129.034 1169.27 451.077
528 0 76.4336 18.068 1381 118.818 1170.5 451.569
529 0 75.1741 12.7305 957 128.51 1170.73 449.667
530 0 78.2096 17.0056 1330 122.007 1171.86 445.104
531 0 77.3134 12.5463 970 130.545 1173.54 444.662
532 0 82.2735 15.1446 1246 124.565 1174.82 444.384
533 0 85.2304 13.7158 1169 130.45 1176.84 443.783
534 0 88.2257 17.7953 1570 123.297 1178.58 441.602
535 0 91.2806 14.0336 1281 129.144 1180.17 446.65
536 1 46.1408 11.66 538 135.409 1182.33 463.065
537 0 47.1341 10.014 472 134.737 1183.46 465.193
538 0 48.1636 13.2881 640 131.108 1183.75 462.572
539 0 52.2285 14.7046 768 127.376 1183.9 461.664
540 0 54.2931 13.7034 744 131.917 1185.57 463.453
541 0 55.0445 15.6419 861 134.037 1185.05 463.468
542 0 58.0566 16.3117 947 131.512 1184.02 465.409
543 0 58.112 16.5198 960 134.492 1183.82 462.847
544 0 62.2592 15.0018 934 134.727 1182.82 465.785
545 0 62.2046 13.9218 866 141.943 1181.76 462.785
546 0 63.1102 14.2449 899 141.489 1180.34 462.684
547 0 64.075 14.6703 940 141.811 1178.99 461.881
548 0 68.2306 15.6235 1066 140.338 1177.57 458.322
549 0 71.0934 13.419 954 143.764 1176.62 458.366
550 0 74.1672 13.8066 1024 143.251 1175.32 457.253
551 0 73.2956 13.0704 958 147.013 1174.3 454.649
552 1 42.1159 13.4866 568 138.681 1172.95 471.276
553 0 43.1166 10.8311 467 146.919 1171.37 467.527
554 0 45.0577 12.0956 545 142.499 1171.1 466.739
555 0 44.1315 12.3041 543 140.67 1170.64 469.081
556 0 47.0881 11.9138 561 142.676 1170.04 465.328
557 0 49.0521 13.3939 657 139.577 1169.39 463.438
558 0 49.1206 12.3777 608 142.729 1169.51 460.576
559 0 51.258 13.7735 706 132.537 1168.95 458.584
560 0 53.1407 16.2399 863 127.214 1168.95 459.238
561 0 53.1309 12.7421 677 135.86 1169.66 457.812
562 0 56.1995 14.1104 793 133.417 1170.9 456.255
563 0 57.4924 15.7412 905 128.724 1171.79 456.452
564 0 59.3461 14.8788 883 129.913 1173.17 450.989
565 0 62.0947 15.1543 941 129.286 1175.12 450.775
566 0 60.3278 12.8796 777 134.122 1176.64 452.561
567 0 65.4967 16.184 1060 125.029 1178.9 450.325
568 0 68.3398 16.1838 1106 124.275 1180.56 452.21
569 0 68.0809 13.1021 892 133.961 1180.96 448.837
570 0 71.4021 14.5654 1040 129.287 1181.66 453.279
571 0 72.336 13.7552 995 128.89 1181.85 455.44
572 1 39.0306 10.9401 427 132.3 1182.36 471.696
573 0 41.1348 11.8878 489 130.814 1182.94 470.879
574 0 42.1166 11.5869 488 133.404 1182.39 472.561
575 0 42.0122 10.5208 442 141.55 1181.93 470.728
576 0 46.089 11.9117 549 138.719 1181.05 473.954
577 0 48.1373 12.2358 589 141.888 1181.58 471.781
578 0 47.2607 13.5207 639 142.942 1181.23 471.358
579 0 49.3844 13.7898 681 140.833 1181.46 468.103
580 0 49.1206 11.3191 556 140.115 1179.43 468.165
581 0 51.2013 12.3825 634 142.681 1177.62 472.289
582 0 54.1533 14.7175 797 139.321 1176.45 470.497
583 0 55.0632 15.8545 873 138.483 1174.73 467.261
584 0 56.1094 12.6895 712 144.492 1173.28 468.799
585 0 56.1188 14.2555 800 143.769 1171.55 465.251
586 0 60.1189 18.6796 1123 132.474 1170.54 466.863
587 0 62.0836 13.2885 825 143.024 1169.17 466.678
588 0 64.0851 12.4366 797 143.757 1168.38 466.777
589 0 65.1098 12.9013 840 144.549 1167.29 462.605
590 0 69.1059 16.974 1173 135.208 1167.29 459.394
591 0 69.1891 18.052 1249 133.599 1166.39 458.768
592 0 74.1396 15.4438 1145 138.306 1166.01 457.897
593 0 74.2644 16.2393 1206 138.363 1166 453.817
594 0 76.2111 16.0082 1220 140.61 1165.95 452.252
595 0 78.1473 15.8291 1237 140.306 1166.69 453.058
596 1 42.0312 9.82604 413 147.814 1166.66 472.024
597 0 46.0987 13.0806 603 142.997 1167.25 469.113
598 0 46.0505 10.2062 470 150.315 1168.72 469.168
599 0 48.0259 10.8067 519 144.435 1170.07 471.919
600 0 50.0681 12.0636 604 142.589 1172.4 470.343
601 0 51.125 16.2152 829 137.048 1174.03 469.501
602 0 54.1748 12.6073 683 144.539 1174.81 468.578
603 0 54.1748 12.6258 684 156.937 1176.83 468.509
604 0 57.1893 15.3875 880 140.651 1179.04 464.689
605 0 58.1213 15.244 886 137.818 1179.13 466.572
606 0 59.0761 13.9143 822 141.686 1179.29 466.536
607 0 60.1538 12.9335 778 144.143 1178.81 466.163
608 0 63.0765 14.5379 917 140.193 1178.06 466.451
609 0 63.0882 12.7758 806 146.536 1178.68 465.952
610 0 66.1326 12.6715 838 145.451 1177.94 465.078
611 0 69.1347 15.6651 1083 140.273 1175.98 464.76
612 0 72.1383 17.1615 1238 137.662 1175.65 465.159
613 0 77.1477 16.2416 1253 139.622 1174.34 462.879
614 0 80.1632 14.0214 1124 144.588 1173.3 461.76
615 0 80.2742 16.0575 1289 140.812 1171.52 459.742
616 0 81.1276 13.1151 1064 148.621 1170.36 457.654
617 0 86.2531 16.4168 1416 140.448 1168.77 453.991
618 1 45.1194 11.1039 501 144.162 1168.94 474.317
619 0 45.0694 11.0274 497 145.034 1167.72 473.487
620 0 45.0899 10.7785 486 151.984 1167.08 467.278
621 0 50.0494 10.6695 534 147.721 1166.4 468.26
622 0 50.0494 10.6295 532 151.37 1166.42 468.218
623 0 51.0608 13.3762 683 144.111 1165.25 463.616
624 0 53.0914 13.7122 728 143.034 1165.07 459.385
625 0 54.0612 14.3541 776 143.774 1165.9 459.451
626 0 56.0452 12.2044 684 146.673 1165.76 461.053
627 0 57.0196 14.1881 809 143.912 1165.65 456.643
628 0 59.1413 12.394 733 145.173 1167 456.538
629 0 59.0647 13.3413 788 142.887 1168.82 454.17
630 0 63.1408 14.0955 890 138.346 1169.16 453.849
631 0 66.0403 17.8527 1179 129.707 1170.92 454.524
632 0 64.0792 14.4821 928 144.168 1172.05 450.742
633 0 69.0713 14.4778 1000 140.634 1173.79 451.698
634 0 70.3894 14.9028 1049 141.128 1175.14 449.848
635 0 72.1235 13.5462 977 144.217 1177.5 452.492
636 0 75.1723 15.7638 1185 140.882 1179.62 452.493
637 0 76.1988 14.3441 1093 145.749 1180.03 449.191
638 0 80.1777 15.2661 1224 139.747 1180.94 455.342
639 0 82.1386 14.4025 1183 142.903 1181.46 452.063
640 0 85.2683 12.9943 1108 143.724 1181.69 452.287
641 0 86.3867 15.5348 1342 143.144 1180.24 447.993
642 0 89.4312 14.0108 1253 145.002 1179.42 446.366
643 1 49.039 10.3795 509 140.772 1180.14 470.014
644 0 53.0729 13.4909 716 132.332 1179.32 471.591
645 0 54.0517 11.526 623 137.868 1177.95 468.928
646 0 54.0552 10.8038 584 135.166 1177.25 473.502
647 0 56.066 12.4853 700 139.351 1176.38 469.187
648 0 59.0613 13.9516 824 134.949 1175.1 469.232
649 0 60.3877 13.5292 817 131.936 1172.08 466.105
650 0 61.1045 13.4033 819 135.708 1170.99 463.374
651 0 61.0941 11.9324 729 137.903 1171.53 463.145
652 0 64.2103 14.764 948 132.618 1170.34 458.801
653 0 67.1874 15.0772 1013 130.503 1169.49 461.86
654 0 67.2212 12.6448 850 136.214 1168.74 455.561
655 0 72.24 15.3931 1112 131.467 1167.92 453.39
656 0 76.5417 15.9782 1223 126.783 1167.6 456.626
657 0 75.1537 13.4524 1011 135.241 1166.82 451.552
658 0 78.4671 15.2421 1196 131.657 1166.87 447.907
659 0 82.4476 16.374 1350 130.056 1167.43 445.879
660 0 86.2316 17.7313 1529 127.036 1167.4 448.825
661 0 88.3722 14.6652 1296 132.235 1167.83 442.287
662 0 89.3754 14.5902 1304 135.844 1169.14 441.018
663 0 93.4862 11.4669 1072 139.059 1171.35 442.152
664 0 96.4181 13.3481 1287 135.644 1172.37 439.887
665 0 98.4357 12.9526 1275 136.599 1174.8 439.138
666 1 52.1151 14.1418 737 132.594 1177.63 458.798
667 0 54.2296 13.9039 754 133.068 1179.87 459.87
668 0 58.1307 15.8952 924 126.409 1180.62 460.211
669 0 59.1774 13.8566 820 127.772 1182.21 458.076
670 0 62.1567 15.8953 988 124.116 1183.49 459.034
671 0 63.2959 17.0311 1078 120.57 1184.22 462.778
672 0 64.189 14.8468 953 125.572 1183.62 459.24
673 0 65.2736 15.0444 982 126.369 1184.27 461.183
674 0 68.361 16.1934 1107 126.566 1182.65 458.377
675 0 71.8294 18.6692 1341 118.603 1182.4 464.349
676 0 71.8294 18.8224 1352 124.229 1182.37 464.396
677 0 71.8294 18.7528 1347 123.906 1182.39 464.386
678 0 76.2417 14.9787 1142 130.515 1179.6 457.096
679 0 78.3283 13.2264 1036 133.648 1178.01 457.479
680 0 82.228 13.8882 1142 132.345 1176.79 456.766
681 0 84.4018 17.0731 1441 129.149 1174.25 450.665
682 1 47.5427 12.6623 602 129.975 1171.13 468.668
683 0 48.2764 13.1949 637 130.617 1170.53 465.584
684 0 51.3014 10.5065 539 129.952 1168.29 469.386
685 0 52.2686 12.3975 648 134.154 1168.13 462.44
686 0 53.0459 12.8002 679 134.021 1168.58 464.776
687 0 56.1325 13.1118 736 132.654 1166.79 463.662
688 0 55.1026 13.0484 719 131.796 1166.53 461.008
689 0 58.0834 13.6528 793 129.412 1164.75 457.173
690 0 59.0992 14.3826 850 129.305 1166.51 457.44
691 0 60.0962 15.2755 918 127.318 1166.18 456.942
692 0 62.041 13.3138 826 133.178 1166.68 452.846
693 0 68.1435 16.524 1126 120.99 1165.36 454.861
694 0 68.1435 16.4212 1119 135.634 1165.35 454.917
695 0 68.1396 16.4222 1119 135.132 1165.35 454.917
696 0 70.1449 16.4944 1157 121.629 1169.26 447.36
697 0 74.1788 14.465 1073 124.435 1170.1 447.226
698 0 77.1567 15.1121 1166 123.551 1171.71 443.88
699 0 80.1829 17.3229 1389 119.233 1174.24 444.122
700 0 82.1048 14.9687 1229 121.517 1176.49 443.88
701 0 86.2289 13.9396 1202 123.295 1177.19 441.692
702 1 47.0488 9.81959 462 126.656 1178.14 465.528
703 0 47.0537 11.4337 538 123.338 1179.83 461.459
704 0 49.0964 14.3391 704 121.304 1179.17 461.506
705 0 50.1203 10.9736 550 125.14 1180.71 465.585
706 0 50.0878 12.5979 631 127.555 1180.48 463.054
707 0 52.0218 9.6498 502 128.797 1180.48 466.542
708 0 56.1 17.6114 988 116.874 1179.46 460.254
709 0 54.1716 14.0664 762 125.143 1180.99 463.841
710 0 57.0903 13.2772 758 127.03 1180.37 464.863
711 0 59.1344 14.8306 877 127.217 1178.32 461.851
712 0 61.2388 14.4843 887 126.891 1177.18 461.221
713 0 62.1082 14.1205 877 128.486 1175.99 458.827
714 0 63.095 12.2197 771 132.939 1174.21 460.03
715 0 65.3475 14.7672 965 128.301 1173.43 456.697
716 0 69.2904 14.432 1000 128.699 1171.24 456.136
717 0 68.0982 13.3777 911 130.516 1170.39 453.987
718 0 73.2268 14.9808 1097 127.281 1168.99 453.536
719 0 75.3012 14.3424 1080 127.583 1168.41 452.831
720 0 75.0993 13.369 1004 131.166 1167.55 449.137
721 0 81.3543 14.9593 1217 129.769 1167.46 447.822
722 1 42.0707 13.2396 557 132.6 1168.23 463.088
723 0 47.1657 14.29 674 127.893 1167.8 462.159
724 0 47.0584 10.6676 502 132.639 1168.3 461.568
725 0 47.1407 12.8339 605 131.38 1168.28 460.028
726 0 49.0364 12.4805 612 128.059 1168.86 459.114
727 0 49.0341 12.0732 592 130.912 1169.68 456.628
728 0 53.093 12.5064 664 129.383 1169.95 454.703
729 0 53.175 12.788 680 127.565 1171.5 454.843
730 0 55.1301 14.6018 805 128.143 1174.3 456.509
731 0 59.2069 17.025 1008 123.885 1176.67 455.638
732 0 58.2308 12.5363 730 132.464 1176.88 458.544
733 0 59.0435 14.3623 848 129.547 1178.38 458.368
734 0 61.1674 15.4331 944 130.215 1179.65 455.987
735 0 63.129 15.3178 967 135.555 1180.33 458.415
736 0 63.129 15.3178 967 144.397 1180.33 458.491
737 0 69.1431 15.1859 1050 135.899 1181.4 460.497
738 0 71.2365 16.0171 1141 137.613 1181.17 457.147
739 0 76.1508 18.0957 1378 136.44 1180.7 459.747
740 0 75.2863 17.3737 1308 140.891 1180.48 456.213
741 0 79.1668 13.9958 1108 146.811 1179.6 459.68
742 1 43.3068 11.153 483 148.364 1178.46 477.104
743 0 43.2665 11.5332 499 147.641 1177.46 478.844
744 0 44.077 12.0698 532 145.821 1177.35 479.066
745 0 47.3429 13.7085 649 145.136 1175.49 474.194
746 0 47.3429 13.7296 650 143.685 1173.48 474.205
747 0 51.2659 15.0197 770 142.929 1172.42 473.91
748 0 50.1228 15.7812 791 145.021 1171 468.947
749 0 52.2764 15.9154 832 146.084 1169.62 468.038
750 0 54.3497 15.4739 841 146.704 1169.04 468.156
751 0 58.4941 16.8906 988 141.057 1168.17 469.144
752 0 56.1646 14.4931 814 150.806 1166.94 467.419
753 0 58.1607 15.3712 894 147.538 1166.5 465.449
754 0 61.3706 17.1255 1051 140.734 1166.37 467.156
755 0 61.2309 16.8869 1034 143.045 1166.05 465.064
756 0 60.182 14.4728 871 151.02 1165.56 461.728
757 0 62.2195 15.7507 980 147.645 1165.65 459.17
758 0 64.2367 16.3925 1053 146.25 1165.88 459.986
759 0 65.175 13.9931 912 151.844 1166.75 456.453
760 0 70.1991 15.7409 1105 146.548 1167.24 455.108
761 0 71.2821 15.5298 1107 145.723 1168.52 454.36
762 0 73.2884 15.1457 1110 146.676 1169.49 452.409
763 1 40.1402 10.0398 403 153.005 1171.72 467.278
764 0 42.2097 11.9404 504 146.579 1174.48 469.812
765 0 43.1698 10.1923 440 154.618 1174.83 466.736
766 0 42.2359 10.4413 441 154.694 1176.34 467.794
767 0 48.3471 12.0379 582 150.627 1176.72 467.95
768 0 49.1071 12.9513 636 147.116 1178.69 470.286
769 0 46.2644 12.1259 561 153.244 1178.95 467.966
770 0 49.1211 12.4794 613 152.357 1179.17 467.597
771 0 53.1492 13.1705 700 147.349 1179.18 468.954
772 0 50.0361 12.0313 602 152.837 1178.68 469.517
773 0 57.1174 16.2472 928 139.407 1177.54 471.404
774 0 60.1411 17.6419 1061 135.317 1177.23 473.104
775 0 62.1629 16.6659 1036 138.014 1176.09 470.472
776 0 64.3377 18.2008 1171 135.323 1174.34 469.676
777 0 64.2072 14.8737 955 141.369 1173.06 472.209
778 0 69.1421 16.2708 1125 139.044 1170.87 466.861
779 0 70.1677 14.2088 997 143.936 1169.74 462.034
780 0 72.1732 13.5646 979 144.037 1168.31 464.203
781 0 76.143 16.7054 1272 138.639 1166.8 459.82
782 0 79.1631 17.7229 1403 134.585 1164.98 460.166
783 0 81.3529 14.8612 1209 141.028 1164.79 453.997
784 0 88.3936 15.2047 1344 138.376 1164.05 455.389
785 0 83.076 12.8316 1066 147.855 1162.81 450.124
786 0 88.2083 16.1549 1425 139.747 1162.1 447.384
787 0 90.2274 14.6962 1326 140.848 1161.51 446.754
788 0 94.493 15.2604 1442 141.011 1161.58 440.63
789 1 51.3807 11.3856 585 135.568 1161.81 463.338
790 0 54.4746 11.6935 637 135.345 1162.23 461.03
791 0 55.4494 12.5159 694 133.107 1162.91 455.961
792 0 57.3411 11.9635 686 130.758 1163.59 456.832
793 0 60.5433 14.0395 850 127.466 1164.1 452.458
794 0 63.2554 15.1766 960 129.359 1165.3 451.241
795 0 65.5178 15.3851 1008 124.863 1166.39 449.143
796 0 67.2861 13.673 920 129.132 1168.01 450.262
797 0 70.2177 13.33 936 128.816 1169.25 450.23
798 0 74.1777 13.6429 1012 128.684 1171.97 447.323
799 0 74.2224 15.4536 1147 130.795 1173.78 446.366
800 0 78.3556 15.1999 1191 129.7 1175.26 444.303
801 0 80.3842 17.1924 1382 126.343 1176.22 444.35
802 0 81.4457 12.671 1032 136.823 1177.6 441.031
803 0 86.7424 14.5027 1258 132.749 1178.77 443.765
804 0 89.3654 14.1889 1268 136.475 1179.08 442.231
805 0 92.6932 14.316 1327 135.659 1179.26 443.444
806 0 96.4136 18.8148 1814 130.067 1179.55 441.069
807 0 94.3039 12.7142 1199 143.703 1179.62 440.204
808 0 100.505 12.9745 1304 141.864 1179.32 443.576
809 0 102.562 15.9904 1640 137.69 1178.71 435.971
810 1 57.3075 10.7665 617 140.987 1178.76 464.35
811 0 58.2664 11.5504 673 139.918 1178.48 463.914
812 0 61.2676 11.2131 687 139.032 1177.78 465.888
813 0 64.2769 13.3796 860 139.544 1177.35 458.641
814 0 65.2239 13.17 859 139.491 1176.23 459.144
815 0 68.1662 14.626 997 137.211 1174.89 457.992
816 0 71.1582 13.7862 981 138.335 1174.01 458.319
817 0 74.2482 16.5526 1229 134.553 1172.8 453.141
818 0 75.1009 14.1143 1060 139.665 1172.19 453.125
819 0 78.1693 15.7863 1234 135.742 1170.93 452.037
820 0 78.1641 15.9664 1248 135.844 1170.75 452.298
821 0 83.1743 14.2352 1184 139.948 1170.1 446.305
822 0 86.2123 15.6242 1347 135.658 1169.84 444.882
823 0 89.0829 16.479 1468 134.726 1169.88 440.586
824 0 92.1911 15.5004 1429 138.118 1170.91 438.792
825 0 96.1756 15.3469 1476 135.334 1171.4 440.088
826 1 48.0577 9.17648 441 141.796 1171.87 460.846
827 0 53.0995 12.9568 688 137.917 1173 457.667
828 0 53.0995 12.9568 688 138.448 1175.07 457.552
829 0 53.1588 10.0078 532 141.485 1175.17 456.261
830 0 58.0852 13.7901 801 126.203 1175.09 457.472
831 0 58.3118 13.8565 808 125.147 1177.6 455.915
832 0 61.0436 13.9572 852 132.702 1176.78 455.134
833 0 62.0427 12.2819 762 135.923 1178.7 455.196
834 0 64.1105 13.2896 852 134.317 1179.82 453.88
835 0 67.0929 15.4115 1034 127.845 1180.7 453.119
836 0 70.1226 16.4854 1156 122.311 1182.27 456.498
837 0 74.2498 15.4613 1148 126.148 1181.67 450.767
838 0 74.192 15.2847 1134 127.062 1181.3 456.262
839 0 76.1761 15.2935 1165 130.845 1180.95 450.767
840 0 80.1084 18.3876 1473 129.494 1181.07 452.766
841 0 83.2269 14.9952 1248 135.758 1180.67 453.044
842 0 85.1791 14.4754 1233 138.829 1179.81 451.418
843 0 89.231 13.6051 1214 141.05 1179.03 451.118
844 0 93.1918 17.7161 1651 133.069 1179.84 451.75
845 1 47.0445 9.01274 424 142.212 1178.19 473.21
846 0 48.0137 9.68474 465 136.768 1177.49 476.686
847 0 46.0648 9.13931 421 141.872 1175.99 472.416
848 0 51.0699 13.3542 682 133.988 1173.77 471.201
849 0 52.0771 12.5583 654 134.248 1171.09 467.757
850 0 52.0146 13.8999 723 130.936 1170.93 469.513
851 0 54.1174 13.1381 711 137.738 1170.33 465.669
852 0 57.1544 12.8949 737 136.791 1169.95 465.769
853 0 58.0689 13.7079 796 137.05 1169.54 460.457
854 0 58.0555 13.6077 790 137.377 1169.47 458.563
855 0 59.0132 10.9636 647 141.782 1168.89 459.06
856 0 62.1328 11.2501 699 141.744 1168.56 456.682
857 0 67.0913 14.8156 994 132.135 1168.71 455.857
858 0 70.0511 15.2032 1065 132.046 1169.42 453.922
859 0 69.0544 13.4242 927 134.809 1169.75 454.495
860 0 72.0936 13.4825 972 134.164 1170.45 453.234
861 0 76.0833 18.4009 1400 125.145 1171.01 451.322
862 1 39.1305 12.0622 472 130.583 1172.87 469.451
863 0 41.1008 9.4402 388 130.827 1174.48 470.629
864 0 41.0503 8.79409 361 133.784 1175.64 469.172
865 0 44.0412 12.5564 553 128.063 1177.76 466.774
866 0 46.0671 11.874 547 130.256 1178.56 469.386
867 0 45.2067 12.653 572 130.397 1179.76 467.879
868 0 48.1806 13.3871 645 126.653 1179.98 465.978
869 0 45.1248 13.6067 614 129.178 1180.31 467.604
870 0 49.3856 13.1415 649 130.858 1180.95 467.911
871 0 54.2948 15.1211 821 125.128 1180.11 467.792
872 0 52.0802 11.9239 621 135.071 1179.74 466.221
873 0 54.3574 14.4783 787 129.119 1180.49 466.809
874 0 55.1953 13.7512 759 130.837 1179.96 467.41
875 0 57.1969 14.1441 809 130.927 1179.7 468.352
876 0 57.198 12.4305 711 134.684 1178.58 468.304
877 0 60.2596 15.1345 912 130.712 1176.64 467.281
878 0 60.2444 14.6072 880 132.609 1175.38 465.51
879 0 62.1682 15.6994 976 131.305 1174.41 463.109
880 0 64.2388 14.6796 943 134.608 1172.72 461.365
881 0 67.2008 15.5504 1045 132.189 1171.47 461.256
882 0 69.1785 17.5488 1214 129.013 1170 460.479
883 0 69.0801 15.0839 1042 134.429 1167.12 459.586
884 0 72.1854 14.1995 1025 135.231 1165.65 454.902
885 0 75.1596 13.5445 1018 136.279 1164.94 455.915
886 0 77.3634 13.2362 1024 135.884 1164.6 455.499
887 1 41.1638 12.0251 495 136.861 1164.29 467.273
888 0 41.0702 10.056 413 136.216 1163.72 470.584
889 0 45.0442 12.1658 548 134.993 1163.92 465.619
890 0 46.0939 12.2359 564 137.849 1163.99 462.551
891 0 48.341 14.0254 678 130.975 1163.9 461.59
892 0 49.0223 12.4433 610 134.705 1164.65 460.193
893 0 52.3563 14.535 761 129.265 1168.23 457.507
894 0 52.1634 14.282 745 124.858 1168.57 459.224
895 0 52.1289 15.1739 791 129.226 1170.16 458.451
896 0 53.2261 14.0532 748 130.73 1171.72 458.519
897 0 57.2132 15.2063 870 127.715 1173.54 456.279
898 0 60.0818 16.9602 1019 124.366 1175.24 455.131
899 0 60.1151 12.3264 741 131.777 1176.77 455.761
900 0 62.1139 15.1496 941 127.7 1178.39 457.091
901 0 64.277 13.9863 899 130.849 1179.88 457.515
902 0 64.1741 13.6348 875 132.987 1180.15 454.349
903 0 68.083 12.7051 865 135.569 1180.85 457.879
904 0 72.1282 17.4273 1257 124.5 1181.6 459.202
905 0 73.1689 13.1203 960 134.525 1181 459.498
906 0 74.1659 13.8069 1024 133.408 1181.42 457.373
907 0 79.0676 15.746 1245 129.998 1180.9 455.779
908 1 42.2479 13.8942 587 124.336 1181.3 472.618
909 0 44.2431 10.0355 444 129.82 1180.41 474.243
910 0 46.2748 11.5398 534 130.165 1179.36 470.569
911 0 47.0482 12.4341 585 127.68 1178.43 474.532
912 0 49.172 14.9882 737 124.932 1177.24 468.394
913 0 49.0678 11.5147 565 129.611 1175.82 469.529
914 0 52.0544 12.4101 646 127.076 1174.97 467.842
915 0 54.0878 14.7538 798 120.848 1172.47 465.788
916 0 55.0978 13.7211 756 122.836 1171.48 461.967
917 0 56.2869 12.8982 726 124.913 1170.2 459.836
918 0 58.2578 12.994 757 123.14 1168.97 461.402
919 0 59.2386 11.192 663 127.466 1168.96 454.484
920 0 61.2223 12.2178 748 125.759 1167.45 455.245
921 0 61.2011 12.222 748 128.906 1166.42 455.405
922 0 65.1566 13.7975 899 122.701 1167.49 451.212
923 0 68.3031 12.5617 858 121.666 1167.44 452.671
924 0 69.2463 13.026 902 124.757 1167.33 445.244
925 0 72.256 13.037 942 127.732 1168.17 444.642
926 0 71.1659 12.4638 887 125.303 1169.08 444.457
927 0 75.1594 11.2827 848 123.693 1170.07 442.892
928 0 79.1353 13.6222 1078 123.026 1170.74 441.672
929 0 83.1662 12.986 1080 124.117 1173.17 441.928
930 0 84.3603 13.0512 1101 123.248 1174.88 438.56
931 0 87.3955 12.7009 1110 125.286 1176.9 438.328
932 1 48.1027 11.7249 564 125.913 1179.87 462.564
933 0 48.2039 11.4928 554 126.989 1181.37 461.722
934 0 55.5982 14.9825 833 116.251 1181.92 466.089
935 0 51.114 12.7167 650 125.166 1182.9 462.442
936 0 54.1279 11.713 634 126.61 1183.58 463.205
937 0 55.4346 12.375 686 121.485 1183.46 459.328
938 0 54.1271 12.1935 660 119.694 1184 460.221
939 0 56.223 11.2054 630 124.235 1183.51 456.862
940 0 60.1549 12.2351 736 122.334 1183.05 458.755
941 0 58.2104 13.5715 790 121.92 1182.49 460.513
942 0 61.2573 12.2598 751 126.517 1181.95 457.49
943 0 60.242 12.234 737 132.562 1180.64 458.376
944 0 64.2136 11.5552 742 130.867 1179.79 454.395
945 0 67.1201 13.528 908 130.619 1178.62 454.975
946 0 67.2172 14.6986 988 129.329 1178.16 452.881
947 0 69.2169 10.8066 748 136.329 1176.38 450.352
948 0 69.2034 12.8317 888 133.314 1175.35 452.328
949 0 74.2833 9.61185 714 138.711 1173.61 444.196
950 1 36.072 7.37413 266 134.632 1173.61 465.229
951 0 43.0738 10.6794 460 126.57 1172.36 466.396
952 0 44.2078 10.3149 456 123.836 1171.8 466.393
953 0 44.1364 12.5973 556 121.403 1170.69 462.004
954 0 45.122 11.7681 531 125.499 1170.31 458.077
955 0 48.1813 14.1134 680 126.646 1169.1 463.559
956 0 49.1246 13.4352 660 125.323 1170.37 462.897
957 0 51.183 15.1222 774 124.837 1169.68 460.132
958 0 55.3892 15.4362 855 119.204 1170.87 461.647
959 0 56.1858 13.5265 760 123.499 1172.87 459.354
960 0 55.1367 12.4962 689 127.009 1173.15 454.743
961 0 57.1882 14.0414 803 122.603 1174.34 458.01
962 0 57.1823 11.6295 665 128.011 1176.42 457.095
963 0 62.1106 14.6513 910 121.779 1176.92 454.891
964 0 61.2714 13.1872 808 123.717 1179.01 453.786
965 0 63.1336 12.5607 793 125.986 1180.96 452.142
966 0 62.1101 12.7032 789 126.292 1182.6 453.147
967 0 69.1093 18.2465 1261 115.508 1183.26 453.577
968 0 67.0915 14.5175 974 121.531 1184.4 452.516
969 0 70.2316 12.3876 870 123.582 1185.81 453.577
970 0 73.314 13.0534 957 122.791 1185.39 455.271
971 0 75.1778 17.9042 1346 121.539 1185.06 453.52
972 0 76.5042 13.1365 1005 125.103 1185.23 451.97
973 0 79.2419 13.8311 1096 127.721 1183.97 451.026
974 0 81.118 12.6975 1030 129.984 1183.22 451.038
975 0 84.5274 15.3796 1300 128.357 1182.29 447.663
976 0 86.4142 15.2637 1319 131.961 1180.78 445.446
977 0 87.3374 13.4192 1172 137.683 1179.45 447.648
978 0 89.1688 13.009 1160 136.612 1178.69 444.732
979 0 93.2494 12.5255 1168 136.743 1177.62 437.099
980 1 50.1016 10.9378 548 133.445 1176.26 461.513
981 0 49.1405 10.8871 535 131.026 1174.98 464.966
982 0 52.0671 8.94999 466 132.846 1173.4 463.004
983 0 55.0284 12.6662 697 127.33 1171.81 459.867
984 0 58.2077 10.9951 640 126.88 1171.29 460.317
985 0 56.1569 7.6215 428 135.544 1169.94 454.533
986 0 58.2155 12.7629 743 126.795 1169.58 451.382
987 0 62.0798 11.8396 735 128.558 1168.79 447.912
988 0 68.1232 13.6958 933 121.255 1168.49 449.532
989 0 68.0973 11.5423 786 127.807 1168.53 445.551
990 0 72.2317 11.8923 859 122.547 1168.28 444.617
991 0 72.1061 12.5926 908 122.9 1168.75 441.606
992 0 77.1074 15.6535 1207 116.449 1168.93 442.577
993 0 80.1582 11.5522 926 123.407 1169.51 439.051
994 0 85.1593 13.692 1166 119.167 1170.48 437.462
995 0 88.0865 13.4981 1189 117.521 1171.99 440.56
996 0 89.2714 13.1061 1170 120.937 1174.28 436.826
997 1 48.1951 11.6609 562 115.162 1174.76 453.915
998 0 52.2543 11.8268 618 109.516 1177.07 460.629
999 0 46.0668 10.3328 476 115.565 1177.48 460.473
1000 0 55.2143 9.12807 504 115.04 1179.78 462.468
1001 0 54.0946 12.7739 691 116.143 1180.26 455.66
1002 0 58.1588 16.7816 976 112.688 1181.97 457.666
1003 0 59.0657 16.7779 991 118.872 1182.88 457.581
1004 0 62.0673 14.5648 904 121.26 1183.26 460.895
1005 0 63.1577 14.2975 903 129.908 1183.69 459.673
1006 0 65.1685 15.084 983 125.988 1184.33 457.49
1007 0 67.1488 18.258 1226 120.967 1184.4 459.382
1008 0 70.0829 15.7528 1104 126.638 1183.32 461.362
1009 0 72.0863 16.8964 1218 127.003 1184.04 460.259
1010 0 73.0738 16.7776 1226 129.069 1182.4 460.011
1011 0 75.1073 13.1678 989 136.313 1181.13 459.293
1012 0 77.1401 15.2839 1179 133.196 1180.36 461.375
1013 0 78.2083 15.4971 1212 135.081 1178.98 457.427
1014 1 45.0209 10.5062 473 135.533 1177.71 478.042
1015 0 42.0919 10.5959 446 135.354 1176.04 477.993
1016 0 44.1039 13.1508 580 134.941 1174.71 473.655
1017 0 47.0407 13.7115 645 133.589 1173.73 471.86
1018 0 46.049 10.5974 488 140.301 1172.81 472.795
1019 0 49.1744 15.8009 777 131.844 1171.64 470.313
1020 0 50.3043 11.6292 585 139.701 1170.08 468.556
1021 0 53.2006 16.0901 856 130.539 1169.68 467.84
1022 0 50.3541 13.9015 700 136.333 1168.85 465.139
1023 0 54.3491 13.7629 748 134.882 1168.29 463.531
1024 0 57.374 18.3358 1052 126.772 1168.89 463.662
1025 0 56.3009 15.3283 863 133.506 1168.48 462.039
1026 0 55.2574 12.2337 676 142.16 1168.97 462.096
1027 0 61.2281 15.4504 946 133.26 1170.02 463.248
1028 0 63.2117 19.4742 1231 126.663 1171.01 463.827
1029 0 60.1996 16.5948 999 133.2 1171.46 457.948
1030 0 65.242 17.0289 1111 130.682 1173.04 459.635
1031 0 68.2702 16.5079 1127 131.573 1175 457.592
1032 0 68.225 16.8267 1148 132.968 1176.5 459.282
1033 0 70.2003 13.0911 919 142.405 1177.81 457.844
1034 0 76.228 18.3922 1402 128.852 1178.9 459.518
1035 0 77.3421 16.4981 1276 132.794 1179.83 456.781
1036 0 78.1683 15.4282 1206 135.783 1180.97 457.479
1037 0 83.2442 19.7491 1644 126.446 1180.79 453.153
1038 1 42.0668 8.70046 366 143.115 1182.05 478.527
1039 0 45.1125 13.2336 597 134.667 1181.93 478.742
1040 0 47.0499 12.8799 606 136.606 1181.02 477.281
1041 0 48.0476 16.2339 780 126.259 1180.84 476.986
1042 0 52.2353 15.1622 792 126.822 1179.82 477.86
1043 0 52.174 14.9883 782 127.903 1177.84 477.083
1044 0 54.134 17.8261 965 121.059 1177.09 479.232
1045 0 56.2432 13.4061 754 128.085 1175.38 477.358
1046 0 56.037 15.1507 849 126.286 1173.79 474.906
1047 0 60.039 14.1408 849 127.291 1171.52 474.392
1048 0 59.0791 13.8289 817 130.234 1170.41 470.075
1049 0 62.1258 15.1306 940 126.402 1169.21 471.048
1050 0 63.0423 14.0223 884 127.908 1168.05 469.978
1051 0 64.3639 14.2782 919 129.559 1167.34 464.369
1052 0 65.2079 14.0474 916 130.723 1166.66 462.297
1053 0 69.3615 13.2927 922 130.701 1166.01 457.248
1054 0 68.0886 16.6254 1132 125.361 1166.71 462.817
1055 0 72.0946 13.94 1005 130.483 1166.52 458.883
1056 0 73.0996 14.8428 1085 128.854 1166.36 454.945
1057 0 77.1845 19.1101 1475 120.482 1167.4 452.302
1058 0 78.1814 15.1826 1187 129.641 1167.42 448.564
1059 0 81.323 15.6905 1276 127.454 1168.02 445.9
1060 0 85.475 15.2793 1306 127.864 1167.81 440.482
1061 0 87.3328 14.107 1232 128.602 1168.91 439.61
1062 0 90.3019 12.6575 1143 130.224 1170.46 440.117
1063 1 48.1248 17.6624 850 118.986 1172.52 460.128
1064 0 50.32 13.9507 702 124.034 1174.1 463.41
1065 0 49.1381 13.7978 678 126.693 1175.52 459.935
1066 0 52.3427 13.7555 720 127.136 1176.52 459.7
1067 0 54.1258 13.6903 741 125.663 1178.23 458.953
1068 0 55.0337 17.0259 937 120.228 1179.51 459.947
1069 0 55.0852 15.5214 855 122.572 1181.02 458.2
1070 0 59.1403 14.2711 844 124.313 1181.76 460.033
1071 0 61.1488 15.356 939 122.46 1182.04 459.734
1072 0 60.1941 13.1574 792 131.131 1182.76 463.902
1073 0 65.0999 10.8295 705 130.37 1182.52 465.308
1074 0 68.235 18.7294 1278 119.43 1182.74 460.647
1075 0 67.0975 13.622 914 131.209 1182.37 461.688
1076 0 69.26 14.2218 985 132.07 1182.07 459.962
1077 0 74.0929 13.0377 966 133.714 1181.41 456.84
1078 1 41.1047 9.82856 404 136.715 1179.89 468.344
1079 0 40.1733 10.8032 434 134.622 1178.78 472.237
1080 0 43.1025 11.0666 477 136.258 1178.08 469.275
1081 0 44.1112 9.09067 401 139.444 1176.29 468.247
1082 0 47.1468 12.3656 583 129.388 1175.78 472.317
1083 0 50.059 16.8201 842 123.071 1174.02 468.828
1084 0 50.1531 13.0401 654 130.573 1173.07 468.72
1085 0 51.2841 12.616 647 133.994 1171.13 461.992
1086 0 51.1277 13.5347 692 131.776 1170.48 460.598
1087 0 55.1059 15.5882 859 126.539 1170.65 459.303
1088 0 58.0635 19.2031 1115 122.436 1170.11 459.138
1089 0 61.0628 15.8689 969 126.212 1169.91 455.141
1090 0 62.069 17.6739 1097 125.734 1168.81 453.136
1091 0 65.1138 15.3884 1002 126.244 1169.48 450.758
1092 0 66.2859 20.2758 1344 117.16 1169.29 451.629
1093 0 67.2167 14.8773 1000 128.263 1169.51 446.251
1094 0 74.3865 20.2859 1509 117.646 1170.47 443.844
1095 0 74.1499 18.0041 1335 122.428 1172.19 446.067
1096 0 77.1637 15.344 1184 125.802 1173.46 446.042
1097 0 79.2763 22.327 1770 114.756 1174.72 444.465
1098 0 84.3617 19.8431 1674 122.75 1175.77 441.139
1099 1 45.0774 12.9111 582 124.94 1178.58 462.565
1100 0 50.1118 11.634 583 128.238 1180.78 462.731
1101 0 48.0802 9.62975 463 128.4 1183.33 464.652
1102 0 49.1196 14.6988 722 125.496 1182.43 460.663
1103 0 51.1099 13.5981 695 126.109 1182.19 457.843
1104 0 53.1795 17.77 945 118.856 1183.09 457.613
1105 0 55.2329 17.0732 943 119.087 1183.65 461.722
1106 0 57.3499 16.4255 942 119.934 1184.64 465.31
1107 0 60.0798 17.3436 1042 121.758 1183.68 464.872
1108 0 60.0497 17.1525 1030 130.842 1183.51 464.708
1109 0 61.2043 16.3061 998 132.577 1182.68 464.619
1110 0 64.2732 15.4964 996 132.1 1181.91 464.557
1111 0 67.0913 16.3807 1099 131.454 1180.38 463.814
1112 0 70.1538 15.9934 1122 132.057 1178.95 461.613
1113 0 72.0964 14.4251 1040 136.895 1177.15 460.87
1114 1 29.0181 9.82146 285 134.923 1175.82 482.782
1115 0 40.0918 8.82973 354 136.989 1176.05 475.494
1116 0 40.1724 12.4215 499 131.112 1174.11 474.631
1117 0 42.2307 10.9873 464 131.377 1172.39 475.907
1118 0 45.0283 13.5914 612 129.029 1170.14 471.972
1119 0 45.087 14.5275 655 131.67 1168.88 471.221
1120 0 45.374 12.7826 580 135.103 1168 470.495
1121 0 47.1001 17.1125 806 124.445 1168.23 469.587
1122 0 48.0645 14.1893 682 129.853 1168.14 471.18
1123 0 48.0432 14.2164 683 131.568 1167.85 468.757
1124 0 51.1683 14.1885 726 130.433 1167.15 466.868
1125 0 52.1084 14.2779 744 129.321 1167.29 466.3
1126 0 54.0751 13.0929 708 132.734 1167.17 464.975
1127 0 54.1101 15.8935 860 129.026 1167.88 460.417
1128 0 55.1936 13.7154 757 133.464 1167.85 460.391
1129 0 58.1828 13.1998 768 133.444 1168.82 459.81
1130 0 61.2423 14.7447 903 130.625 1169.89 460.134
1131 0 63.1505 16.4686 1040 126.555 1171.79 459.724
1132 0 65.1844 14.7735 963 130.586 1172.87 457.511
1133 0 69.114 16.2775 1125 128.28 1174.27 457.244
1134 0 69.1658 12.7231 880 135.401 1176.08 457.308
1135 1 36.0134 13.1618 474 133.152 1177.8 473.622
1136 0 37.1055 11.7503 436 136.628 1178.98 474.025
1137 0 40.0629 12.7799 512 133.965 1179.47 473.576
1138 0 41.1002 11.2895 464 136.022 1179.85 472.735
1139 0 43.1644 12.3945 535 133.675 1179.78 475.55
1140 0 43.1381 13.1902 569 131.346 1179.78 476.815
1141 0 43.168 11.0267 476 139.838 1178.89 475.807
1142 0 47.0859 9.7269 458 142.063 1177.92 475.603
1143 0 46.0805 11.2412 518 139.888 1176.68 474.963
1144 0 49.0384 11.3788 558 139.296 1175.63 475.16
1145 0 49.1769 14.336 705 135.896 1173.53 470.065
1146 0 51.2956 12.5352 643 138.191 1172.24 470.289
1147 0 53.4193 12.7669 682 138.309 1170.46 467.757
1148 0 57.0845 13.2961 759 136.468 1168.94 468.252
1149 0 58.2726 13.1794 768 136.171 1167.37 467.092
1150 0 60.0565 14.7361 885 135.633 1165.68 461.65
1151 0 61.1323 14.1006 862 136.303 1165.06 463.166
1152 0 61.0716 16.9146 1033 132.162 1164.84 460.923
1153 0 64.1286 16.654 1068 130.441 1164.06 458.804
1154 0 66.0605 13.2303 874 137.315 1164.22 457.121
1155 0 68.0925 13.6138 927 137.641 1164.6 454.563
1156 1 35.0137 12.538 439 134.399 1163.87 471.241
1157 0 36.0933 6.42779 232 138.737 1164.95 474.599
1158 0 37.0238 10.8309 401 137.484 1165.13 470.569
1159 0 37.0888 9.67948 359 140.117 1165.58 470.663
1160 0 40.0074 12.2977 492 132.594 1167.18 471.48
1161 0 39.0721 12.1826 476 138.681 1168.22 465.721
1162 0 41.336 11.3702 470 135.679 1170.19 462.33
1163 0 43.0892 10.4435 450 132.996 1171.78 465.94
1164 0 44.044 11.988 528 130.163 1173.29 464.311
1165 0 45.0177 11.1067 500 132.888 1175.04 466
1166 0 47.0585 12.4951 588 128.816 1176.71 465.367
1167 0 46.0728 11.4818 529 133.497 1178.6 465.316
1168 0 47.0484 12.5403 590 132.563 1180.57 462.544
1169 0 51.1377 13.5712 694 130.867 1182.14 463.708
1170 0 53.0788 13.3387 708 129.407 1182.61 464.559
1171 0 56.0818 12.3391 692 131.251 1183.27 462.922
1172 0 56.1568 13.8006 775 129.27 1183.35 464.443
1173 0 58.1215 13.3685 777 133.295 1183.2 463.322
1174 0 60.1554 14.4958 872 130.893 1183.61 464.485
1175 0 62.1479 13.2426 823 135.898 1183.17 464.06
1176 0 62.1542 12.6782 788 138.287 1182.51 462.34
1177 0 66.0989 15.613 1032 133.479 1181.31 461.087
1178 0 70.1363 14.4576 1014 135.063 1180.68 462.924
1179 0 69.079 14.0274 969 138.638 1179.52 458.013
1180 1 37.0468 10.6082 393 138.954 1178.84 476.567
1181 0 37.0468 10.5002 389 134.535 1176.83 476.573
1182 0 38.0249 8.49444 323 143.833 1176.09 474.786
1183 0 43.1624 13.9241 601 131.414 1174.42 472.915
1184 0 44.0944 11.2713 497 137.529 1173.43 470.841
1185 0 45.1212 9.39692 424 139.627 1171.16 469.101
1186 0 46.1507 11.0508 510 140.6 1168.61 465.137
1187 0 46.0753 12.5664 579 135.926 1168.8 464.527
1188 0 49.0688 12.7168 624 134.471 1168.96 461.298
1189 0 50.1232 13.3272 668 133.283 1168.2 460.889
1190 0 52.1784 11.5565 603 136.461 1168.04 459.67
1191 0 56.1846 14.1142 793 129.199 1168.22 458.122
1192 0 56.166 12.6945 713 130.731 1169.51 458.648
1193 0 56.1552 12.8216 720 131.238 1169.39 454.008
1194 0 58.0944 13.5986 790 130.581 1170.08 454.405
1195 0 60.0732 13.3837 804 132.417 1171.98 451.756
1196 0 65.4004 14.2813 934 126.904 1174.23 454.167
1197 0 64.1366 14.0949 904 127.84 1175.52 450.565
1198 0 64.1572 12.8279 823 130.825 1177.05 450.476
1199 0 67.0519 13.1391 881 128.637 1179.58 451.017
1200 0 69.1545 15.6751 1084 123.458 1180.43 451.238
1201 0 72.2014 12.5205 904 132.951 1181.83 447.689
1202 0 77.1094 15.4975 1195 123.769 1182.83 447.48
1203 0 77.0841 12.1426 936 130.604 1182.8 447.786
1204 0 80.1592 12.4752 1000 129.149 1183.32 450.371
1205 1 44.127 11.4216 504 133.129 1183.1 466.631
1206 0 46.0718 13.696 631 126.532 1183.86 467.089
1207 0 49.0321 10.8093 530 136.049 1184.67 468.177
1208 0 50.0511 11.9877 600 135.555 1183.89 466.067
1209 0 51.0936 12.5847 643 136.075 1182.97 465.54
1210 0 53.0378 13.1604 698 135.705 1183 465.304
1211 0 56.0552 13.8078 774 134.31 1181.32 466.567
1212 0 56.0627 12.7357 714 137.768 1179.69 465.451
1213 0 62.034 14.7016 912 131.786 1179.28 465.717
1214 0 63.0821 14.3622 906 134.512 1178.04 462.717
1215 0 64.1026 13.0572 837 138.147 1176.97 461.203
1216 0 67.0665 15.1193 1014 134.281 1175.59 460.134
1217 0 69.187 14.7571 1021 132.277 1172.68 466.413
1218 0 72.092 16.146 1164 132.448 1171.27 460.404
1219 1 42.115 10.1389 427 135.656 1171.56 473.424
1220 0 39.109 10.3812 406 136.562 1170.91 472.02
1221 0 40.2663 9.63586 388 139.438 1169.92 470.668
1222 0 43.2111 10.6454 460 135.146 1169.11 469.365
1223 0 44.1317 11.7376 518 134.878 1168.85 465.141
1224 0 46.2864 13.3732 619 131.076 1168.64 464.927
1225 0 46.4944 14.2383 662 130.808 1167.14 467.177
1226 0 47.2254 13.5944 642 127.632 1167.97 464.502
1227 0 49.0637 11.3118 555 131.923 1169.17 466.47
1228 0 51.2559 12.9156 662 129.541 1169.89 463.81
1229 0 48.1244 9.18453 442 135.075 1170.76 460.955
1230 0 55.1869 12.8291 708 125.928 1171.78 460.065
1231 0 56.2415 13.4065 754 125.143 1173.85 456.471
1232 0 55.1095 12.3391 680 127.074 1174.77 458.691
1233 0 57.0879 11.8589 677 129.331 1176.47 457.366
1234 0 60.179 12.6622 762 127.487 1177.93 457.168
1235 0 61.3813 13.4732 827 126.885 1179.78 457.502
1236 0 65.2436 13.8711 905 125.401 1180.48 458.294
1237 0 65.2131 12.6815 827 128.761 1181.18 457.871
1238 0 66.352 11.9213 791 131.134 1181.24 458.92
1239 0 71.2417 13.8823 989 124.265 1182.05 462.948
1240 0 71.2936 13.4514 959 128.028 1181.33 459.132
1241 0 74.1771 16.6763 1237 122.189 1181.38 458.222
1242 0 76.2147 14.6691 1118 125.621 1180.41 459.697
1243 0 78.3062 15.3245 1200 124.989 1180.03 459.408
1244 0 80.3683 12.5547 1009 127.996 1178.57 459.69
1245 0 86.3022 16.0251 1383 121.845 1177.79 458.295
1246 0 89.3261 13.9825 1249 126.293 1176.26 452.465
1247 0 92.2252 17.4681 1611 120.039 1174.55 452.66
1248 1 47.1361 9.31346 439 131.713 1174.54 476.387
1249 0 48.1591 12.5833 606 126.809 1172.77 477.498
1250 0 52.1375 11.3738 593 129.659 1171.88 474.428
1251 0 51.2897 11.3278 581 131.589 1170.25 472.108
1252 0 53.3509 13.9079 742 127.33 1168.67 468.008
1253 0 55.2482 13.9914 773 127.26 1167.6 467.702
1254 0 58.1654 15.0949 878 124.62 1167.01 465.867
1255 0 61.0981 15.2214 930 123.4 1167.01 465.086
1256 0 62.0876 15.1721 942 122.954 1166.77 463.475
1257 0 63.2516 13.2803 840 126.064 1166.55 463.935
1258 0 66.0921 14.4798 957 124.059 1166.52 459.559
1259 0 69.3077 13.3896 928 125.272 1166.4 460.471
1260 0 72.1426 15.8852 1146 120.196 1166.26 459.38
1261 0 74.0836 19.127 1417 117.507 1166.49 454.224
1262 0 77.1342 20.7949 1604 114.862 1167.81 454.764
1263 0 79.0856 13.5044 1068 128.605 1168.71 450.582
1264 0 80.0988 14.5196 1163 129.22 1170.69 450.683
1265 0 84.1266 16.8912 1421 125.198 1171.57 447.476
1266 1 41.0508 10.2069 419 133.759 1174.58 471.504
1267 0 43.0353 10.2939 443 134.722 1175.34 470.479
1268 0 43.0349 10.3404 445 136.16 1178.11 470.294
1269 0 49.0861 13.731 674 129.274 1178.62 470.58
1270 0 49.2408 15.2516 751 130.079 1177.21 469.253
1271 0 48.2209 13.293 641 130.947 1179.97 469.685
1272 0 52.114 14.6794 765 127.829 1180.18 468.86
1273 0 52.0433 12.5857 655 131.98 1179.77 471.214
1274 0 55.0616 14.7108 810 127.907 1180.43 471.542
1275 0 57.0895 15.7472 899 126.402 1180.17 469.468
1276 0 59.158 14.3514 849 128.044 1179.12 471.647
1277 0 60.0825 14.4967 871 128.894 1178.41 472.11
1278 0 62.1449 16.5742 1030 126.628 1176.78 466.079
1279 0 67.0814 18.2912 1227 123.839 1175.69 467.911
1280 0 69.197 15.4776 1071 128.88 1174.3 466.921
1281 0 71.1549 16.19 1152 127.082 1172.52 467.254
1282 0 74.1407 17.4668 1295 125.782 1171.18 463.116
1283 0 74.079 15.8344 1173 129.103 1169.63 464.465
1284 0 81.1832 18.021 1463 124.228 1168.49 462.228
1285 0 80.0632 16.1747 1295 130.138 1167.13 459.667
1286 1 48.3536 13.1738 637 131.873 1167.52 475.323
1287 0 46.07 9.5724 441 136.655 1166.29 478.175
1288 0 48.1396 13.0869 630 132.575 1165.83 474.695
1289 0 48.1098 11.931 574 135.855 1165.33 472.955
1290 0 49.2339 12.6336 622 135.5 1163 472.272
1291 0 52.2329 14.3205 748 132.505 1163.68 470.837
1292 0 52.2399 11.964 625 132.227 1164.26 466.738
1293 0 56.3918 14.5411 820 131.727 1164.7 467.656
1294 0 51.2096 12.2048 625 141.262 1164.59 463.47
1295 0 57.1763 14.9188 853 130.991 1166.51 466.742
1296 0 59.2218 13.6436 808 134.462 1167.61 463.334
1297 0 62.2461 15.744 980 128.785 1168.47 465.535
1298 0 64.1936 17.9301 1151 127.096 1169.82 461.701
1299 0 64.1658 16.2859 1045 130.764 1171.32 459.596
1300 0 68.1101 13.5369 922 135.643 1172.22 459.049
1301 0 70.0988 14.6222 1025 134.794 1173.64 459.276
1302 0 72.1762 18.15 1310 128.966 1174.91 458.214
1303 0 75.1252 15.4808 1163 134.948 1175.19 456.929
1304 0 76.2484 14.4134 1099 137.289 1176.64 458.591
1305 0 79.1823 12.9827 1028 140.099 1177.1 458.904
1306 0 82.1961 16.6431 1368 134.037 1177.19 453.17
1307 0 85.2911 16.7192 1426 134.598 1176.71 453.964
1308 0 89.2025 14.809 1321 138.272 1177.27 456.873
1309 0 89.2025 14.8763 1327 146.656 1176.27 457.001
1310 1 50.0927 11.878 595 141.207 1177.19 475.837
1311 0 52.0576 11.1607 581 141.045 1175.87 476.847
1312 0 51.0447 9.83451 502 147.313 1174.7 474.466
1313 0 55.0366 12.4826 687 143.751 1172.62 471.913
1314 0 57.0671 14.737 841 138.139 1171.63 468.245
1315 0 61.1961 17.2397 1055 129.956 1170.57 467.797
1316 0 62.132 19.7483 1227 126.335 1168.92 466
1317 0 63.0846 13.8386 873 138.653 1168.01 464.78
1318 0 69.0679 19.3723 1338 125.921 1167.01 463.71
1319 0 68.1175 14.8273 1010 135.667 1165.47 462.146
1320 0 70.1208 14.5463 1020 135.146 1164.82 459.151
1321 0 73.111 17.111 1251 130.954 1163.97 457.448
1322 0 74.109 12.2927 911 139.475 1163.35 458.75
1323 0 76.1378 12.6087 960 138.241 1162.48 452.655
1324 1 40.1248 9.04679 363 139.813 1164.03 471.044
1325 0 42.1227 10.8255 456 131.327 1163.35 468.513
1326 0 43.1601 7.97032 344 136.645 1164.01 464.433
1327 0 45.0784 10.5594 476 127.893 1165.12 468.845
1328 0 45.0924 9.64685 435 132.168 1164.79 464.441
1329 0 51.1264 13.1439 672 124.754 1164.96 463.621
1330 0 50.369 11.7731 593 131.702 1166.41 457.597
1331 0 50.082 12.18 610 135.649 1169.83 462.262
1332 0 55.0795 16.576 913 125.508 1170.71 461.449
1333 0 52.1708 10.504 548 140.126 1171.8 461.11
1334 0 54.0767 10.9659 593 139.049 1174.45 459.538
1335 0 56.078 11.5018 645 138.533 1175.4 459.995
1336 0 60.0755 12.3345 741 132.897 1176.68 458.051
1337 0 61.0942 12.5707 768 132.332 1177.76 458.229
1338 0 64.1382 12.9252 829 131.888 1178.15 458.539
1339 0 62.1432 12.5034 777 129.683 1178.14 457.609
1340 0 69.2136 15.2571 1056 127.846 1178.22 459.982
1341 0 71.1623 14.5583 1036 128.975 1178.11 458.137
1342 0 73.128 13.1414 961 132.329 1177.22 457.83
1343 0 77.2261 13.4152 1036 132.911 1177.2 458.511
1344 1 41.2573 12.1191 500 131.466 1176.75 477.01
1345 0 39.2487 10.166 399 140.358 1175.48 473.942
1346 0 43.5005 10.1378 441 137.905 1174.11 475.923
1347 0 45.2052 10.0873 456 139.156 1171.41 469.43
1348 0 48.3656 12.5709 608 134.393 1169.96 468.472
1349 0 50.2033 14.4612 726 131.802 1168.55 468.42
1350 0 49.3441 14.7333 727 133.648 1167.76 464.574
1351 0 53.0548 13.552 719 132.391 1167.95 471.284
1352 0 51.1868 12.9721 664 136.295 1166.81 469.188
1353 0 53.4099 15.484 827 129.646 1166.14 467.209
1354 0 55.1842 15.4573 853 128.933 1165.16 464.544
1355 0 58.1644 14.906 867 129.215 1164.51 461.751
1356 0 57.2626 11.8227 677 140.038 1163.58 460.347
1357 0 59.3403 12.3188 731 137.26 1163.37 459.751
1358 0 61.2948 13.6553 837 135.519 1163.72 455.558
1359 0 65.2853 13.5099 882 133.179 1163.4 455.934
1360 0 67.3287 16.813 1132 129.148 1163.84 452.296
1361 0 69.3403 16.3253 1132 130.16 1164.68 449.972
1362 0 70.3263 13.3663 940 138.501 1165.82 452.39
1363 0 72.4152 14.7483 1068 137.001 1167.1 447.451
1364 1 41.0292 12.089 496 133.151 1169.23 466.883
1365 0 43.1034 11.3448 489 136.288 1170.99 465.086
1366 0 41.3582 9.59907 397 141.652 1172.68 463.703
1367 0 44.0933 11.1128 490 140.031 1174.22 464.573
1368 0 45.2455 12.7526 577 137.744 1176.05 463.296
1369 0 47.0339 12.204 574 139.01 1176.64 464.465
1370 0 49.1127 14.2122 698 136.374 1178.49 465.046
1371 0 48.0213 9.82898 472 146.322 1178.99 465.383
1372 0 51.1471 17.6159 901 132.312 1176.97 466.685
1373 0 51.3197 12.7826 656 144.413 1177.6 463.104
1374 0 53.1603 13.6192 724 140.885 1177.59 465.072
1375 0 55.2718 14.4558 799 141.225 1177.65 461.835
1376 0 58.1564 15.1144 879 139.011 1176.77 464.72
1377 0 62.2665 17.409 1084 134.173 1176.37 464.683
1378 0 62.2525 14.9874 933 138.563 1175.49 465.386
1379 0 64.2563 15.5471 999 138.534 1174.36 462.903
1380 0 68.0983 14.2441 970 141.269 1173.22 460.089
1381 0 72.2872 15.7289 1137 137.659 1171.22 462.667
1382 0 72.2749 12.3279 891 146.918 1169.93 460.633
1383 0 75.1635 13.3442 1003 142.912 1168.33 458.406
1384 0 77.2228 14.4258 1114 142.705 1167.22 450.617
1385 1 42.051 10.2495 431 140.731 1165.03 471.629
1386 0 40.1374 10.464 420 139.655 1163.92 471.438
1387 0 44.1866 13.0809 578 134.152 1163.34 469.924
1388 0 43.0757 10.4467 450 138.54 1163.24 468.587
1389 0 45.1092 10.4635 472 139.623 1162.71 467.138
1390 0 49.0715 9.86317 484 141.405 1162.83 465.118
1391 0 49.119 15.3097 752 129.399 1163.11 464.367
1392 0 49.2656 11.1031 547 138.053 1163.48 463.223
1393 0 52.1467 15.2454 795 130.073 1164.3 460.96
1394 0 51.1353 12.4963 639 136.75 1165.15 461.009
1395 0 55.2497 12.4164 686 136.258 1165.72 460.083
1396 0 54.2124 14.4248 782 133.606 1166.85 460.353
1397 0 56.3127 15.8046 890 130.794 1169.17 457.752
1398 0 60.3603 14.5294 877 132.587 1170.72 456.325
1399 0 61.1352 13.2657 811 135.146 1172.27 455.978
1400 0 61.1589 13.2769 812 133.829 1174.32 456.416
1401 0 65.1373 15.1373 986 130.901 1175.15 456.971
1402 0 68.1509 14.1451 964 134.165 1177.13 455.841
1403 0 71.168 16.5945 1181 128.141 1177.87 459.143
1404 0 69.124 13.8447 957 135.539 1179.15 455.166
1405 1 40.1433 12.2063 490 133.867 1177.88 475.141
1406 0 36.0668 13.7245 495 129.853 1177.97 478.018
1407 0 37.0921 7.49485 278 140.022 1177.72 479.065
1408 0 39.0747 8.57332 335 143.107 1181.16 475.675
1409 0 44.1048 9.09198 401 140.736 1180.55 478.18
1410 0 46.0508 11.3787 524 138.254 1179.74 476.454
1411 0 45.0846 7.78536 351 146.473 1178.49 477.49
1412 0 48.0681 12.3367 593 136.4 1176.08 477.275
1413 0 50.063 14.7614 739 131.597 1174.26 477.325
1414 0 51.0863 14.9355 763 131.925 1172.64 476.155
1415 0 53.0255 16.3695 868 128.529 1171.4 475.77
1416 0 54.0567 16.5937 897 129.982 1169.99 474.579
1417 0 56.1389 13.1994 741 136.717 1168.72 472.934
1418 0 58.0534 15.658 909 130.67 1166.99 471.586
1419 0 58.1346 14.8621 864 133.241 1165.84 466.737
1420 0 61.1527 14.0795 861 134.173 1165.79 468.764
1421 0 62.0658 14.3074 888 133.783 1165.06 468.3
1422 0 64.3508 16.581 1067 129.966 1164.05 464.693
1423 0 65.2207 13.922 908 135.705 1163.88 464.039
1424 0 68.1061 17.2231 1173 128.872 1163.62 464.552
1425 0 70.1541 13.898 975 134.319 1163.68 459.27
1426 0 71.2065 17.035 1213 130.286 1163.7 460.548
1427 0 74.2277 17.9178 1330 127.702 1164.27 457.562
1428 0 73.3151 13.5988 997 138.443 1164.7 456.484
1429 0 76.1262 14.8044 1127 136.874 1164.87 456.166
1430 0 81.2933 15.77 1282 134.498 1165.9 457.679
1431 0 84.4015 16.0305 1353 134.357 1167.54 454.34
1432 1 44.1881 10.41 460 142.78 1168.8 473.522
1433 0 45.3015 11.1475 505 141.016 1170.3 473.281
1434 0 46.2789 12.2086 565 138.444 1171.6 472.005
1435 0 46.1601 11.6984 540 142.296 1173.26 470.496
1436 0 50.2172 15.9308 800 132.415 1174.89 472.236
1437 0 53.1701 14.2749 759 136.219 1175.49 471.238
1438 0 51.2087 13.3181 682 143.252 1176.16 470.044
1439 0 57.2249 15.5876 892 134.541 1175.95 473.788
1440 0 55.0356 13.0098 716 142.566 1175.95 472.863
1441 0 58.1622 13.1701 766 143.111 1175.55 472.446
1442 0 60.1022 18.4519 1109 132.216 1175.12 470.925
1443 0 63.1206 14.8446 937 136.777 1174.68 472.045
1444 0 66.2468 18.0839 1198 129.298 1173.28 473.687
1445 0 67.2891 16.4217 1105 136.837 1172.43 470.364
1446 0 70.1531 17.5473 1231 135.787 1170.83 467.891
1447 0 72.1219 17.0683 1231 137.749 1169.48 466.083
1448 0 73.1986 14.5631 1066 143.088 1167.82 465.52
1449 0 74.144 14.7146 1091 144.948 1166.69 460.179
1450 1 41.0144 10.2403 420 144.586 1162.56 479.531
1451 0 42.0515 8.58471 361 144.283 1161.38 478.56
1452 0 41.0332 9.87005 405 145.249 1160.79 475.442
1453 0 42.0883 10.2641 432 141.787 1161 476.164
1454 0 42.1796 11.8066 498 139.984 1160.43 474.245
1455 0 46.1032 17.309 798 128.195 1160.62 468.751
1456 0 44.4206 12.5843 559 138.719 1161.26 466.832
1457 0 48.2899 13.2947 642 135.28 1161.34 465.646
1458 0 50.1832 13.4507 675 133.441 1160.95 465.255
1459 0 52.1595 15.7018 819 129.617 1163.74 464.354
1460 0 52.1069 17.0227 887 126.937 1164.16 464.352
1461 0 53.0705 14.2452 756 134.731 1165.23 462.632
1462 0 55.0858 13.6877 754 135.02 1166.18 460.651
1463 0 57.1432 13.0199 744 135.956 1167.43 461.263
1464 0 60.0984 15.2417 916 129.521 1169.17 459.471
1465 0 61.0217 15.2405 930 131.294 1170.81 456.625
1466 0 62.0851 12.5795 781 136.607 1172.81 457.375
1467 0 65.0735 14.184 923 131.488 1174.97 456.277
1468 0 67.3628 14.1324 952 125.225 1176.73 458.151
1469 0 70.1115 16.6734 1169 123.38 1178.04 454.877
1470 0 71.214 16.654 1186 124.021 1178.93 454.86
1471 0 74.261 14.1124 1048 129.219 1179.44 452.241
1472 0 75.1122 12.5945 946 134.517 1180 456.045
1473 0 75.1691 12.0395 905 136.989 1178.56 446.871
1474 0 80.2464 14.3682 1153 130.494 1179.02 449.993
1475 0 84.1116 15.0158 1263 128.647 1179.63 454.16
1476 0 87.1888 14.0844 1228 130.172 1179.58 453.089
1477 0 90.1825 15.0694 1359 129.141 1178.88 447.556
1478 1 44.0649 11.8462 522 131.952 1178.22 472.467
1479 0 50.1033 13.2726 665 127.391 1177.8 474.165
1480 0 50.033 11.8922 595 130.587 1175.16 472.534
1481 0 47.2125 6.86259 324 143.167 1173.49 464.938
1482 0 54.2943 12.7454 692 128.094 1172.19 466.127
1483 0 57.0944 14.187 810 128.389 1171.06 465.086
1484 0 59.1658 14.958 885 126.892 1169.61 464.884
1485 0 59.1046 13.5015 798 130.769 1168.56 462.786
1486 0 61.1233 17.6856 1081 122.016 1167.27 461.421
1487 0 62.0825 15.9304 989 127.39 1166.13 458.202
1488 0 62.1159 11.9776 744 136.024 1165.6 456.613
1489 0 68.2032 13.6797 933 128.81 1164.75 458.6
1490 0 67.1102 13.4853 905 132.113 1164.5 455.897
1491 0 71.0552 16.6068 1180 126.818 1164.79 452.518
1492 0 71.1211 17.3507 1234 127.592 1164.81 449.353
1493 0 75.2345 13.4779 1014 135.273 1164.87 449.66
1494 0 78.1579 14.9057 1165 131.961 1164.71 448.468
1495 0 82.1663 15.3713 1263 129.797 1165.37 449.319
1496 0 81.1326 15.1973 1233 132.994 1165.88 442.836
1497 0 86.2102 16.4946 1422 127.47 1167.37 445.384
1498 0 86.1507 18.4792 1592 125.749 1171.3 447.657
1499 0 90.1631 19.742 1780 122.053 1172.24 446.987
1500 0 91.2898 15.2481 1392 132.154 1173.96 444.672
1501 0 96.2254 16.2431 1563 126.872 1176.04 445.827
1502 1 54.0323 10.0125 541 135.063 1178.26 462.702
1503 0 56.0477 11.1334 624 137.928 1179.74 462.492
1504 0 58.0729 13.4142 779 131.063 1181.4 461.451
1505 0 61.0798 13.7361 839 132.955 1181.82 461.636
1506 0 64.1046 15.6463 1003 127.689 1182.25 459.309
1507 0 65.1159 15.7565 1026 129.714 1182.25 460.435
1508 0 65.1936 15.3236 999 131.269 1182.96 462.172
1509 0 66.1602 14.616 967 134.424 1181.93 457.383
1510 0 71.3115 16.1685 1153 129.938 1182.3 457.977
1511 0 73.2997 17.4626 1280 128.166 1181.34 458.709
1512 0 75.3083 15.9079 1198 129.095 1180.41 462.144
