time division length width area intensity CMx CMy
0 0 75.5028 15.9067 1201 136.586 1355.6 449.313
1 0 75.5487 16.4 1239 118.6 1355.44 449.007
2 0 73.267 14.959 1096 121.7 1356.04 446.145
3 0 76.356 12.9525 989 123.626 1356.23 448.085
4 0 77.2582 14.1862 1096 126.078 1356.4 441.144
5 0 80.281 13.1912 1059 127.417 1356.12 444.73
6 0 84.5042 16.6264 1405 121.713 1355.82 448.368
7 0 85.2829 19.0073 1621 122.545 1354.92 441.909
8 0 89.2383 20.4396 1824 117.442 1353.98 450.463
9 0 89.4195 14.5829 1304 127.571 1352.4 444.844
10 0 95.3876 14.1947 1354 130.603 1351.87 443.678
11 0 98.37 16.7429 1647 129.85 1351.21 441.952
12 0 97.1888 13.6024 1322 140.149 1350.61 441.169
13 0 100.674 15.2374 1534 136.133 1350.38 440.126
14 1 52.3258 11.5622 605 137.76 1349.98 461.129
15 0 55.1788 12.7585 704 136.824 1348.78 462.608
16 0 57.4372 12.2917 706 138.435 1347.1 459.78
17 0 58.3508 10.6939 624 148.554 1345.22 457.843
18 0 60.3054 11.1267 671 146.884 1343.78 458.7
19 0 62.1779 12.6733 788 145.014 1342.89 457.867
20 0 65.2513 12.1224 791 148.459 1341.94 453.968
21 0 65.1649 9.77521 637 153.272 1341.5 452.827
22 0 68.1909 14.694 1002 142.78 1340.83 449.696
23 0 71.1265 12.6113 897 142.643 1340.59 449.815
24 0 72.3698 14.191 1027 143.786 1339.94 443.767
25 0 76.1602 17.8177 1357 135.339 1339.89 442.013
26 0 80.3817 14.9288 1200 141.299 1340.18 445.314
27 0 80.2449 16.4621 1321 140.469 1340.65 440.539
28 0 84.3507 12.5666 1060 145.214 1340.9 439.118
29 0 88.2394 15.3786 1357 138.713 1342.48 438.727
30 1 46.1052 10.3459 477 136.392 1344.92 459.566
31 0 50.1315 10.1732 510 135.075 1346.87 457.239
32 0 52.1553 13.594 709 130.845 1348.31 456.24
33 0 51.4465 13.1982 679 123.605 1347.73 454.591
34 0 54.4683 14.7242 802 119.297 1349.12 454.348
35 0 56.4358 19.6684 1110 109.815 1351.07 456.146
36 0 53.2251 11.7989 628 122.389 1351.8 455.557
37 0 59.3722 15.327 910 115.475 1353.24 460.878
38 0 56.1057 10.1059 567 125.233 1352.52 461.954
39 0 62.1945 20.2751 1261 112.519 1352.93 463.216
40 0 62.2782 12.685 790 123.078 1353.3 461.344
41 0 64.2759 20.1164 1293 116.222 1353.11 455.316
42 0 65.4098 15.4258 1009 125.772 1351.84 455.377
43 0 67.2528 13.2931 894 130.368 1351.77 459.097
44 0 68.3276 14.5183 992 133.502 1351.18 456.242
45 0 70.3471 12.2962 865 138.8 1350.76 456.807
46 0 73.2202 16.4572 1205 130.988 1349.62 455.085
47 0 73.3047 12.7823 937 142.014 1347.96 457.542
48 0 76.149 15.6141 1189 139.618 1346.35 453.376
49 0 75.2588 13.5399 1019 143.693 1344.94 456.316
50 0 80.4185 14.3002 1150 142.196 1343.44 452.956
51 0 78.2086 12.5178 979 146.945 1341.64 448.132
52 1 37.0512 6.26161 232 151.228 1341.77 471.103
53 0 45.0559 10.6978 482 141.56 1341.23 468.021
54 0 47.0603 11.6446 548 138.024 1340.66 468.17
55 0 45.1358 9.65974 436 139.406 1339.63 470.555
56 0 45.1256 9.59543 433 143.053 1339.19 462.076
57 0 48.0562 11.0496 531 134.857 1338.56 464.565
58 0 49.3594 15.0529 743 129.194 1338.35 458.984
59 0 53.2398 11.4576 610 134.521 1338.31 461.731
60 0 53.2443 12.4145 661 134.11 1338.68 459.368
61 0 54.2814 10.8509 589 136.47 1338.67 456.277
62 0 55.2805 10.7633 595 136.274 1339.18 456.635
63 0 59.3239 12.0188 713 130.98 1340.92 457.192
64 0 62.2513 13.3009 828 129.953 1342.44 453.676
65 0 68.2849 15.0546 1028 121.236 1344.45 455.804
66 0 66.2519 10.762 713 130.567 1346.49 451.553
67 0 67.3166 11.9287 803 123.139 1349.5 452.433
68 0 68.4642 11.0423 756 123.534 1350.22 452.656
69 0 75.2525 15.056 1133 113.042 1351.4 453.011
70 0 79.6022 15.0498 1198 110.831 1352.22 451.639
71 0 82.305 19.5857 1612 104.942 1353.1 453.7
72 0 81.4239 15.0938 1229 112.11 1352.92 450.201
73 0 84.3347 13.6717 1153 115.291 1353.05 448.254
74 0 84.3347 13.5531 1143 141.902 1353.04 448.15
75 0 95.7732 16.7479 1604 112.403 1352.54 451.844
76 0 93.2864 12.7135 1186 121.52 1351.13 449.007
77 1 47.1971 11.8651 560 119.568 1351.75 470.079
78 0 50.4947 10.9318 552 121.728 1351.08 470.293
79 0 51.3349 10.6166 545 123.969 1350.15 467.923
80 0 54.5215 13.0407 711 119.318 1349.49 473.19
81 0 55.2996 12.3509 683 125.971 1347.31 469.419
82 0 56.3334 12.1243 683 127.993 1346.19 469.382
83 0 61.0838 15.4378 943 123.152 1344.9 463.076
84 0 61.0838 15.5524 950 119.091 1343.86 463.077
85 0 61.1345 15.0324 919 129.103 1342.11 463.782
86 0 66.0639 14.3043 945 129.425 1340.29 464.654
87 0 67.1914 11.9658 804 134.877 1339.85 461.252
88 0 70.3423 13.5054 950 132.556 1339.19 458.976
89 0 73.1184 13.1567 962 132.602 1338.71 457.132
90 0 75.2031 12.6192 949 134.606 1337.72 455.831
91 0 80.2712 12.6571 1016 131.766 1337.48 457.099
92 0 79.2742 15.2383 1208 130.188 1337.73 451.804
93 1 40.1099 6.88109 276 139.203 1337.51 467.163
94 0 44.0507 13.212 582 127.823 1337.82 466.785
95 0 48.2548 9.57417 462 133.288 1338.73 465.234
96 0 47.1672 13.6748 645 127.553 1339.17 463.757
97 0 51.2336 10.6961 548 130.589 1341.36 463.969
98 0 51.444 11.566 595 131.365 1342.57 459.457
99 0 52.3583 11.9179 624 126.76 1345.16 459.859
100 0 53.5142 11.7165 627 125.478 1347.02 460.309
101 0 55.0778 12.9816 715 126.996 1345.04 460.214
102 0 60.0382 13.6746 821 124.311 1347.12 462.799
103 0 58.1686 15.3003 890 123.008 1348.67 459.199
104 0 64.3084 19.1888 1234 113.578 1349.95 461.008
105 0 64.3005 12.2705 789 123.422 1350 462.565
106 0 62.3262 15.8521 988 120.406 1349.69 463.843
107 0 69.4854 21.1411 1469 112.349 1350.9 458.502
108 0 67.1577 12.6121 847 126.411 1350.27 459.505
109 0 71.3814 16.699 1192 117.794 1350.05 464.436
110 0 71.2438 14.2469 1015 129.109 1349.23 461.111
111 0 74.2352 15.168 1126 130.06 1348.42 458.839
112 0 76.3448 17.9842 1373 126.434 1347.84 456.915
113 0 76.2665 12.6268 963 137.437 1346.37 458.111
114 0 80.2385 15.6533 1256 136.173 1344.7 458.298
115 0 80.2696 15.6473 1256 142.823 1342.69 458.104
116 1 42.1658 7.49423 316 141.38 1341.46 480.554
117 0 43.1855 11.2538 486 147.975 1341.31 477.3
118 0 46.0196 10.4955 483 141.507 1338.97 473.826
119 0 46.0499 10.7275 494 143.002 1337.31 471.8
120 0 46.1813 12.7541 589 137.798 1339.35 473.151
121 0 52.3074 13.7266 718 136.39 1338.54 468.844
122 0 50.2743 9.94543 500 144.516 1337.7 468.434
123 0 54.1653 15.2312 825 132.915 1336.54 465.75
124 0 55.0669 12.6755 698 139.66 1332.6 464.279
125 0 55.097 13.8664 764 136.77 1333.02 465.517
126 0 58.0924 13.4097 779 137.911 1332.94 461.294
127 0 59.1516 13.457 796 137.742 1332.84 460.08
128 0 59.1411 10.2298 605 144.279 1332.75 461.352
129 0 60.1332 10.194 613 146.3 1334.39 460.431
130 0 65.1174 13.5141 880 137.166 1334.5 458.078
131 0 64.1009 13.3851 858 139.253 1336.37 455.399
132 0 69.2718 12.2994 852 138.979 1338.08 456.038
133 0 69.1675 15.4263 1067 130.623 1340.51 456.014
134 0 71.4168 14.4084 1029 131.195 1342.37 453.486
135 0 71.2068 9.46539 674 135.521 1343.86 452.395
136 0 79.2001 12.8914 1021 126.894 1345.87 455.786
137 0 80.3632 13.1528 1057 124.75 1346.2 458.709
138 0 83.311 13.6237 1135 126.774 1347.29 452.697
139 0 83.1498 18.8335 1566 117.952 1347.61 457.193
140 1 46.2428 10.7909 499 126.218 1347.45 474.393
141 0 46.2621 13.3587 618 126.519 1346.68 469.141
142 0 47.238 11.7914 557 132.795 1347.04 468.889
143 0 53.3221 13.4653 718 126.547 1345.89 470.616
144 0 49.1856 11.8327 582 132.16 1346 470.381
145 0 53.2692 11.5264 614 130.052 1346.52 469.84
146 0 54.0847 15.6052 844 130.673 1343.22 467.286
147 0 55.1367 12.9496 714 137.913 1342.52 468.828
148 0 55.2279 13.8517 765 135.323 1341.64 468.765
149 0 59.1323 14.2054 840 133.836 1339.95 469.97
150 0 60.0712 13.7836 828 134.647 1337.92 466.978
151 0 61.0324 11.797 720 138.2 1336.84 469.225
152 0 63.0958 14.1531 893 136.097 1335.01 465.899
153 0 66.2074 15.104 1000 135.821 1333.94 463.349
154 0 67.1354 14.7463 990 137.4 1332.4 460.315
155 0 68.0978 12.8198 873 140.623 1331.51 462.017
156 0 72.3718 14.7157 1065 138.071 1332.03 460.042
157 0 70.1992 14.4446 1014 142.364 1331.71 455.242
158 0 74.1177 13.6405 1011 145.056 1330.66 452.331
159 0 76.1934 13.5051 1029 146.343 1330.69 453.825
160 0 79.1717 14.917 1181 144.279 1330.83 449.571
161 0 83.12 15.9168 1323 142.02 1330.95 447.58
162 0 83.1822 14.1136 1174 147.141 1330.95 449.404
163 0 85.2466 17.2793 1473 141.428 1331.71 445.365
164 0 88.2642 14.9098 1316 145.356 1332.78 448.127
165 0 92.3459 13.2978 1228 146.752 1334.99 443.783
166 1 47.0629 8.75424 412 148.058 1336.82 467.866
167 0 52.1638 13.8985 725 131.559 1339.92 468.673
168 0 51.0413 12.6956 648 138.04 1341.01 466.887
169 0 53.1306 14.3608 763 134.089 1342.59 463.932
170 0 54.0933 11.5171 623 137.037 1344.59 466.75
171 0 58.173 13.838 805 134.196 1345.52 466.806
172 0 57.1464 13.6316 779 136.838 1343.9 464.782
173 0 61.3258 13.7789 845 137.433 1344.67 466.122
174 0 61.0617 16.9992 1038 136.904 1345.38 465.757
175 0 64.17 15.6304 1003 136.247 1344.95 468.12
176 0 65.1573 14.8257 966 141.675 1344.22 466.066
177 0 67.487 13.4989 911 147.147 1343.47 463.648
178 0 70.4105 13.3503 940 147.698 1343.34 463.787
179 0 71.2954 13.3389 951 149.382 1341.91 464.975
180 0 74.2901 14.4165 1071 147.307 1341.58 463.051
181 0 78.1752 18.5609 1451 136.926 1339.96 465.574
182 0 81.1543 17.9904 1460 139.171 1338.71 463.025
183 0 82.3887 18.8618 1554 138.017 1337.79 461.414
184 0 84.1754 14.7787 1244 147.297 1336.13 458.132
185 0 86.0953 18.2588 1572 140.522 1334.44 454.546
186 1 51.1621 12.4506 637 146.477 1333.32 474.267
187 0 47.0716 7.81788 368 156.535 1331.74 473.894
188 0 45.1489 8.68238 392 152.536 1330.65 473.821
189 0 53.308 12.681 676 145.88 1331.12 468.533
190 0 53.4341 11.8838 635 146.632 1331.4 469.477
191 0 56.3423 16.6305 937 136.883 1330.98 467.149
192 0 55.1645 12.0911 667 147.466 1329.52 465.319
193 0 58.055 15.5198 901 139.448 1329.58 463.263
194 0 59.0641 12.8505 759 144.215 1330.36 460.906
195 0 64.0652 15.734 1008 136.359 1330.07 460.542
196 0 64.0898 14.6981 942 139.315 1331.25 456.845
197 0 69.0954 16.9186 1169 132.914 1332.55 457.155
198 0 66.1922 13.6723 905 142.039 1334.83 451.528
199 0 70.1826 16.1721 1135 135.648 1336.04 454.608
200 0 73.202 13.6608 1000 139.811 1336.48 450.836
201 0 76.156 15.8096 1204 135.276 1338.91 451.233
202 0 76.2122 12.767 973 140.035 1340.83 450.889
203 0 80.2959 12.6158 1013 136.32 1342.81 449.231
204 0 81.3163 11.2647 916 139.354 1344.15 450.472
205 1 45.2875 9.69363 439 137.626 1345.7 468.417
206 0 49.2341 14.4818 713 126.628 1345.9 470.459
207 0 47.2458 10.8158 511 132.687 1346.9 469.025
208 0 50.2433 10.4492 525 134.154 1347.27 471.238
209 0 52.1228 12.6816 661 135.439 1345.73 468.752
210 0 52.1371 11.9301 622 134.691 1345.83 467.929
211 0 56.473 17.7253 1001 123.623 1345.47 474.516
212 0 54.1972 12.3807 671 138.432 1344.63 470.864
213 0 56.0989 12.2106 685 139.705 1342.32 468.345
214 0 58.0972 12.6856 737 135.396 1341.49 471.754
215 0 61.1752 13.6657 836 134.014 1340.32 470.316
216 0 61.118 12.1732 744 138.366 1339.16 464.782
217 0 66.1168 14.3534 949 133.796 1338.41 465.073
218 0 68.0795 14.4831 986 133.188 1337.76 466.716
219 0 67.126 12.4095 833 137.651 1336.03 463.467
220 0 69.1072 11.9958 829 138.17 1334.34 463.112
221 0 75.1069 14.5526 1093 132.426 1333.1 461.522
222 0 77.1097 14.6026 1126 132.06 1331.62 457.818
223 0 77.1377 15.4529 1192 130.774 1331.1 455.531
224 0 80.2398 10.6431 854 138.424 1330.02 456.193
225 0 84.1482 13.393 1127 132.37 1329.14 453.685
226 1 44.027 11.8337 521 132.977 1329.58 468.347
227 0 45.0958 7.1847 324 137.719 1327.99 469.821
228 0 46.0433 11.1851 515 132.755 1328.59 465.604
229 0 48.0838 9.94097 478 132.95 1329.76 468.109
230 0 49.2288 10.2785 506 132.893 1330.31 467.549
231 0 48.1061 9.77006 470 132.166 1331.38 466.662
232 0 53.0981 14.5391 772 122.756 1333.24 462.617
233 0 51.041 10.0508 513 130.649 1335.94 460.84
234 0 55.1108 13.246 730 124.37 1338.37 464.385
235 0 55.0337 11.6111 639 128.147 1340.48 458.775
236 0 57.0467 11.5169 657 126.6 1341.74 460.927
237 0 60.216 11.5418 695 123.999 1344.08 460.681
238 0 62.1689 12.9486 805 123.834 1344.11 460.853
239 0 64.0976 12.0129 770 121.209 1345.72 462.171
240 0 67.1656 11.7471 789 119.51 1346.23 468.303
241 0 65.1218 11.5169 750 125.863 1343.31 461.575
242 0 70.1644 11.0312 774 126.149 1342.93 461.379
243 0 73.1506 14.436 1056 121.357 1343 458.527
244 0 76.1471 13.0799 996 122.876 1342.1 457.876
245 0 79.0968 16.0057 1266 118.166 1341.62 459.938
246 0 83.1648 12.866 1070 125.304 1341.92 455.23
247 0 83.0802 12.3014 1022 124.681 1340.85 451.603
248 1 47.0728 6.01196 283 125.968 1339.82 480.385
249 0 47.0373 13.7976 649 117.193 1337.94 475.715
250 0 46.0917 10.7395 495 122.364 1337.17 474.788
251 0 47.1018 10.2119 481 122.734 1335.94 476.16
252 0 49.0806 10.8597 533 123.319 1333.53 471.499
253 0 53.2042 11.2397 598 121.334 1333.65 471.824
254 0 51.2146 10.3877 532 125.25 1331.92 469.479
255 0 52.14 12.4089 647 122.635 1331.58 467.592
256 0 59.1176 15.9851 945 115.356 1330.55 467.077
257 0 59.1694 13.0811 774 120.804 1330.55 464.152
258 0 59.1777 11.7443 695 122.93 1329.59 464.944
259 0 63.1293 13.0051 821 122.044 1329.26 461.24
260 0 66.1317 16.0437 1061 117.108 1329.25 460.82
261 0 67.1526 15.4275 1036 119.258 1329.26 457.343
262 0 69.1155 16.1179 1114 117.998 1329.85 456.255
263 0 71.0833 15.0668 1071 119.285 1330.45 455.628
264 0 73.0907 12.3271 901 124.26 1331.43 451.267
265 0 76.2328 15.1116 1152 120.086 1332.9 452.171
266 1 40.0366 9.04172 362 128.312 1336.3 469.627
267 0 40.0366 9.01674 361 127.637 1338.3 469.512
268 0 41.0365 7.79794 320 131.019 1340.19 470.841
269 0 43.0139 6.76525 291 131.522 1341.25 471.811
270 0 45.0769 8.69625 392 133.181 1343.44 469.265
271 0 45.0996 8.11537 366 125.44 1343.96 468.88
272 0 47.2266 11.159 527 126.342 1344.94 468.934
273 0 49.0478 15.0466 738 119.367 1344.59 474.375
274 0 48.1235 11.3458 546 126.441 1345.09 472.837
275 0 50.1258 12.2292 613 127.86 1344.76 468.951
276 0 52.1296 14.3488 748 124.13 1344.59 472.123
277 0 53.1361 13.1361 698 126.633 1344.56 470.809
278 0 55.0544 11.2798 621 130.108 1343.59 472.085
279 0 54.1366 12.9303 700 126.176 1343.07 475.316
280 0 57.133 16.1203 921 102.584 1343.13 472.092
281 0 56.2389 9.44187 531 135.452 1341.03 469.145
282 0 57.2548 10.3747 594 115.933 1340.07 467.85
283 0 61.1359 8.03129 491 137.381 1337.1 469.815
284 0 65.1208 9.90466 645 135.023 1335.8 466.262
285 0 69.1304 11.3698 786 131.637 1333.82 465.958
286 1 36.0517 7.04545 254 134.61 1333.83 481.571
287 0 37.0281 12.396 459 125.364 1332.85 481.821
288 0 35.0726 7.95494 279 136.921 1332.2 478.004
289 0 38.0491 8.75186 333 129.273 1330.92 481.661
290 0 38.0126 10.7859 410 131.59 1330.68 475.549
291 0 39.0432 12.0123 469 130.262 1330.42 475.324
292 0 40.0422 9.36513 375 138.347 1328.96 471.085
293 0 42.0297 8.7557 368 136.902 1328.49 469.014
294 0 47.0181 13.2928 625 127.573 1326.57 470.027
295 0 47.1169 11.376 536 130.03 1328.03 471.976
296 0 49.1909 14.3726 707 124.737 1328.67 471.211
297 0 51.0813 13.5079 690 128.639 1330.06 468.432
298 0 53.1619 15.6691 833 126.206 1331.39 465.257
299 0 53.2808 13.1567 701 130.225 1332.66 466.175
300 0 53.0722 13.1519 698 132.699 1334.43 463.666
301 0 54.0865 13.1826 713 133.693 1335.78 464.59
302 0 56.1479 13.0904 735 133.627 1338.11 464.367
303 0 57.1161 14.8469 848 131.318 1339.56 465.278
304 0 59.1602 15.1453 896 127.538 1340.74 467.164
305 0 63.2471 17.1866 1087 122.551 1341.83 467.915
306 0 65.2349 15.4672 1009 126.507 1342.26 466.528
307 0 64.1617 14.0894 904 130.673 1343.79 466.874
308 0 66.3453 13.4147 890 135.281 1343.02 464.752
309 0 69.2555 14.6559 1015 132.379 1342.36 467.157
310 0 68.1023 14.5516 991 135.847 1341.68 466.545
311 0 71.1567 14.6718 1044 137.169 1341.14 466.687
312 0 76.2877 16.464 1256 134.591 1340.58 466.107
313 0 77.2951 17.0257 1316 135.006 1339.27 463.654
314 0 78.3409 15.2921 1198 140.92 1337.81 461.422
315 0 81.4292 14.9578 1218 142.561 1337.15 461.383
316 1 42.2174 10.0669 425 142.087 1337.46 481.976
317 0 45.6004 13.5525 618 136.953 1335.18 481.385
318 0 44.1433 12.618 557 143.246 1332.6 474.158
319 0 44.1794 13.1283 580 140.824 1331.61 474.422
320 0 49.3623 13.4921 666 135.288 1331.7 472.3
321 0 47.1841 13.3096 628 138.978 1332.86 476.745
322 0 49.0967 13.4836 662 138.39 1331.27 474.42
323 0 51.2134 13.8245 708 135.679 1331.41 475.699
324 0 51.1124 9.97802 510 143.757 1330.81 472.833
325 0 55.2191 15.3208 846 134.622 1330.25 466.498
326 0 54.2122 13.2627 719 136.924 1330.44 468.033
327 0 54.2064 13.3933 726 133.894 1331.44 468.084
328 0 56.3031 13.3563 752 137.331 1330.28 466.668
329 0 59.1704 11.7626 696 139.934 1330.29 462.208
330 0 62.3906 15.2587 952 131.858 1331.56 463.637
331 0 64.2574 10.7536 691 139.657 1333.52 463.155
332 0 66.1536 14.7082 973 133.431 1334.89 460.638
333 0 69.3025 11.4859 796 138.862 1336.15 460.701
334 0 68.2339 14.0839 961 136.214 1338.19 455.568
335 0 71.2838 11.0825 790 140.868 1340.12 458.094
336 0 75.171 16.4026 1233 131.518 1341.67 459.111
337 0 76.1748 15.0444 1146 136.034 1341.94 455.609
338 0 79.2182 13.9614 1106 134.515 1343.79 457.98
339 0 82.3358 13.4206 1105 136.345 1344.43 458.255
340 0 84.1959 13.0291 1097 136.743 1344.55 455.497
341 0 89.2302 14.7035 1312 135.223 1344.64 456.667
342 1 48.0536 12.0074 577 138.423 1345.16 475.48
343 0 49.1775 14.2748 702 129.244 1344.15 480.467
344 0 48.1439 11.2371 541 141.834 1343.77 474.189
345 0 53.1297 15.8856 844 133.299 1341.63 475.307
346 0 54.0932 12.2012 660 142.047 1339.38 473.102
347 0 56.1197 16.8568 946 131.687 1337.47 473.365
348 0 58.2891 14.1707 826 138.153 1338.58 474.393
349 0 57.2736 13.6712 783 146.415 1337.64 474.848
350 0 58.2083 16.9907 989 134.902 1335.87 474.084
351 0 60.1395 12.604 758 142.416 1334.08 470.603
352 0 66.2283 15.507 1027 134.955 1332.96 469.955
353 0 65.3272 15.7821 1031 135.359 1331.01 466.411
354 0 66.2153 12.5198 829 141.667 1330.67 466.854
355 0 70.2232 17.0172 1195 131.62 1329.79 465.817
356 0 73.2454 14.4173 1056 135.843 1329 464.919
357 0 74.1085 16.6513 1234 132.776 1328.86 459.216
358 0 79.3054 17.0985 1356 131.369 1328.19 457.305
359 0 79.3298 16.4125 1302 143.27 1327.3 458.079
360 0 85.3092 19.9392 1701 125.508 1328.42 452.842
361 0 87.3175 16.4572 1437 131.98 1329.26 451.139
362 0 89.2867 14.1118 1260 135.228 1329.29 451.165
363 1 49.3581 13.3717 660 132.362 1331.51 467.711
364 0 47.0923 9.89546 466 135.024 1329.92 469.328
365 0 55.1406 13.3296 735 126.871 1332.7 470.524
366 0 55.117 15.7483 868 124.849 1332.81 464.732
367 0 58.0896 14.3571 834 125.659 1335.24 466.799
368 0 62.2053 16.3491 1017 121.591 1339.33 465.967
369 0 62.2311 15.796 983 123.629 1339.69 464.09
370 0 64.2013 14.143 908 125.391 1340.63 467.283
371 0 63.2029 14.0183 886 127.021 1341.91 464.021
372 0 68.0823 13.9096 947 124.529 1342.56 463.759
373 0 68.3083 16.2938 1113 122.539 1342.58 466.231
374 0 72.13 15.0423 1085 124.056 1342.53 466.304
375 0 76.1289 13.5297 1030 126.415 1342.44 464.223
376 0 84.5434 15.838 1339 120.17 1342.11 470.048
377 0 81.0885 17.3637 1408 120.935 1341.67 468.039
378 0 82.3164 17.0197 1401 122.335 1340.69 465.17
379 0 85.141 17.4064 1482 123.173 1339.52 462.979
380 0 89.3792 15.6972 1403 124.811 1338.9 465.44
381 0 91.147 14.6357 1334 128.744 1338.25 459.524
382 1 47.0514 10.6267 500 132.93 1337.01 479.892
383 0 49.1302 13.1284 645 126.89 1334.77 480.795
384 0 51.0231 12.171 621 129.541 1333.22 479.597
385 0 53.1516 13.0382 693 126.522 1332.18 479.906
386 0 56.0894 16.8124 943 122.698 1330.93 476.832
387 0 54.1931 13.2858 720 132.439 1330.22 472.724
388 0 56.1403 13.1991 741 130.56 1329.66 473.626
389 0 55.084 13.434 740 131.12 1329.05 469.824
390 0 59.0927 12.0319 711 133.709 1328.77 469.302
391 0 60.2569 11.7995 711 132.523 1327.26 469.284
392 0 66.1906 13.5669 898 126.876 1327.41 470.188
393 0 65.1882 17.2271 1123 124.159 1327.5 461.236
394 0 66.23 12.819 849 131.373 1328.44 460.769
395 0 72.1324 18.9374 1366 119.64 1328.63 462.87
396 0 73.1289 11.8284 865 131.884 1329.21 458.738
397 0 76.183 15.5284 1183 125.598 1330.69 456.797
398 0 78.2018 17.1991 1345 122.166 1331.45 460.124
399 0 82.1145 15.6611 1286 126.892 1333.79 452.679
400 0 86.1857 13.1344 1132 128.744 1335.3 453.534
401 0 87.1163 16.1623 1408 125.243 1337.68 452.217
402 0 89.245 12.6394 1128 131.209 1339.48 450.265
403 1 46.0755 11.6331 536 129.252 1340.33 469.716
404 0 47.0749 9.49551 447 129.763 1344.38 474.246
405 0 48.0972 11.6431 560 126.411 1341.68 473.146
406 0 52.3788 13.4787 706 127.014 1343.13 471.336
407 0 51.3443 14.3541 737 125.128 1343.22 471.818
408 0 52.0545 15.0803 785 124.182 1342.09 471.939
409 0 54.0468 13.6918 740 126.509 1343.79 469.689
410 0 57.1613 11.8787 679 125.57 1343.3 474.09
411 0 59.2064 16.0118 948 120.038 1342.67 468.723
412 0 61.2192 13.7049 839 123.822 1341.7 469.474
413 0 62.2431 13.3991 834 124.416 1340.62 468.576
414 0 63.2395 13.6465 863 124.686 1339.29 467.194
415 0 69.1583 13.5053 934 123.697 1338.9 464.471
416 0 70.3686 13.074 920 124.497 1337.96 468.892
417 0 74.2629 14.0043 1040 122.69 1336.12 468.638
418 0 79.258 16.0362 1271 119.742 1334.82 464.602
419 0 81.3329 16.2788 1324 119.676 1333.51 463.964
420 0 82.2632 13.6148 1120 124.981 1331.91 460.988
421 0 85.2886 16.4618 1404 119.936 1330.88 459.139
422 0 87.2695 17.3371 1513 119.816 1330.31 454.233
423 0 89.3805 15.2159 1360 122.674 1328.3 456.596
424 0 94.1938 15.0859 1421 123.751 1327.73 453.886
425 1 49.2094 14.5094 714 120.374 1327.7 471.55
426 0 53.064 12.0986 642 122.902 1327 471.53
427 0 55.1367 12.8227 707 123.847 1327.27 467.584
428 0 55.1142 15.6584 863 119.797 1327.09 467.628
429 0 59.0897 17.6681 1044 120.084 1327.91 462.392
430 0 59.1388 16.2161 959 123.525 1328.72 462.871
431 0 60.136 16.5126 993 135.224 1329.81 462.529
432 0 65.168 13.212 861 126.764 1331.51 463.837
433 0 65.0622 14.4938 943 126.62 1333.64 463.023
434 0 66.0476 16.6698 1101 123.702 1335.71 461.244
435 0 69.0695 15.0718 1041 126.794 1337.33 459.884
436 0 70.0539 13.1898 924 129.672 1339.09 460.229
437 0 74.0949 12.511 927 127.014 1341.09 458.695
438 0 76.2994 16.029 1223 122.298 1340.98 458.907
439 0 81.2657 14.3111 1163 123.653 1342.39 459.487
440 0 82.241 11.904 979 127.711 1342.49 459.733
441 0 85.3643 17.4898 1493 121.614 1342.22 456.731
442 0 85.3643 17.4663 1491 130.652 1342.22 456.522
443 1 47.2062 9.91395 468 133.098 1341.3 473.263
444 0 52.3875 14.5454 762 123.063 1340.88 475.993
445 0 49.2747 11.5881 571 132.277 1340.68 472.455
446 0 55.304 13.5614 750 126.545 1339.36 474.517
447 0 56.1341 14.5188 815 125.849 1337.52 472.942
448 0 56.1009 13.1905 740 128.301 1337.43 474.305
449 0 60.0471 14.855 892 127.405 1335.74 473.044
450 0 59.1414 14.8627 879 129.056 1334.52 472.877
451 0 63.0864 13.4736 850 129.826 1332.79 471.952
452 0 63.044 14.7833 932 129.179 1331.39 470.878
453 0 64.0886 13.4813 864 132.204 1329.96 467.856
454 0 65.0306 14.7623 960 130.929 1328.88 464.95
455 0 69.0845 13.1578 909 133.152 1328.5 464.7
456 0 70.0645 13.3734 937 131.225 1327.59 465.321
457 0 74.0994 16.046 1189 127.564 1327.48 460.963
458 0 73.1764 13.8023 1010 133.561 1327.46 458.427
459 0 79.1658 15.0317 1190 130.556 1326.76 454.96
460 0 81.1495 15.8843 1289 129.529 1326.97 454.022
461 0 83.0626 14.6998 1221 131.587 1327.2 451.951
462 1 46.0222 11.1685 514 127.01 1327.55 472.276
463 0 46.097 8.65566 399 132.361 1328.99 472.211
464 0 44.1095 9.00032 397 135.103 1330.89 470.212
465 0 51.088 12.1163 619 127.388 1331.72 468.646
466 0 50.0269 12.3534 618 127.031 1333.33 465.96
467 0 51.0654 13.3946 684 127.588 1337.73 468.113
468 0 51.0307 11.7184 598 130.911 1339.91 465.963
469 0 54.0595 12.2828 664 127.967 1343 467.794
470 0 58.0904 15.4931 900 121.683 1343.94 466.143
471 0 55.0527 8.70076 479 132.837 1345.12 466.954
472 0 62.0833 9.74497 605 129.316 1345.38 465.848
473 0 65.0233 13.3952 871 122.464 1345.19 468.268
474 0 64.0666 15.3122 981 120.892 1345.45 466.854
475 0 66.05 12.8388 848 125.759 1344.84 466.004
476 0 71.2174 13.5781 967 124.412 1344.44 463.594
477 0 69.0748 11.3645 785 129.862 1343.71 463.989
478 1 40.1437 8.46958 340 127.747 1343.51 481.479
479 0 42.0854 9.9797 420 123.517 1342.15 483.962
480 0 40.0364 13.5626 543 122.398 1341.4 482.155
481 0 42.0692 12.4794 525 122.91 1339.95 483.385
482 0 43.1191 8.48811 366 129.424 1338.9 482.648
483 0 45.0356 13.5004 608 124.451 1337.33 477.816
484 0 45.06 9.67599 436 129.86 1335.86 477.881
485 0 49.1526 13.4072 659 122.003 1335.05 476.877
486 0 49.1326 14.2472 700 123.811 1332.97 473.554
487 0 50.0738 12.5615 629 127.541 1331.78 473.308
488 0 52.3027 13.7278 718 125.531 1331.05 470.052
489 0 52.1675 11.9998 626 128.47 1331.03 470.952
490 0 56.1404 13.6266 765 125.48 1330.8 470.225
491 0 57.267 13.5855 778 126.895 1330.22 465.487
492 0 57.1371 14.6315 836 126.633 1330.42 464.891
493 0 60.1572 14.7946 890 125.657 1330.26 465.734
494 0 62.1973 14.2771 888 128.235 1330.64 462.166
495 0 64.0955 12.3878 794 131.621 1331.01 461.729
496 0 66.1016 11.2554 744 135.392 1331.78 460.276
497 0 71.2321 17.5202 1248 125.094 1333.22 455.908
498 0 74.1271 16.1749 1199 126.551 1334.69 457.072
499 0 74.1071 13.5884 1007 133.103 1336.57 454.312
500 1 41.0439 11.8166 485 133.045 1339.79 472.184
501 0 43.0157 12.0654 519 133.513 1340.38 472.15
502 0 45.0669 10.6286 479 136.883 1341.65 473.436
503 0 47.1235 15.1517 714 128.136 1342.37 472.125
504 0 45.1121 13.5219 610 132.279 1345.04 473.289
505 0 46.1628 12.3909 572 133.295 1344.86 475.834
506 0 47.0907 13.0811 616 133.92 1344.52 474.773
507 0 48.0541 9.73902 468 140.767 1343.81 475.97
508 0 50.0249 14.7327 737 132.09 1344.14 475.271
509 0 51.0767 11.7079 598 138.545 1344.07 475.91
510 0 52.0467 10.7404 559 140.948 1343.87 476.016
511 0 54.1889 16.8485 913 130.399 1343.16 476.909
512 0 56.1297 12.1148 680 138.994 1342.03 478.279
513 0 55.0879 14.9579 824 136.989 1341.36 473.716
514 0 60.1434 15.6127 939 134.505 1339.68 473.913
515 0 60.0822 11.6008 697 142.746 1338.32 477.166
516 0 63.1978 14.0511 888 139.515 1337.1 472.238
517 0 66.0203 14.2532 941 139.04 1335.29 471.258
518 0 68.1394 16.4076 1118 135.512 1333.88 469.091
519 0 71.3263 16.081 1147 133.425 1333.87 470.689
520 0 71.1417 13.452 957 141.472 1333.33 467.655
521 1 38.0278 10.019 381 143.898 1331.09 482.507
522 0 38.0178 11.2579 428 144.848 1328.23 478.785
523 0 37.0412 11.9866 444 145.342 1327.61 476.734
524 0 39.086 12.1271 474 144.329 1329.53 474.643
525 0 41.0609 14.3689 590 136.283 1330.89 476.892
526 0 43.1011 15.8465 683 134.198 1329.95 475.286
527 0 45.1835 14.2973 646 136.093 1327.87 472.418
528 0 44.1375 14.2962 631 138.642 1329.46 471.458
529 0 47.137 14.5321 685 137.175 1331.95 471.196
530 0 48.0551 14.5458 699 137.984 1333.23 470.082
531 0 50.1072 13.8902 696 137.79 1335.32 469.103
532 1 106.331 13.4204 1427 136.942 1336.08 448.28
533 1 52.0581 14.1765 738 136.58 1338.8 466.706
534 0 54.1064 17.0405 922 131.82 1340.88 467.548
535 0 57.1298 16.3137 932 132.91 1342.31 467.672
536 0 59.0734 16.4541 972 130.533 1343.46 469.155
537 0 59.1323 14.5944 863 133.023 1344.78 468.087
538 0 61.2298 15.7766 966 131.413 1345.02 466.611
539 0 61.1733 15.6441 957 131.986 1345.01 465.74
540 0 65.135 15.7212 1024 132.074 1345.55 467.813
541 0 67.0863 15.1149 1014 133.346 1345.23 466.448
542 0 70.1629 16.9605 1190 130.307 1344.35 466.794
543 0 72.1313 17.3572 1252 126.763 1343.99 467.412
544 0 76.18 18.4957 1409 124.532 1342.95 466.268
545 1 39.0744 11.5933 453 136.227 1342.23 481.309
546 0 41.039 12.6465 519 133.476 1341.55 480.655
547 0 44.0263 11.0161 485 133.777 1340.64 481.511
548 0 42.0904 9.62214 405 137.42 1338.88 480.506
549 0 46.1977 14.438 667 127.312 1337.73 480.757
550 0 46.0681 12.6335 582 133.402 1336.51 477.471
551 0 48.2169 15.3681 741 127.418 1332.5 472.937
552 0 49.2817 13.1489 648 132.04 1331.36 474.026
553 0 47.1475 15.3773 725 129.83 1329.9 473.861
554 0 53.1299 15.0198 798 127.669 1329.46 472.535
555 0 53.0819 14.6378 777 126.799 1328.63 474.033
556 0 55.1326 14.7825 815 128.318 1328.38 469.412
557 0 58.1543 14.152 823 127.536 1328.28 469.175
558 0 57.2153 13.7201 785 129.227 1328.21 467.46
559 0 59.1342 15.2534 902 126.145 1328.12 464.643
560 0 63.0474 14.0846 888 128.324 1327.71 459.57
561 0 63.076 16.2661 1026 124.761 1328.84 459.738
562 0 67.1229 17.684 1187 120.673 1330.08 462.751
563 0 68.1544 14.7312 1004 125.917 1331.24 458.553
564 0 69.2099 16.3849 1134 123.674 1332.43 455.095
565 1 38.1068 12.36 471 125.809 1333.67 472.284
566 0 42.0239 11.5886 487 126.324 1335.3 473.205
567 0 42.1289 12.2481 516 125.293 1337.36 473.969
568 0 42.1567 10.034 423 131.593 1339.24 472.043
569 0 43.1462 13.6513 589 125.025 1340.64 473.2
570 0 48.0625 18.5592 892 113.929 1344.66 476.314
571 0 47.1556 16.032 756 120.714 1344.43 472.384
572 0 47.0651 11.5797 545 128.499 1343.07 473.429
573 0 51.2427 15.5729 798 117.764 1344.46 475.14
574 0 51.0529 14.5339 742 123.836 1343.05 472.462
575 0 53.0739 14.4515 767 124.125 1342.81 477.624
576 0 55.0646 15.164 835 124.354 1342.48 475.97
577 0 57.1079 15.9172 909 124.046 1341.85 476.581
578 0 57.0742 13.9292 795 128.279 1340.68 476.318
579 0 62.0542 17.0174 1056 122.67 1340.19 475.899
580 0 60.0688 14.3835 864 128.066 1339.41 476.267
581 0 62.1082 19.2889 1198 120.901 1338.42 473.505
582 0 67.0621 16.9544 1137 123.253 1337.18 474.33
583 0 67.1821 16.6711 1120 123.766 1336.01 472.964
584 0 70.0441 16.4325 1151 124.115 1334.67 472.282
585 0 71.1235 14.8755 1058 128.607 1333.13 468.471
586 0 73.1974 15.7519 1153 126.239 1331.93 470.226
587 0 75.1529 15.8344 1190 127.224 1330.62 466.39
588 0 76.2298 15.7944 1204 129.06 1329.78 463.983
589 0 79.1136 15.0543 1191 130.033 1329.06 465.088
590 0 83.2241 15.5484 1294 129.757 1328.75 460.452
591 0 87.3303 17.4281 1522 125.798 1328.16 461.783
592 0 89.16 14.5357 1296 132.201 1327.57 456.525
593 1 46.0285 8.9727 413 138.119 1327.26 479.143
594 0 51.043 12.4209 634 133.448 1327.58 475.809
595 0 50.1445 13.0224 653 131.761 1328.54 475.181
596 0 49.0622 14.4918 711 129.978 1330.01 475.745
597 0 54.0665 11.8188 639 135.723 1331.12 474.39
598 0 55.1557 12.3831 683 133.634 1332.48 475.991
599 0 58.2372 14.9732 872 129.479 1333.73 472.397
600 0 57.0981 17.0233 972 127.147 1335.01 469.696
601 0 61.2852 15.795 968 128.886 1337.53 471.557
602 0 60.2733 14.8158 893 135.093 1337.76 471.125
603 0 65.2176 17.0506 1112 129.005 1337.8 469.612
604 0 64.1944 14.4717 929 137.062 1339.27 465.35
605 0 68.2147 13.2816 906 138.765 1338.97 467.173
606 0 69.1935 13.5417 937 138.245 1338.46 464.245
607 0 72.2415 11.683 844 140.192 1338.78 468.252
608 0 77.1768 17.9069 1382 128.022 1338.55 468.009
609 0 80.1728 15.9281 1277 132.193 1337.99 466.511
610 0 84.1373 14.7022 1237 134.838 1337.59 465.935
611 0 86.2967 15.551 1342 134.308 1336.17 466.594
612 0 91.3509 17.3397 1584 132.054 1334.78 461.794
613 0 92.5485 20.6811 1914 127.926 1333.3 456.954
614 1 51.5281 12.8668 663 132.706 1332.58 477.63
615 0 49.1891 10.0226 493 140.349 1331.31 473.897
616 0 50.4569 12.9616 654 134.237 1328.94 475.795
617 0 53.3414 16.535 882 125.258 1327.76 476.955
618 0 53.2736 11.4691 611 138.696 1326.94 470.254
619 0 54.4211 12.8443 699 137.376 1325.94 468.655
620 0 59.0971 14.197 839 133.509 1324.98 468.317
621 0 59.1992 13.6151 806 135.641 1324.38 468.876
622 0 63.1156 17.2857 1091 128.791 1324.55 468.93
623 0 66.1475 15.6015 1032 130.018 1324.93 468.116
624 0 65.2147 15.288 997 132.834 1324.43 463.988
625 0 68.1949 13.4614 918 135.76 1325.61 461.331
626 0 71.2002 15.4213 1098 131.671 1325.75 462.126
627 0 73.2037 16.5156 1209 133.784 1325.94 455.857
628 0 74.294 14.7926 1099 137.637 1327.31 456.046
629 0 76.1443 13.33 1015 136.636 1329.08 455.505
630 0 78.2866 13.8338 1083 137.486 1329.83 450.689
631 0 83.0906 12.2276 1016 139.059 1331.21 452.999
632 0 86.3152 14.0068 1209 138.018 1333.23 450.261
633 1 44.071 12.3664 545 139.015 1335.06 469.58
634 0 46.0502 11.8132 544 139.967 1336.73 468.316
635 0 47.1889 11.5493 545 141.45 1338.88 469.903
636 0 53.0698 12.248 650 138.589 1340.77 470.914
637 0 53.1972 15.1324 805 135.221 1338.97 464.465
638 0 55.1563 13.3439 736 138.346 1341.88 471.295
639 0 56.2226 15.5454 874 134.395 1342.26 471.973
640 0 57.1476 13.0189 744 139.003 1342.48 473.786
641 0 58.0989 13.4254 780 142.679 1341.39 468.237
642 0 61.2195 14.9462 915 139.261 1341.05 470.117
643 0 64.2635 12.3865 796 144.666 1340.32 471.332
644 0 66.3333 14.2915 948 141.3 1339.91 469.921
645 0 64.3402 13.0867 842 144.912 1338.92 467.487
646 0 71.2365 20.0038 1425 129.719 1337.42 470.911
647 0 76.2668 16.1145 1229 136.796 1336.89 469.561
648 0 75.3104 16.3191 1229 138.904 1335.83 464.986
649 0 75.1953 13.7775 1036 144.952 1334.67 464.139
650 0 80.1909 15.8622 1272 139.332 1333.1 465.381
651 0 83.3801 18.0379 1504 136.468 1332.64 462.517
652 0 84.3208 16.0103 1350 141.321 1331 460.345
653 0 88.2427 15.5594 1373 142.593 1330.46 457.602
654 0 90.348 16.8792 1525 140.656 1329.32 452.201
655 0 93.1751 14.8001 1379 146.418 1328.87 450.492
656 0 97.196 16.4719 1601 140.948 1328.3 450.972
657 0 100.215 17.5723 1761 138.977 1327.81 448.006
658 1 55.2244 10.0499 555 149.402 1328.12 468.202
659 0 56.0855 10.9297 613 146.468 1328.91 468.705
660 0 59.0482 14.6321 864 143.564 1328.53 460.492
661 0 61.3578 13.7554 844 143.544 1328.68 456.761
662 0 64.2471 19.5184 1254 128.464 1329.81 458.804
663 0 64.1437 13.6568 876 138.547 1331.64 460.12
664 0 66.1662 18.6198 1232 131.027 1333.01 461.735
665 0 70.1263 16.727 1173 133.321 1335.21 460.766
666 0 72.1371 16.5241 1192 133.87 1336.72 459.659
667 0 74.2083 14.6345 1086 139.296 1338.47 457.113
668 0 74.2382 13.2412 983 141.822 1340.62 460.576
669 0 77.1506 15.6577 1208 136.3 1341.46 457.9
670 0 81.2697 14.8395 1206 136.059 1342.81 458.355
671 0 81.2697 14.9133 1212 146.702 1343.83 458.297
672 0 87.1499 16.8331 1467 134.81 1343.29 456.813
673 0 90.2958 18.5834 1678 133.216 1342.99 456.597
674 0 93.322 15.4519 1442 141.852 1342.54 455.234
675 0 94.1072 13.729 1292 145.748 1341.87 454.857
676 0 97.3879 12.8353 1250 146.871 1341.37 456.066
677 0 102.239 18.1438 1855 137.529 1340.8 452.786
678 0 104.313 16.9778 1771 140.174 1339.33 453.18
679 0 106.271 16.4485 1748 143.521 1338 445.829
680 1 60.3078 11.7066 706 144.33 1336.74 472.382
681 0 63.1378 14.1437 893 139.605 1335.23 469.992
682 0 63.3752 12.213 774 142.681 1333.77 469.92
683 0 64.3428 11.8117 760 145.764 1332.59 460.782
684 0 69.3243 17.9735 1246 132.139 1331.41 465.184
685 0 69.1677 12.5058 865 142.112 1329.82 465.51
686 0 76.1796 16.8024 1280 131.421 1328.98 466.115
687 0 76.1728 16.8039 1280 131.294 1327.93 466.113
688 0 80.1579 14.8457 1190 136.008 1328.07 458.13
689 0 79.1626 13.7186 1086 139.864 1327.48 454
690 0 83.0938 13.1658 1094 139.933 1326.8 455.171
691 0 85.2068 15.0692 1284 137.475 1327.51 449.227
692 0 89.1106 14.6111 1302 138.126 1328.01 447.567
693 0 91.1125 14.1693 1291 138.006 1327.65 448.404
694 0 93.0722 14.752 1373 136.544 1328.55 446.739
695 0 96.2192 14.2695 1373 139.344 1329.93 438.075
696 1 54.2003 8.28408 449 141.189 1331.64 464.996
697 0 52.2084 10.3623 541 138.015 1333.3 463.715
698 0 58.2964 11.0985 647 136.314 1334.91 461.422
699 0 60.2159 13.053 786 132.112 1336.73 460.832
700 0 62.0772 12.1623 755 132.788 1339 456.457
701 0 64.2687 12.8367 825 132.315 1339.56 459.897
702 0 64.1968 11.714 752 132.697 1340.7 462.577
703 0 70.0887 12.6839 889 131.843 1341.71 458.422
704 0 71.13 17.5172 1246 123.885 1341.42 456.555
705 0 72.1924 13.3532 964 131.26 1341.97 458.711
706 0 72.2009 13.3655 965 127.317 1341.97 458.817
707 0 78.2446 13.9434 1091 132.892 1342.05 454.435
708 0 80.0803 15.1972 1217 130.633 1342.18 456.954
709 1 43.1448 8.0195 346 131.705 1342.66 479.405
710 0 43.081 10.6079 457 134.276 1341.51 473.58
711 0 45.1173 11.8136 533 131.831 1339.83 473.36
712 0 47.1641 15.181 716 127.497 1338.6 473.652
713 0 47.1677 11.3213 534 132.493 1337.18 475.009
714 0 50.3226 11.9231 600 133.665 1335.26 470.205
715 0 51.2521 10.0874 517 135.998 1334.89 471.725
716 0 52.1419 10.8358 565 136.85 1329.51 471.276
717 0 55.1541 15.7196 867 125.28 1328.81 470.641
718 0 55.2527 12.4881 690 132.959 1327.86 469.435
719 0 56.383 13.6034 767 130.97 1327.25 466.941
720 0 55.2241 13.581 750 131.859 1327.11 467.592
721 0 54.2228 13.8318 750 124.641 1328.16 467.424
722 0 61.1246 17.6688 1080 126.529 1326.61 462.606
723 0 62.1953 14.6635 912 131.638 1326.71 460.944
724 0 62.1453 13.0662 812 135.972 1326.98 460.23
725 0 63.2053 12.7046 803 135.046 1327.19 457.726
726 0 70.1466 15.2395 1069 127.782 1328.41 458.675
727 0 71.1744 15.7079 1118 127.267 1329.15 455.542
728 0 71.1223 14.0462 999 134.476 1330.28 452.547
729 0 78.1888 16.2299 1269 125.927 1331.68 453.158
730 0 77.1545 15.955 1231 127.425 1333.51 454.562
731 0 81.2438 15.0535 1223 131.419 1335.3 450.592
732 1 43.0503 15.8884 684 121.857 1337.28 470.915
733 0 47.0904 11.1488 525 129.349 1341.39 469.394
734 0 47.1389 11.1161 524 129.227 1341.46 469.876
735 0 50.2206 13.5602 681 124.812 1342.46 470.89
736 0 54.0761 14.8679 804 121.764 1344.14 472.48
737 0 53.108 12.9547 688 127.084 1343.33 471.863
738 0 53.4296 12.8019 684 126.861 1343.28 474.895
739 0 55.1774 13.5925 750 129.32 1342.21 471.647
740 0 55.1995 11.8117 652 130.196 1342.25 474.052
741 0 58.2522 11.9309 695 129.193 1341.41 476.052
742 0 61.1936 11.7986 722 130.157 1340.17 475.954
743 0 61.3103 13.8802 851 128.024 1338.7 473.431
744 0 61.2645 10.3975 637 135.474 1336.87 473.113
745 0 65.1894 12.9929 847 131.119 1335.59 469.086
746 0 71.2733 14.0866 1004 126.6 1333.85 474.403
747 0 72.2005 13.8365 999 128.66 1332.6 470.176
748 0 73.2756 15.1756 1112 126.407 1331.15 470.54
749 0 74.2217 12.5839 934 131.928 1330.2 468.264
750 0 77.2178 16.2916 1258 126.897 1329.01 463.89
751 1 42.1055 13.6087 573 125.838 1329.21 483.415
752 0 44.0293 11.2425 495 128.006 1328.36 484.073
753 0 45.0912 12.8628 580 127.583 1327.99 480.809
754 0 46.0254 14.7744 680 125.715 1326.36 478.399
755 0 46.1425 14.9753 691 126.553 1325.06 472.169
756 0 48.3012 11.3662 549 132.652 1325.49 473.208
757 0 51.051 15.1221 772 124.301 1327.16 475.525
758 0 52.1734 12.5735 656 130.377 1327.52 472.98
759 0 54.1104 12.5299 678 126.676 1328.27 475.997
760 0 54.134 18.0293 976 121.61 1328.33 470.943
761 0 55.2916 13.1123 725 128.646 1329.31 471.568
762 0 58.217 12.4019 722 129.871 1331.15 469.044
763 0 61.1848 12.9771 794 127.975 1332.35 469.908
764 0 61.167 14.158 866 127.751 1334.23 466.15
765 0 66.2289 13.0759 866 127.044 1335.61 470.268
766 0 68.1529 13.7485 937 129.422 1336.15 465.839
767 0 71.1685 13.5875 967 129.008 1337.8 466.668
768 0 69.2118 14.9252 1033 128.911 1339 463.685
769 0 73.2343 14.7199 1078 132.974 1339.59 464.574
770 0 76.2132 20.81 1586 121.533 1340.17 465.184
771 0 77.2803 17.1066 1322 128.098 1339.82 464.419
772 0 77.2963 16.1068 1245 132.41 1339.86 463.331
773 0 79.2579 14.0049 1110 137.254 1339.49 464.79
774 0 83.2027 13.2207 1100 139.089 1338.91 466.693
775 0 89.2995 14.121 1261 137.085 1337.71 465.756
776 0 90.2836 16.3263 1474 135.563 1336.12 465.151
777 1 50.071 11.8432 593 140.035 1336.44 481.723
778 0 52.1375 12.3711 645 135.367 1334.26 483.983
779 0 52.1375 12.2369 638 141.114 1332.26 484.052
780 0 52.1322 12.6409 659 139.046 1330.24 484.414
781 0 56.4005 11.3119 638 139.466 1329.6 475.636
782 0 56.0868 15.8148 887 132.131 1328.33 478.538
783 0 56.1176 16.9822 953 131.976 1327.4 474.107
784 0 60.1514 14.7295 886 134.979 1326.2 472.921
785 0 59.2021 13.6819 810 138.601 1325.62 468.812
786 0 60.2323 13.9792 842 138.634 1324.66 467.14
787 0 63.1469 14.205 897 136.604 1323.98 463.914
788 0 64.1461 15.5894 1000 126.831 1322.97 464.672
789 0 68.1513 13.4847 919 137.737 1323.77 462.512
790 0 70.1226 12.9202 906 137.401 1323.82 461.669
791 0 73.1612 14.1742 1037 133.154 1324.51 461.977
792 0 74.256 13.5747 1008 135.393 1325.37 457.262
793 0 78.3045 17.483 1369 128.905 1325.73 451.264
794 0 78.1853 12.7134 994 138.167 1326.9 454.891
795 0 80.2547 15.2016 1220 135.668 1328.21 447.975
796 0 84.2976 12.3491 1041 139.638 1329.56 447.047
797 0 87.2022 17.9927 1569 128.746 1332.1 448.724
798 0 89.236 12.0019 1071 137.38 1333.24 452.646
799 0 89.118 12.3768 1103 139.394 1335.04 448.153
800 0 93.2114 15.6204 1456 134.213 1336.18 446.513
801 0 97.1962 13.8586 1347 136.401 1337.42 446.31
802 1 48.1364 9.07838 437 140.172 1340.1 465.101
803 0 50.1002 8.46305 424 137.476 1341.24 469.248
804 0 57.0842 14.8027 845 126.921 1341.67 467.867
805 0 56.1578 10.8623 610 133.91 1338.51 467.518
806 0 60.1046 13.4266 807 128.216 1338.31 464.834
807 0 62.1407 15.2557 948 125.156 1338.03 467.142
808 0 62.2263 12.6795 789 132.739 1337.34 468.622
809 0 65.1561 14.7185 959 129.957 1337.27 467.995
810 0 69.1099 13.7607 951 131.079 1336.82 468.371
811 0 72.0597 14.5019 1045 129.658 1336.29 466.056
812 0 73.1568 16.6082 1215 127.179 1335.62 465.16
813 0 72.1014 14.757 1064 133.117 1335.47 464.324
814 0 76.1145 13.7687 1048 135.818 1334.24 459.008
815 0 78.1349 12.4144 970 138.403 1333.14 460.273
816 0 81.123 15.9018 1290 131.6 1332.13 459.584
817 0 81.1603 13.4672 1093 138.377 1330.79 453.557
818 0 86.2519 15.9881 1379 133.508 1330.07 454.165
819 1 49.0328 9.93213 487 137.817 1329.3 471.977
820 0 53.1836 9.34499 497 139.435 1328.96 469.63
821 0 51.1144 11.7971 603 136.277 1328.81 468.721
822 0 55.1583 13.7241 757 132.281 1331.14 465.054
823 0 56.0232 16.0112 897 126.161 1330.61 466.402
824 0 59.1903 13.9381 825 130.784 1329.86 466.842
825 0 61.0682 13.1656 804 133.42 1328.74 464.403
826 0 61.2334 12.8035 784 135.56 1330.88 462.922
827 0 62.0833 13.0631 811 135.728 1329.97 462.075
828 0 66.068 13.6677 903 133.291 1331.53 460.058
829 0 65.0729 13.7845 897 135.23 1332.98 459.089
830 0 69.0543 13.3663 923 133.961 1334.65 460.079
831 0 68.0992 13.3335 908 136.138 1336.31 454.499
832 0 71.1698 15.8073 1125 130.064 1337.42 458.975
833 0 74.0816 16.3603 1212 129.24 1340.04 454.997
834 0 78.0981 12.9197 1009 133.941 1340.88 456.363
835 0 80.2354 12.8871 1034 133.797 1341.67 456.002
836 0 83.3727 15.2808 1274 126.214 1343.26 453.437
837 0 85.3029 14.724 1256 130.663 1342.8 453.544
838 0 88.2483 14.9918 1323 127.147 1343.34 455.283
839 1 47.0958 8.83305 416 136.308 1342.38 472.406
840 0 50.0709 13.6207 682 128.438 1342.36 476.683
841 0 52.1225 12.816 668 132.355 1343.47 474.921
842 0 52.1225 12.8927 672 120.982 1343.45 474.943
843 0 53.2282 11.4601 610 132.803 1342.03 474.764
844 0 55.3984 12.6719 702 131.209 1340.76 475.781
845 0 58.3777 11.6654 681 130.828 1339.28 476.294
846 0 57.3584 11.28 647 135.583 1337.58 471.272
847 0 62.4095 13.0108 812 130.789 1336.08 468.191
848 0 64.1739 8.77304 563 135.588 1333.77 473.659
849 0 65.1469 13.1242 855 131.273 1332.13 467.558
850 0 66.1742 14.749 976 127.623 1331.64 467.492
851 0 68.211 13.0771 892 130.824 1330.34 465.51
852 0 71.365 12.9475 924 131.527 1330.26 462.515
853 0 73.2532 13.624 998 131.284 1328.52 456.645
854 0 75.304 17.5555 1322 124.706 1328.18 455.169
855 0 75.24 12.5465 944 133.074 1328.14 454.168
856 0 80.3002 12.3536 992 133.684 1328.23 454.087
857 0 82.4146 16.1137 1328 128.209 1328.19 449.481
858 0 86.1804 15.1891 1309 129.112 1328.9 451.286
859 1 47.0396 11.7773 554 128.563 1331.22 473.065
860 0 45.1072 8.31352 375 137.168 1331.81 471.445
861 0 48.0877 9.7946 471 132.146 1332.4 473.395
862 0 48.1167 12.9061 621 131.747 1332.87 467.969
863 0 49.1569 12.572 618 129.126 1333.02 465.888
864 0 53.2773 15.0909 804 125.155 1333.79 469.193
865 0 51.057 11.1052 567 132.457 1336.04 467.178
866 0 55.0667 12.9843 715 129.432 1337.11 469.945
867 0 55.0789 11.4745 632 133.911 1338.12 465.193
868 0 58.2084 13.3829 779 128.71 1339.05 465.472
869 0 59.1513 14.3192 847 127.124 1340.08 469.955
870 0 61.1512 14.3252 876 128.155 1339.8 462.896
871 0 65.0867 16.3167 1062 124.043 1340.05 465.304
872 0 66.1332 14.6371 968 127.932 1340.31 465.742
873 0 69.1064 18.2038 1258 121.089 1340.62 469.556
874 0 69.175 13.6032 941 132.715 1339.45 467.265
875 0 70.1061 14.3211 1004 132.333 1339.19 469.662
876 0 75.3121 17.2881 1302 128.508 1338.62 466.41
877 0 79.25 15.5962 1236 130.965 1337.67 467.041
878 0 79.2343 17.8206 1412 128.317 1336.21 465.851
879 0 82.2809 19.1539 1576 125.954 1335.39 466.076
880 0 85.246 17.69 1508 127.607 1333.56 464.674
881 0 86.3198 21.3856 1846 123.794 1332.42 458.378
882 1 46.1076 13.0564 602 128.066 1332.04 478.968
883 0 45.1126 8.04654 363 139.347 1330.9 475.68
884 0 46.0405 7.53685 347 136.268 1329.83 476.464
885 0 52.3077 10.7441 562 131.911 1328.72 472.468
886 0 53.2234 15.745 838 123.499 1328.24 471.243
887 0 54.2652 15.1662 823 125.487 1327.45 468.702
888 0 56.0826 13.1592 738 130.779 1326.52 466.142
889 0 56.0508 13.2915 745 130.868 1324.8 469.761
890 0 58.1114 11.4263 664 135.444 1324.67 467.012
891 0 59.1437 15.3862 910 129.257 1325.14 464.52
892 0 61.0318 15.369 938 129.842 1326.32 461.353
893 0 64.1332 14.1736 909 131.406 1327.05 460.289
894 0 63.1098 16.0831 1015 129.971 1328.39 458.984
895 0 69.1428 17.8327 1233 125.166 1329.8 460.273
896 0 70.4146 15.7922 1112 128.87 1331.18 457.517
897 0 73.1479 16.6512 1218 126.779 1333.49 457.273
898 0 73.1732 17.5611 1285 127.395 1335.21 454.036
899 0 78.6372 18.4391 1450 124.95 1336.76 454.616
900 0 74.1092 12.3331 914 136.988 1338.2 452.171
901 0 80.2912 15.8672 1274 128.994 1338.56 452.4
902 0 81.183 18.4768 1500 125.336 1338.88 455.635
903 0 84.2539 17.2336 1452 129.809 1339.54 448.278
904 0 84.0652 14.6434 1231 133.567 1340.14 454.139
905 0 89.3252 19.0092 1698 127.619 1340.51 449.545
906 1 48.1997 10.4772 505 133.113 1339.55 471.863
907 0 51.1717 10.0642 515 132.845 1338.92 472.792
908 0 52.0761 12.6546 659 131.414 1338.36 472.349
909 0 54.2127 12.9121 700 131.274 1337.84 470.991
910 0 56.0683 11.3255 635 135.005 1337.41 473.159
911 0 59.1964 16.9098 1001 126.673 1336.98 470.477
912 0 59.3844 13.421 797 132.902 1337.44 471.23
913 0 62.1866 12.5429 780 135.703 1336.43 468.653
914 0 66.2811 17.1542 1137 127.172 1335.83 468.249
915 0 64.2777 14.4996 932 132.843 1334.49 466.054
916 0 68.1844 13.9328 950 133.934 1333.15 465.524
917 0 70.2226 17.886 1256 126.765 1332.28 466.58
918 0 72.1289 17.0112 1227 129.306 1330.22 459.97
919 0 74.2507 17.7776 1320 128.178 1329.93 458.608
920 0 76.2071 14.8149 1129 132.56 1329.42 457.998
921 0 79.2289 14.5149 1150 133.722 1329.12 455.886
922 0 80.3072 20.9072 1679 124.846 1329.04 452.046
923 0 81.1225 14.0035 1136 137.191 1328.45 450.568
924 0 83.1124 15.088 1254 134.037 1328.54 449.104
925 1 48.0681 9.15368 440 134.282 1329.77 470.334
926 0 47.0248 10.016 471 135.442 1330.03 467.174
927 0 48.0581 9.94629 478 135.201 1331.31 467.209
928 0 53.0254 15.5963 827 125.831 1332.97 466.279
929 0 53.0686 12.4933 663 129.876 1334.58 469.199
930 0 56.1229 14.8959 836 126.472 1335.67 462.11
931 0 57.0888 13.2951 759 129.862 1338.89 465.864
932 0 58.0861 15.3049 889 129.181 1340.63 462.472
933 0 62.2494 12.98 808 128.655 1340.7 467.255
934 0 61.0762 16.2911 995 128.065 1342.45 460.231
935 0 65.0765 14.1218 919 131.096 1342.79 458.05
936 0 65.107 14.192 924 131.89 1343.88 456.893
937 0 65.129 12.6058 821 135.704 1344.62 458.81
938 0 71.1514 17.1325 1219 126.778 1345.01 461.547
939 0 74.0785 15.7266 1165 129.141 1345.26 460.18
940 0 78.1189 14.6315 1143 130.897 1344.92 460.887
941 0 78.0914 17.5948 1374 127.469 1343.73 458.281
942 0 80.0907 14.1839 1136 133.268 1343.5 459.754
943 0 85.0663 16.6694 1418 129.515 1341.98 457.647
944 0 85.1199 13.2284 1126 135.671 1340.42 456.284
945 1 43.0184 11.6927 503 131.901 1340.43 476.087
946 0 47.061 9.6683 455 131.903 1337.22 476.958
947 0 49.1672 9.7016 477 134.946 1335.32 472.644
948 0 50.052 11.4281 572 132.304 1334.89 473.612
949 0 53.0417 10.2184 542 132.386 1335.02 472.12
950 0 57.191 12.6768 725 129.527 1334.62 471.383
951 0 58.18 12.5988 733 131.104 1331.62 467.894
952 0 58.1221 13.0415 758 129.397 1330.7 469.166
953 0 60.2288 11.7884 710 132.213 1330.08 464.786
954 0 63.3197 11.7815 746 132.04 1329.79 463.596
955 0 68.1403 14.5582 992 127.545 1329.72 457.132
956 0 68.1026 13.6852 932 130.069 1330.05 459.216
957 0 73.1966 12.8011 937 130.323 1329.66 460.065
958 0 76.1025 13.5344 1030 130.659 1330.52 455.199
959 0 76.0706 11.5945 882 137.136 1331.35 450.051
960 0 78.1473 11.6703 912 137.144 1332.18 449.353
961 0 81.1904 12.3167 1000 136.489 1333.71 448.226
962 0 85.3641 14.7369 1258 131.805 1334.98 443.513
963 0 90.3102 15.0371 1358 132.321 1336.76 441.471
964 0 92.5296 14.752 1365 132.362 1338.41 442.81
965 0 96.3738 15.1701 1462 132.417 1340.19 439.777
966 0 99.3366 17.6571 1754 128.151 1341.87 441.828
967 1 54.1939 5.33271 289 139.453 1343.51 466.415
968 0 54.1344 10.5293 570 131.66 1343.72 462.398
969 0 58.1578 10.2996 599 126.088 1344.8 465.242
970 0 61.2208 9.3759 574 129.148 1344.26 466.74
971 0 62.1014 8.71156 541 132.998 1344.64 462.619
972 0 66.1054 11.9506 790 125.968 1344.47 464.334
973 0 73.2107 13.2085 967 125.148 1342.34 467.836
974 0 71.1512 13.4081 954 128.827 1341.66 464.195
975 0 71.0516 12.7513 906 131.485 1341.32 461.06
976 0 76.2633 12.7847 975 131.646 1340.36 461.636
977 0 78.1414 14.9985 1172 129.12 1338.6 460.562
978 0 79.3555 14.6808 1165 129.395 1337.72 462.024
979 0 82.5841 15.8505 1309 129.542 1336.49 457.041
980 0 87.5643 13.8869 1216 132.614 1334.19 454.586
981 0 87.39 14.6012 1276 130.959 1332.77 456.859
982 0 92.6385 14.6052 1353 132.594 1331.65 452.846
983 1 54.2169 13.0402 707 129.108 1330.22 470.468
984 0 51.2932 10.8007 554 134.852 1330.05 468.361
985 0 54.2831 11.2927 613 135.54 1329.14 465.591
986 0 56.3007 13.641 768 128.738 1327.83 467.152
987 0 59.1878 12.6884 751 132.535 1327.25 462.719
988 0 56.0842 11.3223 635 135.86 1326.49 465.176
989 0 61.12 14.1852 867 129.394 1327.4 462.206
990 0 61.1137 12.9267 790 133.89 1326.45 462.405
991 0 64.1737 15.5671 999 127.998 1326.82 462.661
992 0 66.2501 16.1207 1068 128.496 1327.42 459.393
993 0 69.2569 17.399 1205 126.192 1328.42 457.102
994 0 72.2191 19.787 1429 121.458 1329.45 457.366
995 0 72.2292 18.469 1334 125.37 1331.16 458.204
996 0 74.139 16.9007 1253 129.959 1333.57 454.13
997 0 76.1769 15.3458 1169 132.053 1334.33 452.134
998 0 78.1486 15.9568 1247 131.662 1336.35 451.419
999 0 80.1034 15.9793 1280 133.038 1337.5 450.53
1000 0 83.1188 15.2914 1271 133.432 1338.16 452.895
1001 0 84.1302 13.1344 1105 139.16 1339.9 451.128
1002 0 88.2356 15.1866 1340 135.833 1340.08 448.043
1003 0 92.2922 14.5083 1339 137.751 1340.8 448.851
1004 1 53.0599 8.63176 458 137.913 1340.53 473.662
1005 0 53.0608 8.51852 452 156.553 1341.54 473.692
1006 0 54.115 14.1366 765 130.629 1342.01 474.323
1007 0 57.0415 10.2382 584 138.104 1342.08 475.341
1008 0 59.0419 11.8221 698 134.837 1342.03 474.014
1009 0 59.0553 11.938 705 137.248 1343.71 470.942
1010 0 61.0624 15.9182 972 132.091 1342.12 469.326
1011 0 65.0799 13.8752 903 131.539 1339.1 474.932
1012 0 65.2804 14.8437 969 133.484 1338.3 470.607
1013 0 66.1853 11.9815 793 139.907 1336.82 469.369
1014 0 70.1803 14.3345 1006 135.532 1335.35 468.281
1015 0 72.1404 13.2935 959 135.975 1333.86 469.786
1016 0 71.0911 12.4629 886 139.551 1332.71 464.141
1017 0 74.1701 13.9814 1037 136.249 1331.68 464.272
1018 0 78.1766 14.7359 1152 131.086 1331.03 469.655
1019 0 79.2362 14.6776 1163 134.538 1330.08 464.284
1020 0 83.271 13.426 1118 135.449 1329.43 461.771
1021 0 86.124 14.8507 1279 134.324 1329.07 454.316
1022 0 87.2589 13.6032 1187 135.629 1328.2 456.357
1023 0 90.1894 16.0107 1444 131.867 1328.09 454.26
1024 0 94.2428 17.5398 1653 129.6 1328.21 452.353
1025 0 97.2934 13.5672 1320 134.38 1328.6 452.763
1026 0 97.2699 14.7425 1434 134.182 1328.57 451.215
1027 0 100.225 13.9286 1396 137.326 1329.78 446.7
1028 0 104.246 15.7321 1640 133.413 1330.34 449.21
1029 0 107.266 17.1256 1837 130.714 1331.66 443.231
1030 0 110.378 16.0449 1771 131.551 1332.17 445.038
1031 0 112.365 16.2151 1822 131.993 1334.22 440.25
1032 0 121.342 18.9381 2298 126.361 1336.01 437.579
1033 1 67.4677 12.4208 838 127.516 1337.35 472.111
1034 0 71.3124 12.3821 883 131.163 1338.43 466.399
1035 0 74.1619 14.32 1062 126.815 1339.33 465.211
1036 0 75.3706 13.0157 981 130.383 1340.31 466.835
1037 0 79.1664 15.739 1246 125.345 1340.25 466.409
1038 0 81.1617 12.703 1031 131.811 1340.01 468.82
1039 0 83.0799 13.6014 1130 131.433 1340.73 467.021
1040 0 86.1467 17.981 1549 124.07 1339.61 467.785
1041 0 93.2424 15.6688 1461 126.477 1339.26 466.315
1042 0 95.1005 14.7738 1405 129.325 1338.29 465.525
1043 0 101.436 17.7354 1799 123.198 1336.84 463.54
1044 1 56.253 12.3727 696 131.18 1335.54 482.076
1045 0 55.0559 11.8062 650 132.434 1332.58 480.297
1046 0 57.1364 12.5489 717 131.244 1331.84 479.245
1047 0 58.1795 12.513 728 131.104 1330.51 479.066
1048 0 63.1761 14.1668 895 128.354 1329.07 476.495
1049 0 62.1648 15.7806 981 126.75 1327.94 472.425
1050 0 64.2796 15.6659 1007 126.76 1326.5 474.125
1051 0 67.188 15.851 1065 126.522 1325.67 472.673
1052 0 68.1549 15.0833 1028 128.368 1325.27 471.514
1053 0 66.0642 14.4708 956 132.493 1325.39 467.072
1054 0 71.1339 17.9661 1278 124.513 1325.73 468.215
1055 0 72.2214 16.2971 1177 128.133 1325.32 465.251
1056 0 73.0923 18.8255 1376 125.234 1325.45 456.613
1057 0 80.1995 17.0824 1370 127.076 1326.72 459.741
1058 0 80.1762 20.8042 1668 121.55 1326.6 460.001
1059 0 82.0853 14.8504 1219 133.08 1327.25 455.539
1060 0 81.249 15.0402 1222 134.09 1328.21 453.004
1061 0 90.3989 15.1772 1372 133.56 1329.6 451.749
1062 0 91.3565 17.9517 1640 128.739 1330.49 453.116
1063 0 93.361 15.7882 1474 133.855 1332.4 447.301
1064 0 99.1888 15.778 1565 133.62 1334.04 447.531
1065 0 98.4523 18.4556 1817 129.272 1336.03 445.943
1066 0 101.285 17.7519 1798 131.913 1336.93 439.756
1067 0 106.26 19.0005 2019 127.855 1338.55 442.733
1068 1 59.2448 13.0982 776 135.058 1339.89 461.115
1069 0 62.3218 10.3976 648 136.302 1341.47 464.387
1070 0 62.1963 10.2739 639 139.29 1341.35 464.865
1071 0 66.4419 14.9153 991 129.986 1342.17 460.261
1072 0 69.1464 12.1192 838 131.599 1343.65 464.822
1073 0 70.2926 17.3845 1222 126.034 1343.34 461.363
1074 0 74.431 14.3489 1068 131.451 1342.5 461.053
1075 0 75.1311 15.9322 1197 126.456 1342.93 458.186
1076 0 76.3048 13.4985 1030 132.154 1342.39 457.158
1077 0 78.2528 17.699 1385 126.781 1341.81 457.094
1078 0 81.3038 16.6659 1355 129.322 1340.94 456.106
1079 0 85.3417 16.9788 1449 129.952 1339.85 453.056
1080 0 88.3392 18.146 1603 129.23 1338.47 454.629
1081 0 92.171 20.4186 1882 126.335 1336.74 450.42
1082 0 95.1266 17.4925 1664 132.118 1335.3 451.325
1083 0 95.1557 16.5833 1578 134.811 1333.78 451.389
1084 0 99.4578 16.7508 1666 136.872 1333.43 449.199
1085 0 103.444 18.3674 1900 134.744 1331.9 445.848
1086 0 106.57 15.9708 1702 139.939 1330.95 440.434
1087 0 108.396 17.0302 1846 138.704 1330.39 437.97
1088 0 111.306 19.2442 2142 135.581 1330.32 434.902
1089 1 66.3613 10.1113 671 148.754 1329.96 457.641
1090 0 67.376 9.76609 658 152.792 1329.12 454.897
1091 0 70.4956 13.5186 953 145.234 1330.14 450.821
1092 0 73.1448 15.3121 1120 137.993 1329.24 453.392
1093 0 75.3772 15.1239 1140 142.41 1329.93 448.416
1094 0 76.4416 14.5994 1116 143.562 1330.7 445.98
1095 0 79.2051 14.898 1180 143.664 1331.82 444.995
1096 0 82.2541 17.9201 1474 136.732 1333.96 444.625
1097 0 86.268 16.3096 1407 140.338 1335.52 441.706
1098 0 89.3623 17.7368 1585 138.221 1336.31 441.471
1099 0 93.446 18.9735 1773 133.798 1338.74 440.578
1100 0 94.4301 16.1389 1524 141.402 1340.04 440.108
1101 0 97.5354 16.6504 1624 136.61 1342.46 440.712
1102 0 103.386 16.7625 1733 134.838 1343.48 440.14
1103 0 106.797 18.7365 2001 129.733 1344.69 433.486
1104 0 109.665 15.9485 1749 134.758 1344.67 439.212
1105 0 111.381 16.8879 1881 137.223 1344.59 437.535
1106 0 113.61 15.3068 1739 142.444 1344.87 435.352
1107 0 115.354 16.4624 1899 141.464 1344.21 437.737
1108 0 118.411 13.3264 1578 149.928 1343.59 437.582
1109 0 125.433 18.6633 2341 139.073 1343.14 433.71
1110 0 130.409 17.2074 2244 141.123 1341.59 433.586
1111 0 136.616 16.4988 2254 140.551 1340.69 434.048
1112 0 140.441 16.0851 2259 141.658 1339.6 429.61
1113 1 76.2445 13.6666 1042 143.548 1337.34 457.18
1114 0 78.4749 11.9911 941 145.222 1335.88 457.578
1115 0 82.7598 14.4273 1194 138.136 1335.16 458.774
1116 0 82.4141 13.0196 1073 143.72 1332.88 457.041
1117 0 85.4626 15.1645 1296 139.018 1331.5 454.519
1118 0 88.2022 12.9362 1141 142.018 1329.59 450.651
1119 0 92.262 15.7269 1451 136.493 1329.09 447.77
1120 0 95.2126 18.8105 1791 128.252 1328.14 450.183
1121 0 99.2391 14.5709 1446 135.124 1327.12 447.316
1122 0 102.35 16.0039 1638 132.596 1326.92 442.403
1123 0 107.467 14.4416 1552 135.214 1326.46 440.555
1124 1 46.1469 9.07971 419 128.692 1327.32 470.155
1125 0 48.4785 8.10668 393 129.025 1327.2 467.364
1126 0 55.3132 9.31062 515 125.002 1327.9 467.569
1127 0 55.2258 12.2044 674 121.826 1328.71 468.004
1128 0 58.13 11.9044 692 124.373 1329.47 465.477
1129 0 60.0408 13.9239 836 122.574 1329.67 464.499
1130 0 59.1305 10.6882 632 128.392 1331.05 461.486
1131 0 63.1423 13.1766 832 124.644 1331.05 461.257
1132 0 65.195 14.2342 928 124.147 1332.78 459.449
1133 0 68.0688 15.5431 1058 120.469 1334.24 464.656
1134 0 69.126 15.1318 1046 122.576 1336.26 462.648
1135 0 71.1969 16.3209 1162 120.421 1336.22 460.022
1136 0 74.2286 14.8999 1106 123.58 1337.89 456.247
1137 0 78.1595 15.1741 1186 123.108 1338.38 459.67
1138 0 78.272 14.5902 1142 123.333 1339.11 464.637
1139 0 84.3944 16.5888 1400 120.867 1339 464.129
1140 0 86.2873 17.1984 1484 120.642 1338.53 464.398
1141 0 88.2845 16.8773 1490 123.023 1338.32 460.242
1142 1 47.1171 9.4021 443 125.454 1337.27 482.404
1143 0 52.1319 14.2139 741 119.95 1335.88 477.587
1144 0 52.0994 11.075 577 122.738 1335.19 480.877
1145 0 54.1851 13.0294 706 123.605 1334.03 475.79
1146 0 54.1851 12.9002 699 127.531 1334.01 475.741
1147 0 57.0151 12.2599 699 126.276 1329.35 474.614
1148 0 61.1015 16.4808 1007 119.933 1328.21 473.725
1149 0 60.1044 13.7927 829 126.259 1326.88 471.004
1150 0 63.1 15.2139 960 124.262 1325.7 470.205
1151 0 57.2528 10.899 624 135.837 1326.66 464.601
1152 0 63.1702 11.3028 714 131.902 1325.51 467.873
1153 0 66.3597 13.5323 898 129.48 1325.29 463.06
1154 0 66.3632 16.2138 1076 125.948 1325.92 463.769
1155 0 70.3234 13.0398 917 131.079 1326.09 462.216
1156 0 69.3421 12.8349 890 132.533 1326.15 461.924
1157 0 73.4098 16.1014 1182 127.597 1326.46 459.667
1158 0 75.292 19.2584 1450 123.988 1326.57 458.467
1159 0 79.2934 13.4564 1067 133.615 1327.09 458.844
1160 0 83.1805 14.9795 1246 130.612 1328.12 458.666
1161 1 47.1937 10.9972 519 132.74 1331.08 472.649
1162 0 45.0196 6.93031 312 137.984 1331.92 473.173
1163 0 47.1015 10.764 507 135.099 1333.65 468.803
1164 0 49.0797 14.2829 701 128.749 1334.47 469.612
1165 0 50.1354 14.9196 748 129.545 1336.75 469.579
1166 0 51.1804 12.2117 625 133.28 1337.76 470.387
1167 0 53.03 13.7281 728 131.97 1339.77 469.435
1168 0 55.1787 15.0058 828 127.704 1338.46 470.001
1169 0 57.1602 14.9755 856 130.86 1340.12 468.199
1170 0 58.1394 16.6496 968 129.157 1340.71 470.091
1171 0 59.1971 15.9298 943 130.843 1341.5 467.226
1172 0 62.233 16.7435 1042 128.077 1341.83 470.763
1173 0 62.32 17.2016 1072 129.238 1341.29 470.536
1174 0 64.1776 15.8311 1016 131.399 1341.9 472.727
1175 0 65.1511 15.3182 998 136.624 1341.58 469.503
1176 0 67.2446 13.1906 887 138.118 1342.84 473.688
1177 0 69.2292 14.1703 981 140.159 1341.45 470.756
1178 0 72.2108 18.3768 1327 133.479 1340.81 467.74
1179 0 75.3019 16.1483 1216 136.822 1339.55 469.244
1180 0 75.4074 17.7569 1339 135.533 1337.71 467.034
1181 0 78.2261 17.3727 1359 136.627 1336.45 465.73
1182 0 79.4482 18.6662 1483 133.113 1335.67 468.271
1183 0 80.3682 15.6654 1259 141.572 1333.98 464.155
1184 0 83.5004 17.1736 1434 139.171 1332.81 462.736
1185 0 83.183 15.3757 1279 144.252 1330.53 458.451
1186 0 87.1578 15.1679 1322 145.101 1329.54 454.387
1187 1 48.0865 10.9594 527 147.431 1329.6 472.558
1188 0 47.1329 9.65355 455 150.508 1329.27 472.121
1189 0 52.0765 13.0193 678 139.03 1328.2 473.347
1190 0 53.1055 11.5431 613 146.817 1328.3 469.165
1191 0 57.1133 14.2874 816 138.005 1328.47 469.142
1192 0 58.0359 15.1975 882 138.424 1329.67 465.832
1193 0 60.1608 13.5138 813 144.315 1330.08 463.638
1194 0 62.1421 14.6438 910 142.707 1329.92 461.929
1195 0 61.0281 12.6827 774 151.143 1329.98 460.11
1196 0 66.0967 14.6301 967 144.078 1332.04 459.674
1197 0 65.1681 12.813 835 149.698 1334.02 459.472
1198 0 66.0718 16.2248 1072 144.683 1335.44 453.92
1199 0 72.0584 15.765 1136 143.162 1337.73 454.105
1200 0 76.1423 16.0226 1220 143.549 1337.85 453.466
1201 0 79.1259 15.052 1191 143.452 1339.77 453.673
1202 0 82.1597 19.1335 1572 135.233 1340.75 452.922
1203 0 83.1162 16.7476 1392 140.746 1340.87 453.139
1204 0 84.0993 13.377 1125 146.933 1341.59 454.298
1205 0 90.1405 17.1399 1545 135.454 1341.72 453.256
1206 0 91.1815 15.6282 1425 140.571 1342.38 453.638
1207 0 94.0815 14.5406 1368 143.013 1341.87 454.201
1208 0 99.1086 16.9309 1678 137.162 1341.62 457.041
1209 1 54.1336 9.2364 500 147.398 1339.89 477.148
1210 0 57.0572 14.4592 825 140.228 1339.8 476.168
1211 0 58.0685 11.8997 691 148.673 1338.9 473.331
1212 0 63.0376 16.2601 1025 141.001 1339.15 472.124
1213 0 63.0466 13.1649 830 145.46 1338.84 473.484
1214 0 64.1219 13.0221 835 146.538 1335.36 469.841
1215 0 69.0785 16.9228 1169 139.748 1333.46 466.89
1216 0 70.1789 17.1277 1202 137.707 1332.64 469.374
1217 0 71.1785 17.7301 1262 138.122 1331.43 467.872
1218 0 75.1206 14.4434 1085 144.029 1330.58 465.581
1219 0 77.2212 17.4563 1348 137.467 1328.81 462.72
1220 0 79.1103 15.7249 1244 141.27 1328.71 462.483
1221 0 82.1352 15.8154 1299 142.078 1327.55 459.016
1222 0 84.0774 14.2726 1200 143.017 1327.37 453.268
1223 0 86.0719 15.5335 1337 140.319 1327.17 453.079
1224 0 90.1671 16.7023 1506 136.725 1326.79 452.734
1225 0 92.2395 16.0127 1477 139.567 1326.88 449.507
1226 0 95.1273 17.3872 1654 137.123 1327.48 446.732
1227 0 96.2119 12.2542 1179 146.618 1327.15 450.432
1228 0 100.199 15.9382 1597 142.197 1328.35 441.857
1229 0 103.196 14.6711 1514 144.299 1329.91 443.915
1230 0 109.28 14.2478 1557 146.096 1331.87 441.733
1231 0 113.408 18.2351 2068 137.644 1333.98 439.193
1232 0 114.302 16.5177 1888 140.683 1335.55 434.273
1233 0 120.166 15.7865 1897 137.486 1336.07 435.189
1234 1 71.2607 11.6895 833 138.648 1338.23 459.505
1235 0 72.1789 14.5195 1048 133.856 1339.93 458.67
1236 0 75.2788 14.1208 1063 136.738 1340.18 457.214
1237 0 77.2191 15.8121 1221 134.048 1339.88 455.073
1238 0 80.1223 12.2687 983 136.828 1341.46 454.768
1239 0 85.1128 14.1459 1204 133.267 1342.16 457.183
1240 0 88.1471 14.3624 1266 133.033 1341.31 456.666
1241 0 87.1333 11.6373 1014 140.695 1341.25 451.187
1242 0 94.2016 14.1611 1334 136.089 1340.12 454.494
1243 0 97.1387 14.5668 1415 136.567 1339.69 453.336
1244 0 100.281 18.0992 1815 130.829 1338.86 450.514
1245 0 106.196 15.3301 1628 136.682 1337.67 449.912
1246 0 108.187 17.9966 1947 132.318 1336.75 451.812
1247 0 110.205 14.5819 1607 141.578 1335.14 447.2
1248 0 115.212 16.231 1870 138.673 1333.7 445.405
1249 0 119.543 17.6087 2105 137.353 1331.12 445.762
1250 1 69.1472 11.1935 774 139.827 1330.91 471.394
1251 0 69.0751 12.262 847 140.152 1328.85 470.542
1252 0 72.2558 14.9054 1077 139.554 1327.9 470.295
1253 0 75.1914 14.4298 1085 141.134 1328.38 465.467
1254 0 76.1992 14.3046 1090 139.094 1326.77 462.072
1255 0 77.1024 17.2887 1333 131.445 1326.31 460.032
1256 0 81.2337 11.51 935 141.397 1327 459.292
1257 0 82.2097 15.6794 1289 133.672 1326.5 457.888
1258 0 86.1811 15.9664 1376 132.849 1326.59 457.503
1259 0 87.1658 13.0326 1136 139.22 1326.19 454.714
1260 0 91.1478 17.2248 1570 132.058 1326.11 447.118
1261 0 92.1808 17.3572 1600 133.198 1326.12 447.817
1262 0 98.2146 17.4516 1714 132.034 1327.24 445.943
1263 0 101.316 15.3382 1554 135.283 1328.11 446.837
1264 1 52.157 11.5421 602 135.297 1330.64 469.97
1265 0 53.0924 9.28569 493 141.093 1331.71 467.168
1266 0 57.0498 11.376 649 136.951 1333.72 467.598
1267 0 59.0327 12.0103 709 134.849 1335.26 467.113
1268 0 60.1084 13.276 798 134.464 1338.21 466.86
1269 0 61.0874 13.1615 804 134.007 1338.23 465.162
1270 0 65.0835 15.119 984 134.304 1338.96 470.461
1271 0 66.06 13.0487 862 136.678 1341.02 469.284
1272 0 67.129 14.4349 969 134.878 1340.83 467.213
1273 0 71.1368 15.0555 1071 134.587 1339.44 467.901
1274 0 73.17 16.6598 1219 131.8 1339.33 469.098
1275 0 79.0959 17.6115 1393 127.564 1340.64 468.091
1276 0 81.1427 14.2958 1160 132.134 1339.54 471.367
1277 0 79.2106 12.9654 1027 137.723 1338.29 469.04
1278 0 83.4436 13.8896 1159 135.261 1336.6 468.472
1279 0 88.2403 16.6024 1465 131.79 1335.03 461.483
1280 0 90.484 13.4831 1220 136.642 1333.06 457.046
1281 0 93.4047 17.922 1674 128.749 1331.63 460.182
1282 0 97.5018 13.6613 1332 135.676 1330.28 456.911
1283 1 52.2522 14.0473 734 129.327 1328.4 480.921
1284 0 53.2083 14.1895 755 127.433 1327.03 479.543
1285 0 57.1396 15.2434 871 124.67 1326.41 481.281
1286 0 57.1653 15.8838 908 125.363 1325.97 478.271
1287 0 56.089 15.0119 842 131.502 1327.24 476.325
1288 0 62.171 14.7979 920 130.555 1326.47 475.25
1289 0 60.1446 13.268 798 134.033 1325.91 475.699
1290 0 60.1222 11.7261 705 137.264 1325.75 473.189
1291 0 64.0488 16.3469 1047 131.791 1326.04 465.918
1292 0 67.1942 15.8049 1062 132.089 1325.84 469.288
1293 0 68.0488 16.2383 1105 132.508 1325.6 467.094
1294 0 68.1513 15.0107 1023 135.42 1325.93 465.588
1295 0 73.3113 15.7547 1155 134.332 1327.01 463.455
1296 0 72.1006 15.7974 1139 136.398 1328.27 463.562
1297 0 74.1885 12.3065 913 142.287 1329.01 462.582
1298 0 80.1229 18.1846 1457 130.057 1330.65 460.753
1299 0 81.1505 14.2944 1160 137.593 1331.96 460.381
1300 0 84.077 15.7713 1326 135.27 1332.58 457.072
1301 0 83.0895 17.5594 1459 133.01 1334.54 459.914
1302 0 88.1257 16.3176 1438 132.841 1334.94 454.63
1303 0 91.1433 18.4654 1683 129.056 1335.09 456.545
1304 0 92.1566 16.472 1518 133.716 1336.52 454.221
1305 0 95.3061 14.039 1338 135.7 1337.34 457.121
1306 0 100.148 16.1961 1622 133.284 1337.16 451.131
1307 0 102.36 17.0379 1744 132.771 1336.65 449.177
1308 0 105.154 16.9561 1783 132.052 1337.15 453.684
1309 0 108.201 16.4138 1776 134.823 1336.27 449.759
1310 0 113.2 16.4664 1864 132.991 1335.46 453.316
1311 0 113.2 13.1184 1485 139.347 1334.19 451.238
1312 0 121.209 18.8435 2284 128.34 1333.9 450.908
1313 0 124.234 17.797 2211 130.112 1332.56 444.894
1314 1 73.083 9.59183 701 136.237 1332.52 472.1
1315 0 75.2414 12.1077 911 133.889 1330.4 469.928
1316 0 77.1833 13.2671 1024 132.209 1329.24 468.398
1317 0 77.2715 11.2719 871 139.085 1327.7 461.96
1318 0 83.1902 13.2468 1102 133.123 1326.99 463.982
1319 0 84.3129 12.7976 1079 132.341 1326.08 466.809
1320 0 84.2702 14.228 1199 134.28 1325.37 457.726
1321 0 91.3363 18.4921 1689 125.909 1324.85 460.349
1322 0 91.2601 16.1736 1476 131.395 1323.83 453.373
1323 0 93.1772 14.7568 1375 133.577 1323.8 453.839
1324 0 97.2613 15.1551 1474 133.718 1323.78 450.03
1325 0 100.245 19.2329 1928 127.304 1324.03 449.807
1326 0 101.179 16.1199 1631 131.666 1324.23 449.92
1327 0 107.189 15.7012 1683 132.008 1325.01 444.829
1328 1 56.1563 12.2515 688 133.243 1324.87 462.725
1329 0 58.0567 11.351 659 132.167 1326.23 464.865
1330 0 62.0474 12.4743 774 130.006 1327.24 461.89
1331 0 66.1485 14.3163 947 130.333 1328.28 461.166
1332 0 68.0976 17.24 1174 126.486 1328.96 459.842
1333 0 68.2491 15.3702 1049 129.102 1329.96 462.166
1334 0 72.0935 14.3425 1034 131.879 1332.57 457.981
1335 0 74.165 17.1375 1271 126.739 1334.31 460.124
1336 0 77.1646 15.4216 1190 129.908 1335.46 459.491
1337 0 79.1287 13.5602 1073 133.382 1336.47 459.151
1338 0 82.1588 17.0767 1403 126.592 1336.97 457.867
1339 0 87.3768 13.8366 1209 130.4 1337.53 457.366
1340 0 89.1473 14.6163 1303 130.876 1337.5 454.265
1341 0 89.2829 14.6165 1305 130.517 1337.34 460.959
1342 0 95.0939 14.1965 1350 132.346 1336.65 459.613
1343 0 98.1396 16.5275 1622 127.934 1336.5 457.477
1344 0 102.287 16.9816 1737 128.198 1336.1 456.542
1345 0 106.309 15.2009 1616 132.892 1334.4 454.022
1346 1 55.2359 11.6591 644 137.287 1332.93 474.449
1347 0 60.092 14.0118 842 131.691 1331.84 477.012
1348 0 61.0954 16.9734 1037 129.031 1330.24 474.59
1349 0 66.1634 15.6884 1038 129.504 1328.86 473.744
1350 0 67.1343 16.534 1110 128.963 1327.55 472.034
1351 0 69.1668 19.6915 1362 125.05 1327.45 471.764
1352 0 72.238 17.6638 1276 129.705 1326.29 468.215
1353 0 71.1946 19.0604 1357 127.321 1325.65 466.136
1354 0 78.2868 16.3374 1279 129.046 1325.21 465.483
1355 0 78.1786 17.3065 1353 129.242 1324.17 461.718
1356 0 82.337 16.4082 1351 131.354 1323.94 460.082
1357 0 83.2856 17.9863 1498 130.681 1323.76 456.197
1358 0 85.3567 18.3114 1563 129.051 1323.91 455.894
1359 0 88.3853 18.7475 1657 129.277 1324.12 451.346
1360 0 92.4235 19.1618 1771 129.274 1324.68 447.897
1361 0 95.646 15.8606 1517 135.84 1325.36 443.395
1362 0 96.1181 17.2704 1660 129.402 1327.23 450.376
1363 0 101.531 18.6643 1895 128.719 1328.39 444.92
1364 0 102.542 18.1974 1866 130.24 1328.87 441.928
1365 0 106.732 15.6185 1667 136.155 1331.06 436.89
1366 1 56.3093 9.30574 524 138.427 1332.27 464.532
1367 0 62.2708 13.1041 816 131.85 1334.06 462.945
1368 0 64.5174 11.8573 765 136.034 1335.28 461.349
1369 0 62.4654 12.0867 755 136.987 1336.17 459.352
1370 0 64.4142 12.8077 825 135.138 1337.44 459.127
1371 0 68.4206 12.4962 855 134.86 1338.45 460.767
1372 0 70.1003 13.124 920 134.623 1338.12 460.31
1373 0 74.5389 14.3683 1071 130.653 1338.74 457.94
1374 0 72.4305 10.5204 762 137.593 1338.8 459.496
1375 0 78.5676 14.8025 1163 130.601 1338.48 458.305
1376 0 80.2878 17.5867 1412 126.759 1338.24 456.615
1377 0 82.468 12.6231 1041 136.072 1337.9 456.392
1378 0 87.6742 14.0178 1229 132.052 1336.79 454.98
1379 0 90.4606 16.5597 1498 126.901 1336.12 458.485
1380 0 93.3389 16.5312 1543 127.964 1334.61 455.145
1381 0 95.3191 14.7714 1408 131.775 1333.26 452.062
1382 0 99.3466 16.1656 1606 131.229 1331.45 446.049
1383 0 102.435 15.9321 1632 131.667 1330.71 448.131
1384 1 53.477 11.2198 600 131.655 1329.85 472.742
1385 0 56.6014 8.55102 484 136.273 1328.54 471.672
1386 0 61.3311 11.3482 696 133.432 1327.18 467.407
1387 0 60.3323 11.3041 682 134.773 1326.16 465.811
1388 0 61.311 11.9718 734 135.447 1325.86 461.093
1389 0 67.7613 16.0121 1085 125.438 1326.07 462.128
1390 0 68.2158 13.296 907 132.951 1326.42 461.478
1391 0 69.2954 13.2621 919 131.729 1326.45 461.394
1392 0 71.4174 13.5541 968 134.519 1326.48 455.19
1393 0 74.5433 16.9029 1260 127.214 1326.59 457.002
1394 0 79.5188 15.3297 1219 129.979 1327.75 453.738
1395 0 79.6608 13.7332 1094 133.694 1328.28 453.353
1396 0 83.5657 16.2268 1356 130.428 1329.54 449.502
1397 0 85.5278 15.9597 1365 131.344 1331.26 448.275
1398 0 89.4798 15.1878 1359 132.779 1331.92 447.191
1399 0 94.6764 14.6182 1384 132.556 1334.44 449.309
1400 0 92.3341 14.3176 1322 135.861 1336.41 445.102
1401 0 99.3479 17.2827 1717 128.222 1337.38 448.264
1402 0 101.541 15.8065 1605 131.516 1338.9 447.037
1403 0 101.407 12.3562 1253 139.215 1339.48 445.449
1404 0 101.407 12.2773 1245 161.563 1340.47 445.48
1405 0 107.472 16.9161 1818 131.518 1340.56 444.125
1406 0 113.487 18.3104 2078 128.438 1339.9 442.902
1407 0 115.374 14.2493 1644 135.082 1339.87 444.419
1408 0 120.457 14.8351 1787 133.565 1339.5 442.89
1409 1 69.2684 14.6243 1013 126.08 1339.44 472.714
1410 0 74.1773 11.9444 886 130.018 1338.84 472.191
1411 0 72.4769 12.9145 936 131.852 1336.88 466.25
1412 0 75.468 11.8461 894 134.434 1334.98 465.756
1413 0 82.2566 18.5396 1525 121.976 1333.96 468.458
1414 0 83.2143 15.5142 1291 126.613 1332.78 469.926
1415 0 85.4247 12.9471 1106 131.8 1330.83 463.653
1416 0 89.5248 14.4764 1296 130.721 1329.54 459.975
1417 0 93.6086 15.8212 1481 127.585 1328.55 459.856
1418 0 92.6325 13.1919 1222 129.638 1326.85 463.9
1419 0 98.5029 16.1417 1590 126.321 1326.15 458.962
1420 0 97.2814 12.4587 1212 132.622 1325.79 457.504
1421 0 103.219 16.9348 1748 126.278 1325.23 451.034
1422 0 104.684 14.4339 1511 129.304 1324.14 450.338
1423 0 107.539 14.5808 1568 129.451 1324.1 445.674
1424 0 111.357 15.8769 1768 124.848 1324.01 448.155
1425 0 114.518 18.7743 2150 121.445 1324.62 442.992
1426 1 59.1339 9.21636 545 129.796 1325.36 468.117
1427 0 62.1944 13.3935 833 121.605 1325.85 470.373
1428 0 64.2553 10.9719 705 125.857 1326.22 469.189
1429 0 69.3433 10.6139 736 128.147 1326.8 469.118
1430 0 66.1903 9.07988 601 132.759 1326.72 461.483
1431 0 73.2044 14.8488 1087 121.483 1329.04 464.718
1432 0 76.3399 16.3872 1251 121.364 1330.27 463.404
1433 0 78.2419 15.3882 1204 123.53 1331.71 462.438
1434 0 78.3272 12.5627 984 128.54 1332.73 457.877
1435 0 83.1824 15.9048 1323 122.225 1333.29 461.311
1436 0 86.4051 13.8996 1201 125.927 1334.2 459.977
1437 0 87.3647 12.3276 1077 128.431 1334.73 461.059
1438 0 91.3809 16.0646 1468 123.819 1335.15 459.437
1439 0 89.3811 12.1614 1087 130.099 1334.89 460.321
1440 0 98.2576 15.4288 1516 126.396 1334.53 455.445
1441 0 97.3632 16.3409 1591 127.324 1334.29 451.679
1442 0 102.621 19.0798 1958 122.114 1333.85 454.822
1443 0 105.337 14.9235 1572 128.532 1333.41 453.303
1444 0 108.475 14.3903 1561 130.156 1332.19 450.658
1445 0 106.416 13.6164 1449 134.589 1330.65 442.395
1446 1 53.1443 16.0694 854 121.406 1328.05 478.943
1447 0 53.2084 12.5732 669 126.348 1326.51 478.843
1448 0 58.0949 15.2681 887 120.796 1325.1 478.36
1449 0 58.2347 14.4416 841 124.121 1323.99 473.327
1450 0 62.1176 10.0455 624 129.128 1323.17 476.971
1451 0 61.245 12.6868 777 127.844 1321.95 473.78
1452 0 63.0841 10.7317 677 132.679 1321.37 470.905
1453 0 64.1704 13.9472 895 128.181 1321.57 468.229
1454 0 64.1818 14.1941 911 129.212 1321.28 466.739
1455 0 68.2073 16.1713 1103 126.468 1321.16 461.88
1456 0 69.1647 14.2992 989 129.274 1321.25 463.553
1457 0 73.2496 15.0171 1100 128.537 1321.53 458.671
1458 0 71.1576 15.3462 1092 127.407 1322.76 462.799
1459 0 77.1092 13.9931 1079 129.824 1322.77 459.348
1460 0 77.0894 14.5675 1123 129.386 1323.77 459.696
1461 0 79.2078 14.3168 1134 130.859 1324.35 457.495
1462 0 83.1628 15.9807 1329 128.433 1325.11 455.254
1463 0 86.19 16.6029 1431 128.226 1327.29 455.043
1464 1 47.1858 13.627 643 129.034 1328.23 471.118
1465 0 50.0686 13.5414 678 127.65 1328.9 472.025
1466 0 52.1027 13.4158 699 130.376 1331.73 470.34
1467 0 50.0226 12.6143 631 130.949 1333.28 471.875
1468 0 55.0577 12.1691 670 130.699 1336.06 469.77
1469 0 58.1123 11.0304 641 133.117 1337.81 469.404
1470 0 58.1408 18.1284 1054 122.024 1337.62 469.243
1471 0 59.1487 15.2835 904 128.759 1338.22 468.456
1472 0 60.102 11.6635 701 134.174 1338.66 467.421
1473 0 62.0462 19.3404 1200 122.052 1338.84 468.063
1474 0 64.2051 14.2824 917 126.79 1339.41 471.933
1475 0 67.1387 17.5309 1177 126.483 1338.44 469.102
1476 0 66.1672 12.015 795 136.304 1338.85 469.435
1477 0 70.0823 16.2666 1140 126.789 1337.85 471.666
1478 0 70.1206 13.6337 956 131.567 1337.77 470.778
1479 0 73.1221 16.9716 1241 128.284 1337 467.365
1480 0 72.073 11.9185 859 138.723 1335.72 465.098
1481 0 80.3293 18.8723 1516 124.803 1335.23 466.045
1482 0 79.2706 17.2321 1366 127.294 1333.96 467.716
1483 0 85.085 17.6882 1505 127.121 1334.48 462.943
1484 0 88.1968 15.5788 1374 130.427 1332.6 459.826
1485 0 89.1707 15.7675 1406 132.036 1331.41 455.51
1486 0 92.2807 13.4481 1241 134.234 1330.61 454.496
1487 0 95.1607 15.5737 1482 130.449 1329.28 454.186
1488 0 97.4106 14.6904 1431 132.99 1328.62 447.172
1489 1 56.1717 12.7644 717 125.195 1328.02 472.849
1490 0 58.1722 12.824 746 127.113 1327.77 469.686
1491 0 59.074 11.6464 688 129.062 1327.24 466.305
1492 0 64.1439 14.6701 941 119.512 1326.26 468.914
1493 0 66.0858 15.3891 1017 121.785 1326.93 462.01
1494 0 67.0687 14.2391 955 124.168 1327.38 460.169
1495 0 68.205 16.9489 1156 120.478 1328.29 459.419
1496 0 69.1056 10.824 748 130.825 1328.18 455.523
1497 0 71.1893 13.5695 966 127.381 1329.57 453.06
1498 0 72.1746 13.2457 956 128.517 1331.72 451.683
1499 0 75.2401 11.5497 869 130.394 1333.29 453.159
1500 0 82.2642 15.0734 1240 122.784 1334.77 455.435
1501 0 82.1431 12.6365 1038 129.325 1337.13 448.767
1502 0 85.1151 16.6128 1414 122.854 1338.39 449.54
1503 0 86.1968 13.9216 1200 129.218 1339.54 447.452
1504 0 88.4323 13.7506 1216 129.344 1341.01 448.85
1505 0 91.2825 16.1258 1472 125.999 1340.85 447.16
1506 0 93.471 15.1598 1417 127.102 1341.18 448.803
1507 0 95.4707 18.7806 1793 122.703 1341.56 449.596
1508 0 98.5099 14.3031 1409 132.058 1341.31 441.849
1509 0 104.515 16.3326 1707 127.465 1340.91 444.03
1510 0 104.716 12.405 1299 133.525 1340.84 447.979
1511 0 108.364 19.213 2082 124.572 1340.31 442.604
1512 0 114.457 18.3562 2101 124.742 1338.58 443.183
