time division length width area intensity CMx CMy
0 0 100.507 15.8397 1592 148.208 1201.29 432.916
1 0 103.337 15.193 1570 135.457 1203.1 424.08
2 0 109.329 17.4793 1911 125.534 1204.09 436.312
3 0 111.624 14.307 1597 133.74 1204.19 428.743
4 1 60.2489 13.2284 797 123.304 1205.11 459.345
5 0 64.3959 13.8829 894 126.244 1204.77 455.955
6 0 63.5486 10.669 678 133.034 1203.1 450.951
7 0 66.5601 11.0276 734 127.617 1201.56 449.718
8 0 66.1669 11.1989 741 126.197 1201.55 454.359
9 0 69.1979 11.2576 779 127.019 1200.48 452.542
10 0 76.3167 13.8764 1059 127.668 1200.84 452.844
11 0 76.4583 11.4965 879 134.982 1199.96 452.676
12 0 77.2519 16.841 1301 131.061 1199.02 451.517
13 0 78.2438 12.2182 956 137.801 1198.5 453.546
14 0 80.3086 13.2863 1067 142.061 1197.06 447.326
15 0 82.2461 13.569 1116 141.504 1195.86 450.599
16 0 87.3873 11.0314 964 148.934 1194.34 447.216
17 0 86.2174 15.6697 1351 146.148 1192.51 447.17
18 0 90.3097 12.8558 1161 154.13 1190.87 441.792
19 0 95.307 15.0776 1437 148.896 1190.08 441.276
20 0 95.2396 13.1038 1248 154.893 1189.28 437.898
21 0 100.161 14.2969 1432 151.215 1189.07 436.937
22 0 103.147 14.9592 1543 149.422 1188.31 432.401
23 0 106.29 18.1485 1929 139.294 1188.07 428.404
24 0 110.185 14.4757 1595 147.243 1187.62 429.901
25 0 114.334 12.9271 1478 148.484 1187.77 429.671
26 0 117.4 14.1993 1667 145.587 1188.03 422.643
27 0 120.42 15.5871 1877 144.953 1187.91 418.277
28 1 64.2319 14.3698 923 129.245 1187.78 442.174
29 0 65.1504 13.0467 850 135.725 1188.31 444.074
30 0 68.2529 11.6625 796 132.353 1189.47 446.99
31 0 70.1408 11.9617 839 128.528 1191.61 450.155
32 0 73.1586 14.0517 1028 128.737 1193.83 442.557
33 0 76.3385 10.5189 803 125.709 1195.47 444.386
34 0 78.5306 13.4342 1055 118.923 1197.04 448.236
35 0 81.3369 15.0977 1228 114.613 1199.27 446.51
36 0 80.3246 10.7564 864 120.652 1199.29 444.515
37 0 86.2324 15.6438 1349 114.882 1200.32 443.59
38 0 87.2611 12.136 1059 117.992 1200.64 446.5
39 0 92.2231 13.3697 1233 118.719 1200.6 445.4
40 0 92.1619 10.8179 997 123.707 1199.92 442.48
41 0 97.3358 13.1195 1277 122.692 1199.9 439.262
42 0 99.337 13.9525 1386 122.469 1198.84 447.196
43 0 100.215 11.7048 1173 129.484 1197.92 443.533
44 1 58.0622 12.2799 713 127.163 1197.03 458.732
45 0 56.0888 11.6957 656 131.404 1199.22 461.392
46 0 60.0994 12.7456 766 125.845 1197.95 464.838
47 0 61.0482 12.4819 762 131.155 1194.69 461.651
48 0 63.0812 11.9053 751 134.609 1192.65 461.924
49 0 61.1142 10.5867 647 137.611 1192.16 461.179
50 0 63.1107 14.0864 889 133.142 1191.24 457.998
51 0 67.2458 12.8484 864 134.321 1190.02 456.796
52 0 69.1198 13.209 913 133.625 1188.44 455.78
53 0 70.1269 12.3633 867 134.428 1188.3 458.622
54 0 73.0773 13.1231 959 135.421 1187.4 450.67
55 0 76.1132 13.5982 1035 134.309 1186.62 448.412
56 0 78.1442 14.8955 1164 131.46 1186.04 449.454
57 1 41.0526 8.64744 355 134.78 1186.59 467.217
58 0 41.0235 9.458 388 136.098 1186.62 464.812
59 0 43.0505 9.6863 417 134.098 1186.33 465.859
60 0 44.0428 11.9656 527 131.507 1187.24 463.541
61 0 45.0186 11.7507 529 130.716 1187.2 464.295
62 0 47.0383 9.31157 438 137.772 1187.44 460.788
63 0 49.1073 15.3949 756 124.971 1189.7 459.835
64 0 53.1682 13.0153 692 126.121 1191.66 462.816
65 0 54.1944 16.4039 889 117.799 1193.5 463.092
66 0 54.1008 14.8057 801 124.12 1195.2 460.685
67 0 53.0598 11.6661 619 126.877 1195.77 460.086
68 0 56.0843 13.3371 748 123.378 1196.39 460.495
69 0 59.1946 14.7987 876 115.768 1198.4 462.678
70 0 57.1066 15.0946 862 114.76 1199.11 463.659
71 0 61.1209 17.7681 1086 109.183 1200.5 465.681
72 0 66.2434 10.5671 700 119.873 1202.33 463.817
73 0 66.1741 16.8344 1114 113.716 1202.14 462.989
74 0 66.1741 16.6984 1105 135.958 1202.15 462.936
75 0 66.2164 14.0298 929 126.785 1200.74 457.928
76 0 68.1986 14.0912 961 128.943 1199.91 459.586
77 0 71.1416 13.5504 964 133.142 1199.54 460.401
78 0 73.1277 14.3584 1050 134.362 1198.76 460.333
79 0 75.1614 15.2339 1145 134.441 1197.9 456.186
80 0 77.2962 14.7873 1143 138.878 1196.51 458.215
81 0 79.1611 14.4263 1142 143.419 1195.07 460.223
82 0 81.2416 12.4567 1012 150.713 1193.97 458.632
83 0 83.2669 15.4323 1285 148.346 1192.17 453.9
84 0 83.2669 15.4323 1285 149.457 1190.14 453.83
85 1 45.0232 12.4158 559 149.243 1190.13 473.275
86 0 48.0555 11.0705 532 150.53 1188.55 472.461
87 0 51.0861 14.133 722 146.111 1188.01 468.911
88 0 51.0545 14.416 736 144.545 1187.24 470.027
89 0 52.0309 14.3568 747 145.96 1186.61 466.727
90 0 51.0836 11.8042 603 152.381 1185.37 467.629
91 0 52.0651 12.1771 634 153.145 1185.4 462.317
92 0 53.0393 13.1035 695 152.191 1185.33 460.685
93 0 56.142 12.8424 721 150.283 1184.81 463.264
94 0 57.1415 14.7529 843 148.026 1185.21 458.665
95 0 60.1291 12.6395 760 151.664 1185.74 458.37
96 0 61.1048 13.6323 833 150.706 1186.32 455.041
97 0 65.1101 14.5753 949 146.844 1188.17 454.436
98 0 68.1953 17.0246 1161 140.369 1190.07 454.819
99 0 69.2577 14.9297 1034 139.775 1193.05 454.855
100 0 68.2211 12.8113 874 143.619 1194.41 453.403
101 0 71.1247 18.0809 1286 128.967 1195.04 456.348
102 0 77.3839 14.0339 1086 133.152 1198.11 456.473
103 0 77.231 14.0488 1085 135.532 1199.09 450.754
104 0 83.552 21.9145 1831 116.962 1199.59 455.696
105 1 47.0779 13.8069 650 121.948 1199.88 471.191
106 0 48.1596 14.9295 719 124.029 1198.45 468.17
107 0 46.1016 12.711 586 118.787 1198.75 468.676
108 0 46.0489 9.90253 456 128.943 1198.37 464.531
109 0 47.0999 14.3737 677 121.507 1198.43 464.873
110 0 50.1206 13.9663 700 125.809 1197.19 464.854
111 0 56.5501 13.2449 749 124.88 1196.22 468.925
112 0 52.0426 14.3344 746 129.235 1195.83 463.401
113 0 54.1021 11.4783 621 133.655 1194.3 468.148
114 0 56.087 14.5488 816 135.681 1192.63 464.208
115 0 56.1211 13.1501 738 139.558 1192.14 466.05
116 0 57.0988 12.9074 737 148.018 1192.41 468.047
117 0 61.1115 13.9417 852 142.042 1191.49 470.748
118 0 63.1323 12.2758 775 149.314 1189.84 465.11
119 0 65.1679 13.5036 880 145.798 1188.26 466.728
120 0 67.1353 15.2081 1021 143.293 1186.53 462.883
121 0 69.2012 14.2917 989 145.962 1185.6 462.1
122 0 67.1607 13.5198 908 150.653 1184.36 455.938
123 0 71.4235 14.9811 1070 144.072 1183.6 454.95
124 0 76.2265 13.3812 1020 147.903 1182.88 456.071
125 0 77.2794 15.1658 1172 146.277 1183.06 452.412
126 0 80.1576 18.7131 1500 139.757 1182.7 450.075
127 1 43.0843 9.4698 408 152.762 1183.7 467.973
128 0 45.0373 12.6118 568 145.195 1183.67 468.819
129 0 45.0343 11.4135 514 149.623 1184.83 468.267
130 0 48.2279 14.6803 708 140.306 1185.19 467.394
131 0 44.0585 9.4193 415 157.773 1186.95 465.39
132 0 49.0284 15.3788 754 144.893 1188.51 460.983
133 0 53.135 16.0723 854 137.678 1191.04 463.651
134 0 50.199 14.5222 729 138.594 1192.45 462.156
135 0 54.1108 11.5873 627 138.648 1193.88 465.338
136 0 56.0849 14.5672 817 133.001 1195.78 464.53
137 0 55.0458 14.2064 782 135.946 1195.97 462.909
138 0 57.0853 15.871 906 132.822 1197.11 464.543
139 0 56.1685 13.4417 755 137.702 1197.24 464.968
140 0 61.0774 15.2757 933 133.453 1197.2 465.302
141 0 63.2127 14.2693 902 133.933 1196.74 466.731
142 0 62.0689 12.7117 789 144.682 1196.67 462.833
143 0 64.1078 12.3698 793 143.782 1195.87 463.75
144 0 66.1049 14.0988 932 142.373 1195.4 461.364
145 0 69.1973 12.3271 853 145.317 1195.31 464.716
146 0 71.093 16.2041 1152 142.38 1193.71 463.507
147 0 73.1843 16.1783 1184 145.295 1192.5 459.595
148 0 78.2788 16.0452 1256 142.554 1191.38 457.82
149 0 76.1373 12.9634 987 149.858 1189.82 459.534
150 0 79.116 13.1579 1041 149.055 1188.38 459.149
151 0 85.2296 15.6636 1335 141.503 1186.73 457.387
152 0 86.0942 15.5411 1338 143.293 1184.82 455.981
153 1 45.086 10.4911 473 147.998 1182.3 475.252
154 0 48.1183 11.5341 555 145.787 1181.04 473.87
155 0 46.0491 11.77 542 148.101 1180.13 470.589
156 0 49.1135 13.0107 639 144.695 1179.62 468.358
157 0 47.168 10.24 483 150.424 1179.49 468.128
158 0 50.3338 12.5562 632 145.345 1179.59 461.207
159 0 50.127 14.4832 726 141.842 1180.21 461.802
160 0 54.2716 13.4324 729 144.163 1180.32 462.082
161 0 57.0538 15.1436 864 139.252 1180.39 461.479
162 0 58.1478 12.7778 743 144.058 1180.51 459.522
163 0 62.1263 13.891 863 141.129 1181.03 458.328
164 0 63.1049 14.7532 931 139.377 1182.43 458.311
165 0 67.0416 14.4239 967 138.91 1184.43 457.651
166 0 66.1098 14.0826 931 142.214 1186.31 455.596
167 0 68.1088 14.9907 1021 140.375 1187.93 453.37
168 0 69.1447 13.7104 948 143.648 1189.17 453.41
169 0 73.1163 15.4138 1127 136.781 1190.98 453.798
170 0 75.2383 14.5538 1095 137.666 1192.29 453.447
171 0 80.2271 15.0448 1207 135.486 1192.94 453.439
172 0 80.1694 13.4465 1078 138.301 1193.46 455.674
173 0 84.2858 15.1271 1275 136.952 1193.94 452.674
174 0 86.2006 14.5591 1255 142.968 1194.38 453.176
175 0 88.2359 14.9712 1321 140.68 1194.17 450.333
176 0 90.2904 17.1779 1551 138.845 1193.25 445.342
177 0 91.1389 12.4755 1137 150.617 1192.44 450.832
178 0 97.1456 18.5701 1804 138.35 1192.08 449.066
179 0 101.166 16.9326 1713 141.457 1190.68 449.978
180 1 57.0892 13.6103 777 137.933 1190.88 472.476
181 0 56.1263 12.0086 674 142.68 1189.32 471.226
182 0 59.1662 12.3719 732 141.418 1187.83 471.146
183 0 61.2092 9.75344 597 146.28 1187.02 469.194
184 0 63.1059 11.2985 713 144.265 1184.94 468.053
185 0 64.2209 12.1144 778 143.442 1182.98 468.179
186 0 68.0919 12.8503 875 144.859 1181.83 461.961
187 0 69.087 13.5626 937 141.046 1180.88 465.888
188 0 68.1524 12.428 847 145.251 1179.51 460.712
189 0 73.1949 11.7904 863 144.552 1179.83 460.742
190 0 77.1741 11.4935 887 143.927 1179.16 461.007
191 0 78.1658 13.6761 1069 142.039 1178.7 454.132
192 0 81.1387 12.5711 1020 144.244 1178.93 454.19
193 0 83.1403 14.9867 1246 139.498 1178.38 451.587
194 0 87.2565 13.9245 1215 140 1179.07 450.914
195 0 91.2183 11.5876 1057 146.618 1178.88 445.129
196 1 49.0793 15.3221 752 126.291 1180.73 470.257
197 0 49.0925 10.0423 493 140.345 1181.65 466.28
198 0 50.1194 10.9738 550 139.536 1182.01 465.371
199 0 53.1006 13.0319 692 135.665 1183.59 464.322
200 0 55.1052 14.4995 799 132.661 1185.96 462.733
201 0 54.1069 11.4773 621 138.67 1186.8 461.847
202 0 56.1726 12.693 713 135 1188.65 463.7
203 0 57.0594 11.7421 670 132.788 1190.55 464.085
204 0 57.0756 9.23337 527 138.831 1191.64 463.218
205 0 60.1858 13.4085 807 128.91 1193.71 463.649
206 0 63.1106 12.3751 781 130.676 1193.95 463.703
207 0 66.315 14.7176 976 126.487 1194.84 461.188
208 0 67.2534 15.0624 1013 127.047 1194.89 461.669
209 0 67.3775 12.942 872 134.564 1193.43 461.656
210 0 72.2426 10.9077 788 133.718 1194.05 466.174
211 0 74.206 13.1795 978 133.866 1192.94 465.283
212 0 77.2709 13.5497 1047 135.496 1192.04 460.818
213 0 78.1069 11.9068 930 138.8 1190.66 464.356
214 0 80.1187 16.2509 1302 131.848 1189.59 457.784
215 0 83.1877 14.305 1190 134.766 1187.99 459.375
216 0 85.1486 11.1335 948 141.131 1186.78 457.154
217 0 90.142 15.7529 1420 130.77 1185.8 458.77
218 1 48.0395 11.5946 557 133.795 1185.91 472.937
219 0 46.0901 11.5643 533 134.593 1182.91 472.088
220 0 49.2452 11.4935 566 133.046 1179.34 471.051
221 0 49.2802 14.8944 734 128.376 1177.97 466.229
222 0 54.125 11.9908 649 127.67 1177.1 470.179
223 0 53.0507 12.177 646 131.483 1176.26 470.91
224 0 53.0986 18.5316 984 123.545 1175.51 469.325
225 0 56.2679 13.258 746 130.314 1175.12 468.468
226 0 54.1793 12.1449 658 135.918 1175.07 462.436
227 0 60.1618 12.35 743 131.676 1175.38 465.094
228 0 58.0842 13.1189 762 134.22 1175.96 458.568
229 0 64.2423 15.0368 966 126.827 1177.35 464.421
230 0 63.2061 16.2959 1030 128.219 1177.43 461.367
231 0 64.0802 14.3882 922 131.894 1177.81 456.389
232 0 67.2097 14.1944 954 130.244 1179.19 457.63
233 0 69.1 13.4298 928 134.166 1181.73 455.737
234 0 70.2499 16.541 1162 128.783 1184.57 456.201
235 0 73.2615 13.5132 990 132.358 1186.85 454.655
236 0 78.4037 15.9941 1254 126.954 1188.68 454.112
237 0 79.3206 15.8093 1254 125.712 1190.62 455.636
238 0 81.2676 14.1139 1147 132.791 1190.78 454.772
239 1 43.1635 11.2595 486 129.002 1193.53 473.572
240 0 44.0601 11.2347 495 129.032 1194.01 475.529
241 0 44.1402 12.1884 538 129.072 1193.3 476.918
242 0 46.1868 13.0773 604 130.942 1193.17 474.71
243 0 50.1388 14.5397 729 126.984 1192.64 477.259
244 0 48.2949 14.0388 678 131.957 1190.73 475.342
245 0 51.2275 17.4516 894 125.896 1188.6 473.532
246 0 52.1344 14.0406 732 130.952 1190 477.818
247 0 52.1494 13.9024 725 133.204 1188.99 474.619
248 0 52.0452 13.5651 706 135.004 1188.73 472.465
249 0 55.1129 14.1528 780 133.679 1186.72 472.933
250 0 59.0924 15.2135 899 131.433 1185.99 470.293
251 0 62.2256 19.815 1233 122.473 1184.67 471.387
252 0 63.116 14.7823 933 131.51 1182.94 470.715
253 0 63.1317 14.5252 917 134.593 1181.87 467.763
254 0 64.1371 16.9013 1084 134.133 1180.48 469.628
255 0 67.159 16.9002 1135 135.509 1179.37 465.147
256 0 67.1935 14.3466 964 143.434 1178.27 460.721
257 0 70.2846 16.7462 1177 137.658 1178.14 461.955
258 0 72.3564 13.1709 953 145.584 1177.33 459.186
259 0 76.2652 16.1804 1234 138.815 1176.87 461.015
260 0 77.291 14.6459 1132 144.525 1176.89 456.776
261 0 79.1651 15.7519 1247 143.068 1176.81 451.839
262 0 78.2137 13.2458 1036 149.183 1177.32 451.715
263 1 43.0601 12.2155 526 144.544 1178.4 470.042
264 0 42.1172 10.6607 449 147.472 1179.43 470.16
265 0 45.2247 12.847 581 145.861 1180.57 466.991
266 0 46.117 13.2055 609 143.544 1183.24 469.297
267 0 46.1436 13.328 615 142.18 1185.26 469.324
268 0 49.2647 14.006 690 141.084 1185.86 466.126
269 0 52.1293 14.3106 746 134.769 1185.8 468.059
270 0 52.0492 16.5228 860 132.602 1187.86 466.179
271 0 56.4885 14.4454 816 131.482 1190.14 470.664
272 0 54.0831 11.5193 623 142.754 1191.17 468.109
273 0 59.0888 13.5559 801 137.919 1191.99 470.094
274 0 58.1054 13.2518 770 138.106 1192.59 468.195
275 0 61.2345 16.3307 1000 134.583 1192.26 466.65
276 0 62.147 15.9461 991 136.925 1191.76 465.779
277 0 64.235 14.4625 929 140.205 1191.66 465.674
278 0 65.175 12.6429 824 145.36 1190.86 464.097
279 0 69.1807 13.4864 933 142.969 1190.18 466.357
280 0 69.1807 13.472 932 151.897 1190.19 466.341
281 0 75.1574 15.0351 1130 139.527 1188.3 460.689
282 0 75.1543 15.0091 1128 146.995 1186.31 460.79
283 0 82.7955 16.6555 1379 135.086 1185.54 462.453
284 0 82.405 12.924 1065 145.662 1183.86 457.179
285 1 42.2016 12.6535 534 139.176 1182.64 478.013
286 0 42.1458 9.04004 381 146.16 1178.23 479.278
287 0 46.0282 11.7971 543 140.575 1176.78 478.856
288 0 48.0429 12.135 583 142.499 1179.36 474.441
289 0 49.0077 13.0388 639 139.632 1178.61 473.158
290 0 50.0632 11.2657 564 145.316 1177.47 471.743
291 0 51.0611 15.0995 771 134.211 1174.81 472.326
292 0 53.0962 15.2365 809 134.58 1173.91 471.487
293 0 53.0337 12.3318 654 143.685 1174.17 468.159
294 0 54.1869 13.0659 708 140.544 1174.24 466.756
295 0 56.2047 10.9244 614 143.37 1175.02 467.581
296 0 57.183 11.7342 671 145.486 1175.61 462.937
297 0 58.1751 15.5221 903 138.986 1177.07 459.204
298 0 62.1554 14.8499 923 138.723 1178.3 458.577
299 0 63.1126 12.4222 784 142.467 1179.63 462.062
300 0 66.0589 15.0018 991 138.898 1181.77 456.474
301 0 67.1386 14.3137 961 139.027 1183.34 458.918
302 0 69.0778 15.9675 1103 135.144 1185.79 455.234
303 0 72.219 15.3561 1109 135.785 1187.37 457.379
304 0 74.1482 14.6733 1088 135.04 1188.69 456.763
305 0 78.1588 15.8268 1237 130.004 1189.62 459.63
306 0 79.2347 16.3186 1293 130.62 1189.86 457.338
307 1 44.02 11.313 498 137.737 1191.19 474.739
308 0 41.0779 11.6364 478 139.134 1190.47 476.732
309 0 43.0578 9.68466 417 142.329 1190.88 476.736
310 0 47.1573 13.4656 635 136.009 1189.29 476.255
311 0 50.0881 14.7939 741 131.02 1188.58 477.561
312 0 48.3499 13.6918 662 137.449 1190.02 474.394
313 0 49.2137 14.8942 733 135.076 1188.38 476.539
314 0 52.3296 15.4215 807 134.108 1186.92 475.058
315 0 54.2061 15.0721 817 135.185 1185.94 475.365
316 0 55.0679 14.1825 781 138.302 1185.83 472.534
317 0 54.0252 13.8269 747 140.697 1184.05 470.727
318 0 59.1196 17.084 1010 131.86 1182.98 473.856
319 0 60.1 15.99 961 136.898 1181.73 471.102
320 0 62.1589 14.2377 885 141.389 1180.59 467.328
321 0 66.0943 18.9729 1254 131.925 1180.44 467.71
322 0 67.1164 17.2387 1157 137.317 1178.87 465.828
323 0 68.1408 15.7468 1073 142.86 1178.97 463.694
324 0 70.1302 15.2146 1067 145.696 1178.37 460.798
325 0 72.2174 14.2625 1030 148.102 1178.01 459.158
326 0 73.2372 15.3884 1127 146.069 1177.88 455.535
327 0 73.2372 15.3884 1127 146.149 1178.87 455.492
328 1 40.0931 9.17863 368 145.198 1177.22 471.927
329 0 39.0613 9.88191 386 146.951 1177.35 469.935
330 0 42.1417 9.65789 407 147.735 1176.89 471.541
331 0 43.1378 11.6835 504 143.839 1180.28 467.825
332 0 44.0799 11.343 500 148.104 1182 464.468
333 0 48.1693 14.1999 684 146.455 1184.45 466.323
334 0 48.1539 11.7124 564 151.598 1185.61 469.199
335 0 51.1197 15.2388 779 142.992 1187.19 465.675
336 0 52.1723 14.8163 773 144.369 1190.06 467.401
337 0 51.1254 12.3618 632 151.854 1190.57 467.538
338 0 56.0314 14.9559 838 142.857 1190.72 468.311
339 0 57.2036 13.7579 787 146.605 1192.94 467.98
340 0 60.2596 13.9895 843 143.077 1193.04 467.827
341 0 60.2629 15.4988 934 144.013 1193.12 468.835
342 0 61.3043 14.1589 868 147.865 1192.62 469.877
343 0 64.1459 14.9659 960 147.505 1191.79 466.043
344 0 67.1595 16.2598 1092 143.752 1191.32 468.355
345 0 67.1306 14.4644 971 150.823 1190.6 467.007
346 0 68.0942 15.0527 1025 151.459 1189.81 467.416
347 0 71.1163 14.4271 1026 154.564 1188.49 464.101
348 0 75.2967 17.2916 1302 146.763 1187.12 464.613
349 0 74.2517 15.5283 1153 151.974 1186.03 462.657
350 0 76.1891 15.2778 1164 155.16 1183.88 461.992
351 0 81.2555 16.4789 1339 151.389 1182.12 459.384
352 0 83.1414 14.8061 1231 154.576 1181.29 459.681
353 0 84.1631 15.9452 1342 153.172 1179.61 458.546
354 0 87.1664 15.5679 1357 155.223 1178.93 455.102
355 0 90.2361 16.7339 1510 150.279 1177.88 457.347
356 0 92.0824 16.5612 1525 152.938 1176.7 451.608
357 0 96.2936 19.1913 1848 146.701 1176.29 449.254
358 1 55.1092 12.7928 705 154.125 1174.08 467.414
359 0 55.1092 12.6658 698 156.628 1173.08 467.36
360 0 55.0775 12.8002 705 155.148 1175.14 466.73
361 0 57.1245 8.85785 506 153.719 1176.4 464.397
362 0 61.156 11.8876 727 149.53 1175.99 460.53
363 0 61.2058 11.8126 723 149.603 1178.04 460.801
364 0 65.1183 14.5581 948 142.086 1178.61 461.292
365 0 66.0979 12.4664 824 150.455 1180.7 460.356
366 0 66.0827 15.5714 1029 148.362 1180.73 460.264
367 0 68.1986 12.4049 846 156.987 1183.2 457.927
368 0 72.1024 14.2852 1030 151.398 1185.13 460.616
369 0 74.1191 15.2322 1129 149.896 1187.31 459.766
370 0 77.2679 15.8669 1226 150.227 1187.99 457.043
371 0 77.1935 14.3794 1110 154.289 1189.02 456.483
372 0 79.1158 14.839 1174 152.476 1189.62 458.375
373 0 80.3046 15.0801 1211 156.334 1189.83 457.197
374 0 82.2385 13.169 1083 163.701 1189.85 455.787
375 0 87.2277 13.9864 1220 160.524 1189.58 458.328
376 0 88.1503 14.6454 1291 161.692 1189.64 456.508
377 0 89.159 13.0553 1164 161.204 1191.05 455.653
378 0 95.1562 14.9123 1419 155.001 1190.2 456.807
379 0 97.1706 18.4315 1791 148.472 1188.82 453.663
380 0 98.1528 13.6624 1341 160.563 1188.29 452.06
381 0 103.239 16.6216 1716 152.383 1187.3 453.232
382 0 106.319 15.9425 1695 153.635 1186.42 450.66
383 1 56.0442 8.83231 495 165.735 1182.67 472.172
384 0 57.0457 9.04538 516 160.864 1180.54 475.357
385 0 63.039 12.405 782 153.48 1180.03 472.013
386 0 65.0307 13.2399 861 152.239 1177.86 469.161
387 0 66.1059 10.3924 687 150.991 1178.34 469.962
388 0 69.0482 16.3509 1129 146.871 1179.05 465.764
389 0 71.1357 15.0698 1072 143.959 1178.53 464.024
390 0 72.1363 11.811 852 150.858 1178.22 462.107
391 0 73.1092 13.1037 958 149.54 1176.26 459.007
392 0 77.2113 14.6611 1132 144.852 1176.58 455.352
393 0 79.1841 13.1845 1044 147.27 1176.45 455.338
394 0 82.2278 11.833 973 148.331 1177.4 455.191
395 0 83.1938 13.8953 1156 145.01 1177.67 451.608
396 0 85.3431 13.9671 1192 143.439 1177.95 443.72
397 0 87.2279 12.0374 1050 147.379 1179.3 446.276
398 0 89.2607 14.8554 1326 142.685 1180.1 444.152
399 0 94.1835 16.6377 1567 137.722 1182.24 441.182
400 0 94.2042 10.0208 944 149.016 1183.81 445.265
401 0 99.173 12.7757 1267 143.737 1185.88 439.103
402 0 101.206 15.5326 1572 138.607 1187.63 440.194
403 0 105.315 12.5054 1317 144.482 1189.38 437.342
404 0 107.156 12.3465 1323 144.966 1190.64 436.346
405 1 61.1871 11.2115 686 137.913 1190.88 466.281
406 0 59.0865 10.3069 609 140.56 1191.13 467.989
407 0 59.0865 10.3408 611 113.594 1192.16 467.818
408 0 64.2096 11.5559 742 139.54 1190.98 463.193
409 0 65.1256 8.998 586 144.783 1191.11 464.413
410 0 68.117 11.7885 803 138.389 1189.74 464.108
411 0 70.0498 12.2627 859 139.218 1189.51 460.502
412 0 73.199 14.5904 1068 135.78 1188.64 462.54
413 0 72.1427 12.2812 886 141.252 1187.33 458.837
414 0 80.0726 12.9258 1035 137.92 1186.33 463.245
415 0 84.0822 13.5225 1137 137.498 1185.94 462.657
416 0 86.0847 13.3357 1148 138.382 1184.32 459.11
417 0 90.1669 16.048 1447 134.865 1183.03 459.76
418 0 91.1297 13.585 1238 141.078 1181.98 457.696
419 0 95.2177 14.1465 1347 141.04 1180.54 452.362
420 1 51.0735 9.16327 468 139.344 1179.85 478.438
421 0 54.0342 7.16213 387 142.297 1178.6 477.189
422 0 52.0529 10.8543 565 139.607 1177.96 471.161
423 0 55.1571 12.2922 678 137.469 1177.4 469.671
424 0 57.2975 13.0023 745 138.238 1176.6 464.804
425 0 59.1251 13.3277 788 137.156 1176.1 464.759
426 0 61.0405 11.9757 731 135.676 1176.27 465.575
427 0 64.0925 12.5756 806 135.949 1176.77 461.736
428 0 64.0814 13.0303 835 134.653 1176.85 462.23
429 0 66.0959 14.3731 950 133.953 1177.88 458.482
430 0 70.0822 13.5698 951 135.172 1178.86 457.164
431 0 70.085 13.5835 952 122.435 1179.85 457.21
432 0 72.0876 11.1392 803 140.927 1181.56 455.182
433 0 73.0468 12.7726 933 139.156 1183.52 452.267
434 0 79.1008 13.6787 1082 136.04 1185.56 455.622
435 0 79.0803 10.7612 851 143.019 1187.68 453.239
436 0 83.2059 13.3404 1110 138.736 1189.36 454.141
437 0 85.1622 14.1612 1206 137.142 1190.96 449.953
438 0 90.324 15.5994 1409 131.168 1190.51 455.764
439 0 92.0945 11.1733 1029 139.614 1191.78 454.107
440 1 51.0868 11.7643 601 130.789 1192.27 474.815
441 0 47.0535 7.16205 337 140.899 1191.82 477.208
442 0 47.0535 7.20456 339 143.622 1191.82 477.224
443 0 53.1252 11.9153 633 134.853 1189.67 472.57
444 0 55.1672 13.015 718 132.74 1189.99 473.276
445 0 57.219 13.7192 785 134.594 1190.63 473.884
446 0 58.4035 12.739 744 132.181 1189.71 470.888
447 0 58.1065 12.7869 743 129.242 1187.78 471.292
448 0 60.061 10.6059 637 133.053 1187.05 468.782
449 0 64.1337 15.7639 1011 124.305 1185.94 464.863
450 0 65.105 15.2369 992 124.494 1184.77 467.223
451 0 67.1699 13.4435 903 129.594 1183.35 463.642
452 0 66.2026 13.2623 878 131.863 1181.57 461.818
453 0 70.2439 14.2503 1001 127.34 1180.52 464.892
454 0 70.1279 15.0439 1055 129.263 1179.19 461.847
455 0 72.143 11.699 844 139.684 1178.14 458.169
456 0 77.1611 14.0226 1082 133.478 1176.78 458.672
457 0 77.2904 11.5409 892 140.891 1176.8 453.874
458 0 79.153 13.0254 1031 139.265 1176.72 450.743
459 0 80.1819 13.9059 1115 137.013 1175.82 453.693
460 0 83.2691 10.8083 900 144.476 1176.69 450.839
461 1 46.0452 10.3811 478 134.81 1176.4 471.475
462 0 45.0791 9.05076 408 142.093 1177.12 467.022
463 0 48.0673 11.8168 568 144.347 1179.57 468.629
464 0 49.0811 12.3469 606 144.182 1177.64 468.87
465 0 52.038 12.683 660 145.861 1179.07 464.492
466 0 53.213 15.8984 846 133.439 1182.81 467.325
467 0 55.1309 15.2727 842 134.93 1186.27 464.234
468 0 56.1061 15.2033 853 132.802 1188.31 465.845
469 0 56.1443 13.9462 783 138.397 1189.93 464.557
470 0 60.0945 17.1397 1030 129.845 1190.65 463.702
471 0 60.1466 14.2818 859 134.229 1192 466.937
472 0 64.075 17.3078 1109 128.353 1192.09 463.908
473 0 66.1738 14.1597 937 134.574 1191.95 466.582
474 0 66.09 15.8874 1050 132.88 1192.41 466.745
475 0 69.2147 14.3033 990 136.4 1191.71 464.673
476 0 73.1521 15.2012 1112 134.358 1191.31 465.81
477 0 72.2183 15.5916 1126 137.044 1190.26 461.449
478 0 77.1522 14.8667 1147 137.539 1190.31 463.525
479 0 76.1821 12.7195 969 142.583 1189.09 464.474
480 0 81.1994 15.5297 1261 136.542 1188.13 463.347
481 0 83.2133 16.0912 1339 136.701 1187 463.009
482 0 85.1657 16.0511 1367 136.993 1185.76 459.393
483 1 42.0544 10.0109 421 143.644 1185.3 478.565
484 0 47.077 11.768 554 140.166 1182.64 478.231
485 0 45.097 10.6437 480 143.504 1182.8 476.127
486 0 50.1098 12.1932 611 139.797 1180.94 475.445
487 0 52.0282 15.0303 782 132.913 1179.61 475.24
488 0 53.1324 14.0216 745 135.117 1177.78 473.258
489 0 55.0374 15.1533 834 132.564 1177.86 471.385
490 0 56.1111 14.4178 809 131.954 1176.47 472.412
491 0 58.0575 15.3296 890 132.09 1174.72 465.539
492 0 57.1233 12.3942 708 137.499 1174.76 465.415
493 0 62.0359 12.5411 778 135.296 1174.72 463.753
494 0 64.1454 12.5652 806 135.494 1175.24 460.813
495 0 65.123 13.1904 859 133.49 1175.73 460.315
496 0 68.1143 15.7383 1072 127.681 1176.44 460.44
497 0 69.0998 12.1129 837 135.76 1177.96 455.32
498 0 71.146 13.7745 980 131.414 1179.41 454.741
499 0 74.1537 15.0363 1115 128.515 1181.31 454.315
500 0 75.1864 13.4067 1008 131.593 1184.04 452.584
501 0 78.1847 14.4274 1128 126.772 1184.97 457.294
502 0 81.0919 14.3418 1163 128.545 1187.24 453.703
503 0 84.2792 15.0571 1269 126.716 1188.82 454.928
504 0 83.1612 13.4678 1120 129.082 1190.36 450.539
505 1 47.0556 8.1393 383 132.008 1190.69 475.253
506 0 46.0824 10.3076 475 132.581 1190.35 471.585
507 0 52.1142 9.70945 506 131.152 1189.56 472.342
508 0 52.1356 14.4815 755 123.379 1189.37 473.037
509 0 54.1011 12.9387 700 124.801 1189.32 471.903
510 0 55.0696 13.3286 734 124.666 1189.54 469.535
511 0 56.0699 13.5902 762 123.619 1188.44 471.802
512 0 58.1874 13.0441 759 124.64 1187.38 471.538
513 0 59.0648 13.1381 776 124.224 1186.34 474.303
514 0 59.121 11.6541 689 128.775 1185.27 469.848
515 0 64.1092 15.8792 1018 120.883 1183.66 467.373
516 0 63.2259 14.1556 895 124.742 1182.73 467.609
517 0 67.0615 19.6685 1319 116.799 1180.96 463.83
518 0 68.0483 14.2987 973 126.735 1179.5 461.786
519 0 72.0741 14.0272 1011 126.528 1178.07 459.887
520 0 72.1948 15.7075 1134 124.584 1178.09 460.857
521 0 77.2009 14.7667 1140 125.53 1177.21 452.141
522 1 37.0622 6.39465 237 136.983 1175.03 474.118
523 0 36.0815 8.48081 306 133.866 1175.19 471.631
524 0 41.1304 8.2907 341 130.9 1174.47 474.24
525 0 44.0702 12.6162 556 125.353 1179.36 470.98
526 0 45.0857 12.7091 573 124.853 1178.89 470.607
527 0 46.0693 13.6968 631 123.723 1178.56 471.155
528 0 47.0608 12.452 586 127.087 1180.08 468.23
529 0 46.1786 9.87471 456 134.447 1179.96 466.033
530 0 48.0703 11.4624 551 129.913 1181.32 468.43
531 0 51.158 13.9177 712 123.847 1182.89 468.063
532 0 54.177 12.8837 698 124.642 1184.21 468.047
533 0 56.2021 17.3659 976 117.456 1186.32 466.83
534 0 56.0267 19.7049 1104 115.846 1188.1 466.193
535 0 56.3023 15.2569 859 124.233 1189.57 464.153
536 0 60.1256 16.9146 1017 120.048 1190.62 465.666
537 0 63.2096 13.6055 860 123.231 1191.98 467.02
538 0 62.0573 17.6128 1093 117.84 1192.38 467.52
539 0 64.1908 13.1016 841 125.014 1192.38 466.534
540 0 65.1874 12.9319 843 126.931 1192.99 466.231
541 0 69.3027 16.5506 1147 120.975 1191.96 464.643
542 0 70.1725 14.4929 1017 125.547 1191.23 464.388
543 0 72.557 15.0916 1095 123.378 1190.95 465.736
544 0 75.4165 15.7525 1188 122.883 1189.75 463.761
545 0 78.5622 19.8314 1558 116.899 1188.15 463.537
546 0 79.2002 16.452 1303 120.19 1187.29 461.993
547 0 82.4709 13.047 1076 124.533 1185.21 459.826
548 1 40.2855 10.227 412 123.641 1183.46 477.306
549 0 45.3913 11.4119 518 121.907 1182.59 474.263
550 0 44.3672 15.1238 671 118.012 1181.1 474.864
551 0 45.2018 13.3623 604 120.061 1180.36 472.172
552 0 46.2084 14.954 691 118.653 1179.45 470.839
553 0 48.0934 13.7233 660 118.52 1177.54 472.729
554 0 49.0815 13.773 676 119.194 1177.34 471.078
555 0 47.1547 11.4941 542 125.934 1176.32 470.037
556 0 50.1777 11.1404 559 126.311 1176.24 466.018
557 0 50.0913 14.2141 712 122.367 1176.02 466.659
558 0 53.0925 13.9003 738 122.008 1175.67 466.359
559 0 52.1361 12.1988 636 124.706 1175.47 465.789
560 0 55.1294 11.1374 614 127.984 1175.57 463.985
561 0 58.1395 14.6372 851 122.835 1176.69 458.886
562 0 59.1375 14.5762 862 123.896 1177.66 462.302
563 0 59.0857 11.3564 671 130.057 1178.86 457.061
564 0 62.0255 13.3655 829 127.136 1180.06 455.653
565 0 64.0953 14.338 919 128.686 1183.37 459.554
566 0 67.1019 14.2321 955 130.158 1185.11 456.063
567 0 70.2656 14.6871 1032 128.541 1186.97 458.564
568 0 71.0952 14.9518 1063 129.736 1188.94 454.982
569 0 74.1423 15.241 1130 127.688 1190.35 457.709
570 0 77.2234 15.099 1166 125.64 1191.9 459.587
571 0 81.1338 14.359 1165 127.569 1192.04 455.595
572 0 83.1973 13.3899 1114 132.101 1192.29 457.578
573 1 41.2369 11.2036 462 129.55 1191.67 473.844
574 0 45.1642 11.4914 519 131.686 1190.59 472.617
575 0 45.2292 12.4256 562 132.336 1190.25 473.148
576 0 47.1598 11.9805 565 133.51 1189.4 475.639
577 0 47.0679 17.6766 832 125.782 1188.7 475.326
578 0 51.1444 18.1056 926 126.472 1188.2 473.152
579 0 50.0284 14.5917 730 131.566 1190.75 479.988
580 0 53.1273 13.4206 713 131.025 1189.93 479.933
581 0 54.0661 15.1851 821 130.946 1188.38 478.646
582 0 56.0862 12.2312 686 138.12 1187.46 475.15
583 0 59.1145 14.6495 866 132.236 1185.74 476.495
584 0 61.1034 15.7275 961 131.434 1183.57 474.855
585 0 63.1494 15.5504 982 132.219 1182.87 474.016
586 0 66.0497 17.3809 1148 128.905 1180.62 474.487
587 0 65.1627 13.0289 849 138.204 1179.99 472.978
588 0 67.0828 16.0101 1074 135.517 1179.31 468.91
589 0 72.0753 17.3707 1252 132.208 1178.71 467.335
590 0 73.2051 14.8077 1084 136.946 1178.25 466.724
591 0 76.0896 13.9966 1065 140.039 1177.6 462.532
592 0 77.177 13.8383 1068 140.944 1176.93 462.444
593 0 80.3134 19.9095 1599 130.128 1176.79 461.906
594 1 44.0364 11.5359 508 141.049 1177.54 478.711
595 0 44.0683 10.5972 467 142.004 1177.74 478.321
596 0 46.1674 10.9601 506 138.798 1179.03 480.502
597 0 46.1459 12.6772 585 139.629 1175.98 477.496
598 0 50.0694 14.4 721 136.896 1177.33 475.219
599 0 50.0458 15.4059 771 135.873 1179.12 472.204
600 0 51.0167 15.5635 794 132.251 1181.31 473.385
601 0 55.0818 12.2908 677 136.329 1182.43 477.886
602 0 55.0683 14.5274 800 135.251 1183.5 471.322
603 0 57.0489 12.1299 692 140.368 1184.17 471.35
604 0 60.0818 14.6134 878 134.556 1187.41 475.556
605 0 60.1093 12.9098 776 139.546 1187.65 471.594
606 0 65.0821 15.9337 1037 133.272 1186.77 471.58
607 0 68.1785 14.3007 975 135.665 1187.35 472.963
608 0 70.2833 15.3522 1079 134.609 1187.21 470.777
609 0 70.1376 16.4676 1155 132.823 1187.01 473.082
610 0 75.2156 17.0709 1284 133.098 1186.55 470.476
611 0 76.237 16.6848 1272 134.778 1185.04 470.649
612 0 77.1655 13.3609 1031 140.92 1184.51 472.43
613 0 81.1972 16.4538 1336 136.01 1182.77 468.123
614 1 43.0566 13.3313 574 138.857 1182.8 485.326
615 0 42.1457 12.172 513 144.55 1181.3 480.651
616 0 47.1921 14.2821 674 137.945 1175.66 482.595
617 0 47.2286 12.9371 611 141.689 1175.99 481.067
618 0 49.3009 13.9348 687 138.156 1176.02 478.812
619 0 52.0672 15.6336 814 134.07 1173.52 477.141
620 0 50.134 10.9307 548 146.96 1171.73 476.265
621 0 51.1412 17.6765 904 136.352 1171.56 474.705
622 0 53.1168 15.0988 802 140.121 1170.71 474.767
623 0 54.0808 13.221 715 146.141 1170.17 468.804
624 0 58.083 14.6514 851 141.519 1169.98 467.264
625 0 60.1073 15.9714 960 138.35 1171.15 467.496
626 0 59.0585 14.9513 883 143.482 1171.42 464.359
627 0 64.0719 17.3711 1113 135.785 1171.71 463.939
628 0 63.0441 14.2916 901 144.483 1172.94 461.349
629 0 65.0493 16.4798 1072 139.632 1174.81 458.396
630 0 69.0802 15.6774 1083 139.607 1175.71 457.751
631 0 70.1511 15.7802 1107 139.813 1177.07 457.359
632 0 73.1357 17.3239 1267 137.485 1178.92 456.318
633 0 75.1315 16.7174 1256 138.124 1179.83 457.919
634 0 76.101 15.1246 1151 141.871 1181.5 456.216
635 0 80.2082 17.6291 1414 136.396 1183.8 455.026
636 0 81.1405 17.1061 1388 136.869 1185.53 459.928
637 1 45.0237 11.7272 528 140.095 1186.04 474.686
638 0 41.0321 10.2359 420 139.888 1186.33 478.636
639 0 47.0811 14.6343 689 135.006 1186.81 475.239
640 0 46.1308 15.391 710 134.41 1187.03 477.282
641 0 48.0699 10.7968 519 145.252 1186.14 475.434
642 0 52.1294 12.7951 667 141.457 1186.36 473.282
643 0 52.0692 12.541 653 142.28 1186.51 474.38
644 0 56.3034 14.9902 844 137.023 1186.97 475.871
645 0 54.102 13.2897 719 139.986 1185.84 476.395
646 0 58.5017 18.5465 1085 131.057 1184.4 473.517
647 0 58.0694 14.0177 814 140.512 1183.76 472.799
648 0 61.2957 14.585 894 138.215 1182.98 471.84
649 0 63.455 14.4354 916 138.235 1181.81 469.991
650 0 66.1764 16.7734 1110 134.908 1180.01 467.127
651 0 65.2508 14.1148 921 141.774 1179.76 466.888
652 0 68.2624 17.2716 1179 136.465 1178 464.025
653 0 72.305 17.5092 1266 135.201 1177.52 461.557
654 0 74.1957 15.9039 1180 138.064 1176.5 459.528
655 0 76.3985 17.4087 1330 134.853 1175.75 462.29
656 0 77.1951 14.8585 1147 136.995 1175.19 460.923
657 1 45.1921 12.2809 555 136.041 1173.33 471.47
658 0 46.1151 12.8158 591 135.8 1174.23 472.753
659 0 49.1029 12.8302 630 137.041 1174.46 469.584
660 0 48.0474 11.2597 541 139.586 1175.97 471.205
661 0 48.0883 13.9951 673 135.64 1177.08 470.135
662 0 50.0792 10.9826 550 142.965 1178.76 466.425
663 0 54.086 14.5139 785 133.883 1180.27 468.613
664 0 57.1533 14.2249 813 134.873 1180.81 464.576
665 0 58.05 16.727 971 131.314 1182.95 461.69
666 0 61.1897 16.0648 983 131.563 1185.58 464.888
667 0 61.1064 15.9067 972 133.637 1187.09 461.366
668 0 64.2458 15.9699 1026 132.65 1189.43 461.386
669 0 67.0866 15.2042 1020 132.223 1190.1 462.881
670 0 71.2436 15.3838 1096 131.205 1191.33 463.483
671 0 71.2436 15.5102 1105 131.597 1193.3 463.449
672 0 74.1559 15.4539 1146 134.874 1191.38 462.304
673 0 80.1788 19.7559 1584 127.312 1191.22 462.67
674 0 75.2004 14.3616 1080 144.077 1190.56 460.035
675 0 81.1817 18.2553 1482 135.978 1189.96 458.653
676 0 85.1885 19.6975 1678 133.291 1189.14 454.945
677 0 85.324 15.5408 1326 142.834 1188.48 457.011
678 0 92.2577 18.6109 1717 135.777 1186.83 458.748
679 0 94.3795 16.137 1523 141.575 1185.45 456.997
680 0 97.3252 17.5494 1708 138.754 1184.25 456.614
681 1 50.2867 11.8322 595 147.908 1182.79 474.306
682 0 52.2106 11.2812 589 144.798 1181.01 477.513
683 0 55.2985 14.5754 806 139.393 1179.65 474.847
684 0 55.3823 14.8604 823 144.745 1178 463.983
685 0 59.3687 15.3616 912 142.624 1176.56 462.072
686 0 61.2968 17.1624 1052 140.343 1175.62 464.644
687 0 61.3282 17.284 1060 142.147 1175.62 464.631
688 0 64.1434 14.1558 908 146.706 1175.59 463.706
689 0 67.1747 13.651 917 147.097 1175.2 461.486
690 0 69.2601 14.4672 1002 145.592 1174.74 460.863
691 0 70.1208 15.9724 1120 144.906 1174.79 454.594
692 0 75.1709 15.9636 1200 141.892 1175.26 456.27
693 0 78.3727 15.9749 1252 141.239 1175.01 454.674
694 0 79.2626 14.3195 1135 146.475 1176.52 451.024
695 0 81.4366 14.7354 1200 146.672 1177.86 447.976
696 0 83.4496 15.2427 1272 145.171 1179.52 447.509
697 0 85.3004 15.8733 1354 145.781 1179.94 443.181
698 0 88.3204 14.3568 1268 148.208 1181.9 444.108
699 0 92.4733 17.7673 1643 141.764 1184.23 443.009
700 0 96.2335 16.4911 1587 138.003 1186.42 447.03
701 0 96.223 14.8821 1432 143.777 1187.09 444.892
702 0 102.238 15.2684 1561 142.772 1188.28 442.978
703 0 105.371 15.5831 1642 142.168 1189.01 442.213
704 1 58.3399 11.433 667 140.294 1187.65 465.622
705 0 59.1706 11.5936 686 141.646 1188.95 466.405
706 0 59.1652 12.6933 751 143.048 1189.95 467.479
707 0 59.0623 10.6159 627 145.668 1189.45 469.742
708 0 62.1488 15.0767 937 138.335 1188.68 468.792
709 0 67.0779 13.6856 918 139.291 1188.32 467.717
710 0 68.1534 12.736 868 142.809 1187.63 465.656
711 0 68.051 13.2989 905 143.33 1186.01 462.632
712 0 72.1293 15.2642 1101 139.55 1184.65 461.205
713 0 74.1991 14.2589 1058 140.938 1183.87 461.995
714 0 75.1209 12.3401 927 144.275 1182.51 462.346
715 0 79.2163 13.9113 1102 139.79 1181.37 458.058
716 0 82.1425 13.8783 1140 140.352 1179.19 457.252
717 0 85.19 14.1683 1207 137.385 1178.39 460.338
718 0 86.0789 11.9309 1027 143.107 1177.35 455.412
719 0 89.1321 13.5193 1205 139.764 1176.67 454.807
720 0 91.4207 12.2839 1123 141.541 1176.31 452.194
721 0 91.4207 12.3276 1127 149.893 1176.32 452.132
722 1 49.0294 10.0552 493 142.527 1176.05 469.789
723 0 48.0379 9.78394 470 138.223 1176.59 473.787
724 0 52.0321 12.4346 647 138.805 1176.39 465.955
725 0 54.0958 12.5703 680 134.679 1176.99 469.821
726 0 53.0434 9.9164 526 139.144 1178.35 467.597
727 0 57.137 11.5337 659 137.59 1178.7 463.326
728 0 58.084 13.2739 771 136.895 1180.16 461.206
729 0 61.2318 15.8415 970 130.079 1181.06 459.432
730 0 63.1446 12.9861 820 135.6 1183.16 460.762
731 0 63.2173 14.5688 921 133.055 1185.24 461.392
732 0 66.0476 12.6727 837 135.065 1187.68 460.918
733 0 70.0895 14.881 1043 130.776 1188.74 462.204
734 0 71.0777 16.897 1201 128.223 1188.78 459.716
735 0 72.064 14.5426 1048 133.466 1190 459.507
736 0 75.1077 16.8425 1265 129.844 1191.46 457.168
737 0 78.1596 16.1848 1265 130.575 1190.92 460.709
738 0 79.1084 20.0864 1589 123.599 1190.74 460.678
739 0 80.1276 15.2756 1224 133.583 1189.86 456.397
740 0 85.1276 12.7573 1086 136.75 1189.99 460.897
741 0 85.0801 14.6333 1245 135.515 1189.06 457.091
742 0 89.1138 13.421 1196 134.926 1187.96 463.189
743 0 92.2093 18.1977 1678 127.545 1185.76 460.715
744 0 94.3219 13.8886 1310 135.379 1183.75 453.885
745 1 51.0888 8.55373 437 136.188 1183.82 482.098
746 0 52.166 10.0832 526 133.359 1180.96 481.529
747 0 55.3418 12.2511 678 130.149 1178.63 474.437
748 0 54.4161 12.5514 683 130.974 1177.68 474.63
749 0 56.4053 12.0733 681 130.718 1176.67 476.176
750 0 58.2817 14.653 854 129.027 1176.24 473.048
751 0 61.3954 14.1216 867 125.507 1174.12 475.433
752 0 60.0641 14.4346 867 129.018 1173.12 470.73
753 0 61.1005 13.7478 840 128.033 1172.71 474.568
754 0 65.198 15.2152 992 124.892 1172.7 470.396
755 0 66.1328 18.0395 1193 123.174 1172.44 466.63
756 0 66.1586 14.6013 966 129.085 1172.28 466.11
757 0 71.1972 16.2787 1159 126.007 1172.67 464.381
758 0 75.217 18.1076 1362 123.021 1173.44 464.291
759 0 74.1365 15.9166 1180 126.147 1173.68 464.536
760 0 75.0686 15.8522 1190 130.194 1176.23 463.332
761 0 80.1057 14.6307 1172 132.359 1176.95 460.292
762 0 80.0785 13.4243 1075 136.02 1178.93 455.197
763 1 41.0932 9.41762 387 135.111 1180.2 478.556
764 0 47.1042 12.207 575 130.687 1182.55 476.174
765 0 47.0168 12.6125 593 130.669 1183.71 478.14
766 0 48.0485 14.6727 705 128.288 1183.79 476.169
767 0 48.1353 12.3402 594 135.165 1185.03 473.426
768 0 51.2809 14.1378 725 129.676 1186.9 474.872
769 0 53.1818 13.3504 710 132.146 1187.43 475.858
770 0 54.1518 13.7946 747 131.345 1185.86 477.1
771 0 57.1465 11.6018 663 134.098 1185.72 478.517
772 0 57.1655 13.2947 760 134.025 1186.1 475.158
773 0 59.1348 12.7505 754 133.829 1185.76 477.983
774 0 61.2647 12.6827 777 135.215 1186.92 475.116
775 0 66.1413 15.8449 1048 128.906 1185.81 476.384
776 0 66.1207 16.1825 1070 130.936 1183.98 474.123
777 0 69.1129 14.2665 986 134.746 1183.12 474.795
778 0 71.1302 14.2415 1013 134.875 1181.2 473.851
779 0 69.1254 13.2079 913 144.168 1179.32 472.536
780 0 69.1626 13.1574 910 143.74 1177.33 472.575
781 1 38.1766 12.0755 461 133.781 1176.79 488.154
782 0 40.055 12.5577 503 134.815 1175.45 484.038
783 0 40.1817 13.9367 560 132.586 1175.24 483.27
784 0 40.1094 11.6182 466 140.178 1172.83 481.12
785 0 41.127 12.741 524 137.21 1171.62 481.868
786 0 45.0473 17.0043 766 129.275 1171.73 478.76
787 0 44.1338 13.0059 574 138.289 1170.67 478.53
788 0 44.1589 12.9985 574 136.892 1170.7 478.646
789 0 47.0318 12.5872 592 141.571 1171.02 472.539
790 0 48.0793 14.0601 676 140.291 1170.58 471.447
791 0 51.0142 12.6043 643 141.799 1171.14 471.213
792 0 50.1277 13.8247 693 140.734 1170.78 466.137
793 0 54.1718 15.9493 864 135.213 1171.08 466.973
794 0 55.2802 15.3581 849 138.515 1172.18 464.369
795 0 54.1621 15.6198 846 140.411 1173.95 463.215
796 0 55.0859 15.8117 871 142.478 1175.01 462.266
797 0 57.1526 15.1174 864 142.023 1179.93 464.456
798 0 58.0832 15.6844 911 145.167 1180.71 462.205
799 0 58.1233 16.6198 966 145.337 1180 464.374
800 0 58.0601 15.2773 887 150.193 1181.38 465.781
801 0 60.1166 15.6529 941 149.044 1182.62 464.034
802 0 59.1501 14.3195 847 153.704 1184.96 463.731
803 0 62.1946 16.577 1031 147.328 1185.59 466.367
804 0 62.1111 17.9839 1117 145.077 1186.12 465.988
805 0 63.0902 16.4526 1038 149.915 1186.16 467.21
806 0 64.0897 15.4315 989 151.168 1186.13 469.629
807 0 64.0801 17.2909 1108 149.44 1186.26 468.727
808 0 68.1807 15.4883 1056 152.085 1185.82 470.02
809 0 66.152 14.8899 985 156.419 1185.55 469.772
810 0 68.0645 17.601 1198 150.847 1185.47 468.675
811 0 70.2306 17.7985 1250 145.191 1184.94 472.258
812 0 67.055 14.4956 972 157.283 1184.17 465.705
813 0 71.1524 15.3052 1089 154.178 1183.94 468.522
814 0 72.1468 19.3494 1396 143.627 1182.65 466.215
815 0 72.0903 14.6205 1054 152.845 1181.43 468.513
816 1 26.0134 6.65041 173 150.896 1180.03 487.434
817 0 26.0801 10.8512 283 142.746 1178.76 485.346
818 0 29.0175 11.3035 328 141.811 1178.41 483.491
819 0 29.065 11.8699 345 139.29 1177.48 483.455
820 0 31.067 9.52779 296 142.814 1176.91 482.014
821 0 31.0265 11.0551 343 137.603 1175.99 481.265
822 0 30.0421 9.81954 295 138.437 1175.34 479.614
823 0 32.0378 11.4864 368 135.361 1174.36 478.158
824 0 30.1137 13.2166 398 136.387 1176.17 477.04
825 0 28.0896 9.64769 271 144.996 1176.37 475.458
826 0 30.0179 11.6264 349 136.238 1176.99 476.619
827 0 32.0125 10.7146 343 137.548 1177.92 477.907
828 0 31.0834 11.7104 364 134.75 1178.83 477.508
829 0 29.0295 11.7122 340 136.312 1183.83 479.397
830 0 30.0396 10.0867 303 139.908 1184.96 478.65
831 0 28.1178 11.0962 312 139.503 1188.08 475.657
832 0 28.1031 11.1375 313 137.064 1189.4 478.674
833 0 31.0345 12.18 378 133.992 1190.26 479.81
834 0 29.0307 10.8506 315 138.47 1191.81 478.8
835 0 32.1022 12.5225 402 129.137 1193.2 481.816
