time division length width area intensity CMx CMy
0 0 83.3282 20.3293 1694 110.21 1189.71 430.162
1 0 74.3718 12.5451 933 117.553 1190.79 426.094
2 0 79.4305 27.1558 2157 104.044 1190.35 435.691
3 0 86.7876 25.6949 2230 107.232 1190.64 421.299
4 0 84.4346 19.7786 1670 121.538 1191.11 424.651
5 0 87.3962 13.4445 1175 115.646 1191.99 420.391
6 0 93.3506 14.1938 1325 114.701 1191.3 425.743
7 1 48.2032 7.03273 339 117.065 1192.62 449.23
8 0 47.0639 9.79519 461 117.902 1190.6 450.872
9 0 50.1629 13.6555 685 116.01 1189.36 445.8
10 0 54.145 14.9414 809 117.265 1188.44 445.351
11 0 55.1449 12.6938 700 121.586 1188.06 446.974
12 0 54.2206 10.3466 561 130.374 1186.81 447.481
13 0 56.1077 12.5651 705 129.943 1185.52 448.267
14 0 60.0414 13.5073 811 128.836 1185.02 447.307
15 0 60.1475 12.0205 723 131.728 1184.18 449.419
16 0 62.078 11.2922 701 134.969 1182.5 447.205
17 0 63.1388 11.1342 703 139.657 1181.04 442.563
18 0 65.1728 12.6587 825 137.384 1179.24 441.639
19 0 68.1201 14.5185 989 137.479 1178.24 441.505
20 0 68.1374 11.8584 808 145.598 1177.06 434.825
21 0 69.182 11.6504 806 145.125 1176.86 438.561
22 0 73.0504 13.4702 984 138.974 1175.99 434.289
23 0 75.0673 10.7104 804 145.269 1175.42 435.103
24 0 78.1255 12.9279 1010 140.378 1175.75 431.222
25 0 81.0916 14.4651 1173 138.738 1175.99 431.111
26 0 83.2475 14.6311 1218 138.803 1176.13 428.154
27 0 83.1614 13.4678 1120 142.019 1176.91 426.169
28 0 86.2534 13.0546 1126 142 1177.47 424.011
29 0 90.2652 14.2358 1285 139.636 1179.1 425.266
30 0 92.3426 14.7711 1364 136.566 1180.23 421.49
31 1 52.1006 11.8809 619 131.998 1183.62 443.582
32 0 53.1442 11.6852 621 126.808 1185.03 446.763
33 0 53.0883 10.5296 559 131.499 1186.48 442.034
34 0 53.2133 13.8499 737 127.438 1187.31 441.37
35 0 56.2193 17.6452 992 112.329 1186.74 450.326
36 0 57.1982 14.0214 802 117.193 1186.77 449.333
37 0 61.0953 14.3874 879 119.344 1187.88 446.307
38 0 59.0612 13.122 775 121.997 1188.18 445.268
39 0 61.2474 12.1148 742 124.949 1187.4 444.216
40 0 62.1717 15.618 971 119.949 1187.5 446.836
41 0 62.1717 15.4572 961 130.047 1186.53 446.754
42 0 69.3856 14.196 985 126.48 1185.77 443.408
43 0 70.2957 16.7009 1174 128.186 1185.32 443.376
44 0 72.3448 15.5644 1126 128.81 1184.5 444.073
45 0 74.1519 13.8499 1027 138.845 1183.5 440.035
46 0 76.1066 16.1221 1227 131.412 1182.51 439.859
47 0 76.1254 14.4761 1102 136.759 1180.96 436.885
48 0 76.1309 14.6195 1113 134.535 1177.96 436.61
49 0 84.2136 18.0375 1519 130.327 1178.13 442.144
50 0 86.1128 14.5507 1253 137.914 1176.86 433.245
51 0 88.1249 13.0497 1150 142.388 1176.09 435.446
52 1 49.0249 12.0959 593 133.857 1175.52 454.206
53 0 47.0162 10.0391 472 140.839 1174.74 454.646
54 0 48.068 10.0483 483 137.648 1174.46 453.834
55 0 49.0766 12.022 590 135.978 1173.87 451.831
56 0 54.114 15.5043 839 123.625 1174.04 450.01
57 0 54.1618 15.546 842 123.77 1174.08 450.087
58 0 55.1156 11.6845 644 131.07 1175.55 447.859
59 0 57.0718 13.8773 792 126.977 1174.51 447.365
60 0 56.0801 13.8195 775 128.818 1175.08 442.337
61 0 61.0903 16.402 1002 124.815 1174.99 443.232
62 0 61.2398 13.0144 797 126.591 1175.46 440.453
63 0 69.1809 14.9752 1036 117.075 1177.36 446.153
64 0 64.1858 14.2399 914 125.902 1178.7 440.881
65 0 64.1858 14.2555 915 137.237 1181.69 440.894
66 0 68.0551 13.0482 888 122.747 1181.66 442.162
67 0 68.1329 12.6811 864 123.987 1184.74 438.895
68 0 71.1102 12.1642 865 122.438 1185.2 445.666
69 0 77.2068 13.7164 1059 118.983 1186.37 440.615
70 0 76.1025 14.2702 1086 120.859 1187.25 442.09
71 1 40.1199 8.92326 358 122.989 1188.42 459.941
72 0 40.1199 8.79863 353 148.637 1189.41 459.762
73 0 49.2291 14.1989 699 114.013 1188.25 461.674
74 0 48.0933 15.6779 754 118.171 1187.99 460.755
75 0 50.0342 14.1503 708 122.48 1186.96 458.684
76 0 51.1475 18.5933 951 121.671 1185.8 457.842
77 0 50.1686 14.1323 709 128.866 1185.61 459.113
78 0 53.1039 13.1629 699 130.253 1185.31 461.979
79 0 53.0945 13.1087 696 132.693 1184.01 458.417
80 0 53.0945 13.1275 697 137.947 1183.02 458.499
81 0 56.0341 12.1176 679 137.165 1181.29 460.308
82 0 57.0728 13.6142 777 137.345 1180.14 458.387
83 0 58.0678 13.9492 810 137.958 1179.08 455.935
84 0 60.0975 14.4765 870 137.232 1177.41 455.629
85 0 62.0832 14.851 922 134.666 1175.58 453.136
86 0 64.0633 13.9081 891 136.51 1174.67 452.495
87 0 63.1184 12.6429 798 140.683 1173.61 450.615
88 0 66.0727 14.6051 965 136.483 1173.39 447.448
89 0 67.2717 13.0962 881 138.533 1172.47 446.153
90 0 69.1517 12.7546 882 142.264 1171.86 444.105
91 0 74.1251 13.9899 1037 135.462 1172.65 443.051
92 0 78.0638 16.1022 1257 132.532 1172.33 437.86
93 0 79.66 17.9011 1426 127.427 1172.18 443.932
94 0 81.1062 15.116 1226 134.281 1172.05 439.197
95 1 43.0488 10.9875 473 141.894 1171.71 452.626
96 0 44.0838 10.6388 469 144.616 1173.45 451.638
97 0 46.0287 13.4047 617 137.066 1175.13 452.306
98 0 48.0212 12.203 586 144.215 1177 451.846
99 0 50.1216 12.0507 604 138.326 1180.36 452.207
100 0 55.0348 14.3001 787 130.802 1181.27 451.334
101 0 50.0917 13.2357 663 136.831 1181.63 449.655
102 0 51.0814 13.0968 669 137.626 1183.43 449.28
103 0 55.1532 16.6989 921 127.056 1184.85 452.47
104 0 55.1532 14.5776 804 137.854 1185.73 450.905
105 0 56.13 12.7561 716 134.765 1186 452.878
106 0 57.0589 13.3897 764 134.458 1185.87 453.02
107 0 60.0891 13.4966 811 134.56 1186.14 454.017
108 0 61.171 15.0398 920 133.487 1185.53 452.687
109 0 64.1499 15.3702 986 133.819 1185.81 450.658
110 0 64.1499 15.3858 987 142.547 1185.82 450.535
111 0 68.1693 14.816 1010 139.128 1185.05 449.798
112 0 74.7167 16.1544 1207 131.864 1184.53 453.374
113 0 74.1602 13.5922 1008 141.141 1182.89 450.276
114 0 76.1948 14.5811 1111 143.221 1181.09 446.476
115 0 76.1725 12.7211 969 146.599 1180.5 445.829
116 0 78.2113 11.7246 917 150.011 1178.61 445.037
117 0 80.1918 12.1459 974 148.259 1177.03 445.2
118 1 47.0591 11.0287 519 144.37 1175.92 461.561
119 0 48.1478 11.8593 571 136.867 1174.99 462.634
120 0 48.1478 11.9009 573 136.387 1173.99 462.572
121 0 47.1185 11.5029 542 142.426 1171.66 458.817
122 0 50.0909 13.7151 687 137.064 1170.69 456.322
123 0 50.0554 11.6271 582 140.689 1171.48 453.677
124 0 52.0382 12.7022 661 132.546 1168.93 453.719
125 0 51.1096 10.4873 536 137.619 1170.25 452.873
126 0 51.1096 10.3894 531 144.473 1171.23 452.814
127 0 52.1024 11.3047 589 141.759 1172.27 451.657
128 0 59.1842 15.004 888 126.735 1169.86 443.998
129 0 59.2329 11.5308 683 131.567 1171.72 449.808
130 0 59.2329 11.4801 680 140.084 1173.69 449.715
131 0 63.1204 11.7236 740 138.846 1173.49 441.839
132 0 64.1267 13.4265 861 128.015 1175.02 440.812
133 0 70.2375 13.3974 941 125.21 1177.98 444.566
134 0 70.2873 14.2131 999 124.968 1180.27 442.374
135 0 74.2745 17.6911 1314 118.795 1181.53 445.546
136 0 76.3018 14.7834 1128 124.609 1183.47 441.853
137 0 77.1524 14.9056 1150 125.609 1183.11 436.766
138 0 85.1846 16.9045 1440 117.918 1184.8 447.368
139 1 46.0531 10.6399 490 126.202 1185.61 457.763
140 0 46.1312 11.6407 537 128.123 1185.67 458.326
141 0 48.057 14.025 674 131.285 1185.19 456.855
142 0 51.202 15.8197 810 122.868 1183.1 456.927
143 0 51.202 15.9369 816 135.276 1182.11 456.933
144 0 53.1197 16.6605 885 127.25 1182.93 457.892
145 0 53.1452 12.7011 675 133.953 1182.06 459.997
146 0 59.0691 13.3403 788 129.839 1180.44 461.695
147 0 57.2348 12.9292 740 135.58 1179.45 457.374
148 0 60.1132 11.4284 687 136.575 1178.19 457.597
149 0 58.1728 13.0301 758 137.19 1176.84 455.285
150 0 61.1163 13.0244 796 136.401 1174.78 455.781
151 0 64.3569 13.6737 880 134.474 1172.94 453.525
152 0 67.4408 14.7389 994 133.422 1171.84 450.76
153 0 68.4843 13.5506 928 134.154 1170.29 450.964
154 0 71.5733 14.1673 1014 135.139 1169 448.019
155 1 42.3944 11.2987 479 126.192 1168.27 465.223
156 0 39.0551 9.11533 356 136.306 1167.49 461.374
157 0 39.2821 8.52805 335 137.645 1167.53 460.612
158 0 38.104 9.99895 381 146.341 1165.82 457.924
159 0 42.0598 9.62915 405 143.094 1166 458.553
160 0 42.1756 11.1439 470 141.849 1166.17 455.76
161 0 43.1794 11.788 509 138.122 1166.93 454.68
162 0 47.1851 12.4192 586 127.561 1168.31 454.164
163 0 48.2849 13.1718 636 125.781 1169.55 452.564
164 0 51.1293 15.4315 789 121.324 1170.21 452.384
165 0 52.1299 15.4614 806 131.274 1170.25 451.988
166 0 50.1543 12.0628 605 127.702 1174.75 451.339
167 0 50.1543 12.1625 610 146.567 1178.73 451.438
168 0 58.746 13.652 802 121.807 1178.18 453.006
169 0 57.5379 15.4507 889 131.388 1178.28 454.17
170 0 58.2605 12.7531 743 125.047 1181 452.713
171 0 60.1776 15.4875 932 121.519 1181.4 450.454
172 0 64.4852 17.4459 1125 117.191 1182.07 453.884
173 0 60.1674 14.5261 874 124.564 1183.06 450.587
174 0 66.2114 17.8217 1180 120.036 1183.47 448.881
175 0 63.2501 13.5178 855 129.167 1182.38 449.988
176 0 68.3001 15.8565 1083 129.066 1181.57 451.263
177 0 71.3058 16.5765 1182 125.087 1181.12 450.925
178 0 70.3232 16.0402 1128 132.536 1180.45 449.665
179 0 72.2986 14.9381 1080 142.198 1179.93 448.78
180 0 74.1905 18.8164 1396 132.553 1178.5 449.028
181 0 74.2338 13.9559 1036 144.148 1176.52 448.556
182 0 80.0719 14.2122 1138 142.169 1175.63 447.143
183 0 82.1834 15.8548 1303 139.396 1174.33 444.946
184 1 42.3277 9.23746 391 145.737 1174.25 466.668
185 0 41.3133 10.2631 424 150.017 1172.15 466.031
186 0 47.019 10.9743 516 141.967 1170.78 464.63
187 0 42.118 8.99853 379 150.551 1170.02 462.367
188 0 46.1558 12.5445 579 141.729 1169.27 460.259
189 0 50.0908 12.8766 645 140.715 1168.83 457.853
190 0 51.1904 12.6586 648 139.821 1167.9 455.943
191 0 53.2358 13.2242 704 136.474 1167.03 454.442
192 0 56.6271 14.9928 849 131.495 1166.75 455.648
193 0 54.4016 12.5548 683 138.007 1166.35 450.256
194 0 57.3317 15.5237 890 129.399 1166.59 446.156
195 0 55.3594 11.7956 653 136.969 1166.72 447.522
196 0 55.3594 11.7234 649 160.823 1166.7 447.502
197 0 62.3825 14.6355 913 130.531 1168.76 446.758
198 0 65.2843 14.6436 956 126.595 1170.65 446.237
199 0 67.4344 17.4688 1178 121.758 1171.44 443.116
200 0 64.3159 13.3248 857 131.14 1173.27 440.485
201 0 68.3761 12.3435 844 131.828 1174.71 441.915
202 0 71.2551 13.6411 972 123.549 1176.8 446.124
203 0 73.2434 15.0867 1105 122.579 1179.16 438.946
204 0 73.3519 13.9737 1025 125.468 1179.38 439.22
205 0 80.1369 14.8621 1191 122.355 1180.16 445.023
206 0 83.1087 16.8454 1400 120.295 1180.54 439.238
207 0 86.2714 19.5082 1683 118.299 1180.31 443.105
208 0 85.3841 12.6839 1083 129.681 1181.26 444.932
209 0 87.1754 13.5589 1182 129.201 1179.73 441.162
210 1 49.0718 11.473 563 130.52 1180.32 460.373
211 0 48.1243 13.9846 673 128.049 1179.79 460.501
212 0 48.116 14.0286 675 128.526 1179.8 460.524
213 0 52.0851 12.422 647 131.697 1177.54 460.774
214 0 52.2834 11.3994 596 133.309 1176.64 458.621
215 0 53.1293 12.7048 675 131.249 1175.59 460.351
216 0 56.1991 12.4023 697 129.154 1174.16 456.686
217 0 60.2469 16.4822 993 122.124 1172.98 457.828
218 0 60.1465 14.7639 888 128.09 1172.18 454.565
219 0 63.1883 15.3668 971 123.883 1169.95 455.06
220 0 66.0966 18.3822 1215 119.21 1169.04 451.116
221 0 64.0895 13.684 877 129.504 1167.59 450.787
222 0 68.2036 15.6003 1064 124.574 1166.09 451.169
223 0 71.2126 14.885 1060 124.803 1165.98 448.658
224 0 72.189 13.0629 943 129.328 1165.18 447.985
225 0 75.1317 14.0553 1056 126.737 1164.68 445.485
226 0 75.1196 15.6018 1172 125.839 1164.73 440.876
227 0 78.2198 13.5388 1059 128.634 1165.05 438.495
228 0 80.292 13.0275 1046 130.042 1165.63 437.236
229 0 83.1332 14.555 1210 126.397 1166.32 435.799
230 0 87.0814 16.2721 1417 123.897 1167.17 434.548
231 0 90.1592 15.4504 1393 121.315 1168.17 433.644
232 0 97.663 16.9563 1656 116.089 1170.56 436.364
233 1 53.3413 14.8853 794 114.812 1171.96 457.057
234 0 48.1307 11.9259 574 125.127 1173.94 453.091
235 0 52.0936 11.3258 590 125.269 1175.1 453.529
236 0 52.0936 11.4026 594 140.717 1177.12 453.456
237 0 55.0731 15.1617 835 119.701 1177.08 452.057
238 0 57.2777 13.6702 783 123.558 1178.5 450.504
239 0 58.1202 14.5733 847 120.314 1179.79 457.302
240 0 58.1202 14.4872 842 135.903 1179.79 457.329
241 0 63.1505 17.0386 1076 118.384 1179.45 452.511
242 0 67.3899 14.9281 1006 119.94 1179.65 456.429
243 0 66.0767 16.3598 1081 121.679 1179.16 451.482
244 0 69.3305 12.5486 870 130.5 1178.08 452.616
245 0 73.1122 17.2748 1263 119.933 1178.03 452.325
246 0 71.2568 12.9532 923 132.128 1176.16 450.068
247 0 77.131 14.9356 1152 127.561 1175.67 451.515
248 0 79.1549 20.0619 1588 119.602 1174.67 451.474
249 0 80.3077 14.3448 1152 133.587 1174.2 447.305
250 0 83.4593 17.9848 1501 125.939 1172.75 442.512
251 0 84.0672 14.1078 1186 137.05 1171.41 442.69
252 0 88.3676 15.1526 1339 133.647 1170.23 441.866
253 0 89.3628 14.3572 1283 134.748 1169.63 437.913
254 1 52.9382 11.6551 617 124.227 1170.96 464.75
255 0 52.5393 13.8753 729 124.414 1168.67 459.492
256 0 49.3754 11.9493 590 147.717 1167.45 456.861
257 0 54.2586 13.1592 714 130.318 1167.39 455.353
258 0 57.226 13.4205 768 131.643 1166.88 452.234
259 0 58.1739 14.5598 847 129.341 1166.38 450.497
260 0 61.6247 16.8114 1036 131.015 1166.48 453.24
261 0 59.1135 13.8209 817 138.725 1166.21 448.589
262 0 61.2152 14.2612 873 131.23 1166.47 443.964
263 0 64.2326 13.0308 837 132.454 1167.1 444.435
264 0 71.7655 15.9269 1143 122.402 1168.57 449.451
265 0 70.1329 13.4602 944 132.316 1169.55 443.319
266 0 70.3354 14.6015 1027 130.588 1172.16 442.061
267 0 74.1712 15.6395 1160 129.967 1173.73 441.429
268 0 78.3667 17.7116 1388 125.683 1175.65 441.783
269 0 76.2024 14.3565 1094 132.843 1177.24 441.001
270 0 79.1703 13.5531 1073 132.417 1178.58 445.874
271 0 82.1861 14.6984 1208 134.548 1179.56 439.804
272 1 46.0197 10.8649 500 135.712 1180.93 458.628
273 0 49.0989 11.5481 567 132.991 1180.53 460.453
274 0 50.1665 11.1628 560 134.343 1179.94 460.568
275 0 50.1665 11.0831 556 148.928 1179.91 460.559
276 0 50.0734 13.4203 672 131.702 1176.53 459.871
277 0 51.1067 11.7793 602 137.322 1179.87 458.877
278 0 52.1942 12.8558 671 135.841 1179 459
279 0 54.1168 13.9698 756 135.619 1177.68 460.526
280 0 58.1117 14.5582 846 131.976 1177.58 461.204
281 0 58.1117 14.627 850 127.499 1176.53 461.194
282 0 60.1086 13.1928 793 135.883 1174.31 458.84
283 0 60.0805 13.665 821 134.816 1174.14 457.851
284 0 65.049 13.2516 862 134.466 1172.68 455.731
285 0 66.0987 13.9488 922 131.6 1171.09 452.565
286 0 69.0809 17.5012 1209 125.003 1169.77 451.809
287 0 69.1034 17.756 1227 120.317 1167.79 451.855
288 0 79.8751 14.4601 1155 124.125 1167.89 450.576
289 0 73.1188 11.1736 817 134.892 1166.79 448.223
290 1 42.0331 10.7772 453 127.887 1167.08 464.055
291 0 41.1206 10.0923 415 127.622 1166.31 464.361
292 0 42.0392 12.9403 544 121.847 1165.57 461.086
293 0 42.0799 10.3375 435 128.846 1166.21 459.878
294 0 43.0281 11.6203 500 123.212 1166.31 457.654
295 0 46.2705 11.8218 547 121.963 1166.72 454.581
296 0 48.0695 13.5637 652 120.612 1167.15 454.813
297 0 49.0576 14.7786 725 119.334 1167.87 452.777
298 0 48.0832 15.078 725 119.101 1170.01 452.806
299 0 52.0958 14.1086 735 119.721 1170.85 451.244
300 0 53.0472 18.493 981 114.867 1173.42 450.291
301 0 53.083 13.3753 710 123.803 1174.64 450.204
302 0 53.083 13.4506 714 120.238 1175.64 450.154
303 0 57.049 15.3377 875 121.017 1178.15 449.251
304 0 56.0739 11.6989 656 128.11 1179.19 450.183
305 0 60.0804 14.0645 845 123.28 1180.36 452.052
306 0 61.0763 14.1299 863 128.604 1181.33 451.584
307 0 64.172 13.6352 875 124.68 1181.4 453.106
308 0 66.1148 13.7942 912 126.52 1180.95 450.989
309 0 66.0692 15.1054 998 123.769 1180.91 449.743
310 0 71.0655 14.5077 1031 124.774 1180.2 455.075
311 0 73.0694 12.3171 900 134.156 1180.09 448.796
312 0 74.151 10.7349 796 138.99 1178.75 451.741
313 0 77.3106 15.0303 1162 128.964 1176.66 444.83
314 1 42.0331 12.0619 507 131.57 1174.55 470.647
315 0 45.0322 11.9914 540 132.911 1174.45 467.35
316 0 45.0322 11.9914 540 126.131 1172.47 467.343
317 0 47.0509 9.54286 449 140.657 1171.86 467.098
318 0 47.0385 11.1398 524 144.34 1170.83 461.954
319 0 50.0392 11.0513 553 142.342 1170.35 462.09
320 0 51.0151 13.5058 689 137.096 1169.21 456.253
321 0 53.0857 10.775 572 137.802 1169.05 461.687
322 0 57.1201 12.605 720 137.001 1167.25 457.815
323 0 55.1153 14.007 772 135.106 1165.54 455.378
324 0 60.1678 12.382 745 135.847 1166.82 453.153
325 0 61.117 14.4477 883 132.208 1166.14 450.95
326 0 64.085 15.7291 1008 129.862 1166.37 448.941
327 0 65.1871 13.6223 888 136.747 1166 449.043
328 0 66.1583 12.0469 797 140.327 1165.9 448.036
329 0 68.2078 12.9457 883 135.712 1166.76 447.525
330 0 68.0536 13.6951 932 137.371 1165.69 443.647
331 0 74.0668 16.0126 1186 131.237 1167.53 446.007
332 0 74.0668 16.1071 1193 139.42 1169.52 446.053
333 0 75.1569 10.6843 803 142.187 1169.58 441.836
334 1 41.1366 10.9635 451 137.876 1172.26 459.634
335 0 42.1483 10.1309 427 134.002 1173.49 465.012
336 0 43.0505 11.2426 484 143.638 1174.27 458.618
337 0 46.0855 12.9542 597 140.266 1174.46 461.213
338 0 49.1627 11.045 543 138.821 1176.04 461.895
339 0 52.0433 14.4111 750 135.813 1176.52 460.888
340 0 49.0645 14.4707 710 143.561 1177.59 459.13
341 0 52.163 14.3397 748 140.164 1178.29 459.791
342 0 53.0345 14.5943 774 142.778 1176.7 457.116
343 0 54.0571 13.2268 715 146.813 1176.12 458.586
344 0 58.0732 19.3032 1121 133.083 1175.87 458.905
345 0 56.0704 13.6971 768 147.124 1174.7 459.555
346 0 59.0268 14.5866 861 145.029 1173.6 459.873
347 0 60.0614 13.9524 838 146.86 1172.52 455.993
348 0 64.021 16.0416 1027 140.027 1171.09 457.519
349 0 64.021 16.0572 1028 137.937 1170.1 457.689
350 0 65.1028 12.2575 798 150.607 1168.36 454.638
351 0 68.0523 13.2251 900 146.26 1167 453.608
352 0 68.0464 14.4901 986 144.529 1165.61 452.561
353 0 71.1693 14.1213 1005 144.886 1164.28 449.863
354 0 73.0435 15.0185 1097 140.909 1163.55 450.827
355 0 77.1336 15.8556 1223 136.547 1162.81 447.236
356 0 81.2012 16.7362 1359 134.261 1163.07 446.806
357 0 81.3059 15.1281 1230 141.078 1163.94 439.883
358 0 82.3206 15.7312 1295 134.628 1164.9 439.547
359 0 83.1221 14.6291 1216 136.972 1164.77 437.963
360 1 45.0552 10.9643 494 135.395 1165.24 460.806
361 0 45.0741 10.1167 456 136.928 1166.07 461.651
362 0 48.0871 15.7215 756 127.659 1166.12 457.671
363 0 48.1666 12.1869 587 133.826 1167.92 458.436
364 0 52.038 12.3564 643 130.393 1169.28 454.832
365 0 51.0821 13.214 675 132.881 1171.36 452.75
366 0 55.3089 12.3127 681 130.542 1172.04 454.019
367 0 54.0977 13.1059 709 135.234 1174.2 451.834
368 0 55.0423 14.5524 801 134.644 1176.1 450.87
369 0 58.1009 12.048 700 137.361 1178.2 454.001
370 0 60.0469 15.821 950 129.251 1178.71 454.201
371 0 59.0806 12.5253 740 137.539 1180.21 452.886
372 0 59.0806 12.3898 732 148.336 1182.24 452.821
373 0 63.0995 13.7719 869 134.125 1180.29 455.14
374 0 64.1681 11.3608 729 136.247 1179.43 455.429
375 0 68.1429 16.3627 1115 127.504 1179.56 454.604
376 0 70.2332 14.2098 998 132.487 1179.29 457.243
377 0 69.0801 13.7811 952 135.843 1177.95 456.363
378 0 72.1534 15.1483 1093 132.349 1177.53 453.849
379 0 76.1252 14.9753 1140 134.004 1176.32 454.146
380 0 76.1252 14.9491 1138 134.83 1175.35 454.181
381 0 80.1182 14.4786 1160 139.053 1175.36 452.115
382 0 82.1484 18.5883 1527 131.386 1174.2 450.521
383 0 88.0938 17.9127 1578 132.234 1172.72 444.438
384 0 89.283 14.9189 1332 137.289 1170.13 448.49
385 1 46.1483 13.565 626 136.072 1170.9 465.375
386 0 47.0448 9.75666 459 141.93 1169.48 466.094
387 0 51.1561 13.8791 710 131.839 1168.51 462.404
388 0 52.1508 14.669 765 123.003 1165.66 461.91
389 0 53.0997 12.5801 668 126.663 1165.64 457.609
390 0 53.1201 15.6626 832 121.88 1164.28 456.851
391 0 56.3 16.4831 928 119.014 1163.63 456.365
392 0 57.3 13.8045 791 120.866 1162.45 457.803
393 0 57.3 14.0314 804 120.082 1161.43 457.517
394 0 60.1672 13.6786 823 124.249 1164.79 449.326
395 0 66.3137 16.1053 1068 118.701 1165.31 448.941
396 0 64.2075 13.0203 836 125.839 1166.06 445.388
397 0 70.1243 15.9431 1118 116.699 1167.71 447.879
398 0 70.2879 19.6905 1384 111.952 1168.76 447.609
399 0 70.3045 17.8367 1254 115.698 1170.68 442.105
400 0 70.3263 11.0058 774 125.951 1172.35 443.066
401 0 73.3577 13.0048 954 124.579 1174.52 443.245
402 0 77.1523 14.9574 1154 122.934 1176.34 440.826
403 0 79.1227 13.1694 1042 125.462 1177.73 440.069
404 0 84.4822 14.3817 1215 123.515 1178.72 440.549
405 0 87.2678 16.7186 1459 120.83 1178.02 439.276
406 0 88.2971 14.5305 1283 125.296 1178.37 442.652
407 0 91.3171 14.5208 1326 127.94 1178.51 438.64
408 1 46.1354 12.9618 598 126.013 1179.12 460.652
409 0 49.2147 12.3744 609 127.087 1179.04 461.126
410 0 51.1054 13.5994 695 125.791 1178.36 460.042
411 0 56.3211 17.0806 962 126.135 1175.84 462.964
412 0 54.1449 13.4639 729 130.638 1174.76 464.665
413 0 54.1449 13.4269 727 141.418 1173.77 464.648
414 0 57.0651 12.8099 731 134.138 1173.59 461.505
415 0 60.0899 17.4239 1047 125.743 1172.78 461.932
416 0 62.08 11.4691 712 135.949 1171.06 460.743
417 0 65.1368 13.6482 889 133.432 1169.95 459.342
418 0 67.3714 10.7761 726 135.698 1168.53 461.895
419 0 74.2344 15.8686 1178 127.143 1167.39 455.778
420 0 75.1903 15.3078 1151 128.314 1166.14 454.015
421 0 76.3438 13.2689 1013 130.793 1165.33 451.275
422 0 79.2211 13.9988 1109 128.782 1165.04 449.941
423 1 41.1316 10.9891 452 131.951 1164.33 467.827
424 0 46.0481 11.4663 528 132.57 1164.15 464.663
425 0 44.0482 16.0733 708 123.367 1163.41 462.678
426 0 44.0482 16.2322 715 130.352 1162.41 462.737
427 0 48.0185 13.828 664 129.157 1162.89 459.375
428 0 48.1461 12.5036 602 129.224 1164.02 458.694
429 0 51.1234 12.4209 635 130.824 1164.69 457.003
430 0 51.0881 12.1359 620 129.569 1166.06 455.471
431 0 51.0881 12.1163 619 149.963 1167.06 455.396
432 0 58.2523 16.0165 933 123.97 1168.56 452.192
433 0 58.2436 15.2978 891 153.782 1170.51 451.634
434 0 65.3255 19.6707 1285 119.753 1172.45 452.233
435 0 65.1659 14.1945 925 129.47 1174.86 453.362
436 0 68.1871 15.8388 1080 126.411 1176.15 451.957
437 0 68.2012 16.1141 1099 127.94 1177.42 452.098
438 0 69.3004 15.0215 1041 131.299 1177.28 450.661
439 0 72.0469 18.6545 1344 125.565 1177.93 451.306
440 0 74.2538 15.1507 1125 132.991 1178.76 451.262
441 0 78.1754 17.8189 1393 131.118 1177.89 451.541
442 0 78.1754 17.7805 1390 151.827 1176.93 451.425
443 0 80.2938 13.2389 1063 139.188 1177.02 451.008
444 0 85.2421 16.8109 1433 135.407 1177.39 448.551
445 0 88.1876 16.1928 1428 133.602 1176.53 447.457
446 0 92.2623 21.9158 2022 122.903 1175.35 446.452
447 1 53.1799 15.8331 842 129.207 1173.39 468.246
448 0 50.0638 14.2618 714 134.812 1172.25 464.91
449 0 51.1905 13.7721 705 137.748 1174 464.201
450 0 53.14 15.1487 805 132.86 1172.37 463.455
451 0 56.1256 14.8774 835 133.696 1170.29 463.759
452 0 55.2558 14.8944 823 133.818 1169.36 459.629
453 0 59.2574 16.5886 983 129.624 1168.05 461.766
454 0 58.2033 15.5489 905 130.673 1167.04 460.272
455 0 60.1982 19.17 1154 124.342 1166.92 456.259
456 0 66.273 16.8243 1115 125.953 1166.36 454.677
457 0 63.1834 15.3047 967 130.468 1166.39 452.684
458 0 66.1457 16.8114 1112 129.913 1165.84 449.618
459 0 70.2995 15.69 1103 128.993 1165.11 451.137
460 0 73.2714 15.4631 1133 130.447 1165.63 447.282
461 0 76.5416 15.7039 1202 125.666 1165.65 449.801
462 0 78.1659 17.5396 1371 125.145 1167.18 442.551
463 0 80.2565 15.3259 1230 128.517 1167.66 443.481
464 0 80.5464 14.2775 1150 128.718 1168.71 441.517
465 0 87.3804 15.4955 1354 125.554 1170.16 440.654
466 1 41.0192 13.1889 541 127.582 1172.97 458.823
467 0 45.1024 10.5094 474 128.369 1175.06 461.316
468 0 43.0445 9.78057 421 133.525 1176.86 459.938
469 0 48.1902 12.1809 587 122.629 1177.86 456.63
470 0 44.1553 10.7348 474 126.892 1178.31 455.16
471 0 51.2396 15.2616 782 117.515 1179.66 459.051
472 0 54.135 13.9836 757 119.388 1179.71 459.445
473 0 52.0925 12.785 666 125.327 1179.78 457.362
474 0 55.1242 9.14298 504 127.363 1179.89 462.296
475 0 57.1341 13.9321 796 125.499 1179.1 457.273
476 0 59.0891 14.8589 878 125.325 1178.68 458.33
477 0 57.2353 12.5272 717 130.635 1177.72 455.616
478 0 65.483 13.2706 869 128.473 1177.31 460.771
479 0 64.2117 16.0407 1030 126.84 1176.06 456.27
480 0 64.2836 14.7627 949 132.153 1174.94 455.763
481 0 68.2899 19.4611 1329 123.602 1174.18 452.888
482 0 69.2585 15.2905 1059 132.382 1172.5 453.507
483 0 73.2815 15.611 1144 131.538 1170.7 449.392
484 0 78.169 15.9782 1249 130.079 1169.28 448.612
485 0 79.4789 16.8347 1338 129.729 1168.75 445.318
486 0 80.2217 14.3602 1152 135.585 1166.97 446.141
487 0 83.5475 17.4631 1459 127.653 1166.08 441.925
488 0 83.329 16.2128 1351 128.942 1165.49 444.904
489 0 86.2159 15.2872 1318 131.838 1165.14 438.999
490 1 47.3497 9.63048 456 137.349 1165.11 457.397
491 0 45.2533 11.3804 515 133.674 1164.01 458.882
492 0 48.0303 12.6795 609 135.608 1163.66 460.279
493 0 50.0492 15.5447 778 127.684 1163.81 460.689
494 0 53.1764 14.0288 746 134.134 1164.26 453.791
495 0 56.1501 16.3846 920 128.254 1164.4 452.991
496 0 58.1382 15.8932 924 126.247 1165.33 455.289
497 0 57.0575 12.1281 692 136.269 1165.87 455.773
498 0 63.5104 16.6744 1059 125.538 1167.95 452.716
499 0 64.3069 17.8519 1148 120.468 1169.54 456.011
500 0 64.1966 16.9012 1085 125.868 1172.93 450.507
501 0 67.2077 17.2302 1158 126.614 1173.42 449.946
502 1 34.1824 11.1461 381 131.929 1174.68 468.675
503 0 38.1673 11.3448 433 129.954 1175.98 469.145
504 0 35.0463 14.0101 491 129.047 1177.59 469.273
505 0 35.0534 13.7219 481 146.243 1178.62 469.817
506 0 36.0387 13.6798 493 145.974 1179.6 469.349
507 0 40.1779 15.1825 610 131.421 1177.82 468.897
508 0 41.098 10.8278 445 137.955 1177.67 471.351
509 0 43.2165 16.9611 733 128.664 1177.54 471.15
510 0 45.1148 15.25 688 133.83 1177.02 470.109
511 0 48.1298 16.7879 808 130.822 1176.61 470.621
512 0 48.1377 17.2214 829 136.077 1175.35 469.16
513 0 49.2464 14.6203 720 141.126 1174.65 469.772
514 0 52.1524 16.5093 861 135.272 1173.71 468.616
515 0 49.1531 14.5464 715 144.379 1172.62 466.08
516 0 53.217 19.8433 1056 129.942 1170.85 468.806
517 0 55.0825 16.0486 884 138.139 1169.71 464.174
518 0 56.1134 15.7895 886 139.345 1167.99 462.84
519 0 58.1319 14.2435 828 141.219 1166.27 462.777
520 0 61.2011 16.0618 983 137.759 1167.11 459.237
521 0 62.1573 16.6996 1038 136.305 1166.14 454.779
522 0 65.1504 19.3859 1263 129.95 1165.15 457.203
523 0 69.1012 17.3948 1202 133.844 1163.39 453.481
524 0 69.3974 13.5884 943 141.406 1163.41 451.63
525 1 34.2124 8.0088 274 146.299 1163.4 468.036
526 0 37.2214 14.266 531 139.458 1163.89 462.06
527 0 37.2092 12.4432 463 144.546 1164.04 461.458
528 0 41.2028 13.3001 548 141.303 1164.67 460.642
529 0 41.3837 13.4352 556 141.858 1164.7 460.025
530 0 42.3982 14.9063 632 139.978 1166.32 460.316
531 0 43.2497 14.5666 630 140.9 1168.62 457.46
532 0 45.1857 20.9801 948 127.746 1171.04 458.717
533 0 45.1726 15.1419 684 141.788 1173.32 458.887
534 0 47.2728 14.7865 699 141.612 1175.79 460.784
535 0 49.3581 14.8507 733 143.374 1176.66 459.352
536 0 51.2933 15.2846 784 141.108 1178.45 460.776
537 0 51.2863 14.3118 734 144.507 1179.55 461.232
538 0 52.1759 14.3553 749 146.346 1179.6 460.523
539 0 54.1332 14.7784 800 146.535 1179.29 458.845
540 0 55.2852 16.3154 902 144.201 1179.81 458.95
541 0 59.1557 16.6679 986 143.113 1179.4 459.601
542 0 60.2551 15.0361 906 148.573 1178.8 458.55
543 0 61.2121 15.4545 946 149.177 1178.55 457.517
544 0 63.1735 16.1777 1022 147.052 1177.19 457.338
545 0 64.1683 15.9736 1025 149.472 1176.97 456.467
546 0 68.2977 15.9303 1088 147.95 1175.45 456.581
547 0 69.1856 14.2804 988 149.856 1174.64 457.56
548 0 71.2044 14.3671 1023 151.766 1173.55 454.602
549 0 72.2633 15.3605 1110 151.817 1172.59 451.329
550 0 75.1711 15.365 1155 151.561 1171.5 449.448
551 0 74.4217 14.391 1071 155.068 1170.3 445.986
552 0 80.3595 17.2724 1388 147.246 1168.89 443.318
553 0 86.7803 17.6192 1529 141.725 1168.16 446.907
554 0 86.5713 18.967 1642 141.122 1167.39 443.588
555 0 88.4658 16.0288 1418 149.368 1166.49 442.521
556 0 88.4007 15.0338 1329 152.591 1166.27 441.039
557 0 94.5884 15.1498 1433 150.14 1165.94 438.246
558 1 53.1917 12.6147 671 152.618 1166.24 454.72
559 0 56.221 12.4153 698 151.191 1166.36 453.989
560 0 56.1978 15.3743 864 147.153 1166.14 451.83
561 0 60.4896 15.9036 962 143.08 1167.19 452.266
562 0 59.2137 15.4018 912 148.675 1166.59 448.593
563 0 62.1786 14.0885 876 140.118 1167.92 445.616
564 0 63.1498 14.9169 942 139.548 1169.06 442.687
565 0 67.1571 15.8881 1067 137.458 1171.15 440.989
566 0 69.2104 16.0814 1113 136.609 1172.75 441.222
567 0 69.1473 16.2985 1127 139.09 1174.52 438.634
568 0 76.5255 19.7712 1513 128.091 1176.24 442.936
569 0 75.4765 17.0782 1289 134.575 1177.35 444.7
570 0 77.2536 15.2226 1176 141.129 1178.95 441.313
571 0 77.1863 13.0852 1010 146.753 1179.41 437.671
572 0 81.2009 16.7978 1364 138.717 1179.85 441.517
573 0 86.2226 16.6662 1437 138.57 1180.09 440.191
574 1 47.2448 9.37669 443 139.619 1180.15 462.002
575 0 46.2413 10.5533 488 147.5 1180.09 460.668
576 0 48.2393 12.4173 599 139.097 1178.58 461.836
577 0 49.1448 13.3076 654 140.139 1177.96 461.297
578 0 50.1798 15.8829 797 135.614 1177 460.586
579 0 53.2951 15.0483 802 134.662 1176.4 460.82
580 0 55.1749 17.2361 951 128.519 1176.07 459.835
581 0 57.1441 12.8797 736 135.564 1174.77 460.721
582 0 59.1818 14.3625 850 132.515 1173.27 460.718
583 0 61.3434 15.6985 963 131.993 1172.16 456.939
584 0 63.2759 13.1014 829 136.92 1170.27 456.666
585 0 64.2457 13.9309 895 135.431 1169.04 456.749
586 0 66.3216 12.8163 850 139.848 1167.55 451.984
587 0 70.222 15.5934 1095 133.279 1166.61 451.682
588 0 72.2474 13.2046 954 138.465 1165.75 450.752
589 0 74.3069 14.2248 1057 137.837 1165.08 448.036
590 0 78.3043 13.7413 1076 138.285 1164.56 446.326
591 0 80.2113 12.9907 1042 140.558 1163.96 444.477
592 0 83.2662 15.3123 1275 136.304 1163.89 444.682
593 0 87.2988 14.9601 1306 139.448 1163.64 444.481
594 0 88.1589 13.3282 1175 143.162 1164.27 441.144
595 0 93.2177 15.0615 1404 138.962 1164.41 441.776
596 0 95.27 13.4565 1282 141.742 1165.26 443.005
597 1 53.1167 8.52839 453 137.461 1167.53 467.033
598 0 55.2026 12.8074 707 133.383 1168.72 461.437
599 0 57.1069 13.9213 795 131.331 1170.45 459.927
600 0 59.0837 14.3187 846 129.856 1171.5 459.527
601 0 59.1207 12.9058 763 135.573 1173.9 458.106
602 0 63.0584 14.3518 905 130 1174.8 458.772
603 0 65.1373 13.7402 895 132.56 1175.12 456.234
604 0 68.0936 13.6577 930 131.081 1176.14 457.133
605 0 69.1152 14.512 1003 130.668 1175.57 453.824
606 0 71.1648 12.0425 857 136.001 1175.54 453.251
607 0 75.1042 13.4347 1009 132.268 1175.39 455.189
608 0 79.1314 17.9322 1419 124.834 1174.45 450.374
609 0 80.2199 12.3037 987 133.894 1174.58 454.784
610 0 82.1917 12.7993 1052 134.279 1173.8 454.026
611 0 83.2903 13.0147 1084 134.795 1173.23 452.43
612 0 85.1714 12.9269 1101 136.53 1171.76 448.15
613 1 46.0674 10.0722 464 133.043 1166.91 471.19
614 0 46.0705 9.96299 459 137.863 1166.78 466.536
615 0 48.047 11.239 540 135.894 1165.43 466.085
616 0 52.1598 11.3881 594 133.354 1164.75 466.039
617 0 53.045 11.2546 597 134.162 1164.19 461.69
618 0 53.12 11.0316 586 133.445 1162.77 463.169
619 0 54.0765 13.2405 716 128.735 1163.6 462.246
620 0 55.1667 11.8731 655 130.586 1162.2 461.186
621 0 56.0922 11.4811 644 129.748 1159.64 458.143
622 0 59.1422 12.8504 760 123.155 1158.68 461.317
623 0 60.0723 13.3506 802 125.208 1158.41 455.662
624 0 61.1633 13.9463 853 124.396 1158.42 453.585
625 0 63.1215 12.2462 773 128.255 1159.1 446.743
626 0 65.1084 13.0244 848 126.981 1160.11 450.009
627 0 68.1427 15.2768 1041 123.619 1160.36 446.14
628 0 70.2951 13.9981 984 125.835 1161.33 440.893
629 0 72.2489 13.5365 978 125.028 1163.4 444.382
630 0 72.2489 13.5089 976 126.312 1165.4 444.439
631 0 79.2189 14.0371 1112 125.017 1165.63 437.186
632 0 79.27 12.9431 1026 127.686 1167.61 436.758
633 0 84.2958 15.0541 1269 123.18 1167.88 438.289
634 0 85.1775 12.9259 1101 128.467 1171.79 438.37
635 0 87.297 13.414 1171 129.371 1173.36 435.954
636 1 47.104 10.8271 510 129.071 1176.17 458.335
637 0 49.0663 13.2882 652 124.96 1176.8 458.442
638 0 55.0922 12.7423 702 124.473 1176.96 460.444
639 0 54.2817 13.2273 718 124.889 1177.51 458.972
640 0 56.1367 11.8105 663 128.861 1178.46 458.59
641 0 59.0698 12.7984 756 127.532 1177.32 460.788
642 0 60.1454 11.2893 679 132.837 1176.44 456.374
643 0 60.1454 11.2062 674 138.027 1175.44 456.35
644 0 63.1309 13.369 844 128.422 1175.69 461.392
645 0 64.2064 15.2944 982 125.817 1174.21 458.452
646 0 67.1081 12.2191 820 132.559 1173.78 456.632
647 0 69.084 15.9082 1099 127.114 1172.87 453.81
648 0 71.1373 13.3685 951 130.288 1171.64 457.644
649 0 75.1006 15.9253 1196 126.748 1170.37 453.929
650 0 74.1448 13.0286 966 134.238 1169.15 452.748
651 0 79.2554 15.4437 1224 130.509 1167.54 448.286
652 0 80.2946 15.8417 1272 129.336 1167.26 448.758
653 0 80.2946 15.9164 1278 127.403 1166.24 448.528
654 0 84.2827 14.831 1250 134.434 1165.23 442.018
655 0 85.0903 13.9851 1190 138.035 1162.67 441.663
656 0 90.1821 14.1492 1276 137 1162.16 439.114
657 0 88.1318 12.8104 1129 141.262 1163.35 433.484
658 0 93.2911 12.8201 1196 140.997 1163.41 433.916
659 0 97.3199 14.2931 1391 137.067 1163.69 435.6
660 0 99.2205 14.3116 1420 137.353 1164.54 433.477
661 0 102.209 13.0028 1329 138.408 1164.97 431.608
662 1 59.0607 11.7675 695 137.794 1168.32 451.823
663 0 59.144 11.2099 663 139.125 1169.61 452.154
664 0 63.0787 10.5265 664 141.277 1170.5 449.488
665 0 65.0737 13.6153 886 135.414 1171.63 449.056
666 0 67.1116 15.0496 1010 131.932 1172.94 448.091
667 0 70.1379 17.1377 1202 128.07 1174.19 447.723
668 0 72.0845 14.6079 1053 132.655 1176.22 447.746
669 0 72.1282 16.1518 1165 131.622 1176.76 444.782
670 0 76.0913 16.8745 1284 128.808 1177.61 448.706
671 0 78.0835 15.0096 1172 134.049 1178.8 448.338
672 0 80.0741 16.185 1296 132.57 1178.28 448.073
673 0 85.1708 19.2319 1638 126.603 1178.42 446.794
674 0 86.0715 15.1386 1303 134.841 1177.65 446.68
675 0 89.1447 15.8955 1417 133.327 1177.22 446.558
676 0 90.1319 13.8907 1252 137.138 1174.81 443.395
677 0 92.1271 15.0119 1383 142.429 1173.85 441.413
678 0 92.1319 15.0545 1387 141.735 1172.86 441.535
679 1 48.0557 11.3618 546 132.242 1175.16 468.498
680 0 46.0517 10.7054 493 134.813 1174.04 466.611
681 0 48.0874 12.3941 596 133.55 1172.41 463.606
682 0 51.1667 12.5277 641 132.034 1171.47 460.215
683 0 49.1761 11.713 576 142.13 1171.34 459.092
684 0 51.1858 13.07 669 132.602 1168.24 457.004
685 0 55.2634 12.9923 718 131.648 1167.07 457.802
686 0 56.2613 15.4991 872 126.404 1165.69 458.209
687 0 59.1619 15.8041 935 126.128 1164.9 455.306
688 0 60.3307 15.1167 912 125.792 1164.52 452.876
689 0 61.2206 15.6647 959 125.231 1163.85 450.047
690 0 62.331 15.6102 973 123.626 1163.43 454.159
691 0 65.169 13.7796 898 129.188 1163.31 449.517
692 0 65.3007 12.9248 844 132.271 1163.79 443.495
693 0 67.3048 12.9263 870 140.091 1164.76 442.944
694 0 67.3098 12.9699 873 139.468 1165.75 443.391
695 0 72.1741 15.1855 1096 129.477 1165.69 441.916
696 0 77.2615 12.6971 981 130.069 1168.11 443.06
697 0 77.1931 14.6127 1128 128.487 1168.84 442.217
698 0 78.2253 13.7551 1076 132.185 1170.82 438.06
699 0 82.2636 14.0281 1154 131.389 1174.05 438.051
700 1 42.12 10.3276 435 133.752 1176.62 455.177
701 0 43.1636 9.42925 407 133.061 1177.72 459.42
702 0 50.0987 14.0722 705 122.672 1178.73 459.759
703 0 48.0988 8.64886 416 135.156 1178.74 460.76
704 0 47.0542 11.6036 546 134.101 1178.61 454.544
705 0 53.0994 10.7346 570 133.633 1179.28 457.561
706 0 51.1003 10.9393 559 136.508 1178.71 456.469
707 0 56.2324 13.4264 755 127.265 1178.37 459.53
708 0 57.1219 13.8476 791 131.357 1178.37 457.68
709 0 60.2548 12.9782 782 132.231 1177.93 457.326
710 0 62.1317 15.7086 976 128.37 1176.66 452.573
711 0 63.2614 13.6102 861 133.187 1175.31 455.05
712 0 65.2606 13.7296 896 132.195 1174.2 454.145
713 0 68.1786 13.3766 912 132.888 1172.7 452.681
714 0 69.1711 13.416 928 132.652 1170.78 451.718
715 0 70.294 13.6 956 132.621 1169.38 447.45
716 0 70.294 13.4862 948 119.85 1168.43 447.32
717 1 40.0828 9.30573 373 133.295 1166.32 464.584
718 0 41.0967 10.5848 435 133.168 1165.84 461.287
719 0 43.0529 12.984 559 127.982 1165.26 461.878
720 0 45.1119 9.84219 444 130.615 1164.34 463.029
721 0 43.1016 11.5309 497 134.952 1164.14 459.364
722 0 45.2165 11.7214 530 134.064 1164.52 457.708
723 0 49.0928 11.5088 565 133.653 1164.57 454.809
724 0 49.1449 11.7815 579 132.373 1161.61 452.971
725 0 50.1198 14.2658 715 126.726 1162.53 450.166
726 0 51.0849 14.055 718 113.106 1162.52 450.247
727 0 53.2012 12.5185 666 129.529 1164.3 447.577
728 0 56.0885 13.443 754 127.493 1165.32 448.418
729 0 58.2164 13.6903 797 126.517 1166.93 445.427
730 0 58.207 12.0432 701 131.459 1168.3 445.736
731 0 62.2935 16.2778 1014 122.414 1170.82 448.356
732 0 61.2592 12.7328 780 130.209 1173.33 448.536
733 0 65.1844 15.9241 1038 126.592 1174.41 445.873
734 0 67.1859 12.4729 838 132.642 1174.81 444.054
735 0 68.1811 15.3122 1044 129.17 1176.52 444.483
736 0 70.3678 11.5536 813 136.146 1177.93 445.887
737 1 37.0978 9.00322 334 137.671 1176.58 464.862
738 0 40.0868 10.6768 428 132.935 1175.61 467.136
739 0 43.1031 10.7417 463 130.112 1175.21 471.248
740 0 44.0467 12.3505 544 131.244 1175.04 467.833
741 0 47.0541 13.1976 621 128.894 1174.2 470.643
742 0 50.2753 15.8527 797 125.543 1173.43 466.634
743 0 49.2548 15.9781 787 133.032 1172.47 466.611
744 0 53.1732 18.1106 963 123.098 1170.2 470.154
745 0 57.2406 17.0334 975 125.619 1168.95 467.247
746 0 55.0803 13.7617 758 133.169 1167.87 466.797
747 0 58.128 15.2594 887 129.895 1166.03 467.023
748 0 61.1599 16.8901 1033 127.09 1164.87 463.774
749 0 59.1138 14.0407 830 136.048 1163.9 462.81
750 0 62.1496 12.6308 785 139.641 1162.29 462.428
751 0 64.1105 13.9759 896 138.798 1161.54 456.247
752 0 67.2446 12.4917 840 140.498 1160.85 458.743
753 0 69.0868 17.4853 1208 130.103 1160.74 457.204
754 0 70.1032 16.3331 1145 132.263 1160.41 457.104
755 0 72.0776 10.9604 790 141.711 1160.05 456.532
756 0 73.0898 16.9791 1241 132.795 1159.99 450.332
757 0 77.1026 16.0695 1239 133.584 1160.21 448.51
758 0 77.1825 16.9469 1308 133.77 1160.73 446.474
759 1 44.0237 12.4024 546 137.2 1160.86 463.962
760 0 46.0222 11.9073 548 136.739 1161.66 463.765
761 0 48.1514 9.94779 479 142.395 1162.55 461.866
762 0 46.1012 11.8652 547 137.501 1164.59 462.367
763 0 50.1086 12.6525 634 135.293 1165.14 462.347
764 0 49.0251 12.2182 599 137.619 1167.42 459.399
765 0 52.169 15.8907 829 128.101 1168.75 458.473
766 0 50.1648 12.8975 647 139.569 1168.92 456.524
767 0 51.0482 10.7937 551 140.904 1171.3 459.991
768 0 55.0778 13.4355 740 132.997 1172.89 463.005
769 0 59.2763 17.9498 1064 125.496 1173.09 460.687
770 0 58.156 15.6648 911 130.008 1173.55 458.346
771 0 59.1852 15.1389 896 130.353 1173.18 458.348
772 0 59.1852 15.1389 896 130.669 1172.18 458.348
773 0 65.156 12.8307 836 133.215 1173.34 460.691
774 0 64.2169 14.9026 957 130.987 1173.14 461.091
775 0 70.109 12.6945 890 131.48 1171.58 463.189
776 0 71.0577 11.4555 814 134.125 1170.04 463.224
777 0 73.081 16.3928 1198 127.696 1169.05 457.862
778 0 75.0604 13.1094 984 131.311 1167.19 462.973
779 0 78.1127 12.418 970 134.904 1166 455.895
780 0 80.0959 14.8322 1188 131.669 1164.55 454.678
781 0 84.0992 14.2213 1196 133.08 1163.28 451.003
782 0 85.2388 11.2038 955 138.546 1161.7 446.898
783 0 89.2242 14.7942 1320 132.83 1160.75 443.492
784 1 46.0729 8.00905 369 136.287 1159.05 468
785 0 45.1437 8.72768 394 137.299 1158.77 466.338
786 0 48.1452 9.40904 453 135.795 1157.65 463.845
787 0 49.0706 9.67992 475 136.785 1157.65 463.057
788 0 52.0431 11.6634 607 135.438 1157.51 457.695
789 0 57.7074 12.8926 744 131.301 1159.45 456.062
790 0 54.1952 13.1561 713 130.259 1158.36 448.108
791 0 57.1023 13.4846 770 132.93 1157.77 451.9
792 0 57.106 13.5362 773 136.045 1156.79 451.831
793 0 60.0832 13.7809 828 130.228 1158.68 452.9
794 0 63.1006 16.1805 1021 127.329 1159.44 450.425
795 0 66.0798 15.33 1013 130.356 1161.29 447.105
796 0 69.0995 13.401 926 133.168 1162.5 446.585
797 0 71.1245 15.8595 1128 128.943 1165.09 446.309
798 0 75.0547 14.576 1094 130.931 1165.48 444.729
799 0 76.1298 16.1435 1229 128.628 1167.4 445.079
800 0 77.1388 15.673 1209 131.73 1168.67 440.27
801 0 81.2155 15.896 1291 129.931 1170.56 440.508
802 0 83.2039 13.2686 1104 134.64 1171.93 441.861
803 0 86.1386 12.6656 1091 134.434 1172.85 442.874
804 0 89.133 13.1601 1173 133.907 1172.93 442.792
805 1 48.0637 9.30015 447 134.383 1173.14 465.687
806 0 49.0293 9.6065 471 134.323 1173.55 466.057
807 0 53.0543 11.5919 615 131.823 1173.1 463.885
808 0 53.0493 11.5364 612 135.529 1174.1 463.752
809 0 53.0765 13.5465 719 131.588 1172.53 462.313
810 0 55.2025 14.6008 806 128.732 1174.37 462.957
811 0 61.1716 16.3474 1000 122.647 1174.78 461.07
812 0 60.0781 15.4965 931 126.415 1175.16 460.884
813 0 63.1507 14.9959 947 129.321 1174.18 457.262
814 0 65.0686 15.9524 1038 127.34 1173.02 456.962
815 0 67.1209 14.1387 949 130.23 1171.92 457.216
816 0 68.1135 15.4448 1052 129.113 1170.93 451.725
817 0 70.1069 13.9073 975 133.066 1170.03 449.872
818 0 74.0823 15.0103 1112 129.887 1169.21 449.448
819 0 76.1144 14.0447 1069 131.983 1168.88 445.882
820 0 78.0873 15.0985 1179 129.723 1168.21 446.775
821 0 81.1758 15.2508 1238 130.694 1167.69 438.515
822 0 83.0804 16.1891 1345 127.946 1166.92 441.262
823 0 85.1208 13.1578 1120 132.786 1166.16 441.77
824 1 46.0776 12.0232 554 128.175 1167.18 458.22
825 0 46.1088 10.7789 497 132.718 1168.12 455.018
826 0 49.0519 10.5806 519 132.43 1168.4 455.59
827 0 48.0978 12.329 593 132.767 1169.46 456.752
828 0 52.0862 14.9944 781 128.064 1171.26 449.771
829 0 52.1006 15.067 785 129.648 1172.71 451.392
830 0 53.1561 13.2252 703 128.945 1174.14 452.607
831 0 57.1224 11.9743 684 130.398 1175.44 454.692
832 0 60.3029 14.7422 889 126.106 1177.47 451.694
833 0 60.1204 14.5541 875 129.218 1178.92 450.498
834 0 60.3007 13.101 790 132.387 1179.18 451.342
835 0 64.1272 15.0014 962 128.492 1180.16 449.936
836 0 72.589 14.7267 1069 126.159 1181.33 452.127
837 0 69.2425 13.0267 902 132.521 1181.08 451.65
838 0 72.1184 16.2095 1169 128.234 1181.01 449.965
839 0 74.2872 16.7054 1241 128.394 1180.37 450.482
840 0 76.3411 16.2691 1242 130.561 1180.16 451.047
841 0 81.3424 15.0106 1221 131.292 1179.7 450.674
842 0 83.1967 16.9838 1413 129.017 1178.75 451.268
843 1 43.0375 9.29421 400 139.505 1178.39 470.132
844 0 48.1763 15.4225 743 128.821 1176.54 469.127
845 0 50.0902 12.9367 648 134.983 1175.85 466.481
846 0 50.1273 15.3609 770 130.479 1174.84 465.355
847 0 52.1507 12.1187 632 135.573 1172.45 464.69
848 0 52.1421 15.1701 791 130.891 1171.21 465.568
849 0 51.1612 11.6494 596 137.495 1169.18 462.367
850 0 58.1489 15.5291 903 129.584 1168.8 462.623
851 0 58.0676 15.9125 924 131.108 1167.19 458.116
852 0 59.1178 14.0567 831 136.171 1166.14 454.59
853 0 61.2252 15.5818 954 131.488 1166.14 458.708
854 0 65.3086 16.246 1061 132.181 1165.26 452.891
855 0 65.1144 14.1136 919 135.128 1165.18 453.356
856 0 67.3266 18.2989 1232 129.43 1164.92 446.571
857 0 70.232 14.7511 1036 136.67 1164.86 447.99
858 0 72.3329 15.6775 1134 134.892 1165.28 446.039
859 0 74.1839 14.2214 1055 138.935 1165.99 446.107
860 0 75.4587 16.1678 1220 137.557 1166.35 446.142
861 0 78.3667 14.866 1165 140.484 1166.8 442.209
862 0 84.4287 15.9306 1345 135.364 1168.78 445.875
863 1 44.1438 12.0062 530 137.857 1170.76 461.615
864 0 42.1332 9.13768 385 143.026 1172.24 462.616
865 0 46.1117 10.1493 468 134.75 1173.53 466.494
866 0 47.0335 13.4585 633 133.744 1175.23 460.76
867 0 45.0911 12.6189 569 137.596 1174.29 459.211
868 0 49.0718 11.7583 577 136.078 1175.2 460.811
869 0 53.195 12.4072 660 138.23 1178.13 460.648
870 0 53.115 11.8611 630 137.081 1177.35 464.83
871 0 55.1143 13.9528 769 135.048 1177.75 462.109
872 0 56.1291 11.8299 664 141.351 1177.63 461.417
873 0 57.1767 13.5195 773 135.563 1177.64 464.715
874 0 59.3349 14.2243 844 136.2 1176.86 464.649
875 0 59.2929 10.9625 650 144.094 1176.26 464.258
876 0 62.3264 12.8517 801 140.414 1174.99 460.27
877 0 65.5804 14.9435 980 138.965 1173.14 458.007
878 0 64.2211 13.5625 871 142.063 1172 457.799
879 0 67.2163 14.7732 993 139.33 1171.07 459.598
880 0 67.2208 14.5044 975 137.961 1168.85 461.014
881 0 72.3274 16.6604 1205 135.133 1167.86 455.661
882 0 74.2222 17.1916 1276 135.248 1166.15 453.324
883 0 74.298 12.4499 925 147.408 1165.5 450.749
884 0 76.248 13.8102 1053 144.046 1164.26 446.299
885 0 81.46 13.9455 1136 143.165 1163.23 445.661
886 0 84.1698 15.1598 1276 138.911 1162.16 447.369
887 0 85.465 16.9543 1449 137.446 1161.41 443.567
888 1 48.2796 12.6762 612 140.462 1161.34 458.941
889 0 50.2943 8.80816 443 148.628 1160.81 456.515
890 0 50.3819 10.7181 540 142.711 1160.41 456.515
891 0 51.4027 11.4391 588 146.143 1160.93 453.459
892 0 52.2775 11.9937 627 147.211 1162.17 449.691
893 0 55.5338 14.8378 824 138.444 1162.42 451.142
894 0 57.2684 14.336 821 142.77 1164.71 446.7
895 0 59.1435 13.5602 802 141.701 1165.71 452.274
896 0 60.2839 13.6355 822 142.597 1166.89 449.737
897 0 62.2896 12.3456 769 144.824 1170.46 449.427
898 0 65.3323 13.3625 873 141.971 1172.36 448.207
899 0 66.297 13.4395 891 141.026 1173.8 450.788
900 0 70.3572 15.5066 1091 135.38 1174.91 452.441
901 0 69.3752 12.8865 894 141.988 1175.47 453.038
902 0 72.2224 14.4277 1042 139.657 1176.4 452.02
903 0 76.4049 15.3132 1170 137.502 1176.9 451.128
904 0 79.3355 14.2559 1131 140.39 1177.38 451.33
905 0 80.3364 15.8708 1275 138.905 1177.25 447.482
906 0 82.2812 16.0061 1317 137.072 1176.71 449.409
907 0 86.263 14.8267 1279 139.996 1176.12 448.349
908 1 46.1129 13.7055 632 136.549 1175.27 467.495
909 0 44.3838 11.5357 512 142.15 1174.27 465.328
910 0 49.3521 14.2851 705 136.021 1172.68 464.123
911 0 50.3501 13.8828 699 138.536 1171.96 461.794
912 0 49.3016 12.9813 640 144.588 1171.7 458.198
913 0 50.2205 12.2062 613 144.865 1170.1 460.556
914 0 54.1606 16.7834 909 136.527 1168.25 456.338
915 0 53.0725 13.8301 734 141.756 1166.88 456.772
916 0 56.0612 12.4507 698 144.948 1166.17 455.542
917 0 56.0753 13.892 779 143.612 1165.34 452.856
918 0 60.0894 16.3756 984 134.808 1163.85 456.222
919 0 60.227 14.1963 855 140.389 1163.84 457.014
920 0 64.2801 17.2215 1107 136.037 1163.29 453.234
921 0 64.1992 17.4613 1121 137.151 1163 450.401
922 0 65.2576 15.8142 1032 140.064 1163.55 447.437
923 0 69.2114 14.5496 1007 142.671 1163.25 445.483
924 0 71.2398 14.8512 1058 140.457 1163.23 446.635
925 0 73.1425 15.545 1137 139.547 1163.54 445.487
926 1 38.1019 11.1281 424 142.998 1163.94 459.755
927 0 41.0886 9.19963 378 143.206 1165.08 461.64
928 0 41.0253 11.8463 486 141.484 1166.3 457.412
929 0 45.0145 13.4179 604 136.995 1167.77 458.374
930 0 46.0768 11.5242 531 141.164 1170.61 458.307
931 0 46.0303 12.1659 560 142.23 1172.27 455.63
932 0 51.0959 13.8954 710 135.607 1173.75 457.139
933 0 50.0572 13.8841 695 137.147 1174.98 455.19
934 0 52.0443 12.9505 674 137.34 1176.28 456.377
935 0 54.1212 15.7794 854 131.453 1177.41 455.554
936 0 53.1098 13.2367 703 136.492 1177.59 457.297
937 0 57.0429 14.7959 844 134.405 1179.5 459.036
938 0 57.0488 14.9346 852 135.552 1179.98 457.558
939 0 61.0415 14.9898 915 133.142 1177.48 459.11
940 0 62.189 14.4077 896 135.65 1177.72 456.214
941 0 65.1392 17.6391 1149 129.265 1177.3 456.605
942 0 67.0835 14.8621 997 134.908 1177.11 456.939
943 0 70.1915 14.8593 1043 131.384 1175.06 461.563
944 0 72.2527 15.6119 1128 132.876 1174.14 456.36
945 0 73.1886 15.1253 1107 136.39 1173.66 451.847
946 0 79.1779 14.0317 1111 136.203 1171.79 452.88
947 0 79.2278 16.3705 1297 134.447 1170.92 449.918
948 0 82.1385 17.2392 1416 133.228 1169.96 449.605
949 1 41.0948 12.897 530 140.155 1169.3 468.142
950 0 45.2272 12.9568 586 140.814 1169.19 464.548
951 0 44.2183 11.6694 516 142.893 1168.01 465.035
952 0 45.3852 12.3168 559 143.728 1167.65 463.188
953 0 48.3007 14.1199 682 140.21 1167.32 460.374
954 0 49.1872 16.2644 800 135.655 1166.95 459.974
955 0 50.1861 16.1001 808 137.496 1166.34 455.178
956 0 51.078 13.6262 696 142.536 1167.76 454.369
957 0 54.1151 18.8487 1020 130.407 1167.11 455.008
958 0 55.2295 14.3945 795 139.083 1167.63 456.086
959 0 56.1051 14.5798 818 140.336 1168.45 454.378
960 0 58.1558 16.1635 940 137.96 1168.53 451.2
961 0 60.1125 13.8574 833 141.918 1170.21 452.527
962 0 61.1341 15.2942 935 141.414 1171.52 447.361
963 0 62.0422 15.8763 985 141.056 1172.94 446.015
964 0 65.0874 15.2871 995 140.562 1175.08 450.063
965 0 68.0814 17.2294 1173 138.488 1175.93 447.164
966 0 69.1964 15.4632 1070 143.507 1178.01 446.951
967 0 73.0276 18.7189 1367 136.786 1179.3 446.6
968 0 73.1743 17.9844 1316 139.102 1179.88 446.581
969 0 77.161 17.1978 1327 139.151 1180.64 448.338
970 0 78.1878 17.4963 1368 139.178 1180.37 443.553
971 0 85.2004 17.3473 1478 137.539 1180.68 447.721
972 0 87.1705 18.9628 1653 134.803 1180.51 448.395
973 0 88.0818 19.164 1688 135.668 1179.34 444.465
974 1 45.1179 14.2072 641 141.133 1179.35 465.549
975 0 47.0946 15.2247 717 137.901 1178.83 466.414
976 0 50.0567 12.5857 630 143.325 1177.21 464.359
977 0 49.0911 13.9129 683 143.764 1173.42 463.447
978 0 54.178 14.4893 785 134.456 1172.93 461.676
979 0 52.0251 14.4161 750 135.428 1171.49 459.175
980 0 55.0369 13.9906 770 135.114 1169.48 457.397
981 0 55.035 12.5738 692 137.974 1168.53 456.686
982 0 58.1171 14.2127 826 132.556 1167.77 456.692
983 0 61.0271 14.9769 914 132.766 1166.62 451.64
984 0 63.0362 13.6588 861 135.195 1165.64 451.711
985 0 66.0974 16.3395 1080 129.349 1164.43 450.941
986 0 65.0588 15.0325 978 134.53 1163.85 446.627
987 0 69.0711 14.6371 1011 135.002 1162.78 443.162
988 0 69.0664 14.6381 1011 142.586 1161.77 443.146
989 0 72.1161 17.3748 1253 131.658 1162.8 438.813
990 0 74.2004 15.6199 1159 135.925 1162.82 437.123
991 0 77.1677 14.5009 1119 138.167 1163.02 434.789
992 0 81.1567 16.4743 1337 132.904 1163.79 437.206
993 0 84.2463 14.9799 1262 136.307 1164.47 432.185
994 0 85.1162 15.3907 1310 137.707 1165.94 429.526
995 1 46.1325 11.2502 519 138.674 1167.38 451.927
996 0 46.1128 14.0091 646 135.197 1169.82 451.006
997 0 48.0452 13.7579 661 134.9 1170.49 449.109
998 0 49.084 13.6908 672 137.301 1173.32 450.074
999 0 53.0255 14.9551 793 133.858 1174.3 449.498
1000 0 54.1236 15.8157 856 131.654 1175.13 451.244
1001 0 55.1765 14.5533 803 135.354 1176.12 451.707
1002 0 58.0685 16.6527 967 131.198 1176.14 449.442
1003 0 60.0815 16.0782 966 132.594 1177.06 451.106
1004 0 59.1089 15.057 890 135.812 1177.13 452.963
1005 0 64.1549 13.4206 861 138.89 1176.57 450.204
1006 0 64.0786 14.7943 948 136.023 1176.86 451.403
1007 0 70.2845 19.9048 1399 125.289 1177.83 452.741
1008 0 70.0996 17.1042 1199 132.104 1177.03 449.243
1009 0 72.0852 16.5776 1195 134.118 1176.63 449.402
1010 0 75.1976 16.4367 1236 133.981 1175 447.717
1011 0 78.2117 15.3302 1199 136.656 1173.97 449.843
1012 0 79.1872 17.1366 1357 133.361 1172.73 448.693
1013 0 79.1872 17.1366 1357 138.471 1171.75 448.812
1014 0 89.1182 15.7656 1405 135.487 1169.87 446.993
1015 0 88.1296 15.0347 1325 138.763 1168.28 444.685
1016 1 46.019 10.4739 482 142.921 1167.73 460.284
1017 0 50.0597 8.46988 424 142.724 1166.78 462.608
1018 0 53.07 12.1538 645 136.104 1165.98 460.919
1019 0 53.07 12.0972 642 143.372 1164.98 460.843
1020 0 55.1603 15.6634 864 133.339 1164.07 455.87
1021 0 55.0764 13.2906 732 139.959 1163.4 455.052
1022 0 58.0747 12.3634 718 140.334 1162.89 454.004
1023 0 61.1106 15.7419 962 134.142 1162.53 450.085
1024 0 61.2078 14.8837 911 137.913 1162.87 447.36
1025 0 65.1028 13.9472 908 138.013 1162.95 449.534
1026 0 67.1638 15.6632 1052 136.025 1164.08 448.408
1027 0 70.1607 14.5951 1024 138.176 1165.15 448.284
1028 0 70.0834 12.5422 879 144.086 1165.47 448.466
1029 0 73.1177 17.3282 1267 134.281 1167.03 446.103
1030 0 76.0756 13.5523 1031 143.034 1168.43 444.422
1031 0 79.1004 16.8646 1334 136.752 1170.35 442.106
1032 0 79.2544 14.1317 1120 143.83 1172.13 444.112
1033 0 84.1546 16.2796 1370 139.999 1173.51 442.02
1034 0 89.1089 15.0714 1343 139.839 1174.19 445.923
1035 1 49.0608 10.5176 516 144.86 1174.87 461.777
1036 0 50.0888 9.24359 463 143.775 1176.98 465.188
1037 0 52.0644 11.2361 585 142.911 1176.3 462.055
1038 0 53.1482 12.7568 678 142.335 1177.13 465.457
1039 0 59.2304 16.4611 975 135.688 1177.21 467.761
1040 0 58.0713 16.2042 941 139.522 1176.38 465.601
1041 0 58.1154 16.0887 935 141.083 1175.83 463.807
1042 0 63.0742 16.0446 1012 139.06 1174.78 464.496
1043 0 64.1199 14.9096 956 140.821 1173.37 464.169
1044 0 69.1589 17.5971 1217 135.154 1172.21 462.222
1045 0 69.1238 15.4939 1071 138.929 1170.7 462.593
1046 0 71.1066 15.1322 1076 140.871 1168.78 455.107
1047 0 72.2769 15.662 1132 141.034 1166.59 454.466
1048 0 79.1775 18.6922 1480 132.034 1165.21 454.684
1049 0 79.2071 14.3674 1138 142.301 1164.9 450.083
1050 0 81.2048 16.1936 1315 138.134 1163.65 449.589
1051 0 82.2036 16.2645 1337 140.241 1161.64 449.984
1052 0 82.2036 16.228 1334 139.834 1159.63 449.985
1053 0 88.1845 15.8531 1398 139.258 1162.3 444.814
1054 0 90.1195 16.2229 1462 138.324 1162.29 440.277
1055 0 91.2318 18.02 1644 135.459 1162.28 439.257
1056 1 48.0544 9.65571 464 145.073 1162.72 462.476
1057 0 50.066 12.0241 602 144.276 1163.43 458.455
1058 0 49.0824 11.1445 547 144.777 1163.68 459.174
1059 0 53.0949 11.9974 637 144.267 1161.46 454.725
1060 0 49.1621 13.1809 648 145.517 1162.17 451.991
1061 0 55.1337 12.5332 691 144.114 1163.7 452.457
1062 0 60.0395 14.4738 869 137.422 1164.59 449.116
1063 0 60.1068 14.8402 892 140.068 1167.19 448.083
1064 0 62.1693 15.3291 953 139.471 1167.69 445.56
1065 0 64.0614 12.3007 788 145.605 1169.72 447.987
1066 0 65.0501 16.3105 1061 139.476 1171.36 444.471
1067 0 67.0621 15.9404 1069 140.858 1172.39 445.701
1068 0 71.0748 15.1671 1078 141.147 1173.94 446.219
1069 0 73.0961 15.3633 1123 141.337 1175.18 444.073
1070 0 75.0429 18.736 1406 135.933 1175.65 442.746
1071 0 76.0665 13.5802 1033 146.466 1176.06 445.94
1072 0 82.0836 16.9096 1388 139.038 1176.77 444.185
1073 0 82.0522 14.1983 1165 146.397 1176.78 444.997
1074 0 85.119 14.8263 1262 143.731 1176.32 446.464
1075 0 89.071 14.6625 1306 144.616 1175.61 445.404
1076 0 92.0886 17.0379 1569 141.353 1175.95 438.499
1077 1 49.1086 8.91901 438 150.731 1174.75 463.53
1078 0 51.0753 12.276 627 144.557 1174.37 461.242
1079 0 49.1272 10.2998 506 150.263 1173.13 459.322
1080 0 55.2084 14.0739 777 140.022 1172.45 459.233
1081 0 57.0406 14.5686 831 139.122 1171.67 459.953
1082 0 58.0789 13.0684 759 142.913 1170.11 454.453
1083 0 58.1857 15.1756 883 138.889 1168.6 455.951
1084 0 61.147 13.9173 851 141.06 1167.37 455.686
1085 0 64.1842 15.9229 1022 137.62 1166.23 453.018
1086 0 66.1977 13.5352 896 141.76 1164.98 449.638
1087 0 67.1843 18.9479 1273 132.233 1164.67 447.31
1088 0 71.2513 15.1857 1082 140.052 1164.08 447.225
1089 0 71.1758 16.1712 1151 139.787 1163.85 442.853
1090 0 72.1457 16.134 1164 141.735 1163.4 440.771
1091 0 75.1709 14.793 1112 144.181 1164.01 437.111
1092 0 77.2664 15.5307 1200 141.935 1164.06 438.877
1093 0 78.1351 13.9758 1092 148.053 1165.05 437.733
1094 0 84.1999 17.6604 1487 137.874 1165.88 439.193
1095 0 88.1694 17.0241 1501 139.167 1167.4 436.085
1096 0 90.131 15.5662 1403 144.548 1168.86 433.431
1097 1 44.0305 10.8788 479 148.956 1169.38 454.096
1098 0 49.0331 11.6248 570 147.298 1171.02 453.921
1099 0 49.1282 14.1263 694 141.543 1172.53 455.244
1100 0 52.053 12.8523 669 142.94 1174.11 456.556
1101 0 54.0895 13.4592 728 141.898 1177.47 453.985
1102 0 54.0318 15.0467 813 140.23 1178.11 452.563
1103 0 57.1018 11.8385 676 144.478 1179.12 453.97
1104 0 56.0949 11.6588 654 143.445 1179.25 449.549
1105 0 59.0588 17.9313 1059 128.991 1179.7 451.708
1106 0 62.1259 19.1547 1190 126.296 1179.75 452.859
1107 0 62.2781 12.0428 750 137.537 1180.13 453.329
1108 0 67.2897 14.3261 964 133.615 1179.19 454.754
1109 0 67.1733 14.6338 983 134.186 1179.04 454.863
1110 0 67.1565 15.1586 1018 134.891 1177.96 453.85
1111 0 73.2327 16.0857 1178 134.482 1176.97 455.508
1112 0 73.1468 16.7198 1223 135.243 1175.6 456.448
1113 0 73.1468 16.8429 1232 137.856 1174.62 456.36
1114 0 79.0897 10.9622 867 145.844 1172.34 457.744
1115 0 84.1002 15.8382 1332 137.616 1171.17 451.08
1116 0 86.1526 15.7859 1360 139.235 1168.95 444.539
1117 0 87.2261 15.9471 1391 140.329 1166.91 445.215
1118 0 93.2251 16.1866 1509 138.317 1165.38 444.524
1119 0 92.1725 11.9125 1098 150.291 1163.86 445.789
1120 0 92.1725 11.9775 1104 154.134 1162.86 445.861
1121 1 44.0733 8.28166 365 150.679 1162.04 463.247
1122 0 47.1296 11.1183 524 145.498 1162.61 460.357
1123 0 52.1393 12.5625 655 135.205 1162.75 460.748
1124 0 54.2847 13.466 731 131.687 1162.61 455.891
1125 0 54.0466 10.75 581 142.36 1161.51 456.224
1126 0 58.0898 12.3085 715 137.618 1161.5 456.821
1127 0 59.0283 13.9763 825 136.853 1161.08 452.798
1128 0 61.0254 15.2559 931 135.171 1161.46 452.76
1129 0 62.1233 13.8917 863 138.476 1162.42 447.771
1130 0 64.1596 13.8249 887 139.471 1164.07 447.417
1131 0 69.1219 14.7421 1019 136.067 1165.47 444.608
1132 0 68.1684 14.1855 967 138.725 1166.68 448.431
1133 0 69.1992 10.5059 727 148.513 1168.1 449.048
1134 0 73.1325 16.8325 1231 135.518 1173.07 448.562
1135 0 76.0921 13.9831 1064 142.192 1173.61 447.097
1136 0 76.0762 12.8555 978 145.292 1174.65 452.031
1137 0 80.0954 15.7188 1259 139.423 1174.42 449.759
1138 0 82.1944 19.831 1630 133.24 1174.18 449.169
1139 0 81.0951 12.5285 1016 150.301 1174.84 449.169
1140 0 87.1238 14.1408 1232 145.192 1174.08 450.2
1141 0 89.1165 18.0775 1611 139.07 1173.03 448.195
1142 0 91.1529 14.2398 1298 147.948 1172.15 448.775
1143 0 94.1496 16.1976 1525 143.265 1170.97 449.802
1144 0 97.1551 15.748 1530 145.825 1169.93 446.093
1145 0 99.2461 16.7765 1665 142.454 1168.7 450.291
1146 0 101.308 14.9545 1515 148.746 1167.21 442.997
1147 0 102.318 15.8037 1617 152.549 1165.16 444.352
1148 0 106.299 17.3943 1849 143.931 1163.78 438.95
1149 0 104.233 16.5207 1722 147.933 1162.58 438.866
1150 0 105.328 15.0957 1590 152.577 1161.79 438.032
1151 0 105.213 16.0912 1693 149.932 1160.97 438.442
1152 0 108.265 16.5612 1793 148.86 1160.22 435.687
1153 0 107.202 15.2329 1633 150.432 1159.86 436.192
1154 0 107.158 16.7042 1790 148.951 1159.65 432.778
1155 0 107.153 16.6771 1787 159.495 1158.65 432.611
1156 0 109.252 15.1302 1653 153.028 1159.68 432.822
1157 0 110.281 15.8505 1748 151.184 1160.15 432.37
1158 0 110.373 17.1147 1889 148.972 1160.17 432.384
1159 0 109.498 15.6624 1715 154.24 1161.2 428.996
1160 1 57.2454 10.0619 576 161.958 1162.38 453.562
1161 0 59.2583 11.2727 668 163.326 1163.24 451.605
1162 0 59.1308 10.6205 628 159.022 1163.94 450.377
1163 0 61.399 12.8341 788 148.565 1166.88 452.565
1164 0 56.3126 8.38179 472 156.038 1169.97 453.269
1165 0 61.3426 13.1719 808 148.428 1171.67 448.938
1166 0 59.2252 10.5023 622 152.217 1173.45 452.785
1167 0 61.3019 12.8707 789 147.469 1175.05 451.856
1168 0 60.3429 12.081 729 149.554 1176.52 453.54
1169 0 60.2754 12.3102 742 148.094 1177.41 452.985
1170 0 63.3709 15.4803 981 140.435 1178.53 452.678
1171 0 60.0441 14.1396 849 144.365 1176.58 456.683
1172 0 60.2355 16.5849 999 142.235 1176.59 453.55
1173 0 61.0647 18.9962 1160 133.196 1175.21 458.247
1174 0 61.1189 16.8688 1031 138.736 1175.45 458.278
1175 0 62.2134 16.0737 1000 139.975 1175.25 459.164
1176 0 62.0964 14.703 913 143.819 1174.37 457.843
1177 0 61.0712 16.5708 1012 141.031 1173.44 458.65
1178 0 63.1322 14.8894 940 143.381 1173.29 458.979
1179 0 63.1624 14.6606 926 143.78 1172 459.27
1180 0 63.1518 14.9481 944 141.926 1170.04 459.062
