time division length width area intensity CMx CMy
0 0 71.7486 18.6484 1338 113.293 1190.49 442.587
1 0 66.4018 14.0358 932 120.123 1190.43 440.843
2 0 66.6939 19.627 1309 112.32 1191.63 443.193
3 0 67.5361 14.0665 950 116.896 1191.46 440.975
4 0 68.6404 12.6893 871 118.435 1191.4 441.286
5 0 71.6987 16.9459 1215 113.91 1191.81 438.911
6 1 54.2648 6.76313 367 127.221 1190.91 433.158
7 1 80.4496 22.9709 1848 111.095 1189.56 441.918
8 0 79.3849 13.5164 1073 121.168 1187.75 438.559
9 0 79.4159 11.6979 929 124.715 1187.04 439.28
10 0 86.6062 15.6109 1352 119.999 1186.65 444.482
11 0 86.3039 12.9195 1115 130.209 1185.42 443.153
12 0 85.3465 13.041 1113 143.919 1184 437.877
13 0 90.3898 18.2432 1649 128.842 1183.68 434.95
14 1 47.2584 11.3207 535 138.811 1183.05 461.755
15 0 47.2596 9.5642 452 133.673 1182.05 460.299
16 0 50.0754 11.1432 558 139.5 1180.55 455.419
17 0 53.0623 14.7751 784 133.079 1179.46 454.298
18 0 55.0564 14.2036 782 135.893 1178.13 452.73
19 0 57.1465 15.259 872 134.292 1176.76 447.784
20 0 57.1198 13.3229 761 138.327 1175.19 447.966
21 0 60.1322 14.5845 877 135.128 1174.87 446.098
22 0 60.2152 14.2157 856 135.65 1174.03 442.829
23 0 68.2519 17.1863 1173 126.234 1173.66 445.998
24 0 65.3534 15.8064 1033 127.748 1173.99 447.592
25 0 67.1868 15.8513 1065 128.029 1173.8 443.808
26 0 71.2924 15.5136 1106 126.889 1174.44 442.904
27 0 78.0468 15.8623 1238 123.553 1174.73 442.958
28 0 72.2936 19.158 1385 119.15 1174.34 433.748
29 0 81.1091 23.1047 1874 110.97 1176.8 436.769
30 0 83.5955 19.9413 1667 111.915 1178.7 441.776
31 0 84.6206 19.1325 1619 112.841 1181.24 438.529
32 0 86.7851 17.7796 1543 112.145 1182.67 437.262
33 0 94.8364 15.7956 1498 113.114 1183.83 436.628
34 0 93.2165 19.1168 1782 111.786 1185.74 434.163
35 1 48.2044 25.2674 1218 102.203 1186.99 456.31
36 0 53.4044 9.56849 511 112.26 1189.09 457.01
37 0 51.1889 21.4109 1096 104.948 1188.42 450.987
38 0 51.1889 21.5867 1105 126.653 1189.41 450.983
39 0 52.3331 14.6943 769 125.296 1189.31 452.602
40 0 54.1338 13.559 734 128.455 1189.09 454.368
41 0 56.1803 15.0231 844 125.724 1189.13 453.927
42 0 58.6638 18.9896 1114 122.165 1188.39 452.272
43 0 58.6793 18.9675 1113 131.568 1188.4 452.37
44 0 60.1748 13.9926 842 139.271 1185.34 449.449
45 0 61.3265 16.029 983 136.498 1184.23 450.762
46 0 63.181 14.4347 912 140.652 1182.8 445.451
47 0 65.3784 14.9744 979 144.315 1181.23 446.467
48 0 66.2497 16.6189 1101 142.48 1180.38 444.907
49 0 71.1433 16.2208 1154 138.984 1179.44 444.778
50 0 70.3084 14.7351 1036 145.608 1176.62 442.592
51 0 73.231 15.417 1129 145.191 1175.41 441.535
52 0 79.3268 14.6987 1166 145.725 1174.15 428.154
53 1 39.0287 11.1969 437 146.929 1174.15 451.616
54 0 39.0287 11.2737 440 153.548 1171.12 451.68
55 0 44.5463 13.3793 596 135.012 1173.11 455.998
56 0 44.0253 11.9477 526 143.551 1172.29 453.548
57 0 43.0211 12.0174 517 144.124 1171.28 453.306
58 0 44.0229 11.7666 518 143.884 1169.26 453.135
59 0 48.1532 13.7685 663 134.817 1172.43 448.119
60 0 47.0901 13.23 623 135.607 1173.79 450.958
61 0 56.6957 15.4509 876 126.872 1173.86 451.171
62 0 53.0796 14.0167 744 132.614 1174.63 448.266
63 0 52.0573 14.9451 778 133.47 1175.79 445.636
64 0 52.0573 14.8298 772 136.784 1177.8 445.623
65 0 56.1394 16.9934 954 130.323 1180.63 443.716
66 0 58.1165 13.9375 810 132.219 1181.69 448.453
67 0 60.3138 15.6681 945 128.841 1183.97 448.93
68 0 62.3049 16.2267 1011 130.754 1184.28 447.825
69 0 63.408 14.5407 922 128.775 1186.26 445.52
70 0 65.1233 16.9832 1106 125.43 1186.55 443.341
71 0 70.2157 15.9081 1117 126.451 1187.61 444.822
72 0 69.2198 15.8047 1094 133.779 1187.27 440.27
73 0 69.4898 13.9013 966 133.627 1186.7 440.305
74 0 75.2357 13.039 981 133.183 1187.03 448.381
75 0 77.2409 16.0019 1236 132.212 1185.61 445.68
76 0 78.1635 15.3524 1200 135.016 1184.94 448.193
77 0 79.2162 15.9311 1262 140.443 1184.01 445.187
78 0 79.2162 15.9563 1264 145.176 1183 445.117
79 1 46.2006 10.2163 472 141.93 1183.72 470.373
80 0 44.0541 9.21595 406 148.047 1182.58 469.268
81 0 44.015 10.1783 448 149.52 1181.24 467.824
82 0 48.0432 12.9259 621 144.68 1179.31 466.171
83 0 49.0342 10.9108 535 149.37 1178.54 464.587
84 0 51.0454 12.244 625 146.646 1177.21 464.384
85 0 51.1383 12.7889 654 147.038 1176.15 462.353
86 0 53.0912 14.8989 791 143.107 1174.48 459.894
87 0 56.0852 13.4973 757 143.211 1173.36 458.999
88 0 55.2603 12.7759 706 145.31 1172.41 456.518
89 0 57.1189 13.2881 759 145.746 1171.97 451.999
90 0 62.1302 13.005 808 143.328 1171.49 452.604
91 0 65.2101 14.9363 974 136.507 1171.58 450.589
92 0 64.164 12.4992 802 143.236 1171.21 448.207
93 0 71.4276 18.6063 1329 128.886 1171.54 440.852
94 0 73.8395 18.2016 1344 127.751 1171.57 440.896
95 0 73.1973 16.1072 1179 132.817 1172.22 438.341
96 0 72.2562 13.9919 1011 137.781 1173.38 437.032
97 0 72.2505 13.9376 1007 144.387 1174.41 436.917
98 0 78.1413 14.7425 1152 137.734 1176.74 432.768
99 0 82.2925 14.7036 1210 138.708 1179.38 435.888
100 0 90.7511 15.8125 1435 128.656 1180.06 438.614
101 0 88.3367 18.7578 1657 119.9 1181.88 431.684
102 1 51.0099 12.7426 650 117.425 1183.76 453.086
103 0 45.4689 11.1285 506 123.059 1183.95 448.54
104 0 49.6301 14.5476 722 118.548 1183.82 451.078
105 0 54.3332 16.4356 893 112.735 1187.38 457.994
106 0 54.3315 15.8656 862 120.951 1187.23 454.502
107 0 56.2425 17.0334 958 115.985 1186.78 454.511
108 0 53.4794 11.5372 617 124.29 1186.79 456.543
109 0 57.3468 11.4217 655 128.194 1186.5 455.458
110 0 60.7855 16.4842 1002 123.647 1185.19 457.584
111 0 60.1852 15.0701 907 139.254 1184.56 459.154
112 0 63.257 14.4332 913 142.426 1183.38 458.407
113 0 63.1619 17.4947 1105 138.682 1182.28 460.632
114 0 66.1341 15.3022 1012 145.787 1180.96 457.676
115 0 66.1658 15.2042 1006 147.838 1179.76 453.438
116 0 71.1914 16.7576 1193 145.06 1178.55 451.921
117 0 70.2038 14.116 991 153.72 1176.96 452.634
118 0 73.3982 14.2102 1043 153.938 1175.36 451.978
119 0 75.3535 14.6111 1101 154.287 1173.91 451.011
120 0 75.3535 14.6908 1107 141.228 1172.91 451.067
121 1 44.0901 11.2497 496 154.242 1170.98 465.508
122 0 45.3601 11.8607 538 154.171 1169.29 460.877
123 0 45.3729 10.579 480 149.452 1168.44 462.988
124 0 50.1941 13.1888 662 144.989 1168.28 458.867
125 0 49.2829 14.2037 700 140.207 1167.95 457.006
126 0 54.1502 14.5706 789 139.365 1169 458.076
127 0 54.0704 12.9646 701 141.783 1169.58 456.656
128 0 53.1145 16.2103 861 132.985 1168.96 454.352
129 0 58.136 13.3136 774 137.492 1170.44 456.3
130 0 60.9645 16.0257 977 128.127 1171.6 454.887
131 0 59.3054 15.4623 917 129.109 1172.95 455.255
132 0 59.3382 15.9088 944 130.679 1174.76 453.755
133 0 60.1625 16.7214 1006 131.908 1177.38 450.969
134 0 60.1065 15.3561 923 136.587 1178.85 449.304
135 0 65.1686 16.1581 1053 137.191 1180 451.366
136 0 68.1275 18.2892 1246 132.415 1181.82 454.764
137 0 66.2108 13.6534 904 146.481 1181.79 452.613
138 0 68.161 12.6172 860 148.63 1183.23 451.915
139 0 71.1813 16.2543 1157 142.118 1182.83 449.231
140 0 73.4343 17.8255 1309 142.893 1182.42 452.96
141 0 72.2444 15.3784 1111 147.881 1181.88 450.796
142 0 76.1942 15.1455 1154 151.655 1182.25 452.156
143 0 78.3051 19.7177 1544 133.725 1180.91 445.738
144 0 82.3176 16.4849 1357 140.343 1180.17 449.888
145 0 86.2443 18.2969 1578 140.568 1179.39 448.667
146 0 87.3812 17.0632 1491 145.229 1177.57 446.276
147 0 88.2627 15.8164 1396 151.489 1177.04 447.545
148 1 46.0991 12.2562 565 151.91 1176.14 471.065
149 0 51.3878 14.2446 732 153.051 1175.14 468.94
150 0 50.0684 11.7439 588 157.803 1174.8 467.437
151 0 53.3256 14.7584 787 147.922 1173.05 457.579
152 0 52.3749 14.1862 743 149.957 1171.69 454.37
153 0 53.1727 16.2113 862 145.941 1169.87 453.364
154 0 53.1727 16.0797 855 150.223 1167.86 453.285
155 0 57.2752 14.5263 832 145.928 1167.81 448.625
156 0 61.2716 17.2184 1055 137.48 1167.67 449.523
157 0 63.1259 14.78 933 140.908 1166.86 447.214
158 0 63.1259 14.8434 937 145.684 1165.85 447.287
159 0 68.2288 15.1256 1032 138.23 1165.62 444.906
160 0 71.204 18.3417 1306 131.738 1165.8 442.698
161 0 72.2454 16.3332 1180 130.665 1165.78 440.729
162 0 72.3146 14.7412 1066 133.513 1167.17 439.173
163 0 75.6772 14.5222 1099 132.399 1168.19 436.301
164 0 79.5271 16.4975 1312 129.188 1169.05 435.673
165 0 81.3988 17.6538 1437 123.512 1170.95 436.145
166 0 84.3368 16.7424 1412 130.186 1172.7 436.907
167 0 88.4799 25.1809 2228 113.778 1173.65 436.787
168 1 45.0515 13.1183 591 138.46 1176.41 452.178
169 0 43.158 9.98656 431 143.643 1178.04 454.404
170 0 47.0852 16.0772 757 127.366 1178.59 453.602
171 0 56.5788 15.3945 871 123.243 1179.36 455.308
172 0 53.2568 17.2936 921 123.849 1179.41 452.877
173 0 52.1137 15.044 784 131.325 1180.72 453.496
174 0 56.2997 12.3624 696 134.667 1180.43 458.51
175 0 59.344 16.1937 961 128.583 1180.04 455.518
176 0 59.2921 14.3864 853 130.333 1179.16 457.985
177 0 59.2898 12.2112 724 140.91 1179 456.041
178 0 61.2037 14.852 909 140.584 1177.88 455.579
179 0 64.289 15.3059 984 140.051 1177.49 454.114
180 0 67.2605 14.3472 965 142.027 1176.36 446.839
181 0 68.2012 17.3311 1182 135.639 1175.71 451.849
182 0 68.2932 15.5799 1064 142.588 1173.95 449.386
183 0 71.4287 15.904 1136 142.063 1172.81 449.883
184 0 76.5793 15.4742 1185 141.469 1171.42 449.498
185 0 75.3423 13.7108 1033 146.335 1169.8 439.199
186 0 80.3401 16.7289 1344 138.23 1168.37 445.5
187 0 81.5092 18.6114 1517 135.318 1167.56 444.97
188 0 82.387 14.9174 1229 144.358 1166.64 441.876
189 0 86.4503 14.0196 1212 143.784 1166.1 439.89
190 1 44.3201 10.4693 464 149.515 1165.98 458.06
191 0 44.1374 8.65479 382 146.683 1164.59 459.503
192 0 49.0786 11.5325 566 138.731 1164.44 457.484
193 0 50.1412 10.7097 537 140.136 1164.84 454.762
194 0 50.254 15.1033 759 134.104 1165.13 451.291
195 0 51.2801 12.656 649 136.042 1165.68 453.199
196 0 54.1977 13.9305 755 132.399 1166.38 454.401
197 0 55.2765 15.0697 833 134.017 1167.42 452.262
198 0 57.1478 15.0662 861 135.98 1169.4 451.436
199 0 57.2041 11.8698 679 139.454 1170.75 453.838
200 0 59.2312 11.5142 682 140.271 1172.27 451.67
201 0 65.0788 16.2726 1059 132.339 1174.16 452.54
202 0 62.1969 12.6373 786 138.81 1176.37 451.183
203 0 64.5067 14.1846 915 134.952 1178.18 453.111
204 0 67.3703 12.9879 875 138.943 1179.2 453.298
205 0 68.1905 13.169 898 140.265 1179.25 452.333
206 0 73.1926 15.6027 1142 133.858 1179.77 451.275
207 0 75.4025 15.4239 1163 132.208 1180.19 453.138
208 0 76.1868 16.3545 1246 134.807 1179.99 452.31
209 0 81.3335 18.7622 1526 130.036 1179.75 450.018
210 0 88.9962 24.8325 2210 120.704 1179.96 453.876
211 0 85.1664 14.865 1266 139.594 1179.32 452.402
212 0 85.1664 14.4423 1230 151.937 1179.31 451.928
213 1 46.0548 11.356 523 144.585 1177.34 469.371
214 0 45.1616 10.5178 475 145.842 1176.45 465.884
215 0 50.1523 15.3134 768 135.585 1174.98 469.96
216 0 50.0747 13.6596 684 140.624 1173.86 469.07
217 0 53.1091 14.6491 778 137.802 1172.03 466.815
218 0 54.0492 16.9845 918 133.347 1171.07 463.176
219 0 55.1109 14.371 792 140.394 1169.57 463.917
220 0 57.1367 16.7318 956 133.033 1168.73 464.393
221 0 62.2883 15.4122 960 132.632 1167.52 458.316
222 0 62.3112 15.2461 950 142.557 1166.57 458.336
223 0 65.2147 16.7294 1091 131.636 1165.91 460.339
224 0 66.2245 18.4826 1224 129.747 1165.75 456.903
225 0 71.2807 17.368 1238 127.589 1164.98 457.08
226 0 70.1096 15.8324 1110 132.887 1164.52 449.881
227 0 73.2 18.306 1340 126.441 1164.89 450.607
228 0 74.2393 17.3493 1288 129.877 1164.94 446.491
229 0 74.2393 17.2954 1284 142.449 1164.98 446.553
230 0 77.1333 14.1703 1093 135.138 1166.15 446.978
231 0 82.1863 15.2702 1255 130.386 1167.89 446.836
232 0 81.5933 13.4938 1101 140.402 1169.58 444.117
233 0 87.6334 16.957 1486 131.25 1171.44 444.689
234 0 88.3012 16.6702 1472 129.2 1172.9 444.022
235 1 44.0367 11.445 504 141.849 1174.73 462.579
236 0 46.0699 13.3059 613 133.018 1177.49 463.894
237 0 48.0381 12.1778 585 136.193 1177.89 463.137
238 0 53.1086 17.8879 950 125.189 1178.91 461.791
239 0 54.0926 20.6498 1117 121.144 1179.42 462.557
240 0 54.055 15.1142 817 133.033 1180.82 464.898
241 0 56.0579 14.931 837 136.728 1179.54 461.777
242 0 59.0426 14.1254 834 142.488 1179.68 463.472
243 0 59.0826 13.5404 800 139.68 1179.12 464.509
244 0 61.1323 14.9185 912 139.161 1178.56 463.107
245 0 64.1181 15.7678 1011 139.063 1178.32 460.772
246 0 64.1181 15.6898 1006 143.103 1178.33 460.793
247 0 69.2975 17.9804 1246 134.693 1175.69 459.65
248 0 72.0571 15.3906 1109 139.748 1174.61 461.063
249 0 72.2804 16.2838 1177 138.148 1173.02 457.75
250 1 36.0201 11.4381 412 141.658 1172.24 477.005
251 0 38.0754 10.9519 417 139.233 1170.97 476.691
252 0 38.0446 10.5665 402 143.226 1170.47 474.968
253 0 41.03 13.0149 534 136.502 1169.18 473.32
254 0 43.0316 14.7566 635 132.011 1167.84 472.737
255 0 43.0316 13.0602 562 145.648 1164.81 471.454
256 0 44.0576 14.1406 623 133.539 1165.95 468.714
257 0 47.1461 17.3503 818 128.985 1165.58 467.472
258 0 49.2194 13.7751 678 132.569 1165.22 466.404
259 0 49.0265 14.4412 708 131.869 1164.15 466.106
260 0 53.128 16.3379 868 126.646 1164.15 464.569
261 0 52.0366 13.5097 703 133.114 1164.4 461.558
262 0 52.1627 14.8382 774 129.357 1164.26 458.805
263 0 54.0559 15.0215 812 131.649 1164.98 456.805
264 0 57.0604 15.5624 888 128.653 1166.37 454.64
265 0 57.0703 13.9127 794 133.227 1168.01 455.977
266 0 61.0958 16.2532 993 127.184 1170.19 455.597
267 0 60.1092 13.1927 793 132.368 1172.18 454.757
268 0 64.3328 14.8447 955 127.606 1173.57 454.588
269 0 67.3993 17.7747 1198 120.553 1175.8 456.619
270 0 66.1132 14.0517 929 132.062 1176.73 455.757
271 0 67.0849 14.4593 970 132.659 1178.1 453.293
272 0 73.5915 18.6299 1371 121.739 1178.9 457.167
273 0 77.0459 17.0548 1314 123.598 1178.45 458.569
274 0 76.0952 20.1589 1534 126.417 1179.17 451.402
275 0 78.31 17.4946 1370 129.28 1178.13 452.16
276 0 78.1347 14.2062 1110 139.295 1178.57 453.969
277 0 82.4076 18.6633 1538 132.2 1177.31 454.7
278 0 88.2968 19.106 1687 132.469 1175.53 454.203
279 0 87.462 18.2479 1596 136.209 1174.36 454.288
280 0 89.4021 17.0018 1520 139.895 1173.91 452.104
281 1 49.3609 13.8369 683 143.171 1173.53 472.561
282 0 49.1015 13.3805 657 145.444 1172.96 472.814
283 0 53.1702 14.6699 780 144.024 1171.5 471.436
284 0 52.0972 13.7243 715 145.105 1170.09 469.754
285 0 57.0894 17.0084 971 143.272 1168.32 466.841
286 0 56.163 16.6836 937 147.869 1167.11 466.073
287 0 56.2163 16.0452 902 149.922 1165.8 464.773
288 0 58.2638 13.9881 815 154.121 1165.05 463.609
289 0 66.4775 19.5705 1301 136.304 1163.85 463.745
290 0 66.1369 17.4789 1156 143.144 1162.94 459.83
291 0 68.2898 20.208 1380 135.25 1162.45 458.065
292 0 70.5908 21.3059 1504 132.98 1161.79 454.332
293 0 70.5908 21.1926 1496 150.39 1160.78 454.374
294 0 73.4048 17.0833 1254 141.925 1162.28 450.74
295 0 73.3037 15.5927 1143 147.245 1162.39 449.818
296 0 77.2826 17.3131 1338 141.25 1163.1 448.888
297 0 81.4516 16.8321 1371 142.392 1164.52 447.383
298 0 81.371 17.8933 1456 140.26 1165.77 446.444
299 0 86.5381 18.2116 1576 139.233 1166.7 445.726
300 0 88.3429 17.0699 1508 143.371 1169.38 444.544
301 0 92.3774 15.9022 1469 146.736 1171.04 444.489
302 1 47.1242 12.1381 572 149.767 1173.56 465.327
303 0 52.1095 14.3352 747 149.043 1175.05 463.814
304 0 54.2894 15.9147 864 145.949 1176.58 463.372
305 0 54.1182 17.4248 943 142.406 1176.81 465.624
306 0 54.097 17.1729 929 148.462 1177.19 462.151
307 0 54.2475 16.1851 878 150.99 1177.92 463.454
308 0 58.2859 16.9166 986 147.732 1177.32 463.603
309 0 59.2856 18.1326 1075 145.101 1177.4 463.996
310 0 57.2696 15.1389 867 155.826 1176.43 462.371
311 0 62.1383 16.4794 1024 151.986 1175.68 462.028
312 0 67.4483 16.1754 1091 152.108 1174.92 464.067
313 0 68.1851 18.2445 1244 149.679 1173.84 462.189
314 0 68.4277 17.2299 1179 155.102 1172.26 460.063
315 0 71.2968 15.9755 1139 158.405 1171.88 459.66
316 0 74.2302 18.6178 1382 151.26 1170.7 461.08
317 0 75.4045 16.3386 1232 158.968 1168.74 458.251
318 0 80.3152 17.6554 1418 154.389 1167.56 457.157
319 0 81.3461 17.9726 1462 151.953 1166.52 452.129
320 0 84.434 18.1799 1535 153.861 1165.62 451.898
321 0 86.2457 17.9255 1546 154.904 1164.26 450.456
322 0 88.3698 15.4804 1368 160.692 1163.64 448.901
323 1 50.1137 14.2875 716 156.346 1164.04 467.493
324 0 50.3977 14.1078 711 155.854 1163.27 465.886
325 0 52.1084 15.4869 807 149.535 1162.99 464.535
326 0 53.2461 14.2921 761 154.66 1163.23 458.016
327 0 55.2623 15.3088 846 151.975 1162.5 455.625
328 0 55.2814 18.9576 1048 142.12 1162.94 457.263
329 0 56.1774 14.9704 841 151.201 1163.2 455.019
330 0 60.1688 15.6726 943 149.199 1164.19 451.911
331 0 62.3233 14.7136 917 148.84 1166.09 454.131
332 0 64.1421 15.8242 1015 150.63 1167.72 453.558
333 0 66.2339 17.257 1143 152.11 1168.64 451.041
334 0 68.2505 17.4358 1190 152.353 1170.44 451.35
335 0 73.4117 16.9592 1245 152.456 1172.62 452.761
336 0 70.2353 15.0494 1057 164.079 1174.48 451.717
337 0 77.316 15.857 1226 158.401 1174.89 450.29
338 0 76.294 16.7641 1279 159.538 1176.23 449.744
339 0 81.3973 17.6542 1437 157.097 1176.46 450.634
340 0 83.2859 18.4305 1535 156.676 1177.19 447.3
341 0 85.239 16.6121 1416 163.052 1176.82 446.888
342 0 91.2498 18.2137 1662 157.4 1176.17 447.179
343 1 47.1179 13.116 618 165.126 1176.43 468.799
344 0 51.1265 13.672 699 166.765 1176.45 466.132
345 0 48.078 9.85899 474 176 1175.19 468.072
346 0 55.2045 11.9555 660 168.72 1174.25 467.897
347 0 53.0353 12.6708 672 171.592 1173.22 464.701
348 0 54.0311 14.8618 803 166.889 1172.31 463.721
349 0 58.354 14.2921 834 158.548 1171.89 465.866
350 0 59.2851 14.0507 833 158.007 1169.92 465.242
351 0 65.3443 15.074 985 149.6 1168.51 464.615
352 0 64.2468 15.5961 1002 151.933 1166.38 460.195
353 0 67.2033 16.3682 1100 147.319 1165.28 458.153
354 0 68.247 13.583 927 158.277 1164.72 457.594
355 0 73.1915 18.5404 1357 140.669 1164.1 457.491
356 0 74.3539 16.0852 1196 146.746 1163.37 453.964
357 0 75.2563 15.1748 1142 148.271 1162.68 452.163
358 0 78.3099 19.2696 1509 140.844 1162.02 449.013
359 0 81.5615 15.6079 1273 145.458 1161.74 448.897
360 0 83.7444 15.7861 1322 144.551 1161.56 447.88
361 0 87.3693 17.4661 1526 143.748 1161.56 445.516
362 0 89.524 16.3867 1467 145.491 1161.96 442.495
363 0 92.8593 17.0473 1583 143.39 1164.04 444.468
364 0 99.9842 25.374 2537 124.493 1164.86 448.321
365 1 51.4577 9.28917 478 145.215 1167.01 462.996
366 0 54.4112 12.9018 702 141.061 1168.25 460.993
367 0 54.302 11.5649 628 146.567 1171.16 460.635
368 0 56.4166 10.7415 606 149.906 1172.34 460.078
369 0 61.5791 12.7803 787 142.291 1174.01 461.639
370 0 60.4542 15.8467 958 139.282 1175.02 458.842
371 0 63.7105 16.8575 1074 137.492 1176.37 459.457
372 0 66.352 15.1766 1007 140.622 1175.94 458.949
373 0 68.6818 13.7445 944 147.111 1176.65 460.347
374 0 68.5403 15.2027 1042 146.702 1176.61 456.67
375 0 72.6134 17.3246 1258 142.021 1175.15 458.891
376 0 73.6044 13.6269 1003 153.653 1174.76 456.418
377 0 77.5331 15.7481 1221 147.942 1174.16 456.743
378 0 78.5927 13.9453 1096 153.192 1173.92 455.898
379 0 79.6954 12.1463 968 157.81 1172.89 456.441
380 0 84.4962 14.6042 1234 151.647 1171.63 455.519
381 0 86.8976 13.1304 1141 155.5 1170.96 452.833
382 0 90.8032 14.4048 1308 152.531 1170.13 453.23
383 1 50.4019 11.8448 597 148.799 1168.45 472.888
384 0 50.3362 9.59549 483 150.271 1167.2 474.373
385 0 52.3278 11.7528 615 148.42 1166.87 470.8
386 0 54.1702 12.2761 665 144.517 1166.24 468.949
387 0 56.1594 12.696 713 145.766 1165.55 467.087
388 0 59.3542 13.4279 797 140.521 1165.34 463.336
389 0 62.4871 16.3394 1021 132.21 1164.43 462.396
390 0 62.489 15.6508 978 135.676 1163.56 460.56
391 0 64.4353 16.4972 1063 132.49 1162.77 456.643
392 0 65.6557 15.9468 1047 135.58 1161.98 452.986
393 0 66.4161 13.9575 927 139.137 1161.85 453.969
394 0 67.3835 14.9295 1006 135.566 1162.34 450.243
395 0 70.8814 13.4873 956 136.413 1163.6 451.987
396 0 73.6249 14.3158 1054 132.369 1164.29 452.648
397 0 76.6402 14.7703 1132 131.168 1165.72 450.431
398 0 76.7272 14.3104 1098 132.913 1166.73 446.281
399 0 79.628 12.6589 1008 134.897 1167.96 445.617
400 0 80.6519 13.6389 1100 135.393 1169.64 446
401 0 86.084 15.2409 1312 132.62 1171.6 445.326
402 0 85.4879 13.8148 1181 137.569 1173.18 441.059
403 0 89.7483 15.1201 1357 134.689 1174.52 441.721
404 1 50.175 11.0015 552 138.411 1177.01 465.234
405 0 51.1712 10.7873 552 134.73 1178.99 465.313
406 0 51.2379 10.9294 560 138.666 1177.85 464.773
407 0 53.3295 11.0821 591 136.509 1178.75 463.679
408 0 54.1971 15.1669 822 132.37 1177.76 459.726
409 0 58.3897 15.3109 894 131.736 1176.76 460.034
410 0 60.663 14.9514 907 134.488 1174.41 459.4
411 0 61.6685 14.4158 889 140.031 1173.6 458.099
412 0 62.2161 15.1569 943 138.398 1174.67 457.99
413 0 62.1462 12.3901 770 144.66 1173.15 456.166
414 0 68.2903 15.2584 1042 135.559 1172.07 458.666
415 0 70.2782 17.8149 1252 130.147 1171.93 459.183
416 0 72.3542 15.7696 1141 132.283 1170.83 458.345
417 0 72.1503 14.2896 1031 137.047 1168.68 454.576
418 0 72.435 17.4363 1263 129.39 1167.34 454.74
419 0 79.6399 18.5711 1479 126.713 1165.87 450.285
420 0 79.3929 14.7494 1171 133.171 1164.75 448.679
421 0 85.1128 16.4253 1398 126.795 1164.11 447.256
422 0 83.6228 13.4533 1125 131.361 1163.49 443.84
423 0 86.358 15.7137 1357 131.203 1162.4 439.103
424 0 93.1457 22.191 2067 117.942 1162.39 440.418
425 0 92.5442 21.7734 2015 117.384 1161.12 438.319
426 0 93.7982 16.9726 1592 127.129 1160.75 430.005
427 0 96.7111 16.0064 1548 131.716 1161.35 428.477
428 0 101.273 16.2235 1643 130.03 1161.67 428.914
429 1 51.7078 13.2862 687 131.118 1162.65 451.063
430 0 53.8221 14.2321 766 127.568 1164.24 451.778
431 0 55.8243 12.4498 695 133.153 1164.86 448.858
432 0 56.534 14.3277 810 125.214 1166.71 451.044
433 0 56.3936 14.3101 807 130.042 1168.7 446.989
434 0 61.5875 14.0775 867 125.843 1171.21 447.631
435 0 63.3708 14.8649 942 128.456 1173.67 450.937
436 0 64.353 12.2916 791 131.067 1174.58 446.545
437 0 67.3375 14.9842 1009 128.632 1175.91 447.604
438 0 69.639 16.3845 1141 126.526 1176.44 447.442
439 0 73.7069 18.4379 1359 127.77 1177.16 447.417
440 0 72.2442 16.1951 1170 132.356 1177.62 449.942
441 0 77.3729 16.5174 1278 132.988 1177.35 448.773
442 0 77.7499 16.836 1309 133.494 1176.69 447.219
443 0 79.6453 16.8874 1345 134.9 1175.76 445.94
444 0 83.5822 16.1996 1354 137.366 1175.22 446.6
445 0 84.5452 16.6065 1404 138.744 1174.33 444.543
446 0 89.5029 17.1726 1537 137.533 1172.83 443.629
447 0 89.4556 17.0699 1527 138.34 1172.19 443.93
448 0 91.4611 17.5594 1606 138.159 1170.9 442.5
449 0 95.6081 15.961 1526 140.712 1169.93 445.1
450 0 96.3404 16.4728 1587 138.755 1168.98 445.892
451 0 100.823 15.2644 1539 141.301 1167.39 440.677
452 0 105.597 18.0309 1904 134.31 1166.38 439.7
453 1 54.3816 13.2582 721 141.039 1166.16 462.742
454 0 57.4225 14.5936 838 135.999 1163.97 459.505
455 0 57.5461 12.0425 693 139.978 1162.73 459.851
456 0 59.3514 14.9112 885 134.151 1163.08 454.512
457 0 61.324 14.1869 870 137.943 1162.89 452.533
458 0 65.4792 15.6386 1024 131.671 1161.92 453.115
459 0 65.444 15.4942 1014 131.544 1161.77 449.218
460 0 68.4188 16.2675 1113 130.486 1162.4 446.907
461 0 67.4306 14.2369 960 134.017 1162 443.873
462 0 72.7573 15.7922 1149 131.581 1163.02 444.767
463 0 75.4714 19.2788 1455 124.99 1163.38 438.422
464 0 75.5399 15.8459 1197 132.954 1164.54 438.962
465 0 80.4867 16.3878 1319 131.068 1165.9 439.487
466 0 81.638 16.3282 1333 127.493 1167.9 439.728
467 0 85.6151 21.2229 1817 122.788 1169.92 435.994
468 0 84.5638 13.0079 1100 138.355 1171.42 439.657
469 0 91.2664 17.6845 1614 128.569 1174.42 440.082
470 1 50.2982 12.744 641 130.195 1175.73 459.802
471 0 50.6569 11.4101 578 134.953 1176.37 458.874
472 0 52.2547 15.3288 801 129.755 1176.96 455.175
473 0 53.5648 11.7241 628 141.65 1176.76 456.196
474 0 56.5039 14.53 821 137.773 1176.46 454.952
475 0 56.443 14.2622 805 140.235 1175.96 455.487
476 0 60.4748 17.3295 1048 134.023 1175.8 456.511
477 0 62.7013 17.7349 1112 134.975 1174.97 455.513
478 0 62.4575 15.2584 953 143.32 1173.92 451.742
479 0 66.4777 15.87 1055 141.082 1173.45 452.833
480 0 66.5078 15.7876 1050 138.803 1173.47 452.774
481 0 69.6584 14.3845 1002 145.858 1171.4 454.932
482 0 72.5988 15.0691 1094 144.977 1169.39 450.887
483 0 74.728 15.1215 1130 145.035 1168.06 452.125
484 1 40.3137 13.2213 533 145.308 1166.98 466.28
485 0 40.3137 13.3453 538 139.55 1164.99 466.351
486 0 40.3137 13.4942 544 138.688 1163.01 466.312
487 0 46.7902 11.9897 561 140.56 1164.55 466.077
488 0 47.6987 15.7237 750 132.177 1163.85 464.349
489 0 49.674 13.7094 681 138.681 1163.11 459.1
490 0 50.0872 13.3168 667 138.474 1164.34 458.715
491 0 52.1824 13.3378 696 138.523 1164.03 455.815
492 0 55.3544 16.8008 930 131.31 1164.14 458.341
493 0 55.2377 13.5958 751 139.736 1164.08 457.993
494 0 57.175 17.8225 1019 130.858 1164.17 457.251
495 0 59.3228 13.3338 791 141.113 1164.88 454.893
496 0 61.2773 15.6828 961 132.152 1166.2 455.924
497 0 62.354 13.8082 861 135.091 1167.39 454.25
498 0 65.2671 16.8538 1100 128.895 1168.31 451.443
499 0 67.5277 16.571 1119 130.693 1169.48 450.903
500 0 67.5277 16.6302 1123 144.759 1171.48 450.924
501 0 71.6886 16.0555 1151 133.566 1172.49 448.331
502 0 79.8712 16.5141 1319 129.425 1174.31 451.175
503 0 74.6097 14.2207 1061 137.13 1176.03 447.105
504 1 37.3465 9.61268 359 137.195 1177.92 468.162
505 0 42.3733 12.8147 543 130.096 1178.17 468.494
506 0 42.3845 11.5844 491 134.947 1177.64 468.517
507 0 44.2628 16.1309 714 126.269 1176.87 468.146
508 0 48.3738 16.8893 817 124.731 1177.05 470.676
509 0 45.4947 13.3202 606 137.894 1177.02 471.472
510 0 46.5559 16.9044 787 131.161 1176.35 471.224
511 0 47.6377 12.1122 577 141.893 1175.89 471.295
512 0 49.621 13.2807 659 140.853 1174.11 469.941
513 0 49.2127 13.7566 677 141.43 1173.84 472.95
514 0 51.3174 14.3421 736 139.845 1173.12 471.173
515 0 50.2915 13.1235 660 144.824 1171.75 470.612
516 0 55.2164 15.1766 838 136.936 1170.14 470.813
517 0 56.1825 14.3817 808 139.14 1168.56 469.327
518 0 56.359 13.7156 773 139.453 1167.64 468.532
519 0 57.4093 15.4504 887 134.685 1166.63 466.071
520 0 58.3053 14.6813 856 136.321 1166.18 466.778
521 0 58.3053 14.647 854 144.495 1166.16 466.703
522 0 61.4399 15.4134 947 131.828 1163.33 461.018
523 0 64.4449 16.4171 1058 130.906 1162.81 460.207
524 0 65.5328 15.5647 1020 128.592 1162.15 460.816
525 0 72.2605 19.1529 1384 120.208 1162.19 458.913
526 0 69.3782 17.1956 1193 126.116 1161.73 456.732
527 0 71.4811 18.5783 1328 125.12 1162.73 456.136
528 0 72.6328 16.1773 1175 128.525 1163.53 454.106
529 0 76.6646 19.7614 1515 121.97 1164.02 453.691
530 0 78.6126 15.341 1206 133.39 1165.12 449.002
531 0 83.6477 18.1236 1516 123.956 1167.12 450.861
532 1 42.2669 14.3848 608 126.873 1169.25 468.643
533 0 46.1193 12.7495 588 129.905 1171.89 468.823
534 0 46.3571 16.1788 750 127.256 1173.29 466.419
535 0 45.1898 12.9233 584 134.057 1174.43 466.899
536 0 49.2287 16.9007 832 128.418 1175.53 464.923
537 0 49.1755 16.675 820 127.516 1177.33 467.199
538 0 50.4662 13.6131 687 136.434 1177.4 466.913
539 0 51.2387 17.2916 886 135.649 1177.77 464.173
540 0 54.1914 16.4602 892 133.675 1178.21 465.797
541 0 55.1826 15.4759 854 138.302 1176.84 465.585
542 1 116.479 19.5056 2272 132.92 1176.06 441.199
543 1 58.3726 15.8807 927 143.584 1175.92 465.405
544 0 62.8447 16.4533 1034 138.489 1175.22 467.441
545 0 61.4411 15.2666 938 144.268 1173.72 463.986
546 0 64.5503 17.041 1100 138.276 1173.08 464.324
547 0 65.6426 14.9903 984 142.222 1172.02 464.46
548 0 69.4688 17.6338 1225 136.169 1170.79 462.068
549 0 69.5708 12.994 904 144.853 1169.75 461.787
550 1 37.6647 10.8855 410 145.066 1168.75 475.602
551 0 39.2271 12.7208 499 139.89 1167.14 475.499
552 0 40.3093 13.8678 559 137.884 1166.11 473.716
553 0 41.2561 12.3618 510 138.99 1165.16 473.659
554 0 44.1694 15.6217 690 132.309 1164.62 469.229
555 0 43.2143 15.2264 658 135.286 1164.22 462.274
556 0 46.3037 15.4631 716 132.353 1163.78 460.475
557 0 46.2374 14.1228 653 137.821 1162.67 457.008
558 0 50.6344 20.0259 1014 122.131 1162.38 459.64
559 0 53.3621 16.3037 870 125.741 1162.4 455.787
560 0 51.4263 17.5591 903 128.392 1162.23 453.842
561 0 53.2649 14.4936 772 132.28 1163.22 451.953
562 0 54.4711 16.7428 912 128.76 1164.32 450.405
563 0 58.4562 15.8238 925 127.988 1165 449.278
564 0 60.5405 15.8572 960 127.942 1165.38 442.011
565 0 63.2528 13.8808 878 132.591 1167.84 446.041
566 0 64.3417 16.0705 1034 129.143 1169.6 445.442
567 0 64.5335 12.7066 820 136.788 1171.79 445.485
568 0 67.6443 15.3006 1035 134.268 1173.19 443.59
569 0 70.8346 16.2068 1148 132.11 1174.72 444.745
570 0 71.5135 13.6198 974 139.998 1175.85 447.521
571 0 73.6545 16.8354 1240 136.611 1176.12 448.314
572 1 44.27 8.78699 389 145.892 1176.83 464.928
573 0 46.1708 10.1796 470 143.132 1177.12 466.762
574 0 48.5602 9.3904 456 141.822 1176.7 471.647
575 0 49.3558 9.2593 457 147.201 1176.74 470.641
576 0 49.3929 11.1352 550 143.936 1176.89 474.604
577 0 49.2297 13.9347 686 143.59 1176.55 471.066
578 0 50.0892 11.4795 575 146.875 1176.14 474.718
579 0 53.1949 13.2532 705 144.153 1175.05 473.359
580 0 55.6613 14.6242 814 140.875 1173.97 472.359
581 0 57.229 13.8741 794 142.375 1172.93 473.304
582 0 59.3168 13.0992 777 146.618 1171.26 470.812
583 0 60.4427 12.5243 757 148.629 1169.76 469.786
584 0 63.2274 14.1869 897 146.222 1168.46 467.171
585 0 66.6933 13.6595 911 145.873 1167.15 467.525
586 0 67.2919 13.865 933 146.747 1166.24 466.832
587 0 69.4783 13.2127 918 148.886 1165.33 464.645
588 0 73.3028 13.9149 1020 146.663 1163.98 463.51
589 0 75.518 14.5528 1099 146.429 1163.56 460.905
590 0 78.1058 15.6454 1222 144.301 1162.49 459.501
591 0 82.4415 15.0046 1237 145.264 1161.82 455.736
592 0 83.2173 14.384 1197 146.35 1162.27 456.063
593 1 45.1904 10.8651 491 146.554 1162.6 473.073
594 0 45.0471 9.54556 430 148.744 1162.7 470.719
595 0 49.1099 11.4234 561 144.681 1162.93 469.699
596 0 53.3318 13.1066 699 137.996 1163.99 472.08
597 0 53.1127 13.7255 729 143.034 1164.76 470.433
598 0 53.1275 13.9099 739 142.85 1166.01 468.425
599 0 57.0976 15.4297 881 138.409 1167.12 467.911
600 0 57.2948 12.7935 733 146.757 1168.82 466.161
601 0 57.2226 13.0718 748 147.686 1170.9 464.929
602 0 61.3622 15.2211 934 141.545 1170.95 464.579
603 0 64.34 17.1278 1102 138.325 1171.81 463.05
604 0 66.1654 15.7938 1045 140.387 1172.61 465.999
605 0 67.1949 15.9685 1073 142.12 1172.2 462.41
606 0 67.2583 13.6043 915 148.353 1172.31 464.544
607 0 69.2482 13.5744 940 149.317 1172.07 463.957
608 0 72.4079 16.1446 1169 142.5 1171.3 461.936
609 0 72.5319 13.4424 975 149.932 1171.03 462.335
610 0 76.546 17.9239 1372 141.125 1170.68 462.244
611 0 79.4872 17.399 1383 142.704 1169.9 462.95
612 0 81.5231 14.9774 1221 147.871 1168.67 462.867
613 1 45.1026 8.42524 380 152.387 1168.03 483.774
614 0 43.1676 8.66391 374 156.679 1167.15 480.695
615 0 49.0395 9.50255 466 151.929 1164.81 480
616 0 48.2265 12.6279 609 148.952 1163.75 477.622
617 0 49.1311 11.4388 562 147.995 1162.67 477.452
618 0 51.3249 11.5344 592 149.188 1161.71 472.208
619 0 51.3031 12.8452 659 146.51 1160.42 472.065
620 0 55.4082 13.0847 725 144.04 1160.18 469.254
621 0 58.2114 16.1137 938 136.433 1160.07 465.451
622 0 58.249 14.2835 832 139.091 1159.62 463.07
623 0 59.0769 13.1185 775 142.123 1159.41 460.625
624 0 60.2169 16.1583 973 133.838 1158.88 457.747
625 0 64.4071 14.4394 930 134.127 1158.96 457.539
626 0 67.2763 16.7816 1129 128.841 1158.95 455.934
627 0 68.2113 15.7745 1076 129.345 1159.63 456.586
628 0 71.6258 19.4902 1396 121.685 1160.48 457.222
629 0 70.714 18.2991 1294 125.035 1161.52 452.778
630 0 74.3944 15.1221 1125 130.892 1163.02 450.375
631 0 78.7715 17.6841 1393 122.48 1164.33 449.911
632 0 81.3131 19.6893 1601 120.117 1165.13 450.644
633 0 83.3454 16.4136 1368 128.364 1167.55 445.816
634 0 84.6299 15.3846 1302 130.608 1169.11 446.968
635 1 39.2206 12.8249 503 133.765 1171.91 470.686
636 0 41.1427 13.6841 563 131.151 1172.92 470.845
637 0 38.1913 11.7042 447 139.219 1174.07 471.101
638 0 45.1376 14.91 673 133.533 1174.84 470.318
639 0 47.1865 11.4228 539 140.373 1174.77 471.087
640 0 49.1885 11.2018 551 141.978 1175.75 469.612
641 0 50.3386 15.8328 797 134.423 1174.15 467.785
642 0 54.2346 14.972 812 135.807 1173.89 470.438
643 0 54.3369 15.6984 853 136.209 1173.31 469.3
644 0 55.268 15.8862 878 135.059 1172.64 470.745
645 0 56.2923 15.4906 872 136.662 1171.45 467.602
646 0 59.4291 16.6753 991 133.945 1170.92 466.176
647 0 62.2959 15.4745 964 137.353 1170.02 465.695
648 0 61.3955 15.7503 967 138.179 1168.37 464.869
649 0 65.673 16.3233 1072 136.369 1167.3 463.185
650 0 67.5733 16.0122 1082 137.119 1165.5 462.152
651 0 70.7153 16.2624 1150 136.341 1164.4 460.32
652 0 73.8853 16.2278 1199 134.512 1163.87 459.676
653 1 35.1423 9.33349 328 140.631 1163.22 476.18
654 0 38.0937 13.1255 500 136.436 1163.04 471.688
655 0 39.3144 11.4208 449 136.802 1161.97 473.922
656 0 42.1419 12.885 543 134.801 1161.53 469.801
657 0 44.0881 12.9287 570 132.102 1161.17 467.854
658 0 47.3071 17.2279 815 122.103 1161.23 467.642
659 0 45.1295 16.9291 764 125.787 1161.8 465.745
660 0 45.1295 16.9291 764 134.164 1162.78 465.817
661 0 50.1481 14.6167 733 130.899 1163.26 463.666
662 0 51.1877 16.8986 865 125.501 1165.1 462.341
663 0 54.3338 15.6992 853 127.205 1167.13 460.224
664 0 54.3338 15.8097 859 142.52 1170.09 460.208
665 0 54.2391 12.5555 681 136.203 1170.65 461.322
666 0 58.3464 15.3908 898 130.384 1171.86 460.945
667 0 61.4941 15.2535 938 131.641 1173.45 458.415
668 0 62.5102 16.3013 1019 134.351 1175.53 459.326
669 0 63.428 14.1105 895 136.963 1175.94 458.688
670 0 64.2664 16.3849 1053 135.705 1176.94 456.954
671 0 66.5632 14.5876 971 139.031 1176.62 460.967
672 0 69.3883 15.4349 1071 138.339 1175.84 457.028
673 0 71.441 13.6056 972 143.99 1175.49 458.487
674 0 72.4689 15.3859 1115 141.242 1175.43 460.496
675 0 72.5094 14.5774 1057 145.537 1175.05 458.726
676 0 76.3762 14.6512 1119 145.469 1173.69 458.139
677 0 80.4724 14.3403 1154 145.63 1172.79 460.345
678 1 41.284 12.1355 501 147.198 1171.9 477.675
679 0 43.4007 12.3731 537 150.177 1170.61 474.756
680 0 44.2239 11.3965 504 152.518 1169.68 474.875
681 0 46.1725 11.3488 524 153.893 1167.72 472.561
682 0 48.1882 11.9531 576 152.111 1167.17 470.802
683 0 48.1463 13.729 661 148.637 1165.95 468.655
684 0 54.076 14.6461 792 142.299 1165.53 468.259
685 0 54.1187 13.8399 749 141.96 1164.18 467.312
686 0 54.1911 14.1167 765 142.336 1162.93 462.817
687 0 57.1015 14.9383 853 138.987 1162.79 462.311
688 0 59.2285 12.8148 759 140.692 1161.95 461.706
689 0 61.1 12.8969 788 141.291 1161.85 459.206
690 0 61.1 12.9624 792 149.023 1161.85 459.213
691 0 66.217 15.6908 1039 133.906 1161.79 452.629
692 0 67.4848 17.1594 1158 130.17 1161.14 451.461
693 0 68.2578 15.002 1024 135.688 1161.66 450.271
694 0 75.387 14.5251 1095 133.673 1162.86 449.439
695 0 76.3443 14.8276 1132 131.993 1164.39 446.273
696 0 82.9648 17.9474 1489 123.637 1166.09 449.768
697 0 82.5346 15.1936 1254 130.549 1166.37 443.315
698 1 45.097 14.1916 640 125.214 1169.42 466.767
699 0 46.1031 10.8669 501 130.092 1171.79 466.182
700 0 49.0685 11.433 561 131.668 1173.56 464.758
701 0 48.0835 13.227 636 130.385 1174.43 465.143
702 0 51.1769 13.6194 697 132.999 1175.36 462.34
703 0 51.1967 15.2158 779 129.126 1175.48 461.418
704 0 50.2328 13.1587 661 135.109 1176.13 462.292
705 0 53.1198 13.9119 739 135.932 1176.42 466.729
706 0 55.0705 14.9808 825 136.429 1176.07 464.961
707 0 57.1281 13.5135 772 137.812 1176.07 464.089
708 0 60.0987 15.6409 940 131.703 1176.06 465.579
709 0 60.1055 13.7092 824 141.479 1175.33 465.445
710 0 63.1937 15.8244 1000 137.048 1173.65 462.577
711 0 66.2148 18.9686 1256 132.272 1172.47 461.716
712 0 68.1198 17.572 1197 136.269 1171.95 463.971
713 0 69.2001 18.2948 1266 135.197 1170.83 462.244
714 0 74.1309 16.97 1258 137.327 1168.96 457.22
715 0 76.2523 17.2847 1318 134.521 1167.78 459.293
716 0 76.3731 14.7827 1129 141.051 1166.14 457.132
717 0 81.3983 17.0274 1386 135.367 1164.8 456.467
718 0 83.1981 15.2047 1265 138.704 1163.66 453.021
719 0 86.2473 16.673 1438 133.836 1163.16 450.372
720 0 88.168 17.2285 1519 132.781 1162.41 449.492
721 0 93.5134 18.8636 1764 134.654 1161.52 447.043
722 0 96.3041 19.5111 1879 131.636 1161.38 440.068
723 1 55.0653 13.2207 728 139.802 1162.07 466.271
724 0 60.1614 12.6493 761 139.237 1163.09 462.832
725 0 57.0536 10.8845 621 142.75 1162.95 463.572
726 0 58.0369 13.9566 810 143.552 1163.46 457.915
727 0 59.1967 14.9333 884 136.095 1164.62 459.026
728 0 64.1126 17.5628 1126 135.807 1166.37 456.241
729 0 63.225 14.2823 903 137.161 1167.27 455.104
730 0 67.135 15.9678 1072 136.464 1169.43 455.985
731 0 71.2131 18.4376 1313 128.78 1171.52 455.358
732 0 71.1677 16.0466 1142 138.49 1173.65 454.414
733 0 75.1948 17.8204 1340 133.302 1174.72 454.565
734 0 78.1073 15.5043 1211 140.947 1175.19 454.494
735 0 81.2388 18.4148 1496 135.289 1176.4 454.21
736 0 84.2588 16.3425 1377 141.131 1177.55 453.893
737 0 87.2883 17.9291 1565 138.604 1176.67 452.3
738 0 91.3049 18.6737 1705 135.699 1175.78 454.195
739 0 92.5451 18.8124 1741 137.617 1175.35 451.939
740 1 46.0625 15.4573 712 140.719 1176.51 475.711
741 0 53.3499 13.777 735 138.456 1175.5 477.823
742 0 50.0172 12.5357 627 148.048 1173.86 474.587
743 0 53.0666 14.6043 775 140.328 1172.37 477.503
744 0 56.0864 13.3009 746 144.106 1170.77 475.43
745 0 57.1005 14.4307 824 144.246 1169.13 473.318
746 0 60.1433 17.4749 1051 135.418 1167.18 474.578
747 0 63.0647 16.602 1047 137.415 1166.27 472.892
748 0 64.0207 17.0101 1089 136.25 1164.9 469.91
749 0 66.0498 16.3967 1083 138.853 1163.26 466.97
750 0 65.0313 13.6396 887 146.234 1162.11 466.807
751 0 72.158 17.3785 1254 133.757 1161.48 465.19
752 0 70.1617 16.8896 1185 137.592 1160.86 462.018
753 0 73.1238 15.3028 1119 139.82 1160.78 462.18
754 0 74.0742 16.281 1206 138.149 1160.39 457.563
755 0 75.0731 17.4896 1313 133.781 1160.08 456.834
756 0 79.1172 18.4916 1463 128.865 1159.71 454.458
757 0 82.1056 16.7711 1377 131.381 1160.33 454.948
758 0 86.2211 16.4461 1418 129.932 1160.71 456.42
759 0 85.0902 15.0546 1281 135.632 1161.24 449.025
760 0 92.4416 17.1676 1587 128.85 1162.29 450.202
761 1 51.2338 12.0038 615 136.698 1163.87 470.177
762 0 47.0502 10.3294 486 138.996 1164.49 470.053
763 0 50.0524 14.8644 744 128.784 1166.02 469.155
764 0 51.0643 14.5111 741 131.955 1168.48 467.331
765 0 52.0861 15.0328 783 134.052 1169.96 463.81
766 0 54.0656 12.8363 694 135.653 1171.07 466.317
767 0 54.1248 12.4712 675 139.527 1171.87 466.194
768 0 56.0741 14.463 811 134.893 1173.17 467.689
769 0 59.2033 15.185 899 134.418 1173.28 465.81
770 0 63.1501 17.9097 1131 128.775 1173.41 465.143
771 0 63.1472 14.2682 901 135.875 1173.12 468.014
772 0 63.1472 14.3316 905 136.222 1174.13 467.987
773 0 66.1397 12.1712 805 141.975 1172.68 466.913
774 0 70.0619 16.2142 1136 133.853 1172.02 467.504
775 0 74.1847 14.3291 1063 136.522 1170.41 468.522
776 0 74.094 15.0889 1118 138.95 1169.11 464.718
777 0 80.0861 18.9796 1520 130.417 1167.93 465.339
778 0 79.0745 14.2018 1123 141.03 1166.83 464.386
779 0 83.2187 15.1649 1262 139.022 1165.06 463.012
780 1 45.1394 12.694 573 137.948 1163.76 481.921
781 0 44.0212 10.4268 459 143.617 1162.41 481.153
782 0 57.2211 12.2682 702 133.437 1161.38 479.644
783 0 47.0839 14.0175 660 139.724 1160.24 473.467
784 0 47.0478 13.0081 612 140.959 1159.47 474.1
785 0 49.0371 15.3965 755 134.905 1159.22 473.383
786 0 50.1751 13.2137 663 137.849 1157.88 472.29
787 0 53.3419 14.4727 772 132.076 1157.47 471.96
788 0 54.3142 18.5403 1007 125.676 1157.3 468.204
789 0 57.1266 20.7784 1187 120.757 1157.08 464.793
790 0 59.0889 13.5897 803 132.072 1157.32 465.09
791 0 56.1234 13.4881 757 133.731 1158.05 461.433
792 0 62.2254 18.3205 1140 121.929 1158.73 457.852
793 0 63.2192 16.4665 1041 124.716 1159.68 458.936
794 0 66.1921 18.2197 1206 122.693 1160.76 458.667
795 0 67.1205 12.5297 841 131.979 1162.77 459.15
796 0 68.1942 17.7141 1208 124.497 1164.34 451.62
797 0 71.2864 16.609 1184 125.149 1166.49 450.686
798 0 72.1748 12.3173 889 132.214 1167.7 454.764
799 0 76.3517 14.3939 1099 131.772 1169.2 452.123
800 0 77.2584 13.0342 1007 134.023 1170.67 452.416
801 0 81.4576 15.5787 1269 128.757 1171.72 451.364
802 0 85.3391 18.5847 1586 124.198 1173.34 451.622
803 0 84.4512 14.7659 1247 133.346 1173.89 447.063
804 0 87.4525 14.9796 1310 137.184 1173.37 448.37
805 0 90.4218 15.4498 1397 135.709 1173.56 447.185
806 0 94.6163 15.3145 1449 135.267 1173.8 450.507
807 0 99.621 18.2993 1823 129.401 1173.49 449.499
808 1 52.2019 12.2601 640 139.806 1173.9 471.536
809 0 51.2386 13.3103 682 136.925 1172.95 473.487
810 0 52.2829 12.5471 656 137.982 1172.05 473.674
811 0 54.2625 12.7713 693 140.593 1171.9 469.335
812 0 58.4198 12.6498 739 139.773 1170.79 469.962
813 0 62.3461 17.3547 1082 129.003 1168.75 468.654
814 0 62.1788 12.9787 807 139.342 1168.44 467.656
815 0 65.2635 16.5636 1081 131.119 1166.67 467.367
816 0 67.3716 17.7226 1194 129.129 1166.03 463.456
817 0 70.345 16.0353 1128 130.971 1164.94 461.524
818 0 71.4792 16.5643 1184 130.907 1163.72 456.903
819 0 70.7047 12.7007 898 141.184 1163.51 454.252
820 0 78.3834 15.7304 1233 130.187 1163.27 455.44
821 0 79.4828 15.3996 1224 131.774 1162.21 451.947
822 0 81.4809 12.8742 1049 134.505 1162.74 451.095
823 1 45.4073 11.2757 512 130.662 1163.21 469.775
824 0 46.1815 10.3938 480 130.55 1163.49 468.429
825 0 46.2694 10.7198 496 130.817 1164.88 466.069
826 0 47.1433 12.4938 589 128.073 1165.11 464.334
827 0 51.0457 12.6945 648 129.133 1166.79 462.409
828 0 50.1067 13.7307 688 125.238 1167.96 461.36
829 0 51.286 14.0194 719 126.37 1168.29 461.114
830 0 53.2613 12.8799 686 132.327 1170.41 459.335
831 0 56.4294 12.653 714 128.09 1171.54 460.08
832 0 56.2671 14.2712 803 129.998 1173.06 457.527
833 0 60.3925 11.9551 722 129.143 1175.57 462.77
834 0 61.4479 15.1348 930 126.49 1176.4 455.758
835 0 62.4067 14.0209 875 129.288 1176.82 457.902
836 0 68.5123 17.1064 1172 123.195 1177.8 460.689
837 0 70.6109 16.6263 1174 126.219 1177.19 460.619
838 0 71.8772 14.7335 1059 131.335 1176.81 456.907
839 0 76.203 18.1751 1385 128.129 1176.4 455.982
840 0 76.7351 17.3715 1333 133.088 1176.03 453.661
841 1 43.6185 9.92698 433 142.37 1175.75 472.462
842 0 43.7187 9.72124 425 142.113 1174.53 473.115
843 0 42.5703 10.5942 451 134.989 1172.66 477.404
844 0 45.6411 11.5247 526 140.686 1172.6 470.66
845 0 46.4212 7.47503 347 148.308 1171 470.738
846 0 49.7456 13.75 684 135.86 1169.24 469.368
847 0 50.5101 13.3241 673 134.798 1167.06 468.522
848 0 53.2731 13.9282 742 136.962 1166.41 464.011
849 0 59.3523 14.7425 875 133.486 1165.8 464.497
850 0 57.7441 14.8933 860 133.452 1164.25 467.452
851 0 61.4619 14.9524 919 130.922 1163.04 466.923
852 0 60.5793 14.2953 866 132.543 1161.95 465.699
853 0 62.3124 13.5768 846 135.043 1161.73 464.651
854 0 66.6124 15.2975 1019 130.609 1160.67 459.685
855 0 66.8742 15.3422 1026 131.193 1160.03 458.017
856 0 72.7919 20.483 1491 117.344 1159.23 461.799
857 0 72.7213 16.6664 1212 130.116 1159.77 452.9
858 0 74.7847 15.2571 1141 129.973 1159.26 450.536
859 0 76.9501 15.8155 1217 130.542 1160.32 447.926
860 0 79.7891 14.789 1180 129.51 1161.3 445.681
861 0 80.9643 16.4517 1332 124.109 1161.72 446.426
862 0 84.4342 17.1139 1445 126.832 1163.51 438.646
863 0 87.8902 17.6812 1554 124.239 1165.04 437.925
864 0 89.6403 21.564 1933 119.903 1166.05 443.005
865 0 91.5607 14.0672 1288 134.976 1167.8 437.62
866 0 94.8365 16.4177 1557 132.144 1168.62 438.984
867 0 98.7111 15.5808 1538 134.345 1170.78 439.959
868 0 102.665 16.1983 1663 132.592 1171.03 437.705
869 0 102.665 16.247 1668 150.157 1171.99 437.901
870 0 108.584 16.1718 1756 134.211 1171.68 434.846
871 1 57.2032 13.0063 744 132.351 1172.82 465.155
872 0 58.2046 12.3358 718 133.379 1173.1 467.196
873 0 57.3178 10.5203 603 139.312 1173.41 463.821
874 0 63.2452 14.1513 895 130.909 1174.21 465.699
875 0 66.6792 13.9774 932 130.79 1172.43 458.82
876 0 65.2447 12.4761 814 133.252 1173.15 468.113
877 0 68.3399 15.6863 1072 127.785 1171.12 466.257
878 0 71.2161 17.145 1221 125.33 1169.91 464.518
879 0 74.3733 16.6592 1239 126.346 1168.57 463.659
880 0 73.0851 13.0533 954 135.01 1167.26 456.429
881 0 78.0316 16.3908 1279 126.358 1166.02 460.121
882 0 81.055 13.1886 1069 132.653 1164.92 456.317
883 0 84.2842 14.9257 1258 129.288 1163.27 454.711
884 0 87.2091 15.7782 1376 125.924 1161.85 453.879
885 0 87.3296 14.451 1262 129.086 1161.56 447.448
886 0 92.1512 18.6541 1719 119.905 1160.79 448.381
887 1 48.111 9.85221 474 133.255 1160.6 466.338
888 0 48.2815 10.9359 528 128.672 1159.13 465.695
889 0 52.3867 12.5795 659 127.173 1158.79 462.238
890 0 54.3743 14.0324 763 122.009 1158.39 462.087
891 0 53.1584 12.0583 641 126.973 1160.37 461.055
892 0 54.2394 11.8917 645 128.552 1161.29 457.671
893 0 56.4176 11.0604 624 127.612 1162.07 458.559
894 0 61.1466 14.915 912 120.408 1163.4 458.64
895 0 60.2778 12.376 746 125.697 1164.8 457.886
896 0 65.1701 17.7535 1157 115.142 1166.55 455.826
897 0 61.2175 13.7542 842 127.135 1168.06 452.43
898 0 66.5065 16.6901 1110 124.613 1170.07 453.512
899 0 66.225 14.4809 959 128.235 1171.64 453.888
900 0 69.3451 15.1272 1049 128.532 1173.11 456.047
901 0 75.6887 17.1228 1296 127.692 1173.69 455.4
902 0 73.4771 15.3245 1126 138.023 1174.1 454.427
903 0 75.2477 14.1798 1067 141.902 1174.93 454.151
904 0 79.2288 17.5946 1394 135.396 1175.38 453.265
905 0 82.3422 18.1316 1493 135.356 1175.44 450.975
906 0 83.9072 16.0415 1346 141.137 1173.94 449.053
907 0 89.0046 19.5833 1743 137.331 1172.86 446.158
908 0 91.052 17.1001 1557 143.576 1171.87 446.82
909 0 94.251 16.8274 1586 145.091 1171.62 444.429
910 1 47.8678 8.69061 416 151.185 1170.83 468.668
911 0 48.7396 9.49947 463 153.175 1170.62 465.371
912 0 49.5619 11.9043 590 147.842 1169.38 465.7
913 0 52.8671 9.47659 501 151.647 1167.96 464.263
914 0 54.4432 13.8677 755 143.225 1167.01 457.387
915 0 57.4656 18.0456 1037 129.16 1165.5 465.167
916 0 54.697 12.6515 692 146.597 1164.63 463.588
917 0 57.7772 12.254 708 146.768 1163.63 460.723
918 0 61.855 13.4508 832 138.433 1163.41 459.767
919 0 60.671 12.642 767 142.515 1163.16 455.481
920 0 70.1598 15.6785 1100 132.94 1162.04 458.17
921 0 66.5035 14.6909 977 140.036 1162.53 454.551
922 0 65.6471 13.664 897 141.19 1161.94 455.027
923 0 67.7777 14.282 968 140.843 1161.55 452.782
924 0 69.9594 14.3941 1007 140.895 1162.15 448.501
925 0 72.74 16.5246 1202 133.844 1162.02 447.506
926 0 75.2987 17.2513 1299 128.858 1163.04 448.211
927 0 78.7343 18.772 1478 124.107 1164.36 448.202
928 0 79.6825 17.758 1415 124.703 1165.09 444.265
929 0 83.1193 15.5439 1292 128.204 1166.03 441.152
930 0 83.0362 13.464 1118 133.336 1168.86 443.09
931 0 86.1993 15.1393 1305 131.404 1170.85 439.301
932 0 89.1368 14.8424 1323 134.005 1171.95 438.623
933 0 91.7625 15.126 1388 134.089 1173.85 440.097
934 0 94.978 12.8556 1221 140.12 1174.9 437.214
935 1 48.765 11.5247 562 132.639 1175.26 462.972
936 0 47.611 8.80048 419 145.547 1175.86 462.85
937 0 51.6569 15.0996 780 133.972 1176.28 462.692
938 0 54.6982 13.7116 750 135.663 1176.85 465.105
939 0 55.3539 16.4397 910 131.284 1176.42 463.891
940 0 54.2603 13.7485 746 142.019 1177.36 466.271
941 0 56.301 14.3514 808 139.525 1176.93 467.824
942 0 56.3597 11.9412 673 143.428 1175.81 468.379
943 0 61.2425 13.4221 822 140.893 1174.65 464.425
944 0 61.2766 12.8434 787 141.069 1173.7 466.076
945 0 63.2647 13.8624 877 138.291 1173.42 465.846
946 0 66.2852 15.1316 1003 134.219 1171.56 464.349
947 0 68.3123 15.0339 1027 135.038 1169.92 461.898
948 0 70.2863 15.0385 1057 135.519 1168.98 459.467
949 0 72.3582 15.9208 1152 133.451 1167.07 456.957
950 0 74.4812 13.8827 1034 136.271 1165.7 458.36
951 0 75.5249 13.8497 1046 137.25 1164.66 455.29
952 0 76.7387 13.8522 1063 135.536 1164.25 450.073
953 0 80.4046 12.1262 975 135.236 1164.36 450.227
954 0 81.29 16.9517 1378 128.196 1163.29 447.374
955 0 83.6081 13.2643 1109 136.288 1162.93 446.78
956 1 43.087 11.2563 485 133.225 1163.35 465.604
957 0 43.2207 9.3011 402 136.418 1163.56 465.517
958 0 47.2619 11.1295 526 132.606 1163.67 463.717
959 0 46.386 11.5983 538 131.493 1164.42 462.859
960 0 49.2364 12.6735 624 127.441 1165.07 461.958
961 0 51.1885 14.1047 722 121.569 1166.02 458.911
962 0 51.2096 11.7165 600 126.672 1167.98 459.38
963 0 55.0912 12.3613 681 124.977 1170.75 462.953
964 0 54.3303 14.7432 801 121.336 1171.98 459.793
965 0 56.1234 14.0583 789 125.492 1173.62 459.85
966 0 61.2106 15.3732 941 123.458 1175.11 459.763
967 0 58.3181 15.3126 893 120.197 1176.66 459.569
968 0 59.3417 12.7061 754 131.292 1177.41 459.414
969 0 63.2433 17.0137 1076 122.121 1177.57 461.563
970 0 64.3048 14.6023 939 127.297 1177.85 461.502
971 0 69.5927 17.5593 1222 120.04 1178 463.121
972 0 68.2922 15.258 1042 126.743 1177.07 460.679
973 0 71.6713 14.9432 1071 128.129 1176.22 457.978
974 0 74.3856 14.0484 1045 131.347 1175.92 458.524
975 0 78.3919 14.0958 1105 131.243 1175.59 458.772
976 0 81.4696 15.38 1253 129.206 1173.69 456.935
977 1 39.0578 11.9566 467 133.047 1172.49 472.745
978 0 42.3236 12.2154 517 127.211 1170.39 475.466
979 0 43.1501 7.60137 328 137.735 1169.84 474.936
980 0 45.2308 12.4694 564 128.755 1167.55 473.699
981 0 48.239 11.1528 538 130.552 1166.05 473.178
982 0 50.2529 12.9545 651 126.724 1165.94 470.327
983 0 50.0365 14.1896 710 124.528 1165.67 468.601
984 0 51.1039 11.5451 590 129.722 1165 467.995
985 0 52.1605 16.5259 862 118.71 1164.21 466.839
986 0 55.0457 12.0445 663 126.27 1163.37 462.744
987 0 60.5085 14.593 883 117.557 1162.15 460.627
988 0 58.2087 15.118 880 119.099 1162.05 456.345
989 0 62.3845 14.8274 925 118.478 1161.62 456.067
990 0 69.5736 13.6402 949 117.244 1161.94 457.404
991 0 62.3579 15.4912 966 116.831 1161.89 451.217
992 0 64.4576 14.878 959 119.189 1162.44 450.076
993 0 67.2544 17.8278 1199 114.068 1163.58 446.637
994 0 68.2457 13.6712 933 121.835 1165.06 444.959
995 0 73.1733 17.0144 1245 112.394 1166.73 446.247
996 0 78.2638 14.2084 1112 116.589 1168.52 446.635
997 0 76.2558 15.7627 1202 115.666 1169.93 443.942
998 0 81.4411 14.7223 1199 117.064 1171.52 446.47
999 0 83.3801 15.9511 1330 119.769 1172.68 446.077
1000 1 46.0997 11.3233 522 124.898 1175.45 462.847
1001 0 44.0609 11.0075 485 125.695 1176.56 465.489
1002 0 44.0421 9.55904 421 128.494 1177.04 465.247
1003 0 47.0744 12.1935 574 127.014 1177.22 464.476
1004 0 47.0429 12.6905 597 132.975 1177.1 466.049
1005 0 47.0591 12.2612 577 132.593 1177.88 466.605
1006 0 55.2865 14.7233 814 125.941 1178.07 468.496
1007 0 51.0606 17.0973 873 126.155 1177.47 469.612
1008 0 53.4367 16.412 877 125.192 1177.53 471.937
1009 0 51.0588 15.4528 789 131.394 1176.59 470.411
1010 0 52.077 14.6706 764 132.627 1175.25 471.656
