time division length width area intensity CMx CMy
0 0 432.377 37.3609 16154 120.577 1264.66 266.338
1 0 446.688 36.2311 16184 121.471 1265.11 273.784
2 0 457.959 44.0956 20194 115.821 1265.96 262.454
3 0 473.921 45.5434 21584 114.395 1266.74 255.466
4 0 471.936 34.6573 16356 120.746 1267 227.679
5 1 103.37 28.8478 2982 104.331 1265.73 431.01
6 0 95.6559 32.6901 3127 104.93 1265.07 433.861
7 0 98.8482 21.8922 2164 112.129 1263.99 434.846
8 0 99.4401 28.3789 2822 109.87 1262.17 426.102
9 0 115.766 32.7903 3796 106.345 1261.66 419.717
10 0 103.354 15.5001 1602 123.406 1260.84 424.388
11 0 103.561 25.4728 2638 117.898 1259.93 422.861
12 0 108.29 19.1892 2078 131.862 1258.5 428.485
13 0 108.271 18.2135 1972 128.738 1258.05 428.278
14 1 53.1828 11.2818 600 150.238 1255.93 454.785
15 0 56.0658 12.7172 713 136.732 1255.1 458.021
16 0 59.1799 14.1433 837 135.602 1254.32 454.136
17 0 60.5865 14.3266 868 131.843 1255.37 453.794
18 0 60.4732 12.1211 733 141.847 1253.34 448.91
19 0 62.0759 16.9631 1053 125.858 1253.01 453.047
20 0 64.1374 16.9012 1084 126.089 1251.38 448.063
21 0 68.1104 15.5336 1058 132.381 1251.7 447.228
22 0 67.1868 13.3806 899 136.909 1250.89 443.451
23 0 70.1217 14.6174 1025 132.321 1250.61 444.998
24 0 71.1698 12.2102 869 137.444 1250.94 442.528
25 0 78.3637 21.3747 1675 117.903 1250.71 444.228
26 0 74.1051 15.3026 1134 130.163 1251.4 440.029
27 0 74.1593 11.3809 844 135.876 1251.6 438.268
28 0 82.1288 25.0826 2060 109.75 1250.97 442.353
29 0 84.2107 14.7725 1244 116.961 1253.7 443.411
30 0 87.1098 17.4837 1523 117.934 1255.43 433.003
31 0 92.6843 20.0034 1854 109.546 1257.6 434.297
32 0 104.186 36.5406 3807 97.1631 1256.99 436.607
33 0 93.256 14.7873 1379 109.28 1260.08 442.618
34 0 96.4286 20.3674 1964 105.082 1261.58 443.014
35 0 101.558 20.0279 2034 106.639 1262.52 435.954
36 1 66.6422 12.4546 830 103.875 1264.9 461.661
37 0 53.316 12.1352 647 106.09 1264.84 462.269
38 0 55.227 6.9169 382 112.958 1265.69 458.783
39 0 55.0676 12.4574 686 124.984 1265.81 455.806
40 0 54.0376 12.7874 691 125 1265.25 460.043
41 0 59.0884 17.2792 1021 118.227 1265.38 458.245
42 0 68.3319 14.1662 968 121.591 1264.85 458.31
43 0 59.0653 13.3412 788 130.591 1263.37 457.381
44 0 64.3664 13.1435 846 132.324 1262.01 458.098
45 0 60.084 13.3646 803 136.625 1260.95 455.626
46 0 63.1759 14.2301 899 132.982 1260.05 454.195
47 0 67.1912 13.6476 917 135.663 1258.6 455.795
48 0 66.153 14.6479 969 135.445 1257.55 455.362
49 0 66.056 14.079 930 132.237 1255.9 453.263
50 0 69.136 15.5491 1075 129.121 1253.05 452.133
51 0 71.2477 13.432 957 132.328 1252.34 451.533
52 0 70.1928 11.2975 793 136.696 1251.34 449.709
53 0 74.2097 16.8307 1249 125.85 1250.15 448.877
54 0 78.1971 15.7039 1228 127.476 1249.47 447.629
55 0 77.0799 11.8708 915 134.567 1249.49 443.903
56 0 81.2332 16.8773 1371 125.9 1248.24 440.084
57 0 82.3388 12.8129 1055 127.935 1248.7 441.429
58 0 83.237 11.6415 969 131.685 1248.75 440.248
59 0 84.1496 11.23 945 130.692 1248.58 440.02
60 1 52.2802 15.7421 823 113.117 1250.57 462.222
61 0 49.3631 15.5987 770 119.309 1249.38 457.906
62 0 45.106 13.4572 607 123.473 1247.85 455.577
63 0 51.0236 14.4247 736 118.323 1251.25 457.287
64 0 48.2613 11.6449 562 126.918 1253.48 454.338
65 0 50.0613 15.6009 781 120.978 1256.28 455.138
66 0 50.0683 13.4416 673 122.984 1257.42 454.171
67 0 54.0384 12.7872 691 122.977 1259.38 454.899
68 0 56.0581 13.0579 732 124.29 1260.48 456.568
69 0 57.1812 13.4135 767 121.292 1261.95 452.443
70 0 61.2401 16.4108 1005 114.869 1262.57 457.226
71 0 61.1577 13.1627 805 121.729 1263.7 453.252
72 0 63.1727 14.2625 901 123.719 1263.68 456.996
73 0 65.1278 16.4907 1074 117.698 1262.94 457.298
74 0 66.1569 15.0702 997 122.45 1262.85 454.857
75 0 71.2049 21.3328 1519 117.159 1261.92 453.7
76 0 71.1007 15.8508 1127 128.207 1261.01 451.726
77 0 74.1142 15.1658 1124 132.446 1260.58 452.81
78 0 78.291 18.444 1444 131.777 1260.09 450.283
79 0 80.1005 17.3407 1389 132.747 1259.17 452.006
80 0 80.2999 15.5417 1248 139.664 1258 448.578
81 1 41.0675 11.8098 485 144.313 1257.06 465.922
82 0 41.0413 10.7209 440 146.643 1255.22 466.766
83 0 46.1589 12.0454 556 140.448 1254.49 468.248
84 0 47.1295 12.7309 600 142.257 1252.7 464.63
85 0 49.0628 10.884 534 143.848 1251.75 466.281
86 0 48.207 13.9191 671 143.261 1249.95 460.39
87 0 57.6139 13.278 765 135.273 1249.14 462.835
88 0 54.1387 15.4788 838 134.089 1247.75 460.168
89 0 53.1817 13.3316 709 136.667 1247.52 457.849
90 0 55.0858 14.6862 809 133.843 1247.01 455.408
91 0 56.0769 20.4541 1147 120.378 1246.94 459.693
92 0 59.0915 14.3168 846 132.074 1246.69 453.518
93 0 60.1722 15.6551 942 130.236 1247.22 451.797
94 0 63.0991 14.4376 911 129.797 1247.52 451.052
95 0 64.1234 15.517 995 128.677 1247.95 447.808
96 0 68.2092 14.6021 996 127.5 1249.26 451.496
97 0 68.329 15.4839 1058 130.089 1250.52 449.523
98 0 70.1474 14.384 1009 132.268 1252.6 444.484
99 0 75.1191 18.4108 1383 125.482 1255.13 447.163
100 0 78.1526 15.4314 1206 126.686 1255.49 444.482
101 0 83.9585 28.2759 2374 103.997 1256.94 451.314
102 1 158.803 21.4983 3414 117.611 1258.9 409.103
103 0 162.529 12.0348 1956 126.236 1260.18 409.904
104 0 168.593 28.0853 4735 115.007 1259.73 397.278
105 0 176.75 24.6845 4363 114.284 1261.07 411.205
106 1 92.2598 20.4206 1884 120.616 1261.48 439.214
107 1 52.1626 13.6496 712 118.048 1260.39 464.393
108 0 57.6832 11.4591 661 118.743 1261.22 467.501
109 0 48.3137 9.85227 476 129.328 1262.1 464.082
110 0 52.387 17.008 891 119.78 1260.02 462.999
111 0 54.0737 12.9268 699 137.413 1260.73 468.425
112 0 52.2022 12.4707 651 144.598 1258.93 465.745
113 0 55.1949 12.4468 687 147.453 1257.53 465.116
114 0 55.0959 12.7777 704 149.077 1256.16 464.786
115 0 58.1463 16.2349 944 140.817 1255.01 463.404
116 0 63.2283 16.2427 1027 139.264 1254.31 464.386
117 0 63.1619 14.3283 905 147.627 1252.55 459.364
118 0 64.135 15.2959 981 145.74 1250.89 459.243
119 0 67.1808 14.781 993 145.928 1249.85 459.417
120 0 69.1655 15.4557 1069 144.559 1247.49 455.171
121 0 71.3522 16.7059 1192 142.102 1246.19 455.272
122 0 70.2876 14.896 1047 148.076 1245.16 450.49
123 0 73.319 16.3668 1200 140.568 1244.5 448.805
124 0 76.0502 14.1354 1075 142.533 1244.3 449.26
125 0 78.4851 17.5065 1374 129.879 1244.07 451.078
126 0 81.1591 15.7468 1278 137.334 1244.23 444.441
127 0 87.4554 15.4593 1352 132.871 1244.28 445.479
128 0 85.3611 14.9131 1273 133.722 1243.63 441.134
129 1 44.0914 9.5937 423 133.43 1246.08 465.322
130 0 51.1907 12.1506 622 126.805 1247.21 461.754
131 0 51.1867 13.8512 709 124.701 1248.4 459.045
132 0 54.3305 16.9334 920 119.886 1249.75 457.555
133 0 54.1144 16.0401 868 122.074 1252.04 456.127
134 0 54.1108 20.1993 1093 118.177 1252.93 461.501
135 0 58.1227 15.2952 889 127.445 1254.31 460.988
136 0 59.8657 17.6562 1057 123.798 1256.32 462.043
137 0 59.1244 15.2221 900 134.79 1256.41 456.172
138 0 61.2468 16.1968 992 132.759 1257.88 455.667
139 0 61.3061 11.6302 713 139.982 1257.48 458.649
140 0 64.1704 13.6823 878 144.92 1256.86 457.361
141 0 68.2945 14.6132 998 140.95 1256.35 455.183
142 0 68.3133 14.6238 999 150.364 1256.6 455.3
143 0 69.2491 14.1662 981 140.512 1255.67 453.014
144 0 72.2681 18.4867 1336 130.62 1255.23 457.74
145 0 75.3006 15.883 1196 140.864 1254.18 454.632
146 0 78.209 17.8112 1393 138.19 1252.54 454.864
147 0 79.3316 16.4751 1307 145.422 1252.23 452.606
148 0 81.2321 17.924 1456 142.275 1250.9 456.076
149 0 83.2883 18.2979 1524 148.846 1249.64 449.722
150 1 46.2125 13.4379 621 149.238 1248.27 467.185
151 0 45.2246 12.6922 574 153.246 1246.74 465.822
152 0 46.0981 11.8443 546 152.643 1245.67 467.148
153 0 50.1152 12.7307 638 147.188 1244.31 466.017
154 0 52.1079 14.6811 765 142.082 1243.27 464.699
155 0 55.2921 12.859 711 136.423 1244.29 463.968
156 0 54.1834 13.2144 716 139.768 1244.29 458.866
157 0 56.1609 13.4435 755 137.646 1243.47 458.072
158 0 58.1371 16.2375 944 133.301 1242.08 455.762
159 0 59.1028 13.4004 792 137.602 1242.36 456.001
160 0 60.1096 13.492 811 137.014 1242.31 454.804
161 0 63.0894 14.6776 926 129.037 1242.32 453.199
162 0 67.2117 20.4429 1374 119.209 1243.73 453.395
163 0 72.4898 20.4581 1483 117.512 1245.07 453.05
164 0 73.1302 16.6005 1214 124.829 1245.9 447.566
165 0 72.0732 15.0958 1088 122.837 1247.37 449.667
166 0 76.4107 14.566 1113 130.937 1249.21 448.904
167 0 72.1157 14.9343 1077 126.95 1250.75 444.349
168 0 80.1427 14.0624 1127 137.594 1252.39 446.28
169 0 79.0843 13.4287 1062 137.653 1253.79 447.444
170 0 83.5768 16.4998 1379 130.471 1254.16 443.115
171 0 89.1642 18.3482 1636 124.877 1255.04 445.833
172 0 92.236 19.1032 1762 124.837 1255.45 442.361
173 0 94.2324 17.5842 1657 129.009 1256.49 445.201
174 0 95.2438 13.4392 1280 135.484 1256.45 446.426
175 1 47.0276 12.7797 601 133.551 1256.89 465.351
176 0 51.0855 14.3485 733 129.812 1255.73 466.895
177 0 51.1252 16.4694 842 132.906 1255.35 465.542
178 0 54.0975 15.1578 820 133.688 1253.78 467.09
179 0 52.0349 11.819 615 142.504 1254.03 467.724
180 0 56.0729 13.8213 775 138.697 1252.99 466.185
181 0 58.1656 14.8197 862 136.578 1252.43 463.742
182 0 60.1158 14.6218 879 139.363 1250.57 463.477
183 0 64.2912 15.8031 1016 136.385 1249.43 460.662
184 0 63.0944 15.2311 961 139.326 1247.78 460.937
185 0 65.1213 15.2792 995 138.602 1246.83 457.83
186 0 67.2902 14.7867 995 137.525 1245.3 459.489
187 0 68.1276 13.5041 920 141.382 1244.68 458.823
188 0 69.1606 12.6517 875 143.091 1243.76 458.299
189 0 74.2255 15.0622 1118 138.226 1242.81 452.165
190 1 41.0468 12.4005 509 141.849 1242.78 467.591
191 0 45.9421 14.2571 655 130.391 1241.9 469.412
192 0 43.056 14.3999 620 133.897 1240.06 465.977
193 0 42.0653 11.0542 465 139.72 1240.7 463.819
194 0 44.0699 10.6876 471 135.981 1240.97 464.777
195 0 48.2086 11.8236 570 134.407 1241.21 462.037
196 0 48.2523 15.4397 745 122.2 1241.14 465.087
197 0 48.3026 16.1068 778 130.27 1241.56 458.257
198 0 50.111 14.9069 747 129.625 1244.02 457.292
199 0 53.2105 19.2067 1022 119.067 1245.34 460.278
200 0 54.2109 12.8572 697 127.552 1246.83 461.836
201 0 54.1576 15.5657 843 129.772 1248.18 456.996
202 0 59.2354 19.0933 1131 119.544 1250.42 458.905
203 0 56.0673 14.8572 833 127.724 1252.17 458.149
204 0 57.2047 15.0337 860 128.972 1253.47 459.419
205 0 60.131 13.4041 806 130.751 1253.57 460.275
206 0 67.7056 17.1773 1163 121.017 1255.96 459.561
207 0 64.1736 15.1776 974 127.011 1255.89 457.879
208 0 66.1316 14.8643 983 128.391 1255.76 458.682
209 0 66.1922 13.355 884 130.569 1255.55 459.698
210 0 71.2 17.7528 1264 128.1 1255.52 456.06
211 0 72.19 18.3682 1326 128.224 1254.66 454.689
212 0 73.2436 15.4962 1135 134.608 1254.01 457.534
213 0 75.2591 15.0015 1129 138.967 1252.07 456.672
214 0 76.2172 15.7314 1199 137.828 1250.95 453.774
215 0 78.1724 15.824 1237 137.946 1249.73 455.764
216 0 82.1633 15.6518 1286 140.875 1247.78 452.415
217 0 85.1922 16.7034 1423 138.781 1246.2 453.022
218 0 87.265 16.9942 1483 140.775 1244.77 450.84
219 1 48.1453 12.1092 583 143.06 1243.96 470.767
220 0 48.174 12.5586 605 135.392 1243.97 470.413
221 0 49.1315 14.4103 708 134.089 1243.14 466.662
222 0 53.285 14.0377 748 133.775 1241.37 467.541
223 0 53.2745 14.247 759 139.653 1241.2 459.31
224 0 56.1117 15.986 897 132.353 1240.14 463.661
225 0 57.131 16.4534 940 130.929 1240.1 458.532
226 0 58.1369 16.1343 938 131.681 1238.49 457.48
227 0 61.1652 14.3219 876 132.767 1238.9 458.102
228 0 61.2136 15.5194 950 131.823 1239.01 455.454
229 0 67.4572 19.82 1337 120.299 1239.99 459.619
230 0 63.1151 13.5942 858 134.749 1240.25 455.438
231 0 68.1143 16.6925 1137 127.252 1242.31 453.256
232 0 72.1599 21.3831 1543 124.469 1243.97 449.843
233 0 73.1581 16.7582 1226 131.809 1246.08 449.972
234 0 72.2269 15.4928 1119 131.939 1247.46 448.3
235 0 78.2506 16.0893 1259 134.06 1248.88 448.305
236 0 80.4939 18.4983 1489 130.951 1251.47 447.758
237 0 80.2749 17.8512 1433 132.966 1251.85 448.826
238 0 90.1395 20.4239 1841 125.626 1253.4 451.557
239 0 88.2774 19.0536 1682 129.62 1254.31 444.64
240 0 91.2151 16.2692 1484 137.985 1255.06 447.522
241 0 92.314 14.9273 1378 144.283 1253.99 446.824
242 0 96.3143 16.9445 1632 146.426 1254.39 443.933
243 0 98.5483 14.9774 1476 146.843 1253.79 444.085
244 0 103.229 17.747 1832 142.915 1253.51 441.383
245 0 106.346 17.1893 1828 146.122 1253.55 440.497
246 0 106.318 15.7075 1670 151.043 1251.51 439.976
247 0 114.368 17.7235 2027 145.276 1251.06 439.488
248 1 56.1269 11.3315 636 151.942 1250.54 468.726
249 0 65.0623 13.7099 892 142.117 1249.37 468.267
250 0 57.1711 9.34039 534 153.358 1248.37 468.624
251 0 63.1322 14.1291 892 140.752 1245.14 464.93
252 0 65.1909 14.0357 915 146.532 1246.18 464.354
253 0 66.084 12.242 809 148.438 1244.72 462.404
254 0 70.0652 13.0164 912 144.959 1243.16 461.422
255 0 70.0473 16.2176 1136 139.981 1242.24 456.465
256 0 74.1592 16.2353 1204 138.748 1241.26 456.202
257 0 75.1182 15.4024 1157 144.128 1240.97 451.77
258 0 79.1499 18.3576 1453 133.458 1240.34 452.783
259 0 81.0779 16.1943 1313 133.884 1239.42 452.197
260 0 81.1251 13.7565 1116 139.545 1238.92 448.978
261 0 84.2279 14.4014 1213 136.419 1239.41 448.081
262 0 87.4263 17.672 1545 129.589 1239.14 440.911
263 0 90.2014 15.676 1414 134.825 1239.63 443.128
264 0 93.3097 17.5223 1635 131.612 1241.27 440.976
265 0 94.2064 15.9331 1501 136.5 1241.98 438.077
266 0 99.4499 16.0784 1599 134.936 1244.27 438.678
267 0 102.323 13.692 1401 136.036 1246.18 441.187
268 1 57.5548 14.699 846 127.427 1247.47 462.505
269 0 57.1503 15.6255 893 126.199 1249.86 462.544
270 0 58.3327 13.1659 768 133.525 1250.56 463.096
271 0 62.3911 16.9576 1058 127.988 1252.15 459.799
272 0 62.3188 14.5863 909 135.224 1253.03 460.534
273 0 64.2252 15.975 1026 133.798 1252.77 459.213
274 0 65.3143 14.0245 916 143.596 1253.8 458.644
275 0 69.4525 20.0281 1391 126.362 1253.28 463.169
276 0 70.3116 17.3371 1219 136.121 1253.23 459.277
277 0 71.2137 17.0613 1215 137.677 1252.31 457.23
278 0 75.3865 19.0352 1435 135.633 1251.05 457.338
279 0 74.4794 16.81 1252 143.314 1250.06 456.798
280 0 76.4758 15.1028 1155 146.829 1249.42 456.898
281 0 81.2305 19.5862 1591 137.852 1248.28 456.678
282 0 83.301 16.2183 1351 146.144 1247.94 453.743
283 1 39.1993 15.8421 621 147.298 1245.99 472.789
284 0 40.2522 13.9868 563 148.766 1244.64 471.266
285 0 42.0654 13.7167 577 155.529 1243.06 471.435
286 0 45.1844 16.8421 761 149.815 1241.97 468.754
287 0 47.0969 14.8842 701 152.536 1240.91 468.04
288 0 48.2623 15.913 768 148.268 1240.24 467.026
289 0 53.4745 17.7842 951 140.903 1239.16 465.028
290 0 52.1751 14.0872 735 152.936 1238.19 463.405
291 0 54.1984 20.0375 1086 136.935 1238.09 461.965
292 0 59.6448 14.9552 892 142.774 1237.54 461.229
293 0 57.558 17.1827 989 141.658 1237.47 458.483
294 0 60.3406 16.9372 1022 141.04 1237.85 455.942
295 0 66.7148 20.8799 1393 130.514 1238.46 458.038
296 0 69.2619 19.8233 1373 131.398 1239.5 458.579
297 0 69.4496 22.6639 1574 130.832 1240.35 452.207
298 0 74.0769 21.5992 1600 129.598 1241.84 455.508
299 0 70.4554 16.3224 1150 145.611 1242.65 451.774
300 0 74.4924 18.0824 1347 144.005 1245.11 447.476
301 1 36.3486 14.1134 513 153.111 1247.82 468.789
302 0 36.6187 14.3643 526 149.004 1250.05 470.479
303 0 37.3699 14.4234 539 155.076 1251.23 470.466
304 0 39.3323 14.0089 551 155.555 1252.87 469.485
305 0 46.4801 15.8132 735 145.75 1253.61 471.78
306 0 42.1597 17.0542 719 153.777 1253.62 470.49
307 0 45.3655 15.2759 693 156.672 1254.38 470.939
308 0 43.1157 15.47 667 159.007 1253.8 472.37
309 0 45.2455 15.9132 720 158.399 1253.94 471.543
310 0 48.2835 17.9979 869 151.555 1253.27 472.079
311 0 50.4415 18.1795 917 152.297 1252.31 470.344
312 0 51.4419 17.0872 879 157.837 1251.41 469.877
313 0 53.26 20.5407 1094 149.987 1250.56 471.46
314 0 54.3476 16.9465 921 161.047 1248.64 469.484
315 0 56.1221 17.0521 957 159.602 1248.56 470.865
316 0 56.1538 16.1699 908 164.413 1247.34 469.567
317 0 58.3363 17.1248 999 163.138 1245.16 466.366
318 0 63.2769 17.8738 1131 159.826 1243.99 465.592
319 0 66.3105 20.8112 1380 149.433 1242.96 463.897
320 0 65.137 19.0061 1238 158.301 1241.98 462.377
321 0 70.1484 19.2449 1350 156.345 1240.75 461.147
322 0 71.2928 17.9261 1278 160.458 1239.82 459.815
323 0 73.4941 17.7429 1304 161.89 1239.67 457.692
324 0 76.3018 19.0559 1454 157.277 1238.92 455.967
325 0 75.3595 17.7284 1336 161.832 1238.38 450.626
326 0 79.4986 17.9877 1430 158.783 1238.89 450.463
327 0 81.8864 19.3561 1585 157.432 1238.02 446.772
328 0 85.8477 19.686 1690 155.308 1238.82 446.957
329 0 88.5885 20.3299 1801 151.679 1239.02 446.767
330 0 90.6788 17.6226 1598 158.531 1239.91 444.392
331 0 95.5267 19.4396 1857 151.543 1241.61 444.511
332 0 97.9035 17.2415 1688 162.316 1243.43 441.467
333 1 47.2133 14.6992 694 165.837 1245.12 464.873
334 0 51.4794 12.6264 650 171.351 1247.11 463.106
335 0 52.2075 14.768 771 167.655 1249.36 463.337
336 0 51.3257 15.314 786 172.878 1250.78 460.309
337 0 55.1928 16.6145 917 165.817 1251.35 459.767
338 0 57.3581 15.9176 913 166.745 1252.76 461.115
339 0 59.148 16.0952 952 169.297 1252.84 459.185
340 0 66.2288 17.6358 1168 159.641 1253.71 461.273
341 0 66.1821 16.6964 1105 165.622 1253.27 459.121
342 0 68.2344 19.1839 1309 160.118 1252.57 459.102
343 0 68.2686 15.3365 1047 172.336 1251.84 457.037
344 0 73.2158 19.1216 1400 161.835 1251.64 457.909
345 0 75.3031 16.0949 1212 168.52 1250.5 458.289
346 0 78.1481 17.9531 1403 165.384 1249.62 456.743
347 0 82.1783 18.5085 1521 164.222 1248.59 453.957
348 0 83.5225 16.1872 1352 170.972 1247.92 452.97
349 0 86.3535 18.7833 1622 157.961 1247.42 452.006
350 0 89.2644 17.1289 1529 161.292 1245.47 451.02
351 0 94.4397 16.995 1605 159.756 1244.1 448.8
352 0 96.4696 20.4728 1975 153.277 1242.23 443.289
353 0 99.4295 20.688 2057 150.999 1241.33 441.497
354 0 103.295 17.7259 1831 160.102 1240.53 442.545
355 0 107.487 18.2812 1965 155.244 1239.87 438.173
356 0 110.387 16.2519 1794 160.305 1239.19 435.631
357 0 115.527 17.0523 1970 156.448 1238.55 436.877
358 0 117.59 17.1189 2013 160.066 1238.07 427.967
359 0 123.787 19.5658 2422 152.109 1237.84 425.234
360 0 127.278 20.247 2577 149.943 1238.06 426.582
361 1 72.3574 13.6406 987 157.622 1238.56 451.213
362 0 77.4576 13.9818 1083 154.244 1239.05 449.117
363 0 78.4924 14.409 1131 154.717 1241.08 448.619
364 0 84.7508 16.4954 1398 148.738 1241.7 447.293
365 0 85.5519 18.0475 1544 145.715 1243.77 448.156
366 0 85.5491 15.1375 1295 156.558 1244.61 440.561
367 0 91.7355 19.0657 1749 150.469 1247.66 437.926
368 0 94.4174 14.9125 1408 160.846 1248.9 439.368
369 0 101.721 17.0073 1730 152.086 1250.56 441.068
370 0 101.625 14.7897 1503 160.495 1251.55 437.693
371 0 104.744 15.7431 1649 160.646 1252.9 434.333
372 0 109.599 15.6936 1720 159.163 1252.51 432.722
373 0 110.533 14.7558 1631 167.27 1253.37 432.321
374 0 115.563 17.8257 2060 158.407 1253.34 432.117
375 0 121.458 16.1208 1958 162.177 1252.13 432.916
376 0 124.462 15.555 1936 168.028 1251.47 426.133
377 0 126.451 13.7919 1744 173.971 1251.01 424.401
378 0 131.803 14.1196 1861 172.794 1250.76 422.782
379 0 133.533 14.7679 1972 173.734 1249.43 419.655
380 0 137.65 14.6531 2017 172.284 1248.43 423.806
381 0 142.304 13.8646 1973 175.492 1247.66 419.079
382 0 146.556 14.8748 2180 173.689 1246.77 416.058
383 0 151.471 13.5934 2059 176.07 1244.93 414.224
384 0 156.371 15.4505 2416 171.853 1243.65 408.026
385 0 161.715 14.7729 2389 168.322 1242.35 409.436
386 0 167.74 17.4377 2925 158.588 1241.31 405.611
387 0 173.389 15.7161 2725 166.092 1240.45 397.748
388 0 179.699 15.5649 2797 163.184 1239.77 393.867
389 0 184.538 14.7286 2718 162.047 1239.06 393.358
390 0 187.594 13.9663 2620 166.993 1238.17 386.566
391 0 194.816 13.9824 2724 163.519 1237.47 376.907
392 0 200.761 13.7875 2768 163.335 1236.98 377.411
393 0 211.601 16.101 3407 157.097 1236.72 373.339
394 1 160.422 10.1358 1626 157.741 1237.49 401.541
395 0 165.49 14.1036 2334 147.358 1238.55 401.078
396 0 169.613 12.617 2140 149.493 1239.42 395.648
397 0 174.512 12.4805 2178 150.188 1240.82 383.95
398 0 181.594 17.3464 3150 137.374 1242.06 392.636
399 1 66.3018 8.08424 536 121.715 1243.99 451.004
400 0 70.4742 12.0044 846 115.758 1245.69 452.947
401 0 72.1083 8.18213 590 122.331 1247.23 455.119
402 0 71.0678 6.90889 491 122.705 1249.3 460.346
403 0 75.2332 6.39345 481 123.229 1250.25 462.04
404 1 217.953 13.769 3001 156.217 1250.75 369.745
405 0 223.015 13.9049 3101 155.564 1250.5 352.618
406 0 235.731 16.2219 3824 147.043 1251.5 368.766
407 1 83.1011 12.9 1072 122.809 1253.12 450.446
408 1 49.06 9.76355 479 125.1 1252.49 468.489
409 0 48.0208 10.3497 497 124.535 1252.26 472.992
410 0 50.0392 8.37344 419 130.01 1250.82 471.642
411 0 51.0152 9.13453 466 131.955 1250.31 469.841
412 0 52.0799 8.94779 466 131.418 1248.88 469.646
413 0 51.0946 8.8659 453 133.779 1247.4 467.417
414 0 50.0463 5.1752 259 139.012 1248.11 475.869
415 0 54.0948 9.39092 508 133.73 1247.65 469.368
416 0 53.137 8.46868 450 136.387 1246.49 465.849
417 0 54.0593 8.71265 471 137.18 1244.82 464.089
418 0 57.1835 8.39404 480 134.021 1243.45 469.552
419 0 60.3393 9.77804 590 131.956 1241.99 465.78
420 0 60.1358 10.7257 645 130.867 1240.94 461.47
421 0 63.0806 7.5459 476 132.973 1240.1 459.42
422 0 65.1296 11.1777 728 125.43 1239.67 457.559
423 0 67.1613 10.0355 674 130.484 1238.9 460.047
424 0 69.2246 11.441 792 128.287 1238.74 457.098
425 0 66.2241 7.73133 512 136.613 1237.68 457.07
426 1 139.036 13.536 1882 135.708 1236.48 419.752
427 1 222.359 15.1422 3367 134.405 1236.54 374.734
428 1 79.1221 12.0447 953 130.584 1237.92 450.125
429 0 78.1604 13.0501 1020 132.52 1239.03 449.103
430 0 80.1453 11.9907 961 134.374 1241.03 448.027
431 0 84.161 11.2522 947 139.055 1241.48 446.595
432 0 89.1993 12.0292 1073 134.443 1246.15 440.466
433 1 50.0361 9.01349 451 134.716 1248.76 464.973
434 0 54.0097 10.0167 541 136.8 1250.31 460.458
435 0 52.0244 11.7637 612 137.069 1253.21 462.356
436 0 57.0485 10.2895 587 136.405 1253.44 461.94
437 0 57.3611 12.0639 692 133.577 1251.81 458.882
438 0 57.3768 12.3743 710 128.231 1251.64 453.669
439 0 61.1371 14.0667 860 135.333 1250.91 466.969
440 0 60.135 12.605 758 135.975 1255.76 463.309
441 0 60.1256 9.66311 581 145.017 1255.75 463.818
442 0 63.1118 10.4259 658 141.31 1254.99 463.433
443 0 66.1176 12.3114 814 138.899 1254.22 462.853
444 0 65.2836 11.3045 738 145.692 1253.38 458.188
445 0 70.1069 12.9231 906 142.093 1252.69 459.614
446 0 72.1009 13.0234 939 141.195 1251.38 461.599
447 0 72.0876 10.2237 737 147.688 1250.69 460.114
448 0 74.1478 15.7658 1169 137.08 1249.4 457.845
449 0 78.2192 13.769 1077 140.658 1248.22 459.188
450 0 78.1464 11.8879 929 143.677 1247.12 457.354
451 0 81.2865 11.4041 927 144.261 1245.7 454.376
452 0 84.2179 14.5931 1229 136.17 1244.83 455.007
453 0 87.1978 15.2641 1331 136.133 1243.61 447.873
454 0 89.186 13.1635 1174 139.935 1241.92 446.388
455 1 46.044 11.6411 536 140.28 1241.94 469.83
456 0 46.0477 10.6194 489 141.691 1241.84 468.64
457 0 48.0396 10.5538 507 143.874 1241.25 465.203
458 0 54.5003 13.9632 761 130.435 1239.71 465.861
459 0 51.6179 13.2125 682 132.482 1238.47 459.858
460 0 61.2565 13.6965 839 124.853 1240.46 464.209
461 0 56.2048 15.1411 851 125.099 1240.04 458.147
462 0 58.0729 17.5125 1017 122.207 1240.87 460.324
463 0 56.0383 14.847 832 128.733 1241.56 456.786
464 0 61.1649 15.5808 953 126.501 1242.82 455.123
465 0 60.1306 11.9573 719 133.701 1244.4 457.992
466 0 74.2224 19.4416 1443 113.183 1246.2 456.8
467 0 64.2388 13.6211 875 128.411 1248.29 453.495
468 0 65.1508 13.0774 852 129.408 1249.96 456.805
469 0 64.1064 13.1656 844 130.139 1252.71 454.968
470 0 74.6672 14.7588 1102 125.054 1253.45 457.584
471 0 69.3993 13.0549 906 132.205 1254.41 455.957
472 0 70.1842 11.769 826 133.276 1255.27 459.621
473 0 74.2583 13.3722 993 137.74 1254.94 455.517
474 0 76.1288 14.6331 1114 134.42 1254.23 456.103
475 0 79.1879 16.1009 1275 132.965 1254.22 455.026
476 0 80.3536 14.4735 1163 135.475 1253.96 459.273
477 0 83.2908 13.3388 1111 140.015 1252.58 456.178
478 1 45.245 13.6369 617 140.019 1252.08 473.112
479 0 46.0594 11.2898 520 143.238 1250.95 474.863
480 0 47.0746 10.8764 512 141 1250.46 475.234
481 0 47.0559 10.9019 513 141.232 1249.51 474.058
482 0 49.0804 10.9412 537 141.587 1247.76 472.685
483 0 52.3285 14.4663 757 134.738 1245.9 469.522
484 0 54.5237 14.9476 815 134.818 1243.43 467.961
485 0 55.0389 16.0069 881 134.237 1239.95 467.759
486 0 55.1317 13.0415 719 139.128 1238.85 466.047
487 0 56.048 14.2021 796 136.739 1238.09 463.428
488 0 60.1302 16.3978 986 129.721 1238.19 461.273
489 0 62.0763 15.481 961 130.145 1237.83 458.74
490 0 62.0893 16.0253 995 130.588 1237.16 458.12
491 0 63.3278 16.6278 1053 128.71 1236.98 456.664
492 0 66.032 17.2644 1140 127.893 1236.98 457.856
493 0 71.2457 18.4994 1318 126.634 1238.97 454.005
494 0 69.2387 16.1759 1120 131.501 1240.14 454.375
495 0 69.1623 14.0105 969 138.459 1240.8 452.121
496 0 80.447 16.023 1289 124.876 1242.96 458.249
497 0 75.1742 15.1781 1141 132.359 1243.38 450.985
498 0 79.5405 20.895 1662 118.323 1243.69 454.357
499 0 83.2682 18.5185 1542 124.388 1245.44 450.953
500 0 79.0853 14.4401 1142 136.307 1247.42 448.514
501 1 40.0527 13.1327 526 130.884 1248.6 467.458
502 0 45.1893 13.1226 593 130.745 1250.32 467.455
503 0 43.075 11.7005 504 134.391 1252.53 466.964
504 0 45.0307 11.903 536 138.321 1253.17 467.151
505 0 46.1799 13.7506 635 136.356 1253.49 467.381
506 0 48.0437 14.799 711 132.838 1252.91 466.641
507 0 52.1403 18.0091 939 126.532 1252.63 465.661
508 0 51.261 12.9338 663 146.21 1252.71 470.139
509 0 52.161 14.2444 743 147.394 1252.95 468.3
510 0 55.0778 16.5766 913 141.196 1252.97 468.831
511 0 56.0242 13.6727 766 149.96 1252.31 467.907
512 0 56.118 12.8657 722 153.418 1250.82 469.205
513 0 60.0487 15.1544 910 149.556 1250.16 466.791
514 0 62.1381 14.0011 870 152.082 1249.19 466.195
515 0 66.1343 15.2115 1006 147.882 1248.01 466.499
516 0 67.0884 17.2012 1154 143.291 1246.04 464.388
517 0 74.1673 17.1504 1272 138.867 1244.65 466.774
518 0 72.0868 16.5634 1194 142.539 1243.39 463.544
519 0 74.3131 15.6904 1166 143.286 1242.31 460.643
520 0 79.4598 19.6703 1563 134.495 1242.19 459.398
521 0 78.1051 15.0182 1173 141.554 1240.17 458.028
522 0 81.1713 18.0359 1464 135.127 1239.6 456.346
523 0 80.5363 14.838 1195 145.904 1238.83 452.133
524 0 86.2757 16.0764 1387 138.277 1238.24 449.432
525 1 44.0748 10.2553 452 145.954 1238.95 468.504
526 0 52.4558 19.3496 1015 122.865 1239.36 470.785
527 0 51.1483 12.1998 624 142.583 1239.79 466.726
528 0 51.0855 16.9128 864 138.562 1240.58 461.005
529 0 54.074 15.4788 837 134.781 1238.81 461.33
530 0 55.0479 16.4947 908 135.916 1240.33 459.501
531 0 58.2695 18.1913 1060 126.807 1241.98 461.424
532 0 61.2447 16.0341 982 129.755 1243.39 460.692
533 0 64.1703 16.0978 1033 130.1 1245.62 459.793
534 0 64.4469 15.1753 978 133.34 1247.33 456.123
535 0 67.0987 16.0957 1080 131.727 1248.62 457.393
536 0 70.1996 15.6696 1100 132.302 1249.9 458.371
537 0 72.3006 18.4646 1335 129.434 1251.75 455.073
538 0 74.1947 15.7558 1169 136.44 1251.83 455.315
539 0 73.1854 12.5162 916 149.205 1252.06 456.832
540 0 77.1848 15.9228 1229 139.937 1253 454.203
541 0 82.2025 17.8827 1470 137.841 1251.95 452.513
542 0 84.1126 15.8597 1334 146.605 1251.36 451.708
543 1 44.0691 12.5712 554 148.762 1250.13 473.209
544 0 47.0723 13.5749 639 144.811 1249.7 474.197
545 0 46.0737 13.4567 620 148.358 1248.34 471.106
546 0 47.1265 11.6071 547 151.42 1247.22 470.927
547 0 51.0806 11.6482 595 148.745 1246.47 473.168
548 0 53.0838 13.4504 714 146.136 1247.84 472.127
549 0 55.0493 16.022 882 140.627 1245.82 470.185
550 0 55.1414 14.617 806 144.069 1244.47 470.092
551 0 58.0638 15.6724 910 142.63 1243.11 467.779
552 0 60.0888 17.4076 1046 138.104 1242.76 465.932
553 0 62.197 15.9815 994 138.418 1242.89 465.105
554 0 69.4571 18.4862 1284 128.442 1242.13 465.21
555 0 64.1339 15.951 1023 138.378 1241.14 461.691
556 0 66.1264 15.3494 1015 139.833 1240.89 458.017
557 0 70.1442 17.407 1221 135.453 1239.85 458.452
558 0 73.0922 17.5258 1281 136.294 1239.57 452.683
559 0 74.1379 14.8912 1104 137.259 1239.38 454.748
560 0 78.2738 16.8383 1318 135.459 1239.34 451.057
561 0 80.4991 15.9753 1286 135.456 1240.73 450.75
562 0 80.0806 16.5209 1323 135.918 1241.54 448.091
563 0 85.2122 15.5377 1324 136.048 1242.48 445.819
564 1 43.1074 12.1093 522 138.404 1244.3 465.584
565 0 48.1869 11.8912 573 140.721 1246.66 465.532
566 0 50.2099 17.626 885 127.637 1248.31 464.632
567 0 51.1324 13.8464 708 133.346 1250.26 466.516
568 0 53.1769 13.7842 733 136.967 1251.77 463.971
569 0 50.0985 14.3517 719 133.987 1253.05 464.051
570 0 54.0542 13.283 718 136.809 1254.1 465.961
571 0 55.123 14.2046 783 136.679 1254.4 466.506
572 0 56.1111 14.9525 839 137.231 1254.85 464.722
573 0 59.2767 14.6601 869 135.942 1255.2 465.685
574 0 61.1638 14.6819 898 138.069 1254.54 466.099
575 0 62.3348 15.144 944 138.064 1253.93 465.733
576 0 61.2864 12.2376 750 146.805 1253.86 464.837
577 0 65.2917 13.3708 873 143.682 1253.01 466.786
578 0 67.2096 16.2477 1092 139.687 1252.06 465.823
579 0 69.1384 15.346 1061 140.057 1250.92 467.525
580 0 75.2036 19.6799 1480 129.822 1250.09 464.001
581 0 75.3361 17.0835 1287 135.131 1248.75 466.255
582 0 77.3815 13.8534 1072 143.143 1247.18 462.937
583 0 79.3795 15.7723 1252 139.73 1245.48 461.392
584 0 81.2523 15.7534 1280 140.448 1244.45 458.452
585 0 86.2555 15.9642 1377 138.722 1243.08 456.46
586 1 49.2228 11.9254 587 146.329 1242.34 474.91
587 0 52.1744 13.4357 701 142.19 1241.61 474.27
588 0 51.3305 11.8448 608 147.352 1240.03 471.632
589 0 53.3017 13.0015 693 139.579 1238.79 472.306
590 0 56.1076 14.1157 792 136.771 1237 469.085
591 0 60.3937 16.8561 1018 127.601 1236.61 470.417
592 0 60.103 16.1556 971 133.864 1236.46 467.384
593 0 62.1364 14.2268 884 137.038 1236.3 463.964
594 0 61.1907 14.6264 895 135.459 1236.14 462.046
595 0 65.146 13.7384 895 135.569 1236.26 462.966
596 0 68.2253 16.7533 1143 130.886 1237.63 461.597
597 0 70.2433 15.5602 1093 135.324 1238.65 458.918
598 0 70.2341 14.3093 1005 137.442 1239.77 457.868
599 0 75.2232 15.4075 1159 135.563 1241.23 459.939
600 0 75.21 14.865 1118 138.303 1243.29 457.903
601 0 81.2013 18.0539 1466 131.198 1245.42 457.663
602 0 82.2232 16.8201 1383 134.944 1245.51 457.599
603 0 82.1439 14.4259 1185 142.473 1246.27 455.256
604 0 89.2564 16.7271 1493 136.362 1246.95 455.991
605 0 90.2903 15.1179 1365 139.882 1247 454.446
606 0 94.2579 17.3779 1638 135.897 1246.98 455.045
607 0 99.3026 15.5082 1540 139.501 1246.68 452.483
608 0 101.216 15.8868 1608 139.242 1246.25 450.387
609 1 42.1322 11.3453 478 142.586 1244.95 476.657
610 0 45.0665 11.827 533 143.006 1244.95 477.863
611 0 43.0842 10.4447 450 142.602 1244.36 480.327
612 0 47.2198 11.7959 557 143.44 1243.13 480.07
613 0 50.2992 14.871 748 136.521 1241.98 478.128
614 0 51.2256 12.2009 625 144.034 1240.65 476.098
615 0 55.1542 14.9218 823 135.584 1238.49 475.599
616 0 56.18 16.1979 910 135.662 1238.01 473.119
617 0 56.3185 12.092 681 142.722 1236.69 472.809
618 0 58.4104 14.3639 839 136.621 1235.99 471.788
619 0 61.2624 14.7888 906 135.497 1234.85 469.818
620 0 63.4147 15.1069 958 134.566 1234.23 466.974
621 0 64.4299 14.8223 955 133.657 1234 466.08
622 0 64.4006 15.7918 1017 134.078 1233.65 461.564
623 0 69.4282 15.3252 1064 133.21 1233.28 459.146
624 0 67.5001 10.3555 699 140.546 1232.61 459.94
625 1 39.306 8.92992 351 136.949 1233.1 473.043
626 0 41.3385 12.7726 528 129.769 1233.18 471.562
627 0 40.2142 11.1404 448 134.518 1233.75 469.703
628 0 40.5799 11.1139 451 136.583 1234.98 468.266
629 0 43.3949 12.3056 534 130.067 1236.62 469.798
630 0 43.3988 12.1201 526 132.565 1237.76 467.586
631 0 46.3469 12.0612 559 130.064 1238.6 465.481
632 0 50.5744 14.098 713 125.174 1239.89 466.829
633 0 51.0767 15.8193 808 116.267 1241.46 466.767
634 0 50.0666 12.1838 610 126.83 1242.76 462.959
635 0 52.0905 13.3806 697 126.238 1245.11 465.684
636 0 53.1078 14.9507 794 125.058 1246.24 464.686
637 0 55.157 11.7846 650 134.237 1247.32 463.111
638 0 59.1653 11.5946 686 133.367 1248.44 466.857
639 0 58.159 12.7753 743 135.917 1248.01 462.511
640 0 61.1365 15.5063 948 129.43 1249.32 463.95
641 0 62.093 13.2543 823 135.113 1247.73 464.358
642 0 63.1442 13.2395 836 135.941 1247.75 466.238
643 0 65.1561 14.8873 970 135.327 1247.15 462.612
644 0 68.3962 17.9835 1230 122.383 1246.45 472.101
645 0 68.2152 12.4899 852 138.918 1246.02 459.886
646 0 69.0861 13.9826 966 136.38 1245.82 464.072
647 0 73.4605 14.2389 1046 144.789 1246.31 465.555
648 0 74.3765 15.2064 1131 141.782 1245.11 464.478
649 0 80.4628 17.8095 1433 134.927 1243.79 458.203
650 0 79.6154 14.7208 1172 144.754 1242 459.644
651 0 82.3723 16.5832 1366 140.354 1240.77 457.969
652 0 81.424 13.4972 1099 149.055 1240.27 456.468
653 0 86.6323 17.5108 1517 138.017 1238.95 456.094
654 0 90.4412 16.4637 1489 139.668 1238.31 452.619
655 0 93.4216 15.1571 1416 143.142 1237.17 451.843
656 0 93.6595 15.6418 1465 142.988 1236.85 447.666
657 0 100.602 17.9122 1802 136.268 1236.34 442.868
658 0 101.796 15.6783 1596 140.788 1236.6 442.747
659 0 102.703 13.5439 1391 144.656 1237.06 442.471
660 0 108.387 18.5538 2011 134.163 1238.29 438.972
661 0 112.422 18.7775 2111 135.115 1238.58 434.768
662 0 114.921 19.9268 2290 131.293 1240.43 435.529
663 0 120.437 16.656 2006 131.277 1242.39 435.497
664 1 62.1077 14.6681 911 131.087 1244.25 461.172
665 0 67.2736 14.7606 993 129.972 1246.56 460.043
666 0 67.1003 17.3919 1167 128.641 1248.02 455.928
667 0 70.1358 15.969 1120 128.586 1249.81 460.488
668 0 71.2299 16.3836 1167 131.607 1252.25 460.952
669 0 74.1392 14.3379 1063 132.857 1252.32 456.443
670 0 75.2708 14.9328 1124 135.572 1253.41 455.071
671 0 78.1176 14.1069 1102 136.308 1253.06 458.2
672 0 82.2297 13.9487 1147 135.561 1252.22 456.244
673 0 88.5493 18.1255 1605 127.242 1250.71 458.487
674 0 87.1822 14.2919 1246 138.134 1250.99 457.147
675 1 39.0481 12.7791 499 141.333 1250.29 478.583
676 0 46.0994 12.3429 569 139.13 1249.04 478.236
677 1 96.3326 15.7475 1517 137.55 1247.84 453.461
678 0 97.3206 14.8684 1447 140.241 1247.4 451.034
679 1 49.1418 12.413 610 135.702 1245.91 479.613
680 0 54.1331 14.5937 790 134.737 1244.31 473.789
681 0 55.1524 12.13 669 139.592 1242.24 471.759
682 0 57.3752 16.366 939 130.371 1241.3 470.465
683 0 59.1674 15.6674 927 132.713 1239.95 468.373
684 0 58.1186 14.7285 856 134.965 1239.07 465.59
685 0 62.2099 16.6694 1037 127.005 1237.86 467.005
686 0 64.2222 14.481 930 131.074 1236.87 462.208
687 0 66.2144 15.3592 1017 128.138 1236.88 460.835
688 0 67.1746 19.4716 1308 120.357 1236.21 460.693
689 0 71.2883 18.4883 1318 122.605 1236.14 458.454
690 0 72.3408 14.9432 1081 129.621 1235.64 455.799
691 0 74.1924 18.2903 1357 123.746 1236.31 452.199
692 0 78.3917 17.5401 1375 123.646 1235.65 450.045
693 0 82.5735 16.7366 1382 124.41 1236.02 451.223
694 0 84.5118 18.1986 1538 122.627 1237.29 448.155
695 0 84.4499 16.3884 1384 124.831 1238.8 444.381
696 0 89.2791 21.4608 1916 116.9 1240.58 446.999
697 0 92.4161 19.5204 1804 119.136 1241.85 446.167
698 1 50.1468 14.298 717 126.487 1243.29 465.448
699 0 48.1596 14.9088 718 125.854 1245.36 463.171
700 0 48.1313 16.081 774 122.894 1247.24 467.348
701 0 54.1211 12.2134 661 131.737 1249.26 461.144
702 0 55.2626 13.7344 759 131.087 1249.77 461.706
703 0 57.2409 12.6658 725 132.861 1249.63 461.914
704 0 58.2379 15.5569 906 129.292 1250.81 461.372
705 0 61.1704 14.9909 917 133.115 1250.88 462.11
706 0 64.3283 16.1826 1041 132.87 1250.57 460.41
707 0 66.2082 15.9346 1055 132.385 1250.46 462.011
708 0 66.2218 13.485 893 138.852 1250.28 459.288
709 0 71.1878 17.5732 1251 133.958 1249.82 460.232
710 0 73.1761 16.3988 1200 136.727 1248.04 459.389
711 0 73.1224 15.4946 1133 141.622 1247.13 459.337
712 0 76.6799 16.8362 1291 140.581 1246.42 457.297
713 0 79.5955 15.3526 1222 142.484 1245.23 453.995
714 0 82.7889 14.4101 1193 143.101 1243.56 451.313
715 1 43.4596 17.4185 757 133.618 1242.22 467.275
716 0 47.4346 13.4501 638 141.639 1240.89 466.166
717 0 48.409 13.9024 673 138.734 1239.49 466.917
718 0 54.6092 18.788 1026 125.067 1237.73 466.114
719 0 51.5199 16.5761 854 130.957 1238.21 464.262
720 0 53.3258 18.0213 961 128.941 1237.85 458.947
721 0 56.4672 16.2041 915 139.251 1236.89 460.298
722 0 54.3148 16.9383 920 138.001 1237.28 456.888
723 0 57.4607 14.8971 856 141.673 1236.82 458.273
724 0 60.2656 16.8255 1014 132.983 1237.16 456.828
725 0 61.2372 18.3549 1124 129.761 1237.45 456.19
726 0 69.281 17.3496 1202 130.411 1238.29 458.617
727 0 64.5324 15.6046 1007 133.641 1238.84 453.264
728 0 70.7144 16.503 1167 134.605 1240.98 454.564
729 0 68.4003 13.5087 924 136.489 1242.48 450.508
730 0 73.5139 14.8815 1094 136.563 1244.68 448.709
731 0 74.7643 14.8734 1112 134.159 1246.62 449.189
732 0 78.7181 16.8449 1326 135.29 1248.67 447.129
733 0 79.5187 13.959 1110 138.783 1249.72 448.004
734 1 43.3912 13.7125 595 138.948 1250.71 465.197
735 0 44.3361 13.533 600 139.048 1252.01 466.473
736 0 46.3415 12.1058 561 142.121 1253.54 467.275
737 0 48.3193 14.4663 699 138.455 1253.44 466.671
738 0 51.1546 16.7922 859 132.033 1252.92 470.717
739 0 51.2101 15.3485 786 138.851 1252.04 469.817
740 0 53.103 14.5001 770 139.117 1251.61 472.756
741 0 56.2539 16.6211 935 133.969 1250.86 471.253
742 0 56.2538 12.6569 712 144.046 1249.12 469.933
743 0 59.251 15.7634 934 135.744 1247.92 473.7
744 0 62.3518 14.2578 889 140.003 1246.2 470.897
745 0 64.3041 17.2462 1109 134.057 1244.49 470.309
746 0 64.1118 14.4435 926 140.221 1242.29 470.889
747 0 63.3729 13.7914 874 143.843 1241.24 465.968
748 0 67.1654 13.9358 936 140.515 1239.79 464.361
749 0 71.3871 12.9855 927 141.744 1238.48 464.015
750 0 72.1774 15.836 1143 135.673 1237.92 460.974
751 0 79.4433 18.617 1479 125.924 1237.32 461.925
752 0 77.3194 14.7699 1142 134.285 1236.54 459.605
753 0 76.2407 14.7953 1128 136.383 1236.35 455.831
754 0 82.3351 15.024 1237 131.344 1235.95 457.631
755 0 85.6281 17.1089 1465 125.215 1235.5 456.022
756 0 86.3396 15.6475 1351 127.719 1235.17 452.171
757 0 90.5684 17.6772 1601 124.289 1236.06 449.972
758 0 94.4344 23.6672 2235 115.494 1235.88 445.942
759 0 94.5352 16.6181 1571 125.385 1236.4 446.455
760 0 97.7399 16.6565 1628 125.996 1237.48 444.204
761 0 97.6335 14.0321 1370 136.528 1238.76 442.12
762 1 56.4174 12.7088 717 125.551 1240.19 463.909
763 0 58.4239 13.984 817 121.561 1241.91 466.268
764 0 65.0182 15.3342 997 119.535 1244.25 465.915
765 0 61.4508 12.2537 753 130.446 1245.4 463.908
766 0 63.4159 13.4351 852 131.586 1245.94 460.887
767 0 66.5632 18.3285 1220 120.871 1247.31 465.781
768 0 66.1974 13.7468 910 133.588 1248.15 460.412
769 0 71.4747 15.3061 1094 130.339 1248.64 461.863
770 0 72.2057 14.5695 1052 133.14 1248.92 460.358
771 0 74.3476 16.0731 1195 130.274 1248.48 461.648
772 0 77.2418 14.6035 1128 132.919 1248.5 463.824
773 0 79.2416 17.3015 1371 130.282 1248.25 460.872
774 0 82.2212 15.5191 1276 134.527 1247.55 459.657
775 1 44.0968 9.97805 440 134.643 1246.51 483.007
776 0 45.118 8.75481 395 132.291 1245.25 486.397
777 0 48.0881 11.4581 551 135.229 1243.62 478.942
778 0 49.0448 14.3746 705 130.098 1243.09 479.084
779 0 50.1354 12.6657 635 134.046 1240.98 476.395
780 0 50.093 13.2154 662 133.917 1239.51 474.763
781 0 53.1057 15.3091 813 128.769 1238.01 473.795
782 0 57.2055 15.3307 877 125.673 1236.55 474.335
783 0 56.0653 13.1632 738 130.913 1235.62 472.584
784 0 59.1246 15.2898 904 125.863 1234.82 470.549
785 0 60.0785 14.7307 885 128.032 1234.68 466.322
786 0 60.1201 12.6746 762 129.517 1233.59 464.68
787 0 64.2393 15.8314 1017 121.82 1233.47 466.116
788 0 65.4665 13.8086 904 131.874 1233.08 462.896
789 0 67.1668 13.1464 883 130.411 1233.11 460.238
790 0 70.2441 13.9086 977 128.107 1233.59 457.805
791 0 70.1443 14.7268 1033 127.418 1234.43 453.01
792 0 73.15 12.7546 933 128.605 1235.09 451.207
793 0 76.5459 15.3372 1174 124.405 1235.34 451.317
794 0 79.3028 16.002 1269 127.619 1236.19 448.322
795 0 83.2738 20.1744 1680 116.838 1238.04 454.859
796 0 85.3323 14.1916 1211 129.718 1240.11 446.197
797 0 86.3615 17.0215 1470 125.955 1241.98 439.889
798 0 91.5207 13.7783 1261 129.251 1243.3 445.406
799 0 92.3756 15.3287 1416 127.617 1244.75 444.535
800 0 95.2438 13.3237 1269 126.526 1246.32 446.392
801 0 98.3095 13.1422 1292 129.237 1247.28 441.101
802 0 101.372 14.6984 1490 128.743 1248.54 441.044
803 0 103.52 14.7508 1527 129.363 1249.3 439.051
804 0 107.384 14.1176 1516 134.608 1248.54 443
805 1 58.2253 12.0566 702 132.688 1249.96 466.348
806 0 59.0283 13.6206 804 131.009 1250.18 465.01
807 0 62.0731 14.4024 894 130.167 1247.77 464.515
808 0 64.1711 13.7445 882 133.338 1247.22 465.139
809 0 62.1366 12.9071 802 140.274 1246.04 464.113
810 0 67.1359 13.0482 876 139.183 1245.36 462.888
811 0 70.2406 16.3865 1151 132.697 1244.99 462.948
812 0 72.3387 17.7498 1284 130.199 1244.72 461.022
813 0 74.0921 14.2795 1058 137.844 1243.08 460.747
814 0 77.2462 15.483 1196 134.46 1242.27 456.234
815 0 80.256 14.9272 1198 135.762 1241.2 457.872
816 0 83.2478 16.601 1382 131.774 1240.59 453.406
817 0 83.2801 13.8208 1151 136.793 1239.67 452.71
818 1 46.1823 11.9526 552 136.534 1237.96 471.417
819 0 47.1348 8.65603 408 142.451 1237.82 471.066
820 0 48.0914 10.6256 511 135.724 1237.47 470.002
821 0 49.142 9.23853 454 140.198 1236.2 465.775
822 0 51.0757 11.5319 589 135.098 1237.24 465.321
823 0 53.2794 11.3552 605 136.526 1236.36 463.747
824 0 53.3291 13.8573 739 131.33 1236.89 461.617
825 0 56.2632 12.6015 709 133.636 1238.3 460.518
826 0 58.2861 13.2622 773 132.651 1238.21 457.453
827 0 60.3215 14.688 886 130.895 1239.99 458.402
828 0 61.3872 13.7325 843 130.331 1241.27 455.849
829 0 66.5185 16.1459 1074 122.686 1242.47 459.413
830 0 66.2647 20.2974 1345 114.153 1245.55 453.439
831 0 65.2885 15.4239 1007 120.124 1246.61 456.437
832 0 69.1031 16.5694 1145 119.702 1248.49 454.904
833 0 68.1411 13.927 949 124.793 1250.12 457.815
834 0 70.1537 13.67 959 125.42 1251.56 455.537
835 0 71.2538 13.5993 969 124.897 1252.15 458.567
836 0 73.4694 12.4405 914 129.493 1253.07 455.976
837 0 75.1347 13.2562 996 131.332 1252.66 451.84
838 0 81.2483 14.2526 1158 127.088 1252.55 455.908
839 0 83.2983 12.7974 1066 134.292 1251.91 453.799
840 0 82.3178 13.2535 1091 135.408 1251.78 453.892
841 0 89.3119 12.5403 1120 135.047 1251.12 454.976
842 0 92.2486 15.6534 1444 130.902 1250.33 451.402
843 1 50.0562 8.98989 450 136.313 1248.72 474.649
844 0 51.108 9.37232 479 135.386 1247.98 474.979
845 0 54.141 11.7471 636 134.527 1246.26 470.629
846 0 56.1011 11.5684 649 131.598 1245.55 472.034
847 0 58.2803 12.457 726 128.387 1245.47 468.733
848 0 61.2654 12.6499 775 129.028 1244.38 465.618
849 0 66.3293 15.8603 1052 120.695 1243.13 468.101
850 0 64.2129 13.6888 879 126.594 1241.38 463.507
851 0 63.141 12.1791 769 128.784 1240.1 458.909
852 0 66.2777 11.995 795 127.947 1238.99 458.888
853 0 70.2345 13.8394 972 123.185 1239.12 459.817
854 0 73.2888 13.631 999 123.545 1238.17 457.103
855 0 77.2272 17.9859 1389 120.369 1237.91 452.809
856 0 77.1446 16.5663 1278 123.324 1237.76 451.333
857 0 80.2465 16.2998 1308 123.391 1238.22 454.559
858 0 83.2945 16.9999 1416 120.951 1238.06 453.016
859 0 84.0643 13.9893 1176 128.344 1238.86 448.378
860 0 87.2248 15.4314 1346 122.92 1239.84 448.5
861 0 89.2153 14.8069 1321 123.025 1240.11 444.492
862 0 99.259 17.409 1728 118.991 1242.07 444.492
863 0 97.3678 16.905 1646 119.256 1243.5 445.784
864 0 106.252 15.7174 1670 117.326 1244.82 448.129
865 1 53.0928 11.6588 619 123.675 1246.86 461.349
866 0 57.0596 14.5111 828 118.763 1248 464.572
867 0 55.0818 9.2408 509 127.053 1250.03 464.758
868 0 59.1966 12.4669 738 119.978 1249.86 465.283
869 0 61.1708 11.1164 680 123.363 1250.77 463.162
870 0 63.1321 15.6497 988 116.403 1250.74 464.37
871 0 66.2811 16.777 1112 114.029 1251.96 465.207
872 0 64.1458 12.6275 810 122.856 1251.38 462.453
873 0 68.1904 13.7996 941 119.933 1251.14 459.621
874 0 71.1532 14.0401 999 119.289 1251.21 460.828
875 0 74.1197 13.4242 995 120.886 1250.57 458.559
876 0 75.0932 16.8457 1265 115.474 1248.93 460.552
877 0 80.1345 17.4457 1398 114.11 1247.21 458.371
878 0 79.2028 11.5021 911 123.438 1245.79 453.869
879 0 81.215 12.8178 1041 121.443 1244.67 455.731
880 0 87.2014 14.7016 1282 115.34 1243.3 459.649
881 0 92.5178 28.2756 2616 99.1896 1241.91 456.503
882 0 88.2876 14.7019 1298 116.988 1240.82 449.182
883 0 92.1924 14.8494 1369 116.128 1239.34 449.793
884 0 92.247 11.8812 1096 118.737 1238.19 449.78
885 0 96.5797 15.7694 1523 110.227 1237.77 449.053
886 0 96.332 16.6819 1607 109.952 1237.09 447.899
887 1 45.0511 10.4992 473 114.004 1238.17 470.592
888 0 47.0927 10.0228 472 109.919 1237.25 472.566
889 0 46.1575 10.7891 498 111.904 1236.98 467.052
890 0 44.1577 11.1645 493 105.385 1234.95 460.574
891 0 48.2116 13.0052 627 103.093 1234.92 457.86
892 0 45.0563 9.43264 425 109.633 1236.73 457.835
893 0 46.0505 13.7023 631 102.517 1238.61 461.653
894 0 44.1312 11.0353 487 108.041 1239.78 458.522
895 0 48.0584 10.0295 482 106.786 1241.1 458.411
896 0 46.1535 9.57673 442 106.633 1243.28 457.842
897 0 46.0466 10.5545 486 106.463 1244.93 452.366
898 0 47.0885 11.8713 559 107.941 1246.8 457.481
899 0 44.0868 11.8176 521 106.823 1248.35 459.388
900 0 47.0497 10.5846 498 109.546 1249.82 456.992
901 0 46.082 12.1089 558 111.629 1250.7 458.448
902 0 45.0964 9.33555 421 117.162 1250.98 458.458
903 0 44.0614 9.98607 440 116.959 1251.98 459.411
904 0 47.0733 10.4093 490 115.494 1252.5 462.7
905 0 47.0391 8.37602 394 117.576 1252.66 463.406
906 0 42.0226 10.3754 436 116.452 1251.45 462.023
907 0 47.2022 8.8979 420 116.476 1251.22 461.164
908 0 48.0521 10.0516 483 114.395 1250.2 465.874
909 0 44.0493 11.9412 526 113.587 1250.02 466.977
910 0 47.099 11.6563 549 112.452 1248.71 463.851
911 0 41.0666 9.20456 378 118.008 1248.21 461.407
912 0 45.0744 9.42886 425 116.72 1246.94 462.139
913 0 41.0329 7.04314 289 120.031 1245.94 460.367
914 0 45.0603 11.0518 498 114.219 1243.93 462.723
915 0 41.1919 8.22978 339 118.655 1242.64 464.074
916 0 44.0322 8.90258 392 118.477 1242.1 460.541
917 0 48.0814 12.9572 623 114.573 1241.01 466.117
918 0 45.0256 10.0832 454 112.639 1239.11 463.154
919 0 47.0275 10.866 511 111.548 1238.95 468.75
920 0 48.0927 13.2245 636 109.673 1238.33 464.267
921 0 43.099 11.0443 476 112.744 1238.39 463.96
922 0 48.0885 11.6036 558 110.344 1238.18 461.452
923 0 45.0593 10.8302 488 111.32 1237.5 460.635
924 0 49.1187 14.5769 716 105.749 1238.22 465.029
925 0 46.0927 9.80633 452 110.128 1238.25 463.593
926 0 49.2784 13.9209 686 103.676 1239.31 461.035
927 0 48.2178 10.8259 522 106.341 1241.66 461.027
928 0 48.0875 6.8209 328 109.351 1241.43 462.341
929 0 49.1453 11.8424 582 104.447 1244.59 458.488
930 0 45.1141 7.71377 348 110.477 1247.49 457.741
931 0 50.2584 13.1918 663 102.054 1249.86 460.59
932 0 47.1962 8.83547 417 108.302 1250.79 461.149
933 0 48.0786 6.48938 312 111.144 1252.7 462.92
934 0 47.0262 5.86907 276 113.181 1253.51 462.837
935 0 50.1201 13.348 669 103.398 1254 460.108
936 0 48.2172 9.27055 447 111.723 1254.61 462.915
937 0 47.046 10.6492 501 111.693 1254.74 463.038
938 0 46.0394 14.8134 682 107.679 1255.32 463.537
939 0 44.0254 8.97209 395 114.977 1254.33 461.691
940 0 47.2108 11.078 523 111.518 1253.93 467.904
941 0 47.1819 11.1483 526 113.755 1253.55 468.838
