time division length width area intensity CMx CMy
0 0 55.2541 15.7273 869 122.316 1278.32 457.856
1 0 52.1999 18.7548 979 118.562 1279.15 457.521
2 0 53.3653 12.48 666 127.357 1278.82 459.446
3 0 60.2802 19.6914 1187 117.457 1278.99 457.797
4 0 59.4186 25.1436 1494 110.056 1278.79 461.177
5 0 58.4847 19.3555 1132 119.703 1279.12 457.707
6 0 59.2565 17.5846 1042 120.943 1278.41 459.382
7 0 58.1729 14.0615 818 131.203 1277.65 458.883
8 0 60.2409 16.6166 1001 134.343 1276.1 457.747
9 0 60.1396 14.1504 851 141.508 1275.6 458.922
10 0 66.3604 16.772 1113 135.641 1274.67 458.642
11 0 66.2568 15.4248 1022 140.611 1272.96 458.249
12 0 67.1533 12.9852 872 149.123 1272.79 458.936
13 0 71.2171 14.3505 1022 151.499 1272.5 456.83
14 0 73.1833 14.6618 1073 153.308 1270.9 458.102
15 0 76.1963 16.195 1234 151.323 1268.95 454.062
16 1 41.3583 11.7268 485 157.909 1267.82 469.282
17 0 38.2726 9.5891 367 160.986 1265.18 472.256
18 0 41.0813 12.317 506 152.255 1263.94 469.698
19 0 45.15 13.6877 618 148.362 1261.02 467.175
20 0 43.0793 11.8851 512 155.539 1259.6 464.955
21 0 43.0793 11.8618 511 135.65 1257.61 464.969
22 0 47.2825 13.3876 633 154.888 1259.02 462.275
23 0 49.4663 15.9705 790 148.986 1259.28 460.746
24 0 49.2919 11.7464 579 152.066 1259.3 459.306
25 0 52.2394 13.3041 695 148.63 1259.44 457.564
26 0 53.1399 13.7185 729 146.984 1260.01 455.989
27 0 54.2472 13.3094 722 147.445 1260.72 455.086
28 0 56.1813 13.5988 764 144.208 1261.4 452.946
29 0 58.252 14.4373 841 139.99 1263.91 453.629
30 0 55.3859 12.2775 680 144.624 1265.15 451.856
31 0 61.2966 14.2749 875 135.464 1267.71 452.821
32 0 62.3099 15.8402 987 130.328 1269.28 453.375
33 0 67.4638 15.2823 1031 128.764 1270.89 450.367
34 0 67.2342 19.0231 1279 123.213 1273.17 450.047
35 0 68.2306 15.9752 1090 128.762 1273.94 450.659
36 0 71.2335 14.7262 1049 125.632 1274.3 454.258
37 0 75.6632 15.5558 1177 124.101 1274.78 453.618
38 0 78.2475 14.6458 1146 127.214 1275.64 450.594
39 0 79.2909 13.0784 1037 130.251 1275.27 449.446
40 1 46.6406 14.0007 653 123.611 1277.28 473.801
41 0 41.0294 12.0158 493 136.611 1277.14 470.097
42 0 45.1353 13.6479 616 141.469 1275.07 471.357
43 0 47.409 12.8667 610 140.321 1273.84 470.466
44 0 46.4019 11.3573 527 147.057 1272.18 465.038
45 0 49.441 14.1987 702 144.61 1271.26 466.258
46 0 52.2272 14.4752 756 146.917 1271.77 470.562
47 0 51.3179 18.7264 961 138.652 1270.04 467.529
48 0 53.2501 15.4554 823 148.293 1268.33 468.637
49 0 53.3199 16.7104 891 147.541 1266.98 466.593
50 0 57.0978 15.9376 910 147.78 1265.35 467.157
51 0 59.0601 17.152 1013 147.081 1264.17 464.971
52 0 61.1671 15.94 975 150.916 1262.27 463.952
53 0 62.3265 16.1889 1009 148.995 1261.48 462.238
54 0 62.4258 13.6642 853 157.788 1260.38 460.667
55 0 69.2261 15.3121 1060 149.871 1260.19 459.332
56 0 67.1979 15.0451 1011 153.56 1259.91 457.065
57 0 69.2167 13.176 912 157.238 1259.53 456.09
58 0 73.352 14.8735 1091 153.73 1258.82 451.371
59 0 75.2893 15.5002 1167 152.661 1259.57 449.768
60 0 78.6134 15.0229 1181 151.858 1259.6 448.306
61 1 39.0339 11.6053 453 154.272 1259.86 467.391
62 0 40.0403 10.0149 401 155.476 1260.33 467.546
63 0 44.1789 16.1842 715 141.236 1262.43 463.799
64 0 45.2511 12.8616 582 144.906 1263.57 463.715
65 0 45.1964 13.6958 619 139.577 1266.16 462.305
66 0 45.3028 13.4208 608 141.523 1266.55 463.155
67 0 48.2761 14.4171 696 137.608 1268.39 465.136
68 0 50.1134 13.5293 678 140.611 1269.23 461.476
69 0 53.2475 12.9959 692 139.368 1270.37 464.195
70 0 57.0893 12.9446 739 136.503 1270.66 464.716
71 0 57.2726 13.7762 789 137.286 1272.19 463.066
72 0 59.5265 14.5818 868 137.152 1271.81 465
73 0 61.1974 15.5235 950 136.278 1271.82 462.968
74 0 63.2793 15.2814 967 141.098 1271.69 464.478
75 0 66.264 15.1062 1001 142.657 1270.33 461.956
76 0 67.2284 12.6732 852 153.919 1270.08 460.021
77 0 72.3349 16.4236 1188 144.92 1270.28 460.608
78 0 72.3037 14.5774 1054 151.615 1268.98 457.777
79 1 35.0267 12.2478 429 151.737 1267.68 476.781
80 0 36.0153 12.4669 449 143.465 1266.66 477.176
81 0 42.1559 10.5798 446 153.895 1266.54 474.791
82 0 44.2478 13.6956 606 147.772 1265.32 472.741
83 0 45.122 11.0146 497 153.046 1264 472.889
84 0 45.1593 12.9541 585 151.157 1261.92 471.696
85 0 48.0342 12.5327 602 151.975 1259.47 473.05
86 0 52.1445 14.0955 735 150.982 1258.28 467.408
87 0 53.1881 15.887 845 145.343 1256.82 465.409
88 0 57.2296 17.0891 978 140.798 1257.19 465.539
89 0 53.191 13.7617 732 151.362 1255.63 463.939
90 0 57.2467 15.7564 902 145.392 1255.77 462.645
91 0 60.1428 15.5131 933 145.745 1255.24 460.015
92 0 61.2289 14.4213 883 146.605 1256.36 458.798
93 0 61.2019 12.0421 737 152.502 1255.25 458.71
94 0 65.2376 15.3286 1000 145.972 1256.51 454.189
95 0 68.2668 14.3554 980 147.417 1257.48 455.586
96 0 69.1614 13.6637 945 150.615 1258.65 450.091
97 0 73.2737 14.2343 1043 146.643 1259.64 452.985
98 0 76.1204 16.0929 1225 145.692 1262.02 449.078
99 1 40.0346 12.3893 496 143.21 1263.63 468.982
100 0 41.1077 11.0928 456 142.408 1264.77 470.601
101 0 44.2579 12.4046 549 145.311 1266.85 465.45
102 0 44.1018 13.2648 585 140.164 1268.76 467.937
103 0 46.172 14.4893 669 136.96 1269.65 468.387
104 0 46.2875 12.1631 563 143.922 1271.06 467.229
105 0 48.6011 11.3578 552 146.966 1272.02 468.707
106 0 51.4685 12.8039 659 146.426 1270.38 467.578
107 0 53.556 14.975 802 142.498 1270.88 464.495
108 0 53.4411 16.0364 857 144.764 1269.84 464.781
109 0 54.2162 13.9995 759 152.167 1268.45 468.826
110 0 60.2831 18.1643 1095 139.534 1267.99 469.245
111 0 58.2775 14.5511 848 151.18 1267.42 468.995
112 0 62.2301 14.8963 927 149.564 1266.85 467.858
113 0 63.164 16.5284 1044 149.122 1265.57 465.923
114 0 68.1798 14.4178 983 152.703 1264.65 466.395
115 0 66.1622 13.4216 888 157.251 1264.13 462.961
116 0 68.2672 13.4179 916 157.856 1263 461.384
117 0 72.2536 16.4974 1192 148.565 1260.4 464.189
118 0 75.2885 16.191 1219 152.214 1259.17 457.627
119 0 77.2807 17.3006 1337 150.993 1257.71 456.446
120 0 77.3384 13.7836 1066 160.129 1256.24 457.959
121 0 81.3515 13.1282 1068 162.782 1255.08 455.401
122 0 86.2498 17.0899 1474 154.269 1254.56 450.171
123 1 47.1247 11.9046 561 157.686 1252.03 469.742
124 0 45.0959 11.7749 531 160.247 1252.27 467.787
125 0 47.0947 11.8909 560 156.955 1251.74 470.041
126 0 46.0493 12.1826 561 162.455 1252.63 464.212
127 0 51.0788 16.4256 839 152.007 1254.95 464.031
128 0 53.2702 12.8402 684 159.193 1255.98 461.399
129 0 54.598 14.1764 774 157.532 1257.43 459.86
130 0 58.1264 15.2427 886 150.701 1259.54 461.158
131 0 59.0716 16.1838 956 149.238 1261.08 459.884
132 0 59.2652 13.448 797 157.92 1261.92 459.651
133 0 60.0262 14.7935 888 154.679 1265.47 459.708
134 0 60.1358 13.4695 810 157.307 1266.24 460.647
135 0 65.1443 16.6093 1082 150.201 1267.55 458.548
136 0 68.0931 16.2131 1104 150.941 1269.41 455.908
137 0 70.0964 15.122 1060 153.071 1269.55 456.643
138 0 72.0935 16.8393 1214 150.742 1270.42 455.986
139 0 76.0808 14.5503 1107 155.43 1270.7 456.928
140 0 79.1207 16.0388 1269 151.293 1270.73 457.452
141 0 78.2882 15.5196 1215 151.616 1269.69 460.765
142 0 82.2191 14.9965 1233 155.994 1270.22 454.873
143 0 82.1511 12.3553 1015 162.487 1269.02 455.737
144 0 87.227 16.3252 1424 152.081 1268.53 457.111
145 1 43.0848 8.81981 380 160.976 1267.97 474.732
146 0 47.0908 12.6776 597 152.809 1267.09 473.136
147 0 48.2056 12.6956 612 148.301 1265.07 476.565
148 0 50.1565 11.2448 564 151.551 1263.62 473.298
149 0 54.1975 13.4324 728 146.295 1262 472.625
150 0 55.2613 11.527 637 149.206 1258.71 471.849
151 0 56.2096 12.3289 693 146.235 1257.08 468.362
152 0 59.2676 14.0211 831 142.779 1256.78 467.301
153 0 62.2266 17.1149 1065 135.77 1255.33 464.9
154 0 64.0735 16.2782 1043 138.613 1254.45 464.484
155 0 66.1392 14.0159 927 142.125 1252.93 464.46
156 0 66.1795 12.9043 854 145.004 1252.53 460.123
157 0 68.0732 12.5747 856 146.446 1251.84 455.66
158 0 71.116 15.4396 1098 140.437 1251.39 454.138
159 0 74.0916 13.4698 998 144.315 1251.15 451.594
160 0 76.1713 11.054 842 147.308 1251 451.297
161 0 80.3001 14.9315 1199 138.315 1253.16 448.882
162 0 82.4078 14.1006 1162 140.884 1254.67 443.704
163 0 84.4966 12.6159 1066 143.434 1255.04 444.76
164 0 87.5829 11.726 1027 143.512 1256.22 446.361
165 1 47.182 13.5857 641 130.755 1258.57 467.321
166 0 46.1951 14.3089 661 135.64 1258.66 465.944
167 0 47.2171 12.5378 592 139.071 1260.67 465.89
168 0 49.0371 15.0498 738 131.435 1262.49 469.168
169 0 51.0885 14.8957 761 135.912 1263.71 465.859
170 0 51.1963 14.1807 726 137.999 1264.73 466.302
171 0 54.2171 15.6962 851 134.49 1264.81 466.099
172 0 52.3476 10.9269 572 143.509 1265.41 468.205
173 0 55.2177 14.47 799 137.751 1266.78 468.153
174 0 55.1603 12.6903 700 142.089 1266.34 465.376
175 0 58.4672 11.6305 680 141.694 1265.31 470.104
176 0 63.4444 17.2119 1092 130.616 1264.6 470.359
177 0 63.2964 15.5459 984 136.862 1264.22 467.396
178 0 64.3058 14.3999 926 139.514 1263.3 467.021
179 0 67.3555 16.8509 1135 135.279 1262.64 466.008
180 0 69.4338 13.4805 936 142.301 1261.7 466.554
181 0 71.3037 17.4044 1241 135.572 1260.94 461.932
182 0 72.1984 15.3604 1109 144.271 1259.37 459.32
183 0 74.3246 12.4589 926 148.198 1258.06 462.673
184 0 75.4 12.8117 966 148.69 1256.93 460.163
185 0 78.5225 14.5691 1144 145.773 1255.66 457.044
186 0 82.5726 12.9825 1072 147.503 1254.98 453.349
187 0 82.4528 12.4314 1025 148.346 1254 456.028
188 0 85.4303 14.0934 1204 145.586 1253.77 451.018
189 0 88.49 13.9225 1232 145.221 1252.45 447.074
190 1 44.1702 9.53131 421 144.01 1252.66 463.143
191 0 49.2671 11.9146 587 135.986 1252.4 463.288
192 0 50.1487 11.0073 552 138.004 1252.06 461.187
193 0 52.1353 13.7143 715 134.076 1252.3 468.19
194 0 52.0968 14.2235 741 136.628 1252.47 462.47
195 0 55.1289 14.33 790 135.671 1253.31 463.628
196 0 58.2276 13.9281 811 136.747 1253.95 459.671
197 0 59.2151 13.375 792 139.087 1255.53 459.773
198 0 59.1988 11.7908 698 142.96 1256.68 459.036
199 0 61.3927 15.8325 972 136.751 1257.97 456.261
200 0 62.1931 13.6832 851 141.018 1260.38 453.597
201 0 65.1809 13.2861 866 140.128 1262.78 455.189
202 0 66.1584 14.5862 965 137.359 1263.62 457.101
203 0 66.1584 14.7525 976 132.185 1264.63 457.112
204 0 78.451 15.9463 1251 129.656 1266.92 460.852
205 0 76.1185 17.1312 1304 131.028 1267.33 458.338
206 0 77.3376 17.2232 1332 132.611 1267.04 455.61
207 0 81.3962 18.539 1509 128.614 1267 458.603
208 1 43.0658 11.7262 505 135.842 1266.66 474.21
209 0 44.0478 14.2572 628 132.787 1267.63 472.791
210 0 45.0633 10.2966 464 139.114 1267.43 474.703
211 0 46.0719 11.8076 544 137.608 1267.08 474.809
212 0 47.0253 9.56931 450 141.264 1265.92 474.747
213 0 50.3846 15.6794 790 130.059 1261.43 473.486
214 0 51.0577 14.3171 731 132.591 1263.33 472.955
215 0 52.1238 14.9644 780 134.265 1258.29 474.885
216 0 54.1374 13.9645 756 136.919 1257.28 474.622
217 0 56.0762 14.9796 840 136.304 1255.49 471.261
218 0 58.0809 15.84 920 135.39 1254.68 470.362
219 0 60.0668 14.7003 883 136.148 1253.15 469.119
220 0 59.1619 14.0969 834 138.502 1252.31 467.576
221 0 61.0999 10.4419 638 146.033 1250.76 467.68
222 0 65.111 12.1485 791 141.785 1250.64 467.31
223 0 69.3064 14.7172 1020 137.953 1252.66 461.87
224 0 69.2108 12.7003 879 143.187 1251.44 461.237
225 0 71.2557 12.2236 871 145.633 1251.73 455.994
226 0 75.3233 14.7099 1108 139.977 1251.29 455.266
227 0 75.3544 13.3901 1009 144.964 1251.62 450.558
228 1 43.0701 11.7251 505 139.061 1253.42 470.014
229 0 45.093 11.2434 507 140.446 1254.05 470.278
230 0 43.1123 9.97395 430 146.967 1255.25 467.67
231 0 48.0778 11.6894 562 138.877 1256.36 469.141
232 0 46.0407 11.9242 549 144.056 1257.89 463.849
233 0 50.0411 13.6887 685 140.044 1260.2 463.705
234 0 52.108 13.2417 690 140.859 1262.01 465.317
235 0 53.0317 13.9728 741 137.058 1263.79 466.097
236 0 54.0227 12.032 650 142.272 1265.69 466.514
237 0 56.1179 13.9884 785 138.875 1266.73 466.136
238 0 57.1466 12.1267 693 145.104 1267.67 464.543
239 0 59.0721 16.099 951 135.53 1267.85 466.902
240 0 60.0712 16.4971 991 140.903 1268.68 464.43
241 0 59.0892 13.6065 804 147.897 1268.03 465.641
242 0 64.3343 14.8443 955 143.942 1267.77 468.184
243 0 61.0972 11.0971 678 153.968 1267.43 464.624
244 0 68.1744 13.6415 930 146.204 1265.91 469.135
245 0 71.1205 17.4492 1241 138.729 1265.58 467.254
246 0 73.2068 11.9388 874 148.796 1263.74 467.446
247 0 74.1561 13.7143 1017 146.573 1263.09 465.415
248 0 77.1105 13.565 1046 147.691 1261.93 464.645
249 1 43.1674 12.3473 533 134.199 1260.9 485.114
250 0 46.1068 11.3649 524 142.96 1260.16 480.252
251 0 45.1827 12.0179 543 142.619 1258.65 480.107
252 0 45.0647 11.8053 532 149.506 1258.45 473.902
253 0 47.0734 13.0222 613 143.703 1256.57 475.718
254 0 49.1719 13.6867 673 145.232 1255.01 474.227
255 0 51.0989 14.3643 734 141.142 1254.17 470.941
256 0 53.3087 16.0199 854 136.807 1253.76 468.64
257 0 55.299 14.2136 786 140.184 1253.24 470.538
258 0 57.1416 21.333 1219 127.516 1252.9 466.931
259 0 60.2832 18.496 1115 133.782 1251.94 463.728
260 0 59.2939 14.3185 849 145.753 1251.81 461.839
261 0 60.2484 15.3199 923 143.215 1251.89 461.351
262 0 64.289 16.2392 1044 138.78 1252.76 462.462
263 0 65.1207 16.5539 1078 140.617 1253.31 457.646
264 0 65.1857 15.2334 993 144.434 1254.36 458.823
265 0 69.239 18.3278 1269 137.127 1256.44 457.095
266 0 73.1851 17.3259 1268 139.898 1258.43 456.524
267 0 73.3874 14.2531 1046 146.782 1259.91 456.478
268 0 76.3536 15.3758 1174 143.63 1261.83 453.9
269 0 81.1368 19.3007 1566 134.211 1263.59 454.912
270 0 82.4821 15.7246 1297 143.201 1264.86 454.2
271 1 48.0794 15.9944 769 139.511 1266.78 471.919
272 0 45.0406 11.4785 517 149.329 1267.59 471.42
273 0 48.0675 10.6309 511 151.002 1267.71 472.292
274 0 52.0674 15.864 826 140.329 1267.51 471.016
275 0 52.0306 14.4915 754 143.944 1267.32 471.2
276 0 55.3833 15.3295 849 141.786 1263.21 469.078
277 0 54.1103 15.9674 864 142.382 1261.86 470.422
278 0 54.1472 12.8169 694 152.736 1260.85 472.102
279 0 57.0562 13.9862 798 147.966 1260.33 474.273
280 0 58.0334 14.2676 828 148.165 1259.51 473.446
281 0 61.0259 16.452 1004 144.259 1257.7 471.722
282 0 63.026 18.1512 1144 143.006 1256.9 470.179
283 0 64.0593 12.1606 779 152.177 1255.32 472.659
284 0 66.0786 16.662 1101 144.755 1254.27 470.113
285 0 68.1298 16.9089 1152 148.099 1252.85 463.847
286 0 68.1298 16.9383 1154 145.641 1251.9 463.944
287 0 74.1223 17.8489 1323 145.595 1250.45 463.76
288 0 76.0931 14.3246 1090 154.436 1248.98 460.616
289 0 78.107 16.3494 1277 148.76 1247.43 462.656
290 0 81.1123 18.4929 1500 147.368 1246.9 457.519
291 0 84.1337 16.9611 1427 151.982 1246.37 453.331
292 1 41.0145 12.2883 504 153.696 1245.83 474.669
293 0 44.0171 14.0627 619 149.309 1245.99 473.633
294 0 48.0566 12.4645 599 152.058 1246.37 473.104
295 0 47.051 13.241 623 152.284 1246.88 469.188
296 0 50.1958 16.854 846 144.742 1248.76 470.76
297 0 50.1232 12.2299 613 160.268 1250.18 466.742
298 0 51.1887 17.289 885 150.602 1251.5 467.024
299 0 53.1121 13.9893 743 157.629 1252.85 466.734
300 0 55.0656 16.5802 913 151.693 1255.5 466.056
301 0 55.0656 16.5621 912 145.409 1258.51 466.068
302 0 58.0906 16.7325 972 153.141 1257.99 463.234
303 0 57.2841 14.6638 840 158.511 1260.98 463.918
304 0 63.076 18.0893 1141 146.641 1261.42 464.517
305 0 63.0901 14.7725 932 156.246 1261.78 463.867
306 0 68.1326 16.4239 1119 151.169 1262.77 463.349
307 0 68.1956 15.8368 1080 153.837 1263.25 463.939
308 0 72.1569 16.6859 1204 151.373 1262.38 463.873
309 0 74.2082 15.9282 1182 154.261 1262.22 463.393
310 0 75.1303 15.706 1180 156.994 1261.71 462.424
311 0 81.1873 18.1309 1472 150.965 1261.26 461.906
312 1 39.0615 9.60025 375 164.245 1260.18 482.048
313 0 42.0569 11.4607 482 155.442 1258.8 484.046
314 0 43.0182 14.8309 638 152.806 1257.5 480.428
315 0 45.0811 16.2596 733 149.012 1256.4 480.917
316 0 46.1152 11.7098 540 159.454 1255.43 479.881
317 0 47.1462 15.9928 754 151.395 1256.45 478.037
318 0 48.1585 11.7529 566 151.097 1255.05 475.943
319 0 46.1502 12.221 564 154.199 1254.25 473.72
320 0 47.0344 11.3959 536 161.739 1250.69 475.989
321 0 50.0184 15.0345 752 152.044 1250.03 473.414
322 0 54.0927 15.0483 814 149.676 1248.61 472.638
323 0 54.0335 15.2498 824 150.155 1248.98 473.235
324 0 55.1228 13.6241 751 152.905 1249.81 470.236
325 0 55.0413 14.3347 789 152.876 1251.03 464.445
326 0 60.1078 15.5886 937 147.564 1251.51 465.057
327 0 61.1052 14.5978 892 151.459 1252.07 462.439
328 0 63.1247 15.81 998 146.487 1251.09 463.729
329 0 64.0849 14.6992 942 149.683 1250.65 460.714
330 0 65.0552 12.3126 801 154.77 1252.78 461.442
331 0 66.1078 12.6763 838 155.51 1253.64 457.436
332 0 71.1462 14.7021 1046 148.875 1255.42 458.559
333 0 74.0598 16.3247 1209 145.767 1257.27 455.351
334 0 76.1791 15.306 1166 148.19 1259.52 456.722
335 0 78.1293 15.1928 1187 148.37 1262.01 454.186
336 0 79.1506 14.1502 1120 151.641 1263.18 452.848
337 1 41.0259 13.9181 571 146.492 1264.08 475.48
338 0 46.0618 14.0029 645 145.567 1265.12 475.057
339 0 44.0794 11.207 494 152.52 1265.42 475.348
340 0 45.0549 11.7856 531 151.9 1266.82 475.286
341 0 45.1296 13.0291 588 149.09 1266.31 476.022
342 0 50.0903 14.7733 740 145.257 1265.3 472.501
343 0 51.0303 13.3254 680 148.166 1264.1 473.49
344 0 54.0255 12.5126 676 146.604 1260.91 477.351
345 0 57.1659 15.7437 900 139.26 1260.4 476.591
346 0 57.1206 16.4214 938 140.842 1261.8 474.081
347 0 58.0972 17.333 1007 139.561 1260.66 472.44
348 0 61.1694 14.2391 871 145.537 1258.7 472.646
349 0 62.2422 13.817 860 146.68 1258.82 470.321
350 0 66.2568 12.527 830 148.486 1257.46 469.007
351 0 68.216 14.9672 1021 144.131 1256.09 466.913
352 0 67.228 15.1871 1021 134.805 1254.1 466.969
353 0 73.251 15.1943 1113 143.694 1253.6 463.949
354 0 71.2555 13.206 941 150.739 1252.65 460.508
355 0 76.2663 13.1251 1001 149.049 1252.26 464.051
356 0 82.2276 16.88 1388 140.708 1252.06 461.324
357 0 83.3352 15.5516 1296 145.405 1250.31 454.358
358 1 43.0405 8.87536 382 152.754 1251.53 476.283
359 0 44.1275 10.8549 479 149.729 1251.22 475.772
360 0 46.066 12.2867 566 149.353 1251.76 472.924
361 0 45.0387 9.70277 437 156.169 1251.9 471.888
362 0 46.0489 13.0513 601 150.201 1252.57 469.268
363 0 47.1398 13.8948 655 148.379 1250.07 466.125
364 0 52.0835 15.2255 793 146.055 1249.7 466.876
365 0 54.0215 15.4568 835 145.818 1251.96 466.988
366 0 53.0565 14.6259 776 149.941 1253.71 465.175
367 0 56.0991 15.5796 874 146.735 1255.86 466.914
368 0 58.0618 15.9485 926 146.571 1258.37 464.087
369 0 60.0281 16.2924 978 145.492 1259.67 463.559
370 0 63.1025 18.2719 1153 140.329 1260.44 464.981
371 0 66.0644 18.1489 1199 140.839 1262.34 464.054
372 0 66.0429 18.6545 1232 139.259 1262.19 467.752
373 0 66.0429 18.5637 1226 132.529 1262.19 467.702
374 0 72.1411 15.4697 1116 149.014 1261.4 462.33
375 0 73.2172 15.5701 1140 149.976 1260.99 461.677
376 0 78.3309 16.558 1297 145.231 1261.27 463.926
377 0 79.1852 15.3564 1216 150.448 1260.87 460.721
378 1 42.0527 11.9612 503 149.167 1259.57 480.626
379 0 43.0997 12.1347 523 144.164 1258.13 483.948
380 0 46.2624 10.7431 497 151.479 1257.73 480.682
381 0 44.0463 11.3971 502 148.936 1256.82 482.028
382 0 46.1861 15.4159 712 143.975 1255.54 477.768
383 0 46.0565 14.2434 656 147.569 1254.55 476.963
384 0 48.0262 13.2428 636 149.914 1253.03 474.013
385 0 51.1244 14.5332 743 146.361 1252.32 475.326
386 0 49.2775 13.9617 688 147.423 1253.12 472.974
387 0 53.3401 13.967 745 144.534 1250.25 474.203
388 0 54.211 13.263 719 146.3 1249.87 471.446
389 0 54.2333 14.2901 775 145.249 1249.56 468.665
390 0 57.2551 13.8328 792 145.247 1248.39 469.13
391 0 60.1924 14.6862 884 142.672 1248.53 468.588
392 0 63.2319 15.6725 991 141.863 1248.03 466.205
393 0 66.1892 13.6578 904 146.177 1247.7 463.262
394 0 67.3135 13.8754 934 146.684 1248.53 463.084
395 0 67.3212 13.8887 935 145.441 1248.53 463.188
396 0 71.168 16.2151 1154 140.782 1250.05 460.505
397 0 73.2794 15.8571 1162 142.388 1251.67 458.327
398 1 40.0941 14.1667 568 138.757 1251.23 475.377
399 0 43.056 10.916 470 145.996 1252.84 474.519
400 0 43.056 10.8696 468 153.229 1253.84 474.374
401 0 44.1958 13.9606 617 139.209 1255.9 475.138
402 0 47.1757 12.6336 596 145.564 1257.47 470.424
403 0 47.4131 11.9376 566 146.599 1259.83 470.998
404 0 49.4206 14.6093 722 142.964 1261.7 471.607
405 0 50.5181 15.7765 797 141.593 1261.66 468.615
406 0 53.3537 16.6811 890 138.73 1261.72 471.931
407 0 54.6366 12.0798 660 144.259 1262.19 475.621
408 0 58.3858 13.3937 782 141.715 1261.92 473.124
409 0 61.3549 16.8039 1031 136.03 1261.76 471.321
410 0 58.2926 12.1971 711 146.124 1261.17 472.93
411 0 64.3576 15.8645 1021 139.623 1260.84 469.593
412 0 63.4981 13.087 831 145.215 1259.83 469.446
413 0 65.361 15.9728 1044 142.115 1258.69 466.142
414 0 72.2634 16.8689 1219 136.839 1257.1 468.82
415 0 68.2466 14.3157 977 161.771 1256.27 465.389
416 0 76.2191 15.8753 1210 140.993 1255.35 465.967
417 0 78.3162 16.0376 1256 142.287 1253.87 462.29
418 0 78.1655 16.529 1292 142.464 1252.79 459.796
419 1 40.0481 10.9369 438 143.007 1250.02 481.735
420 0 46.0756 10.5045 484 140.812 1249.38 481.089
421 0 43.1566 10.0796 435 145.788 1248.74 477.674
422 0 45.1738 10.0943 456 147.134 1248.49 474.022
423 0 46.0368 12.5986 580 143.128 1247.89 474.922
424 0 48.2689 11.9746 578 143.358 1248.15 472.092
425 0 53.7866 12.8842 693 138.263 1249.72 467.651
426 0 52.439 12.1856 639 145.451 1248.8 462.638
427 0 54.3266 15.4436 839 140.002 1248.28 465.013
428 0 53.1136 14.3466 762 144.394 1246.98 464.462
429 0 57.114 16.2132 926 139.152 1248.59 465.426
430 0 63.0462 16.8289 1061 133.993 1249.61 465.451
431 0 60.0627 12.8865 774 145.066 1250.75 463.944
432 0 68.783 17.9696 1236 130.315 1253.48 464.702
433 0 66.2443 15.7749 1045 137.313 1254.7 463.792
434 0 67.1334 14.8659 998 140.025 1256.94 461.919
435 0 71.0784 16.728 1189 136.02 1259.46 462.789
436 0 72.0563 16.154 1164 138.423 1260.39 459.094
437 0 74.1201 16.163 1198 139.243 1261.64 459.622
438 0 77.1119 15.0042 1157 141.505 1262.06 458.646
439 0 81.0977 16.4246 1332 138.764 1262.78 458.836
440 0 81.1056 15.7572 1278 140.192 1262.85 460.692
441 1 46.049 8.88185 409 146.905 1261.95 478.447
442 0 48.1533 11.2765 543 146.324 1261.76 476.188
443 0 48.245 12.1463 586 148.015 1261.41 474.597
444 0 50.0904 13.9747 700 141.996 1260.53 474.449
445 0 53.06 10.9876 583 145.396 1259.68 477.566
446 0 51.1187 12.3438 631 142.057 1260.26 471.867
447 0 55.2933 13.8534 766 138.744 1258.52 471.232
448 0 57.0863 13.0329 744 139.788 1259.79 475.973
449 0 57.2444 12.3156 705 141.696 1258.71 473.818
450 0 61.1629 17.1182 1047 133.465 1257.12 472.046
451 0 60.366 14.3292 865 140.003 1255.79 472.358
452 0 64.3552 14.0781 906 138.981 1254.61 468.134
453 0 66.3595 14.3612 953 138.978 1253.6 468.636
454 0 67.1465 12.8972 866 142.875 1252.65 467.204
455 0 68.3695 10.5018 718 146.98 1251.63 468.338
456 0 72.2855 15.757 1139 136.715 1250.62 465.039
457 0 74.2363 13.5917 1009 143.407 1250.7 458.648
458 0 75.3797 14.0887 1062 142.98 1249.55 458.375
459 0 79.3067 14.1602 1123 141.386 1249.17 457.895
460 0 81.283 12.8071 1041 143.307 1249.83 456.068
461 1 46.0334 12.0999 557 138.296 1250.85 472.969
462 0 51.1764 10.4149 533 140.523 1251.59 471.109
463 0 49.1496 12.8994 634 138.8 1252.51 469.32
464 0 50.1457 11.0279 553 143.177 1254.05 468.573
465 0 53.4443 15.4928 828 139.494 1254.46 463.754
466 0 52.313 14.9867 784 134.014 1255.18 465.413
467 0 57.3892 14.6543 841 133.574 1257.89 465.448
468 0 57.1638 13.5575 775 141.561 1261.3 465.903
469 0 58.1639 15.9549 928 136.945 1263.49 467.72
470 0 59.1619 15.7534 932 137.778 1265.49 467.626
471 0 62.2012 13.6493 849 143.753 1265.6 466.014
472 0 65.2062 18.0811 1179 134.28 1266.18 465.884
473 0 64.3038 15.8622 1020 138.674 1265.86 466.844
474 0 68.1362 15.2342 1038 139.615 1266.63 463.208
475 0 71.1028 14.3736 1022 139.967 1266.71 465.826
476 0 73.1667 14.3508 1050 140.86 1266.22 465.008
477 0 75.099 14.7938 1111 141.342 1265.2 460.951
478 0 77.1903 14.8335 1145 141.117 1264.36 461.189
479 0 84.2303 14.8521 1251 137.255 1264.23 463.67
480 0 82.2159 16.7851 1380 137.076 1261.86 462.462
481 0 87.2265 15.7865 1377 138.829 1261.8 458.264
482 1 46.1143 15.2013 701 131.324 1259.91 477.476
483 0 46.1756 9.61547 444 142.074 1258.49 475.827
484 0 44.1056 10.8603 479 131.399 1257.52 476.324
485 0 52.206 12.7571 666 135.565 1255.73 473.874
486 0 46.1255 10.6449 491 146.024 1255.09 469.511
487 0 54.1134 13.0836 708 135.716 1253.17 471.876
488 0 57.0682 16.0685 917 128.453 1252.08 467.558
489 0 54.0639 12.7072 687 135.911 1252.38 464.275
490 0 59.1974 15.4399 914 129.788 1252.3 465.224
491 0 59.1844 15.4095 912 129.591 1251.64 465.496
492 0 61.1711 14.108 863 132.492 1251.58 462.568
493 0 64.1777 13.634 875 133.358 1251.52 460.393
494 0 66.084 16.3277 1079 129.316 1251.9 458.315
495 0 67.1728 15.1103 1015 131.61 1252.43 457.554
496 0 69.1443 14.26 986 133.296 1253.73 457.335
497 0 73.0984 16.1153 1178 131.226 1254.15 451.919
498 0 75.2514 13.528 1018 134.025 1256.33 458.063
499 0 77.1606 12.3249 951 139.231 1257.8 451.484
500 0 80.1452 15.1475 1214 134.093 1260.35 452.825
501 1 46.1577 13.2372 611 124.98 1262.59 475.1
502 0 47.0883 12.6358 595 131.941 1263.92 470.294
503 0 47.0531 10.2437 482 136.888 1266.01 469.693
504 0 49.1229 13.6596 671 130.562 1267.19 472.425
505 0 53.0483 12.5735 667 127.661 1266.4 476.024
506 0 55.1802 17.8506 985 123.702 1266.8 474.55
507 0 55.1217 15.4567 852 129.67 1267.51 473.178
508 0 56.0976 16.3643 918 127.346 1266.04 475.842
509 0 56.1029 16.1311 905 137.411 1265.01 475.701
510 0 57.2808 13.2505 759 134.549 1265.28 474.07
511 0 61.1725 12.2604 750 135.497 1263.29 474.5
512 0 62.0725 16.0135 994 132.342 1262.04 469.631
513 0 59.0898 10.9325 646 141.333 1261.41 472.203
514 0 65.4092 12.2766 803 139.528 1260.59 471.153
515 0 69.3406 16.3396 1133 132.888 1258.2 468.805
516 0 71.1642 13.1808 938 132.587 1256.07 474.43
517 0 73.3793 12.3332 905 138.335 1255.28 469.313
518 0 75.3747 16.146 1217 134.193 1253.98 464.817
519 0 78.2858 14.958 1171 136.67 1253.66 461.852
520 0 78.3018 15.0571 1179 136.475 1253.67 461.908
521 1 44.3048 12.3463 547 134.823 1251.31 474.243
522 0 45.2663 10.5818 479 136.933 1250.34 475.472
523 0 47.6172 11.8655 565 134.554 1250.17 472.858
524 0 47.0857 12.3392 581 131.535 1250.41 472.434
525 0 48.3032 13.6016 657 130.003 1251.93 468.901
526 0 48.1804 13.8646 668 135.057 1252.15 467.508
527 1 96.7264 15.8075 1529 139.065 1251.43 445.814
528 1 51.1418 13.5701 694 136.55 1253.11 466.222
529 0 53.3048 13.6386 727 135.996 1253.76 466.572
530 0 55.104 13.3929 738 135.534 1255.38 466.66
531 0 56.1732 13.583 763 133.634 1256.55 465.495
532 0 60.122 14.6702 882 131.494 1258.31 464.041
533 0 61.2018 13.5944 832 134.528 1260.92 464.156
534 0 62.2431 13.4312 836 137.865 1262.61 458.854
535 0 62.0965 10.8219 672 138.259 1263.84 466.595
536 0 68.3107 12.2821 839 138.052 1264.62 462.03
537 0 68.2256 15.1263 1032 133.64 1265.82 461.901
538 0 68.1399 15.5122 1057 133.403 1266.45 463.94
539 0 72.2145 14.3461 1036 135.67 1266.88 461.77
540 0 76.3748 12.5434 958 136.668 1267.39 465.507
541 0 77.3457 15.2303 1178 134.132 1266.37 464.25
542 1 41.0476 10.3295 424 138.988 1266.98 479.953
543 0 45.28 13.5601 614 129.117 1266.61 480.329
544 0 41.061 10.5453 433 139.485 1265.64 479.564
545 0 45.0682 13.4019 604 135.724 1263.86 478.139
546 0 46.3016 12.0298 557 137.722 1262.77 476.212
547 0 46.2683 13.4001 620 135.281 1260.19 470.556
548 0 45.4268 13.12 596 135.638 1256.43 478.951
549 0 47.2008 13.7498 649 136.134 1255.28 476.806
550 0 49.3326 15.811 780 132.268 1253.84 476.39
551 0 51.2564 13.1496 674 138.107 1253.12 473.255
552 0 53.5569 15.1241 810 133.672 1251.75 473.227
553 0 51.2655 10.5139 539 145.202 1251.17 472.15
554 0 55.4102 15.7733 874 133.509 1250.11 472.811
555 0 59.473 17.1843 1022 132.103 1249.54 469.4
556 0 58.244 17.7014 1031 133.167 1249.4 469.039
557 0 61.3714 14.8603 912 137.416 1248.77 466.346
558 0 61.3714 14.7789 907 131.409 1247.8 466.293
559 0 63.2646 17.0712 1080 135.74 1248.73 460.128
560 0 66.3784 16.3457 1085 138.681 1250.02 457.601
561 0 68.1669 16.4596 1122 139.392 1250.4 458.42
562 0 70.2325 15.2921 1074 141.49 1251.04 458.282
563 0 70.3198 14.9602 1052 145.474 1251.3 456.623
564 0 77.4052 16.8206 1302 140.886 1252.65 452.11
565 0 77.4248 17.6688 1368 131.319 1253.62 453.048
566 0 82.4018 19.951 1644 135.6 1256.47 451.246
567 0 84.3356 15.4502 1303 144.635 1258.64 450.014
568 0 84.3226 13.5077 1139 150.662 1260.31 450.166
569 0 88.547 16.5449 1465 142.484 1261.68 452.58
570 0 91.3124 16.9637 1549 143.466 1263.07 446.941
571 0 96.3048 17.8496 1719 140.751 1263.19 446.063
572 0 97.2206 15.0483 1463 142.373 1264.22 450.098
573 0 97.317 15.1053 1470 144.984 1264.81 446.414
574 0 97.3521 15.069 1467 147.423 1265.79 446.275
575 0 105.145 15.6071 1641 146.275 1263.45 443.759
576 0 109.356 18.8741 2064 138.288 1263.37 446.734
577 1 58.1498 9.49273 552 146.281 1262.85 473.482
578 0 59.2415 9.3178 552 146.13 1262.66 475.274
579 0 62.2439 11.0372 687 146.33 1261.07 470.769
580 0 66.3469 14.5749 967 137.569 1259.8 470.307
581 0 68.2977 13.6901 935 140.456 1258.7 469.209
582 0 68.253 15.5598 1062 136.605 1258.14 468.559
583 0 71.0706 14.6756 1043 140.7 1258.09 464.71
584 0 74.1577 15.3187 1136 138.704 1256.98 466.682
585 0 76.0678 16.0252 1219 137.34 1255.72 465.616
586 0 78.0971 13.5216 1056 142.779 1254.86 462.685
587 0 80.1559 15.4948 1242 139.176 1253.72 460.515
588 0 82.0802 13.9741 1147 144.013 1252.45 457.949
589 0 85.1238 13.8269 1177 146.575 1252.33 460.041
590 0 89.1893 18.0515 1610 140.016 1251.34 457.975
591 0 90.1959 12.4063 1119 149.961 1251.67 456.988
592 0 96.2006 15.3014 1472 143.564 1250.69 454.127
593 0 98.1348 13.0535 1281 148.815 1251.26 451.361
594 0 99.1194 12.601 1249 150.088 1251.18 446.826
595 0 106.236 16.1716 1718 141.848 1251.51 443.901
596 1 60.095 13.1625 791 137.105 1252.87 469.887
597 0 61.1664 15.4333 944 136.431 1253.95 464.271
598 0 64.5403 11.915 769 140.23 1254.45 464.655
599 0 63.1401 12.2743 775 135.335 1254.87 458.33
600 0 67.3497 14.0164 944 131.507 1257.16 461.255
601 0 68.2329 12.3547 843 134.587 1259.31 462.314
602 0 70.3125 11.7618 827 137.15 1259.39 459.485
603 0 72.2152 12.8366 927 135.414 1259.68 459.076
604 0 75.2047 12.3397 928 136.308 1259.17 459.915
605 0 79.2451 11.9377 946 137.076 1259.34 460.041
606 0 82.3128 12.7076 1046 136.783 1259.6 459.488
607 0 83.4474 13.2179 1103 136.798 1258.76 458.799
608 0 88.3028 14.5749 1287 132.482 1258.18 459.852
609 0 91.3291 13.3035 1215 134.763 1258.5 457.469
610 0 92.2578 14.1668 1307 134.339 1257.46 459.038
611 1 55.14 13.3478 736 122.298 1257.93 479.946
612 0 53.1562 11.137 592 127.427 1256.49 482.686
613 0 54.0448 13.5998 735 126.759 1255.9 476.873
614 0 58.2843 15.8533 924 128.001 1254.22 480.089
615 0 56.1917 10.4108 585 139.024 1248.39 476.576
616 0 60.1526 14.8123 891 130.632 1246.7 478.101
617 0 62.0804 14.8839 924 132.259 1245.93 473.982
618 0 65.0779 14.014 912 133.984 1245.21 473.512
619 0 65.0978 14.4859 943 133.035 1244.68 473.896
620 0 67.1424 17.6788 1187 130.987 1244 468.734
621 0 65.0782 13.7988 898 138.518 1243.31 469.362
622 0 72.1697 17.2649 1246 132.933 1242.8 465.102
623 0 72.0876 12.7206 917 139.773 1242.24 467.012
624 0 75.0923 15.8871 1193 136.952 1242.59 461.379
625 0 78.106 15.0437 1175 138.634 1242.85 460.796
626 0 78.106 14.954 1168 145.715 1242.83 460.61
627 0 84.1318 16.2602 1368 140.616 1244.04 452.567
628 0 86.2452 16.1748 1395 140.703 1245.1 453.247
629 0 86.2243 14.5087 1251 148.596 1245.99 455.192
630 0 92.2842 15.9941 1476 139.698 1248.25 450.591
631 0 96.1568 16.0987 1548 140.703 1249.1 445.432
632 1 50.1386 11.8472 594 142.044 1250.62 466.542
633 0 53.1547 13.3384 709 137.028 1252.89 467.671
634 0 57.0567 13.25 756 131.571 1254.75 472.679
635 0 56.1548 14.1573 795 130.269 1256.65 472.913
636 0 56.1203 13.2751 745 138.58 1257.64 470.715
637 0 56.1532 12.4837 701 139.642 1258.12 471.016
638 0 60.2102 14.1338 851 134.329 1259.4 472.854
639 0 61.1833 14.1052 863 131.838 1259.8 474.773
640 0 62.1819 11.788 733 137.75 1259.59 472.801
641 0 62.2261 13.7081 853 137.509 1259.26 469.882
642 0 68.209 13.0775 892 136.545 1258.56 469.152
643 0 69.3324 14.6396 1015 133.914 1257.86 468.373
644 0 71.2706 13.4558 959 135.661 1256.6 467.62
645 0 76.1972 14.4494 1101 131.302 1255.91 468.54
646 0 75.1873 13.5528 1019 134.367 1254.95 463.578
647 1 41.0379 10.2101 419 128.446 1254.48 484.52
648 0 43.0414 12.4299 535 126.993 1253.47 480.559
649 0 44.2139 13.1859 583 122.321 1251.65 482.316
650 0 45.1447 13.202 596 124.75 1250.32 478.567
651 0 42.3689 11.8247 501 126.99 1249.68 477.878
652 0 48.1818 13.9264 671 120.548 1247.91 477.31
653 0 48.1748 12.8906 621 124.275 1247.17 473.626
654 0 48.1889 11.6832 563 126.849 1246.35 471.764
655 0 50.2067 13.4843 677 122.774 1245.62 470.465
656 0 53.2569 12.9936 692 122.195 1245.14 470.301
657 0 55.3472 13.9302 771 120.646 1245.09 470.619
658 0 54.1523 12.7972 693 123.603 1245.34 468.758
659 0 58.3842 12.9316 755 123.334 1246.54 464.208
660 0 60.3121 15.055 908 119.438 1248.18 461.383
661 0 60.2696 14.4849 873 120.544 1248.15 464.745
662 0 64.4974 17.7527 1145 115.875 1249.94 460.206
663 0 65.512 15.2797 1001 119.836 1252.08 459.953
664 0 65.4147 15.1495 991 121.87 1253.11 457.761
665 0 69.2554 16.6918 1156 118.79 1255.55 459.521
666 0 69.4332 17.0812 1186 119.546 1257.66 459.769
667 0 72.3564 15.9212 1152 122.057 1258.99 458.839
668 0 74.2749 16.2908 1210 121.18 1261.87 459.926
669 0 77.4493 15.6877 1215 123.598 1261.98 458.074
670 0 80.4311 19.7436 1588 115.44 1263.13 459.885
671 0 81.359 17.5027 1424 120.495 1263.55 455.552
672 0 83.4177 15.6562 1306 122.84 1264.23 462.093
673 1 44.1023 13.0832 577 121.948 1263.32 481.965
674 0 48.2634 13.302 642 124.184 1263.14 478.52
675 0 49.2597 14.1089 695 121.308 1262.05 481.505
676 0 47.0713 11.217 528 129.097 1261.11 478.585
677 0 51.0661 14.0994 720 123.346 1259.55 480.231
678 0 51.1414 17.8916 915 120.414 1258.5 476.711
679 0 52.4704 16.6951 876 122.747 1259.49 475.487
680 0 55.085 18.3898 1013 119.686 1255.01 475.691
681 0 52.0313 11.2625 586 133.114 1253.55 474.809
682 0 59.0533 15.5622 919 124.531 1252.23 472.461
683 0 57.1818 11.717 670 132.309 1250.56 471.306
684 0 62.101 13.4619 836 127.624 1250.08 469.687
685 0 63.1884 13.6892 865 126.474 1248.48 470.038
686 0 67.1621 15.4105 1035 125.916 1247.78 465.815
687 0 68.0788 14.3804 979 127.849 1247.06 465.248
688 0 67.1619 14.264 958 127.184 1246.69 465.06
689 0 71.085 14.0958 1002 129.841 1246.12 462.455
690 0 70.0834 15.1676 1063 129.418 1245.6 459.774
691 0 71.0657 11.2994 803 136.421 1246.54 458.406
692 0 73.1341 14.7811 1081 130.667 1246.93 454.409
693 0 77.2532 12.5691 971 134.316 1247.74 454.015
694 0 79.1173 14.9778 1185 130.547 1249.1 451.384
695 0 86.279 14.5227 1253 129.29 1250.1 453.56
696 0 86.2289 13.6613 1178 130.782 1251.68 453.498
697 1 44.0609 11.9607 527 133.159 1252.09 467.416
698 0 45.1023 11.3076 510 131.341 1254.34 470.596
699 0 47.0502 14.1764 667 129.196 1256.39 464.607
700 0 49.0368 12.9087 633 128.229 1258.53 471.13
701 0 50.0405 13.7489 688 129.533 1259.17 467.193
702 0 50.1374 13.2835 666 129.859 1261.09 468.79
703 0 55.2151 13.5651 749 127.741 1261.49 469.259
704 0 54.2007 15.4795 839 125.061 1261.42 469.639
705 0 55.1851 12.5215 691 130.375 1261.4 468.624
706 0 60.2763 16.2419 979 123.934 1261.59 466.72
707 0 60.1123 13.8075 830 128.559 1261.13 467.992
708 0 64.2288 14.8376 953 125.371 1260.66 469.641
709 0 66.1462 16.7961 1111 124.197 1260.47 465.477
710 0 67.0741 17.5329 1176 123.094 1259 464.729
711 0 70.1629 14.3523 1007 128.251 1257.51 467.126
712 0 73.2436 16.3154 1195 126.51 1256.36 466.608
713 0 76.2922 16.4237 1253 125.768 1255.49 465.33
714 0 76.4149 18.465 1411 124.536 1254.41 461.877
715 0 79.1829 15.6221 1237 128.438 1252.82 461.669
716 0 77.2701 11.0392 853 137.018 1251.75 458.95
717 0 83.2385 16.0142 1333 127.927 1250.73 461.154
718 0 86.3408 18.647 1610 125.316 1250.43 455.901
719 0 88.345 16.4016 1449 129.344 1248.69 454.271
720 0 90.3363 14.756 1333 132.604 1247.44 450.985
721 0 95.5007 19.1726 1831 126.61 1247.63 449.576
722 0 96.2905 14.1239 1360 135.128 1247.36 450.901
723 1 53.0543 15.6821 832 131.476 1246.25 467.535
724 0 54.3316 10.7672 585 140.082 1248.52 466.482
725 0 56.2638 15.2674 859 133.38 1248.6 464.352
726 0 56.2405 12.6955 714 138.754 1248.54 462.605
727 0 60.3959 16.872 1019 130.546 1249.59 460.513
728 0 63.0871 12.5858 794 136.322 1250.16 463.664
729 0 64.2038 16.2607 1044 131.852 1251.36 460.472
730 0 65.1128 16.7709 1092 133.114 1253.99 460.711
731 0 68.1112 15.2104 1036 135.074 1256.19 459.958
732 0 72.2532 14.5738 1053 136.31 1258.38 460.697
733 0 75.4219 16.7591 1264 133.219 1258.38 459.242
734 0 76.1218 15.4752 1178 133.244 1259.5 464.035
735 0 77.1395 12.5876 971 140.513 1261.24 462.564
736 1 42.064 16.0232 674 128.166 1261.7 480.755
737 0 47.0906 12.4229 585 132.07 1261.78 482.077
738 0 45.0361 11.8794 535 133.361 1260.42 481.256
739 0 47.0867 11.5744 545 133.545 1259.74 483.384
740 0 46.0168 10.1702 468 141.184 1259.06 477.423
741 0 52.1055 14.1252 736 133.238 1257.29 481.516
742 0 55.0567 16.8553 928 128.578 1257.1 483.042
743 0 54.0362 17.0626 922 142.792 1257.08 482.675
744 0 60.0454 16.9872 1020 130.12 1253.82 480.251
745 0 60.1618 17.802 1071 130.134 1252.69 479.104
746 0 62.1078 18.8382 1170 127.862 1251.53 480.578
747 0 62.091 15.0585 935 139.035 1250.24 472.536
748 0 65.0592 15.678 1020 135.825 1249.08 475.421
749 0 67.1826 16.0309 1077 136.481 1247.81 474.523
750 0 70.0848 15.1245 1060 137.96 1246.67 474.83
751 0 69.1155 14.0924 974 142.84 1246.72 470.927
752 0 74.1044 16.9761 1258 136.733 1245.26 467.791
753 0 73.084 16.1047 1177 138.932 1245.47 469.558
754 0 76.2062 16.8359 1283 137.817 1244.71 468.148
755 0 80.1235 17.6977 1418 135.401 1245.04 467.642
756 0 80.4532 17.5133 1409 138.005 1246.06 464.06
757 0 82.4613 16.5168 1362 138.976 1245.43 464.167
758 0 85.298 16.1786 1380 142.007 1246.62 458.541
759 0 85.298 16.1551 1378 157.998 1246.61 458.411
760 0 88.4362 16.7691 1483 139.79 1247.61 458.205
761 0 94.4525 18.8772 1783 136.886 1249.97 454.793
762 1 51.0777 14.0962 720 137.058 1249.99 476.722
763 0 52.1518 10.5461 550 144.176 1251.1 474.911
764 0 52.0931 9.579 499 143.022 1252.33 479.208
765 0 54.0566 13.9113 752 138.98 1254.12 474.746
766 0 56.1549 14.9408 839 136.728 1255.22 473.733
767 0 55.1652 13.2874 733 138.442 1258.2 469.51
768 0 58.1948 13.3517 777 135.38 1258.15 473.629
769 0 57.0413 12.2718 700 138.744 1259.13 472.506
770 0 63.1809 18.0751 1142 132.571 1258.08 476.545
771 0 64.1191 17.9198 1149 133.073 1257.34 474.134
772 0 66.0809 14.6487 968 137.49 1257.3 476.575
773 0 66.0709 16.452 1087 133.56 1257.63 480.365
774 0 66.2075 13.6843 906 142.268 1256 477.402
775 0 73.1375 19.5522 1430 130.587 1254.54 478.053
776 0 75.1147 14.2449 1070 138.424 1253.89 480.496
777 0 76.2476 16.6038 1266 137.224 1252.92 476.859
778 0 79.1249 11.6019 918 146.961 1250.76 474.011
779 0 85.2682 20.8753 1780 129.457 1249.22 473.997
780 0 88.1688 16.321 1439 138.744 1248.56 469.593
781 0 88.138 20.1162 1773 134.653 1247.41 465.909
782 0 94.2068 17.1007 1611 139.67 1246.07 457.838
783 1 45.1082 12.7693 576 143.134 1245.64 482.946
784 0 50.1577 13.4974 677 141.081 1243.91 480.511
785 0 50.0493 14.8654 744 138.411 1244.48 481.086
786 0 52.1385 13.3491 696 143.052 1242.92 477.264
787 0 52.0596 15.3862 801 141.277 1242.13 475.17
788 0 57.0671 17.1377 978 135.662 1241.65 475.221
789 0 58.041 15.7992 917 137.284 1246.08 471.284
790 0 58.0829 15.805 918 138.453 1246.43 469.492
791 0 60.0605 16.8663 1013 135.598 1247.05 469.421
792 0 62.1818 17.0629 1061 136.69 1247.32 464.411
793 0 66.1401 17.4932 1157 134.85 1248.48 465.878
794 0 66.074 17.6015 1163 139.126 1249.09 462.557
795 0 69.1629 16.5117 1142 140.349 1250.63 461.623
796 0 70.2359 16.4731 1157 142.834 1252.44 459.652
797 0 74.1711 19.0101 1410 137.349 1254 456.399
798 0 75.126 15.6005 1172 145.718 1255.29 457.936
799 0 77.2772 16.8743 1304 142.602 1257.14 459.493
800 0 81.1818 16.5431 1343 144.548 1257.39 458.259
801 0 80.2109 16.6935 1339 146.772 1259.04 453.597
802 0 87.2615 18.8628 1646 140.625 1260.43 455.393
803 0 88.2503 19.3087 1704 138.866 1260.52 458.517
804 0 90.3194 19.0103 1717 140.972 1261.74 458.053
805 0 91.3292 18.4826 1688 144.669 1261.51 455.233
806 0 94.2928 19.6622 1854 143.263 1261.19 455.858
807 0 98.3285 17.0042 1672 148.803 1261.76 455.685
808 1 51.067 7.48038 382 159.898 1262.16 481.259
809 0 55.0707 10.7861 594 154.192 1259.92 481.444
810 0 57.0837 13.3488 762 149.51 1258.9 478.475
811 0 54.3794 11.1439 606 154.723 1256.78 478.045
812 0 58.2603 11.9635 697 150.809 1255.54 477.046
813 0 60.239 16.0527 967 145.633 1254.31 472.744
814 0 62.3353 16.4112 1023 143.038 1253.3 474.225
815 0 65.2062 17.4063 1135 139.566 1252.16 475.013
816 0 66.089 16.387 1083 144.005 1250.84 469.862
817 0 68.3455 15.1583 1036 145.4 1250.48 470.349
818 0 69.4417 14.2998 993 149.135 1249.93 466.228
819 0 74.349 20.202 1502 134.615 1249.46 466.439
820 0 75.3116 15.1769 1143 146.832 1248.93 461.312
821 0 77.4055 16.1487 1250 144.38 1248.34 459.03
822 0 80.4343 16.1374 1298 143.496 1248.27 458.898
823 0 81.3291 14.8286 1206 148.405 1248.41 456.495
824 0 86.2846 15.4141 1330 146.325 1248.8 455.466
825 0 89.2628 16.6475 1486 143.357 1249.62 453.83
826 0 90.329 15.8974 1436 147.024 1250.89 448.226
827 0 91.2833 15.063 1375 148.097 1251.52 451.459
828 0 95.2158 14.8505 1414 147.019 1253.13 449.249
829 1 51.0067 10.3124 526 144.753 1252.62 473.046
830 0 52.0435 15.2373 793 139.583 1255.68 467.29
831 0 55.2262 12.8743 711 143.322 1259.6 469.127
832 0 57.6056 15.5193 894 137.415 1258.65 467.315
833 0 61.4747 16.4295 1010 136.232 1260.55 466.94
834 0 61.0906 17.2858 1056 135.099 1260.8 469.654
835 0 62.1404 14.773 918 140.225 1260.48 471.926
836 0 66.1834 14.6865 972 139.842 1262.91 470.658
837 0 71.3076 16.1413 1151 135.52 1262.49 471.779
838 0 71.156 17.0611 1214 136.536 1262.7 469.257
839 0 74.0886 17.4791 1295 135.645 1261.44 472.454
840 0 76.1239 13.4912 1027 145.544 1262.28 471.708
841 0 79.2527 20.605 1633 130.045 1261.95 474.534
842 0 82.3806 20.5145 1690 130.898 1260.32 471.842
843 0 83.3854 14.8467 1238 141.67 1258.81 471.001
844 0 84.419 17.0815 1442 140.302 1258.2 466.949
845 0 88.2935 17.136 1513 140.601 1256.57 465.282
846 1 47.2336 13.4438 635 139.792 1255.19 485.428
847 0 49.2154 15.1578 746 135.39 1253.44 485.857
848 0 48.3992 17.7069 857 133.743 1254.19 479.851
849 0 51.6577 13.2797 686 134.691 1253.35 479.965
850 0 52.3815 15.7307 824 129.215 1250.74 477.996
851 0 53.2423 15.2698 813 130.096 1248.73 473.788
852 0 54.4492 14.7661 804 131.654 1248.56 474.562
853 0 56.2903 17.8716 1006 126.276 1248.23 472.608
854 0 58.1842 18.0461 1050 126.497 1248.27 471.383
855 0 59.2375 17.7084 1049 128.362 1247.84 468.332
856 0 60.2194 13.5338 815 136.248 1247.25 468.944
857 0 63.1193 14.0844 889 133.334 1248.37 469.136
858 0 62.0782 15.0778 936 135.448 1248.71 464.17
859 0 68.179 16.926 1154 130.323 1248.68 466.802
860 0 70.1518 14.041 985 133.729 1250.37 468.392
861 0 69.0797 16.3869 1132 134.406 1251.05 462.436
862 0 73.2557 14.4835 1061 136.715 1253.23 460.819
863 1 42.1211 12.013 506 131.571 1254.46 481.223
864 0 41.0986 8.0538 331 141.562 1255.48 481.767
865 0 40.0292 9.14334 366 141.801 1257.48 478.344
866 0 41.0612 11.7629 483 139.47 1259.07 478.288
867 0 46.0574 15.003 691 130.052 1259.92 481.906
868 0 46.0486 12.6171 581 134.797 1260.27 480.762
869 0 51.0683 14.9408 763 128.506 1261.53 480.49
870 0 50.1523 16.5895 832 130.155 1261.4 480.913
871 0 50.0456 15.6457 783 133.512 1261.66 479.794
872 0 54.2264 14.5686 790 133.151 1261.31 482.794
873 0 56.168 15.4714 869 131.55 1261.28 482.931
874 0 56.164 13.4072 753 137.448 1261.42 480.632
875 0 58.0829 18.9729 1102 126.985 1261.6 480.867
876 0 59.1386 13.4261 794 138.531 1259.45 479.797
877 0 61.2025 17.5156 1072 133.05 1257.62 477.422
878 0 64.1629 19.7934 1270 124.991 1255.87 482.933
879 0 68.1871 20.9717 1430 125.932 1255.5 476.392
880 0 69.2063 18.0186 1247 131.587 1253.56 475.055
881 0 71.1867 15.0169 1069 136.244 1251.96 477.874
882 0 72.2983 16.3213 1180 136.506 1251.55 472.379
883 0 74.1368 15.7682 1169 139.855 1250.2 468.087
884 0 73.048 15.1544 1107 140.452 1249 468.022
885 1 38.2865 12.1975 467 137.955 1249.04 483.951
886 0 40.069 11.4303 458 143.155 1246.71 480.939
887 0 44.0783 13.5668 598 134.605 1248.09 480.647
888 0 45.0555 13.0284 587 137.716 1247.45 478.635
889 0 43.1694 14.1072 609 140.604 1244.34 476.562
890 0 47.1017 14.2882 673 137.55 1246.57 473.796
891 0 48.1436 13.8336 666 138.071 1245.75 475.279
892 0 46.2394 12.5434 580 144.343 1247.83 473.141
893 0 52.1788 14.9103 778 135.048 1248.79 472.782
894 0 54.0657 17.4787 945 134.138 1250.19 472.303
895 0 55.0507 18.0561 994 132.496 1251.43 472.939
896 0 56.1115 14.8989 836 140.05 1253.42 469.312
897 0 57.1932 15.6487 895 138.111 1255.15 469.389
898 0 59.1113 16.2575 961 135.739 1257.54 470.04
899 0 62.3023 14.9112 929 137.342 1258.74 471.138
900 0 67.2615 18.9707 1276 129.06 1260.17 470.142
901 0 63.1353 17.5496 1108 133.283 1261.49 470.373
902 0 68.1658 16.3718 1116 135.352 1261.92 469.543
903 0 67.1623 15.7529 1058 149.97 1263.01 468.906
904 0 72.1927 18.0074 1300 133.145 1261.72 469.25
905 0 73.2161 18.4522 1351 132.989 1262.24 468.358
906 0 78.3782 16.4842 1292 134.317 1262.07 469.729
907 0 79.1265 16.1893 1281 135.752 1261.58 468.984
908 0 84.2533 20.4621 1724 128.054 1260.74 468.655
909 1 46.3656 14.8817 690 135.077 1260.79 487.025
910 0 42.1024 13.6097 573 142.93 1259.18 484.918
911 0 41.0466 15.6651 643 137.801 1258.39 486.857
912 0 46.158 12.5439 579 145.081 1256.67 482.58
913 0 50.1617 17.6429 885 136.344 1255.34 478.097
914 0 50.2169 18.5595 932 134.395 1254.27 478.849
915 0 52.0987 15.1443 789 140.584 1254.5 479.157
916 0 51.0743 17.1319 875 139.673 1252.91 477.471
917 0 56.1914 17.6717 993 137.228 1251.76 478.387
918 0 56.2913 16.9831 956 139.317 1250.19 476.64
919 0 57.1414 15.7854 902 142.064 1249.7 475.549
920 0 57.2075 19.001 1087 137.615 1249.34 473.434
921 0 62.1338 16.2231 1008 141.282 1248.97 472.716
922 0 62.2189 18.3385 1141 139.521 1249.51 471.141
923 0 61.2826 15.2572 935 147.841 1248.59 469.676
924 0 63.4727 14.715 934 151.195 1249.25 465.561
925 0 67.2381 16.7465 1126 144.71 1249.7 466.747
926 0 69.2211 14.2442 986 149.778 1250.23 465.631
927 0 71.327 15.3799 1097 149.28 1251.51 462.678
928 0 75.5256 15.3458 1159 151.717 1252.67 455.95
929 0 80.3668 18.9133 1520 142.766 1254.65 456.199
930 0 83.3842 19.7519 1647 141.777 1256.76 455.166
931 0 82.2911 19.1394 1575 145.899 1258.22 453.511
932 0 85.6847 19.3617 1659 144.893 1259.79 454.175
933 0 86.6752 15.4485 1339 155.973 1260.84 450.016
934 0 90.696 15.8111 1434 154.379 1261.45 454.405
935 0 92.3694 17.3001 1598 153.52 1262.71 450.999
936 0 95.6728 18.4065 1761 150.957 1263.74 451.041
937 0 99.4308 16.6246 1653 154.394 1263.31 450.834
938 1 46.3519 14.2389 660 154.618 1264.1 477.133
939 0 51.4226 15.8296 814 154.388 1263.02 472.096
940 0 54.4198 17.2915 941 149.615 1262.1 474.507
941 0 57.2342 14.8513 850 154.827 1261.5 473.673
942 0 60.2438 19.2551 1160 148.447 1260.28 470.816
943 0 62.1727 20.7808 1292 145.379 1259.51 471.769
944 0 63.2383 16.7936 1062 155.176 1257.75 469.366
945 0 66.2761 17.8647 1184 152.44 1257.62 468.975
946 0 68.8498 15.5992 1074 156.142 1255.92 467.513
947 0 71.4303 19.3195 1380 150.4 1253.5 463.331
948 0 74.357 16.8915 1256 154.783 1253.68 463.559
949 0 76.6009 16.1747 1239 156.018 1251.53 464.353
950 0 77.8362 16.1493 1257 157.687 1249.88 462.529
951 0 79.4592 17.2541 1371 159.013 1250.04 454.918
952 0 82.6848 18.3952 1521 156.245 1250.27 454.001
953 0 87.5719 16.9347 1483 159.175 1249.47 453.531
954 0 88.4963 17.4584 1545 162.326 1248.89 448.924
955 0 93.6517 18.0136 1687 158.517 1249.19 449.437
956 0 96.4564 18.568 1791 156.71 1249.19 448.614
957 1 49.5433 13.3419 661 166.982 1248.75 467.505
958 0 51.2985 12.9633 665 165.379 1249.42 467.253
959 0 50.2692 12.254 616 170.352 1249.69 464.083
960 0 55.3473 14.9962 830 163.948 1250.93 462.437
961 0 58.2986 18.0965 1055 155.354 1252.47 461.963
962 0 59.3846 17.3783 1032 160.945 1254.24 457.579
963 0 62.7869 15.2261 956 164.886 1255.93 459.111
964 0 66.504 20.2544 1347 151.566 1255.52 458.698
965 0 67.4134 16.3766 1104 163.581 1257.99 454.639
966 0 71.7121 17.2914 1240 158.927 1260.14 457.499
967 0 74.67 18.8831 1410 155.654 1260.73 455.096
968 0 79.7116 18.178 1449 155.431 1262.15 454.302
969 0 77.6887 17.5444 1363 158.596 1262.04 454.754
970 0 83.6695 19.7802 1655 151.84 1262.52 453.56
971 0 83.6429 19.2963 1614 156.148 1263.55 452.283
972 0 87.774 19.6186 1722 154.539 1262.97 449.454
973 0 91.7162 18.2738 1676 156.224 1260.99 450.84
974 0 92.5568 16.4764 1525 163.497 1260.22 448.619
975 0 96.6537 17.1954 1662 158.512 1259.89 452.005
976 0 98.6706 17.1176 1689 161.41 1258.5 447.786
977 0 104.636 18.9036 1978 155.368 1257.44 448.264
978 0 107.562 18.8263 2025 154.942 1256.16 444.991
979 0 110.854 17.284 1916 158.803 1254.78 443.655
980 1 57.6352 13.1343 757 155.904 1252.53 468.299
981 0 63.3789 14.1687 898 155.692 1251.6 465.302
982 0 62.2888 11.543 719 164.181 1251.1 461.189
983 0 65.3297 12.4293 812 162.324 1250.03 459.28
984 0 68.2149 18.7789 1281 148.228 1249.23 457.876
985 0 70.1485 16.5506 1161 151.71 1247.94 460.829
986 0 73.2305 12.7269 932 156.732 1247.92 458.336
987 0 75.1431 15.6767 1178 151.87 1247.4 454.898
988 0 80.3016 16.712 1342 148.666 1247.46 453.56
989 0 80.2041 13.8646 1112 153.723 1246.85 455.211
990 0 85.3183 14.944 1275 152.43 1247.83 448.171
991 0 86.2201 17.8265 1537 147.608 1247.79 447.64
992 0 88.2648 15.986 1411 151.831 1247.9 446.909
993 0 94.2122 17.3332 1633 147.167 1249.34 445.783
994 0 98.1762 17.3362 1702 148.562 1251.03 440.539
995 1 52.0396 11.5297 600 149.807 1250.83 462.973
996 0 56.062 12.5754 705 143.746 1253.9 464.684
997 0 56.0924 11.6237 652 146.997 1255.06 462.692
998 0 60.1158 13.3742 804 141.779 1258.65 463.316
999 0 62.261 13.2185 823 145.358 1258.3 455.128
1000 0 63.0963 14.4383 911 140.718 1262.63 459.405
1001 0 66.0712 14.6055 965 141.854 1263.93 459.651
1002 0 65.1029 12.0732 786 148.547 1265.2 458.102
1003 0 69.0801 12.7533 881 148.364 1265.02 459.014
1004 0 72.0955 14.1202 1018 144.936 1264.95 460.076
1005 0 78.1796 13.3027 1040 147.281 1265.47 459.661
1006 0 77.2564 14.1089 1090 147.442 1265.69 459.401
1007 0 81.3814 14.6348 1191 145.688 1265.56 460.95
1008 0 82.0773 9.80783 805 155.063 1265.26 460.04
1009 0 89.1868 15.4619 1379 143.749 1264.12 460.714
1010 0 86.1667 10.9903 947 154.344 1263.01 460.424
1011 0 93.281 13.5504 1264 152.446 1261.05 457.097
1012 0 94.3291 14.0784 1328 152.26 1259.95 451.893
1013 0 99.2491 14.3679 1426 151.435 1258.43 452.806
1014 0 102.291 11.5357 1180 157.558 1256.86 450.253
1015 1 51.1599 7.93591 406 149.133 1253.84 477.82
1016 0 53.1516 7.92075 421 149.109 1253.43 477.615
1017 0 56.2151 8.78767 494 148.644 1253.07 472.7
1018 0 60.5282 14.5221 879 137.972 1249.8 471.465
1019 0 60.7953 15.3795 935 137.738 1249.14 469.513
1020 0 63.4823 15.7209 998 138.083 1248.95 467.52
1021 0 60.2457 11.0381 665 147.352 1249.88 468.665
1022 0 65.2174 12.8033 835 144.638 1249.54 463.018
1023 0 67.2794 11.9204 802 145.996 1249.48 464.262
1024 0 68.4391 11.9376 817 147.334 1248.4 461.568
1025 0 72.2199 15.1897 1097 141.418 1249.89 457.919
1026 0 76.4283 13.5944 1039 142.924 1250.25 461.327
1027 0 76.294 13.2383 1010 144.17 1249.67 458.227
1028 1 43.1294 10.3874 448 142.252 1248.33 475.998
1029 0 42.0719 10.8624 457 138.637 1249.8 478.656
1030 0 45.0458 10.6336 479 141.898 1251.32 471.743
1031 0 48.0806 13.6854 658 137.558 1254.19 472.334
1032 0 50.5006 11.7424 593 139.868 1258.49 473.332
1033 0 50.0517 10.7289 537 142.896 1257.64 474.088
1034 0 52.1137 11.5709 603 140.033 1257.47 474.915
1035 0 57.0544 14.7929 844 133.632 1259.01 474.967
1036 0 56.25 14.0978 793 134.522 1259.76 477.743
1037 0 60.5789 15.9461 966 131.709 1262.53 474.874
1038 0 61.7204 15.9915 987 132.63 1262.96 478.263
1039 0 61.4382 12.6631 778 139.722 1262.24 477.013
1040 0 63.4612 17.0498 1082 132.237 1262.06 476.57
1041 0 65.537 13.1529 862 140.716 1261.03 474.602
1042 0 66.3265 13.9009 922 141.078 1260.14 475.259
1043 0 71.5108 14.809 1059 137.358 1258.14 474.406
1044 0 75.2444 14.526 1093 135.535 1257.03 476.933
1045 1 39.0483 15.8778 620 127.979 1256.69 490.579
1046 0 38.041 8.83259 336 139.045 1254.14 491.446
1047 0 40.1096 12.4659 500 136.47 1253.45 487.528
1048 0 44.1297 15.885 701 127.335 1252.35 487.893
1049 0 46.1067 13.8592 639 130.682 1250.63 485.812
1050 0 44.2716 16.1955 717 129.442 1249.92 482.635
1051 0 44.0277 13.1508 579 135.934 1249.48 482.734
1052 0 45.0984 15.322 691 132.764 1248.78 481.098
1053 0 47.0812 15.2503 718 131.603 1248.81 478.423
1054 0 46.1527 14.972 691 132.645 1248.62 476.64
1055 0 50.1578 14.5341 729 131.492 1248.32 475.328
1056 0 54.0923 15.6399 846 127.498 1249.1 476.053
1057 0 54.0788 16.0507 868 128.636 1249.27 472.04
1058 0 56.0616 15.6613 878 128.835 1249.13 473.744
1059 0 57.0829 16.222 926 128.398 1250.53 470.294
1060 0 57.1235 14.6525 837 130.926 1250.96 470.52
1061 0 60.0585 13.6367 819 132.915 1251.52 468.501
1062 0 59.0503 13.6324 805 134.855 1253.09 466.416
1063 0 61.0909 14.2411 870 132.638 1254.68 468.662
1064 0 65.1139 16.187 1054 128.34 1257.2 464.719
1065 0 67.1511 15.7704 1059 129.738 1258.48 456.419
1066 0 67.153 14.1617 951 133.691 1259.79 460.201
1067 0 71.1092 16.4817 1172 127.993 1261.46 460.874
1068 0 72.178 16.8195 1214 126.571 1262.72 461.699
1069 0 76.1012 14.7961 1126 128.432 1264.23 461.495
1070 0 77.2025 15.2715 1179 129.795 1264.6 458.039
1071 0 82.4754 14.38 1186 130.223 1265.61 459.703
1072 1 43.0952 13.4818 581 127.516 1265.37 478.673
1073 0 44.0756 13.681 603 130.741 1262.77 479.285
1074 0 44.0758 13.2726 585 134.838 1262.54 477.544
1075 0 48.2396 16.4388 793 122.462 1263.83 480.844
1076 0 46.2664 14.8488 687 135.413 1262.43 475.9
1077 0 51.5337 15.4074 794 131.034 1262.4 472.987
1078 0 49.1288 20.2936 997 124.47 1261.46 478.496
1079 0 53.1117 15.8722 843 131.507 1259.5 477.083
1080 0 53.2361 13.0363 694 136.617 1259.5 479.903
1081 0 55.2792 14.4177 797 133.906 1258.54 477.946
1082 0 57.31 16.9429 971 129.755 1257.28 475.76
1083 0 58.2874 15.578 908 134.335 1255.97 472.781
1084 0 61.2561 18.5451 1136 127.27 1254.47 472.121
1085 0 64.2399 17.4813 1123 129.487 1252.66 469.123
1086 0 62.4097 16.2154 1012 133.51 1250.79 465.055
1087 0 66.3264 16.6902 1107 130.391 1250.31 467.554
1088 0 66.1963 16.4662 1090 134.019 1249.25 461.552
1089 0 72.5383 15.702 1139 133.975 1248.99 462.374
1090 0 72.3389 16.0495 1161 135.779 1248.16 452.742
1091 0 73.7136 15.3567 1132 137.452 1249.18 450.415
1092 0 76.0208 14.0093 1065 139.096 1248.9 453.176
1093 1 45.6676 12.372 565 126.809 1247.82 472.349
1094 0 41.1763 14.0129 577 134.967 1248.85 466.44
1095 0 45.1832 15.0056 678 129.6 1250.63 468.205
1096 0 45.4553 18.6117 846 126.826 1251.44 466.03
1097 0 48.3731 14.2641 690 134.419 1252.11 465.171
1098 0 49.141 13.9395 685 137.962 1255.67 466.966
1099 0 53.1741 13.4464 715 138.474 1258.23 470.729
1100 0 57.5295 15.5051 892 131.534 1260.2 473.126
1101 0 56.1316 17.3521 974 133.138 1263.45 469.623
1102 0 55.2676 14.077 778 138.254 1265.54 470.729
1103 0 57.2404 16.387 938 135.749 1266.57 468.6
1104 0 60.3103 16.8628 1017 132.362 1266.14 471.206
1105 0 62.2148 17.0377 1060 132.832 1266.12 469.484
1106 0 63.3792 16.2672 1031 135.238 1265.49 469.961
1107 0 66.3152 16.3763 1086 134.993 1265 470.522
1108 0 70.3047 15.9022 1118 136.592 1263.88 471.132
1109 0 69.2434 14.8462 1028 140.052 1263.16 470.616
1110 0 71.3338 13.9625 996 140.812 1261.87 471.662
1111 0 75.3849 14.4989 1093 139.648 1260.46 468.649
1112 0 80.4348 15.8389 1274 135.802 1258.64 468.64
1113 1 44.1905 11.2694 498 134.371 1257.77 486.725
1114 0 40.1783 12.2952 494 136.488 1256.95 485.899
1115 0 42.0654 10.1509 427 138.607 1255.27 487.916
1116 0 39.2689 9.26942 364 146.97 1254.08 483.701
1117 0 45.2692 6.98046 316 147.335 1252.05 483.123
1118 0 46.1143 13.0112 600 136.135 1251 482.387
1119 0 50.0529 17.5614 879 130.402 1250.29 478.845
1120 0 49.3278 13.8867 685 137.196 1249.87 478.218
1121 0 51.2451 13.894 712 134.861 1248.25 478.282
1122 0 52.4155 13.5838 712 137.91 1249.62 475.815
1123 0 53.1704 15.3469 816 136.516 1248.96 473.594
1124 0 58.183 15.8981 925 133.253 1248.03 473.03
1125 0 56.151 12.0746 678 141.224 1249.05 469.715
1126 0 60.0961 14.9594 899 134.026 1249.31 469.279
1127 0 60.175 13.0453 785 137.708 1249.66 469.997
1128 0 62.1979 16.0295 997 133.409 1250.37 465.576
1129 0 65.1976 16.0895 1049 132.356 1251.02 466.598
1130 0 69.3409 14.3206 993 135.928 1252.11 462.445
1131 0 70.3901 10.6407 749 139.594 1253.48 465.976
1132 0 72.5652 15.9167 1155 130.818 1255.7 466.44
1133 0 76.446 16.1421 1234 133.154 1256.36 457
1134 0 79.319 16.3895 1300 132.175 1258.22 459.873
1135 0 81.308 12.9999 1057 139.101 1259.05 457.55
1136 0 83.5086 14.753 1232 136.858 1260.2 457.929
1137 0 84.662 15.9694 1352 134.272 1260.7 459.577
1138 0 88.5815 12.5195 1109 139.747 1260.6 459.134
1139 1 48.1971 8.09178 390 133.844 1259.69 484.941
1140 0 49.1283 8.22337 404 134.7 1259.26 483.77
1141 0 51.3584 9.30714 478 137.379 1260.57 477.102
1142 0 56.4983 13.0092 735 129.914 1258.33 478.411
1143 0 53.2657 11.3206 603 132.977 1256.5 473.056
1144 0 56.1164 11.4227 641 134.175 1255.68 478.906
1145 0 59.2061 14.7789 875 127.952 1255.98 476.264
1146 0 61.1741 14.4015 881 131.163 1252.51 473.171
1147 0 63.0696 13.1442 829 132.584 1253.03 471.571
1148 0 64.141 11.9113 764 135.41 1251.89 469.158
1149 0 71.1608 13.7716 980 129.881 1250.23 471.858
1150 0 74.1685 13.8064 1024 129.109 1250.34 471.757
1151 0 72.4305 12.55 909 136.479 1248.29 464.332
1152 0 76.2209 16.1767 1233 129.951 1247.81 464.564
1153 0 76.337 13.5583 1035 131.905 1247.53 466.316
1154 0 78.2331 13.7921 1079 133.676 1247.5 461.472
1155 0 81.3316 16.5618 1347 129.31 1247.49 461.528
1156 1 39.0603 11.1622 436 131.307 1248.31 478.642
1157 0 42.1543 10.6751 450 129.7 1248.72 478.949
1158 0 43.0711 7.31348 315 138.616 1248.88 476.422
1159 0 47.2094 12.2857 580 132.026 1249.68 474.459
1160 0 46.1756 13.7085 633 132.411 1250.58 471.998
1161 0 48.4624 13.1648 638 133.506 1250.95 469.229
1162 0 50.1454 13.2415 664 132.56 1251.85 467.688
1163 0 52.0625 18.5546 966 123.193 1254.12 465.635
1164 0 53.1776 15.42 820 129.683 1254.32 466.163
1165 0 57.0978 18.1093 1034 122.676 1258.04 468.403
1166 0 57.0553 16.966 968 126.963 1260.44 466.439
1167 0 58.1904 13.5074 786 134.83 1262.48 462.716
1168 0 59.0922 12.912 763 135.225 1263.27 468.506
1169 0 63.3675 16.9487 1074 126.943 1263.96 467.066
1170 0 67.4119 16.3918 1105 129.104 1264.71 466.578
1171 0 66.1356 16.2847 1077 129.535 1264.92 467.33
1172 0 68.1442 16.1716 1102 131.707 1265.21 465.365
1173 0 68.1392 11.6966 797 140.173 1265.09 465.384
1174 0 74.2166 15.0371 1116 132.851 1264.12 465.55
1175 1 38.0252 11.4924 437 134.632 1265.03 483.263
1176 0 40.0261 10.0934 404 129.899 1263.64 486.809
1177 0 40.058 8.83719 354 137.751 1263.31 483.859
1178 0 41.0446 11.8651 487 134.665 1262.02 481.495
1179 0 41.0239 7.75158 318 138.789 1259.63 485.186
1180 0 45.054 8.74507 394 140.33 1257.49 479.848
1181 0 47.0601 13.8121 650 133.178 1256.16 478.425
1182 0 48.1846 16.167 779 128.345 1255.04 478.451
1183 0 51.1099 12.8351 656 133.875 1249.19 478.61
1184 0 51.1839 14.614 748 133.914 1248.72 476.071
1185 0 52.078 15.9184 829 131.52 1247.47 474.923
1186 0 56.1436 17.8827 1004 128.349 1246.83 473.915
1187 0 56.0852 16.2253 910 134.186 1246.05 468.366
1188 0 58.24 17.1532 999 131.716 1245.99 469.976
1189 0 59.1653 12.9468 766 140.813 1245.12 466.648
1190 0 61.035 16.597 1013 136.093 1245.44 463.761
1191 0 62.1261 14.535 903 137.526 1245.38 466.573
1192 0 63.1908 15.018 949 138.58 1245.28 463.639
1193 0 66.163 16.9581 1122 137.357 1246.51 461.102
1194 0 68.0715 17.085 1163 138.125 1247.64 460.352
1195 0 72.2233 16.4213 1186 139.724 1249.19 457.224
1196 1 35.0867 10.7448 377 143.056 1251.12 477.252
1197 0 40.2872 11.84 477 135.656 1252.33 477.985
1198 0 43.2248 12.3772 535 138.501 1254.1 475.213
1199 0 41.1354 11.377 468 140.393 1256.95 477.028
1200 0 43.1116 13.6854 590 139.547 1257.98 475.414
1201 0 43.0485 14.3327 617 137.806 1258.88 476.752
1202 0 46.3124 15.6977 727 135.913 1263.42 473.615
1203 0 45.2005 11.6592 527 136.364 1265.26 472.486
1204 0 49.291 15.094 744 128.211 1264.37 470.394
1205 0 48.22 12.8577 620 134.503 1265 470.676
1206 0 52.2039 14.8265 774 130.309 1264.54 470.454
1207 0 54.2457 13.8813 753 132.187 1263.68 471.833
1208 0 57.0884 15.6074 891 127.987 1264.17 474.015
1209 0 57.0936 13.8895 793 133.908 1263.36 473.103
1210 0 57.0906 15.4141 880 129.152 1262.97 477.272
1211 0 56.0354 10.9752 615 141.704 1261.54 474.621
1212 0 61.1454 15.7494 963 130.708 1260.53 474.155
1213 0 62.2118 13.7755 857 136.47 1259.25 472.208
1214 0 63.1414 13.541 855 138.533 1257.61 469.364
1215 0 67.0571 16.9557 1137 132.16 1256.07 465.704
1216 0 69.2626 12.5898 872 140.261 1255.13 470.247
1217 0 69.2302 12.899 893 140.475 1253.88 467.776
1218 0 75.1483 17.7649 1335 130.826 1252.8 466.184
1219 0 76.1983 18.255 1391 128.556 1251.35 466.646
1220 0 79.1385 17.6779 1399 131.367 1251.26 462.675
1221 1 40.0781 10.7041 429 138.984 1250.57 480.795
1222 0 45.104 12.1275 547 135.797 1249.21 477.898
1223 0 48.1367 11.3012 544 136.79 1249.28 476.893
1224 0 46.1727 12.5832 581 137.587 1248.28 473.806
1225 0 48.277 10.2948 497 143.074 1248.25 472.837
1226 0 50.0262 11.8338 592 142.171 1249.74 472.949
1227 0 50.0227 14.2535 713 139.903 1250.37 472.23
1228 0 50.0279 14.352 718 144.643 1250.81 468.557
1229 0 52.0226 14.7052 765 140.492 1253.13 469.626
1230 0 56.0806 12.9635 727 139.129 1253.79 470.389
1231 0 60.0543 14.6201 878 135.769 1255.55 468.679
1232 0 59.0685 13.8822 820 137.629 1257.43 467.513
1233 0 61.0577 11.9068 727 141.547 1259.29 468.505
1234 0 63.1105 13.6586 862 137.968 1260.34 466.34
1235 0 64.0688 15.8892 1018 136.887 1261.97 463.91
1236 0 70.1024 15.9624 1119 132.669 1263.38 469.645
1237 0 71.0195 13.1654 935 138.522 1263.48 470.733
1238 0 72.1934 12.6604 914 143.475 1263.8 465.735
1239 0 73.1541 11.3869 833 146.999 1264.48 466.934
1240 1 42.0931 12.9475 545 131.963 1263.82 485.844
1241 0 40.0939 8.7295 350 141.557 1263.35 486.889
1242 0 45.1437 11.0314 498 135.04 1262.75 488.378
1243 0 46.0178 9.86574 454 140.833 1261.98 485.87
1244 0 47.1212 13.1151 618 134.16 1260.47 484.537
1245 0 50.0906 12.9765 650 133.18 1259.87 484.985
1246 0 47.0485 10.6698 502 140.189 1258.01 481.518
1247 0 52.3941 14.2955 749 138.425 1256.06 481.099
1248 0 51.3693 14.6002 750 139.569 1254.41 479.483
1249 0 55.7586 17.5937 981 131.733 1252.64 479.361
1250 0 56.4961 17.7003 1000 130.54 1252.28 481.766
1251 0 58.4352 16.3771 957 133.21 1250.55 479.059
1252 0 61.6914 15.2695 942 133.907 1250.13 476.335
1253 0 62.4376 17.1851 1073 131.217 1249.38 474.897
1254 0 62.4667 17.9936 1124 130.652 1249.13 472.612
1255 0 64.2976 15.3505 987 132.157 1248.63 474.89
1256 0 65.302 13.5524 885 135.24 1248.38 473.112
1257 0 67.5449 17.9732 1214 128.796 1247.89 468.548
1258 0 67.6852 15.2914 1035 132.908 1247.64 467.461
1259 0 71.4232 14.4491 1032 133.366 1247.07 467.114
1260 0 74.3631 15.895 1182 130.327 1246.74 462.055
1261 1 38.021 13.361 508 128.909 1248.46 481.433
1262 0 34.3211 10.4892 360 137.028 1249.28 476.247
1263 0 39.0341 9.6326 376 135 1251.01 479.21
1264 0 41.15 9.74483 401 133.569 1252.12 479.94
1265 0 42.1408 12.6481 533 128.925 1253.9 476.782
1266 0 44.0934 15.2177 671 123.599 1256.09 478.075
1267 0 45.1354 13.3598 603 128.498 1257.79 476.005
1268 0 49.0789 17.3394 851 114.897 1259.35 475.471
1269 0 48.0912 15.0755 725 121.349 1259.78 477.63
1270 0 51.073 12.022 614 125.239 1260.17 478.35
1271 0 51.1615 14.9917 767 120.008 1260.6 477.545
1272 0 54.1702 16.6697 903 117.231 1261.2 478.876
1273 0 54.1784 16.9625 919 117.802 1259.98 477.153
1274 0 53.1702 13.2029 702 125.692 1258.05 476.724
1275 0 60.1974 15.8977 957 119.308 1257.3 477.839
1276 0 64.233 18.682 1200 115.953 1256.21 476.122
1277 0 64.2319 17.5458 1127 118.122 1254.26 478.476
1278 0 68.1234 13.5196 921 123.831 1252.4 478.486
1279 0 70.2991 14.168 996 123.486 1251.66 479.026
1280 0 75.1456 13.1212 986 123.661 1250.1 479.019
1281 0 74.1709 15.7205 1166 122.857 1249.54 473.463
1282 1 44.1682 11.1619 493 125.513 1247.94 490.667
1283 0 40.0532 11.8592 475 123.893 1248.13 490.924
1284 0 43.1244 12.1509 524 124.218 1248.18 488.813
1285 0 44.1281 15.455 682 117.312 1247.66 488.861
1286 0 42.0848 11.5956 488 127.584 1245.37 484.957
1287 0 49.5149 11.8146 585 125.778 1245.99 483.265
1288 0 47.2836 15.7348 744 122.704 1246.08 480.089
1289 0 50.112 13.7692 690 124.462 1245.2 480.909
1290 0 49.2268 15.0121 739 125.928 1245.18 479.809
1291 0 53.3296 16.4262 876 123.795 1244.72 480.273
1292 0 52.3572 16.9986 890 125.511 1245.28 477.474
1293 0 56.3807 18.8362 1062 122.688 1245.97 473.953
1294 0 56.1822 16.5533 930 126.544 1246.21 476.118
1295 0 58.3046 18.9693 1106 123.622 1246.99 472.429
1296 0 58.4118 17.1883 1004 126.927 1247.94 471.131
1297 0 61.3381 14.1348 867 130.441 1249.57 471.916
1298 0 63.359 17.8033 1128 124.47 1250.8 468.756
1299 0 66.307 17.8413 1183 124.189 1253.16 467.692
1300 0 67.3416 18.3096 1233 122.688 1253.51 469.167
1301 0 68.308 14.1565 967 130.574 1255.58 467.365
1302 0 72.2638 16.8826 1220 126.947 1256.77 466.581
1303 0 74.3647 19.5119 1451 123.311 1256.8 464.819
1304 0 79.2826 17.3935 1379 122.219 1258.35 463.362
1305 0 81.3274 14.5339 1182 126.259 1258.27 465.022
1306 0 80.4827 15.3449 1235 126.994 1257.36 463.39
1307 1 45.0844 12.8426 579 126.746 1258.86 480.434
1308 0 48.0368 12.8859 619 125.036 1258.19 483.769
1309 0 50.0518 7.4323 372 131.296 1257.6 486.71
1310 0 49.0353 13.0722 641 125.661 1255.86 484.633
1311 0 52.1724 14.7971 772 123.938 1252.34 478.861
1312 0 54.1675 14.6028 791 122.828 1251.14 479.856
1313 0 58.1324 13.0392 758 124.35 1250.09 479.517
1314 0 58.0724 13.2593 770 126.651 1248.7 477.784
1315 0 61.2348 13.1461 805 125.181 1247.11 477.944
1316 0 63.3158 16.0781 1018 122.318 1246.03 475.565
1317 0 66.1913 15.7725 1044 122.908 1245.18 472.715
1318 0 65.144 13.002 847 126.943 1243.94 473.754
1319 0 71.2289 14.3902 1025 124.346 1242.75 469.665
1320 0 71.0926 15.3321 1090 124.895 1242.39 466.627
1321 0 75.1888 16.8775 1269 122.361 1241.57 465.439
1322 0 78.0782 14.5879 1139 123.975 1241.33 465.626
1323 0 78.1299 13.1448 1027 129.247 1240.91 458.893
1324 0 84.1097 16.3477 1375 123.585 1240.28 458.41
1325 0 84.1216 13.4329 1130 129.935 1241.04 456.782
1326 0 86.1926 12.8781 1110 131.144 1241.8 454.318
1327 0 92.1536 17.46 1609 122.147 1242.07 454.271
1328 1 45.0563 10.0985 455 131.084 1241.98 473.881
1329 0 48.0567 14.9199 717 123.575 1243.7 474.506
1330 0 51.0747 11.63 594 128.348 1245.38 474.542
1331 0 51.0838 10.7275 548 131.967 1247.52 470.849
1332 0 55.0613 15.2376 839 123.651 1249.2 473.013
1333 0 54.0905 14.8085 801 124.342 1251.5 471.401
1334 0 57.1657 14.6416 837 124.56 1252.84 470.256
1335 0 58.18 13.6301 793 126.473 1254.59 470.453
1336 0 61.1427 15.5211 949 123.564 1255.94 468.284
1337 0 64.1924 18.6003 1194 117.547 1256.52 468.296
1338 0 67.2606 15.7745 1061 120.447 1256.14 469.723
1339 0 67.149 14.2221 955 124.818 1256.74 469.576
1340 0 73.1816 13.2274 968 126.379 1256.37 472.53
1341 0 72.2457 13.8001 997 127.686 1256.39 470.04
1342 0 77.3883 19.2794 1492 117.497 1256.17 473.927
1343 0 77.1831 15.677 1210 125.649 1255.79 468.935
1344 0 81.3443 16.1536 1314 124.88 1254.95 467.613
1345 0 84.3762 14.6368 1235 127.099 1253.21 469.065
1346 0 87.4703 16.1541 1413 127.056 1251.59 464.27
1347 0 90.1684 21.7038 1957 118.712 1250.43 465.248
1348 0 93.338 15.9742 1491 126.651 1249.18 466.073
1349 0 95.2373 14.8996 1419 127.727 1247.87 464.875
1350 1 51.1143 9.95808 509 129.719 1245.98 485.212
1351 0 51.0735 12.6876 648 128.972 1245.31 481.432
1352 0 50.1038 9.04123 453 133.249 1244.29 481.358
1353 0 54.0716 12.4095 671 125.922 1243.31 481.943
1354 0 56.0631 13.4135 752 128.387 1243.04 474.999
1355 0 57.0788 14.6289 835 127.04 1242.84 475.546
1356 0 62.1338 13.3744 831 128.897 1242.29 471.505
1357 0 64.1064 17.471 1120 123.934 1242.74 470.434
1358 0 67.0886 15.9789 1072 125.442 1242.98 467.771
1359 0 68.1824 15.2825 1042 127.29 1245.54 465.205
1360 0 70.3422 15.9079 1119 126.802 1245.83 467.815
1361 0 70.1959 15.5992 1095 130.258 1247.29 463.909
1362 0 76.1892 16.5115 1258 127.558 1248.32 462.789
1363 0 76.0468 14.0834 1071 135.103 1250.35 459.866
1364 0 77.158 14.1009 1088 137.159 1250.3 461.448
1365 0 79.2559 17.147 1359 134.407 1249.52 458.188
1366 0 82.1388 15.9973 1314 139.466 1250.64 456.129
1367 0 85.1432 17.1123 1457 136.662 1253.78 458.775
1368 0 85.2138 13.3312 1136 146.45 1254.35 455.917
1369 0 88.2566 16.7353 1477 138.655 1256.08 459.951
1370 0 90.2102 17.8139 1607 137.499 1255.6 461.155
1371 0 93.3024 20.1817 1883 131.535 1257.61 457.408
1372 0 96.2631 18.9896 1828 135.455 1257.25 453.183
1373 0 100.385 19.2658 1934 132.099 1256.55 457.956
1374 0 101.243 17.2061 1742 137.921 1256.81 455.315
1375 1 54.1299 12.858 696 144.401 1254.05 478.204
1376 0 51.1702 13.3085 681 146.16 1254.41 476.702
1377 0 56.0784 15.086 846 142.364 1254.03 478.336
1378 0 57.0646 14.4748 826 144.332 1253.03 478.212
1379 0 56.0769 14.3196 803 142.001 1253.06 476.985
1380 0 58.3446 16.0083 934 139.272 1253.45 472.622
1381 0 61.2492 14.6451 897 139.022 1252.23 474.725
1382 0 60.1074 13.2762 798 145.692 1251.55 472.764
1383 0 58.0503 10.9388 635 154.184 1250.5 472.669
1384 0 63.2289 15.1671 959 143.228 1249.51 471.338
1385 0 62.1204 13.6992 851 150.356 1248.28 468.958
1386 0 61.0529 16.068 981 151.591 1247.61 472.976
1387 0 63.1477 13.2705 838 157.446 1246.62 474.323
1388 0 64.2114 13.9228 894 157.666 1246.27 471.148
1389 0 64.0831 15.2614 978 156.586 1246 470.681
1390 0 65.1174 15.1572 987 157.9 1246.74 468.617
1391 0 63.0968 13.4397 848 165.517 1246.92 467.009
1392 0 63.0959 12.5365 791 166.216 1247.54 468.4
1393 0 67.0874 14.4289 968 161.732 1248.04 468.09
1394 0 65.0857 14.1506 921 162.01 1249.04 469.392
1395 0 64.1285 11.9136 764 172.131 1249.03 467.179
1396 0 67.112 15.7796 1059 161.016 1250.36 465.997
1397 0 68.1784 14.3154 976 165.112 1250.59 466.165
1398 0 69.1057 15.3678 1062 160.582 1253.26 467.427
1399 0 66.1185 13.748 909 168.01 1254.81 466.845
1400 0 69.1285 14.9866 1036 163.683 1256.89 465.51
1401 0 69.2293 13.0581 904 165.521 1258.96 470.949
1402 0 68.1314 13.2832 905 165.709 1260.01 471.736
1403 0 70.3657 12.9324 910 165.596 1260.42 472.343
