time division length width area intensity CMx CMy
0 0 86.9813 13.934 1212 138.639 971.283 433.785
1 0 93.2555 19.1838 1789 127.746 972.561 431.265
2 0 96.2506 18.8466 1814 122.883 972.863 442.373
3 0 99.3045 19.3244 1919 129.183 973.053 429.165
4 0 101.119 20.7082 2094 124.906 973.757 431.789
5 0 102.714 17.4173 1789 129.729 973.174 435.16
6 1 58.7054 16.8128 987 127.234 973.007 452.572
7 0 57.97 14.9388 866 132.978 971.501 452.662
8 0 63.7417 17.1944 1096 134.078 969.432 450.373
9 0 63.3976 11.0888 703 152.502 968.925 455.199
10 0 67.594 12.3532 835 150.568 967.987 453.927
11 0 69.4603 14.3967 1000 148.902 966.581 451.733
12 0 70.616 14.5293 1026 151.169 966.078 452.266
13 0 73.5919 15.5316 1143 154.962 965.697 448.603
14 0 76.9111 15.6935 1207 156.797 963.998 450.363
15 0 77.7581 15.5868 1212 159.405 961.918 446.668
16 0 78.6949 14.893 1172 161.519 960.753 442.108
17 0 84.7768 15.6883 1330 159.112 958.283 440.359
18 0 83.6748 12.1303 1015 170.7 957.198 434.281
19 0 87.7422 16.6738 1463 159.569 956.403 432.935
20 0 89.8502 15.2476 1370 163.357 955.007 433.007
21 0 88.822 13.4201 1192 153.054 952.961 430.57
22 1 49.4045 11.0314 545 160.323 954.802 453.108
23 0 51.7036 13.1132 678 156.507 954.998 450.311
24 0 52.1064 12.8775 671 155.428 954.295 449.759
25 0 53.3278 13.4827 719 154.651 955.961 455.86
26 0 54.3122 14.4903 787 152.997 956.826 451.996
27 0 57.4156 15.5358 892 149.307 957.463 452.109
28 0 60.0698 13.6175 818 150.652 959.491 449.298
29 0 62.1372 11.9896 745 153.847 961.765 446.831
30 0 64.2611 13.5541 871 148.024 963.155 448.417
31 0 63.2038 10.7589 680 150.034 965.643 447.976
32 0 68.0989 10.9693 747 145.53 967.111 447.478
33 0 75.73 16.8757 1278 128.291 968.523 449.949
34 0 75.3874 14.0342 1058 133.18 970.654 448.871
35 0 77.7094 13.7564 1069 141.611 972.649 449.034
36 0 79.6786 16.1022 1283 128.885 971.21 444.787
37 0 80.5647 12.9585 1044 130.795 971.391 447.194
38 0 83.4482 14.9314 1246 131.47 971.608 440.182
39 0 95.2985 12.5605 1197 128.453 971.749 446.745
40 0 90.56 16.5857 1502 131.421 971.748 439.288
41 0 93.4632 14.6368 1368 134.486 971.853 444.846
42 0 94.8209 16.663 1580 141.609 969.879 438.669
43 0 97.5822 14.972 1461 140.523 969.704 440.073
44 1 53.3327 14.6064 779 129.393 969.888 465.013
45 0 55.3379 9.48718 525 142.994 968.819 464.015
46 0 56.3432 11.7494 662 148.31 967.394 461.881
47 0 58.1381 12.7111 739 144.281 966.908 460.235
48 0 58.0436 10.182 591 151.543 965.01 461.606
49 0 60.0692 14.0005 841 145.503 963.717 456.924
50 0 60.1444 12.3203 741 147.717 961.922 458.458
51 0 64.1702 14.3836 923 145.576 960.687 454.92
52 0 65.1161 12.9461 843 150.539 958.887 452.888
53 0 69.0424 14.6432 1011 146.578 958.161 452.974
54 0 71.0809 11.9301 848 154.179 956.959 451.223
55 0 72.0842 11.764 848 153.2 957.166 451.717
56 0 73.1208 13.7854 1008 152.585 956.4 445.19
57 0 75.1478 11.9498 898 156.974 956.441 444.931
58 0 80.1232 14.9145 1195 149.392 955.874 445.425
59 0 82.1043 15.7848 1296 150.225 956.546 442.151
60 0 85.1673 16.4852 1404 149.64 956.387 439.628
61 0 87.1615 14.3756 1253 155.496 956.023 437.923
62 0 91.0804 14.8989 1357 154.145 956.779 437.912
63 1 47.016 9.40105 442 150.462 960.079 460.45
64 0 51.0248 11.6806 596 141.369 961.008 461.909
65 0 49.1533 10.7623 529 142.979 964.008 460.669
66 0 50.1978 11.8332 594 143.921 963.847 457.85
67 0 54.1419 13.3723 724 137.003 966.414 460.898
68 0 54.1049 13.1596 712 139.812 967.184 457.785
69 0 55.0409 9.28401 511 144.767 968.339 461.971
70 0 58.1644 12.4647 725 139.146 968.393 457.857
71 0 58.144 11.4371 665 142.158 970.269 459.857
72 0 61.1395 13.5755 830 140.713 969.177 457.52
73 0 63.1016 12.8206 809 139.434 969.76 462.022
74 0 65.071 14.246 927 143.016 969.511 459.05
75 0 66.0387 11.4327 755 147.638 967.996 460.709
76 0 67.1117 12.0992 812 152.792 967.32 456.669
77 0 71.092 14.4742 1029 145.553 967.479 457.331
78 1 39.0636 8.34537 326 152.939 966.77 474
79 0 40.1196 11.69 469 141.736 965.712 476.578
80 0 40.1196 12.8865 517 124.617 965.656 475.733
81 0 40.0517 9.21309 369 149.295 963.195 475.678
82 0 44.1334 10.0831 445 147.771 961.429 473.411
83 0 45.039 10.9017 491 147.77 960.32 471.299
84 0 45.0633 13.1149 591 146.628 958.526 469.672
85 0 44.0597 11.0759 488 153.1 956.887 467.969
86 0 49.2553 12.8311 632 149.661 954.533 466.875
87 0 51.2263 13.2549 679 148.864 953.016 463.028
88 0 52.2956 11.9704 626 149.479 953.494 467.267
89 0 53.1957 11.3355 603 151.527 951.973 464.534
90 0 56.2084 16.6345 935 142.195 951.819 459.06
91 0 56.1693 13.4593 756 150.222 951.516 458.315
92 0 59.1694 13.0135 770 149.714 952.404 455.732
93 0 56.364 11.337 639 156.77 951.574 456.601
94 0 61.2991 14.3232 878 148.812 952.607 452.472
95 0 64.2056 14.7962 950 147.139 954 453.446
96 0 64.1557 12.9529 831 150.995 956.094 451.278
97 0 69.1515 13.4632 931 150.347 956.902 449.177
98 0 68.2056 13.1074 894 153.195 959.255 449.088
99 0 71.1811 15.0602 1072 148.465 962.262 449.565
100 0 74.1881 14.3554 1065 149.314 963.314 450.788
101 0 77.2418 14.5776 1126 147.669 965.876 449.903
102 0 78.2022 16.355 1279 145.838 967.251 446.141
103 0 81.1011 12.2563 994 152.96 968.432 449.968
104 0 85.1784 12.6558 1078 151.288 968.908 448.594
105 1 47.1151 9.99678 471 156.378 970.987 466.934
106 0 47.0544 11.1573 525 156.158 969.933 467.47
107 0 48.0605 12.5675 604 150.851 970.063 468.344
108 0 49.0999 13.7679 676 152.275 968.615 464.389
109 0 50.3149 13.7136 690 154.896 965.28 465.671
110 0 53.0685 15.6213 829 144.858 966.741 469.027
111 0 53.3069 14.6698 782 147.734 965.651 468.661
112 0 55.0541 15.0398 828 147.599 965.331 469.885
113 0 58.0699 15.6536 909 146.455 963.814 468.191
114 0 60.0969 16.7064 1004 145.262 962.844 467.163
115 0 62.071 15.8206 982 147.555 961.97 463.658
116 0 62.1622 18.5965 1156 143.059 961.142 464.55
117 0 62.0654 13.0024 807 155.499 958.882 462.637
118 0 65.0545 14.8491 966 150.147 957.742 465.069
119 0 67.0644 14.911 1000 151.652 956.061 461.174
120 0 68.1512 12.9418 882 157.303 954.891 458.735
121 0 71.1104 11.9392 849 159.577 953.817 457.29
122 0 72.0959 13.8288 997 154.64 952.862 454.727
123 0 74.239 12.1634 903 156.635 952.009 454.808
124 0 78.3122 13.8931 1088 154.189 952.159 450.158
125 0 80.1777 16.5882 1330 149.805 951.676 447.937
126 0 84.0709 13.6195 1145 155.522 952.434 445.35
127 0 87.1599 16.1886 1411 147.3 952.302 448.329
128 1 46.1095 12.7956 590 149.08 952.207 464.402
129 0 46.0285 9.42894 434 158.359 954.327 461.864
130 0 53.0573 15.3231 813 143.315 955.416 461.574
131 0 50.0215 14.014 701 149.421 956.993 459.174
132 0 53.0148 13.8452 734 148.71 957.854 460.134
133 0 53.048 13.3275 707 150.532 961.124 458.42
134 0 53.0441 11.8392 628 152.064 961.487 458.822
135 0 57.169 14.186 811 144.185 963.043 460.284
136 0 61.1675 14.9099 912 142.498 964.905 460.72
137 0 59.1557 12.577 744 149.144 965.074 461.008
138 0 63.0611 14.8586 937 145.227 966.282 460.479
139 0 63.0685 14.2385 898 145.943 966.323 462.276
140 0 67.0886 13.0574 876 149.941 966.369 460.852
141 0 68.0858 16.5673 1128 143.473 965.273 457.818
142 0 70.0598 13.3743 937 150.124 965.589 459.612
143 0 72.3086 13.4977 976 148.101 963.529 461.696
144 0 74.3113 10.9539 814 154.579 963.291 460.78
145 0 74.229 14.2667 1059 148.97 963.162 460.674
146 0 79.2391 15.1567 1201 146.596 962.156 457.13
147 0 79.3596 13.5837 1078 151.875 960.61 455.934
148 1 41.0714 10.7131 440 145.82 959.666 478.636
149 0 45.0515 11.387 513 146.945 958.669 475.52
150 0 45.1049 9.73286 439 149.672 958.175 475.487
151 0 46.017 12.5388 577 144.74 956.146 474.82
152 0 48.0616 11.0691 532 150.009 955.639 473.038
153 0 49.0718 11.4526 562 148.1 954.137 472.71
154 0 51.1567 19.1177 978 137.28 953.725 467.184
155 0 52.1273 12.6229 658 150.128 952.345 466.719
156 0 56.2079 13.9838 786 146.405 951.588 464.609
157 0 55.1022 13.3207 734 149.053 951.027 463.661
158 0 54.1826 13.1223 711 152.162 950.35 460.226
159 0 59.1034 13.6371 806 149.716 950.357 459.587
160 0 62.1369 16.4958 1025 142.866 950.117 459.786
161 0 65.1697 15.3906 1003 145.661 950.146 455.94
162 0 65.2148 14.4139 940 149.033 951.226 451.233
163 0 68.1661 15.2715 1041 148.054 951.881 449.114
164 0 69.2259 14.5177 1005 150.696 953.624 449.925
165 0 72.2041 15.2484 1101 148.834 955.53 449.259
166 0 75.3161 15.9196 1199 147.908 957.26 449.792
167 0 77.2659 14.9354 1154 151.615 959.289 447.394
168 1 41.0234 9.04362 371 156.353 962.178 466.709
169 0 40.136 11.0624 444 153.766 963.032 467.905
170 0 43.0871 11.2331 484 151.777 964.349 469.405
171 0 45.0978 14.2135 641 148.36 964.357 467.699
172 0 46.0844 12.3035 567 151.861 965.004 468.478
173 0 48.2649 13.9853 675 151.806 965.75 466.84
174 0 53.2239 15.2751 813 147.021 965.017 466.732
175 0 54.0313 13.6032 735 150.139 964.249 468.839
176 0 51.0296 12.8357 655 155.788 963.168 467.614
177 0 58.2531 13.9735 814 150.252 962.616 468.55
178 0 57.101 13.8526 791 151.631 962.034 469.18
179 0 57.1013 12.399 708 155.749 960.703 469.946
180 0 60.0967 14.0773 846 153.507 959.892 467.915
181 0 62.0755 13.6769 849 150.392 958.736 468.309
182 0 61.1094 11.9131 728 157.29 957.409 464.324
183 0 64.1172 15.5341 996 149.262 955.921 462.447
184 0 66.1255 13.3988 886 150.86 955.062 466.985
185 0 70.23 13.9684 981 150.362 953.232 463.541
186 0 74.0992 17.706 1312 143.681 952.202 459.589
187 0 75.1605 16.498 1240 148.001 950.933 458.44
188 0 74.1299 11.2505 834 157.233 950.236 460.571
189 0 82.0722 17.9111 1470 145.724 948.987 453.406
190 1 42.1127 14.7699 622 148.006 948.323 470.122
191 0 43.1213 13.2881 573 151.829 947.443 468.302
192 0 44.1075 10.9505 483 153.551 946.789 470.132
193 0 46.2491 14.4219 667 149.94 946.27 466.696
194 0 47.2231 13.1292 620 149.756 947.263 464.065
195 0 49.0688 14.1434 694 148.386 948.291 462.682
196 0 52.1312 14.8663 775 143.928 949.245 464.191
197 0 51.103 14.4023 736 148.308 950.791 462.952
198 0 52.2091 14.576 761 149.172 951.618 462.102
199 0 51.0861 12.4104 634 155.826 953.323 461.227
200 0 52.2018 11.9919 626 156.637 955.388 459.23
201 0 58.1532 16.1126 937 143.712 957.847 461.718
202 0 58.215 15.0305 875 147.878 958.642 460.913
203 0 58.215 15.0133 874 136.265 959.64 460.945
204 0 60.1358 14.5338 874 150.674 961.729 458.929
205 0 61.1914 14.3321 877 152.197 961.88 457.812
206 0 65.1028 17.8794 1164 143.985 962.436 457.476
207 0 66.0373 14.0072 925 152.843 962.546 458.406
208 0 69.268 14.249 987 153.095 962.063 458.869
209 0 71.1112 14.5969 1038 153.119 962.857 458.808
210 0 75.0842 15.6091 1172 150.721 961.815 457.832
211 0 77.2952 15.7707 1219 151.361 961.515 456.527
212 0 81.1352 17.3291 1406 148.164 960.3 454.787
213 0 83.2011 18.1608 1511 146.559 959.078 453.392
214 1 40.1234 8.5237 342 161.889 959.079 472.576
215 0 47.1086 13.5856 640 148.342 958.236 472.759
216 0 48.1135 13.676 658 151.891 957.081 469.933
217 0 48.1386 13.7935 664 148.071 955.206 471.074
218 0 51.2738 16.0121 821 143.027 953.914 469.878
219 0 52.144 17.5092 913 141.478 952.574 468.734
220 0 53.0757 16.4105 871 145.249 951.568 466.301
221 0 54.2016 14.2616 773 151.396 950.109 464.868
222 0 55.1189 14.0786 776 151.128 949.662 464.61
223 0 59.2658 13.0092 771 151.472 949.772 465.03
224 0 59.1019 14.8388 877 148.342 948.806 462.535
225 0 60.134 12.6218 759 153.694 947.91 459.793
226 0 65.0919 16.0389 1044 146.185 947.218 456.194
227 0 67.1487 12.3011 826 154.449 947.662 453.586
228 0 65.0544 13.3734 870 153.564 947.86 453.3
229 0 71.1327 15.6187 1111 148.701 948.701 449.899
230 0 72.09 15.4529 1114 148.501 949.748 450.506
231 0 79.1726 16.8871 1337 140.277 951.037 452.998
232 0 76.2419 13.5096 1030 150.002 952.602 448.937
233 0 80.3828 14.1448 1137 147.274 954.579 450.148
234 0 82.3398 14.2701 1175 149.271 955.888 444.352
235 0 87.3311 14.8286 1295 146.986 958.264 444.917
236 0 89.1813 16.6403 1484 144.12 960.082 440.571
237 1 48.04 11.9484 574 142.371 962.206 464.204
238 0 48.1183 9.3104 448 147.94 963.212 465.855
239 0 49.0979 9.53197 468 145.825 963.485 467.449
240 0 54.0551 12.6538 684 142.73 963.677 464.101
241 0 57.0353 12.6588 722 138.938 962.399 468.105
242 0 57.0438 14.5853 832 136.739 962.828 465.284
243 0 56.0694 12.538 703 140.933 962.475 465.23
244 0 62.0567 13.6327 846 137.191 961.402 464.738
245 0 65.137 13.8477 902 136.314 961.021 465.701
246 0 66.1173 11.5098 761 142.413 958.233 464.024
247 0 70.1482 11.5327 809 139.535 958.481 465.367
248 0 72.1589 14.6759 1059 135.034 956.918 464.121
249 0 75.0855 14.2238 1068 135.34 956.748 464.234
250 0 78.1272 14.31 1118 137.09 955.723 461.57
251 0 78.0765 12.7951 999 141.412 953.912 458.822
252 0 82.174 11.8042 970 141.648 953.497 459.867
253 1 42.1036 11.5667 487 137.938 952.495 476.043
254 0 46.2493 8.15148 377 143.085 950.92 475.191
255 0 47.1889 10.4686 494 140.753 949.65 473.597
256 0 47.1003 15.053 709 137.389 949.169 469.006
257 0 49.1127 11.667 573 143.136 948.503 466.337
258 0 53.1115 13.4246 713 138.398 948.238 466.607
259 0 51.3092 12.8047 657 140.808 946.834 464.664
260 0 53.2554 12.994 692 141.238 946.643 461.434
261 0 53.4837 14.0417 751 139.69 946.634 461.212
262 0 56.333 14.148 797 142.755 945.871 460.457
263 0 59.3445 15.6712 930 137.797 946.838 459.543
264 0 60.2402 13.3466 804 143.195 947.08 459.657
265 0 60.3075 13.4312 810 143.242 949.151 458.47
266 0 63.3985 13.9278 883 140.497 951.391 460.545
267 0 63.3217 11.1968 709 149.416 952.166 453.275
268 0 67.3573 11.8473 798 146.832 954.381 453.454
269 0 67.2558 13.2033 888 145.148 956.403 455.182
270 0 73.2949 16.6997 1224 139.016 957.39 453.157
271 0 74.1781 16.0425 1190 141.072 958.783 452.938
272 0 78.2734 14.015 1097 144.517 959.516 452.831
273 0 78.2649 13.0838 1024 145.338 959.681 455.967
274 0 83.2635 16.2496 1353 138.697 959.438 456.396
275 0 87.5306 17.651 1545 135.049 958.451 455.772
276 1 47.1162 16.385 772 132.026 958.548 472.874
277 0 48.2165 12.4024 598 138.923 958.923 473.783
278 0 48.2723 11.953 577 136.433 958.95 478.125
279 0 49.2848 12.1336 598 137.425 958.169 475.676
280 0 51.2801 13.046 669 136.212 957.253 473.834
281 0 54.0769 15.367 831 128.728 957.356 473.617
282 0 53.3413 14.5103 774 133.089 955.85 472.278
283 0 53.3299 12.7133 678 137.684 954.28 471.466
284 0 56.2689 16.5633 932 129.305 953.385 472.146
285 0 56.3844 13.3725 754 137.228 951.601 470.378
286 0 57.3808 12.3212 707 140 950.252 469.904
287 0 60.2628 15.7477 949 134.216 949.14 467.279
288 0 61.2641 16.029 982 134.078 947.219 459.848
289 0 64.3551 14.9949 965 135.458 945.84 461.663
290 0 65.3963 15.8113 1034 134.613 945.544 460.872
291 0 67.2609 13.3807 900 138.119 945.243 462.34
292 0 68.2537 14.1677 967 139.171 944.806 454.68
293 0 72.0981 16.1447 1164 135.887 945.917 451.93
294 0 76.1699 16.7652 1277 133.792 946.141 452.02
295 0 78.2284 16.5413 1294 136.791 946.886 451.92
296 0 80.0657 15.9619 1278 138.198 947.689 452.425
297 0 81.107 16.3981 1330 139.504 949.545 447.165
298 0 84.2434 18.4703 1556 136.042 950.476 447.517
299 1 43.0317 10.4342 449 147.432 951.964 464.971
300 0 46.0522 14.3098 659 137.109 954.363 466.907
301 0 47.0689 13.5546 638 127.964 956.418 467.157
302 0 48.055 12.0071 577 143.075 957.981 466.281
303 0 52.196 11.6292 607 141.194 959.596 467.14
304 0 53.0771 13.8101 733 137.026 960.798 464.719
305 0 55.4113 15.9534 884 129.907 960.725 466.083
306 0 54.2904 12.8936 700 134.9 961.833 469.427
307 0 57.2721 13.4446 770 135.936 962.069 465.578
308 0 60.0306 15.4088 925 131.806 961.345 467.511
309 0 64.3472 15.4785 996 131.096 961.214 467.298
310 0 63.2785 16.4827 1043 132.828 960.643 463.435
311 0 68.1368 13.605 927 137.015 960.141 467.155
312 0 69.11 13.4423 929 139.099 959.253 466.276
313 0 73.1599 14.5025 1061 137.377 958.163 464.77
314 0 76.0885 14.2728 1086 137.435 956.704 464.366
315 0 77.0723 13.2992 1025 140.467 955.944 463.431
316 0 80.165 17.4889 1402 133.011 954.445 460.911
317 0 82.1102 14.0177 1151 138.844 953.628 462.029
318 0 85.0789 15.1742 1291 138.966 952.162 457.626
319 0 89.0351 17.5661 1564 136.299 951.204 454.328
320 0 93.2327 17.3437 1617 135.88 949.239 452.335
321 1 49.0235 11.6475 571 144.298 949.275 471.284
322 0 52.0652 14.2514 742 138.574 947.849 470.598
323 0 53.1948 16.1106 857 139.012 947.972 466.39
324 0 56.2837 15.4041 867 134.552 946.877 467.499
325 0 60.2725 17.5868 1060 129.546 946.478 465.528
326 0 56.1118 16.4849 925 134.669 946.831 464.479
327 0 59.1468 13.5088 799 141.437 947.355 461.493
328 0 61.1582 14.6832 898 138.043 946.197 459.728
329 0 64.1212 15.7514 1010 135.824 945.967 458.793
330 0 66.1366 14.0013 926 140.589 948.191 458.422
331 0 68.1779 13.3914 913 140.241 949.352 459.86
332 0 68.2364 12.2222 834 147.011 950.329 455.1
333 0 70.4227 15.4496 1088 141.684 951.859 451.892
334 0 74.2627 16.9264 1257 137.205 954.08 455.558
335 0 78.5399 15.6863 1232 139.024 957.023 453.643
336 0 80.3353 14.5266 1167 143.451 958.27 451.577
337 0 81.2732 17.1643 1395 139.494 958.792 452.238
338 1 44.0446 9.78554 431 146.603 961.513 473.392
339 0 49.079 11.9399 586 140.266 960.908 474.113
340 0 45.0181 11.2399 506 148.381 962.211 472.29
341 0 48.0405 10.0748 484 148.924 961.959 472.907
342 0 49.0394 14.6413 718 144.574 961.082 469.464
343 0 51.5363 15.2708 787 144.87 957.732 469.49
344 0 53.2731 14.3224 763 143.01 956.556 470.946
345 0 53.1482 13.8104 734 150.084 953.832 469.681
346 0 56.0616 16.4819 924 146.041 952.75 467.517
347 0 60.1348 17.7435 1067 142.762 952.399 466.228
348 0 61.1609 16.2195 992 147.382 951.336 464.047
349 0 63.1 15.2298 961 147.431 950.248 467.285
350 0 65.1892 15.0945 984 147.266 948.718 466.802
351 0 68.0768 15.9966 1089 146.828 947.623 463.35
352 0 67.3186 16.6967 1124 147.68 946.982 457.864
353 0 72.2479 18.6718 1349 140.989 945.122 458.935
354 0 75.1441 18.7906 1412 141.321 944.438 458.758
355 0 74.0624 12.5435 929 154.729 943.79 459.407
356 0 76.2906 13.737 1048 149.775 944.037 455.687
357 0 79.2105 13.7987 1093 150.828 942.187 453.832
358 0 82.213 13.6475 1122 151.012 941.789 452.813
359 0 83.2339 13.3479 1111 153.244 941.731 448.73
360 0 88.2185 14.3961 1270 150.346 942.124 448.232
361 0 91.1267 17.4043 1586 142.915 942.619 447.487
362 0 93.3002 13.4619 1256 151.867 943.36 445.148
363 1 49.066 10.3534 508 154.179 945.406 462.451
364 0 48.1533 13.1455 633 146.886 944.675 462.006
365 0 53.0344 11.7471 623 146.26 948.605 464.639
366 0 53.2755 13.6836 729 143.868 952.996 463.513
367 0 54.1338 14.5935 790 139.648 955.08 463.96
368 0 57.3788 12.8096 735 146.173 956.437 460.159
369 0 58.2145 13.9484 812 142.483 958.738 462.86
370 0 60.2801 14.8142 893 140.549 959.924 460.352
371 0 62.1733 12.4491 774 145.344 961.698 460.543
372 0 64.4757 14.6412 944 140.995 959.889 460.892
373 0 64.4862 14.6388 944 127.029 958.902 460.807
374 0 66.2543 13.8255 916 137.964 960.451 466.602
375 0 69.1595 12.0012 830 141.207 959.788 464.488
376 0 70.1577 10.8185 759 143.688 959.926 463.812
377 0 72.2686 12.5642 908 141.954 959.365 460.7
378 0 74.2175 12.3421 916 141.554 958.42 465.11
379 0 79.3775 15.6342 1241 136.02 956.75 461.045
380 0 79.3582 11.4166 906 143.371 956.248 463.566
381 0 84.2337 13.8543 1167 139.045 954.901 460.782
382 0 86.2749 13.3411 1151 141.478 953.515 457.34
383 0 90.2736 14.4893 1308 138.986 952.385 453.951
384 0 92.2067 14.8905 1373 138.207 950.977 451.903
385 0 96.4392 15.6886 1513 134.75 950.712 456.153
386 0 99.4281 15.2673 1518 137.083 949.6 448.21
387 0 102.386 14.5332 1488 138.252 948.186 446.891
388 0 105.427 13.6493 1439 139.866 947.27 445.766
389 0 109.562 14.0469 1539 138.285 946.401 443.052
390 0 111.946 14.0068 1568 140.21 944.096 442.619
391 1 55.4834 12.7966 710 138.11 944.43 458.899
392 0 59.4701 11.3671 676 137.828 943.003 462.994
393 0 60.0554 12.5051 751 136.047 940.608 459.008
394 0 60.1671 11.7672 708 138.377 941.713 460.477
395 0 60.1671 11.734 706 124.289 942.724 460.422
396 0 68.373 14.5086 992 130.508 943.597 454.875
397 0 65.1072 12.8096 834 135.062 945.055 455.928
398 0 67.1338 12.2889 825 132.535 946.102 458.503
399 0 70.2303 12.4305 873 134.981 947.849 450.989
400 0 76.1808 15.5157 1182 128.53 949.744 452.596
401 0 76.298 16.3045 1244 127.861 950.979 453.236
402 0 78.2686 16.5711 1297 129.375 952.787 451.415
403 0 80.2919 12.5791 1010 136.038 954.13 450.13
404 1 40.0602 9.31099 373 136.603 956.067 470.121
405 0 45.2213 9.79626 443 134.366 956.445 470.851
406 0 46.1366 9.0167 416 137.401 957.197 470.387
407 0 46.2174 9.00095 416 134.762 957.57 472.685
408 0 51.2173 13.4525 689 127.361 956.669 472.163
409 0 49.1552 12.8776 633 130.809 956.049 471.994
410 0 50.1219 10.9333 548 132.942 955.434 470.686
411 0 52.489 16.9369 889 125.975 957.227 469.907
412 0 55.0881 15.1212 833 123.154 957.609 472.496
413 0 54.0864 10.6866 578 131.782 956.007 470.763
414 0 56.1425 13.6973 769 126.782 955.12 469.68
415 0 56.1322 13.7711 773 113.797 954.146 469.658
416 0 62.1626 12.1777 757 129.147 953.218 468.155
417 0 62.112 12.7995 795 129.923 951.527 465.928
418 0 65.0439 14.7746 961 125.524 950.51 466.982
419 0 64.107 15.2246 976 127.376 949.111 464.367
420 0 68.1114 17.3539 1182 124.164 948.535 461.042
421 0 70.1064 14.6349 1026 127.603 947.636 461.187
422 0 72.0639 11.24 810 133.806 947.173 460.383
423 0 73.0544 14.2086 1038 131.802 946.492 457.267
424 0 76.1144 12.1528 925 133.57 945.741 458.584
425 0 78.1771 13.8404 1082 130.671 945.726 455.218
426 0 80.1092 14.2555 1142 131.967 944.942 450.182
427 0 82.3574 14.0121 1154 132.286 945.84 449.542
428 0 89.2516 16.5375 1476 126.164 946.228 449.522
429 0 87.1265 11.8563 1033 134.909 947.742 452.924
430 1 46.0231 12.3416 568 130.889 949.352 468.88
431 0 50.1028 13.5721 680 129.344 950.657 466.799
432 0 50.0717 14.3994 721 128.599 952.944 467.233
433 0 52.0958 13.4944 703 128.798 954.246 469.054
434 0 54.0507 12.5438 678 130.499 956.453 468.047
435 0 56.3037 12.1839 686 133.023 958.895 465.665
436 0 57.0617 16.9641 968 122.595 959.963 468.049
437 0 55.1278 13.0061 717 132.414 961.346 467.014
438 0 58.0893 12.6874 737 131.313 961.417 468.951
439 0 61.1107 14.531 888 130.127 962.092 468.03
440 0 63.16 15.6112 986 128.226 961.678 467.236
441 0 64.1514 16.0246 1028 129.396 961.042 465.445
442 0 63.096 10.7931 681 140.579 961.022 467.822
443 0 68.2274 13.7188 936 135.986 960.15 464.087
444 0 68.1519 14.7611 1006 136.462 958.967 459.884
445 0 71.2811 14.4358 1029 136.406 958.889 466.551
446 0 73.3811 12.4555 914 141.3 958.09 465.519
447 0 75.3828 14.831 1118 137.824 956.692 463.058
448 0 76.2717 12.9012 984 141.684 955.351 464.181
449 0 77.3407 14.2486 1102 140.059 953.76 463.622
450 0 78.2083 13.8988 1087 143.96 952.323 458.472
451 0 80.3334 14.4398 1160 144.065 950.787 458.886
452 0 85.2773 20.4626 1745 130.885 950.204 459.87
453 0 85.3074 15.9775 1363 140.58 948.917 459.216
454 0 85.2102 15.7376 1341 144.567 947.701 454.238
455 0 87.3652 16.9862 1484 142.618 946.329 451.894
456 0 91.2924 16.5512 1511 142.332 945.881 452.87
457 0 92.2674 16.1054 1486 144.716 945.712 448.732
458 0 93.3214 16.2771 1519 145.525 944.729 448.518
459 0 95.3933 15.4623 1475 148.151 944.298 445.144
460 0 100.473 14.5811 1465 147.051 945.252 447.826
461 0 101.352 20.9764 2126 137.345 945.311 438.441
462 0 102.236 18.8974 1932 142.685 946.127 439.716
463 0 104.367 18.0612 1885 144.906 946.976 440.378
464 0 106.301 20.9499 2227 142.815 948.504 437.322
465 0 108.171 17.6018 1904 149.634 949.651 436.24
466 0 111.272 17.4797 1945 147.597 952.543 438.653
467 0 111.224 18.7639 2087 148.032 954.788 431.56
468 0 111.255 14.4353 1606 156.159 956.958 438.168
469 0 116.293 19.2702 2241 147.076 959.146 434.911
470 0 116.293 19.3132 2246 156.728 961.151 435.041
471 0 117.3 19.5822 2297 150.037 960.979 436.554
472 0 120.329 19.3303 2326 150.022 961.869 437.29
473 0 121.278 21.4137 2597 147.51 961.254 434.785
474 0 124.35 20.1769 2509 151.155 960.446 436.331
475 0 122.376 20.0857 2458 151.833 960.25 438.976
476 0 127.484 17.7199 2259 158.613 959.702 436.718
477 0 128.672 18.9241 2435 156.504 958.72 436.283
478 0 131.326 18.7168 2458 156.199 958.255 438.484
479 0 128.501 16.8792 2169 162.592 957.718 435.085
480 0 129.407 18.5153 2396 161.75 955.275 429.383
481 0 134.403 20.766 2791 155.515 955.41 434.293
482 0 136.309 20.1968 2753 157.331 952.557 432.393
483 0 137.404 17.5905 2417 165.579 951.265 425.782
484 0 137.437 17.528 2409 161.758 952.297 425.746
485 0 141.588 21.4001 3030 155.834 948.883 430.481
486 0 143.47 21.9419 3148 156.677 948.165 420.293
487 0 141.361 18.7676 2653 163.6 946.883 424.921
488 0 144.458 16.8977 2441 168.05 945.839 423.1
489 0 145.364 17.5146 2546 167.406 946.085 420.781
490 0 149.484 22.5977 3378 155.967 945.705 416.928
491 0 150.381 18.5129 2784 164.404 945.164 417.932
492 0 152.411 18.3517 2797 164.589 945.333 418.432
493 0 154.457 19.3064 2982 160.957 945.461 419.441
494 0 157.492 22.8138 3593 153.441 946.066 416.509
495 0 157.296 22.2574 3501 155.172 946.701 411.735
