time division length width area intensity CMx CMy
0 0 73.2869 20.8086 1525 114.656 1268.53 451.451
1 0 76.4987 15.7781 1207 120.463 1269.49 443.514
2 0 78.3941 12.9984 1019 121.019 1269.79 448.468
3 0 79.3637 12.764 1013 121.764 1271.46 453.01
4 0 81.4917 15.6335 1274 120.539 1270.9 451.351
5 0 88.4807 19.0211 1683 117.745 1270.68 448.67
6 0 93.4456 21.1781 1979 112.153 1269.79 455.398
7 0 93.1922 17.1044 1594 125.283 1269.36 442.359
8 0 93.8314 15.9861 1500 133.008 1267.81 444.965
9 1 51.4967 9.43751 486 136.187 1265.46 467.486
10 0 54.6776 8.74216 478 136.169 1264.81 466.774
11 0 52.5519 9.01966 474 146.103 1264.33 463.184
12 0 62.2424 15.8895 989 126.612 1263.8 466.567
13 0 55.5173 9.96085 553 140.796 1263.65 466.32
14 0 58.3194 11.3684 663 144.431 1262.86 464.581
15 0 61.2712 11.392 698 146.186 1261.35 464.037
16 0 62.082 11.7909 732 145.679 1259.79 464.865
17 0 63.1851 11.8699 750 147.161 1259.35 461.979
18 0 67.2524 15.5682 1047 136.926 1258.35 460.798
19 0 68.1666 13.9511 951 141.979 1257.46 457.994
20 0 71.1915 12.7684 909 145.11 1257.05 456.771
21 0 74.1662 13.281 985 143.055 1256.31 457.191
22 0 75.449 13.5456 1022 142.63 1255.55 453.338
23 1 44.0795 11.7288 517 136.3 1256.07 470.497
24 0 42.0623 14.2883 601 128.602 1256.68 469.542
25 0 50.963 14.0494 716 128.108 1256.95 467.608
26 0 46.3228 14.0751 652 136.482 1254.24 458.937
27 0 47.5938 11.9974 571 139.557 1253.88 458.525
28 0 50.0546 16.1224 807 128.046 1256.8 461.444
29 0 51.1502 15.3861 787 128.828 1257.54 456.086
30 0 51.1425 15.8381 810 126.421 1258.41 460.737
31 0 53.1109 12.5963 669 129.42 1260.34 460.293
32 0 55.1619 11.5297 636 129.412 1261.31 460.458
33 0 56.1742 12.3188 692 130.185 1262.93 457.986
34 0 57.1938 12.0642 690 127.703 1264.57 460.764
35 0 57.1252 9.90806 566 127.608 1266.15 462.76
36 0 60.245 10.9885 662 124.529 1267.03 459.394
37 0 61.3293 11.7888 723 122.988 1267.64 458.876
38 0 65.1485 10.1461 661 123.719 1267 462.262
39 0 70.6173 18.664 1318 112.182 1266.88 467.035
40 0 69.2353 13.3891 927 124.32 1267.07 460.077
41 0 71.203 12.5978 897 128.737 1267.25 461.254
42 0 71.2246 13.0432 929 133.115 1266.26 456.734
43 0 75.2434 14.0079 1054 132.139 1266.08 458.393
44 1 40.0539 10.1363 406 135.167 1264.33 478.921
45 0 43.0313 8.87726 382 139.683 1264.26 477.542
46 0 44.0683 10.2795 453 138.779 1264.67 475.28
47 0 44.1173 10.3134 455 142.13 1263.34 475.93
48 0 46.1536 15.6434 722 130.612 1261.62 476.247
49 0 46.1125 10.1057 466 142.925 1259.51 476.592
50 0 47.0943 13.0589 615 137.938 1258.35 472.468
51 0 49.0827 12.6521 621 139.937 1255.69 470.043
52 0 48.149 6.9991 337 151.629 1253.61 474.089
53 0 47.3032 8.96346 424 147.684 1252.84 474.715
54 0 52.0985 12.8603 670 141.191 1252.15 469.776
55 0 53.19 9.98308 531 145.454 1251.39 468.492
56 0 53.1259 8.69632 462 145.506 1250.84 470.604
57 0 55.1964 10.4717 578 144.285 1250.41 466.967
58 0 59.3563 10.934 649 143.565 1250.08 461.867
59 0 65.3371 12.336 806 137.86 1250.45 459.061
60 0 67.3548 13.5402 912 135.283 1250.67 458.782
61 0 69.1252 11.7902 815 137.487 1251.39 458.475
62 0 70.2678 13.6905 962 135.271 1252.15 454.059
63 0 70.4834 12.3433 870 137.024 1252.9 455.998
64 0 70.1965 11.2256 788 139.127 1255.57 447.728
65 0 79.3052 15.9889 1268 129.837 1258.25 448.389
66 0 80.1452 13.2759 1064 131.267 1260.64 452.609
67 0 84.7215 13.8572 1174 125.834 1262.73 455.727
68 0 85.4496 13.0954 1119 128.578 1264.12 448.924
69 0 89.3304 17.3513 1550 121.923 1265.79 447.07
70 0 92.3319 15.1519 1399 123.48 1265.99 452.461
71 0 94.3758 15.7985 1491 125.276 1266.86 452.398
72 1 48.105 10.2484 493 132.373 1266.13 468.16
73 0 49.2435 9.82871 484 132.541 1266.54 471.711
74 0 51.154 12.7654 653 128.435 1267.57 475.421
75 0 54.1568 11.0051 596 132.779 1266.62 473.205
76 0 54.1739 9.72793 527 133.62 1266.43 468.634
77 0 56.4571 11.3537 641 126.473 1265.17 468.635
78 0 55.2042 9.85432 544 132.941 1264.67 465.327
79 0 58.3396 12.8729 751 131.398 1261.86 474.229
80 0 59.3717 11.6722 693 134.893 1260.36 475.459
81 0 60.3932 11.955 722 141.162 1259.28 468.14
82 0 63.2153 13.4936 853 138.016 1257.48 468.061
83 0 62.2834 11.7688 733 143.246 1255.78 468.61
84 0 67.1626 17.0482 1145 129.768 1254.44 470.423
85 0 66.206 14.3492 950 139.918 1253.1 465.039
86 0 72.4971 16.3731 1187 133.388 1252.46 463.897
87 0 71.2217 12.1171 863 144.764 1251.73 462.025
88 0 74.2196 14.6727 1089 137.476 1250.98 460.998
89 0 78.2341 17.1792 1344 132.063 1250.33 461.802
90 0 80.3184 13.0605 1049 143.067 1250.38 457.1
91 0 83.3578 15.9793 1332 132.407 1250.67 460.219
92 0 84.2076 13.9417 1174 140.019 1250.9 455.884
93 0 89.3097 16.8851 1508 133.963 1251.08 450.251
94 0 88.2602 13.2449 1169 142.05 1251.17 451.416
95 0 95.3467 15.2496 1454 135.697 1251.92 447.404
96 1 51.0523 12.8887 658 136.164 1251.69 467.921
97 0 56.3087 12.5203 705 138.837 1252.6 467.821
98 0 52.1272 12.6613 660 141.017 1254.61 463.938
99 0 56.111 11.3525 637 145.138 1259.37 463.526
100 0 57.0728 16.3475 933 132.133 1259.25 463.456
101 0 59.2372 13.792 817 133.96 1260.59 463.29
102 0 59.3368 18.7573 1113 123.615 1261.86 466.946
103 0 66.3953 19.3387 1284 120.304 1264.03 468.105
104 0 64.2675 17.5361 1127 127.138 1264.32 461.689
105 0 66.1966 12.7348 843 138.031 1265.95 466.681
106 0 68.1621 15.4045 1050 136.486 1266.72 463.961
107 0 72.5251 15.181 1101 130.034 1265.15 465.99
108 0 72.2847 13.0456 943 135.926 1264.29 461.617
109 0 77.6311 15.6381 1214 134.371 1263.43 462.47
110 0 80.4604 13.808 1111 139.783 1263.05 461.009
111 0 78.4299 13.1073 1028 151.542 1261.97 462.033
112 0 77.3026 13.169 1018 154.885 1262.12 459.078
113 0 83.276 14.6741 1222 148.462 1260.87 460.291
114 0 83.276 14.6861 1223 148.38 1258.88 460.447
115 1 44.2102 11.2417 497 148.163 1256.79 477.738
116 0 46.5403 11.0227 513 148.729 1256.04 478.043
117 0 46.2047 11.6006 536 149.332 1254.44 476.726
118 0 48.3794 12.464 603 146.282 1254.41 477.337
119 0 49.2931 11.4418 564 147.516 1251.92 474.989
120 0 50.2742 15.495 779 138.194 1250.37 470.913
121 0 53.1303 15.6596 832 140.397 1247.94 471.166
122 0 54.1149 15.504 839 139.298 1246.68 470.921
123 0 57.1658 13.6095 778 142.675 1246.2 468.752
124 0 59.0699 15.0161 887 140.374 1246.05 465.954
125 0 56.3511 10.8605 612 147.243 1246.23 466.172
126 0 60.2743 12.6588 763 140.397 1245.93 464.671
127 0 59.1224 12.0597 713 142.704 1246.85 463.049
128 0 63.2395 12.1443 768 143.044 1247.07 459.199
129 0 66.1888 14.8212 981 136.959 1248.36 459.808
130 0 68.2093 15.5697 1062 134.939 1250.16 458.806
131 0 68.2526 13.9335 951 140.97 1250.62 453.332
132 0 72.2431 12.3334 891 142.969 1252.38 455.21
133 0 75.2833 13.5222 1018 143.132 1255.23 451.785
134 0 79.3218 14.3844 1141 137.22 1257.77 455.908
135 0 79.285 14.9713 1187 138.773 1259.49 454.075
136 0 82.2465 14.7362 1212 139.162 1260.95 452.37
137 0 86.1808 12.2185 1053 142.726 1261.22 455.948
138 1 46.0824 10.6982 493 145.937 1260.89 473.183
139 0 47.1269 10.2065 481 144.139 1261.35 473.322
140 0 50.0787 12.8598 644 140.905 1260.7 473.186
141 0 53.0997 12.6366 671 139.937 1259.62 473.335
142 0 56.1486 14.1945 797 135.156 1259.99 473.951
143 0 53.1438 11.8923 632 141.362 1259.5 474.824
144 0 55.3457 14.9424 827 135.493 1258.37 473.133
145 0 55.2046 11.0136 608 147.286 1257.93 469.049
146 0 57.188 12.3977 709 142.427 1256.55 473.312
147 0 63.407 13.2635 841 140.51 1255.32 472.225
148 0 63.2535 13.8648 877 140.964 1254.38 467.682
149 0 64.363 12.7713 822 143.523 1252.5 469.089
150 0 69.2697 14.5374 1007 138.93 1250.56 468.44
151 0 66.2592 13.7339 910 144.577 1249.88 463.033
152 0 73.2569 16.2442 1190 138.011 1248.59 465.443
153 0 74.268 16.1038 1196 139.941 1247.67 462.16
154 0 76.2739 12.2453 934 148.584 1246.28 459.245
155 0 75.2382 12.1082 911 150.281 1245.51 456.898
156 0 84.3187 16.5562 1396 138.845 1245.89 458.376
157 1 43.1323 8.02182 346 153.483 1244.36 472.61
158 0 43.1323 8.13775 351 148.946 1243.37 472.627
159 0 46.0163 10.4963 483 150.176 1244.08 470.402
160 0 48.0614 13.025 626 144.752 1244.66 467.674
161 0 50.0788 11.7415 588 146.583 1245.26 467.199
162 0 52.1748 12.324 643 141.955 1244.71 466.544
163 0 52.1741 13.4358 701 141.007 1245.83 464.455
164 0 52.3325 12.8792 674 142.999 1246.87 464.025
165 0 56.46 15.8874 897 136.05 1249.21 462.101
166 0 58.3039 13.6698 797 140.936 1251.33 463.946
167 0 59.4265 17.6857 1051 133.131 1253.14 462.854
168 0 59.2059 11.6542 690 145.323 1255.53 463.568
169 0 60.5852 14.2444 863 142.862 1256.63 461.542
170 0 62.2749 13.6813 852 141.595 1257.48 465.437
171 0 64.4771 13.5087 871 137.435 1258.95 465.199
172 0 67.3681 14.1907 956 137.124 1258.9 465.078
173 0 69.3261 14.5977 1012 143.503 1259.45 465.433
174 0 70.3777 12.4329 875 144.519 1259.71 464.526
175 0 72.291 14.4278 1043 142.528 1259.47 462.29
176 0 74.2522 13.6427 1013 146.346 1258.23 461.884
177 0 79.1868 14.3458 1136 142.323 1258.15 463.885
178 0 81.2348 15.4983 1259 142.597 1257.4 463.18
179 0 83.1405 13.9643 1161 147.72 1256.62 462.373
180 1 45.0249 7.81789 352 150.892 1255.15 484.153
181 0 47.0826 12.4462 586 144.384 1254.26 479.497
182 0 49.0561 12.292 603 140.905 1253.3 479.357
183 0 46.0418 8.64432 398 150.663 1252.1 476.744
184 0 47.0515 8.43757 397 149.123 1249.65 476.861
185 0 51.0377 15.0477 768 135.206 1248.9 473.641
186 0 52.0595 13.7727 717 138.669 1247.38 471.709
187 0 55.06 15.692 864 137.329 1246.97 472.809
188 0 56.2247 14.6377 823 135.45 1245.74 471.134
189 0 58.4702 15.4951 906 132.99 1245.02 468.955
190 0 59.2974 13.5756 805 136.619 1244.19 467.718
191 0 63.5425 16.8863 1073 127.624 1243.98 465.976
192 0 64.5086 15.8118 1020 129.572 1244.26 460.746
193 0 67.3437 16.6163 1119 125.949 1243.42 462.718
194 0 66.3177 13.3449 885 132.805 1243.71 458.456
195 0 69.0816 12.0437 832 134.768 1246.34 459.808
196 0 69.0833 12.579 869 137.384 1246.37 459.143
197 0 76.0574 14.0946 1072 129.041 1248.57 455.08
198 0 76.2239 13.198 1006 130.959 1250.7 454.348
199 0 79.1183 13.4229 1062 133.233 1251.87 455.183
200 0 83.2752 19.4416 1619 119.843 1252.98 453.222
201 0 84.1232 13.2544 1115 131.857 1254.95 453.258
202 0 87.2525 13.1572 1148 130.994 1256.39 450.713
203 0 87.2525 13.2145 1153 138.845 1258.39 450.67
204 1 47.1765 8.16085 385 137.008 1258.92 470.678
205 0 50.2383 10.9876 552 128.734 1259.85 471.696
206 0 52.2233 14.6869 767 121.585 1259.56 471.971
207 0 48.1556 11.4836 553 131.644 1260.27 469.817
208 0 52.1111 12.3774 645 129.608 1259.02 469.538
209 0 51.0367 9.99281 510 135.908 1256.68 468.198
210 0 55.1038 10.1626 560 135.03 1256.09 468.416
211 0 59.1061 11.877 702 124.553 1255.02 472.023
212 0 62.3183 11.5375 719 133.035 1257.19 472.611
213 0 60.2624 14.1548 853 129.962 1256.64 471.367
214 0 60.2624 14.2045 856 122.314 1255.62 471.485
215 0 66.2338 12.3502 818 132.22 1254.28 466.521
216 0 70.1565 13.983 981 129.487 1253.34 467.616
217 0 72.3274 14.8215 1072 126.932 1251.56 467.626
218 0 72.2996 12.545 907 131.895 1250.97 464.351
219 0 75.4626 17.0813 1289 124.32 1249.73 460.375
220 0 79.3146 12.5072 992 130.291 1248.33 461.643
221 0 82.2052 14.5976 1200 126.324 1247.31 460.386
222 0 85.1717 11.9641 1019 131.903 1246 456.927
223 0 86.2705 11.348 979 133.681 1244.76 452.544
224 0 90.1079 15.2817 1377 127.546 1244.66 448.479
225 0 94.2119 15.1255 1425 128.441 1243.41 445.171
226 1 46.1476 6.34919 293 133.594 1242.08 472.833
227 0 52.2147 12.4103 648 122.207 1244.59 468.823
228 0 52.14 14.1734 739 121.656 1243.99 467.406
229 0 52.106 10.0756 525 127.335 1245.91 466.126
230 0 55.1468 11.7323 647 125.926 1246.56 463.547
231 0 57.2451 12.4203 711 120.644 1247.86 463.409
232 0 61.0821 15.8966 971 113.815 1250.05 459.006
233 0 61.1564 13.6372 834 116.893 1251.98 463.916
234 0 62.1808 15.0046 933 115.421 1252.98 461.79
235 0 65.2226 13.4309 876 116.001 1252.96 464.152
236 0 66.2585 15.6961 1040 113.258 1254.88 462.736
237 0 68.4562 12.1099 829 119.331 1255.08 458.305
238 0 71.3319 13.6124 971 116.826 1256.84 465.823
239 0 72.2465 19.6826 1422 110.693 1257.59 459.586
240 0 72.3159 19.0553 1378 111.592 1257.65 459.627
241 0 74.4271 12.4954 930 124.343 1257.69 456.32
242 0 77.2455 13.1788 1018 122.908 1256.54 459.516
243 0 81.2151 17.6568 1434 115.678 1256.5 459.553
244 0 81.3948 11.7821 959 125.214 1255.89 462.091
245 0 86.3149 13.3697 1154 123.338 1255.87 454.792
246 1 44.4001 8.69367 386 128.992 1252.98 476.158
247 0 52.2655 10.9633 573 122.462 1252.36 477.761
248 0 47.2525 9.41748 445 127.178 1251.94 474.699
249 0 53.0734 12.5675 667 122.202 1254.39 475.42
250 0 52.1562 12.2133 637 121.311 1252.9 477.496
251 0 55.0984 9.87324 544 126.347 1251.74 476.82
252 0 56.2288 10.564 594 125.224 1246.44 471.825
253 0 56.2449 10.5787 595 120.504 1246.01 471.294
254 0 59.4805 15.9212 947 112.144 1244.45 469.07
255 0 59.3717 12.1438 721 118.777 1244.07 463.25
256 0 61.3036 8.85756 543 124.252 1243.39 465.744
257 0 64.2399 13.792 886 116.588 1243.29 460.286
258 0 63.4386 11.6963 742 120.945 1242.5 461.022
259 0 67.4452 15.4941 1045 114.439 1242.13 463.735
260 0 69.4178 12.2303 849 120.363 1241.98 459.386
261 0 75.2969 16.9861 1279 111.484 1242.45 460.072
262 0 73.2698 14.549 1066 116.455 1243.21 455.649
263 0 78.3704 16.1668 1267 113.295 1243.75 458.904
264 0 81.5387 15.0235 1225 114.718 1244.71 457.449
265 0 83.453 15.9731 1333 114.203 1246.97 456.468
266 0 85.2562 15.5062 1322 116.771 1249.02 450.325
267 0 87.4963 14.2863 1250 120.163 1250.88 448.262
268 0 90.25 15.7008 1417 119.207 1253.24 448.599
269 0 93.2903 18.2441 1702 119.505 1255.05 452.354
270 1 45.2422 6.25522 283 135.163 1254.6 474.721
271 0 48.221 11.7791 568 128.408 1255.86 472.623
272 0 52.1803 16.7305 873 119.192 1256.02 473.007
273 0 52.2017 13.4478 702 127.017 1256.21 472.038
274 0 59.5424 16.0054 953 115.983 1256.43 473.642
275 0 58.4288 13.8801 811 123.819 1256.06 471.776
276 0 58.4483 13.1398 768 125.953 1255.59 475.695
277 0 58.3437 11.2094 654 133.31 1255.67 473.369
278 0 62.3456 15.1254 943 124.792 1255.13 475.83
279 0 63.3733 15.6691 993 124.507 1254.46 475.766
280 0 62.2869 13.4057 835 132.594 1253.94 469.911
281 0 67.3339 13.99 942 129.73 1252.54 470.766
282 0 65.3421 12.3351 806 136.488 1251.51 468.917
283 0 71.3134 13.4337 958 131.523 1250.28 468.849
284 0 75.3553 13.934 1050 131.479 1249.12 464.624
285 0 75.366 17.1961 1296 127.315 1247.9 462.907
286 0 78.4419 16.2923 1278 125.403 1245.84 466.941
287 0 82.4227 14.4499 1191 130.303 1245.28 460.06
288 0 84.3746 14.5423 1227 131.238 1244.47 459.238
289 1 45.1771 7.74729 350 136.12 1241.99 478.114
290 0 50.2256 9.43742 474 133.266 1241.35 473.561
291 0 49.0374 10.2575 503 132.72 1241 472.258
292 0 50.0898 9.88226 495 135.198 1240.65 468.954
293 0 49.1755 8.37816 412 139.024 1242 468.835
294 0 55.5464 11.0178 612 132.145 1241.15 466.237
295 0 55.4243 13.2252 733 128.712 1241.48 468.55
296 0 59.2496 14.0592 833 127.23 1242.54 469.81
297 0 58.2206 11.6282 677 134.022 1243.69 467.716
298 0 61.2689 11.9637 733 133.364 1245.59 464.348
299 0 62.2831 10.6449 663 135.178 1247.07 464.142
300 0 62.2773 11.2882 703 131.326 1249.32 466.071
301 0 64.4202 10.7264 691 132.829 1251.05 464.329
302 0 69.4251 12.2002 847 129.538 1253.51 463.527
303 0 69.3167 11.5124 798 131.259 1255.11 461.961
304 0 74.4763 12.5006 931 127.229 1256.76 460.737
305 0 76.226 13.7224 1046 123.558 1257.09 461.054
306 0 78.4771 12.0927 949 125.97 1257.81 463.122
307 0 80.3945 9.26681 745 129.881 1258.44 462.411
308 1 42.3 10.8274 458 129.86 1257.68 475.498
309 0 46.4541 15.6499 727 120.232 1258.45 474.823
310 0 45.1423 10.1457 458 130.886 1254.41 473.594
311 0 46.236 11.8306 547 126.132 1254.48 476.128
312 0 46.236 11.8522 548 127.108 1254.44 476.161
313 0 48.2209 10.286 496 129.427 1253.5 476.728
314 0 48.2209 10.203 492 127.841 1251.55 476.74
315 0 50.1045 9.24069 463 132.477 1251.5 474.458
316 0 54.1503 11.9851 649 128.052 1250.21 471.829
317 0 57.163 13.1029 749 125.041 1249 472.004
318 0 56.2119 11.8302 665 129.211 1247.98 468.977
319 0 59.2184 13.4586 797 126.422 1246.62 467.516
320 0 59.0837 11.5768 684 130.057 1246.73 469.389
321 0 62.1935 12.2038 759 128.163 1245.52 464.366
322 0 64.1021 11.5285 739 129.234 1245.62 464.183
323 0 62.2112 7.44239 463 137.363 1244.34 461.7
324 0 62.2112 7.52276 468 143.857 1244.37 461.855
325 0 70.2611 11.5996 815 128.648 1243.06 455.285
326 0 75.2914 12.777 962 124.701 1243.06 458.624
327 0 75.0652 12.3359 926 127.071 1243.43 455.731
328 0 76.14 10.1786 775 130.208 1244.1 454.831
329 0 77.1336 11.4217 881 131.085 1244.53 449.124
330 0 86.2597 13.4941 1164 126.388 1246.15 450.894
331 0 82.1726 11.3541 933 130.243 1248.08 452.232
332 0 88.2158 14.8046 1306 124.099 1249.31 448.213
333 0 90.3748 13.3223 1204 130.216 1250.23 444.576
334 0 90.2324 11.1933 1010 132.949 1252.04 444.348
335 1 49.0719 11.1877 549 125.304 1255.19 463.982
336 0 51.0865 9.98306 510 124.441 1257.29 467.257
337 0 51.0355 13.52 690 122.132 1257.72 469.622
338 0 53.0334 14.9528 793 124.042 1259.21 470.218
339 0 52.0892 11.6339 606 134.442 1259.18 473.604
340 0 53.0796 14.1674 752 131.222 1259.15 472.763
341 0 56.0307 16.6159 931 126.932 1259.02 472.357
342 0 59.0749 16.843 995 126.799 1258.06 474.209
343 0 62.1192 17.0318 1058 125.019 1257.41 474.693
344 0 62.1085 14.684 912 131.992 1257.01 473.303
345 0 60.2526 11.3024 681 140.366 1256.06 472.771
346 0 67.0532 15.8531 1063 130.846 1255.09 473.52
347 0 66.123 16.2727 1076 132.03 1254.25 472.3
348 0 71.2414 14.2754 1017 134.989 1252.4 471.021
349 0 71.0972 15.078 1072 134.244 1251.02 469.075
350 0 73.052 14.1954 1037 135.736 1250.31 466.206
351 0 77.338 15.1543 1172 131.288 1248.53 470.2
352 1 44.0271 11.9926 528 133.466 1247.36 481.451
353 0 40.0171 11.0703 443 133.609 1246.55 483.826
354 0 42.1396 10.4889 442 133.557 1246.15 482.563
355 0 45.0389 13.0332 587 128.853 1245.1 480.128
356 0 46.0613 10.5946 488 136.707 1244.35 476.25
357 0 49.1943 13.8837 683 127.432 1243.59 476.714
358 0 50.2054 17.2491 866 120.391 1243.55 472.763
359 0 53.3449 12.7285 679 134.517 1242.86 468.649
360 0 53.0863 13.0165 691 132.889 1243.91 470.572
361 0 54.166 14.3263 776 130.64 1244.08 467.919
362 0 55.0948 15.8636 874 128.894 1244.55 466.121
363 0 56.0615 14.5554 816 129.961 1245.85 468.717
364 0 58.0642 15.6551 909 126.844 1247.73 467.254
365 0 59.1164 14.4291 853 133.164 1249.56 462.34
366 0 61.0362 13.1561 803 135.284 1251.19 462.893
367 0 65.0887 15.9628 1039 129.022 1252.94 465.477
368 0 66.0938 16.5371 1093 128.036 1255.17 464.33
369 0 67.0978 14.8738 998 133.452 1256.4 462.13
370 0 69.1751 15.309 1059 132.758 1257.21 462.513
371 0 71.2943 11.2211 800 140.68 1258.76 461.095
372 0 76.1606 15.336 1168 131.328 1258.15 461.908
373 0 77.0755 16.8536 1299 129.966 1258.66 462.253
374 0 81.265 15.0249 1221 133.652 1258.77 462.693
375 0 83.2363 14.2726 1188 135.715 1258.39 457.801
376 1 46.1717 12.3236 569 134.617 1258.66 479.807
377 0 42.1722 9.81688 414 143.908 1257.56 477.437
378 0 49.0777 12.6127 619 135.006 1255.68 481.289
379 0 47.0863 13.9956 659 131.689 1253.18 483.065
380 0 48.1252 9.49606 457 142.228 1252.73 479.713
381 0 53.1256 11.8587 630 135.456 1251.33 481.041
382 0 52.123 12.0101 626 135.227 1249.33 481.01
383 0 54.2807 14.1671 769 133.948 1250.36 478.722
384 0 56.3007 14.6179 823 133.86 1247.42 475.365
385 0 59.2103 16.0107 948 131.301 1246.05 476.093
386 0 61.5 13.8211 850 135.934 1244.41 472.352
387 0 62.2477 13.5748 845 137.264 1243.9 469.484
388 0 64.2365 14.3532 922 136.17 1242.89 470.382
389 0 69.2501 13.444 931 135.969 1242.3 468.66
390 0 68.2838 15.3184 1046 134.831 1241.88 464.035
391 0 71.388 16.0531 1146 131.499 1241.75 463.92
392 0 74.2286 15.2502 1132 134.627 1241.49 458.954
393 0 78.2625 17.8885 1400 127.586 1241.22 463.345
394 0 78.4219 19.3824 1520 128.441 1242.16 455.18
395 0 81.2515 15.4459 1255 137.036 1242.9 453.18
396 0 86.4215 18.3056 1582 130.198 1244.74 452.744
397 0 89.3349 16.7908 1500 132.848 1244.87 453.452
398 0 90.4108 16.7458 1514 134.351 1246.91 451.976
399 0 95.2579 18.4657 1759 129.782 1248.81 452.916
400 1 51.1089 13.931 712 135.61 1249.45 470.548
401 0 51.0281 10.7196 547 143.473 1252.1 473.166
402 0 54.0556 14.2076 768 136.987 1253.91 471.227
403 0 55.1147 15.7127 866 131.065 1256.82 473.225
404 0 55.3624 12.6801 702 137.272 1257.99 475.346
405 0 58.2867 20.8624 1216 123.253 1257.77 473.403
406 0 60.1612 13.7963 830 136.508 1260.24 473.129
407 0 61.1359 11.1882 684 140.832 1260.43 474.406
408 0 64.0999 14.4462 926 137.305 1259.16 471.284
409 0 66.1266 15.4552 1022 134.858 1259.06 473.314
410 0 67.0861 12.3125 826 141.441 1258.04 472.563
411 0 70.1136 14.5763 1022 139.688 1257.03 468.943
412 0 73.2321 14.6521 1073 137.648 1255.69 472.618
413 0 75.0861 14.6232 1098 141.13 1254.9 467.65
414 0 79.278 16.7638 1329 134.684 1253.3 467.494
415 0 81.2491 18.9294 1538 130.272 1252.51 467.022
416 0 83.0967 15.6565 1301 138.213 1251.37 464.374
417 0 86.1203 15.8731 1367 138.16 1249.97 462.958
418 1 47.187 11.7405 554 141.02 1247.13 481.226
419 0 47.188 12.5032 590 139.512 1246 479.308
420 0 50.2676 13.3685 672 138.924 1245.12 475.522
421 0 51.2759 12.579 645 137.324 1243.27 476.282
422 0 50.0954 12.1568 609 137.25 1242.75 474.553
423 0 54.0914 15.215 823 132.61 1242.22 469.679
424 0 56.1187 15.1821 852 135.184 1242.24 470.411
425 0 58.1961 14.159 824 136.697 1241.92 470.473
426 0 57.0679 12.6516 722 141.306 1241.2 467.871
427 0 61.0761 13.2621 810 138.352 1242.17 467.804
428 0 63.1117 14.9259 942 137.794 1242.39 462.623
429 0 65.2621 15.093 985 137.383 1243.53 464.273
430 0 67.3564 16.1974 1091 135.442 1244.18 463.951
431 0 70.2621 14.6594 1030 138.973 1246.17 460.925
432 0 73.2449 16.9159 1239 135.918 1247.51 459.767
433 0 76.1679 18.4986 1409 132.163 1249.47 461.544
434 0 78.3827 16.8532 1321 137.726 1251.55 456.968
435 0 79.3089 14.8029 1174 142.164 1253.92 459.373
436 0 83.3526 17.468 1456 138.166 1254.84 457.552
437 0 84.174 15.361 1293 143.292 1256.98 456.411
438 0 85.2588 15.7638 1344 142.211 1257.52 453.903
439 0 88.2436 14.086 1243 145.093 1258.27 457.951
440 1 47.175 12.1039 571 142.546 1258.33 477.933
441 0 48.2094 10.1847 491 149.363 1258.41 475.825
442 0 51.1083 12.3072 629 144.768 1257.43 477.501
443 0 52.0359 13.3754 696 146.934 1255.74 474.257
444 0 56.1124 11.3879 639 143.075 1257.32 471.59
445 0 57.0629 14.8257 846 143.011 1254.35 477.241
446 0 60.091 16.2254 975 139.868 1252.9 476.55
447 0 62.0613 12.8421 797 146.962 1252.14 474.801
448 0 63.0754 14.554 918 142.874 1251.01 475.775
449 0 65.0387 15.2217 990 140.801 1248.92 473.787
450 0 67.1457 15.9951 1074 141.504 1247.84 468.409
451 0 68.1244 15.3396 1045 142.923 1246.26 467.932
452 0 70.0868 13.0695 916 148.369 1245.32 467.298
453 1 38.0358 9.46476 360 144.447 1243.57 485.258
454 0 38.0358 8.30795 316 150.044 1242.52 484.313
455 0 40.1597 10.3586 416 144.385 1242.1 482.358
456 0 43.057 11.3803 490 139.618 1241.7 480.967
457 0 42.1137 12.0863 509 142.108 1240.98 476.436
458 0 44.1012 10.9294 482 140.593 1241.24 477.71
459 0 47.0603 16.2345 764 129.499 1241.57 476.856
460 0 47.0369 14.5418 684 130.113 1241.96 475.519
461 0 48.0598 12.5677 604 137.005 1241.21 473.285
462 0 48.0598 12.5053 601 137.594 1241.2 473.266
463 0 49.0404 10.3792 509 146.593 1242.86 469.829
464 0 52.0908 13.2653 691 138.509 1244.59 468.326
465 0 54.1466 12.4107 672 139.82 1245.95 470.196
466 0 56.0774 16.1919 908 130.874 1248.15 468.997
467 0 58.0878 12.4639 724 139.035 1250.2 469.224
468 0 59.117 15.4778 915 134.108 1252.22 466.842
469 0 61.0828 14.6031 892 134.434 1254.3 468.638
470 0 60.0817 12.3498 742 141.651 1255.82 466.373
471 0 60.0817 12.3166 740 149.147 1257.84 466.322
472 0 68.0585 14.9871 1020 133.255 1256.76 468.418
473 0 66.0855 13.4674 890 140.089 1256.53 465.165
474 0 71.1441 13.5078 961 138.327 1256.33 466.986
475 0 73.1851 14.8118 1084 137.147 1256.09 466.281
476 0 74.0721 14.1484 1048 139.465 1255.98 467.174
477 0 77.0434 16.4193 1265 134.766 1254.99 467.768
478 1 43.027 8.83167 380 136.242 1253.46 488.942
479 0 46.0795 11.3717 524 135.113 1252.88 486.502
480 0 42.0293 8.94615 376 139.801 1252.06 488.035
481 0 44.0342 9.99222 440 137.959 1251.16 486.752
482 0 45.0698 11.1605 503 137.453 1249.69 485.286
483 0 48.0413 13.759 661 133.936 1247.85 483.05
484 0 48.0951 13.4941 649 136.018 1248.2 481.773
485 0 48.1005 11.2889 543 140.376 1245.75 478.262
486 0 52.076 13.2691 691 132.418 1244.3 477.897
487 0 51.2219 11.7137 600 134.293 1244.13 477.388
488 0 54.0427 10.6767 577 138.565 1243.56 478.09
489 0 58.1572 15.2174 885 128.764 1242.77 473.443
490 0 59.1091 13.7373 812 132.075 1241.9 472.842
491 0 57.1847 13.3077 761 137.197 1241.91 471.436
492 0 60.1201 13.4231 807 136.891 1242.09 467.968
493 0 63.1446 13.6829 864 136.539 1242.34 464.791
494 0 64.109 15.3957 987 132.971 1242.29 462.231
495 0 66.1215 14.0348 928 133.164 1243.04 465.606
496 0 68.3119 14.5948 997 128.574 1244.7 463.44
497 0 68.2865 11.2028 765 136.839 1246.87 460.935
498 0 73.1582 16.4438 1203 127.648 1248.89 460.618
499 0 76.2822 14.0531 1072 130.424 1250.36 461.885
500 0 77.2558 13.7465 1062 133.573 1252.45 456.674
501 0 77.1346 10.9938 848 137.282 1254.34 461.383
502 0 81.2188 12.6941 1031 133.337 1255.14 460.202
503 0 85.2143 16.4409 1401 128.552 1256.8 455.695
504 0 89.3979 14.497 1296 131.32 1257.98 460.629
505 0 92.3709 18.8154 1738 125.244 1258.23 455.919
506 0 95.3361 17.0764 1628 127.816 1258.22 456.793
507 0 94.3052 14.0183 1322 135.812 1257.03 458.348
508 0 99.1981 14.2846 1417 134.378 1257.1 457.896
509 0 104.272 15.287 1594 132.731 1256.24 456.757
510 0 102.267 11.734 1200 141.772 1256.48 453.742
511 0 109.323 14.169 1549 135.856 1255.41 452.568
512 0 112.391 14.9033 1675 135.331 1254.38 450.691
513 0 115.311 15.9741 1842 134.575 1253.98 450.793
514 0 120.302 18.1709 2186 130.705 1252.81 442.237
515 0 123.182 14.6937 1810 138.108 1250.87 441.543
516 0 127.209 14.2286 1810 139.236 1249.82 441.85
517 0 134.344 17.0904 2296 134.968 1248.43 435.643
518 0 137.26 20.3919 2799 127.781 1247.83 435.878
519 1 78.2115 11.8141 924 133.438 1245.24 466.592
520 0 82.1511 13.0369 1071 134.106 1244.47 459.232
521 0 83.2544 13.693 1140 134.068 1243.8 454.911
522 0 87.0822 12.8729 1121 133.237 1244.66 457.81
523 0 89.1436 11.7227 1045 133.155 1244.92 454.496
524 0 93.2417 18.7148 1745 120.159 1244.28 451.379
525 0 96.2015 13.8771 1335 127.446 1244.32 453.052
526 0 96.2015 13.8563 1333 133.396 1244.32 453.305
527 0 103.274 14.6213 1510 130.23 1243.57 444.968
528 0 106.289 11.6475 1238 135.308 1244.17 447.659
529 0 110.303 14.2063 1567 132.244 1245.77 438.95
530 0 114.417 14.788 1692 130.572 1246.36 441.206
531 0 117.249 13.9617 1637 132.02 1247.87 435.536
532 0 120.232 12.4343 1495 137.504 1249.98 437.035
533 1 68.237 11.548 788 130.749 1250.68 465.335
534 0 70.3195 11.5331 811 132.596 1252.13 461.813
535 0 70.3069 12.6872 892 133.879 1256.56 460.738
536 0 72.128 12.7274 918 133.901 1257.62 457.465
537 0 76.2862 13.292 1014 128.876 1258.92 462.636
538 0 80.177 13.333 1069 130.99 1259.29 460.127
539 0 83.1784 15.9537 1327 126.202 1258.85 462.307
540 0 85.2269 15.8049 1347 127.52 1258.91 460.947
541 0 86.3043 13.7421 1186 135.523 1258.56 458.191
542 0 86.26 10.7118 924 141.811 1257.79 458.582
543 1 50.084 10.2827 515 135.062 1258.25 481.796
544 0 51.1216 9.15465 468 138.953 1257.43 480.701
545 0 51.0693 10.8676 555 137.144 1256.16 479.267
546 0 51.0693 10.9459 559 148.596 1256.11 479.288
547 0 60.8259 15.3553 934 122.33 1250.48 475.861
548 0 60.7485 13.7781 837 126.756 1249.6 474.895
549 0 58.205 12.1295 706 133.635 1248.5 475.242
550 0 58.2115 12.1454 707 146.717 1247.49 475.158
551 0 63.3047 15.0068 950 126.477 1246.26 472.283
552 0 64.2616 11.4687 737 132.206 1245.45 470.497
553 0 66.3743 11.6611 774 131.495 1243.75 468.814
554 0 69.2554 15.9843 1107 124.344 1243.28 467.014
555 0 73.388 14.7299 1081 123.746 1243.42 466.629
556 0 75.1699 13.4628 1012 129.252 1243.21 461.933
557 0 76.3287 14.3327 1094 127.729 1242.61 461.174
558 0 78.3151 15.9356 1248 125.418 1243.36 455.24
559 0 82.2578 13.1902 1085 129.141 1243.28 458.931
560 0 84.2173 13.014 1096 133.85 1245.3 455.895
561 0 86.1665 15.0523 1297 131.789 1246.08 454.271
562 0 89.244 15.7994 1410 132.433 1246.84 450.353
563 1 51.2417 13.2314 678 129.842 1247.18 474.795
564 0 52.3132 11.909 623 134.77 1249 469.978
565 0 53.2432 12.7528 679 133.533 1250.97 469.726
566 0 55.125 12.9705 715 134.657 1252.75 469.091
567 0 56.1393 12.0593 677 124.573 1254.47 470.371
568 0 55.2131 10.1244 559 129.589 1255.35 463.51
569 0 60.2274 14.163 853 124.401 1255.43 471.613
570 0 60.1867 13.1424 791 127.077 1256.48 467.924
571 0 63.2976 14.7557 934 129.601 1257.65 471.176
572 0 66.359 15.3559 1019 126.723 1258.32 471.399
573 0 66.3527 14.438 958 129.691 1258.08 470.177
574 0 70.2765 16.0224 1126 125.645 1257.83 470.894
575 0 71.2257 15.1771 1081 130.981 1256.78 469.467
576 0 75.2977 17.5703 1323 126.65 1256.35 468.618
577 0 74.1994 14.9867 1112 133.984 1255.97 471.309
578 0 79.3249 18.2919 1451 127.642 1255.6 468.965
579 0 81.186 15.3105 1243 132.254 1254.77 472.109
580 0 84.2296 16.36 1378 131.522 1254.61 466.71
581 1 41.0406 9.62462 395 141.337 1254.4 486.319
582 0 45.0371 11.9235 537 137.102 1252.24 487.017
583 0 47.0555 12.7722 601 133.998 1251.12 489.285
584 0 47.0555 12.6234 594 146.17 1250.1 489.419
585 0 49.15 14.8525 730 132.753 1248.51 485.081
586 0 52.7754 13.927 735 134.835 1245.35 481.776
587 0 53.2419 13.9364 742 137.736 1243.82 481.248
588 0 55.1106 14.4255 795 134.162 1242.66 484.18
589 0 54.1253 14.3556 777 137.005 1242.55 479.562
590 0 56.1121 17.8215 1000 128.837 1242.01 481.215
591 0 57.1271 11.7982 674 141.338 1241.53 477.269
592 0 61.2656 13.368 819 132.106 1240.6 479.967
593 0 62.2083 17.2164 1071 131.715 1240.56 474.843
594 0 65.1632 12.7372 830 139.659 1240.87 473.383
595 0 65.0842 14.4428 940 138.311 1241.27 471.344
596 0 68.1432 14.4989 988 137.904 1241.98 472.342
597 0 68.1486 15.1581 1033 151.619 1242.88 472.919
598 0 73.2222 17.6039 1289 130.465 1245.39 473.171
599 1 38.0435 9.69943 369 143.046 1245.65 484.981
600 0 41.0472 9.79359 402 140.953 1247.2 485.856
601 0 37.0348 9.9906 370 144.37 1249.52 485.465
602 0 44.0491 13.5304 596 136.502 1249.86 484.374
603 0 43.0884 13.1358 566 138.193 1250.9 486.201
604 0 44.0692 13.7738 607 138.333 1251.86 485.666
605 0 48.2107 14.6648 707 135.098 1253.28 485.506
606 0 48.1977 13.8181 666 139.835 1252.55 482.419
607 0 52.2212 13.8833 725 137.593 1251.8 482.596
608 0 52.0845 14.2653 743 138.865 1251.92 481.131
609 0 51.1157 11.7968 603 143.771 1251.62 481.932
610 0 54.1317 14.5571 788 139.011 1251.1 480.892
611 0 56.228 14.4412 812 138.655 1250.46 484.615
612 0 59.2108 15.943 944 136.298 1249.35 483.358
613 0 59.1118 14.5995 863 140.262 1247.24 478.592
614 0 64.2056 16.8677 1083 134.347 1246.4 479.772
615 0 65.1477 14.0911 918 140.069 1244.82 478.827
616 0 67.1152 13.2757 891 142.205 1243.14 475.835
617 0 72.3935 17.5983 1274 131.783 1242.33 476.012
618 0 72.1603 14.3569 1036 140.043 1241.31 472.188
619 0 73.1193 18.4493 1349 132.599 1240.48 470.498
620 0 76.1589 14.9424 1138 139.906 1239.9 465.539
621 1 36.0516 8.26593 298 143.916 1240.83 486.128
622 0 42.1391 10.6552 449 137.684 1239.69 483.592
623 0 42.1391 10.0619 424 143.783 1238.63 483.113
624 0 43.2595 15.0025 649 133.35 1239.39 477.935
625 0 44.011 14.201 625 134.986 1240.15 476.445
626 0 47.0719 15.7206 740 130.969 1240.43 474.527
627 0 47.0781 13.9555 657 134.467 1241.32 473.912
628 0 48.0592 12.6719 609 136.972 1242.55 473.757
629 0 50.2253 13.5589 681 135.721 1243.73 470.96
630 0 55.2841 16.985 939 122.223 1246.04 474.831
631 0 54.0194 14.2171 768 134.275 1247.48 466.517
632 0 57.1797 13.7112 784 135.034 1248.52 467.242
633 0 58.0863 15.5286 902 131.603 1250.49 466.949
634 0 56.0543 11.5602 648 140.369 1252.84 466.063
635 0 60.3516 13.5539 818 136.089 1253.83 466.862
636 0 64.2027 15.5757 1000 132.546 1255.75 466.417
637 0 65.0485 14.3278 932 134.46 1256.14 466.262
638 0 67.1406 13.1366 882 137.602 1257.23 467.503
639 0 72.0526 16.0022 1153 131.018 1256.62 466.819
640 0 74.113 13.8842 1029 135.753 1256.45 466.643
641 0 75.2883 14.6503 1103 135.473 1255.82 466.44
642 0 81.2713 15.5282 1262 134.344 1255.39 464.612
643 0 82.2206 14.9354 1228 136.05 1255.58 465.632
644 0 85.3881 15.857 1354 134.502 1254.58 463.061
645 1 44.1979 13.711 606 134.62 1252.75 483.493
646 0 42.1096 8.38288 353 143.467 1252.69 485.467
647 0 46.1388 12.4624 575 138.619 1251.06 481.256
648 0 48.0287 14.0749 676 134.473 1249.67 481.942
649 0 48.1799 13.5949 655 134.919 1247.93 481.725
650 0 48.2897 12.2593 592 142.162 1246.77 478.481
651 0 52.0761 13.0578 680 133.244 1246.52 480.019
652 0 54.0511 10.9526 592 137.841 1246.08 477.674
653 0 58.0315 14.854 862 129.171 1245.54 473.606
654 0 58.1367 17.132 996 125.042 1244.89 475.023
655 0 58.1188 14.0402 816 133.31 1243.72 471.664
656 0 60.0913 14.4281 867 130.92 1243.08 471.554
657 0 61.0374 13.2378 808 133.12 1243.25 470.009
658 0 65.0648 16.23 1056 127.368 1243.43 465.95
659 0 65.0648 16.2146 1055 130.875 1243.41 465.882
660 0 68.2178 14.527 991 129.474 1243.81 464.022
661 0 66.1431 11.8682 785 137.822 1244.21 461.841
662 0 73.2826 13.0727 958 132.263 1245.81 458.882
663 0 76.119 15.1868 1156 131.947 1247.66 459.999
664 0 77.1085 11.4384 882 139.811 1249.18 459.749
665 0 80.1175 14.3914 1153 136.304 1251.11 454.818
666 0 80.1823 12.1473 974 141.734 1252.9 457.651
667 0 82.181 12.8497 1056 145.572 1253.9 458.603
668 0 87.1128 13.9704 1217 137.605 1256.23 457.169
669 1 44.2701 8.99026 398 142.425 1256.8 476.837
670 0 45.5493 9.76964 445 142.672 1257.63 471.517
671 0 51.4714 12.8032 659 134.261 1257.13 473.375
672 0 52.3573 14.1337 740 135.386 1257.41 472.296
673 0 55.3971 14.044 778 135.126 1256.73 472.904
674 0 56.213 15.1033 849 132.748 1256.63 477.788
675 0 57.0629 13.2485 756 139.311 1256.51 477.086
676 0 58.222 11.5592 673 142.513 1255.48 476.172
677 0 60.154 12.8504 773 141.354 1254.05 474.316
678 0 64.3871 15.8883 1023 134.53 1252.34 473.588
679 0 65.23 11.0838 723 144.137 1251.56 473.845
680 0 70.328 14.7879 1040 136.747 1249.51 471.513
681 0 73.4414 14.6647 1077 137.434 1247.69 466.989
682 0 74.305 14.9384 1110 139.323 1246.82 467.285
683 0 75.2056 11.8342 890 146.956 1245.07 462.219
684 0 79.4584 14.838 1179 140.83 1243.76 457.955
685 0 82.3056 14.6041 1202 141.601 1242.38 456.379
686 0 83.3809 12.7127 1060 146.639 1241.81 452.966
687 0 88.4333 13.6261 1205 142.562 1241.19 453.407
688 1 46.5725 8.05197 375 141.757 1239.26 475.261
689 0 46.3806 11.0391 512 142.104 1239.13 471.9
690 0 51.3172 12.2766 630 140.44 1238.99 470.098
691 0 51.1424 15.232 779 135.43 1240.46 470.478
692 0 54.1023 15.4707 837 136.03 1242.51 471.233
693 0 52.0512 12.8335 668 140.808 1243.17 468.618
694 0 54.3434 9.84479 535 142.757 1242.31 468.893
695 0 55.1711 11.6728 644 140.863 1243.53 464.888
696 0 58.2201 12.7619 743 138.661 1244.61 466.083
697 0 57.2888 12.0093 688 140.74 1246.73 465.923
698 0 61.3352 13.1572 807 137.82 1249.14 464.665
699 0 63.2951 13.9663 884 136.499 1251.72 464.001
700 0 67.2641 13.9004 935 135.799 1252.79 463.249
701 0 67.4118 14.7007 991 137.768 1253.65 459.704
702 0 67.1822 8.42486 566 150.348 1255.67 464.064
703 0 72.355 12.3143 891 143.331 1256.09 462.713
704 0 73.2546 12.0129 880 145.743 1256.16 459.683
705 0 76.1417 14.2629 1086 142.407 1255.93 460.848
706 0 82.0447 13.5536 1112 141.767 1257.56 462.459
707 0 81.1011 15.0306 1219 141.025 1257.34 462.125
708 0 85.1272 14.8836 1267 139.901 1257.24 463.569
709 0 88.1796 13.8014 1217 143.823 1256.94 461.233
710 0 88.2475 16.2724 1436 141.06 1255.15 460.146
711 0 92.2586 15.359 1417 143.22 1253.35 457.986
712 1 52.0502 10.1248 527 139.947 1252.64 483.214
713 0 54.1074 10.5901 573 146.696 1251.4 476.894
714 0 56.114 10.9242 613 144.765 1249.61 477.082
715 0 56.1312 12.2392 687 144.789 1248.29 472.619
716 0 60.0711 13.2177 794 140.743 1245.81 473.848
717 0 60.0746 12.4013 745 143.813 1244.79 470.498
718 0 62.1056 17.6635 1097 131.44 1244.45 469.24
719 0 63.0679 12.7799 806 136.113 1243.6 469.641
720 0 66.1221 12.9155 854 135.585 1243.42 466.32
721 0 68.1475 13.0012 886 136.405 1243.12 466.141
722 0 67.0996 12.787 858 140.161 1242.74 458.029
723 0 73.0824 13.1222 959 139.144 1243.57 458.754
724 0 74.1585 12.9318 959 142.13 1243.91 460.364
725 0 76.155 15.8886 1210 133.631 1243.5 459.81
726 0 79.2023 13.2824 1052 141.966 1243.24 458.95
727 0 81.192 15.9622 1296 135.923 1244.38 458.642
728 0 83.1291 14.1948 1180 140.496 1245.9 453.926
729 1 41.0492 11.0842 455 142.989 1246.33 473.91
730 0 44.0891 11.2726 497 140.672 1248.03 476.209
731 0 44.0377 12.7164 560 138.646 1252.46 475.541
732 0 45.0725 9.89518 446 142.982 1254.11 477.61
733 0 48.0533 13.0064 625 137.594 1255.85 474.418
734 0 49.0245 15.5636 763 137.898 1254.82 476.288
735 0 54.1252 14.0046 758 138.631 1255.37 475.325
736 0 52.0611 14.0412 731 137.476 1256.78 478.777
737 0 56.1078 14.9534 839 135.43 1256.61 474.967
738 0 58.1053 14.0435 816 134.179 1255.74 480.692
739 0 57.1465 13.8591 792 137.448 1256.58 477.699
740 0 60.271 12.5433 756 138.479 1256.2 479.458
741 0 60.1586 15.1932 914 133.889 1255.19 479.708
742 0 59.1264 11.4162 675 141.504 1254.21 474.027
743 0 68.3629 15.8127 1081 131.543 1252.34 473.897
744 0 67.2215 12.7043 854 136.102 1251.44 475.727
745 0 71.096 13.9952 995 135.221 1249.29 471.315
746 0 74.2375 15.5986 1158 131.965 1247.64 472.27
747 1 39.2386 9.76079 383 137.326 1246.23 488.499
748 0 39.2129 10.3537 406 134.943 1243.85 486.906
749 0 42.3943 8.35018 354 138.178 1242.76 486.155
750 0 43.5275 10.1775 443 137.752 1241.83 482.912
751 0 41.2525 8.02375 331 141.408 1241.13 481.169
752 0 45.5082 12.8548 585 129.778 1240.77 477.265
753 0 48.2219 10.6176 512 133.451 1239.59 477.855
754 0 47.2813 12.9438 612 129.578 1238.89 478.119
755 0 49.3072 13.1015 646 129.059 1238.74 478.653
756 0 49.537 11.446 567 131.598 1238.66 477.683
757 0 51.2224 12.5141 641 131.574 1239.58 472.994
758 0 51.3664 13.5692 697 129.825 1239.96 470.737
759 0 53.3287 12.5261 668 131.078 1240.7 472.226
760 0 54.2627 13.3609 725 129.109 1240.7 472.898
761 0 58.334 13.817 806 129.025 1243.38 469.782
762 0 62.3186 13.8482 863 127.162 1244.21 472.342
763 0 61.3281 14.0718 863 125.636 1245.27 473.569
764 0 67.2737 15.8457 1066 122.608 1247.69 472.971
765 0 69.2682 13.2962 921 127.731 1248.59 473.675
766 0 69.2225 14.9373 1034 127.454 1250.05 470.772
767 0 74.2848 14.1886 1054 127.797 1252.08 471.233
768 0 76.4513 18.757 1434 120.592 1251.88 471.423
769 0 77.462 16.1886 1254 126.14 1252.97 467.048
770 0 78.3221 13.6232 1067 128.131 1252.32 472.216
771 0 81.3997 13.7716 1121 128.022 1252.41 472.442
772 0 82.3066 14.2759 1175 129.411 1252.68 465.33
773 1 40.0657 12.4046 497 129.058 1250.7 489.698
774 0 43.2056 11.2717 487 128.776 1250.51 491.99
775 0 46.1386 11.2054 517 129.18 1248.92 491.809
776 0 45.1344 11.3882 514 132.961 1248.03 489.86
777 0 49.0631 15.4699 759 125.531 1246.75 488.291
778 0 49.1578 13.06 642 130.606 1246.17 485.693
779 0 51.2625 14.8452 761 127.469 1243.74 484.763
780 0 55.3223 12.617 698 129.113 1242.06 485.789
781 0 55.4764 18.1879 1009 123.018 1240.96 481.75
782 0 58.2177 14.8065 862 126.174 1240.48 479.555
783 0 59.225 14.2507 844 128.513 1239.07 478.731
784 0 61.1471 14.6859 898 126.565 1238.32 479.126
785 0 63.1592 16.4505 1039 124.233 1238.1 476.639
786 0 63.1705 13.0757 826 131.111 1237.51 472.062
787 0 67.2276 13.8336 930 128.876 1237.08 471.441
788 0 66.1861 17.5112 1159 124.712 1237.04 468.097
789 0 69.4215 17.3865 1207 123.16 1237.24 464.283
790 0 72.5895 16.1869 1175 125.139 1236.71 461.431
791 0 76.3957 14.8961 1138 124.647 1237.59 465.171
792 0 77.1938 12.2419 945 129.756 1238.37 462.429
793 0 79.4751 14.2057 1129 128.505 1240.24 454.832
794 0 80.384 13.5226 1087 129.677 1240.87 457.793
795 0 84.3483 14.9855 1264 127.074 1242.8 455.333
796 0 87.2635 13.6369 1190 129.444 1244.24 456.631
797 0 90.385 12.6017 1139 132.046 1246.39 451.052
798 0 94.3167 17.6109 1661 124.427 1248.22 449.299
799 1 51.197 14.2196 728 123.422 1248.29 472.169
800 0 51.1579 12.7058 650 125.695 1250.26 471.169
801 0 50.3015 10.1985 513 131.795 1252.07 471.61
802 0 54.2118 14.2958 775 123.618 1254.19 474.605
803 0 52.0918 10.7311 559 130.508 1256.06 472.576
804 0 56.0701 14.357 805 124.318 1256.27 472.212
805 0 56.0709 10.237 574 132.871 1255.95 470.303
806 0 61.1631 12.7855 782 127.907 1256.63 472.449
807 0 64.1284 13.7848 884 126.331 1256.02 471.761
808 0 64.0361 14.0233 898 128.437 1256.29 473.683
809 0 68.1024 15.6529 1066 126.841 1255.2 472.499
810 0 68.1756 16.0908 1097 127.089 1254.53 469.099
811 0 71.1319 17.6855 1258 126.85 1254.12 470.408
812 0 73.0498 13.0048 950 135.613 1252.74 468.982
813 0 75.0675 13.3746 1004 137.691 1251.41 464.721
814 0 76.1702 13.2204 1007 139.26 1249.48 466.065
815 0 80.2666 13.1312 1054 140.547 1248.02 461.693
816 1 39.0101 11.92 465 136.043 1247.71 484.456
817 0 42.0294 11.9916 504 139.546 1246.15 480.688
818 0 43.0306 12.2703 528 138.973 1245.19 477.936
819 0 45.0673 10.3401 466 141.955 1242.52 480.021
820 0 47.0253 12.1211 570 139.053 1242.49 475.567
821 0 50.0534 15.7032 786 131.628 1242.36 475.537
822 0 50.2647 14.8215 745 135.058 1242.12 471.972
823 0 51.2791 13.3778 686 133.984 1241.99 472.806
824 0 54.3089 18.1922 988 128.019 1242.36 472.636
825 0 55.1733 13.9198 768 137.233 1242.57 470.492
826 0 55.2555 14.261 788 136.175 1243.79 471.703
827 0 58.1593 13.5662 789 139.772 1244.73 467.971
828 0 60.2312 12.9003 777 140.519 1246.48 468.139
829 0 62.3249 14.5688 908 137.912 1247.71 466.769
830 0 65.2925 15.2698 997 135.086 1249.04 468.873
831 0 66.2197 13.0777 866 140.878 1250.84 466.553
832 0 70.3219 15.1589 1066 135.57 1252.52 467.348
833 0 70.2314 15.2211 1069 138.046 1254.94 463.514
834 0 73.2089 15.4626 1132 136.408 1255.33 465.858
835 0 78.1863 20.5151 1604 126.995 1256.81 462.541
836 0 81.2651 18.815 1529 130.28 1257.07 462.112
837 1 42.0711 9.84048 414 141.686 1255.46 484.531
838 0 42.0503 11.0582 465 136.191 1255.28 487.09
839 0 45.0911 13.8608 625 135.541 1255.15 485.102
840 0 46.0844 11.5223 531 142.252 1255.91 483.004
841 0 48.0572 15.107 726 131.572 1256.68 485.342
842 0 48.0584 11.7981 567 138.935 1254.37 486.836
843 0 48.3792 13.9109 673 135.548 1253.19 482.654
844 0 52.1833 13.6442 712 135.178 1252.04 483.9
845 0 54.1946 10.4069 564 141.871 1251.03 481.328
846 0 56.2741 11.444 644 139.427 1249.45 482.438
847 0 57.2615 14.6346 838 132.283 1247.64 481.501
848 0 59.2722 12.0461 714 137.889 1246.31 481.13
849 0 59.228 13.5915 805 136.932 1245.32 478.378
850 0 64.2558 13.8042 887 133.976 1244.52 478.18
851 0 63.2071 10.6159 671 141.882 1243.59 476.954
852 0 65.1704 11.4316 745 139.577 1242.99 476.015
853 0 68.3384 13.7112 937 136.844 1242.74 470.414
854 0 73.2519 13.2147 968 136.131 1242.07 470.752
855 0 71.255 13.8657 988 137.425 1241.82 463.615
856 0 75.3306 13.9253 1049 137.179 1241.94 460.379
857 1 38.1563 10.1163 386 139.176 1241.15 481.215
858 0 47.0685 13.0661 615 135.41 1244.09 479.208
859 0 45.0245 9.26163 417 142.384 1244.51 479.189
860 0 46.1737 11.8899 549 138.219 1245.85 478.228
861 0 47.151 12.7887 603 135.766 1245.99 477.952
862 0 47.171 13.7584 649 136.262 1247.87 473.641
863 0 50.0597 13.9434 698 136.15 1249.07 474.953
864 0 49.4223 9.2266 456 143.029 1249.58 471.724
865 0 50.2663 10.9019 548 137.682 1251.18 469.159
866 0 55.2441 14.1916 784 132.497 1251.95 473.399
867 0 56.2638 14.432 812 131.632 1253.37 474.147
868 0 59.5128 14.3667 855 133.426 1253.9 472.105
869 0 58.3001 11.9039 694 138.131 1254.86 472.585
870 0 59.3117 10.9085 647 139.887 1254.71 473.478
871 0 63.2823 12.5944 797 136.89 1255.56 471.597
872 0 65.3812 17.1456 1121 128.807 1255.03 473.688
873 0 69.1986 15.1015 1045 133.026 1255.22 472.882
874 0 70.3556 15.3222 1078 133.961 1255.57 471.83
875 0 72.3339 15.069 1090 134.502 1254.37 472.794
876 0 75.4321 14.3971 1086 136.948 1253.71 468.635
877 0 75.4385 12.9775 979 135.878 1252.68 470.285
878 0 81.4496 16.1204 1313 134.819 1251.27 463.963
879 0 82.2528 15.2578 1255 137.168 1249.22 466.172
880 0 82.4956 13.9644 1152 141.723 1248.23 460.822
881 0 88.2391 15.8206 1396 139.064 1246.47 460.55
882 0 89.3347 16.108 1439 139.136 1245.05 458.595
883 1 47.0829 8.89919 419 144.227 1243.05 482.081
884 0 48.4024 11.1771 541 138.819 1241.85 479.974
885 0 48.253 10.217 493 143.243 1241.27 476.469
886 0 52.1758 15.0453 785 134.885 1240.94 473.611
887 0 55.1386 15.7421 868 132.794 1240.84 476.888
888 0 55.2371 12.0028 663 138.017 1242.35 466.433
889 0 56.0778 15.532 871 132.094 1241.57 463.977
890 0 58.1421 16.6661 969 129.85 1242.27 460.053
891 0 60.2102 17.1566 1033 128.91 1242.14 461.164
892 0 61.0801 12.5736 768 140.062 1243.48 465.251
893 0 64.1942 11.73 753 141.381 1244.53 463.991
894 0 66.0762 12.7883 845 141.701 1245.95 460.585
895 0 69.267 16.7179 1158 134.179 1247.34 460.448
896 0 72.251 18.0205 1302 131.137 1248.46 460.976
897 0 72.1434 14.291 1031 140.441 1250.79 457.829
898 0 73.0904 11.9715 875 146.043 1252.58 459.401
899 0 77.3492 18.7074 1447 133.755 1253.48 458.885
900 0 82.3445 14.5608 1199 140.233 1254.46 461.56
901 0 83.7754 16.8069 1408 138.661 1255.6 454.804
902 0 89.7508 14.8745 1335 141.718 1255.52 455.131
903 1 47.4182 12.7166 603 139.28 1255.72 474.237
904 0 48.3152 10.2866 497 142.702 1256.1 477.308
905 0 51.3571 9.15161 470 143.396 1256.35 477.353
906 0 52.4207 7.43982 390 143.364 1255.15 480.744
907 0 53.3747 11.8408 632 139.566 1254.8 477.606
908 0 57.164 16.8113 961 132.149 1255.29 477.889
909 0 58.1056 12.0126 698 141.106 1255.15 478.751
910 0 59.1998 13.2433 784 138.207 1254.49 477.686
911 0 64.1046 14.8819 954 135.266 1253.49 478.208
912 0 66.1794 14.8385 982 137.216 1252.14 475.278
913 0 70.0922 16.1073 1129 135.766 1250.39 468.939
914 0 71.2264 14.4329 1028 139.659 1249.4 469.423
915 0 72.0667 15.9574 1150 136.637 1248.05 470.321
916 0 72.1298 13.4896 973 143.711 1247.09 464.822
917 0 76.2308 13.8658 1057 141.765 1246.02 464.465
918 0 81.259 14.903 1211 139.506 1244.98 459.773
919 0 83.2725 17.0765 1422 135.53 1244.81 457.989
920 0 86.2683 12.7741 1102 143.74 1244.21 457.102
921 0 88.2081 13.8649 1223 142.423 1244.29 454.535
922 0 91.7104 13.9788 1282 143.133 1242.98 450.866
923 1 49.5511 10.8575 538 143.541 1242.09 468.693
924 0 52.5293 12.7928 672 143.789 1242.92 466.457
925 0 53.3894 12.8115 684 137.478 1244.25 471.094
926 0 54.1747 14.361 778 136.219 1244.86 465.91
927 0 57.2382 13.6098 779 132.149 1246.08 462.737
928 0 56.103 10.6768 599 141.731 1247.49 467.05
929 0 60.081 12.6329 759 136.416 1249.84 465.98
930 0 62.1097 12.6389 785 134.925 1252.29 467.236
931 0 64.1043 16.2236 1040 129.624 1254 464.237
932 0 69.1152 15.7563 1089 130.103 1255.62 460.831
933 0 68.1087 13.038 888 134.625 1257.91 463.572
934 0 70.0845 15.3386 1075 131.01 1259 464.429
935 0 72.2278 12.2114 882 137.719 1258.94 459.515
936 0 77.0386 16.7968 1294 129.008 1260.01 461.879
937 0 79.1749 16.1036 1275 128.457 1259.63 461.958
938 0 81.229 14.6499 1190 131.519 1259.52 460.143
939 0 83.3078 9.96305 830 136.912 1259.28 463.148
940 1 44.0606 13.3906 590 126.866 1258.89 477.905
941 0 46.1036 9.50035 438 131.815 1258.33 481.715
942 0 49.1036 17.3511 852 119.592 1257.7 479.813
943 0 52.0501 14.7742 769 120.598 1256 481.936
944 0 53.1212 16.2271 862 120.682 1254.41 479.703
945 0 55.235 13.5965 751 125.407 1251.76 476.232
946 0 55.4141 14.4728 802 123.486 1250.3 475.786
947 0 57.1734 12.5583 718 126.32 1249.49 474.333
948 0 59.3652 13.8465 822 123.234 1247.29 474.192
949 0 60.2682 13.3072 802 122.572 1246.45 472.895
950 0 64.3071 14.0575 904 122.662 1246.24 470.084
951 0 66.2583 14.9113 988 121.325 1245.63 468.47
952 0 66.2583 14.8812 986 122.373 1245.67 468.269
953 0 68.2778 10.5598 721 128.15 1244.08 464.334
954 0 72.2339 14.3146 1034 122.976 1243.44 462.569
955 0 73.354 14.9412 1096 123.21 1243.39 459.032
956 0 73.235 12.7125 931 126.218 1243.6 458.441
957 0 79.2896 13.0156 1032 125.891 1243.91 457.017
958 1 40.1629 11.8268 475 127.958 1243.19 471.861
959 0 42.0423 11.4884 483 126.41 1243.59 474.369
960 0 41.1015 8.83179 363 132.405 1244.92 472.78
961 0 44.265 9.84977 436 130.126 1245.74 471.892
962 0 47.2391 13.5269 639 125.603 1247.99 470.776
963 0 47.2669 14.3652 679 124.723 1249.7 470.756
964 0 49.1565 15.8474 779 123.605 1254.07 469.062
965 0 50.153 13.2195 663 114.578 1257.86 470.368
966 0 54.0918 12.2385 662 130.432 1256.35 469.627
967 0 53.327 11.5326 615 130.889 1257.43 469.141
968 0 56.343 15.8494 893 123.123 1258.67 468.758
969 0 59.2788 17.4599 1035 118.565 1258.21 472.85
970 0 60.3103 12.2865 741 128.123 1258.83 469.506
971 0 61.274 11.9627 733 129.532 1258.83 470.265
972 0 62.3171 13.9127 867 127.332 1257.64 468.769
973 0 65.3243 15.2623 997 124.422 1257.68 469.015
974 0 66.1797 14.1131 934 129.001 1257.39 465.227
975 0 73.3597 17.8572 1310 121.182 1256.95 466.798
976 0 72.4228 16.2518 1177 124.383 1254.79 468.363
977 0 74.3056 13.9962 1040 130.533 1254.02 462.892
978 0 77.376 12.8593 995 129.946 1253.31 461.456
979 0 80.5809 14.0728 1134 129.411 1250.75 458.409
980 1 43.5022 11.8845 517 129.625 1249.04 478.066
981 0 41.2779 8.09149 334 138.036 1248.88 482.096
982 0 45.2617 15.6424 708 125.894 1247.82 478.84
983 0 49.2211 11.9461 588 129.049 1246.59 480.592
984 0 47.1131 13.4994 636 128.868 1244.75 479.253
985 0 50.3528 13.0281 656 130.758 1243.95 475.651
986 0 55.1046 15.2074 838 125.328 1242.87 474.726
987 0 54.3368 17.4836 950 124.408 1242.15 471.613
988 0 55.3177 13.7027 758 132.402 1242.69 470.135
989 0 59.3397 14.8467 881 129.834 1242.7 467.788
990 0 61.2089 13.2987 814 131.937 1242.45 468.51
991 0 63.2231 13.4919 853 135.58 1243.52 464.757
992 0 61.2505 14.5958 894 134.66 1243.48 463.414
993 0 64.2614 14.6433 941 136.241 1245.46 462.426
994 0 67.347 14.7148 991 135.735 1246.46 459.945
995 0 68.2801 12.1265 828 142.226 1247.63 462.185
996 0 71.3491 14.6463 1045 135.804 1249.43 458.402
997 0 73.225 13.9297 1020 136.828 1251.09 459.434
998 0 75.2827 11.3439 854 143.934 1253.05 458.059
999 0 80.2476 17.608 1413 131.693 1253.68 457.447
1000 0 83.2584 13.9686 1163 137.858 1255.42 458.225
1001 0 84.5334 16.0173 1354 136.791 1255.67 453.869
1002 0 86.5394 13.543 1172 141.089 1256.47 454.482
1003 0 90.7271 14.7916 1342 139.758 1257.04 451.668
1004 0 91.3669 11.3389 1036 145.935 1257.05 455.079
1005 0 95.4444 14.9197 1424 142.029 1257.46 448.072
1006 0 98.4967 14.5182 1430 143.069 1257.49 448.445
1007 1 58.4749 9.83327 575 142.393 1256.52 475.765
1008 0 59.3859 14.1279 839 135.925 1256.74 475.7
1009 0 63.3675 15.0708 955 132.904 1255.79 478.998
1010 0 63.0961 13.9628 881 138.254 1254.2 475.729
1011 0 66.2775 14.8618 985 137.294 1254.89 467.382
1012 0 67.3128 13.9647 940 139.677 1253.61 467.087
1013 0 72.2925 16.7791 1213 133.512 1251.86 468.941
1014 0 72.2971 16.4875 1192 137.122 1249.88 463.526
1015 0 77.128 14.0286 1082 140.458 1248.6 464.152
1016 0 79.2126 12.9777 1028 142.673 1248.16 464.018
1017 0 78.3052 13.971 1094 141.775 1246.87 459.686
1018 0 82.2482 13.8119 1136 142.496 1246.12 459.232
1019 0 87.1626 14.7884 1289 141.932 1245.74 456.013
1020 0 88.0978 14.2682 1257 146.054 1244.69 455.954
1021 0 91.3373 15.1745 1386 144.778 1243.83 449.234
1022 0 92.2282 16.3616 1509 144.4 1243.22 447.59
1023 0 98.3112 15.2577 1500 146.412 1243.11 449.385
1024 0 101.112 15.9624 1614 146.426 1243.4 446.126
1025 1 52.2039 11.3593 593 152.111 1244.12 467.194
1026 0 53.1338 11.3487 603 150.534 1244.19 469.247
1027 0 55.1818 11.8698 655 150.215 1245.22 467.824
1028 0 59.1675 13.1998 781 147.332 1246.49 467.73
1029 0 65.1528 13.4453 876 144.852 1248.01 468.334
1030 0 65.2575 17.4233 1137 137.866 1247.44 470.281
1031 0 66.2558 15.6967 1040 143.921 1250.06 469.081
1032 0 68.2265 16.3426 1115 142.868 1251.01 468.841
1033 0 72.2046 15.6777 1132 144.46 1253.31 469.275
1034 0 74.2533 16.6727 1238 141.943 1254.32 468.925
1035 0 77.1535 18.366 1417 139.694 1254.59 469.299
1036 0 81.1477 17.08 1386 140.484 1255.8 470.074
1037 0 84.0771 17.6743 1486 140.271 1255.75 471.112
1038 0 86.201 15.4059 1328 149.171 1256.13 465.29
1039 0 89.2086 15.0994 1347 149.44 1255.61 466.493
1040 0 90.304 13.5985 1228 153.313 1255.01 463.056
1041 0 95.2492 17.218 1640 146.155 1253.99 464.835
1042 0 100.351 15.5754 1563 149.671 1252.82 461.475
1043 0 100.351 15.4757 1553 149.122 1250.81 461.505
1044 1 59.1207 10.6223 628 145.511 1248.7 486.795
1045 0 61.2282 12.4289 761 143.748 1247.73 482.7
1046 0 64.1976 14.3308 920 141.234 1245.93 481.288
1047 0 65.15 12.8626 838 143.792 1243.81 480.34
1048 0 65.0679 12.9403 842 146.451 1244.79 476.487
1049 0 68.11 13.8306 942 145.972 1243.45 472.453
1050 0 71.2901 13.0874 933 146.324 1242.78 472.13
1051 0 72.1762 12.6773 915 147.527 1241.9 471.273
1052 0 78.2614 18.8471 1475 134.422 1241.85 466.822
1053 0 78.2859 14.2554 1116 144.173 1240.89 464.476
1054 0 78.3761 11.8531 929 148.093 1240.69 467.816
1055 0 82.3913 18.1208 1493 135.302 1241.43 462.847
1056 1 41.1686 9.03602 372 146.788 1241.09 482.374
1057 0 42.1632 9.53437 402 147.512 1241.95 479.841
1058 0 42.1632 9.65296 407 143.73 1241.94 479.759
1059 0 46.0814 14.214 655 138.276 1242.79 474.837
1060 0 47.2622 11.6584 551 144.327 1242.9 473.993
1061 0 50.0615 14.8817 745 138.765 1244.13 470.897
1062 0 52.1517 15.7234 820 136.779 1245.02 470.427
1063 0 50.1668 13.0564 655 143.54 1247.22 470.089
1064 0 54.0358 14.0462 759 141.133 1249.52 469.883
1065 0 55.1389 12.5682 693 144.492 1251.69 467.398
1066 0 59.1672 15.0252 889 137.73 1252.46 469.935
1067 0 61.1324 14.1169 863 137.82 1254.23 471.772
1068 0 62.0971 13.1407 816 142.137 1255.62 469.73
1069 0 62.1369 15.7394 978 137.008 1257.25 465.356
1070 0 65.0946 13.9182 906 140.211 1257.67 466.756
1071 0 64.1353 10.8832 698 147.272 1258.53 469.878
1072 0 67.1014 16.5719 1112 136.282 1257.91 464.97
1073 0 71.2087 13.9028 990 140.205 1257.38 467.675
1074 0 72.1512 13.7212 990 142.263 1257.46 465.593
1075 0 76.2962 15.1384 1155 139.256 1256.56 466.074
1076 0 79.3072 16.7828 1331 136.121 1256.56 465.571
1077 0 79.4234 14.3283 1138 141.368 1256.04 464.187
1078 0 84.2533 14.5395 1225 139.856 1255.12 465.743
1079 0 87.1652 14.157 1234 140.378 1253.09 464.733
1080 1 44.2649 8.92355 395 147.458 1251.93 483.327
1081 0 51.3086 11.9863 615 142.72 1251.07 479.611
1082 0 51.7651 11.417 591 146.657 1249.67 475.142
1083 0 51.3425 13.6924 703 140.174 1248.25 475.583
1084 0 54.3201 12.7577 693 143.201 1246.76 472.76
1085 0 56.3296 14.7525 831 134.708 1245.65 472.639
1086 0 58.0998 12.4269 722 137.794 1246.07 471.684
1087 0 61.0589 14.0029 855 134.612 1245.73 470.963
1088 0 60.0197 11.0964 666 141.221 1245.24 468.857
1089 0 63.1298 13.9395 880 136.506 1244.89 465.831
1090 0 66.0426 14.5966 964 135.935 1244.96 462.322
1091 0 71.0859 14.4332 1026 132.749 1245.1 464.733
1092 0 72.1006 16.6157 1198 130.516 1245.31 460.898
1093 0 75.1071 16.6562 1251 130.641 1244.92 459.09
1094 0 77.2969 15.9127 1230 132.604 1245.99 457.45
1095 0 78.2431 15.1962 1189 134.453 1247.41 453.517
1096 0 83.7346 16.6598 1395 131.902 1248.52 455.604
1097 1 44.119 10.2903 454 140.035 1250.55 473.13
1098 0 46.2007 11.45 529 135.974 1251.67 475.582
1099 0 46.4339 13.3954 622 134.563 1252.39 473.691
1100 0 47.3904 13.2727 629 135.97 1254.39 470.176
1101 0 49.1972 13.0089 640 135.884 1256.35 472.098
1102 0 50.0841 12.1795 610 134.656 1258.03 468.239
1103 0 52.2172 12.7544 666 132.165 1258.72 472.704
1104 0 52.2172 12.697 663 126.623 1259.69 472.736
1105 0 54.1541 12.3536 669 135.662 1259.07 472.43
1106 0 57.1098 10.331 590 138.392 1259.7 473.983
1107 0 59.1223 14.3939 851 133.268 1258.47 471.189
1108 0 59.3684 10.578 628 141.624 1258.15 470.075
1109 0 64.2256 15.9905 1027 130.42 1257.68 471.989
1110 0 65.093 14.0875 917 133.737 1256.34 470.544
1111 0 64.0896 12.8102 821 140.695 1255.35 468.917
1112 0 70.1161 10.7679 755 139.489 1252.82 472.807
1113 0 75.3566 15.9508 1202 130.389 1251.71 469.318
1114 0 75.3278 15.5985 1175 133.718 1250.15 465.483
1115 0 77.4339 14.2057 1100 138.408 1248.78 462.935
1116 0 79.4145 11.6603 926 143.5 1246.77 461.687
1117 0 81.2877 14.3687 1168 140.305 1245.06 457.354
1118 0 85.3494 14.0833 1202 139.565 1243.62 457.184
1119 0 90.2067 13.2584 1196 139.822 1243.53 460.268
1120 1 48.1111 8.97923 432 138.481 1243.23 480.72
1121 0 49.0538 9.80556 481 136.36 1242.45 479.921
1122 0 51.1324 10.5021 537 138.639 1242.07 475.019
1123 0 54.0177 11.6814 631 136.77 1241.43 473.369
1124 0 55.0589 12.4775 687 136.504 1241.96 472.728
1125 0 55.2456 9.1591 506 142.804 1238.84 474.877
1126 0 57.1029 13.537 773 137.785 1240.64 472.796
1127 0 58.1572 13.2744 772 137.981 1241.3 471.225
1128 0 61.1935 13.6126 833 136.143 1241.58 472.712
1129 0 63.273 14.5876 923 132.553 1242.09 472.843
1130 0 63.19 12.502 790 139.265 1243.64 468.865
1131 0 66.3422 13.7771 914 132.174 1247.27 463.45
1132 0 68.0993 14.332 976 131.916 1248.76 464.487
1133 0 72.1346 16.8435 1215 127.826 1250.27 461.529
1134 0 73.1495 15.8169 1157 131.162 1252.37 459.876
1135 0 77.2817 14.803 1144 132.142 1252.64 462.478
1136 0 79.151 13.6322 1079 134.4 1254.04 465.591
1137 0 80.1956 14.4646 1160 133.629 1254.63 464.034
1138 0 81.0559 11.4366 927 142.483 1254.56 459.953
1139 0 86.2564 14.4801 1249 135.845 1254.22 460.627
1140 0 88.1797 13.4498 1186 139.085 1253.84 457.87
1141 0 93.1259 13.8522 1290 138.713 1252.99 461.535
1142 0 97.1878 13.3144 1294 141.63 1252.62 456.01
1143 0 99.3204 14.6999 1460 139.412 1251.07 456.06
1144 0 102.243 13.2821 1358 144.26 1249.79 456.461
1145 0 107.207 14.8684 1594 141.109 1248.37 455.943
1146 1 57.1495 12.6335 722 139.479 1247.02 480.392
1147 0 59.1061 11.6062 686 139.547 1245.39 482.047
1148 0 60.1671 16.9528 1020 130.993 1243.69 478.143
1149 0 62.2056 15.1915 945 136.472 1242.65 475.667
1150 0 65.2846 15.3175 1000 132.972 1240.59 474.985
1151 0 67.2514 13.1001 881 138.05 1241.28 468.546
1152 0 68.1 15.2717 1040 133.559 1241.15 469.49
1153 0 70.0667 13.8868 973 135.113 1240.55 468.124
1154 0 70.1699 12.1277 851 139.595 1240.39 469.26
1155 0 73.077 12.0421 880 139.683 1240.76 466.218
1156 0 76.1718 12.1699 927 139.743 1241 463.111
1157 0 78.1012 13.4569 1051 137.268 1241.37 463.049
1158 0 80.165 11.3765 912 141.988 1241.53 460.216
1159 0 85.1497 16.289 1387 132.906 1242.78 456.019
1160 0 86.1556 11.7114 1009 143.335 1243.47 455.18
1161 0 90.3014 16.3896 1480 133.189 1244.46 452.391
1162 1 47.1036 10.2115 481 138.69 1245.72 474.141
1163 0 49.0394 10.93 536 137.304 1247.69 472.84
1164 0 48.228 10.8443 523 138.489 1247.39 471.35
1165 0 52.226 10.5312 550 138.936 1248.63 471.933
1166 0 54.1639 14.53 787 132.562 1250.78 473.673
1167 0 57.0853 13.6988 782 132.733 1251.73 471.652
1168 0 56.0841 13.8364 776 138.028 1253.43 471.762
1169 0 58.1184 14.1091 820 138.256 1253.85 471.452
1170 0 62.0607 16.5322 1026 132.456 1255.24 469.593
1171 0 64.069 14.578 934 136.147 1255.32 471.081
1172 0 64.0972 12.5122 802 142.191 1255.21 470.714
1173 0 69.0777 16.9375 1170 133.146 1255.23 469.762
1174 0 72.1451 16.9658 1224 132.641 1255.35 470.372
1175 0 73.1272 13.8799 1015 140.313 1255.09 470.972
1176 0 75.1606 16.3117 1226 137.666 1254.36 469.132
1177 0 78.1283 17.2025 1344 134.364 1253.3 472.187
1178 0 77.144 15.7887 1218 140.058 1252.54 469.575
1179 0 83.0877 15.8387 1316 140.32 1251.27 466.513
1180 0 84.0998 15.5648 1309 141.882 1249.84 465.759
1181 0 86.1633 15.0992 1301 145.274 1248.81 460.543
1182 0 90.1004 16.0488 1446 142.827 1247.23 457.329
1183 1 50.0455 13.8674 694 141.509 1246.06 479.367
1184 0 51.0259 13.6793 698 141.941 1245.35 478.946
1185 0 52.1256 14.4075 751 141.193 1243.69 476.638
1186 0 50.0283 12.333 617 144.42 1242.94 475.862
1187 0 55.0934 12.0704 665 145.141 1241.97 472.98
1188 0 57.1048 13.2213 755 144.148 1241.93 470.883
1189 0 60.1312 14.5016 872 135.45 1242.79 469.135
1190 0 60.1723 13.0957 788 139.711 1242.66 467.274
1191 0 60.223 15.8079 952 136.014 1241.51 463.056
1192 0 63.2135 13.5414 856 137.15 1242.05 462.791
1193 0 65.1834 15.0499 981 134.058 1243.07 463.89
1194 0 70.2832 18.7243 1316 125.882 1243.97 461.016
1195 0 70.3715 16.2139 1141 131.733 1245.87 461.16
1196 0 72.3269 17.2965 1251 129.034 1247.87 459.436
1197 0 76.1895 14.8314 1130 130.912 1249.04 460.031
1198 0 76.3721 15.5947 1191 133.081 1251.6 457.976
1199 0 80.3061 16.0386 1288 131.787 1253.78 455.975
1200 0 79.3253 14.2451 1130 136.676 1255.35 456.988
1201 0 85.1647 16.791 1430 132.948 1256.67 455.197
1202 0 86.2699 15.7181 1356 134.309 1257.74 455.375
1203 0 88.3866 15.6132 1380 133.869 1257.59 458.112
1204 0 93.2688 16.9188 1578 130.98 1258.03 457.752
1205 1 49.0949 10.8362 532 140.558 1256.59 476.015
1206 0 55.1079 12.4302 685 136.21 1256.68 477.391
1207 0 55.1293 11.5909 639 138.504 1256.03 478.338
1208 0 59.0646 12.9689 766 132.114 1257.81 473.458
1209 0 58.1252 13.7118 797 134.276 1256.41 472.716
1210 0 59.0278 12.7228 751 136.867 1255.91 471.547
1211 0 62.1383 10.3962 646 138.351 1254.59 472.816
1212 0 64.085 13.5601 869 133.696 1253.74 469.633
1213 0 67.0658 12.1373 814 135.951 1252.42 469.791
1214 0 74.3754 17.6268 1311 122.625 1251.49 471.418
1215 0 74.1696 14.8444 1101 131.934 1249.5 462.655
1216 0 75.1385 10.8067 812 140.16 1248.43 462.252
1217 0 80.1232 15.4512 1238 130.864 1247.21 459.653
1218 0 81.3268 14.952 1216 133.141 1245.64 456.839
1219 0 82.3582 16.4525 1355 130.795 1245.13 453.993
1220 0 87.2359 15.6358 1364 132.822 1243.69 452.534
1221 0 88.1797 14.323 1263 136.448 1243.87 449.57
1222 1 47.1685 7.63222 360 141.164 1243.35 469.275
1223 0 47.1402 6.2155 293 136.253 1243.06 476.355
1224 0 52.1235 10.0339 523 139.539 1243.48 467.201
1225 0 53.0459 10.4061 552 143.609 1243.71 467.926
1226 0 54.0959 13.8643 750 139.141 1244.2 464.483
1227 0 59.2997 14.8736 882 131.537 1243.75 462.626
1228 0 58.2191 14.1706 825 134.948 1244.52 460.079
1229 0 60.219 11.9564 720 139.729 1246.63 459.683
1230 0 62.1436 11.8596 737 140.008 1247.8 462.309
1231 0 65.3556 14.0462 918 137.684 1249.31 460.73
1232 0 65.1896 12.3793 807 142.219 1251.28 458.269
1233 0 68.2511 13.6115 929 139.244 1253.01 460.462
1234 0 70.2441 11.8871 835 143.455 1254.1 457.784
1235 0 73.104 12.7216 930 141.038 1255.49 461.985
1236 0 75.1004 11.9973 901 145.852 1257.09 455.18
1237 0 78.12 13.8249 1080 146.837 1257.52 464.296
1238 0 83.0979 14.0677 1169 145.879 1257.12 465.51
1239 0 86.1707 14.5757 1256 146.712 1257.54 462.58
1240 0 90.1781 18.0975 1632 140.244 1256.9 458.628
1241 0 93.1253 16.5154 1538 142.897 1256.36 460.217
1242 1 53.1289 9.26049 492 145.116 1255.96 480.894
1243 0 53.1271 9.18552 488 152.797 1255.95 480.971
1244 0 51.0348 11.5999 592 145.458 1253.94 477.953
1245 0 56.0963 14.9208 837 140.146 1251.34 477.216
1246 0 58.0903 11.6198 675 137.921 1249.84 487.335
1247 0 60.0585 12.2214 734 139.247 1249.21 482.711
1248 0 60.0923 13.7788 828 138.322 1247.64 478.687
1249 0 62.0676 14.7098 913 135.944 1246.48 479.324
1250 0 67.127 14.5247 975 136.858 1245.3 476.116
1251 0 68.0917 14.1868 966 134.974 1244.46 478.172
1252 0 69.0641 13.7988 953 137.359 1243.35 473.62
1253 0 70.0993 16.3197 1144 135.036 1242.37 469.837
1254 0 71.0963 12.898 917 136.647 1241.42 472.634
1255 0 74.2248 14.1732 1052 137.483 1241.89 467.04
1256 0 75.1427 13.1616 989 138.433 1241.31 467.475
1257 0 79.2255 13.3795 1060 136.821 1241.01 464.135
1258 0 82.1327 13.7339 1128 136.613 1241.24 462.776
1259 0 83.1209 15.7361 1308 133.06 1241.01 459.81
1260 0 86.1683 14.5065 1250 135.166 1242.3 454.874
1261 1 50.1411 13.0233 653 131.596 1244.18 476.597
1262 0 48.0933 10.8123 520 137.102 1244.67 476.012
1263 0 51.1528 11.6514 596 137.96 1245.59 473.77
1264 0 52.4201 13.8306 725 138.356 1246.84 472.181
1265 0 52.0946 14.013 730 135.248 1248.37 468.951
1266 0 54.11 17.2242 932 127.648 1249.74 470.692
1267 0 54.0206 14.1428 764 133.961 1251.22 469.808
1268 0 55.2654 11.9967 663 144.62 1251.62 472.237
1269 0 58.3153 17.131 999 134.16 1252.45 470.881
1270 0 62.1948 16.3197 1015 131.967 1253.25 473.762
1271 0 60.097 13.9608 839 136.715 1253.85 476.089
1272 0 61.1994 13.6112 833 139.812 1254.76 469.457
1273 0 68.2665 14.3848 982 136.599 1254.32 469.827
1274 0 70.2025 15.2416 1070 134.475 1254.2 473.052
1275 0 70.1695 14.9068 1046 135.685 1253.5 470.278
1276 0 72.1226 12.9502 934 137.531 1252.86 474.442
1277 0 75.1534 13.7985 1037 137.673 1251.8 468.107
1278 0 79.2193 10.8433 859 141.336 1250.29 470.752
1279 0 82.1589 13.2305 1087 136.39 1249.05 470.615
1280 0 88.3055 14.7556 1303 132.989 1247.58 465.738
1281 0 90.1131 14.2377 1283 134.053 1246.55 464.635
1282 1 44.0766 9.46081 417 139.847 1246.61 483.173
1283 0 50.2645 11.8374 595 131.871 1244.38 485.114
1284 0 52.2065 10.7841 563 130.858 1243.43 485.199
1285 0 54.2448 12.5542 681 130.824 1243.17 480.634
1286 0 51.0635 12.318 629 133.545 1242.07 475.827
1287 0 55.1056 12.7029 700 131.827 1241.72 475.051
1288 0 58.2733 12.0638 703 130.437 1240.25 472.659
1289 0 57.112 13.2547 757 128.878 1239.79 472.379
1290 0 59.0747 12.5604 742 129.765 1239.69 468.226
1291 0 63.0845 13.1094 827 129.84 1239.52 467.392
1292 0 64.1851 14.2089 912 126.808 1240.46 467.905
1293 0 67.2867 13.4796 907 128.326 1240.14 472.573
1294 0 70.1228 12.9487 908 129.991 1240.99 470.883
1295 0 72.1882 15.4042 1112 125.742 1242.31 468.308
1296 0 73.0876 13.217 966 130.821 1243.83 463.837
1297 0 78.0709 15.3707 1200 125.653 1244.44 462.551
1298 0 81.08 13.1968 1070 130.361 1245.46 460.295
1299 1 43.0665 12.0976 521 129.831 1247.67 478.228
1300 0 45.046 8.19162 369 133.753 1249.01 479.919
1301 0 46.0337 9.03685 416 132.55 1250.05 481.214
1302 0 49.1993 12.2563 603 127.965 1251 478.861
1303 0 50.0806 16.3137 817 123.044 1251.33 478.983
1304 0 48.419 10.9461 530 131.983 1249.82 478.013
1305 0 50.3533 10.9625 552 132.774 1251.3 477.88
1306 0 55.4782 14.0596 780 126.495 1250.81 475.718
1307 0 55.3393 11.5108 637 132.771 1250.86 476.692
1308 0 58.1646 13.6337 793 129.021 1250.87 480.134
1309 0 61.2548 16.2273 994 124.44 1249.92 477.504
1310 0 62.2737 13.9224 867 129.277 1248.78 474.155
1311 0 67.5204 14.2772 964 127.99 1247.62 476.831
1312 0 66.1561 16.9145 1119 123.562 1246.34 478.832
1313 0 69.2918 15.4131 1068 127.323 1245.67 472.748
1314 0 72.3194 15.8879 1149 125.984 1243.98 472.171
1315 0 73.3279 14.6602 1075 129.529 1243.16 468.63
1316 0 73.2825 12.4313 911 135.386 1241.73 469.023
1317 0 79.419 15.966 1268 127.809 1240.36 465.706
1318 0 80.322 16.384 1316 127.765 1239.44 463.039
1319 0 87.3738 20.006 1748 119.533 1238.68 465.804
1320 0 86.3071 16.9163 1460 126.909 1237.58 463.312
1321 0 88.2399 14.5399 1283 132.851 1237.93 460.284
1322 0 91.231 19.2917 1760 123.24 1237.67 458.87
1323 0 94.2596 17.4306 1643 126.848 1237.06 459.397
1324 1 55.109 14.8614 819 128.076 1237.21 476.295
1325 0 53.0784 10.4186 553 139.333 1238.41 472.599
1326 0 60.1352 13.4031 806 133.063 1239.14 471.622
1327 0 59.1754 11.5589 684 139.408 1240.43 469.193
1328 0 61.0976 13.814 844 135.639 1239.9 466.156
1329 0 62.1236 14.4228 896 130.779 1240.84 464.429
1330 0 64.0793 14.7942 948 131.486 1242.58 462.287
1331 0 69.0945 14.1256 976 132.076 1244.63 461.848
1332 0 68.1223 11.1711 761 139.965 1246.36 462.087
1333 0 72.1278 12.2283 882 138.803 1247.91 459.083
1334 0 75.0953 14.8744 1117 134.373 1249.54 459.576
1335 0 75.0884 14.9024 1119 145.073 1251.51 459.52
1336 0 79.116 13.8025 1092 139.199 1252.28 456.653
1337 0 83.2342 14.4772 1205 134.83 1252.95 460.69
1338 1 42.062 8.08331 340 137 1253.04 479.118
1339 0 45.1121 8.9333 403 136.625 1252.26 480.117
1340 0 45.1457 11.8727 536 132.662 1251.49 482.09
1341 0 47.1385 10.4585 493 137.379 1251.22 481.554
1342 0 49.0413 15.5787 764 128.441 1250.95 483.894
1343 0 49.0353 15.4175 756 128.783 1250.92 483.937
1344 0 52.1343 10.3962 542 139.111 1248.87 482.485
1345 0 55.3402 16.7871 929 132.38 1247.58 479.695
1346 0 55.0956 11.6162 640 137.617 1248.14 483.672
1347 0 58.0783 12.5692 730 137.818 1247.19 476.788
1348 0 59.1301 14.4258 853 136.415 1245.09 476.653
1349 0 63.1743 14.4046 910 132.793 1244.35 480.295
1350 0 63.058 12.5599 792 139.254 1243.49 476.51
1351 0 64.0687 14.0318 899 138.514 1242.16 471.595
1352 0 68.1059 14.7711 1006 134.408 1241.48 473.78
1353 0 71.1805 13.9645 994 134.423 1240.69 472.362
1354 0 72.1085 15.1577 1093 133.435 1240.21 469.189
1355 0 74.1716 17.109 1269 130.147 1239.48 468.687
1356 0 75.1174 14.6038 1097 137.022 1239.6 464.042
1357 0 79.2419 16.6326 1318 132.502 1239.21 463.41
1358 0 80.1815 19.0942 1531 128.77 1239.12 460.802
1359 0 85.1663 14.7476 1256 135.018 1239.03 461.719
1360 1 46.1232 13.3772 617 137.319 1239.72 475.25
1361 0 49.0843 11.6942 574 139.134 1240.38 476.706
1362 0 48.1975 11.3699 548 144.507 1241.53 475.111
1363 0 52.2047 12.7958 668 139.108 1243.01 474.013
1364 0 51.3836 10.6649 548 147.173 1243.5 470.684
1365 0 53.322 12.7152 678 145.007 1245.45 468.773
1366 0 56.3178 13.9743 787 142.802 1247.64 468.628
1367 0 56.4714 14.4675 817 143.333 1249.42 469.327
1368 0 56.2329 13.1773 741 147.027 1250.93 470.48
1369 0 61.3863 15.2477 936 141.532 1251.67 469.264
1370 0 62.1789 16.2756 1012 139.624 1252.9 469.219
1371 0 64.337 13.6935 881 144.898 1253.68 470.336
1372 0 67.3408 13.6767 921 143.708 1253.31 470.054
1373 0 69.3222 14.2234 986 142.695 1252.93 470.457
1374 0 69.2189 15.2704 1057 141.918 1253.32 470.515
1375 0 72.2393 15.1164 1092 142.703 1253.18 469.729
1376 0 73.1931 13.8674 1015 147.534 1253.24 467.413
1377 0 78.2194 14.1781 1109 146.424 1251.82 468.198
1378 0 81.3314 14.2012 1155 143.977 1250.59 469.556
1379 0 84.1626 15.4938 1304 143.311 1249.66 466.625
1380 1 47.1379 12.2619 578 142.547 1246.61 483.564
1381 0 43.0885 7.24091 312 156.862 1245.4 482.029
1382 0 50.0574 12.8652 644 143.792 1243.36 481.655
1383 0 50.055 9.36969 469 151.932 1242.3 481.787
1384 0 54.3151 14.8577 807 139.835 1241.88 481.14
1385 0 54.0557 14.707 795 142.279 1240.44 478.346
1386 0 55.39 15.7429 872 142.102 1240.53 475.244
1387 0 54.2315 13.2949 721 149.974 1239.96 474.549
1388 0 55.2694 12.5929 696 149.861 1239.64 474.967
1389 0 60.3367 15.6455 944 142.892 1239.39 472.254
1390 0 60.2326 13.4313 809 149.006 1239.02 470.624
1391 0 62.3085 14.5727 908 146.241 1239.86 467.95
1392 0 63.2466 15.8428 1002 141.691 1240.26 470.013
1393 0 68.2454 16.9096 1154 140.042 1240.34 464.621
1394 0 69.2387 15.3382 1062 143.248 1241.38 465.7
1395 0 69.0935 15.0376 1039 144.474 1242.41 464.431
1396 0 73.1649 17.9047 1310 138.277 1244.77 459.966
1397 0 73.1038 12.9131 944 148.249 1245.77 462.601
1398 0 77.1989 15.0909 1165 142.008 1247.89 459.978
1399 0 81.1467 15.1331 1228 140.824 1250.95 459.454
1400 0 84.2535 15.3465 1293 139.818 1252.21 460.686
1401 0 83.3444 13.9302 1161 143.803 1253.85 457.354
1402 1 48.0597 12.318 592 140.111 1252.91 479.157
1403 0 47.1291 15.4469 728 137.273 1254.73 477.14
1404 0 52.0629 13.4837 702 140.313 1254.99 476.902
1405 0 52.0606 12.1397 632 143.709 1255.26 477.649
1406 0 55.0358 12.7917 704 139.692 1256.52 479.418
1407 0 58.2184 14.1364 823 136.165 1254.54 475.552
1408 0 58.0348 11.6654 677 136.713 1254.9 479.976
1409 0 60.0386 13.0249 782 133.574 1253.99 479.495
1410 0 61.1229 13.8573 847 138.868 1251.9 480.046
1411 0 63.1421 11.7354 741 141.236 1249.7 485.537
1412 0 68.2585 14.1374 965 138.175 1249.13 482.095
1413 0 69.1775 14.152 979 138.751 1247.85 479.084
1414 0 73.1688 15.7991 1156 133.593 1245.6 480.626
1415 0 76.2009 16.7846 1279 133.583 1244.67 476.69
1416 0 80.1591 13.1738 1056 135.396 1243.18 481.984
1417 0 78.1344 14.1295 1104 139.413 1242.37 473.479
1418 0 82.1055 14.457 1187 138.7 1241.24 472.414
1419 0 86.2237 16.0397 1383 131.396 1240.35 474.897
1420 0 87.1625 13.5035 1177 139.799 1239.66 467.331
1421 0 86.1185 13.6324 1174 139.848 1239.52 464.676
1422 0 89.0885 14.4014 1283 139.936 1239.25 460.537
1423 1 53.0972 13.5977 722 137.74 1238.21 482.024
1424 0 52.057 9.77775 509 146.12 1238.17 477.933
1425 0 52.0394 11.2607 586 144.119 1238.63 477.795
1426 0 57.1098 13.6929 782 138.303 1238.97 477.575
1427 0 57.0558 14.4069 822 134.522 1240.99 471.572
1428 0 59.0335 14.7204 869 133.367 1241.44 474.005
1429 0 61.1263 13.9384 852 132.552 1241.29 471.275
1430 0 65.0778 16.7646 1091 127.93 1242.13 468.542
1431 0 63.1606 12.3178 778 138.738 1243.55 468.095
1432 0 67.0496 15.6004 1046 133.381 1245.29 466.332
1433 0 69.0459 15.5983 1077 131.892 1247.23 468.393
1434 0 72.1603 14.5094 1047 134.84 1248.37 467.255
1435 0 74.1039 12.9143 957 138.09 1249.83 464.423
1436 0 79.1112 16.3694 1295 129.62 1250.48 467.699
1437 0 81.063 14.2852 1158 135.148 1251.26 467.52
1438 0 84.2154 17.0396 1435 131.038 1251.23 466.904
1439 0 86.0683 16.0338 1380 135.412 1251.13 464.764
1440 1 47.0187 9.44305 444 136.89 1251.79 488.376
1441 0 48.118 14.1527 681 131.142 1251.11 487.737
1442 0 49.065 14.8782 730 131.429 1250.43 487.885
1443 0 54.0965 14.7145 796 134.932 1247.92 487.819
1444 0 56.0407 15.7743 884 135.992 1246.68 484.561
1445 0 58.1605 18.5693 1080 131.194 1245.06 483.392
1446 0 57.2338 14.9737 857 140.019 1244.04 481.649
1447 0 60.1709 15.0737 907 137.808 1242.52 481.18
1448 0 62.165 15.3141 952 137.835 1241.1 475.419
1449 0 65.2359 16.5706 1081 136.019 1240.62 475.296
1450 0 66.2032 18.1109 1199 132.932 1239.29 477.711
1451 0 68.1392 16.6277 1133 136.532 1238.06 475.848
1452 0 71.195 19.0322 1355 131.604 1237.21 472.552
1453 0 69.3387 14.8258 1028 141.6 1237.12 467.438
1454 0 72.1675 15.9074 1148 139.807 1236.93 467.745
1455 0 77.1449 16.7736 1294 135.817 1236.77 468.151
1456 0 80.1362 15.0494 1206 138.09 1236.96 466.893
1457 0 81.1397 20.1011 1631 127.722 1236.74 463.634
1458 0 84.1957 17.4831 1472 131.811 1237.02 461.205
1459 1 45.0992 10.5323 475 141.158 1236.35 475.931
1460 0 46.2613 14.0074 648 133.897 1237.18 475.715
1461 0 50.0487 11.4089 571 135.867 1238.84 476.827
1462 0 51.0888 12.4489 636 137.222 1239.71 472.101
1463 0 51.1378 10.8139 553 141.799 1240.9 471.273
1464 0 53.0669 11.2688 598 140.657 1242.57 471.182
1465 0 58.1796 13.9224 810 135.983 1245.89 469.885
1466 0 56.0794 12.411 696 138.908 1246.9 470.678
1467 0 58.0739 15.1876 882 132.348 1249.86 470.702
1468 0 61.1573 14.2256 870 133.785 1252.45 472.044
1469 0 64.0857 13.0294 835 136.45 1253.87 469.589
1470 0 67.1697 17.6568 1186 127.594 1254.32 469.317
1471 0 70.0986 18.4597 1294 126.389 1255.69 469.536
1472 0 74.1186 15.2189 1128 131.621 1255.8 471.804
1473 0 74.1745 15.5309 1152 132.027 1255.65 472.041
1474 0 77.1314 16.3228 1259 129.307 1255.38 469.852
1475 0 78.0955 15.4042 1203 131.959 1255.94 469.676
1476 0 80.099 12.9964 1041 137.698 1255.44 467.166
1477 0 84.1612 19.1894 1615 126.554 1254.46 467.078
1478 0 86.1662 14.9943 1292 133.87 1254.06 467.142
1479 0 89.2255 17.6071 1571 129.961 1252.34 465.239
1480 0 93.106 15.8529 1476 134.547 1251.82 463.415
1481 0 94.1091 15.6095 1469 136.031 1249.75 463.231
1482 0 97.129 17.2142 1672 135.351 1249.18 455.312
1483 0 99.2435 13.8548 1375 141.459 1246.95 458.849
1484 0 101.292 14.4928 1468 141.162 1245.93 458.941
1485 0 104.352 16.9618 1770 135.606 1244.41 454.388
1486 0 109.311 14.2529 1558 140.687 1243.36 452.653
1487 0 115.337 16.9677 1957 136.275 1242.48 450.215
1488 0 115.17 15.6291 1800 139.159 1241.95 443.202
1489 0 121.266 16.6329 2017 135.615 1241.39 444.925
1490 0 123.175 16.6512 2051 137.414 1241.32 442.018
1491 0 127.178 18.3915 2339 135.59 1241.35 437.676
1492 0 132.286 16.5777 2193 137.791 1241.56 437.287
1493 0 136.243 16.1109 2195 141.592 1241.45 431.896
1494 0 139.201 14.5401 2024 145.063 1242.36 432.848
1495 0 146.204 18.2142 2663 137.898 1242.46 422.318
1496 0 151.243 17.7727 2688 136.772 1242.94 423.432
1497 1 66.091 12.4828 825 139.627 1245.41 464.224
1498 0 66.1075 12.8881 852 140.616 1247.41 461.813
1499 0 72.0673 15.4855 1116 133.605 1248.77 459.773
1500 0 73.0999 13.8714 1014 136.311 1249.94 458.016
1501 0 75.1 14.5273 1091 133.164 1252.26 460.886
1502 0 76.1615 14.1016 1074 133.014 1253.83 464.514
1503 0 78.3541 12.3797 970 137.833 1255.19 462.845
1504 0 82.2235 13.9863 1150 134.837 1255.63 462.678
1505 0 86.1862 15.5245 1338 131.91 1256.45 463.466
1506 0 89.0919 15.9947 1425 133.715 1256.55 461.342
1507 0 90.2295 16.048 1448 136.294 1255.98 455.55
1508 1 47.2272 10.8624 513 137.936 1254.67 480.776
1509 0 48.4015 10.7021 518 136.315 1253.7 480.533
1510 0 49.4661 11.7454 581 137.816 1254.45 478.442
1511 0 52.3369 13.0501 683 132.706 1252.73 482.104
1512 0 53.1815 10.1539 540 140.733 1252.49 480.328
