time division length width area intensity CMx CMy
0 0 72.3435 12.4683 902 140.042 1191.37 452.906
1 0 71.2331 12.7188 906 139.85 1192.62 449.453
2 0 74.3597 12.5471 933 136.547 1193.3 453.207
3 0 77.4357 18.751 1452 125.968 1194.98 456.979
4 0 81.1981 17.7714 1443 127.634 1194.41 455.717
5 0 83.272 13.7381 1144 137.397 1194.62 446.483
6 0 84.3063 12.2174 1030 139.51 1193.7 451.917
7 0 90.32 18.3348 1656 135.343 1193.54 444.501
8 0 93.3422 14.6236 1365 149.867 1191.86 444.81
9 0 95.225 14.9541 1424 151.514 1190.73 447.249
10 0 98.2052 16.2415 1595 150.913 1190.27 440.579
11 1 54.7163 12.3912 678 148.088 1187.7 470.847
12 0 49.0965 11.9968 589 151.986 1187.85 467.112
13 0 51.0487 10.6369 543 153.808 1187.46 463.831
14 0 56.0793 11.3233 635 155.894 1186.05 463.181
15 0 56.05 13.0062 729 164.76 1183.5 465.073
16 0 56.2298 12.9469 728 160.633 1182.19 466.626
17 0 58.2137 13.5879 791 159.89 1181.8 464.721
18 0 63.1098 13.8172 872 156.4 1181.09 460.232
19 0 62.1898 10.4358 649 164.712 1180.07 462.633
20 0 65.2791 12.9444 845 158.66 1179.64 458.618
21 0 65.1807 10.8007 704 163.99 1178.93 458.295
22 0 71.2224 13.8861 989 151.914 1178.75 456.945
23 0 70.1145 13.6063 954 156.542 1179.08 452.459
24 0 75.2318 13.8771 1044 150.785 1179.96 449.407
25 0 77.1158 13.8752 1070 154.014 1180.02 447.778
26 0 78.1729 14.8389 1160 156.467 1179.91 444.768
27 1 42.1663 9.62854 406 157.185 1178.47 467.857
28 0 44.0403 11.1035 489 152.564 1178.86 465.722
29 0 44.0962 8.52682 376 159.907 1182.26 461.793
30 0 48.1965 11.7021 564 148.98 1182.91 461.261
31 0 49.1954 10.3668 510 149.898 1184.5 461.131
32 0 49.3106 11.8027 582 147.387 1185.71 461.074
33 0 52.2865 12.508 654 147.526 1187.39 459.035
34 0 55.2242 15.9531 881 136.003 1189.13 462.034
35 0 57.4341 12.954 744 140.491 1191.12 460.587
36 0 55.2311 9.86764 545 143.974 1191.35 464.086
37 0 59.2316 15.7011 930 133.668 1192.34 460.53
38 0 62.1776 15.6487 973 133.287 1191.78 461.54
39 0 64.1854 13.4299 862 138.419 1191.33 466.295
40 0 64.1836 15.331 984 138.316 1191.46 464.584
41 0 65.2287 13.0771 853 150.002 1191.77 462.598
42 0 67.3366 14.2122 957 156.237 1190.48 460.917
43 0 69.2614 12.7488 883 162.565 1190.12 459.682
44 0 71.2097 12.8494 915 164.343 1189.29 461.98
45 0 74.1408 14.4725 1073 157.094 1189.61 460.433
46 0 75.1291 14.0824 1058 161.154 1187.37 457.928
47 0 77.0918 12.9197 996 168.405 1186.28 458.055
48 0 80.1158 14.4416 1157 163.63 1185.66 456.177
49 0 81.0871 14.8112 1201 163.522 1183.57 456.394
50 0 85.1529 14.1745 1207 164.197 1182.17 455.216
51 0 86.1942 14.8502 1280 164.893 1180.68 452.294
52 0 89.0639 14.731 1312 164.014 1180.03 453.931
53 0 93.1057 15.2622 1421 163.093 1179.06 452.393
54 0 93.2175 14.2141 1325 168.417 1177.75 448.319
55 0 96.2007 14.4386 1389 166.58 1177.28 445.94
56 0 98.2224 11.7183 1151 173.51 1176.89 445.793
57 0 100.335 14.1128 1416 169.904 1176.31 439.472
58 0 105.532 13.0955 1382 172.229 1175.58 435.391
59 0 106.479 15.2613 1625 165.668 1175.76 434.846
60 0 110.692 13.8402 1532 169.574 1176.36 428.977
61 0 114.783 14.9238 1713 166.895 1177 425.784
62 0 119.323 15.7891 1884 165.137 1177.63 422.132
63 0 122.767 14.7515 1811 169.038 1178.71 422.935
64 0 124.664 14.2383 1775 170.606 1180.95 420.332
65 0 131.551 17.3317 2280 160.096 1182.99 424.711
66 0 135.664 16.2902 2210 157.825 1185.84 421.872
67 1 74.2824 13.1121 974 150.426 1187.88 455.166
68 0 76.1175 12.796 974 151.083 1189.22 453.012
69 0 80.1368 15.6607 1255 143.732 1190.29 452.824
70 0 82.2263 11.821 972 150.291 1190.88 454.824
71 0 82.1567 12.4396 1022 152.2 1191.8 453.791
72 0 86.2826 14.8813 1284 146.136 1191.77 452.576
73 0 87.2895 14.8815 1299 148.538 1191.45 450.294
74 0 92.6757 17.189 1593 147.225 1191.75 450.166
75 0 94.7012 14.0019 1326 153.648 1190.76 445.557
76 0 97.8082 13.2606 1297 158.194 1189.69 444.07
77 0 102.835 14.8199 1524 154.2 1188.94 444.298
78 0 105.576 15.0224 1586 155.369 1188.44 443.114
79 0 107.667 16.421 1768 154.83 1187.6 438.851
80 0 111.611 15.2941 1707 161.323 1186.41 439
81 0 115.877 14.0839 1632 166.324 1184.84 439.105
82 0 120.941 16.1153 1949 162.876 1183.07 433.185
83 0 124.743 16.3937 2045 162.422 1181.44 435.613
84 0 127.897 16.5289 2114 163.378 1180.18 431.719
85 0 130.839 15.8745 2077 166.805 1178.71 426.068
86 0 135.605 17.7132 2402 162.252 1178.1 426.624
87 0 138.715 15.5283 2154 168.617 1176.98 422.227
88 0 145.746 15.7398 2294 166.753 1176.47 411.592
89 0 151.008 17.9329 2708 160.476 1175.86 418.636
90 0 153.927 14.3444 2208 172.751 1175.91 412.378
91 0 159.865 17.2833 2763 160.311 1176.06 414.033
92 0 162.025 15.8062 2561 167.773 1176.35 401.407
93 0 170.117 17.9524 3054 158.484 1176.33 403.088
94 0 173.231 14.3393 2484 167.822 1176.62 398.001
95 0 181.993 17.2918 3147 157.221 1177.09 396.84
96 0 186.804 15.4922 2894 160.03 1177.91 396.048
97 0 192.883 15.4913 2988 165.065 1178.98 387.115
98 0 201.838 17.9946 3632 155.566 1180.97 387.867
99 0 207.886 18.3178 3808 155.387 1183.92 387.513
100 0 214.025 15.9421 3412 159.006 1184.34 372.255
101 0 222.981 17.3109 3860 152.526 1186.66 378.11
102 0 228.97 17.4652 3999 152.585 1188.44 369.475
103 0 239.917 17.0684 4095 152.103 1190.13 373.779
104 0 363.429 19.5939 7121 146.483 1190.81 307.625
105 0 380.189 26.1712 9950 136.016 1192.03 293.318
106 1 72.2927 9.80735 709 148.79 1189.82 451.402
107 0 75.2666 11.4128 859 144.171 1190.32 448.276
108 0 79.4364 12.7775 1015 141.393 1189.27 453.668
109 0 82.3658 13.0637 1076 149.389 1188.84 449.526
110 0 84.1382 13.5373 1139 149.731 1189.24 449.812
111 0 83.1359 13.2795 1104 146.652 1189.29 449.11
112 0 92.2579 16.1721 1492 145.554 1187.3 453.566
113 0 94.2098 14.2448 1342 149.25 1185.95 451.088
114 0 94.2081 14.1601 1334 135.795 1184.94 451.179
115 1 42.205 10.2121 431 145.262 1182.17 481.167
116 0 45.1297 11.3672 513 144.162 1181.13 479.205
117 0 44.04 12.6022 555 143.741 1177.51 476.38
118 0 46.5736 12.8614 599 139.531 1176.79 474.858
119 0 46.0356 11.9255 549 145.217 1176.71 474.803
120 0 57.5489 15.2914 880 125.658 1177.37 465.055
121 0 64.2081 13.8923 892 129.535 1176.35 468.527
122 0 62.4314 16.7063 1043 125 1174.73 462.811
123 0 56.0681 12.2173 685 140.304 1174.26 463.377
124 0 56.1063 13.4566 755 141.009 1173.45 466.668
125 0 58.2452 13.0139 758 143.377 1170.9 464.537
126 0 57.0738 6.95591 397 155.897 1170.61 464.501
127 0 60.3184 10.8922 657 147.787 1170.78 452.237
128 0 63.4175 13.4663 854 140.676 1170.94 456.322
129 0 66.1182 12.765 844 144.184 1173.74 459.006
130 0 67.0788 14.2668 957 139.506 1175.19 455.92
131 0 71.09 14.348 1020 135.549 1175.86 458.291
132 0 74.1297 12.1948 904 133.86 1178.65 452.265
133 0 74.1497 10.8699 806 138.849 1180.98 449.313
134 0 77.1716 12.4269 959 132.519 1183.45 451.347
135 0 78.1962 13.1848 1031 131.065 1185.05 452.306
136 0 81.1553 13.2832 1078 131.459 1186.18 449.178
137 0 83.0927 10.8914 905 134.87 1186.8 449.704
138 1 45.0219 8.70688 392 132.273 1188.06 472.903
139 0 45.0446 8.61368 388 135.052 1188.52 467.374
140 0 48.0671 9.7988 471 132.554 1187.54 467.552
141 0 46.1517 9.16542 423 137.572 1186.98 467.844
142 0 48.0957 10.1049 486 138.986 1186.72 465.327
143 0 51.1147 14.0469 718 135.032 1187.2 472.124
144 0 52.0829 12.6337 658 138.421 1185.87 473.55
145 0 56.0233 13.423 752 134.649 1185.09 474.972
146 0 56.1172 14.1133 792 135.658 1184.08 472.27
147 0 59.0764 13.7618 813 135.609 1182.64 473.295
148 0 59.2584 13.4664 798 136.534 1181.43 469.064
149 0 59.2703 12.6539 750 138.42 1176.65 472.921
150 0 59.2337 11.5137 682 142.661 1175.07 470.694
151 0 64.2103 12.5681 807 139.727 1173.66 470.022
152 0 62.2701 12.5261 780 142.933 1173.16 465.09
153 0 64.2094 11.4781 737 143.495 1172.02 465.632
154 0 68.1798 12.8484 876 138.697 1170.21 466.043
155 0 68.3308 12.7029 868 142.065 1169.68 461.028
156 0 72.2363 15.2001 1098 136.38 1169.97 458.863
157 0 71.2326 12.382 882 141.416 1169.06 459.382
158 0 76.1919 14.6603 1117 136.998 1168.54 458.828
159 0 75.2416 11.7222 882 144.041 1168.4 456.638
160 0 79.1458 13.0392 1032 140.085 1168.91 455.51
161 0 82.2598 14.8919 1225 136.495 1169.54 451.031
162 1 42.0652 10.8641 457 142.153 1168.69 469.768
163 0 41.0331 8.94401 367 145.155 1169.42 470.09
164 0 45.0262 12.4816 562 135.699 1170.81 470.08
165 0 45.0128 11.2857 508 138.291 1172.8 470.175
166 0 47.0096 11.9125 560 140.664 1175.18 468.77
167 0 47.1062 12.2914 579 136.385 1176.55 468.408
168 0 50.5402 13.6525 690 136.12 1179.9 465.846
169 0 49.4355 14.8881 736 135.954 1180.73 467.402
170 0 51.2742 14.0421 720 136.536 1181.88 468.654
171 0 53.5377 15.0361 805 129.226 1183.35 470.462
172 0 55.5652 12.1659 676 137.083 1183.03 467.71
173 0 54.3179 12.5741 683 142.416 1183.95 468.952
174 0 59.535 17.2168 1025 127.612 1184.27 470.037
175 0 57.4263 13.513 776 138.405 1183.91 468.571
176 0 56.4222 14.1434 798 140.224 1182.54 470.04
177 0 60.2056 12.2248 736 142.397 1182.42 471.467
178 0 63.3461 15.7705 999 138.916 1182.01 468.038
179 0 63.2148 14.4586 914 139.512 1180.5 468.17
180 0 63.2433 13.9303 881 142.746 1180.2 467.247
181 0 67.1599 10.9291 734 146.939 1178.32 469.817
182 0 67.2434 12.0755 812 146.728 1177.84 465.223
183 0 72.2051 14.1403 1021 141.32 1177.16 465.637
184 0 77.1862 14.8861 1149 138.536 1175.06 465.534
185 0 78.2306 18.4838 1446 132.534 1173.85 461.92
186 1 40.1052 8.60238 345 143.562 1170.96 482.31
187 0 42.0587 8.82101 371 138.394 1170.54 484.949
188 0 43.0987 12.0189 518 137.956 1169.39 477.639
189 0 46.0751 14.6717 676 132.318 1169.21 475.936
190 0 46.0641 15.6521 721 130.528 1168.4 477.492
191 0 48.2826 11.8469 572 141.719 1169.71 473.344
192 0 49.2518 13.766 678 133.622 1168.73 470.176
193 0 49.2683 12.0767 595 136.264 1168.13 470.79
194 0 51.2984 13.2558 680 132.715 1168.24 469.468
195 0 54.2037 14.3533 778 130.248 1168.83 468.022
196 0 54.2037 14.2057 770 132.194 1169.8 468.103
197 0 53.3706 12.0291 642 134.984 1171.07 466.304
198 0 56.2971 13.713 772 131.021 1173.55 464.745
199 0 57.2198 14.121 808 133.073 1174.81 465.927
200 0 60.336 14.2038 857 129.113 1176.09 466.258
201 0 61.1152 13.0573 798 134.039 1178.47 463.685
202 0 63.149 15.4872 978 127.999 1179.69 463.575
203 0 63.149 15.5189 980 120.958 1180.73 463.627
204 0 67.119 16.7762 1126 128.235 1182.46 464.127
205 0 67.1855 12.9343 869 132.61 1183.77 463.808
206 0 67.042 12.6189 846 135.53 1183.69 462.043
207 0 71.1753 18.321 1304 126.877 1184.15 461.828
208 0 73.2058 14.5344 1064 136.504 1183.75 460.822
209 0 72.169 14.9372 1078 138.602 1183.05 457.922
210 0 77.1222 16.9731 1309 135.911 1182.33 461.53
211 0 76.1216 15.3307 1167 132.484 1181.3 459.84
212 0 79.1824 14.334 1135 144.2 1181.2 459.655
213 0 81.0906 14.9586 1213 143.445 1180.11 458.683
214 0 81.0906 15.0326 1219 139.047 1179.1 458.67
215 0 85.3065 14.1138 1204 143.629 1177.54 460.022
216 0 91.3841 14.357 1312 142.442 1176.63 457.782
217 0 90.3966 15.4873 1400 143.109 1174.98 450.744
218 0 93.3547 15.6071 1457 142.104 1174.23 453.822
219 0 93.5402 15.5334 1453 143.987 1173.11 445.094
220 0 98.4273 16.1033 1585 141.239 1171.89 444.895
221 0 102.501 17.873 1832 137.248 1170.5 446.06
222 0 105.464 15.3322 1617 142.628 1169.28 443.834
223 0 111.614 16.1808 1806 141.06 1168.33 439.794
224 0 115.627 16.1035 1862 142.148 1168.1 436.031
225 1 59.4912 7.76585 462 149.387 1166.82 465.379
226 0 62.4093 11.1041 693 146.013 1166.78 461.633
227 0 66.4446 13.1839 876 142.653 1167.62 457.213
228 0 66.2672 11.3782 754 140.748 1168.26 461.647
229 0 70.2845 13.5165 950 137.951 1168.48 457.942
230 0 73.2396 15.224 1115 135.745 1169.05 455.432
231 0 74.2625 11.7825 875 140.904 1170.89 452.481
232 0 80.3166 12.0398 967 138.661 1172.42 453.963
233 0 81.3062 13.5045 1098 137.733 1174.75 449.459
234 0 84.147 15.057 1267 135.797 1176.8 449.316
235 0 85.3546 13.2272 1129 138.494 1178.84 451.095
236 0 87.2523 12.7217 1110 138.079 1180.68 451.219
237 0 94.2504 17.9734 1694 125.263 1181.13 456.26
238 0 94.1273 14.0873 1326 139.714 1183.46 449.651
239 0 97.2765 12.264 1193 142.598 1183.98 450.174
240 0 97.2765 12.2332 1190 142.338 1184.97 450.097
241 1 52.1029 10.4985 547 138.759 1182.92 475.572
242 0 57.1105 9.94563 568 139.977 1182.18 474.637
243 0 57.0894 9.65153 551 141.074 1182 474.301
244 0 62.0413 13.1203 814 134.435 1181.44 473.628
245 0 63.2142 11.6904 739 136.169 1179.78 472.709
246 0 65.0901 15.0868 982 131.182 1179.4 471.607
247 0 64.1879 11.7 751 138.997 1177.99 471.419
248 0 68.2325 13.5859 927 135.681 1178.12 468.66
249 0 71.0616 13.2983 945 136.039 1177.15 466.607
250 0 71.1211 13.47 958 136.788 1175.99 465.433
251 0 76.0957 13.0756 995 137.128 1174.33 464.648
252 0 77.1375 11.7841 909 137.971 1172.59 467.768
253 0 80.1908 12.782 1025 136.832 1171.33 461.704
254 0 82.2266 12.6723 1042 137.072 1170.09 458.25
255 1 43.0393 10.897 469 138.16 1168.58 475.345
256 0 46.1142 14.0738 649 130.216 1168.34 473.659
257 0 50.1794 9.88453 496 135.552 1167.68 473.938
258 0 47.0854 10.3217 486 139.434 1167.38 468.121
259 0 51.0669 14.4908 740 131.199 1166.89 466.632
260 0 53.0523 10.5745 561 136.684 1167.08 466.481
261 0 53.242 15.3075 815 126.648 1166.93 465.382
262 0 55.2798 13.5673 750 125.165 1168.42 469.271
263 0 55.0894 11.7627 648 130.657 1169.27 465.725
264 0 58.181 14.6268 851 124.703 1169.78 465.242
265 0 59.0826 12.2371 723 129.086 1170.82 463.279
266 0 59.1149 11.3339 670 130.19 1172.87 464.318
267 0 60.0598 12.1379 729 129.809 1174.71 464.704
268 0 63.1289 12.8626 812 132.026 1176.76 458.688
269 0 67.3907 15.1356 1020 130.202 1179.21 461.261
270 0 67.1545 13.4615 904 134.092 1180.11 460.854
271 0 69.1816 15.7267 1088 132.128 1181.41 460.461
272 0 72.1796 16.3065 1177 130.153 1181.34 461.699
273 0 70.0937 8.40304 589 144.151 1181.38 463.633
274 0 77.1367 14.1437 1091 131.181 1181.55 459.939
275 0 79.1044 12.3508 977 133.347 1181.44 463.035
276 0 83.1429 13.8436 1151 131.856 1181.41 458.427
277 1 43.0216 8.949 385 135.114 1180.64 482.764
278 0 44.1103 12.8995 569 133.67 1180.45 479.051
279 0 47.0952 11.7634 554 134.079 1180.09 479.848
280 0 49.1213 11.5021 565 135.303 1180.34 478.221
281 0 53.0686 11.5511 613 133.569 1179.24 478.153
282 0 49.0537 8.94938 439 142.617 1178.18 476.344
283 0 52.1591 13.3246 695 134.263 1174.42 474.042
284 0 56.1856 15.1996 854 130.22 1172.97 473.358
285 0 58.0891 13.8408 804 132.531 1171.82 472.882
286 0 61.1051 18.3454 1121 123.88 1169.89 472.056
287 0 61.1825 15.9196 974 129.351 1169.14 468.986
288 0 62.1325 15.2899 950 132.139 1168.49 465.293
289 0 65.1803 16.8609 1099 128.723 1167.68 464.064
290 0 68.1637 15.5068 1057 131.367 1166.87 463.738
291 0 70.2309 14.5235 1020 134.065 1166.2 461.902
292 0 71.2488 14.9757 1067 133.75 1166 460.29
293 0 73.3568 15.7859 1158 132.641 1166.52 455.793
294 0 77.2268 15.5386 1200 133.256 1166.53 456.755
295 0 77.1864 12.8131 989 139.687 1166.87 454.623
296 0 80.0904 13.4473 1077 138.655 1168.47 455.788
297 0 84.224 17.3347 1460 131.362 1169.8 453.275
298 0 88.1301 14.7055 1296 135.59 1171.4 454.062
299 0 88.1731 13.9952 1234 138.647 1173.31 446.729
300 0 88.3429 12.9043 1140 140.475 1175.07 446.113
301 0 93.3597 12.6714 1183 140.352 1176.75 445.221
302 1 54.1353 14.002 758 132.054 1178.4 469.856
303 0 51.0514 11.89 607 139.318 1179.4 469.293
304 0 56.0425 11.7946 661 134.545 1180.77 471.56
305 0 58.0524 14.1079 819 130.657 1181.05 470.183
306 0 60.1217 14.8033 890 124.552 1182.63 465.182
307 0 58.0667 11.5212 669 130.306 1183.12 466.438
308 0 61.0602 12.4959 763 131.518 1182.94 465.151
309 0 64.0538 13.8009 884 128.189 1182.61 466.463
310 0 64.1299 11.6171 745 136.236 1181.72 465.458
311 0 66.1843 12.6314 836 137.118 1181.41 461.146
312 0 65.1617 11.3871 742 145.392 1180.44 462.457
313 0 73.1586 13.6689 1000 136.758 1178.71 464.722
314 0 74.1615 14.3336 1063 139.711 1177.72 463.695
315 0 77.0545 13.7695 1061 135.916 1176.84 463.216
316 0 80.1211 18.9338 1517 127.686 1175.68 458.583
317 0 85.1702 13.3028 1133 138.221 1174.5 457.526
318 0 85.175 17.6226 1501 131.135 1173.62 455.504
319 0 89.2081 12.9361 1154 141.102 1171.77 452.205
320 1 46.1763 11.2179 518 132.911 1171.67 474.423
321 0 49.162 8.5025 418 134.077 1170.92 475.175
322 0 47.109 10.55 497 137.292 1171.01 467.69
323 0 52.1198 12.8742 671 131.572 1169.84 470.455
324 0 52.1198 12.8934 672 134.342 1168.84 470.43
325 0 53.1005 13.3332 708 132.955 1166.66 471.931
326 0 55.1491 13.672 754 134.45 1165.69 466.481
327 0 59.0405 14.0751 831 131.006 1167.52 466.952
328 0 61.3035 13.4087 822 131.934 1166.8 462.234
329 0 63.1983 13.5447 856 131.129 1167.4 463.342
330 0 62.1366 10.7988 671 137.012 1168.74 464.502
331 0 67.2725 15.0581 1013 128.243 1170.78 464.234
332 0 70.254 13.3943 941 130.085 1172.25 460.422
333 0 72.2487 16.4986 1192 125.424 1172.86 463.055
334 0 74.238 13.349 991 131.646 1175.29 458.753
335 0 78.2357 14.2007 1111 129.891 1178.21 462.108
336 0 78.45 15.2071 1193 129.207 1179.9 456.537
337 0 82.2921 13.7559 1132 132.768 1180.72 451.914
338 0 83.2344 18.2376 1518 126.756 1181.92 454.664
339 1 46.1228 10.2552 473 139.412 1180.45 476.351
340 0 49.0872 10.4915 515 140.627 1180.41 475.907
341 0 49.0253 12.6057 618 133.524 1180.28 480.485
342 0 51.1189 13.2045 675 137 1179.61 476.261
343 0 54.1203 14.8188 802 130.895 1178.64 480.226
344 0 55.1291 14.4388 796 134.567 1178.51 474.812
345 0 56.0802 12.5178 702 139.852 1177.75 476.517
346 0 58.1247 14.1248 821 137.574 1177.27 477.2
347 0 60.1572 12.5505 755 140.966 1176.03 476.034
348 0 60.0882 13.5634 815 141.06 1174.38 474.665
349 0 62.1173 12.251 761 143.463 1172.92 475.779
350 0 63.2018 11.8667 750 145.025 1172.12 473.737
351 0 67.2227 17.3602 1167 133.645 1170.82 470.341
352 0 68.2538 11.9261 814 146.093 1169.02 468.561
353 0 70.1249 14.2888 1002 139.379 1167.99 470.041
354 0 72.1428 11.2832 814 148.183 1167.88 464.98
355 0 76.2047 17.5055 1334 133.186 1167.02 465.862
356 0 76.3274 12.4595 951 145.7 1165.99 463.566
357 0 78.2307 12.7444 997 145.25 1165.34 460.968
358 0 81.3159 13.2938 1081 141.368 1165.85 454.848
359 0 85.333 13.7579 1174 143.443 1165.84 454.321
360 1 44.0609 11.0983 489 143.219 1165.08 475.902
361 0 48.2523 10.9218 527 139.586 1165.08 476.51
362 0 49.029 15.2563 748 134.422 1166.16 473.409
363 0 49.0873 10.41 511 147.196 1167.22 467.771
364 0 52.2245 15.0504 786 133.109 1169.38 466.205
365 0 54.0577 11.3397 613 143.982 1173.53 468.693
366 0 55.0385 14.8078 815 136.685 1175.41 467.32
367 0 58.0709 13.6557 793 139.132 1177.4 468.356
368 0 58.0576 13.6589 793 140.916 1179.72 467.081
369 0 61.0895 12.6372 772 142.924 1180.92 467.984
370 0 62.1483 14.8677 924 138.542 1181.64 469.26
371 0 62.0813 11.5494 717 146.919 1183.29 468.099
372 0 65.0327 14.7464 959 141.018 1182.67 466.136
373 0 65.0731 10.711 697 148.538 1183.03 468.581
374 0 69.2528 12.014 832 146.927 1183.29 469.906
375 0 74.1526 14.9961 1112 139.242 1182.91 468.303
376 0 76.2727 15.1299 1154 139.295 1182.71 467.571
377 0 78.1851 13.8645 1084 143.833 1182.28 466.447
378 0 78.3475 11.3341 888 148.561 1181.07 468.313
379 0 83.2043 13.1604 1095 145.226 1180.04 466.313
380 1 42.0166 10.9243 459 147.778 1179.21 483.649
381 0 43.0613 9.93932 428 149.745 1178.69 482.951
382 0 46.1732 12.3881 572 142.97 1177.21 482.815
383 0 47.0681 12.875 606 141.441 1175.72 481.383
384 0 49.061 13.0042 638 141.384 1173.95 479
385 0 48.026 12.285 590 145.79 1172.76 473.064
386 0 52.0805 13.8247 720 138.482 1170.62 477.001
387 0 51.041 13.734 701 140.516 1169.41 475.954
388 0 51.1132 10.6039 542 148.352 1168.75 474.343
389 0 55.0256 13.63 750 140.081 1167.61 472.697
390 0 56.0355 13.313 746 140.315 1168.34 469.127
391 0 57.08 10.7393 613 142.44 1166.67 473.21
392 0 60.2322 15.8885 957 133.329 1167.83 467.715
393 0 60.1016 14.0262 843 138.433 1167.86 466.885
394 0 65.0816 13.4447 875 137.647 1168.23 465.738
395 0 65.058 13.9107 905 138.276 1168.96 462.716
396 0 67.1045 12.6519 849 137.145 1170.39 460.038
397 0 71.1044 12.9247 919 136.531 1170.91 459.477
398 0 73.0714 12.5357 916 137.032 1173.08 458.602
399 0 75.1227 10.3431 777 141.819 1175.32 457.741
400 1 41.013 7.46104 306 138.395 1176.88 479
401 0 42.0524 9.60707 404 140.96 1178.99 474.532
402 0 45.0737 9.7618 440 139.639 1180.58 477.011
403 0 46.0922 12.2146 563 136.789 1182.11 474.405
404 0 48.0588 15.2938 735 131.846 1183.79 476.665
405 0 47.0924 12.1251 571 139.312 1183.5 473.072
406 0 50.0588 11.6463 583 136.942 1183.78 471.027
407 0 52.094 13.6292 710 136.956 1184.35 476.339
408 0 54.014 14.4592 781 136.086 1183.2 476.008
409 0 55.3491 14.7067 814 136.547 1183 477.721
410 0 54.0735 12.6494 684 146.189 1182.21 474.117
411 0 59.1308 14.6455 866 139.3 1181.14 476.368
412 0 59.0392 12.805 756 144.62 1179.59 476.607
413 0 60.1353 13.4197 807 144.219 1178.95 475.23
414 0 62.1692 12.9485 805 144.56 1177.34 472.355
415 0 65.1441 16.2716 1060 136.273 1176.18 468.928
416 0 65.145 13.6311 888 141.485 1175.18 474.751
417 0 68.1863 16.0883 1097 136.835 1173.91 469.443
418 0 69.2891 14.7209 1020 140.444 1172.26 466.458
419 0 72.1472 13.8883 1002 139.586 1171.12 468.408
420 0 72.2038 13.0049 939 144.978 1170.74 464.787
421 0 74.0815 13.7551 1019 141.889 1170.07 463.017
422 0 79.2191 14.8702 1178 139.181 1169.6 461.726
423 0 83.1124 14.1254 1174 142.034 1168.64 457.624
424 0 82.298 14.7391 1213 142.952 1168.72 453.507
425 0 88.1588 16.0166 1412 137.098 1168.53 456.288
426 1 46.1848 9.15886 423 144.196 1167.73 473.638
427 0 49.0467 12.2129 599 139.356 1168.72 471.955
428 0 48.1518 12.8552 619 141.553 1168.26 468.221
429 0 51.1346 16.1925 828 132.197 1169.7 469.993
430 0 53.1007 13.4838 716 140.042 1170.19 467.691
431 0 55.1045 13.1387 724 136.569 1172.7 466.696
432 0 56.1938 14.0229 788 135.93 1173.97 467.891
433 0 58.0848 17.3023 1005 130.451 1176.16 466.766
434 0 59.1018 13.3499 789 138.877 1177.63 469.757
435 0 59.0246 12.571 742 143.997 1180.13 467.962
436 0 61.0367 14.8763 908 140.171 1180.97 464.448
437 0 64.0654 13.2053 846 143.267 1182.9 464.981
438 0 67.0672 14.4333 968 140.84 1183.24 465.019
439 0 68.0852 12.3228 839 144.31 1184.47 467.679
440 0 71.0386 14.5977 1037 140.053 1184.39 466.368
441 0 73.1157 15.7011 1148 138.839 1183.96 464.206
442 0 72.0876 12.2906 886 148.698 1183.33 464.351
443 0 76.0599 12.9898 988 148.643 1183.24 465.156
444 0 79.0933 18.1558 1436 138.223 1182.35 464.366
445 0 83.1317 13.7613 1144 147.339 1181.64 465.456
446 0 83.1382 13.4355 1117 150.139 1180.2 464.001
447 0 85.1774 12.6442 1077 152.025 1178.95 462.69
448 0 86.1323 12.3763 1066 154.246 1177.94 456.312
449 0 94.2645 13.9713 1317 148.128 1175.79 460.62
450 0 96.124 13.5346 1301 149.8 1174.6 460.354
451 1 52.2397 10.7964 564 151.429 1172.34 476.846
452 0 52.3752 11.7231 614 148.151 1170.28 477.226
453 0 54.1918 11.6807 633 146.561 1169.32 476.856
454 0 56.1917 13.9344 783 140.935 1167.24 476.76
455 0 59.2914 13.2903 788 145.727 1168.01 469.444
456 0 60.1045 12.0291 723 146.508 1169.25 472.696
457 0 63.1226 14.5748 920 142.557 1168.79 465.778
458 0 63.147 15.3293 968 139.994 1167.86 466.671
459 0 68.1912 13.3888 913 141.821 1169.46 465.576
460 0 67.1046 14.8425 996 137.745 1169.5 462.871
461 0 71.1589 12.6618 901 138.394 1169.38 466.062
462 0 73.1264 16.6971 1221 140.582 1169.26 460.29
463 0 74.1687 15.4647 1147 140.668 1171.05 457.052
464 0 76.0677 14.0664 1070 141.827 1172.47 455.502
465 0 80.1324 15.9985 1282 137.846 1174.18 455.062
466 0 81.0799 15.2196 1234 138.591 1176.04 453.641
467 0 84.0747 14.8439 1248 141.053 1178.03 451.187
468 0 87.1443 14.9866 1306 135.205 1179.7 454.093
469 0 87.1996 13.2684 1157 140.104 1181.67 454.398
470 0 94.192 15.84 1492 134.868 1183.23 452.572
471 1 54.1251 10.5681 572 141.283 1185.57 474.187
472 0 52.0695 10.5244 548 144.571 1183.98 475.068
473 0 54.0609 12.0605 652 142.508 1181.3 476.486
474 0 56.1804 12.4955 702 143.642 1181.42 475.99
475 0 60.1588 17.7863 1070 132.343 1181.21 473.607
476 0 61.1183 13.9729 854 139.704 1181.74 476.703
477 0 61.0433 13.3839 817 141.406 1181.89 471.957
478 0 64.0363 14.6011 935 139.328 1181.12 473.488
479 0 68.0923 14.1719 965 138.85 1180.25 473.696
480 0 68.0775 15.7908 1075 137.622 1179.36 475.369
481 0 71.0949 13.7422 977 141.984 1178.42 471.857
482 0 74.1519 17.2079 1276 135.382 1176.89 471.745
483 0 76.2063 15.13 1153 139.153 1175.07 470.447
484 0 77.1629 14.8906 1149 142.104 1174.61 468.253
485 0 81.0738 21.4372 1738 129.269 1173.22 462.807
486 0 82.08 20.7724 1705 128.838 1171.81 465.037
487 0 82.1357 13.356 1097 143.998 1171.32 460.593
488 0 86.3757 16.7061 1443 139.802 1169.34 460.464
489 0 86.1295 16.3243 1406 140.802 1168.8 457.193
490 0 91.1563 17.7497 1618 137.559 1168.3 457.461
491 0 95.2332 17.9874 1713 139.751 1168.13 454.183
492 0 97.2223 16.0149 1557 144.769 1167.86 452.781
493 0 99.2522 15.9392 1582 145.999 1168.11 446.841
494 0 100.226 14.8164 1485 147.711 1167.98 448.255
495 1 53.073 11.6255 617 145.483 1168.98 469.995
496 0 53.0998 12.0151 638 137.82 1170.25 473.586
497 0 54.2598 12.8087 695 140.64 1169.92 465.683
498 0 58.0617 13.0379 757 138.873 1173.02 467.861
499 0 58.0661 14.5696 846 137.676 1174.74 466.651
500 0 61.0773 15.7505 962 134.8 1177.54 466.016
501 0 62.1586 16.4418 1022 134.258 1178.99 465.648
502 0 64.0702 13.5632 869 139.617 1180.5 465.725
503 0 66.0527 14.3068 945 138.325 1181.92 466.079
504 0 67.1025 13.5315 908 142.449 1183.41 466.236
505 0 69.1136 13.8902 960 143.533 1183.27 465.931
506 0 74.125 14.6374 1085 140.889 1183.44 462.922
507 0 75.1413 12.1105 910 148.88 1182.23 465.109
508 0 80.1139 14.8788 1192 143.213 1181.68 465.392
509 0 82.1623 15.0556 1237 145.973 1181.15 461.415
510 0 84.1208 16.2742 1369 143.922 1181.38 461.392
511 0 87.3361 14.7476 1288 146.535 1180.34 464.459
512 0 89.0963 15.4776 1379 147.155 1179.58 461.234
513 0 92.1672 18.3254 1689 142.981 1179.29 456.22
514 0 93.1518 14.8575 1384 150.499 1177.8 458.579
515 0 99.3756 18.1433 1803 142.641 1176.02 457.559
516 0 100.25 13.7856 1382 154.413 1175.05 453.917
517 0 101.191 13.4795 1364 156.753 1173.77 450.016
518 0 106.217 15.5154 1648 150.884 1172.89 447.091
519 0 112.257 18.5912 2087 143.455 1171.76 445.665
520 0 112.294 14.7737 1659 151.688 1170.95 444.026
521 0 118.259 16.54 1956 146.085 1170.07 438.279
522 0 120.226 16.3942 1971 145.059 1169.53 434.751
523 0 125.224 16.3547 2048 143.79 1168.67 432.379
524 0 127.308 15.2464 1941 144.833 1168.55 426.009
525 0 132.382 14.7678 1955 144.086 1168.53 426.826
526 0 131.382 14.9563 1965 146.869 1167.52 426.81
527 0 141.354 15.2454 2155 147.791 1169.59 418.061
528 1 83.1989 11.6708 971 142.662 1170.18 451.673
529 0 81.0798 10.2122 828 149.857 1171.22 442.291
530 0 87.0713 13.1846 1148 140.553 1172.3 445.368
531 0 87.0652 13.1855 1148 141.379 1173.39 442.228
532 0 90.116 12.1177 1092 148.033 1175.68 448.808
533 0 95.2015 13.9389 1327 139.746 1177.55 449.552
534 0 99.1721 15.9016 1577 138.469 1179.28 445.332
535 0 101.301 13.9288 1411 142.991 1180.23 445.86
536 0 106.441 15.9526 1698 136.019 1181.34 448.373
537 0 109.525 15.8594 1737 137.549 1182.57 440.735
538 0 111.287 12.2566 1364 142.376 1183.2 442.007
539 0 116.153 14.8512 1725 138.216 1182.61 438.961
540 1 66.1223 11.7661 778 133.892 1182.77 468.87
541 0 67.3834 12.3176 830 133.483 1181.22 464.789
542 0 68.297 12.3578 844 134.815 1180.74 464.107
543 0 71.2319 13.1823 939 132.539 1180.07 468.175
544 0 74.4657 12.2607 913 135.141 1179.34 463.896
545 0 75.3013 11.8325 891 136.989 1177.81 463.42
546 0 81.336 15.6634 1274 129.385 1177.41 460.59
547 0 82.2044 16.7753 1379 126.77 1175.73 464.348
548 0 86.2151 14.7886 1275 130.727 1175.11 461.16
549 0 90.2554 17.8937 1615 125.273 1174.08 459.489
550 0 90.2588 18.0038 1625 128.678 1173.07 459.458
551 0 94.4823 14.3201 1353 131.33 1171.3 458.882
552 0 96.2226 14.799 1424 131.425 1170.63 451.558
553 0 100.407 13.5946 1365 132.451 1169.3 446.082
554 0 103.336 16.3254 1687 128.75 1168.53 447.068
555 0 107.392 13.7999 1482 131.914 1168.77 442.365
556 1 61.0824 10.9852 671 132.431 1166.78 467.051
557 0 61.086 12.0813 738 128.686 1166.47 466.312
558 0 61.1601 8.22431 503 135.115 1167.3 463.211
559 0 65.1104 9.43013 614 130.775 1167.84 463.912
560 0 67.1757 12.5492 843 124.345 1166.47 462.125
561 0 70.3723 13.6701 962 121.588 1167.86 460.945
562 0 70.2051 11.0533 776 127.139 1168.45 460.785
563 0 77.2253 15.1634 1171 120.791 1169.7 456.319
564 0 73.2698 11.1915 820 127.091 1171.74 451.832
565 0 74.3697 8.64599 643 130.507 1173.39 454.123
566 0 83.3639 13.2312 1103 122.416 1175.37 453.551
567 0 84.4959 13.7995 1166 122.514 1177.45 451.649
568 0 88.2036 13.6162 1201 121.672 1178.72 453.971
569 0 88.264 11.4316 1009 126.329 1180.11 449.74
570 0 94.1773 13.7082 1291 122.373 1181.91 451.112
571 0 96.4194 14.4058 1389 127.196 1182.74 448.657
572 0 101.179 14.2025 1437 127.164 1183.74 453.765
573 0 102.13 14.1095 1441 127.761 1183.88 450.76
574 1 58.1519 9.68153 563 134.487 1181.71 469.462
575 0 58.2971 9.24574 539 139.616 1180.31 471.15
576 0 60.3642 13.0707 789 130.379 1180.03 472.567
577 0 63.2928 13.2085 836 132.476 1180.51 473.821
578 0 65.132 14.6932 957 131.025 1182.02 473.81
579 0 67.2514 13.4421 904 133.833 1181.32 472.983
580 0 70.1417 15.4259 1082 131.47 1180.26 472.546
581 0 72.1427 13.5842 980 136.213 1178.93 470.834
582 0 75.1986 12.979 976 138.927 1176.78 471.834
583 0 76.1801 15.0958 1150 135.995 1175.53 469.828
584 0 76.1843 15.2131 1159 135.543 1174.56 469.797
585 0 82.3497 15.0577 1240 138.631 1172.75 467.96
586 1 43.4156 10.8256 470 144.332 1170.16 486.268
587 0 44.4501 10.7761 479 146.808 1168.91 485.109
588 0 47.4485 11.6126 551 144.751 1167.89 483.396
589 0 46.4719 12.0073 558 146.045 1167.44 482.55
590 0 47.247 12.0431 569 140.677 1168.21 479.026
591 0 49.3486 15.3804 759 131.033 1167.62 480.181
592 0 52.0375 12.7793 665 131.385 1167.4 474.809
593 0 49.0233 10.9336 536 143.123 1167.13 474.418
594 0 54.0776 12.9259 699 137.697 1167.37 474.644
595 0 55.098 12.3598 681 140.565 1167.6 474.623
596 0 57.1431 12.2674 701 143.056 1168.33 473.118
597 0 57.1411 12.3204 704 140.923 1169.34 473.067
598 0 58.0598 13.1416 763 144.596 1171.2 472.469
599 0 62.3042 13.097 816 143.516 1172.58 471.686
600 0 61.0644 14.2145 868 143.416 1174.06 469.459
601 0 63.0691 13.7785 869 145.917 1176.12 470.186
602 0 65.1472 13.907 906 146.507 1176.54 469.912
603 0 66.143 14.1512 936 147.473 1177.53 471.42
604 0 71.1238 17.8421 1269 138.039 1177.97 468.478
605 0 73.101 15.6496 1144 144.291 1178.08 468.805
606 0 72.0933 13.7322 990 149.481 1177.34 469.399
607 0 77.1997 17.4223 1345 139.518 1176.49 470.122
608 1 39.1622 9.6777 379 151.127 1176.08 488.219
609 0 41.2899 8.81572 364 154.665 1175.73 485.137
610 0 44.1174 10.2001 450 148.98 1174.85 487.282
611 0 44.2418 9.5837 424 153.568 1174.08 487.649
612 0 47.1108 11.4836 541 151.549 1173.18 485.83
613 0 48.2014 12.9042 622 148.164 1171.17 483.037
614 0 49.2214 11.946 588 151.274 1170.04 482.066
615 0 50.1506 14.4365 724 146.395 1169.12 479.707
616 0 53.1031 14.1423 751 145.77 1167.22 479.274
617 0 54.06 12.5601 679 149.186 1166.46 479.317
618 0 54.165 12.8127 694 150.66 1165.5 477.457
619 0 57.1721 15.0073 858 143.096 1164.47 476.284
620 0 56.0689 12.8949 723 151.656 1164.02 471.867
621 0 58.2082 10.4968 611 153.692 1163.43 474.556
622 0 63.3074 14.8482 940 153.196 1163.16 470.751
623 0 61.2905 13.5584 831 165.97 1163.12 469.45
624 0 65.1504 14.597 951 155.615 1162.77 467.723
625 0 68.2135 14.5133 990 154.585 1163.76 464.586
626 0 72.4349 14.9514 1083 153.613 1163.92 460.957
627 0 74.1775 14.6271 1085 154.065 1164.81 460.538
628 0 77.2431 14.9399 1154 152.5 1165.82 460.242
629 0 78.3596 13.387 1049 157.29 1167.06 456.522
630 1 43.2155 10.9683 474 157.669 1168.57 470.591
631 0 40.2797 13.1332 529 151.096 1169.36 472.319
632 0 44.2985 10.7001 474 155.274 1170.58 471.605
633 0 47.2537 12.1684 575 151.391 1172.16 471.308
634 0 47.2786 13.008 615 147.58 1174.51 474.751
635 0 49.189 13.5193 665 150.522 1175.96 471.644
636 0 50.2643 11.5788 582 157.409 1177.84 473.11
637 0 53.2896 13.8489 738 151.257 1178.48 471.18
638 0 55.2728 13.8947 768 151.224 1179.7 471.483
639 0 57.2 16.0315 917 143.951 1179.08 473.025
640 0 59.2564 17.3315 1027 140.549 1178.89 474.494
641 0 61.1197 12.9909 794 151.798 1178.23 473.568
642 0 61.2079 14.1975 869 150.862 1178.23 472.18
643 0 64.2168 15.4788 994 146.969 1178.32 471.849
644 0 67.1376 15.4459 1037 145.899 1177.33 470.164
645 0 68.1523 15.6121 1064 145.171 1175.97 469.902
646 0 69.1521 13.4197 928 150.39 1176.05 468.753
647 0 74.138 15.633 1159 144.865 1174.61 468.001
648 0 75.2459 15.961 1201 142.539 1173 469.009
649 0 80.1254 16.0748 1288 141.9 1171.56 463.953
650 0 81.1742 16.1628 1312 142.443 1170.66 461.986
651 0 83.3019 15.7379 1311 143.65 1169.51 462.373
652 0 83.2212 15.2485 1269 145.362 1169.25 458.097
653 0 86.2073 16.8895 1456 141.532 1168.81 454.473
654 0 88.1204 14.1057 1243 146.992 1167.97 456.303
655 0 90.2839 13.8784 1253 148.362 1167.64 451.707
656 0 92.2568 13.7442 1268 147.428 1167.31 445.744
657 0 97.2731 14.3205 1393 145.734 1167.35 446.574
658 0 97.4055 11.8782 1157 153.051 1167.68 440.068
659 0 99.4115 14.9178 1483 131.595 1167.56 445.299
660 0 105.531 12.4134 1310 152.508 1168.03 441.791
661 0 108.362 9.36674 1015 157.33 1168.3 445.221
662 0 111.336 14.4069 1604 149.093 1170.08 434.732
663 1 64.3298 11.6742 751 149.597 1171.15 462.084
664 0 67.407 12.5803 848 149.058 1172.86 460.654
665 0 68.3598 12.8731 880 151.07 1175.66 455.532
666 0 66.2472 11.5175 763 151.599 1177.23 461.19
667 0 65.2519 12.7353 831 136.061 1179.17 462.083
668 0 70.0892 12.427 871 146.757 1180.86 460.293
669 0 74.0917 14.0232 1039 144.461 1181.9 457.289
670 0 73.075 13.8898 1015 147.273 1183.39 452.131
671 0 78.1599 12.628 987 148.148 1183.92 454.335
672 0 82.136 13.6724 1123 146.889 1183.75 453.256
673 0 83.1064 12.9232 1074 149.057 1183.52 454.444
674 0 85.0858 12.0114 1022 151.147 1182.77 456.628
675 0 89.1175 12.6574 1128 149.869 1181.8 455.707
676 0 91.1531 13.5267 1233 148.553 1180.85 450.312
677 0 97.3496 14.1757 1380 146.047 1179.58 451.445
678 0 98.2361 13.6712 1343 146.402 1178.34 450.157
679 1 50.1464 12.9222 648 141.613 1177.92 475.27
680 0 56.0347 10.3507 580 145.576 1175.82 473.078
681 0 57.0864 11.7191 669 146.226 1173.68 472.149
682 0 55.1892 10.002 552 149.529 1171.31 471.933
683 0 60.3906 12.1708 735 144.095 1169.48 466.684
684 0 63.2797 14.0013 886 138.707 1169 469.088
685 0 64.2437 10.9427 703 145.518 1168.99 463.58
686 0 66.1007 12.2238 808 142.958 1168.22 462.599
687 0 69.0782 13.796 953 139.588 1167.59 459.08
688 0 73.0913 16.6504 1217 131.79 1167.52 460.901
689 0 76.3786 16.3004 1245 133.923 1166.74 459.818
690 0 76.2016 13.4774 1027 140.477 1166.53 459.201
691 0 77.2829 13.7288 1061 143.279 1167.45 453.542
692 0 80.1865 13.6806 1097 143.073 1167.58 451.887
693 0 84.2001 16.829 1417 135.638 1168.37 450.618
694 0 86.323 17.0986 1476 137.074 1169.18 443.422
695 0 88.1842 15.8192 1395 136.513 1169.78 439.713
696 0 91.2315 14.0631 1283 142.747 1170.73 444.471
697 0 93.1641 14.3296 1335 142.267 1172.95 438.468
698 1 49.0254 7.83268 384 148.477 1174.37 464.5
699 0 52.087 10.7704 561 143.209 1176.06 465.148
700 0 53.105 11.5243 612 146.371 1177.51 467.601
701 0 54.1335 13.0049 704 141.946 1178.53 463.453
702 0 55.3292 12.4889 691 146.388 1181.21 468.343
703 0 58.1965 14.5541 847 142.678 1180.77 469.836
704 0 61.1391 15.3257 937 140.323 1179.77 468.388
705 0 63.1015 14.6114 922 142.3 1179.58 468.477
706 0 64.0887 13.1068 840 145.874 1179.6 465.671
707 0 67.1666 14.0099 941 145.581 1179.31 465.825
708 0 71.1226 16.3099 1160 138.395 1179.4 467.563
709 0 73.1428 16.2695 1190 141.075 1179.08 466.434
710 0 76.1094 18.2763 1391 137.909 1177.22 463.524
711 0 77.0768 15.9841 1232 143.003 1176.81 464.858
712 0 78.0709 14.6662 1145 148.112 1176.39 463.13
713 0 85.3747 23.6253 2017 126.966 1175.22 464.043
714 0 85.1514 17.6744 1505 139.221 1173.26 462.624
715 0 85.1148 17.8465 1519 139.084 1171.75 463.296
716 0 86.1456 15.0095 1293 145.53 1169.19 460.287
717 0 90.1546 16.9598 1529 141.298 1168.17 456.301
718 0 91.1543 14.2506 1299 146.615 1167.35 457.37
719 0 94.1252 14.5338 1368 148.691 1167.31 451.042
720 0 100.14 20.0121 2004 136.066 1167.26 451.465
721 1 52.1629 13.2661 692 146.702 1165.31 475.133
722 0 53.1165 13.6681 726 147.284 1165.56 471.792
723 0 54.2934 15.9135 864 145.463 1165.9 468.366
724 0 56.195 14.3607 807 147.461 1165.99 469.406
725 0 57.1023 14.6579 837 146.168 1166.48 467.121
726 0 61.1307 18.076 1105 136.256 1167.57 467.117
727 0 62.3158 14.3302 893 143.017 1168.82 466.078
728 0 66.2117 14.363 951 142.795 1170.32 462.324
729 0 65.1198 14.4349 940 141.274 1173.02 463.89
730 0 67.1409 15.2962 1027 145.781 1174.25 462.852
731 0 69.1044 13.3855 925 148.858 1176.75 466.19
732 0 72.1254 18.0658 1303 138.493 1179.38 464.977
733 0 73.1057 13.9387 1019 147.247 1180.49 459.661
734 1 34.0084 8.67432 295 153.447 1179.05 482.366
735 0 38.1311 11.3293 432 150.377 1180.14 478.22
736 0 40.0543 10.6855 428 145.907 1181.6 481.582
737 0 43.0438 13.6838 589 137.626 1181.43 482.856
738 0 45.0262 12.1485 547 141.04 1180.31 483.698
739 0 45.0426 16.1847 729 136.213 1180.76 482.49
740 0 47.095 16.3924 772 136.74 1179.77 483.561
741 0 49.2036 14.7957 728 139.662 1178.99 483.467
742 0 49.1302 15.7541 774 141.35 1177.81 479.953
743 0 55.1837 15.3306 846 140.035 1175.95 480.656
744 0 56.0901 17.8106 999 136.288 1174.34 482.334
745 0 56.1128 18.3915 1032 137.355 1173.2 477.692
746 0 57.1593 16.6377 951 141.761 1171.65 476.453
747 0 57.1293 14.9135 852 146.723 1170.06 478.398
748 0 61.3575 18.3841 1128 139.853 1168.61 474.947
749 0 62.1891 16.8357 1047 143.07 1168.16 475.94
750 0 63.1452 18.212 1150 143.442 1167.1 471.524
751 0 63.1233 16.7925 1060 148.643 1166.34 470.095
752 0 64.0663 16.4517 1054 147.473 1166.25 473.211
753 0 65.2008 16.6256 1084 151.629 1164.63 472.821
754 0 71.0759 19.3314 1374 140.873 1164.86 467.808
755 0 72.0999 17.9196 1292 144.813 1164.72 470.269
756 0 73.0898 20.2354 1479 141.587 1164.76 469.182
757 0 73.0656 16.4236 1200 153.048 1164.91 467.363
758 0 77.2098 18.6116 1437 147.476 1164.93 464.207
759 0 80.224 19.2212 1542 144.87 1165.97 462.224
760 0 81.2029 18.854 1531 147.806 1165.98 458.537
761 0 83.1894 19.4857 1621 147.706 1168.26 457.63
762 0 89.2844 20.7427 1852 142.432 1169.45 456.048
763 0 91.378 21.4822 1963 140.31 1170.75 456.059
764 0 92.3181 17.3314 1600 149.86 1172.97 456.772
765 0 98.2972 18.6272 1831 147.163 1173.85 454.629
766 0 101.313 21.4583 2174 142.389 1175.27 451.083
767 1 54.2461 13.1254 712 151.396 1176.18 481.489
768 0 54.4698 15.403 839 148.285 1176.39 481.375
769 0 55.2654 15.1994 840 151.819 1177.04 478.156
770 0 60.0919 16.8242 1011 144.984 1176.35 481.755
771 0 61.1383 16.8143 1028 144.918 1176.93 481.733
772 0 61.0871 16.5501 1011 147.955 1176.83 479.188
773 0 63.3059 15.1013 956 150.926 1175.97 480.041
774 0 65.2948 15.7746 1030 150.796 1175.94 482.572
775 0 70.1093 17.9006 1255 145.098 1174.54 481.693
776 0 71.3006 14.6843 1047 154.454 1173.59 477.642
777 1 39.1795 12.6086 494 159.623 1171.46 492.103
778 0 39.215 13.0562 512 159.113 1170.48 491.818
779 0 39.1235 12.2944 481 158.179 1167.93 493.218
780 1 80.2822 16.2925 1308 151.888 1167.25 476.486
781 1 45.065 14.6899 662 151.669 1165.76 491.826
782 0 43.0553 12.751 549 159.749 1165.48 488.679
783 0 45.0461 17.9372 808 148.785 1164.04 487.452
784 0 48.0425 11.9477 574 161.524 1163.37 487.568
785 0 49.2533 14.4153 710 157.362 1163.38 481.544
786 0 51.1029 16.32 834 150.952 1162.46 480.181
787 0 53.0803 17.5395 931 147.496 1161.85 480.546
788 0 56.0431 18.8783 1058 144.534 1161.66 479.486
789 0 54.1455 15.3845 833 156.46 1162.06 474.074
790 0 57.0351 15.4992 884 157.718 1161.82 472.003
791 0 61.1045 17.0364 1041 151.027 1163.16 471.178
792 0 62.1331 15.8209 983 154.182 1163.7 469.828
793 0 62.2084 14.6282 910 157.434 1165.31 469.007
794 0 66.0306 14.9476 987 157.298 1166.17 466.424
795 0 69.174 16.191 1120 154.419 1167.9 465.197
796 0 72.1632 17.793 1284 152.07 1169.66 463.952
797 0 74.3013 14.6835 1091 158.596 1171.58 463.216
798 0 77.1351 17.9814 1387 152.742 1173.36 459.568
799 0 80.2001 17.9177 1437 153.285 1174.47 460.31
800 1 41.1652 12.875 530 164.713 1176.17 477.428
801 0 41.0321 11.9906 492 169.679 1177 477.941
802 0 44.0444 13.8497 610 164.356 1178.92 478.744
803 0 47.0331 15.5423 731 161.226 1179.38 477.882
804 0 48.0364 17.0496 819 155.75 1179.74 479.969
805 0 48.0538 15.4826 744 165.362 1179.32 478.055
806 0 51.0736 16.114 823 162.504 1180.03 478.165
807 0 51.2341 15.5756 798 165.635 1179.54 478.385
808 0 53.2488 15.3619 818 168.358 1179.65 478.336
809 0 56.1737 16.5202 928 165.709 1178.74 478.405
810 0 57.1304 17.2413 985 163.684 1178.26 475.834
811 0 60.3298 16.128 973 167.418 1177.64 476.632
812 0 61.1365 17.2728 1056 166.758 1176.45 473.517
813 0 64.2234 16.8942 1085 165.834 1174.99 473.461
814 0 67.1364 17.7251 1190 165.249 1173.62 470.624
815 0 69.2105 15.5034 1073 170.515 1172.38 471.322
816 0 72.1436 17.6592 1274 164.003 1171.44 469.997
817 0 76.3582 18.5442 1416 162.487 1170.38 467.279
818 0 80.2575 19.0761 1531 160.764 1169.45 465.285
819 0 80.0998 16.3171 1307 170.71 1169.21 462.213
820 0 80.1834 17.3602 1392 169.875 1168.86 457.695
821 1 45.1613 12.0679 545 173.883 1168.72 476.231
822 0 46.1028 12.4504 574 172.467 1168.34 476.221
823 0 46.1019 12.3856 571 170.257 1168.36 476.07
824 0 48.0711 16.0179 770 166.147 1168.52 472.853
825 0 49.0368 12.9699 636 173.676 1168.64 472.56
826 0 50.1148 11.9725 600 179.938 1170.08 468.743
827 0 56.0715 16.7643 940 165.336 1170.7 468.119
828 0 59.0624 16.999 1004 163.331 1172.61 468.28
829 0 58.0992 15.5596 904 167.958 1173.68 469.027
830 0 60.1923 17.7265 1067 162.754 1174.31 468.569
831 0 64.3116 15.0206 966 169.319 1176.31 466.831
832 0 64.2424 17.6986 1137 165.683 1178.04 463.244
833 0 67.2761 16.2316 1092 169.103 1180.31 462.575
834 0 72.5695 17.8725 1297 163.219 1180.7 461.866
835 0 71.2114 12.1048 862 178.658 1181.97 464.045
836 0 75.3705 16.1336 1216 169.72 1182.07 460.248
837 0 81.3966 19.6937 1603 158.248 1182.23 463.001
838 0 84.4574 17.2276 1455 163.785 1181.74 461.142
839 1 43.2649 13.8912 601 162.599 1180.6 482.06
840 0 45.6557 9.76878 446 171.074 1181.1 481.982
841 0 47.5215 12.8363 610 164.426 1181.07 481.541
842 0 48.3198 11.8171 571 168.958 1179.72 479.538
843 0 51.293 11.9509 613 164.972 1177.89 480.889
844 0 51.2259 14.1139 723 164.231 1177.05 478.26
845 0 54.2941 13.9058 755 164.183 1176.01 477.662
846 0 56.2548 14.1321 795 164.551 1174.7 475.15
847 0 57.0437 13.4458 767 165.02 1174.1 475.864
848 0 60.2228 14.3135 862 164.407 1172.58 473.703
849 0 62.1937 17.0596 1061 159.009 1171.24 470.718
850 0 62.127 16.7077 1038 160.936 1170.87 470.739
851 0 65.1507 13.3997 873 168.298 1169.77 468.814
852 0 69.2311 13.6499 945 165.799 1169.19 469.331
853 0 68.0724 13.941 949 168.523 1168.65 465.203
854 0 73.1191 13.8131 1010 166.837 1168.17 463.994
855 0 76.1012 13.1273 999 168.461 1167.66 462.063
856 0 76.1003 13.745 1046 165.622 1167.55 463.332
857 1 44.116 8.70432 384 160.047 1168.82 480.305
858 0 44.0374 9.24214 407 167.14 1168.8 473.577
859 0 44.094 5.69239 251 170.773 1169.43 476.315
860 0 47.0337 7.86669 370 163.868 1170.89 476.316
861 0 52.1244 11.1848 583 157.312 1170.91 474.149
862 0 55.1461 13.3101 734 149.323 1172.77 475.51
863 0 54.071 12.1877 659 161.549 1173.98 469.769
864 0 60.1448 12.6195 759 158.514 1174.52 469.972
865 0 60.0591 14.4857 870 155.303 1176.44 465.866
866 0 62.4574 14.1056 881 153.429 1177.71 472.533
867 0 63.2215 14.2831 903 154.52 1179.16 468.962
868 0 68.1203 12.9917 885 155.203 1179.51 469.837
869 0 69.3283 15.2752 1059 151.39 1180.61 466.432
870 0 73.1278 13.661 999 152.567 1180.32 469.026
871 0 76.1055 15.4391 1175 150.233 1180.19 466.932
872 0 76.064 14.8165 1127 153.311 1180.06 466.877
873 0 78.2117 12.8881 1008 156.998 1180.44 463.221
874 0 82.1833 14.0661 1156 154.555 1180.87 463.156
875 0 83.3067 12.9761 1081 157.34 1180.06 461.973
876 0 88.1364 12.7303 1122 155.326 1179.24 463.584
877 0 88.1641 13.3728 1179 136.349 1178.24 462.451
878 0 93.2554 13.5863 1267 155.336 1176.94 457.341
879 0 98.2596 13.9121 1367 152.34 1174.97 460.024
880 0 99.1663 13.3311 1322 156.505 1173.88 453.239
881 1 54.0689 12.0402 651 145.14 1172.04 479.551
882 0 58.1574 10.5576 614 149.686 1170.74 475.645
883 0 59.1972 13.075 774 146.041 1170.21 469.446
884 0 63.133 11.452 723 145.69 1169.01 472.472
885 0 64.0871 14.1214 905 141.272 1168.28 471.345
886 0 66.121 13.5812 898 142.238 1167.65 465.22
887 0 66.1973 12.8555 851 143.596 1167.33 465.797
888 0 70.1694 12.5411 880 148.314 1166.6 465.174
889 0 70.1937 12.7219 893 151.857 1166.33 459.275
890 0 75.1862 14.8166 1114 146.229 1166.77 455.722
891 0 78.4311 13.158 1032 147.426 1167.03 458.171
892 0 81.2005 14.495 1177 145.364 1168.07 459.547
893 0 82.2337 13.0847 1076 149.65 1169.32 453.851
894 0 83.2282 12.5558 1045 152.917 1170.38 450.595
895 0 88.4652 13.2368 1171 149.318 1171.68 451.758
896 0 91.3761 12.0382 1100 148.178 1172.78 449.134
897 0 94.2321 13.8594 1306 144.972 1174.9 444.4
898 0 98.2316 13.9772 1373 142.674 1177.06 448.953
899 0 102.143 14.6755 1499 139.55 1178.66 447.225
900 1 56.1325 8.33742 468 143.152 1179.48 471.015
901 0 60.1905 9.96835 600 139.168 1180.62 469.913
902 0 58.1125 9.98064 580 141.391 1180.85 470.393
903 0 59.1582 8.48572 502 142.912 1181.24 470.871
904 0 62.273 10.8394 675 139.452 1181.09 469.52
905 0 68.2897 12.5348 856 136.708 1181.27 467.798
906 0 68.2942 10.7476 734 138.926 1180.29 470.775
907 0 68.3206 13.8611 947 134.252 1180.19 464.757
908 0 72.1423 11.1031 801 136.816 1179.69 470.763
909 0 73.3023 10.0406 736 141.386 1179.16 464.83
910 0 78.2548 13.4049 1049 135.109 1177.86 465.044
911 0 80.3755 14.9548 1202 132.184 1176.91 466.299
912 0 81.2966 11.9931 975 140.263 1175.92 462.716
913 0 84.2446 12.3331 1039 138.815 1173.91 462.627
914 0 87.3111 14.4197 1259 137.268 1173.2 451.585
915 0 92.3463 14.3915 1329 136.606 1171.4 456.607
916 0 91.2249 10.4796 956 143.442 1170.76 455.715
917 0 96.2926 14.5079 1397 137.296 1169.45 447.097
918 0 99.4156 13.5492 1347 137.906 1168.1 448.898
919 0 100.656 11.9417 1202 140.969 1167.93 447.413
920 1 52.4296 11.5202 604 133.916 1167.06 467.272
921 0 56.3481 8.27003 466 140.27 1167.59 466.468
922 0 59.3868 11.4167 678 132.323 1166.76 467.586
923 0 57.3026 11.3607 651 131.335 1166.11 469.163
924 0 62.2976 11.8945 741 135.004 1167.38 459.455
925 0 65.288 12.4525 813 129.419 1168.11 464.355
926 0 67.1825 13.0093 874 130.977 1168.66 460.315
927 0 70.5119 16.1108 1136 125.925 1170.14 455.513
928 0 68.2441 12.3527 843 133.823 1171.93 455.346
929 0 73.1773 13.5561 992 131.05 1174.29 460.378
930 0 77.2217 16.1613 1248 125.861 1176.81 455.252
931 0 76.1001 11.6031 883 135.049 1178.54 456.702
932 0 79.1288 14.7481 1167 130.129 1179.96 453.59
933 0 83.0985 13.5021 1122 131.49 1182.26 454.861
934 0 85.1437 14.9042 1269 129.05 1183.08 457.313
935 0 89.3123 13.7495 1228 131.522 1183.16 454.639
936 0 93.2012 13.7015 1277 131.313 1184.12 454.899
937 0 95.3302 15.9341 1519 126.09 1183.84 457.54
938 0 99.3348 16.0367 1593 127.225 1183.91 450.372
939 0 102.171 15.7089 1605 127.898 1183.58 452.348
940 0 106.2 13.1733 1399 131.342 1183.03 453.05
941 0 110.211 13.5468 1493 131.348 1182.46 445.293
942 1 62.1505 11.3595 706 127.523 1181.89 471.945
943 0 61.1071 9.14787 559 130.61 1180.36 471.408
944 0 68.4138 15.7571 1078 120.93 1178.13 468.853
945 0 69.4831 13.7587 956 123.73 1177.28 469.09
946 0 71.3836 15.3397 1095 123.637 1174.82 467.216
947 0 73.2584 15.3429 1124 124.626 1173.98 463.897
948 0 75.4417 13.0432 984 127.686 1171.5 466.42
949 0 77.4148 11.897 921 128.622 1170.69 467.069
950 0 83.3051 15.3052 1275 124.324 1170.62 464.09
951 0 82.3956 14.3333 1181 127.81 1169.62 462.659
952 0 81.3957 12.728 1036 138.509 1168.73 460.865
953 0 89.2998 14.6809 1311 125.452 1168.14 458.744
954 0 92.3062 11.6352 1074 132.097 1167.44 455.142
955 0 93.2772 13.6797 1276 129.653 1167.25 453.252
956 0 98.3422 19.6253 1930 120.031 1167.93 445.782
957 0 101.349 15.5502 1576 125.66 1168.24 449.513
958 0 106.17 18.0183 1913 121.965 1168.34 446.748
959 0 109.237 16.9448 1851 124.272 1168.81 444.614
960 1 56.2218 9.55145 537 134.287 1168.82 466.557
961 0 63.1528 11.2584 711 128.835 1169.81 467.954
962 0 64.1319 16.3725 1050 123.233 1172.66 464.079
963 0 65.1091 13.3161 867 128.153 1175.04 464.826
964 0 69.1769 15.6121 1080 126.687 1180.26 460.231
965 0 69.1813 15.5244 1074 125.993 1184.26 460.114
966 0 73.3179 13.0664 958 131.849 1182.26 459.038
967 0 75.2322 14.741 1109 128.526 1183.38 459.927
968 0 78.305 16.8188 1317 124.493 1184.34 459.703
969 0 79.2343 12.3936 982 128.524 1184.6 465.159
970 0 80.2498 13.7072 1100 127.048 1184.78 464.268
971 0 84.2173 11.3041 952 132.18 1184.46 460.109
972 0 87.2202 13.9532 1217 127.85 1183.53 458.506
973 0 91.2654 13.0718 1193 127.777 1183.48 461.04
974 0 95.2768 16.8247 1603 124.168 1182.92 455.328
975 0 100.188 15.6106 1564 123.452 1182.43 458.786
976 0 98.2544 12.1114 1190 130.034 1180.45 454.539
977 1 56.245 12.2322 688 126.509 1179.61 478.621
978 0 58.496 15.3173 896 121.57 1178.45 478.097
979 0 59.2864 15.1299 897 123.775 1176.11 475.085
980 0 59.1761 11.187 662 129.211 1174.9 477.607
981 0 63.1001 14.3106 903 120.433 1174.35 473.886
982 0 63.1731 14.7531 932 121.78 1171.63 471.472
983 0 63.1281 11.3895 719 127.558 1170.29 471.242
984 0 67.1789 16.5975 1115 116.276 1169.06 473.483
985 0 70.1191 13.3345 935 123.55 1169.1 467.788
986 0 71.1353 9.68576 689 130.055 1167.81 465.589
987 0 74.1761 14.0072 1039 123.629 1167.52 462.127
988 0 79.1886 14.636 1159 121.91 1168.08 460.578
989 0 80.1543 14.5719 1168 123.127 1168.29 459.568
990 0 80.2838 13.9256 1118 125.732 1168.59 453.363
991 0 85.2284 13.8803 1183 125.478 1168.82 457.855
992 1 45.2973 12.4732 565 125.956 1167.74 470.347
993 0 48.31 11.1985 541 125.451 1169.53 470.414
994 0 50.3404 10.0118 504 128.69 1170.68 469.673
995 0 53.3796 10.341 552 126.779 1172.29 469.779
996 0 52.1006 13.2244 689 123.398 1173.63 464.687
997 0 54.4163 13.2313 720 122.742 1175.55 464.268
998 0 57.3382 13.6907 785 122.441 1177.53 464.33
999 0 58.206 16.7337 974 118.013 1178.58 464.781
1000 0 60.1936 12.493 752 124.902 1179.94 465.819
1001 0 62.1145 14.425 896 122.621 1180.54 463.93
1002 0 63.1285 10.9776 693 130.12 1181.91 465.86
1003 0 64.2614 13.7408 883 126.319 1181.56 466.777
1004 0 67.2076 13.064 878 127.064 1181.86 462.908
1005 0 69.485 17.8744 1242 120.053 1182.26 465.135
1006 0 71.5233 13.4921 965 126.972 1181.68 465.263
1007 0 75.5178 15.4666 1168 124.641 1181.5 462.527
1008 0 77.2306 14.6444 1131 123.295 1181.5 469.531
1009 0 79.3065 13.8324 1097 128.913 1180.87 462.399
1010 0 83.4337 17.9064 1494 122.352 1179.21 464.44
1011 0 87.2568 13.7181 1197 133.129 1178.98 458.762
1012 0 91.753 16.7733 1539 127.017 1177.42 461.322
1013 1 48.6594 11.3236 551 133.147 1175.73 481.706
1014 0 50.4691 12.8594 649 132.667 1173.69 480.361
1015 0 54.2726 13.1374 713 134.82 1172.7 478.453
1016 0 51.4596 11.1544 574 138.082 1172 479.547
1017 0 54.7149 13.5612 742 132.637 1170.49 479.888
1018 0 59.7566 18.0231 1077 124.588 1169.37 476.817
1019 0 59.5353 13.1855 785 136.389 1169.35 473.822
1020 0 63.0916 14.8514 937 131.74 1167.9 477.451
1021 0 63.203 16.534 1045 130.677 1167.65 471.327
1022 0 66.1582 14.5711 964 133.987 1166.92 472.501
1023 0 68.4953 16.8625 1155 129.577 1166.43 469.913
1024 0 67.3661 13.1669 887 138.662 1166.72 467.685
1025 0 70.5023 16.0846 1134 132.989 1167.57 465.863
1026 0 76.4601 18.9903 1452 125.026 1167.34 467.344
1027 0 75.3729 14.5145 1094 136.622 1168.62 464.459
1028 0 79.3623 16.2294 1288 132.818 1169.62 465.952
1029 0 82.5443 15.3372 1266 136.442 1171.32 459.461
1030 0 82.5973 15.8116 1306 137.057 1172.07 458.353
1031 0 89.5168 16.2651 1456 135.417 1174.57 460.888
1032 0 89.4287 15.7108 1405 140.372 1175.6 456.417
1033 0 94.5521 16.8161 1590 137.343 1178.06 456.553
1034 0 100.481 17.456 1754 133.301 1178.81 461.295
1035 0 103.603 19.7002 2041 131.43 1179.23 458.874
1036 1 54.6956 10.9332 598 142.769 1179.4 480.224
1037 0 54.3193 13.2734 721 142.612 1179.95 477.904
1038 0 58.3232 11.3677 663 144.127 1179.17 482.763
1039 0 61.3203 17.1721 1053 134.902 1180.1 483.587
1040 0 62.0795 16.8655 1047 137.883 1179.39 480.422
1041 0 62.0931 12.0303 747 148.194 1178.6 484.214
1042 0 69.2466 18.037 1249 137.072 1177.11 482.634
1043 0 70.1763 15.8601 1113 141.902 1175.44 480.696
1044 0 73.1548 13.0272 953 147.491 1174.07 480.395
1045 0 75.214 16.1406 1214 142.316 1172.63 475.331
1046 0 77.5204 15.9829 1239 143.663 1169.85 472.599
1047 0 78.2451 14.6463 1146 148.718 1168.36 469.78
1048 0 80.2462 13.9197 1117 150.349 1168.11 467.631
1049 0 82.4814 13.6758 1128 151.756 1167.4 463.289
1050 0 85.4767 16.3319 1396 146.205 1166.53 464.878
1051 0 88.3765 16.5881 1466 145.718 1165.64 461.26
1052 1 48.2618 13.3646 645 137.698 1164.63 482.958
1053 0 49.1982 10.2849 506 148.16 1163.87 479.771
1054 0 52.3323 11.1403 583 145.475 1164.1 478.895
1055 0 52.2009 12.4327 649 142.092 1164.17 476.753
1056 0 54.4301 11.2805 614 151.127 1165.52 471.3
1057 0 53.301 12.5326 668 153.22 1164.98 466.177
1058 0 56.3461 12.8846 726 154.668 1163.03 465.153
1059 0 59.1212 14.817 876 145.991 1165.37 464.147
1060 0 62.1635 13.9632 868 149.251 1166.15 460.829
1061 0 65.2098 16.7919 1095 142.621 1166.89 459.202
1062 0 67.0991 16.96 1138 141.887 1168.24 459.301
1063 0 67.2505 14.3047 962 149.969 1170.26 457.521
1064 0 68.1373 13.8837 946 151.855 1172.37 457.257
1065 0 73.1668 14.4328 1056 150.521 1174.11 457.076
1066 0 76.1681 18.2097 1387 142.751 1175.81 455.227
1067 0 77.2221 17.7799 1373 143.607 1176.85 456.981
1068 0 79.1513 15.8557 1255 149.399 1178.11 452.478
1069 0 83.1815 15.7006 1306 147.462 1180.04 452.933
1070 0 85.3107 15.508 1323 149.862 1180.42 451.618
1071 0 89.2299 20.2623 1808 139.777 1181.55 452.121
1072 0 92.2517 17.7883 1641 144.339 1180.97 449.535
1073 1 50.0264 10.8543 543 148.51 1180.69 472.545
1074 0 49.1586 11.3103 556 155.468 1181.29 467.142
1075 0 55.0705 13.2557 730 145.192 1180.74 472.114
1076 0 58.1558 14.358 835 143.72 1180.73 471.363
1077 0 59.039 15.5999 921 138.045 1180.92 469.582
1078 0 60.0643 12.2535 736 146.792 1180.06 470.17
1079 0 62.0951 14.0913 875 142.73 1178.12 469.654
1080 0 62.0092 14.1269 876 145.183 1177.33 465.771
1081 0 64.1094 14.1321 906 142.428 1176.19 469.957
1082 0 68.0994 15.5068 1056 140.515 1174.4 464.793
1083 0 68.2729 14.7496 1007 143.87 1173.25 464.696
1084 0 70.307 14.2091 999 145.013 1171.63 464.007
1085 0 71.1853 14.7643 1051 145.87 1170.61 459.978
1086 0 75.1214 16.5998 1247 140.957 1169.88 456.802
1087 0 78.0697 14.7817 1154 145.417 1169.83 455.269
1088 0 82.0994 16.5044 1355 141.612 1169.5 453.218
1089 0 81.224 14.4539 1174 150.178 1169.14 449.658
1090 0 87.154 16.7749 1462 144.915 1169.3 449.122
1091 0 89.2285 16.2952 1454 146.073 1169.37 446.876
1092 0 91.2233 16.7172 1525 146.826 1169.78 440.51
1093 1 49.0873 9.41181 462 149.526 1169.15 466.439
1094 0 53.0701 10.0998 536 148.937 1170.22 464.114
1095 0 52.0761 10.427 543 151.324 1171.6 460.059
1096 0 56.1452 14.3913 808 138.795 1173.16 466.297
1097 0 57.3066 13.0002 745 152.572 1174.41 462.546
1098 0 57.13 12.5153 715 150.73 1177.62 463.355
1099 0 62.0698 15.4181 957 141.798 1178.55 465.082
1100 0 64.2154 19.31 1240 134.715 1179.29 466.446
1101 0 64.2145 12.0534 774 151.704 1181.24 467.474
1102 0 68.1309 16.6444 1134 139.962 1181.42 468.069
1103 0 70.3179 13.567 954 146.561 1182.42 466.323
1104 0 71.1746 14.5558 1036 144.599 1182.16 467.778
1105 0 72.1667 15.3672 1109 142.505 1182.74 463.735
1106 0 76.2344 13.852 1056 143.947 1183.12 463.201
1107 0 81.1504 17.2642 1401 136.735 1181.85 465.66
1108 0 82.2953 15.0434 1238 142.422 1181.73 463.549
1109 0 84.1954 14.8227 1248 142.663 1181.17 463.548
1110 0 86.1616 17.2118 1483 135.685 1179.92 466.659
1111 0 87.1586 14.8694 1296 144.389 1179.04 462.111
1112 0 94.2783 16.4937 1555 137.896 1176.45 458.85
1113 0 98.1755 15.4214 1514 139.609 1175.61 456.13
1114 1 51.057 11.3011 577 142.589 1173.45 478.054
1115 0 56.2058 12.2407 688 140.811 1172.88 475.738
1116 0 57.1381 9.97582 570 143.209 1170.52 470.575
1117 0 56.0368 9.95775 558 145.484 1168.85 465.894
1118 0 62.0505 14.1498 878 136.271 1167.63 467.59
1119 0 68.2405 17.365 1185 130.563 1166.55 468.792
1120 0 66.2647 15.1212 1002 134.341 1165.58 470.114
1121 0 71.206 14.5774 1038 135.896 1165.19 465.922
1122 0 72.4158 17.9519 1300 130.057 1164.71 465.338
1123 0 74.1445 15.0247 1114 136.945 1163.86 463.816
1124 0 78.2377 16.8844 1321 133.123 1164.37 462.731
1125 0 79.1554 14.6674 1161 136.922 1164.13 463.782
1126 0 83.1707 15.354 1277 137.671 1164.9 460.2
1127 0 84.1882 15.109 1272 141.638 1165.75 454.182
1128 0 88.2351 15.844 1398 139.407 1166.69 458.159
1129 0 90.2131 14.2773 1288 143.747 1167.46 454.123
1130 0 94.2858 18.0303 1700 136.579 1168.82 454.712
1131 0 96.133 13.5853 1306 143.802 1170.71 453.955
1132 0 101.219 14.8787 1506 142.066 1172.48 454.269
1133 0 105.193 15.5238 1633 142.116 1174.03 447.391
1134 0 108.293 17.0464 1846 141.283 1176.13 444.574
1135 0 107.337 13.1921 1416 149.737 1176.33 444.357
1136 1 64.2127 11.8512 761 142.611 1178.12 471.912
1137 0 66.0824 14.4214 953 140.368 1178.1 467.37
1138 0 69.0965 13.9949 967 138.772 1179.33 471.587
1139 0 72.0923 16.8257 1213 133.466 1179.54 469.705
1140 0 71.0863 15.9947 1137 136.891 1179.19 466.021
1141 0 78.2396 17.4464 1365 129.238 1178.93 472.903
1142 0 78.1046 14.1989 1109 138.89 1178.01 466.954
1143 0 84.0531 13.9317 1171 138.305 1176.59 466.387
1144 0 88.1567 16.5841 1462 133.978 1175.12 461.475
1145 0 89.1882 17.0875 1524 132.883 1173.81 464.144
1146 0 90.1018 16.4481 1482 135.635 1172.63 457.173
1147 0 93.2093 13.5502 1263 141.468 1170.89 455.253
1148 0 99.0579 16.4449 1629 134.942 1169.08 453.55
1149 1 54.1226 11.6772 632 136.582 1168.35 477.09
1150 0 56.0957 15.4914 869 130.728 1167.44 475.922
1151 0 55.1148 8.67281 478 140.695 1166.42 476.289
1152 0 58.0955 10.9131 634 137.689 1165.9 472.579
1153 0 58.0447 12.0252 698 134.454 1165.43 473.516
1154 0 61.0965 13.5851 830 132.183 1165.44 471.654
1155 0 65.0771 13.6915 891 134.016 1165.46 467.285
1156 0 64.0448 11.5076 737 138.355 1165.87 464.18
1157 0 64.0616 14.6109 936 132.564 1165.86 464.966
1158 0 68.0938 16.6388 1133 127.666 1166.49 466.636
1159 0 70.0578 19.9692 1399 123.632 1167.75 460.232
1160 0 71.081 17.262 1227 129.176 1168.29 459.142
1161 0 74.1115 18.4182 1365 126.719 1169.52 456.321
1162 0 77.09 18.5887 1433 126.533 1170.71 454.984
1163 0 79.1637 14.8679 1177 132.192 1172.09 455.394
1164 0 79.0921 12.555 993 137.532 1174.32 454.687
1165 0 83.2489 14.0422 1169 135.65 1175.68 452.535
1166 0 86.1377 13.5829 1170 133.842 1177.46 454.918
1167 0 86.3518 14.522 1254 132.845 1178.49 448.207
1168 0 371.464 30.369 11281 111.116 1179.64 299.894
1169 1 53.0479 10.0852 535 133.665 1181.2 475.649
1170 0 52.193 8.23865 430 135.884 1182.11 477.87
1171 0 52.2708 8.37944 438 141.381 1182.29 474.096
1172 0 56.1434 11.3638 638 133.091 1181.7 476.52
1173 0 61.2176 10.1768 623 136.933 1181.89 476.327
1174 0 61.3427 13.8729 851 134.364 1180.9 470.019
1175 0 61.3113 12.0369 738 138.63 1180.2 470.439
1176 0 67.281 12.9011 868 137.771 1179.96 468.649
1177 0 67.2027 12.2019 820 140.134 1179.85 472.183
1178 0 69.1818 15.4087 1066 133.761 1178.84 470.653
1179 0 68.1397 14.0153 955 137.304 1177.6 469.828
1180 0 75.2143 15.4891 1165 132.238 1176.06 470.365
1181 0 77.2478 13.6703 1056 137.383 1174.84 465.959
1182 0 79.379 17.4605 1386 130.087 1173.17 462.156
1183 0 81.3149 16.3931 1333 133.256 1172.15 459.622
1184 0 81.3745 15.2505 1241 136.578 1171.44 457.902
1185 0 85.5005 16.842 1440 132.21 1169.7 456.974
1186 0 85.6806 13.9472 1195 137.068 1168.57 456.808
1187 0 88.6244 13.8788 1230 138.443 1167.84 450.911
1188 0 89.6816 14.5515 1305 136.189 1167.33 451.581
1189 0 94.6994 18.1522 1719 128.913 1167 447.559
1190 0 94.7449 15.7264 1490 135.422 1167.24 439.568
1191 0 98.5487 14.0844 1388 138.004 1167.1 443.293
1192 0 101.544 18.6126 1890 129.905 1167.35 438.989
1193 1 51.349 7.2056 370 143.473 1168.44 462.954
1194 0 57.6252 7.16701 413 134.322 1168 468.281
1195 0 60.2305 8.43426 508 135.585 1171.47 465.295
1196 0 62.1493 12.6309 785 129.056 1173.79 464.433
1197 0 63.3089 13.4262 850 126.339 1174.25 459.452
1198 0 65.2713 13.5894 887 127.494 1175.99 460.286
1199 0 66.4875 15.1608 1008 125.564 1178.27 458.521
1200 0 71.3264 16.8241 1200 122.513 1179.98 458.876
1201 0 71.2475 14.8637 1059 128.502 1181.26 454.919
1202 0 75.1252 16.9583 1274 123.61 1183.18 459.686
1203 0 76.1428 13.3959 1020 129.78 1183.67 459.985
1204 0 79.1002 11.6435 921 133.051 1184.15 460.3
1205 0 83.1139 14.1011 1172 128.769 1183.48 461.302
1206 0 86.0904 11.3137 974 135.892 1183.4 456.459
1207 0 87.2361 16.9769 1481 126.924 1182.98 455.576
1208 1 47.0237 10.8881 512 131.23 1183 478.15
1209 0 45.1309 8.48643 383 138.734 1182.04 475.775
1210 0 49.0511 11.2332 551 132.243 1181.36 479.935
1211 0 52.0546 11.8337 616 132.109 1179.34 477.021
1212 0 52.0274 14.9344 777 129.668 1178.41 474.789
1213 0 56.2106 13.0936 736 126.269 1177.07 475.171
1214 0 54.0924 12.5526 679 128.554 1175.87 471.249
1215 0 58.187 11.3599 661 131.307 1173.98 466.893
1216 0 59.0491 11.8037 697 133.413 1173.37 472.334
1217 0 63.0767 14.7757 932 127.876 1172.26 468.802
1218 0 62.1789 13.043 811 131.731 1170.75 469.102
1219 0 67.0773 13.3428 895 127.036 1169.66 465.56
1220 0 67.1553 13.8932 933 128.678 1168.39 463.175
1221 0 72.1767 12.4694 900 130.461 1168.3 461.386
1222 0 71.1186 11.9237 848 131.651 1167.99 461.481
1223 0 73.1989 12.2133 894 131.904 1168.14 461.065
1224 0 78.134 14.4879 1132 127.707 1167.83 459.062
1225 0 80.193 12.2829 985 135.56 1167.55 453.983
1226 0 83.2201 15.7534 1311 128.8 1168.5 457.565
1227 0 87.2796 15.9258 1390 129.137 1168.74 457.892
1228 0 88.2656 15.2268 1344 132.688 1168.94 453.938
1229 0 89.1929 14.2276 1269 136.743 1171.12 452.829
1230 0 92.4875 14.2938 1322 137.725 1172.05 449.959
1231 0 95.6705 15.407 1474 137.397 1173.79 444.245
1232 0 99.6485 15.1733 1512 138.731 1175.55 446.714
1233 0 102.44 15.453 1583 138.614 1177.08 442.952
1234 0 104.707 17.7639 1860 135.085 1178.36 443.327
1235 1 57.3584 9.22272 529 144.361 1179.34 467.223
1236 0 57.2936 8.1859 469 146.13 1180.6 470.456
1237 0 60.3915 12.2865 742 138.972 1180.23 471.47
1238 0 62.2637 14.005 872 138.39 1180.22 469.219
1239 0 66.3194 15.3952 1021 132.465 1180.54 472.862
1240 0 65.192 14.557 949 137.96 1180.48 471.765
1241 0 68.4252 16.0321 1097 134.562 1180.64 471.314
1242 0 69.1016 13.5453 936 139.411 1179.81 475.731
1243 0 69.1016 13.5597 937 141.193 1178.78 475.962
1244 0 76.4595 17.7349 1356 132.917 1177.64 471.897
1245 0 78.6005 15.4961 1218 135.464 1176.06 475.011
1246 0 82.2569 16.4728 1355 135.494 1174.29 468.376
1247 0 84.3675 15.0176 1267 140.084 1173.29 462.037
1248 0 86.5256 14.331 1240 138.052 1171.33 470.21
1249 0 86.2504 13.0434 1125 146.613 1170.53 463.044
1250 0 91.4488 15.1779 1388 143.037 1169.57 459.061
1251 0 93.5191 14.211 1329 145.341 1168.72 454.296
1252 1 51.4628 11.6006 597 139.655 1166.41 478.139
1253 0 56.281 9.98562 562 150.023 1166.31 471.45
1254 0 60.8072 11.8571 721 142.362 1165.56 472.141
1255 0 60.5912 12.6751 768 141.228 1165.49 470.747
1256 0 60.6962 12.1919 740 143.782 1165.15 467.189
1257 0 61.1871 11.5057 704 147.087 1164.48 467.257
1258 0 63.2659 14.1941 898 141.507 1164.65 465.88
1259 0 66.2947 13.3646 886 142.889 1164.64 460.718
1260 0 67.118 13.7817 925 142.947 1165.73 460.165
1261 0 69.3577 15.1101 1048 140.965 1167.48 457.027
1262 0 71.17 14.7113 1047 140.934 1167.68 460.593
1263 0 78.2287 18.088 1415 130.878 1168.75 462.356
1264 0 78.3108 14.8 1159 141.885 1170.48 458.438
1265 0 81.1296 15.5061 1258 140.545 1172.31 457.297
1266 0 83.2283 18.1188 1508 135.626 1173.96 457.777
1267 0 84.1614 14.4603 1217 142.467 1174.78 459.011
1268 0 89.1395 15.7955 1408 141.192 1176.69 455.4
1269 0 88.4776 11.1554 987 152.797 1177.48 453.473
1270 0 91.1277 13.8597 1263 146.664 1178.8 450.903
1271 0 95.2721 15.3665 1464 143.53 1179.09 450.755
1272 1 56.2172 10.3349 581 142.466 1178.78 476.788
1273 0 53.2095 9.77269 520 145.727 1178.22 477.237
1274 0 59.2661 13.6165 807 140.025 1178.41 475.156
1275 0 60.2827 12.6404 762 139.741 1177.79 475.63
1276 0 59.1902 11.387 674 145.782 1177.36 474.841
1277 0 64.1844 14.8323 952 135.641 1175.27 479.368
1278 0 65.241 12.8753 840 142.273 1174.25 475.844
1279 0 67.1876 13.5888 913 139.434 1173.12 476.766
1280 0 69.2582 16.2147 1123 134.115 1171.66 474.239
1281 0 70.2186 11.6636 819 143.32 1170.21 474.206
1282 0 72.1476 13.6526 985 139.344 1169.63 469.663
1283 0 77.1686 14.7728 1140 136.204 1167.82 468.955
1284 0 78.2375 16.6161 1300 131.638 1167.3 469.442
1285 0 76.1176 11.456 872 145.344 1166.6 462.188
1286 0 82.2568 13.5673 1116 137.999 1165.31 465.678
1287 0 85.2287 13.1998 1125 138.997 1165.1 459.812
1288 0 85.204 12.0534 1027 141.842 1164.45 457.299
1289 0 87.2154 14.9056 1300 136.992 1164.35 453.696
1290 0 91.2856 18.842 1720 129.626 1164.27 450.627
1291 0 94.4989 14.7092 1390 137.657 1164.06 451.099
1292 0 95.158 14.0188 1334 140.245 1164.93 450.6
1293 0 97.2837 15.6038 1518 138.301 1164.8 445.898
1294 0 102.405 15.8391 1622 136.056 1165.48 448.425
1295 0 102.43 13.8826 1422 142.537 1166.6 442.506
1296 0 105.332 13.0445 1374 145.975 1167.68 438.354
1297 0 107.405 11.5451 1240 146.875 1168.19 441.344
1298 0 109.227 13.9617 1525 145.873 1169.34 435.589
1299 0 113.282 14.3535 1626 144.306 1171.34 435.901
1300 0 118.307 17.2855 2045 138.116 1172.68 435.366
1301 0 121.218 13.0756 1585 147.698 1173.69 431.828
1302 0 128.249 15.8208 2029 140.084 1174.9 434.583
1303 0 131.228 15.3092 2009 142.5 1175.17 430.607
1304 1 74.0965 11.5795 858 137.143 1175.46 464.082
1305 0 77.1343 11.0846 855 138.722 1176.06 462.512
1306 0 81.2197 16.4492 1336 134.21 1176.06 458.74
1307 0 81.104 12.0833 980 140.215 1176.06 460.47
1308 0 85.2749 14.506 1237 136.2 1176.33 461.506
1309 0 86.2821 11.4856 991 142.58 1175.56 460.475
1310 0 91.3288 16.1395 1474 133.974 1174.18 460.668
1311 0 92.3621 13.1331 1213 141.157 1173.27 460.461
1312 0 95.2556 15.9151 1516 138.129 1172.44 452.362
1313 0 98.1856 17.0493 1674 135.873 1170.9 451.874
1314 0 103.169 16.0029 1651 136.44 1169.72 450.607
1315 0 103.179 14.9158 1539 141.203 1169.02 448.493
1316 0 109.219 14.3656 1569 142.171 1167.36 450.05
1317 0 109.077 12.2666 1338 148.764 1166.16 445.501
1318 0 115.196 16.4676 1897 139.315 1165 442.261
1319 0 118.198 15.897 1879 140.307 1164.51 440.18
1320 0 121.42 15.1292 1837 142.363 1163.05 440.358
1321 1 66.1209 12.8552 850 137.914 1162.67 469.5
1322 0 66.2389 11.7907 781 139.626 1161.97 468.672
1323 0 69.1831 15.4517 1069 134.861 1160.93 468.683
1324 0 73.2933 13.2481 971 137.966 1160.88 465.649
1325 0 78.1309 14.8725 1162 135.032 1161.32 462.586
1326 0 76.2479 13.0495 995 139.824 1162.08 461.776
1327 0 81.2205 12.423 1009 141.227 1163.26 459.255
1328 0 83.2006 15.2523 1269 135.292 1162.98 458.905
1329 0 83.2099 13.6763 1138 145.771 1165.42 453.174
1330 0 88.077 16.7581 1476 136.244 1166.75 456.78
1331 0 88.2307 10.9712 968 152.061 1169.2 450.217
1332 0 92.2154 16.1795 1492 140.178 1170.86 453.716
1333 0 95.2444 15.1715 1445 142.343 1172.3 452.275
1334 0 96.1842 13.6509 1313 149.22 1174.56 446.213
1335 0 96.1842 14.2331 1369 136.223 1176.58 447.147
1336 0 105.185 14.3177 1506 146.917 1177.73 446.582
1337 0 107.174 14.2758 1530 142.711 1178.03 455.823
1338 0 109.118 15.2496 1664 143.824 1178.46 443.947
1339 0 116.215 14.5248 1688 145.852 1178.21 447.517
1340 1 65.1479 11.8193 770 142.016 1177.7 473.497
1341 0 67.2077 10.475 704 142.324 1177.54 473.784
1342 0 67.2737 11.8025 794 142.288 1176.59 472.057
1343 0 68.2976 12.8116 875 134.091 1175.57 473.179
1344 0 70.1829 10.9428 768 144.228 1175.12 470.288
1345 0 77.2221 14.1669 1094 136.364 1173.67 472.024
1346 0 78.1496 13.1798 1030 137.252 1172.36 472.401
1347 0 80.1744 12.8595 1031 140.643 1170.82 466.29
1348 0 79.119 9.27717 734 149.396 1169.4 463.331
1349 0 87.1282 14.1171 1230 137.422 1168.15 464.112
1350 0 88.2176 14.8043 1306 140.233 1166.75 461.784
1351 0 93.2826 15.9944 1492 136.928 1165.59 458.315
1352 0 95.1714 14.2795 1359 139.614 1165.11 452.642
1353 0 97.2091 13.6098 1323 137.624 1164.4 455.144
1354 0 102.382 15.3542 1572 132.301 1163.98 454.574
1355 0 101.265 12.8277 1299 137.984 1164.06 450.527
1356 0 109.29 16.3418 1786 129.909 1164.07 448.376
1357 0 109.218 12.1134 1323 139.518 1164.06 440.488
1358 0 111.192 12.1682 1353 135.805 1163.58 445.126
1359 1 66.1357 9.75267 645 132.574 1163.28 465.115
1360 0 67.3737 11.6069 782 129.95 1163.82 463.192
1361 0 70.3274 15.826 1113 121.923 1164.39 464.715
1362 0 70.1013 10.7844 756 131.689 1166.86 466.745
1363 0 76.1666 15.5449 1184 122.264 1168.3 461.121
1364 0 77.1401 12.6264 974 130.104 1168.69 456.686
1365 0 79.2272 14.4142 1142 129.249 1170.78 451.647
1366 0 83.1302 15.9268 1324 124.451 1172.78 459.985
1367 0 82.2102 12.2856 1010 135.865 1174.35 456.785
1368 0 87.1011 13.8575 1207 131.785 1176.18 455.036
1369 0 90.1642 15.8932 1433 129.965 1177.35 449.92
1370 0 93.0605 16.4194 1528 128.934 1178.29 452.042
1371 0 92.1569 12.4787 1150 137.241 1179.03 455.546
1372 0 95.0928 12.7139 1209 137.758 1178.71 453.404
1373 0 99.0618 13.7389 1361 138.579 1178.25 448.823
1374 0 104.132 13.8478 1442 137.936 1178.48 449.852
1375 0 106.303 15.9543 1696 134.488 1178.38 451.69
1376 0 108.253 13.0343 1411 139.315 1178.22 455.692
1377 0 114.27 14.7721 1688 139.282 1177.04 445.338
1378 0 118.243 17.9799 2126 131.393 1176.58 448.432
1379 0 121.228 14.9965 1818 137.09 1175.55 448.623
1380 0 123.194 13.1175 1616 142.246 1173.84 443.054
1381 0 128.145 14.8113 1898 139.856 1172.72 433.998
1382 0 133.291 14.427 1923 138.084 1170.36 441.634
1383 0 137.232 13.5829 1864 141.136 1169.52 437.687
1384 1 78.1233 11.8147 923 139.381 1168.24 465.473
1385 0 79.2054 13.3072 1054 136.021 1166.78 466.149
1386 0 82.132 12.5651 1032 134.21 1166.13 461.574
1387 0 83.2082 13.9049 1157 134.048 1165.23 456.394
1388 0 90.1189 14.9802 1350 128.499 1164.95 456.593
1389 0 87.264 13.0294 1137 134.063 1164.54 452.726
1390 0 93.3581 15.1246 1412 129.831 1164.19 448.334
1391 0 96.4698 14.8959 1437 129.768 1164.76 446.884
1392 0 97.466 12.3941 1208 135.656 1165.4 440.716
1393 0 102.395 12.8522 1316 133.906 1165.41 440.511
1394 0 106.423 13.9819 1488 132.095 1166.59 443.685
1395 0 110.287 16.1941 1786 129.177 1167.69 441.751
1396 0 112.455 16.7444 1883 128.882 1169.9 439.294
1397 1 65.2961 12.405 810 128.486 1170.33 464.326
1398 0 71.2931 11.5719 825 128.398 1172.6 462.047
1399 0 72.2927 10.3053 745 129.219 1174.84 463.674
1400 0 77.2398 11.6909 903 124.966 1176.15 467.379
1401 0 76.4044 11.3737 869 130.152 1178.38 460.173
1402 0 78.3793 14.0726 1103 124.518 1179.62 467.461
1403 0 83.3766 14.0447 1171 126.776 1180.4 464.446
1404 0 84.294 17.9016 1509 122.445 1181.49 458.528
1405 0 87.4268 15.5216 1357 125.939 1181.9 464.225
1406 0 90.5528 14.0912 1276 127.871 1180.78 463.065
1407 0 92.257 16.0638 1482 126.803 1180.5 457.586
1408 0 95.2248 17.6215 1678 124.877 1179.66 459.684
1409 0 99.4209 17.0487 1695 126.935 1178.73 458.604
1410 0 99.2036 14.5559 1444 132.884 1178.16 459.494
1411 0 106.28 16.9834 1805 129.347 1176.32 460.164
1412 0 107.2 13.5914 1457 137.251 1175.54 454.589
1413 0 114.501 18.2967 2095 127.947 1174.05 458.561
1414 0 117.469 18.3198 2152 128.371 1171.74 456.752
1415 1 68.3579 11.8201 808 135.531 1170.46 477.46
1416 0 68.3951 14.8841 1018 131.198 1169.31 479.447
1417 0 70.4198 11.1048 782 139.226 1168.15 474.676
1418 0 71.5009 14.9369 1068 135.45 1166.65 469.802
1419 0 74.6273 15.9593 1191 132.202 1165.53 468.214
1420 0 76.2904 12.3213 940 139.824 1165.58 469.589
1421 0 80.4105 17.3982 1399 130.776 1165.42 466.674
1422 0 82.46 19.6216 1618 127.355 1165.05 463.946
1423 0 82.3836 15.4157 1270 136.543 1164.44 465.188
1424 0 84.5359 16.076 1359 135.018 1164.53 459.34
1425 0 83.2564 13.3683 1113 141.534 1164.88 460.75
1426 0 88.4218 16.1386 1427 136.878 1165.21 457.95
1427 0 91.4513 18.2501 1669 131.414 1165.18 459.671
1428 0 92.3074 19.3267 1784 131.805 1165.99 454.605
1429 0 96.5225 15.7269 1518 137.98 1166.41 455.599
1430 0 99.2248 15.4498 1533 139.153 1167.27 454.663
1431 0 101.31 15.7241 1593 139.903 1168.59 452.696
1432 0 102.317 16.3805 1676 141.654 1170.44 448.079
1433 0 105.392 14.1093 1487 144.487 1171.98 451.683
1434 0 109.397 16.4904 1804 139.927 1172.81 450.708
1435 0 112.129 14.0642 1577 143.642 1174.16 447.789
1436 1 68.159 11.1504 760 135.796 1174.84 477.967
1437 0 66.1639 11.8645 785 132.541 1176.06 479.252
1438 0 69.0911 10.9855 759 134.444 1176.14 478.154
1439 0 70.2056 13.0616 917 134.912 1176.22 474.472
1440 0 73.163 16.6068 1215 128.781 1176.34 474.333
1441 0 79.2515 14.9019 1181 130.073 1175.56 473.909
1442 0 77.0675 12.781 985 136.895 1175.26 471.013
1443 0 83.2725 17.2686 1438 126.85 1174.32 471.019
1444 0 83.4269 15.4866 1292 130.438 1172.64 473.699
1445 0 89.1835 16.9202 1509 130.001 1171.09 466.852
1446 0 89.2869 14.515 1296 135.588 1169.97 462.988
1447 0 95.2053 18.0767 1721 127.557 1168.48 466.73
1448 0 96.3484 17.5716 1693 128.864 1166.92 463.242
1449 0 99.3168 15.8684 1576 132.683 1166.52 459.223
1450 0 101.209 16.3128 1651 131.472 1165.38 459.353
1451 0 106.192 18.1746 1930 127.515 1164.01 457.798
1452 0 105.281 14.732 1551 133.796 1163.05 457.279
1453 0 112.598 17.2828 1946 127.928 1162.97 454.09
1454 0 110.468 16.3215 1803 132.993 1162.75 445.392
1455 0 111.265 13.3196 1482 136.532 1162.73 449.928
1456 0 114.283 15.7153 1796 133.793 1162.96 438.035
1457 0 121.228 14.4851 1756 134.019 1162.73 438.814
1458 0 126.339 19.3527 2445 122.477 1163.18 443.582
1459 1 71.1097 13.0784 930 129.334 1162.63 464.119
1460 0 73.1245 14.0582 1028 128.035 1163.64 463.032
1461 0 78.1882 9.2597 724 136.43 1165.69 461.296
1462 0 78.1219 13.8501 1082 131.347 1166.11 454.055
1463 0 82.1499 13.7188 1127 132.13 1167.42 454.169
1464 0 84.3744 16.249 1371 129.441 1168.22 454.745
1465 0 87.1842 15.6565 1365 131.634 1171.06 453.697
1466 0 88.4237 16.7828 1484 130.642 1172.34 451.656
1467 0 90.3427 14.2347 1286 136.676 1174.43 448.31
1468 0 95.2776 16.1633 1540 132.442 1176.72 451.918
1469 0 97.2309 15.89 1545 134.89 1177.92 450.383
1470 0 101.248 18.2819 1851 130.776 1178.15 447.54
1471 0 105.351 18.5665 1956 130.325 1179.52 451.983
1472 0 106.371 17.5894 1871 133.9 1179.45 447.495
1473 0 108.6 17.1086 1858 134.934 1179.57 449.388
1474 0 115.461 14.4292 1666 138.247 1179.42 444.986
1475 0 117.43 16.7419 1966 135.214 1179.94 440.822
1476 0 119.297 17.1253 2043 131.823 1179.71 449.575
1477 0 126.261 16.2599 2053 133.312 1178.79 445.118
1478 0 129.193 17.8802 2310 130.906 1178.2 446.644
1479 1 75.2859 16.3112 1228 126.679 1176.35 472.857
1480 0 74.2093 11.3059 839 138.588 1175.95 470.397
1481 0 79.0886 11.5314 912 136.895 1173.84 471.836
1482 0 80.159 11.4023 914 138.034 1173.11 471.172
1483 0 83.0536 16.0258 1331 129.902 1172.46 468.068
1484 0 89.1574 15.7923 1408 132.324 1171.61 464.599
1485 0 89.2592 15.3598 1371 132.97 1170.12 460.575
1486 0 93.1651 15.9931 1490 131.491 1169.17 460.4
1487 0 94.309 14.8872 1404 136.687 1168.16 454.835
1488 0 97.0639 14.0423 1363 135.787 1167.38 454.569
1489 0 99.3435 13.6295 1354 137.496 1166.15 452.49
1490 0 101.172 13.5018 1366 139.861 1166.07 451.141
1491 0 105.427 15.5179 1636 136.951 1166.06 447.254
1492 0 108.296 16.3717 1773 137.875 1166.28 441.804
1493 0 110.262 15.2636 1683 138.112 1166.62 443.708
1494 1 59.1072 9.03443 534 141.217 1167 466.316
1495 0 63.1646 9.78396 618 139.33 1166.97 464.723
1496 0 68.1235 13.1085 893 133.894 1167.61 463.218
1497 0 71.1538 12.466 887 136.784 1169.45 461.336
1498 0 72.1661 14.0093 1011 134.615 1171.88 461.982
1499 0 76.063 13.5283 1029 135.77 1173.56 458.87
1500 0 78.0615 12.4773 974 138.002 1174.8 456.545
1501 0 81.2257 15.2907 1242 134.992 1176.78 456.993
1502 0 84.2508 15.715 1324 135.887 1178.16 453.957
1503 0 84.5484 12.7619 1079 141.542 1179.61 457.355
1504 0 90.2764 15.519 1401 137.514 1180.12 454.685
1505 0 92.1477 16.8317 1551 136.006 1180.79 455.83
1506 0 96.109 18.3334 1762 134.394 1181.51 454.891
1507 0 102.52 20.2301 2074 130.392 1181.32 455.766
1508 1 56.0614 9.13284 512 141.717 1180.49 477.174
1509 0 59.0325 13.7551 812 133.713 1180.31 478.158
1510 0 58.0225 10.7889 626 139.645 1180.35 479.998
1511 0 62.0474 10.3469 642 142.467 1179.13 479.221
1512 0 63.078 12.1437 766 139.351 1178.55 478.963
