index division length width area intensity CMx CMy
0 0 62.0759 14.3051 888 141.586 1240.68 314.398
1 0 64.0331 14.7111 942 138.823 1240.6 315.96
2 0 67.1479 14.5947 980 142.035 1240.42 316.694
3 0 70.1595 14.5811 1023 139.396 1239.31 317.214
4 0 71.1283 14.6636 1043 137.735 1238.66 317.292
5 0 75.0863 14.6764 1102 138.834 1238.34 317.83
6 0 77.1198 14.7952 1141 129.181 1237.85 318.904
7 0 80.1723 14.7931 1186 132.117 1237.53 320.072
8 0 84.1419 14.5706 1226 135.746 1237.46 321.297
9 0 86.3025 14.3449 1238 135.641 1237.15 322.032
10 0 89.5038 14.3681 1286 138.249 1236.9 323.38
11 0 92.1684 14.799 1364 128.795 1237.48 324.442
12 0 95.1907 14.5813 1388 135.285 1237.58 326.207
13 0 99.1787 14.8621 1474 134.284 1238.49 325.483
14 1 51.1031 13.1499 672 136.231 1238.52 352.391
15 0 52.0704 13.0592 680 135.459 1239.65 352.934
16 0 55.0286 13.8292 761 127.961 1240.71 354.435
17 0 56.2014 13.6651 768 135.016 1241.59 357.52
18 0 57.0738 14.0345 801 138.106 1242.37 358.318
19 0 60.1354 14.2179 855 126.8 1243.04 360.171
20 0 62.1663 13.8821 863 125.64 1243.79 362.555
21 0 61.1294 14.592 892 133.98 1244.51 363.62
22 0 65.1683 14.2401 928 128.515 1244.71 367.083
23 0 68.0919 14.172 965 128.02 1245.19 369.779
24 0 71.183 14.1607 1008 130.543 1245.51 373.512
25 0 72.2775 14.9009 1077 125.726 1245.98 374.421
26 0 74.474 14.3674 1070 126.841 1246.04 377.667
27 0 77.3785 14.694 1137 126.086 1246.59 378.278
28 0 79.2726 14.3555 1138 125.02 1246.89 381.385
29 0 82.1327 14.7201 1209 125.458 1246.52 382.305
30 0 86.3115 14.297 1234 126.361 1246.55 385.115
31 0 88.2711 14.5121 1281 128.727 1246.34 387.104
32 0 92.2764 14.5974 1347 127.849 1245.91 389.709
33 0 94.3945 14.9373 1410 128.828 1245.61 392.609
34 0 97.3002 14.6248 1423 129.228 1245.62 394.444
35 0 100.372 14.526 1458 126.305 1245.49 397.787
36 0 105.297 14.6253 1540 131.949 1244.51 400.197
37 0 108.349 14.5364 1575 132.867 1243.46 403.952
38 0 113.198 14.7529 1670 126.191 1243.22 406.626
39 0 117.263 14.864 1743 119.08 1242.59 409.209
40 1 59.4311 13.4105 797 128.956 1242.25 443.678
41 0 63.2608 13.6419 863 132.111 1242.24 448.338
42 0 63.4867 14.2392 904 139.168 1242.18 452.96
43 0 67.3741 13.8777 935 128.46 1241.93 457.68
44 0 70.2891 13.8428 973 139.617 1241.71 463.367
45 0 72.318 14.0905 1019 139.171 1241.28 469.946
46 0 75.422 13.8686 1046 133.489 1242.22 476.001
47 0 79.3885 13.6166 1081 135.673 1241.22 482.671
48 0 81.4832 13.9661 1138 135.444 1240.73 487.849
49 0 83.4609 13.9586 1165 142.187 1240.2 486.802
50 0 85.2339 13.9733 1191 139.687 1240.24 486.83
51 0 88.4594 13.9838 1237 142.662 1240.29 485.125
52 0 91.3637 13.9114 1271 146.007 1240.59 482.555
53 0 94.2714 14.0764 1327 149.902 1240.64 481.786
54 0 97.3284 14.2302 1385 144.017 1240.54 480.07
55 0 101.281 14.356 1454 146.198 1240.31 477.552
56 0 103.337 14.3704 1485 145.613 1240.47 476.644
57 0 108.42 14.038 1522 148.348 1240.66 474.34
58 0 111.311 14.7514 1642 141.73 1240.97 473.121
59 0 114.464 14.3451 1642 151.11 1240.96 470.902
60 0 118.452 14.3517 1700 150.626 1241.67 469.317
61 0 121.315 14.4088 1748 155.453 1241.7 467.045
62 0 126.213 14.642 1848 150.568 1242.4 464.56
63 0 132.247 14.178 1875 163.109 1242.69 461.991
64 0 135.4 14.6012 1977 156.185 1242.42 459.733
65 0 141.215 14.2902 2018 157.601 1242.76 457.438
66 0 146.556 14.3494 2103 161.504 1243.28 455.313
67 1 77.2531 13.294 1027 166.068 1243 488.476
68 0 79.1803 13.5135 1070 164.307 1243.56 486.871
69 0 84.3378 13.1495 1109 166.503 1243.75 486.397
70 0 87.3701 13.357 1167 161.008 1243.32 484.796
71 0 87.259 13.374 1167 169.982 1243.41 483.214
72 0 91.459 13.1644 1204 167.08 1243.17 481.108
73 0 93.2752 13.5299 1262 168.098 1243.05 479.337
74 0 98.379 13.57 1335 170.742 1243 477.796
75 0 100.378 13.8177 1387 174.48 1242.89 475.8
76 0 105.299 13.6659 1439 168.169 1242.66 474.092
77 0 108.528 13.5634 1472 168.183 1242.18 473.378
78 0 111.305 13.8179 1538 163.439 1241.66 470.335
79 0 114.389 14.031 1605 169.91 1241.98 468.822
80 0 119.207 13.8079 1646 164.476 1241.77 466.404
81 0 124.262 13.6244 1693 162.178 1241.7 463.408
82 0 130.526 13.6908 1787 161.429 1241.82 460.805
83 0 134.568 13.8221 1860 167.39 1241.91 457.986
84 0 139.53 13.9253 1943 163.36 1241.85 456.713
85 0 143.46 14.1433 2029 170.25 1241.81 453.799
86 1 82.3474 12.7023 1046 168.166 1241.38 485.334
87 0 84.4112 12.9367 1092 171.042 1241.66 484.783
88 0 88.3205 13.0774 1155 166.06 1241.01 483.195
89 0 90.4428 13.0359 1179 165.099 1241.43 481.019
90 0 93.3135 13.3207 1243 173.185 1241.68 478.92
91 0 94.3081 13.5619 1279 168.938 1241.48 477.769
92 0 97.5129 13.4854 1315 171.715 1241.58 475.543
93 0 101.45 13.5732 1377 167.849 1241.64 473.428
94 0 103.459 13.6576 1413 169.414 1240.92 471.455
95 0 108.44 13.5928 1474 165.278 1241 469.095
96 0 112.918 13.8243 1561 170.742 1240.97 466.923
97 0 115.619 13.83 1599 174.41 1240.87 466.327
98 0 119.53 13.6451 1631 171.209 1240.97 464.56
99 0 123.823 14.1412 1751 166.953 1241.32 462.392
100 0 127.823 13.8082 1765 166.278 1241.07 460.663
101 0 131.615 13.9346 1834 168.561 1241.09 458.234
102 0 135.859 13.8158 1877 165.358 1241.48 455.848
103 1 69.5308 11.7502 817 163.863 1241.41 490.236
104 0 71.6378 12.9122 925 160.114 1241.45 488.052
105 0 74.7098 12.6891 948 163.829 1241.14 486.466
106 0 75.5513 12.8257 969 164.604 1241.71 485.991
107 0 79.682 12.7758 1018 163.862 1241.73 483.695
108 0 81.903 12.7468 1044 163.059 1241.13 482.716
109 0 84.8515 12.5042 1061 162.168 1241.4 482.247
110 0 88.6691 13.1726 1168 162.182 1241.37 479.622
111 0 91.778 12.7917 1174 167.653 1241.59 477.813
112 0 92.679 12.9371 1199 157.657 1241.43 475.509
113 0 97.8649 12.9669 1269 164.178 1241.19 474.428
114 0 100.578 12.9253 1300 164.549 1240.86 472.926
115 0 104.546 13.2 1380 163.468 1240.57 472.864
116 1 55.3592 11.037 611 159.213 1240.33 496.871
117 0 59.5452 11.3863 678 157.391 1240.45 495.749
118 0 60.39 11.5913 700 156.917 1240.22 494.959
119 0 61.1913 11.8808 727 150.85 1240.64 494.033
120 0 63.437 12.0119 762 157.56 1240.62 493.21
121 0 65.5046 12.1366 795 155.263 1241.03 492.623
122 0 68.4782 12.3397 845 152.897 1240.88 490.806
123 0 69.5593 12.1767 847 148.442 1241.45 489.116
124 0 70.6296 12.1904 861 149.582 1240.95 487.973
125 0 74.5791 12.0409 898 148.415 1241.35 486.278
126 0 76.673 12.612 967 148.727 1241.21 484.495
127 0 79.5794 12.2016 971 148.716 1241.71 483.145
128 0 80.7892 12.5017 1010 147.191 1241.84 481.281
129 0 83.7711 12.5819 1054 143.946 1241.32 480.241
130 0 86.8195 12.6815 1101 147.992 1241.85 479.329
131 0 90.6998 12.2602 1112 145.453 1241.91 477.157
132 0 94.608 13.1913 1248 139.757 1242.23 474.441
133 0 96.6856 12.701 1228 142.603 1242.39 472.81
134 0 100.942 12.4427 1256 136.794 1242.03 471.629
135 0 102.615 12.9805 1332 140.779 1242.22 468.069
136 1 55.5934 9.91125 551 138.503 1242.7 494.127
137 0 57.3789 10.2302 587 139.114 1242.22 493.71
138 0 58.4573 11.0508 646 134.266 1242.46 493.019
139 0 62.1771 11.2582 700 131.496 1242.6 490.666
140 0 61.3334 11.7554 721 126.341 1243.38 489.846
141 0 64.5636 11.9107 769 134.02 1243.22 489.736
142 0 66.3302 12.0458 799 135.836 1243.79 490.08
143 0 68.4424 12.2147 836 130.278 1244.36 488.902
144 0 70.452 12.2069 860 134.338 1243.89 486.81
145 0 73.4828 11.9756 880 136.232 1244.14 486.492
146 0 74.6289 12.0597 900 134.8 1244.31 484.836
147 0 75.4166 12.4906 942 137.107 1245.08 483.286
148 0 79.741 12.3149 982 136.04 1245.51 482.01
149 0 81.6381 12.4207 1014 131.766 1246.13 480.239
150 0 84.6105 12.5989 1066 129.525 1246.11 479.198
151 0 87.5044 12.4679 1091 128.16 1246.26 477.26
152 0 89.5615 12.416 1112 129.049 1246.32 476.406
153 0 92.5693 12.5744 1164 128.337 1245.99 473.363
154 0 94.5752 12.646 1196 129.335 1246.17 472.353
155 0 96.6836 12.9288 1250 129.956 1246.29 470.382
156 0 101.377 12.6458 1282 115.375 1246.3 468.213
157 0 104.579 12.5456 1312 124.64 1246.45 467.138
158 0 107.493 12.8101 1377 123.927 1247.01 463.784
159 0 111.291 12.6785 1411 125.316 1247.41 462.624
160 1 59.2108 11.0453 654 130.939 1247.37 486.396
161 0 62.1397 11.3615 706 124.861 1247.26 485.5
162 0 65.2096 11.8234 771 123.886 1247.44 484.833
163 0 65.2001 11.8251 771 126.175 1247.98 485.302
164 0 68.3057 12.3123 841 124.885 1248.15 483.037
165 0 71.2451 11.9728 853 123.015 1247.61 482.279
166 0 72.2029 11.9247 861 127.186 1247.82 480.949
167 0 75.157 12.108 910 128.165 1248.01 479.357
168 0 77.1991 11.8395 914 132.647 1248.27 479.418
169 0 77.205 12.4474 961 132.059 1248.47 476.706
170 0 81.1929 12.7105 1032 125.752 1248.32 475.127
171 0 85.2652 12.5491 1070 122.817 1248.23 473.488
172 0 87.2866 12.4189 1084 124.717 1248.49 472.672
173 0 89.2287 12.3839 1105 125.032 1248.2 469.956
174 0 93.2313 12.528 1168 127.078 1248.21 468.739
175 0 95.3006 12.4658 1188 127.124 1248.08 468.283
176 0 99.2464 12.3833 1229 126.479 1248.29 465.027
177 0 103.305 12.3905 1280 125.551 1248.14 463.192
178 1 54.1004 10.6654 577 122.258 1248.79 489.336
179 0 54.2996 11.455 622 129.268 1248.09 488.513
180 0 55.2068 12.2086 674 124.758 1247.77 487.257
181 0 57.2923 11.9213 683 126.242 1248.37 486.081
182 0 59.3943 11.5836 688 129.443 1248.97 485.472
183 0 60.1978 12.4257 748 127.821 1249.15 483.471
184 0 62.1408 12.4556 774 129.305 1249.36 483.209
185 0 63.3323 12.4739 790 130.258 1249.58 481.872
186 0 65.1225 12.4074 808 130.474 1249.22 481.908
187 0 66.2882 12.9284 857 133.103 1249.89 481.194
188 0 68.1879 12.5535 856 131.324 1249.85 480.639
189 0 72.2268 12.9592 936 124.104 1249.71 478.142
190 0 74.3095 13.1208 975 133.461 1249.69 477.382
191 0 77.2187 13.261 1024 133.359 1249.66 476.276
192 0 79.2123 13.0788 1036 131.253 1249.33 474.965
193 0 82.4222 12.7999 1055 134.694 1249.36 474.709
194 0 84.3208 13.0454 1100 128.845 1249.22 472.548
195 0 86.389 13.335 1152 127.691 1249.06 472.069
196 0 89.2169 13.3607 1192 138.258 1248.95 469.24
197 0 93.4737 13.223 1236 136.794 1249.15 467.792
198 0 96.2379 12.7393 1226 138.688 1248.39 465.859
199 1 51.1343 11.1276 569 125.047 1248.15 486.903
200 0 52.2144 11.8167 617 137.864 1247.76 489.182
201 0 53.0328 11.804 626 138.236 1247.75 488.439
202 0 55.0651 11.6408 641 133.844 1248.16 488.521
203 0 56.0796 12.1791 683 132.776 1247.74 487.086
204 0 59.084 11.9152 704 144.359 1247.7 486.047
205 0 59.2359 12.4418 737 140.988 1247.72 485.786
206 0 62.1548 12.6459 786 138.798 1247.15 483.517
207 0 63.0851 12.3801 781 141.67 1246.92 483.27
208 0 65.1164 12.2857 800 140.945 1247.04 483.404
209 0 66.1565 12.682 839 145.517 1247.22 481.255
210 0 68.2104 12.5787 858 147.862 1247.76 481.659
211 0 70.2017 12.6493 888 147.68 1248.05 480.896
212 0 72.1933 12.7159 918 148.737 1247.78 479.598
213 0 73.3106 12.8085 939 147.57 1247.74 479.276
214 0 75.2116 12.6842 954 146.329 1247.14 478.852
215 0 77.2586 12.7753 987 139.521 1247.23 478.553
216 0 80.1896 12.8446 1030 137.512 1247.22 476.662
217 0 80.2713 13.3049 1068 143.971 1246.5 475.762
218 0 85.2157 12.9554 1104 148.389 1246.37 474.629
219 0 88.2761 12.8914 1138 144.803 1246.48 474.083
220 0 89.3549 13.3736 1195 150.003 1246.3 472.121
221 0 93.4506 12.9694 1212 144.973 1246.15 470.351
222 0 96.2724 12.9113 1243 146.129 1246.58 469.43
223 1 50.2438 11.3845 572 143.832 1247.06 492.061
224 0 53.3571 11.6948 624 141.551 1246.94 491.24
225 0 53.1912 11.9757 637 135.738 1246.24 491.311
226 0 53.1794 11.9219 634 139.298 1245.95 490.968
227 0 54.2754 11.9023 646 145.378 1246.41 490.153
228 0 56.1516 12.3416 693 144.025 1246.36 490.241
229 0 58.1735 12.3252 717 136.881 1246.33 489.495
230 0 60.2799 12.1931 735 139.059 1246.45 487.931
231 0 61.28 12.5653 770 136.886 1246.5 486.574
232 0 63.3829 12.8584 815 142.415 1246.14 486.223
233 0 66.2381 12.5155 829 141.154 1246.46 485.789
234 0 67.1676 12.4912 839 140.769 1246.79 485.036
235 0 68.2099 12.4762 851 145.624 1246.24 484.6
236 0 72.2178 12.5315 905 142.766 1246.83 483.137
237 0 73.2679 12.9115 946 140.723 1246.33 481.829
238 0 76.2384 12.8019 976 144.526 1246.5 480.046
239 0 76.2384 12.8019 976 174.997 1248.5 480.046
240 0 80.2419 12.9857 1042 147.95 1246.28 478.631
241 0 82.2829 12.8945 1061 143.5 1246.27 477.78
242 0 85.223 12.743 1086 141.157 1246.12 476.15
243 0 87.2446 12.677 1106 154.614 1246.24 475.225
244 0 90.2203 12.8463 1159 147.66 1246.22 473.751
245 0 90.2451 13.3304 1203 147.842 1246.37 471.817
246 0 96.4002 12.7386 1228 147.842 1246.06 470.809
247 0 99.3813 12.7086 1263 153.982 1246.48 469.334
248 0 102.297 12.9232 1322 150.828 1246.69 467.408
249 0 105.61 13.2563 1400 144.167 1246.42 465.596
250 1 57.2268 11.0962 635 144.998 1246.86 489.811
251 0 56.2955 11.9725 674 143.843 1246.65 489.159
252 0 59.2535 11.6449 690 147.223 1247.01 488.384
253 0 60.2329 11.9204 718 142.031 1247.46 486.577
254 0 61.1781 11.9324 730 144.422 1247.39 487.444
255 0 64.287 12.1798 783 141.801 1247.73 486.106
256 0 66.3414 12.2096 810 143.086 1247.48 484.406
257 0 67.1912 12.6653 851 139.274 1247.66 482.121
258 0 70.1437 12.5457 880 131.173 1247.63 481.636
259 0 71.0939 12.4765 887 139.471 1248.14 481.237
260 0 74.1232 12.1015 897 141.507 1248.22 479.654
261 0 76.4238 12.6139 964 134.546 1248.15 478.648
262 0 76.1192 12.5855 958 135.874 1248.76 477.447
263 0 81.0804 12.9748 1052 133.337 1248.58 475.969
264 0 83.0985 12.7319 1058 135.366 1248.91 474.406
265 0 85.2063 13.0155 1109 138.537 1248.93 471.95
266 0 88.2396 13.044 1151 136.065 1249.4 470.381
267 0 91.1063 12.7763 1164 133.201 1249.59 467.487
268 0 93.2869 12.9064 1204 130.135 1249.47 467.069
269 0 99.1733 12.9269 1282 138.347 1249.23 464.959
270 0 101.261 13.2232 1339 133.924 1249.58 463.245
271 1 53.0366 11.3884 604 130.061 1250.19 485.801
272 0 54.1164 11.8633 642 138.611 1248.88 483.858
273 0 57.0735 12.37 706 133.391 1248.95 482.414
274 0 58.107 12.15 706 131.914 1248.83 482.531
275 0 61.1715 12.2606 750 136.893 1248.86 481.277
276 0 62.2211 12.2627 763 133.666 1249 480.478
277 0 64.3695 11.8224 761 140.545 1248.98 481.583
278 0 65.2486 12.506 816 134.423 1248.79 479.902
279 0 67.0978 12.6085 846 132.038 1248.7 478.253
280 0 70.1186 12.4646 874 131.284 1249.04 478.153
281 0 74.1991 12.453 924 124.058 1249 475.896
282 0 75.2043 12.6322 950 132.584 1249.13 474.314
283 0 76.2533 12.3142 939 142.414 1249.2 473.894
284 0 80.2655 13.1314 1054 139.576 1249.04 471.628
285 0 82.2831 13.1133 1079 140.408 1249.09 472.133
286 0 84.215 13.2399 1115 135.684 1249.02 469.805
287 0 86.2705 13.1563 1135 141.54 1249.13 468.322
288 0 91.2367 12.9882 1185 140.785 1248.75 465.555
289 0 95.2952 12.8758 1227 143.444 1249.2 464.91
290 0 99.2827 12.8522 1276 136.061 1248.86 463.947
291 0 102.319 12.8128 1311 137.081 1249.07 461.323
292 0 104.353 12.7356 1329 143.457 1248.86 460.059
293 0 107.128 13.0125 1394 143.32 1248.73 456.481
294 1 58.2845 11.3924 664 140.955 1248.29 481.98
295 0 60.1415 11.9385 718 132.787 1248.56 480.838
296 0 62.1786 11.4026 709 137.152 1249.06 480.626
297 0 64.2256 12.0046 771 127.529 1248.91 480.306
298 0 66.1725 12.2558 811 132.131 1248.6 478.745
299 0 68.2734 12.1717 831 131.625 1248.84 477.117
300 0 71.2546 12.2659 874 128.926 1248.37 474.729
301 0 71.3615 12.4297 887 130.05 1248.14 474.444
302 0 76.4796 12.4085 949 128.337 1248.21 472.936
303 0 79.4143 12.2144 970 128.271 1248.21 473.386
304 0 80.228 12.452 999 126.602 1248.06 471.083
305 0 82.4808 12.9727 1070 121.83 1248.03 468.186
306 0 85.4776 12.1903 1042 129.962 1247.59 468.573
307 0 88.7498 12.6761 1125 130.512 1247.41 465.447
308 0 91.6881 12.4662 1143 131.701 1247.45 465.906
309 0 93.6505 12.6641 1186 124.723 1247.25 462.502
310 0 97.6119 12.6726 1237 129.901 1246.98 462.538
311 1 52.075 11.541 601 127.819 1248.05 487.013
312 0 55.0747 11.7477 647 128.512 1246.66 487.261
313 0 55.1667 11.7643 649 132.25 1248.24 488.19
314 0 57.3599 11.9247 684 136.592 1247.99 486.827
315 0 59.2577 11.8803 704 130.558 1247.84 487.645
316 0 59.2133 12.1594 720 133.314 1247.62 486.436
317 0 63.1664 12.1425 767 132.083 1247.27 485.353
318 0 64.2187 11.9591 768 127.025 1247.33 484.214
319 0 67.3047 12.5697 846 133.149 1247.29 482.435
320 0 70.1069 12.3668 867 134.266 1247.14 481.814
321 0 71.2147 12.4834 889 133.219 1247.36 481.128
322 0 73.3113 13.1631 965 131.106 1247.54 479.606
323 0 76.2022 12.8343 978 133.908 1247.25 479.009
324 0 78.1148 12.8145 1001 137.639 1247.33 476.811
325 0 81.1683 13.01 1056 128.785 1247.37 475.862
326 0 83.2728 13.0535 1087 131.517 1247.17 474.477
327 0 85.2019 13.1218 1118 130.103 1247.02 473.595
328 0 89.253 13.12 1171 136.051 1247.04 471.126
329 0 92.361 12.7543 1178 131.744 1246.43 469.949
330 0 94.1918 13.0054 1225 135.549 1246.49 467.883
331 0 96.4216 13.1506 1268 135.572 1246.73 466.775
332 1 49.0302 11.2584 552 140.098 1246.24 490.402
333 0 51.109 11.6418 595 136.062 1246.01 488.842
334 0 53.1968 12.0684 642 143.587 1247.02 490.458
335 0 54.1894 11.7735 638 138.633 1247.36 489.55
336 0 56.3059 12.2367 689 145.287 1246.79 489.064
337 0 57.2223 12.198 698 141.074 1246.7 488.665
338 0 57.1227 12.4819 713 147.278 1246.49 488.243
339 0 59.1717 12.844 760 142.124 1246.88 487.949
340 0 62.1101 12.7032 789 147.35 1246.54 486.935
341 0 64.1503 12.8292 823 140.001 1246.69 485.92
342 0 66.1004 12.9197 854 134.589 1246.75 485.518
343 0 67.1273 12.7519 856 145.525 1246.44 484.9
344 0 71.0594 12.7921 909 148.287 1246.5 484.53
345 0 70.0825 13.6553 957 145.497 1246.83 482.993
346 0 73.1925 13.0205 953 145.579 1247.11 481.935
347 0 76.1719 13.312 1014 155.855 1246.71 480.71
348 0 79.1834 13.3488 1057 158.881 1246.29 480.28
349 0 81.1059 13.3899 1086 162.213 1245.96 479.223
350 0 82.211 13.3924 1101 159.412 1246.04 477.216
351 0 88.1775 13.5182 1192 158.917 1246.26 475.863
352 0 90.2098 13.5905 1226 162.571 1245.55 473.711
353 0 92.2753 13.6006 1255 162.035 1245.73 473.149
354 0 95.2952 13.8622 1321 159.467 1245.2 470.719
355 0 99.2568 13.5507 1345 167.63 1245.14 469.813
356 0 100.195 13.6035 1363 162.185 1245.51 467.527
357 1 53.1487 12.4932 664 164.902 1246.17 493.605
358 0 54.0414 12.5089 676 166.478 1246.72 492.317
359 0 53.0343 13.1047 695 172.494 1246.85 491.906
360 0 59.0869 12.9639 766 160.943 1247.11 490.604
361 0 60.0726 13.1841 792 152.41 1247.09 488.234
362 0 63.1351 13.1622 831 162.401 1247.15 488.658
363 0 65.1711 13.1347 856 162.797 1246.98 487.959
364 0 66.0996 13.0712 864 162.218 1247.13 485.381
365 0 68.1757 13.6559 931 160.388 1247.1 484.709
366 0 69.1698 13.662 945 161.751 1247.24 484.77
367 0 73.0906 13.107 958 164.814 1247.21 484.459
368 0 74.3192 13.6977 1018 163.238 1247.02 483.431
369 0 76.1502 13.7492 1047 161.333 1247.2 481.204
370 0 79.3806 13.5424 1075 162.297 1247 479.642
371 0 80.3308 13.8303 1111 158.66 1247.09 479.049
372 0 84.3429 13.5637 1144 152.365 1247.18 476.71
373 0 88.1617 13.4526 1186 155.168 1247.42 475.423
374 0 89.3196 13.8715 1239 160.288 1247.73 473.265
375 0 94.243 13.5819 1280 154.9 1247.71 471.693
376 0 96.2791 13.5543 1305 158.037 1248.01 469.764
377 1 51.0994 11.9571 611 156.755 1248.63 493.8
378 0 54.2084 12.1568 659 152.329 1247.73 492.337
379 0 54.2069 12.0464 653 151.732 1247.98 491.772
380 0 55.2682 12.5027 691 150.949 1248.1 490.24
381 0 56.2551 12.5855 708 153.405 1247.7 490.551
382 0 59.1679 12.5068 740 153.866 1247.92 490.17
383 0 60.1021 12.512 752 154.617 1248.02 488.632
384 0 63.3581 12.816 812 146.064 1248.19 488.241
385 0 64.1953 12.7891 821 153.04 1248.06 486.725
386 0 65.1986 12.9144 842 148.286 1248.09 485.57
387 0 68.2501 12.7326 869 151.58 1247.96 483.993
388 0 71.2169 12.6234 899 154.911 1247.91 483.717
389 0 73.1975 12.7737 935 147.815 1248.16 481.461
390 0 74.3081 13.1883 980 150.213 1248.02 480.99
391 0 78.4234 12.7003 996 147.611 1248.01 478.999
392 0 80.2352 13.099 1051 135.857 1248.39 478.069
393 0 81.3663 13.089 1065 143.46 1248.58 476.967
394 0 85.2527 13.4189 1144 154.067 1248.4 475.249
395 0 88.4381 12.8791 1139 151.831 1248.36 472.589
396 1 45.3436 10.9608 497 146.39 1248.46 494.425
397 0 49.2355 10.988 541 136.673 1248.43 492.399
398 0 50.1911 11.8945 597 146.203 1248.38 491.652
399 0 50.0293 12.4527 623 145.316 1248.91 492.308
400 0 51.167 12.0586 617 146.65 1249.07 492.642
401 0 53.2372 12.2471 652 141.39 1248.49 490.373
402 0 54.2728 12.1055 657 140.858 1248.4 491.029
403 0 55.1418 12.4044 684 151.311 1248.73 489.342
404 0 55.2182 12.8581 710 144.824 1248.45 489.168
405 0 59.3445 12.7729 758 148.194 1248.19 487.781
406 0 61.4028 12.8496 789 145.106 1248.19 486.36
407 0 62.2663 13.0247 811 148.614 1248.46 486.509
408 0 64.4308 12.8665 829 142.317 1248.03 485.133
409 0 66.4251 12.7964 850 145.006 1248.07 483.696
410 0 69.4044 12.6793 880 143.11 1247.75 481.851
411 0 71.6125 12.5397 898 145.565 1247.64 481.447
412 0 73.3562 12.9232 948 145.305 1247.27 480.236
413 0 75.4503 13.1212 990 141.895 1247.18 478.411
414 0 78.2787 13.222 1035 133.734 1246.97 477.471
415 0 82.3715 12.7471 1050 141.528 1246.72 477.67
416 0 84.4486 12.7652 1078 132.062 1247.2 476.114
417 0 86.3955 13.4729 1164 138.684 1247.45 473.606
418 1 47.2967 11.0367 522 138.502 1247.81 494.446
419 0 50.2672 11.419 574 143.321 1247.6 492.282
420 0 52.1761 11.8637 619 137.152 1247.83 490.616
421 0 53.1532 12.511 665 136.555 1247.61 490.592
422 0 53.2582 12.2986 655 141.403 1247.21 491.081
423 0 56.2212 12.2374 688 136.847 1247.04 489.714
424 0 57.1816 12.5915 720 136.749 1247.07 489.607
425 0 60.2004 12.5248 754 128.149 1246.72 487.79
426 0 61.2128 12.6117 772 143.391 1246.91 487.315
427 0 63.286 12.8938 816 135.433 1246.57 486.385
428 0 65.0774 13.1689 857 133.55 1246.64 485.925
429 0 67.2226 12.9421 870 142.567 1246.24 484.483
430 0 67.2226 12.9421 870 165.139 1245.24 484.483
431 0 70.2119 12.9323 908 137.457 1246.14 483.098
432 0 72.2491 13.3843 967 142.654 1246.59 480.953
433 0 76.4922 13.0994 1002 138.158 1246.85 480.613
434 0 78.2864 12.9141 1011 144.213 1246.91 479.695
435 0 81.2345 13.3441 1084 145.022 1247.26 478.683
436 0 84.2244 13.1316 1106 146.841 1246.92 477.884
437 0 85.3099 13.7968 1177 145.686 1246.83 476.603
438 1 45.1316 12.0315 543 146.017 1246.88 496.65
439 0 48.0729 12.0026 577 146.789 1246.91 495
440 0 48.0318 12.4709 599 149.992 1246.54 494.169
441 0 50.2404 12.261 616 149.958 1247.12 494.084
442 0 50.1248 12.9477 649 139.094 1246.85 492.709
443 0 52.0653 12.4651 649 140.713 1246.24 491.102
444 0 54.1288 13.0614 707 144.256 1246.05 489.588
445 0 55.0979 12.9406 713 134.536 1246.45 490.485
446 0 56.056 13.1119 735 146.448 1246.34 490.914
447 0 57.0564 12.549 716 148.297 1246.4 489.869
448 0 58.1872 13.0269 758 144.488 1246.31 488.621
449 0 60.252 13.2444 798 76.7343 1245.78 487.588
450 0 62.1281 13.3434 829 140.306 1245.76 486.963
451 0 64.1503 13.3125 854 143.274 1245.41 485.879
452 0 66.1479 13.1524 870 139.093 1245.42 484.955
453 0 68.1303 13.3714 911 136.63 1245.22 483.26
454 0 71.0816 13.2805 944 135.53 1245.04 482.355
455 0 73.1524 13.342 976 133.7 1244.78 480.643
456 0 77.1358 12.9382 998 130.052 1245.1 479.932
457 0 80.1914 13.3057 1067 134.634 1245.04 479.839
458 0 82.2983 13.0744 1076 136.027 1245.1 478.031
459 1 45.0376 11.5681 521 146.57 1244.25 496.221
460 0 46.056 11.8769 547 144.453 1243.86 496.543
461 0 50.1405 12.1259 608 137.276 1244.66 494.655
462 0 49.1167 12.7452 626 136.874 1245.52 493.754
463 0 53.2008 12.2743 653 129.735 1246.28 493.55
464 0 53.1022 12.8808 684 131.041 1246.64 491.035
465 0 56.1691 12.1597 683 140.839 1247.19 491.256
466 0 58.1985 12.5776 732 136.399 1246.61 489.694
467 0 59.1496 12.6966 751 139.691 1246.77 488.943
468 0 62.1193 12.8623 799 135.436 1247.42 488.69
469 0 62.1705 13.1413 817 128.611 1247.49 486.798
470 0 65.1628 12.9982 847 134.851 1247.72 485.261
471 0 68.1232 13.1673 897 133.338 1247.75 484.263
472 0 69.1274 13.3522 923 128.178 1248.32 482.914
473 0 73.1553 12.7127 930 133.001 1248.1 481.978
474 0 75.1442 12.4294 934 129.658 1248.17 480.242
475 0 78.1354 12.7087 993 128.279 1247.83 478.648
476 1 40.0949 11.8718 476 131.382 1248.03 495.943
477 0 42.2362 11.9802 506 125.597 1247.91 495.717
478 0 43.2075 11.6878 505 134.135 1248.51 495.824
479 0 44.1807 11.6793 516 124.855 1249.01 494.843
480 0 46.2203 11.5534 534 127.208 1248.71 493.629
481 0 47.2579 11.5536 546 130.793 1248.47 492.842
482 0 47.3034 11.8596 561 130.861 1248.9 492.759
483 0 50.1034 11.9353 598 129.661 1248.77 490.804
484 0 51.2619 12.1143 621 127.275 1248.59 489.899
485 0 53.2141 11.9705 637 131.499 1249.15 489.727
486 0 53.1121 12.3324 655 131.139 1248.8 488.957
487 0 57.2199 12.3558 707 129.018 1249.02 487.676
488 0 58.1458 12.4515 724 129.468 1249.22 486.872
489 0 60.0879 12.5483 754 130.048 1249 486.19
490 0 61.2245 12.8543 787 132.503 1249.08 484.525
491 0 66.1933 12.9318 856 128.243 1248.84 485.042
492 0 66.1656 13.6173 901 133.144 1249.32 484.038
493 0 69.2083 12.9898 899 133.281 1249.6 482.078
494 0 71.2864 13.2003 941 133.69 1249.92 479.889
495 0 71.1011 13.094 931 138.716 1249.95 480.252
496 0 76.1886 13.3222 1015 136.342 1250.26 478.795
497 0 77.1271 13.562 1046 141.323 1250.47 476.658
498 0 80.1549 13.4739 1080 141.124 1250.46 474.672
499 0 82.1984 13.4553 1106 137.423 1249.94 474.209
500 1 43.0505 11.1729 481 145.765 1250.06 494.859
501 0 44.0694 11.6634 514 143.7 1250.48 493.8
502 0 47.2348 11.9192 563 138.682 1249.85 492.446
503 0 47.1952 11.9504 564 137.78 1250.26 492.553
504 0 49.2515 11.9387 588 131.391 1250.05 491.946
505 0 50.1719 12.1383 609 140.003 1250.7 490.525
506 0 51.1199 12.011 614 135.168 1250.23 490.06
507 0 54.1587 12.4818 676 141.49 1250.17 489.521
508 0 56.2619 12.1041 681 141.347 1250.13 488.424
509 0 57.1505 12.3359 705 137.948 1249.79 487.138
510 0 58.2549 12.411 723 133.895 1249.83 486.58
511 0 59.2422 12.6768 751 140.747 1250.11 486.31
512 0 61.2373 12.7373 780 134.45 1250.7 484.721
513 0 62.0471 12.5066 776 137.573 1250.41 483.55
514 0 63.053 12.8463 810 132.685 1249.7 483.872
515 0 65.1227 13.2058 860 135.31 1249.34 482.101
516 0 67.1233 12.7378 855 132.957 1249.64 481.678
517 0 69.058 13.1484 908 128.142 1249.29 481.001
518 0 70.1182 12.7214 892 128.1 1249.17 478.604
519 0 75.1368 12.6436 950 128.84 1249.34 477.656
520 0 76.1129 12.9544 986 131.872 1248.76 476.64
521 0 77.1358 12.653 976 134.727 1248.43 474.464
522 0 82.2541 12.6438 1040 132.138 1248.76 472.958
523 1 45.0406 10.5016 473 135.264 1248.72 492.863
524 0 45.0362 11.0134 496 134.665 1248.68 491.567
525 0 47.1013 11.7194 552 134.018 1249.16 490.882
526 0 49.0283 11.6259 570 134.463 1248.99 490.016
527 0 50.1278 12.129 608 136.033 1247.9 490.069
528 0 51.0668 11.9256 609 134.875 1247.72 489.264
529 0 52.1325 11.9695 624 143.188 1248.05 489.617
530 0 54.1332 11.8596 642 134.858 1247.46 488.947
531 0 56.1337 11.9892 673 138.006 1247.64 487.085
532 0 55.12 12.1734 671 140.033 1247.74 487.267
533 0 57.2407 12.2989 704 137.389 1247.11 486.636
534 0 60.1552 12.5509 755 131.408 1247.1 485.629
535 0 62.1391 12.4559 774 138.637 1246.83 483.689
536 0 63.2362 12.2715 776 137.131 1247.24 483.909
537 0 66.1825 12.1785 806 133.933 1246.98 482.984
538 0 68.2107 12.1975 832 137.441 1247.32 481.297
539 0 69.1604 12.2324 846 131.461 1247.41 481.096
540 0 72.1127 12.3418 890 128.789 1247.14 479.407
541 0 75.128 12.1659 914 129.433 1247.66 478.033
542 0 78.1863 12.6621 990 129.087 1247.62 475.593
543 1 41.0675 11.055 454 127.857 1248.62 494.009
544 0 43.0645 11.2854 486 129.132 1248.59 494.298
545 0 45.0373 11.5238 519 125.869 1248.93 492.636
546 0 46.0343 11.6869 538 129.351 1248.88 492.091
547 0 47.1679 11.9997 566 128.641 1248.39 491.343
548 0 50.1684 11.6009 582 129.113 1248.61 491.088
549 0 51.1597 12.2166 625 128.365 1248.44 489.989
550 0 53.1925 12.201 649 126.063 1248.29 489.291
551 0 54.1472 12.2998 666 127.826 1248.41 488.941
552 0 54.151 12.6314 684 129.963 1248.1 487.58
553 0 58.1254 12.3698 719 130.765 1247.89 486.911
554 0 58.0638 12.3829 719 125.309 1246.86 486.352
555 0 60.2168 12.455 750 131.02 1246.4 484.617
556 0 62.2077 12.5869 783 126.99 1246.16 484.552
557 0 64.4989 12.6669 817 130.679 1245.81 483.508
558 0 63.1932 13.3875 846 125.307 1245.78 482.82
559 0 66.3627 13.2605 880 131.144 1245.07 482.532
560 0 69.3061 13.2023 915 130.56 1245.2 480.92
561 0 73.2537 13.2417 970 131.169 1245.18 479.757
562 0 74.3471 13.1949 981 129.723 1245.07 480.062
563 0 76.2685 13.5574 1034 130.632 1244.93 477.932
564 0 80.2661 13.4677 1081 131.999 1245.34 475.43
565 0 81.3235 13.8582 1127 125.091 1244.8 474.635
566 0 84.323 13.7566 1160 133.841 1244.86 473.326
567 0 87.3993 13.6042 1189 137.247 1244.86 472.902
568 0 92.594 13.8346 1281 134.422 1244.97 470.593
569 0 92.594 13.8346 1281 175.999 1244.97 470.593
570 0 98.2293 14.4865 1423 126.093 1245.17 466.918
571 1 54.0458 12.4339 672 136.251 1245.65 489.586
572 0 54.1473 13.0939 709 139.485 1246.43 489.243
573 0 59.2193 12.9519 767 135.283 1245.95 488.884
574 0 60.1438 12.9855 781 136.927 1245.93 488.187
575 0 62.171 12.8517 799 129.473 1246.35 487.158
576 0 65.1245 12.6527 824 138.465 1246.39 485.557
577 0 66.1759 13.1619 871 136.342 1246.16 483.786
578 0 69.1005 13.1692 910 128.555 1246.3 483.38
579 0 71.1462 13.395 953 134.932 1246.58 482.165
580 0 74.1194 13.4108 994 133.776 1246.72 480.747
581 0 76.1008 13.3244 1014 138.217 1247.01 479.097
582 0 77.0521 13.3027 1025 137.13 1246.9 478.396
583 0 79.1763 13.6657 1082 126.779 1247.07 476.813
584 0 82.0765 13.3778 1098 138.371 1247.46 476.654
585 0 84.1154 13.6241 1146 137.567 1247.51 474.839
586 0 87.1152 13.3731 1165 133.329 1247.64 473.361
587 0 88.1642 13.3274 1175 142.401 1247.13 472.16
588 0 92.1445 13.3269 1228 142.963 1247.31 469.752
589 0 96.069 13.2717 1275 141.34 1247.48 468.787
590 0 97.1479 13.4125 1303 145.939 1247.84 466.813
591 0 102.122 13.1412 1342 144.413 1247.54 465.425
592 0 104.129 13.5024 1406 147.351 1247.74 463.52
593 0 108.227 13.3146 1441 140.344 1247.72 461.645
594 1 59.1084 11.8426 700 144.991 1247.76 486.659
595 0 60.0584 12.1881 732 143.148 1247.84 485.481
596 0 60.094 12.6468 760 144.579 1247.42 484.347
597 0 63.0337 12.9296 815 137.233 1247.58 483.838
598 0 66.0671 12.5933 832 144.488 1247.93 481.761
599 0 69.0442 12.5717 868 145.878 1248.06 480.555
600 0 71.0761 12.6906 902 139.377 1248.46 479.366
601 0 73.131 12.5802 920 136.235 1248.59 478.012
602 0 75.0358 12.8205 962 140.891 1248.48 476.517
603 0 77.116 12.6952 979 142.231 1248.44 474.743
604 0 80.2176 12.8276 1029 139.203 1248.76 474.224
605 0 83.1303 13.0879 1088 133.806 1248.56 472.431
606 0 85.0987 13.2905 1131 137.511 1248.14 472.129
607 0 88.1917 13.1645 1161 142.609 1248.15 469.661
608 0 91.1674 13.1845 1202 143.216 1248.48 469.089
609 0 92.3431 13.1683 1216 142.646 1248.62 468.733
610 0 94.2288 13.5203 1274 143.268 1249.13 466.161
611 0 99.1551 13.3528 1324 135.002 1249.54 464.391
612 0 101.19 13.272 1343 140.591 1249.76 463.831
613 0 104.259 13.3801 1395 142.171 1250.08 460.371
614 0 109.067 13.4321 1465 142.975 1250.1 461.055
615 1 53.0405 11.067 587 138.014 1251.24 488.578
616 0 55.1892 11.5783 639 141.014 1250.42 487.775
617 0 58.2775 11.4109 665 135.547 1249.31 486.197
618 0 58.2615 11.8088 688 140.283 1249.07 486.164
619 0 61.1994 12.3367 755 139.975 1249.74 484.906
620 0 61.1356 12.4314 760 138.241 1249.97 484.541
621 0 65.143 12.296 801 135.953 1249.82 484.472
622 0 67.087 12.6254 847 136.327 1250.06 482.501
623 0 69.1129 12.5447 867 134.992 1249.84 481.506
624 0 71.138 12.5812 895 134.977 1249.85 480.342
625 0 74.1712 13.1992 979 132.698 1249.71 479.352
626 0 74.1708 12.9835 963 128.76 1249.62 477.515
627 0 78.2078 12.9271 1011 130.992 1249.72 477.493
628 0 80.3306 13.2204 1062 132.768 1248.89 475.855
629 0 82.1586 12.7436 1047 130.323 1249.01 474.917
630 0 83.1967 13.438 1118 126.304 1248.81 473.716
631 0 86.3115 12.9762 1120 123.399 1247.95 472.378
632 0 88.2859 13.5129 1193 129.754 1248.26 472.559
633 0 90.3696 13.7436 1242 125.878 1247.85 469.974
634 0 94.3542 13.4387 1268 129.005 1248.29 469.468
635 0 96.3921 13.7148 1322 127.946 1248.07 468.682
636 0 98.3336 13.5966 1337 129.356 1247.76 467.414
637 0 99.2843 13.7585 1366 131.406 1247.55 465.76
638 0 105.349 13.0329 1373 128.45 1247.67 464.289
639 0 107.593 13.2908 1430 131.524 1247.62 464.158
640 0 113.437 13.7169 1556 125.194 1247.59 459.835
641 0 117.517 13.6661 1606 124.262 1248.11 458.262
642 1 61.2865 12.2213 749 126.84 1247.24 485.248
643 0 63.1452 12.5742 794 127.788 1247.62 483.518
644 0 64.1833 12.5266 804 126.438 1247.82 483.271
645 0 66.2376 12.6212 836 129.388 1247.69 482.523
646 0 69.5418 12.8987 897 126.159 1247.32 482.331
647 0 70.311 13.2269 930 129.69 1247.16 480.33
648 0 73.5032 12.8294 943 126.046 1247.25 479.351
649 0 76.5919 12.8995 988 128.572 1247.11 478.118
650 0 77.4064 13.0222 1008 128.209 1246.9 476.834
651 0 81.6277 13.096 1069 133.895 1247.21 474.984
652 0 84.4163 12.699 1072 127.884 1247.36 474.351
653 0 86.3724 13.1639 1137 125.672 1247.47 472.51
654 0 89.4976 12.8942 1154 130.474 1247.47 470.72
655 0 93.5525 12.8056 1198 133.881 1247.49 469.361
656 0 96.3112 12.8126 1234 133.131 1247.23 468.496
657 1 53.1167 11.2959 600 128.583 1246.54 491.182
658 0 55.1476 11.8047 651 129.224 1248.26 489.183
659 0 54.0176 12.4774 674 132.639 1248.34 489.433
660 0 58.0255 11.719 680 130.672 1248.57 488.941
661 0 59.1478 12.6125 746 125.655 1247.53 488.484
662 0 62.2016 12.3791 770 129.848 1247.45 487.051
663 0 63.1524 12.1927 770 129.138 1247.51 485.26
664 0 66.0776 12.5307 828 128.893 1247.81 484.621
665 0 68.1718 12.2485 835 127.017 1247.52 482.801
666 0 71.2139 12.5257 892 129.315 1247.67 481.886
667 0 72.1828 12.6346 912 126.042 1247.04 480.92
668 0 74.2622 12.7521 947 126.967 1246.92 480.202
669 0 74.2018 13.1533 976 123.465 1247.33 479.236
670 0 78.4076 12.7794 1002 126.265 1247.12 477.678
671 0 83.5653 12.6847 1060 115.988 1247.36 476.058
672 0 85.4534 12.7789 1092 124.821 1246.91 475.797
673 1 45.3656 11.5506 524 121.557 1247.12 495.261
674 0 47.2361 11.5589 546 114.33 1247.82 494.476
675 0 46.1324 11.6621 538 124.753 1247.59 494.762
676 0 48.189 12.0982 583 119.943 1248.09 493.626
677 0 49.2484 12.2441 603 123.111 1247.96 492.977
678 0 51.1312 12.0279 615 119.06 1247.8 492.585
679 0 53.2868 11.485 612 114.023 1247.28 492.216
680 0 53.1207 12.2928 653 110.291 1246.75 490.772
681 0 57.1831 12.3113 704 117.153 1247.72 489.009
682 0 57.1831 12.3113 704 154.787 1248.72 489.009
683 0 60.1876 11.514 693 125.094 1247.81 487.055
684 0 62.1041 12.2858 763 121.021 1247.39 485.987
685 0 65.1586 12.7382 830 124.37 1247.25 485.614
686 0 67.1788 12.623 848 116.027 1247.58 484.551
687 0 69.162 12.5069 865 121.355 1246.69 484.764
688 0 72.0813 12.6108 909 123.099 1246.72 483.124
689 0 73.2286 12.2766 899 122.445 1246.52 482.132
690 0 74.1745 12.7537 946 125.459 1246.81 482.907
691 0 78.1223 12.3268 963 121.079 1246.29 481.71
692 0 80.0923 12.7353 1020 124.118 1246.82 479.197
693 0 82.2039 13.1259 1079 124.734 1246.61 478.183
694 0 85.2191 12.8962 1099 125.965 1246.6 478.56
695 0 88.2658 12.519 1105 124.873 1246.31 476.119
696 0 91.2206 12.6397 1153 127.411 1246.11 473.84
697 0 97.2366 14.1716 1378 126.231 1245.87 469.694
698 0 97.128 13.9713 1357 124.514 1246.07 469.671
699 0 97.292 13.0021 1265 126.517 1245.72 470.474
700 1 55.1094 10.6515 587 129.804 1246.26 490.009
701 0 57.1648 11.2132 641 133.064 1245.86 490.46
702 0 58.3167 11.5747 675 133.692 1245.34 488.953
703 0 57.1423 11.7076 669 131.671 1245.58 488.179
704 0 60.205 11.8595 714 134.064 1245.67 486.511
705 0 61.1854 11.8819 727 133.253 1245.27 488.21
706 0 63.1285 11.9914 757 134.956 1245.57 486.46
707 0 66.1181 12.0996 800 136.515 1246.01 485.798
708 0 68.2093 11.7726 803 128.635 1245.72 484.015
709 0 69.1204 12.3553 854 137.21 1245.42 483.425
710 0 72.1409 12.3092 888 131.689 1245.54 482.315
711 0 74.1608 12.2572 909 130.534 1245.11 480.336
712 0 76.0752 12.6717 964 130.129 1244.78 480.54
713 0 80.1981 11.9953 962 129.589 1244.91 480.352
714 0 82.1602 12.6947 1043 127.213 1244.37 479.679
715 0 85.1482 11.8969 1013 133.669 1244.11 479.494
716 0 89.1027 12.1433 1082 131.928 1245.04 477.733
717 0 92.2781 12.1372 1120 123.821 1244.51 476.017
718 1 49.1284 10.5234 517 133.634 1244.44 497.296
719 0 48.0966 11.1026 534 130.416 1244.45 496.157
720 0 50.1344 11.4093 572 125.678 1244.08 495.89
721 0 52.1208 11.9338 622 122.85 1244.24 495.175
722 0 52.1719 11.8838 620 124.537 1245.35 495.502
723 0 55.1244 11.6101 640 134.838 1245.19 494.625
724 0 57.1253 12.0437 688 128.049 1245.82 494.019
725 0 59.0722 12.07 713 125.665 1245.81 493.722
726 0 61.2051 12.2049 747 123.652 1246.11 492.735
727 0 62.0797 11.888 738 130.233 1246.36 491.331
728 0 64.1856 12.2146 784 135.153 1246.27 490.92
729 0 65.2182 12.6498 825 132.434 1246.72 489.362
730 0 68.2226 12.811 874 118.725 1246.83 486.279
731 0 71.2183 12.6512 901 135.143 1247.27 485.818
732 0 72.3822 12.7103 920 131.472 1247.32 483.653
733 0 73.3733 13.1519 965 128.984 1246.2 482.402
734 0 77.5675 13.7042 1063 126.665 1246.67 480.74
735 0 81.5362 12.657 1032 128.886 1246.28 479.776
736 0 83.41 12.8042 1068 125.908 1247.09 478.27
737 0 85.7544 12.734 1092 128.824 1246.91 476.977
738 0 88.506 12.8692 1139 120.722 1247.05 474.935
739 1 47.068 12.1951 574 129.049 1247.79 496.141
740 0 50.1617 11.9613 600 130.33 1248.06 495.53
741 0 51.2962 12.4376 638 124.881 1248.03 494.879
742 0 53.1808 12.5985 670 124.419 1247.85 492.578
743 0 54.2008 12.6566 686 122.108 1248.04 491.77
744 0 54.1757 12.7733 692 129.779 1247.99 491.767
745 0 55.1969 13.1167 724 125.818 1248.57 489.387
746 0 58.2034 13.3669 778 122.175 1248.4 490.542
747 0 58.1485 13.2419 770 128.419 1248.66 488.025
748 0 60.3306 13.5586 818 128.447 1248.66 487.884
749 0 62.4719 13.1739 823 125.168 1249.1 486.463
750 0 64.2527 13.5558 871 123.166 1248.82 484.871
751 0 66.2578 13.4022 888 130.745 1249 485.015
752 0 68.2773 13.6063 929 128.095 1248.72 484.342
753 0 70.3201 13.6092 957 123.59 1249.37 482.302
754 0 73.268 13.6622 1001 131.315 1249.54 481.699
755 0 75.2199 13.8261 1040 128.596 1249.56 480.992
756 0 77.2153 13.6502 1054 126.222 1249.25 479.223
757 0 80.2787 13.9016 1116 127.892 1249.31 477.517
758 0 80.2622 14.2159 1141 126.816 1249.24 476.655
759 0 84.3019 14.021 1182 133.016 1249.5 475.409
760 0 86.3096 14.1236 1219 124.244 1249.89 473.582
761 0 89.2962 14.0095 1251 128.475 1250.34 472.777
762 0 92.489 13.8827 1284 134.251 1250.11 471.572
763 0 95.3104 13.797 1315 127.25 1249.97 468.862
764 0 99.4135 14.2838 1420 129.68 1250.01 467.937
765 0 101.354 13.882 1407 134.94 1250.01 466.947
766 0 104.402 14.0705 1469 126.999 1250.44 465.148
767 0 108.452 14.2644 1547 133.469 1250.27 463.705
768 0 112.398 14.1818 1594 130.1 1250.34 461.361
769 0 116.473 13.9174 1621 132.097 1250.23 459.196
770 1 62.1974 12.5407 780 135.441 1249.86 484.396
771 0 66.3285 12.7698 847 134.203 1250.24 481.333
772 0 67.2075 13.4806 906 131.043 1249.72 481.86
773 0 69.1614 12.695 878 137.158 1249.29 482.844
774 0 71.2897 13.2277 943 131.646 1250.3 481.406
775 0 73.2296 13.0548 956 136.691 1250.25 479.798
776 0 75.2082 13.2698 998 138.572 1250.46 479.783
777 0 75.1519 13.4528 1011 131.777 1249.03 476.981
778 0 79.092 13.2883 1051 132.977 1249.26 476.783
779 0 81.1083 13.1306 1065 132.363 1248.73 475.727
780 0 83.1381 13.5317 1125 139.113 1248.87 473.637
781 0 83.1872 13.3073 1107 138.209 1248.65 472.921
782 0 87.3163 13.537 1182 131.563 1248.23 469.856
783 0 91.2139 13.6383 1244 136.265 1248.22 468.836
784 0 93.212 13.8501 1291 136.939 1247.92 466.619
785 0 96.1856 13.5155 1300 135.932 1247.66 466.075
786 0 98.1164 13.7184 1346 139.073 1247.7 464.62
787 0 103.259 13.3257 1376 140.11 1247.81 464.371
788 0 106.317 13.6667 1453 135.787 1248 462.716
789 0 109.372 13.6689 1495 137.815 1247.86 462.228
790 0 113.501 13.5329 1536 142.532 1247.92 459.949
791 1 61.1953 13.4324 822 134.227 1247.76 484.063
792 0 65.1165 12.8846 839 137.002 1248.08 484.499
793 0 67.0951 13.22 887 135.47 1247.71 483.471
794 0 69.2727 12.9777 899 138.089 1247.48 481.38
795 0 72.2907 12.9339 935 127.842 1247.75 480.188
796 0 74.4286 12.737 948 137.102 1247.7 479.615
797 0 78.3248 12.8695 1008 138.169 1248.09 477.406
798 0 79.3983 13.0985 1040 138.542 1248.48 476.838
799 0 82.3239 13.0217 1072 133.847 1248.5 475.442
800 0 86.2957 13.2336 1142 131.754 1248.43 473.219
801 0 89.4176 13.107 1172 135.642 1248.76 470.904
802 0 91.3776 13.2855 1214 136.424 1248.72 470.183
803 0 95.2187 13.0332 1241 141.869 1248.6 469.454
804 0 95.2965 13.4108 1278 138.513 1248.54 466.457
805 0 100.433 12.934 1299 138.005 1248.49 464.714
806 0 103.245 13.1048 1353 134.596 1248.47 462.1
807 1 58.1166 11.9243 693 140.547 1249.23 485.355
808 0 61.0309 11.8792 725 138.532 1249.6 484.499
809 0 61.0937 12.3417 754 139.836 1249.55 482.398
810 0 63.0992 12.2981 776 141.518 1249.8 481.483
811 0 64.1698 12.6072 809 136.023 1249.56 479.481
812 0 65.0344 12.5472 816 138.484 1250.44 480.266
813 0 70.078 12.6859 889 135.897 1250.96 478.381
814 0 70.0345 12.708 890 138.111 1250.65 476.315
815 0 74.1513 12.5959 934 136.854 1249.73 475.995
816 0 76.1675 12.5776 958 138.042 1249.47 474.339
817 0 78.2421 12.7169 995 138.399 1249.71 474.393
818 0 81.399 12.8011 1042 139.335 1249.91 473.254
819 0 84.4485 12.7178 1074 139.31 1249.82 470.342
820 0 89.3139 13.2902 1187 129.971 1250.19 469.672
821 0 88.567 13.2329 1172 131.899 1250.08 467.541
822 0 94.4383 12.5585 1186 140.784 1250.49 466.738
823 0 98.5997 12.3733 1220 133.42 1250.61 463.243
824 0 99.663 12.7229 1268 142.748 1250.74 462.035
825 1 51.1964 11.368 582 131.254 1251.13 487.036
826 0 52.1259 11.8751 619 137.887 1250.91 485.451
827 0 56.2955 12.0436 678 139.664 1250.72 487.251
828 0 57.1709 12.209 698 138.817 1250.62 487.095
829 0 60.4252 11.9487 722 136.41 1251 485.972
830 0 60.4252 11.9487 722 163.884 1252 485.972
831 0 61.2615 12.1773 746 140.625 1250.56 482.957
832 0 62.5637 12.3714 774 139.083 1250.44 482.338
833 0 64.4517 12.4279 801 132.755 1250.43 482.017
834 0 68.5344 12.3296 845 141.664 1250.37 480.062
835 0 70.3013 12.4464 875 136.222 1250 478.619
836 0 72.3758 12.4627 902 137.287 1249.92 478.104
837 0 74.1892 12.0638 895 139.841 1250.18 477.731
838 0 77.469 12.5082 969 137.009 1249.97 474.479
839 0 79.6961 12.1336 967 136.657 1250.43 474.724
840 0 82.5836 12.1574 1004 136.544 1250.52 473.82
841 0 84.5085 12.8153 1083 135.614 1250.42 471.708
842 0 87.4627 12.8169 1121 126.835 1250.55 471.461
843 0 89.387 12.8878 1152 128.713 1251.05 469.076
844 0 93.4666 12.2504 1145 131.724 1251.04 469.396
845 0 95.4213 12.5234 1195 134.132 1251.09 464.985
846 0 99.5433 12.7281 1267 124.97 1250.97 463.578
847 0 103.456 12.8074 1325 131.319 1251 463.215
848 1 55.1282 10.9744 605 131.207 1249.87 486.817
849 0 55.1608 11.2943 623 130.597 1249.75 485.889
850 0 58.1887 11.8923 692 129.71 1251.06 485.11
851 0 60.066 12.2199 734 126.523 1251.56 485.161
852 0 61.2123 12.5792 770 125.565 1251.35 484.339
853 0 63.2291 12.5891 796 120.817 1251.69 482.923
854 0 66.168 12.3474 817 121.778 1252.21 480.987
855 0 68.2298 12.4872 852 119.849 1250.87 480.55
856 0 70.1461 12.8874 904 122.769 1250.84 479.144
857 0 72.1986 12.6318 912 128.355 1250.92 478.606
858 0 74.1375 12.7736 947 124.105 1250.91 477.747
859 0 74.2628 13.2233 982 122.513 1250.68 476.194
860 0 77.1245 13.0179 1004 127.376 1250.67 475.604
861 0 79.2121 12.9526 1026 128.371 1251.46 475.893
862 0 83.2032 13.1726 1096 127.121 1250.9 473.357
863 0 86.258 12.7524 1100 128.718 1250.71 472.035
864 0 90.3404 13.0064 1175 124.995 1250.61 469.88
865 0 91.511 13.288 1216 122.44 1251.57 465.935
866 1 49.2688 11.6504 574 128.53 1250.25 489.882
867 0 52.2315 12.0234 628 128.107 1249.52 487.761
868 0 52.3548 12.7209 666 122.713 1249.16 485.245
869 0 56.1028 12.6019 707 128.74 1249.64 486.792
870 0 57.1643 12.5253 716 128.401 1248.6 484.876
871 0 57.036 12.6937 724 124.424 1249.7 485.521
872 0 61.031 12.8132 782 122.432 1250.26 485.661
873 0 63.043 12.8801 812 129.214 1250.14 483.034
874 0 64.0548 13.1606 843 123.968 1249.89 481.782
875 0 65.0822 12.9682 844 128.331 1250.07 481.56
876 0 67.0794 13.2977 892 124.465 1250.21 479.972
877 0 71.0912 13.4335 955 126.817 1250.4 478.718
878 0 73.1648 13.4217 982 124.942 1250.35 478.266
879 0 74.1288 13.1393 974 124.6 1250.36 478.371
880 0 76.1949 13.8723 1057 119.74 1250.65 477.376
881 0 79.177 13.6403 1080 130.419 1250.55 476.732
882 0 81.2212 13.7033 1113 125.491 1250.47 475.678
883 0 82.3079 13.8383 1139 129.643 1250.55 474.216
884 0 86.3484 13.5266 1168 134.58 1250.55 473.528
885 0 90.2046 13.5248 1220 129.051 1250.67 471.963
886 0 92.1598 13.1402 1211 127.879 1250.7 470.296
887 0 96.1212 13.3789 1286 133.718 1250.83 469.608
888 0 101.191 13.2522 1341 136.168 1250.95 467.578
889 1 53.0873 11.8484 629 127.442 1251.14 490.927
890 0 55.0355 12.1921 671 130.848 1251.15 489.194
891 0 59.0483 12.6168 745 127.228 1251.11 487.974
892 0 59.1217 12.5166 740 126.554 1251.1 488.454
893 0 61.1362 12.6439 773 118.141 1251.6 487.534
894 0 63.0878 12.3637 780 127.949 1251.98 487.045
895 0 64.0351 12.8055 820 128.338 1251.89 486.238
896 0 67.1145 12.5457 842 123.27 1252.25 483.52
897 0 69.0813 12.8255 886 122.13 1252.19 483.007
898 0 72.0373 12.674 913 114.747 1251.67 481.942
899 0 75.1403 12.5099 940 120.826 1251.32 481.261
900 0 77.0565 13.0164 1003 112.963 1251.17 478.417
901 0 80.1963 12.6689 1016 121.296 1251.03 477.552
902 0 82.084 13.0598 1072 120.119 1251.12 475.668
903 0 85.1398 13.2723 1130 120.831 1250.99 475.734
904 0 89.0696 13.2032 1176 118.268 1250.26 473.598
905 0 91.1737 13.2275 1206 119.319 1250.23 472.639
906 0 94.0874 13.1048 1233 119.599 1250.55 470.07
907 0 97.2159 13.2283 1286 131.657 1250.23 469.039
908 0 102.28 13.551 1386 113.644 1250.01 466.842
909 0 104.187 13.2454 1380 118.74 1250.11 465.588
910 0 109.332 12.7685 1396 120.36 1250.76 463.674
911 1 58.1453 12.2796 714 120.168 1249.84 487.053
912 0 59.1649 12.5243 741 116.717 1250.03 485.822
913 0 62.2464 12.4344 774 118.53 1251.56 486.478
914 0 65.148 12.1569 792 113.696 1251.31 486.72
915 0 67.1298 12.528 841 112.547 1251.34 483.837
916 0 68.2156 12.5484 856 118.72 1251.61 482.797
917 0 71.1915 12.965 923 117.7 1251.69 481.559
918 0 72.1764 13.1622 950 115.622 1251.81 479.803
919 0 76.1176 12.6778 965 115.201 1251.69 479.073
920 0 78.0848 12.5889 983 118.232 1251.83 478.115
921 0 80.0584 12.8781 1031 117.778 1251.68 475.811
922 0 84.0997 12.8657 1082 116.931 1252.25 474.086
923 0 86.1231 12.9582 1116 118.43 1251.82 474.185
924 0 86.0941 13.1716 1134 122.655 1252.12 471.948
925 0 89.1482 13.1915 1176 118.582 1251.85 472.518
926 0 93.1533 13.2148 1231 122.498 1251.55 471.06
927 0 96.114 12.7453 1225 127.313 1252.06 469.542
928 0 101.328 12.8888 1306 118.638 1252.38 468.113
929 0 103.212 13.6127 1405 126.554 1252.6 466.16
930 0 105.268 13.0904 1378 125.71 1252.92 464.12
931 0 109.291 13.2216 1445 124.421 1252.01 463.273
932 0 112.283 13.7866 1548 119.079 1251.56 461.613
933 0 115.377 13.3129 1536 127.18 1250.82 459.525
934 1 65.2376 11.0826 723 130.09 1250.94 485.004
935 0 67.2581 11.6566 784 125.853 1251.03 483.367
936 0 69.2159 12.5694 870 122.431 1250.89 481.359
937 0 69.1717 13.0545 903 126.674 1250.82 481.591
938 0 73.1493 12.7001 929 127.593 1250.88 480.552
939 0 74.2408 12.7962 950 126.927 1251.29 479.223
940 0 77.3058 13.0003 1005 128.828 1251.29 477.998
941 0 80.2605 13.2195 1061 125.419 1251.33 476.255
942 0 82.119 13.3465 1096 128.798 1251.51 474.223
943 0 85.1886 13.6168 1160 131.758 1251.99 473.609
944 0 88.1595 13.3622 1178 129.741 1252.04 472.386
945 0 89.2359 13.4475 1200 131.589 1252.15 471.19
946 0 93.2765 13.5189 1261 133.444 1252.19 469.972
947 0 97.258 13.5516 1318 132.488 1251.68 467.336
948 0 98.1821 13.6481 1340 128.738 1251.46 466.872
949 0 103.308 13.9098 1437 133.514 1251.51 463.736
950 0 106.489 13.7573 1465 132.493 1251.38 461.784
951 0 111.503 14.5916 1627 129.549 1251.43 458.433
952 0 113.717 13.7622 1565 133.507 1251.48 456.989
953 0 115.483 14.3398 1656 138.3 1251.57 453.94
954 1 61.3538 12.5013 767 144.116 1251.12 481.308
955 0 64.2819 13.0363 838 138.736 1251.03 481.08
956 0 65.0746 13.1849 858 132.212 1251.27 482.158
957 0 69.3 13.189 914 137.237 1251.68 480.296
958 0 71.3875 12.9434 924 132.834 1251.26 478.719
959 0 74.3336 12.8071 952 139.393 1252.08 478.148
960 0 75.3144 13.4104 1010 135.811 1251.94 476.508
961 0 79.3738 13.1152 1041 129.499 1251.95 474.38
962 0 81.2977 13.4936 1097 133.231 1251.74 473.805
963 0 81.7069 13.5974 1111 133.325 1251.48 471.364
964 0 85.4286 13.7191 1172 129.116 1251.48 471.139
965 0 87.599 13.8015 1209 127.664 1251.48 468.556
966 0 89.4986 13.4862 1207 128.095 1251.23 467.283
967 0 94.5298 13.4561 1272 127.006 1251.1 466.028
968 0 98.487 13.5957 1339 126.978 1251.35 464.243
969 0 100.465 13.776 1384 123.301 1251.28 462.44
970 1 58.0931 12.1013 703 128.468 1250.93 486.597
971 0 61.3233 12.1976 748 131.049 1250.95 485.092
972 0 61.3154 12.5906 772 130.179 1250.99 484.948
973 0 62.3251 12.8038 798 128.548 1251.29 484.293
974 0 65.3094 12.8006 836 132.142 1251.56 483.012
975 0 67.341 12.756 859 124.744 1251.27 481.718
976 0 71.5068 12.7261 910 131.613 1251.47 480.079
977 0 72.6151 13.3306 968 132.142 1251.7 479.135
978 0 75.2996 13.267 999 127.225 1251.4 478.138
979 0 76.2355 13.1435 1002 131.328 1251.32 477.562
980 0 80.4808 12.7608 1027 128.242 1251.28 475.568
981 0 82.3287 13.3732 1101 130.757 1251.07 474.24
982 0 85.5435 12.7654 1092 135.071 1251.48 473.044
983 0 87.3266 13.3865 1169 120.944 1251.34 472.108
984 0 91.3506 13.2238 1208 129.464 1251.17 469.765
985 0 93.2857 13.1103 1223 120.383 1251.2 468.551
986 0 97.3492 13.0561 1271 129.935 1251.32 466.676
987 0 98.4228 13.249 1304 135.949 1251.3 464.683
988 1 53.1417 11.2153 596 131.413 1252.59 488.253
989 0 55.1679 11.6191 641 122.746 1252.77 487.27
990 0 57.2323 11.9164 682 127.092 1252.25 487.405
991 0 59.1692 11.9826 709 132.126 1251.83 485.808
992 0 61.1449 11.9061 728 131.168 1251.48 484.099
993 0 63.2564 12.3466 781 134.32 1251.24 482.229
994 0 65.1282 11.8842 774 134.552 1251.5 482.046
995 0 68.0881 11.7789 802 138.358 1251.5 480.608
996 0 69.1125 12.183 842 140.854 1251.63 479.898
997 0 72.1508 12.6263 911 134.998 1251.45 477.841
998 0 74.1151 12.5481 930 134.945 1251.36 476.863
999 0 76.1752 12.4844 951 141.323 1251.87 476.359
1000 0 79.1895 12.0218 952 140.207 1251.67 475.423
1001 0 80.1318 12.7665 1023 142.544 1251.77 474.816
1002 0 84.3189 12.5002 1054 148.398 1251.68 473.181
1003 0 85.1717 13.1382 1119 147.483 1251.58 471.941
1004 0 90.1867 12.8733 1161 143.614 1251.86 472.006
1005 0 91.1412 13.2651 1209 140.32 1252.08 470.133
1006 0 96.2258 12.8448 1236 137.9 1252.11 467.888
1007 0 99.2005 12.8528 1275 138.367 1252.99 467.219
1008 0 101.139 12.6163 1276 133.985 1253.22 464.41
1009 0 103.176 12.6967 1310 138.491 1253.07 462.928
1010 0 106.181 12.5728 1335 133.879 1252.78 462.482
1011 0 109.109 13.0603 1425 133.973 1252.48 460.067
1012 0 112.285 13.0561 1466 137.136 1252.32 458.41
1013 0 115.207 12.6902 1462 132.38 1252.64 458.13
1014 0 118.276 12.9359 1530 138.806 1252.7 455.975
1015 1 65.0798 11.678 760 134.699 1252.93 482.105
1016 0 69.0516 12.3241 851 130.119 1252.95 480.329
1017 0 71.1316 12.2308 870 132.729 1253.13 479.898
1018 0 74.2078 12.2494 909 129.857 1252.88 478.322
1019 0 78.1416 12.5413 980 131.261 1253.24 476.865
1020 0 81.0918 12.677 1028 127.582 1253.5 475.92
1021 0 82.1803 12.4361 1022 129.127 1253.65 475.59
1022 0 85.1837 12.7489 1086 141.822 1253.05 472.814
1023 0 89.1213 12.8701 1147 141.323 1252.76 471.725
1024 0 93.2324 12.3884 1155 136.178 1252.12 470.14
1025 0 95.446 12.604 1203 138.942 1252.25 468.934
1026 0 100.158 12.4703 1249 139.934 1252.45 465.721
1027 0 102.3 12.6783 1297 132.104 1252.24 464.358
1028 0 104.245 12.9886 1354 131.134 1252.07 463.773
1029 1 53.0817 11.4917 610 131.736 1252.93 488.746
1030 0 56.1599 12.3576 694 128.075 1252.85 488.372
1031 0 57.0784 12.0536 688 129.908 1251.22 487.112
1032 0 59.1559 12.1881 721 130.438 1251.83 486.222
1033 0 60.1009 12.7452 766 124.029 1251.52 485.286
1034 0 65.2503 13.5325 883 125.625 1251.89 483.666
1035 0 62.2217 12.7287 792 131.21 1251.72 484.152
1036 0 64.0936 12.5129 802 129.84 1252.14 483.365
1037 0 67.186 12.7854 859 121.098 1252.07 483.157
1038 0 69.123 12.7743 883 120.916 1252 481.83
1039 0 72.069 12.9321 932 124.388 1252.26 479.35
1040 0 73.2302 13.0138 953 125.825 1252.14 478.428
1041 0 74.1893 13.3038 987 125.57 1252.29 478.633
1042 0 78.1705 13.01 1017 128.033 1251.86 476.86
1043 0 80.2533 13.1085 1052 122.996 1252.16 476.523
1044 0 81.2005 13.5713 1102 122.091 1252.39 475.44
1045 0 85.2165 13.4598 1147 127.117 1252.37 473.823
1046 0 89.2304 13.7733 1229 122.376 1252.25 472.509
1047 0 90.2161 13.4898 1217 122.093 1252.45 471.73
1048 0 94.2806 13.375 1261 132.802 1252.67 468.781
1049 0 96.3731 13.3232 1284 128.374 1252.83 466.785
1050 0 99.2778 13.9105 1381 127.456 1252.87 465.871
1051 1 53.0598 12.4953 663 132.437 1253.55 489.872
1052 0 56.0462 12.5075 701 133.796 1253.54 489.158
1053 0 58.0622 13.5717 788 124.56 1254.63 487.477
1054 0 59.0576 13.2752 784 132.23 1253.79 487.823
1055 0 60.089 12.9142 776 135.146 1252.86 486.492
1056 0 62.0483 12.9899 806 133.926 1252.72 485.738
1057 0 64.0862 13.4818 864 127.657 1252.33 484.573
1058 0 65.0992 13.6561 889 135.448 1251.86 483.209
1059 0 66.1463 13.7271 908 132.452 1251.89 482.765
1060 0 68.1426 13.369 911 134.852 1252.16 482.955
1061 0 70.1241 13.4191 941 136.862 1252.25 482.206
1062 0 73.1248 13.5111 988 137.222 1252.22 481.124
1063 0 75.0941 13.4498 1010 140.425 1252.44 479.802
1064 0 77.1708 13.4377 1037 138.783 1252.14 478.958
1065 0 81.4652 13.1958 1075 141.904 1252.24 477.491
1066 0 82.1633 13.1324 1079 142.133 1252.21 474.98
1067 0 85.3312 13.3363 1138 142.774 1252.32 473.713
1068 0 88.3375 13.6975 1210 145.95 1252.91 472.025
1069 0 91.4644 13.8196 1264 146.831 1252.79 470.528
1070 0 95.5621 13.3735 1278 147.823 1252.57 468.599
1071 0 97.5472 13.6857 1335 146.079 1252.85 466.564
1072 0 101.367 13.7421 1393 147.045 1253.22 464.765
1073 1 55.1366 12.8953 711 147.075 1252.5 487.153
1074 0 58.2409 12.8089 746 146.662 1252.89 487.256
1075 0 59.0749 13.1528 777 145.257 1253.59 486.924
1076 0 60.1159 13.2744 798 151.624 1253.4 486.474
1077 0 61.0796 13.0158 795 149.023 1253.05 485.843
1078 0 63.1633 13.6788 864 149.971 1253.41 485.304
1079 0 66.2715 13.1278 870 142.209 1252.88 484.03
1080 0 68.2077 13.2683 905 150.528 1252.26 482.196
1081 0 70.0908 13.1829 924 150.549 1252.87 481.569
1082 0 73.1605 13.4362 983 144.287 1252.33 481.39
1083 0 76.145 13.3824 1019 147.653 1252.76 479.519
1084 0 78.183 13.673 1069 138.876 1252.8 477.895
1085 0 82.4383 13.5374 1116 139.277 1253.53 476.856
1086 0 83.3323 13.3562 1113 145.482 1252.95 475.863
1087 0 85.2417 13.7726 1174 145.151 1252.57 472.518
1088 0 91.2404 13.4042 1223 148.788 1253.07 472.066
1089 0 93.2599 13.6286 1271 147.872 1252.63 470.005
1090 0 98.1082 13.3628 1311 143.224 1252.9 468.312
1091 1 52.2818 12.184 637 152.174 1252.53 489.494
1092 0 55.4222 12.2875 681 139.684 1252.31 486.95
1093 0 57.3387 12.557 720 142.576 1252.7 486.974
1094 0 58.443 12.9357 756 144.316 1253.08 487.298
1095 0 59.2283 12.7642 756 143.673 1252.62 486.657
1096 0 60.2996 13.4329 810 144.667 1252.86 485.104
1097 0 64.4604 12.9072 832 148.316 1252.45 484.285
1098 0 66.5263 13.3331 887 149.722 1252.6 483.541
1099 0 67.3493 13.4374 905 142.92 1252.4 482.456
1100 0 71.541 12.8178 917 142.727 1251.81 480.248
1101 0 73.67 13.1261 967 139.767 1251.92 479.71
1102 0 75.6128 13.384 1012 141.798 1251.83 477.448
1103 0 77.6458 13.4972 1048 140.969 1251.94 477.624
1104 0 77.6458 13.4972 1048 178.934 1251.94 477.624
1105 0 82.4699 13.3139 1098 138.587 1251.77 474.532
1106 0 84.4615 13.4854 1139 137.176 1252.09 472.847
1107 0 86.3275 13.5299 1168 138.994 1251.88 472.553
1108 0 90.4797 13.2848 1202 141.71 1251.56 471.874
1109 0 93.4764 13.3189 1245 139.598 1252.03 469.38
1110 0 97.4035 14.7428 1436 128.994 1252.27 465.811
1111 1 51.3548 12.5986 647 141.873 1252.34 488.356
1112 0 53.2899 12.3663 659 140.035 1251.79 488.492
1113 0 55.2069 13.4404 742 135.307 1251.23 487.16
1114 0 56.5455 12.9276 731 136.888 1251.42 487.876
1115 0 57.287 13.0745 749 135.968 1251.17 486.633
1116 0 59.3769 13.1364 780 137.835 1251.08 486.01
1117 0 62.2656 13.3621 832 141.263 1251.33 485.612
1118 0 61.3496 13.8061 847 136.325 1251.05 484.888
1119 0 66.3032 13.1517 872 136.359 1251.26 483.706
1120 0 67.609 13.4597 910 144.648 1251.86 482.99
1121 0 70.2841 13.5023 949 140.649 1251.34 481.409
1122 0 72.5164 13.9003 1008 138.812 1251.51 480.108
1123 0 73.3692 13.8069 1013 146.21 1251.56 479.657
1124 0 77.5355 13.4261 1041 143.285 1251.78 478.279
1125 0 79.4971 13.5225 1075 136.052 1251.78 478.19
1126 0 82.5596 14.0989 1164 141.491 1252.64 475.949
1127 0 84.4893 13.9663 1180 134.809 1252.49 474.069
1128 0 88.4693 13.7788 1219 144.461 1251.9 473.939
1129 0 90.5559 13.384 1212 143.441 1251.65 472.828
1130 0 94.6031 13.7099 1297 150.15 1251.25 469.933
1131 1 50.4072 12.9743 654 143.24 1251.46 491.26
1132 0 52.3695 13.2711 695 150.878 1251.17 490.486
1133 0 51.1538 14.0361 718 147.701 1250.92 490.099
1134 0 55.2994 13.5625 750 149.92 1251.41 489.584
1135 0 56.1647 13.5672 762 147.976 1251.03 488.556
1136 0 56.4261 14.1956 801 145.26 1250.81 486.971
1137 0 59.2921 13.9142 825 143.891 1250.86 486.605
1138 0 61.1579 13.9148 851 141.68 1251.4 484.267
1139 0 63.113 14.1175 891 146.453 1251.31 483.856
1140 0 66.3345 13.5073 896 146.385 1250.97 482.554
1141 0 67.3919 13.9928 943 138.93 1251.28 481.571
1142 0 70.3231 14.2059 999 139.196 1251.34 479.701
1143 0 72.5243 14.1194 1024 141.73 1251.39 478.857
1144 0 72.287 14.5393 1051 141.703 1251.25 478.318
1145 0 76.8373 14.2769 1097 143.244 1251.28 476.455
1146 0 80.5643 14.3736 1158 138.332 1251.19 476.338
1147 0 81.4218 14.8486 1209 134.929 1251.24 474.418
1148 0 84.4393 14.4601 1221 139.1 1251.58 474.332
1149 0 87.435 14.7081 1286 128.135 1251.76 472.548
1150 0 92.6452 14.5501 1348 16.7307 1251.54 470.757
1151 0 93.3324 14.4859 1352 139.737 1251.45 469.499
1152 0 97.6635 14.8264 1448 136.952 1251.02 467.528
1153 0 100.572 14.666 1475 129.803 1250.64 466.646
1154 1 50.2504 13.9899 703 146.482 1250.57 489.323
1155 0 53.3468 14.3589 766 142.948 1250.99 488.042
1156 0 54.3939 14.1928 772 141.482 1250.16 488.459
1157 0 56.6673 14.2587 808 143.304 1250.16 488.427
1158 0 57.6642 14.7058 848 144.818 1249.92 487.32
1159 0 60.3979 15.1164 913 144.975 1250.39 486.402
1160 0 61.5849 14.5003 893 145.722 1250.45 486.446
1161 0 64.377 14.5238 935 144.379 1251.57 483.289
1162 0 67.3381 14.5386 979 137.528 1251.61 482.85
1163 0 68.2048 14.7937 1009 146.089 1250.97 481.118
1164 0 71.2918 14.7142 1049 141.888 1250.57 481.039
1165 0 72.5214 14.8784 1079 146.598 1251.01 480.638
1166 0 76.5243 14.5705 1115 143.161 1250.35 477.805
1167 0 78.2664 15.1917 1189 138.971 1250.36 477.478
1168 0 82.523 14.9413 1233 136.277 1250.64 476.491
1169 0 84.4725 15.0463 1271 139.395 1250.54 474.88
1170 0 88.4337 14.9377 1321 144.122 1250.58 473.112
1171 0 90.6674 15.033 1363 142.348 1250.31 472.165
1172 0 95.219 14.5769 1388 143.086 1250.68 471.193
1173 0 95.3443 15.1346 1443 140.602 1250.28 469.511
1174 0 99.7907 14.4502 1442 143.019 1250.44 468.053
1175 0 101.562 14.7988 1503 139.069 1250.6 467.037
1176 0 106.609 14.7924 1577 138.368 1250.9 464.756
1177 0 110.317 14.7394 1626 145.862 1250.91 463.322
1178 0 114.481 14.5439 1665 144.313 1251.57 460.998
1179 0 118.649 14.3701 1705 140.508 1251.2 458.363
1180 1 59.5881 13.8618 826 146.235 1250.37 486.015
1181 0 63.7598 13.9273 888 144.722 1250.86 485.22
1182 0 64.3096 14.0259 902 152.829 1250.68 483.002
1183 0 67.5792 14.176 958 149.357 1250.68 482.08
1184 0 69.6466 14.2146 990 142.656 1250.63 481.014
1185 0 72.3791 14.3412 1038 147.743 1250.47 480.562
1186 0 74.436 14.4554 1076 153.454 1250.63 477.877
1187 0 77.52 14.306 1109 152.643 1250.59 477.167
1188 0 80.5945 14.2441 1148 151.453 1250.72 475.761
1189 0 82.5269 14.3105 1181 155.754 1250.89 474.611
1190 0 86.4898 14.152 1224 153.646 1251.17 473.077
1191 0 89.5371 14.2064 1272 155.524 1251.13 471.795
1192 0 92.6561 14.2462 1320 149.773 1251.64 471.055
1193 0 94.285 14.891 1404 144.064 1251.79 469.37
1194 0 97.279 14.371 1398 148.192 1251.95 468.276
1195 1 56.2796 13.504 760 153.526 1251.16 487.455
1196 0 57.3328 13.7966 791 157.75 1251.54 485.742
1197 0 57.2647 14.1274 809 164.137 1251.55 485.7
1198 0 61.5443 14.1037 868 165.912 1251.91 483.741
1199 0 64.2901 14.1546 910 156.714 1251.9 483.033
1200 0 66.2883 14.0296 930 159.865 1251.95 481.238
1201 0 69.2415 14.3844 996 157.857 1251.33 481.091
1202 0 71.2155 14.0981 1004 158.964 1251.47 479.567
1203 0 73.1153 14.484 1059 160.56 1251.45 478.819
1204 0 75.5105 14.3291 1082 164.092 1251.28 477.944
1205 0 76.3052 14.4813 1105 168.768 1251.75 476.198
1206 0 78.3238 14.9891 1174 163.265 1251.71 475.043
1207 0 82.3025 14.6654 1207 163.633 1251.29 474.258
1208 0 85.5413 14.8466 1270 155.744 1251.88 472.575
1209 0 86.466 14.7341 1274 164.319 1251.73 471.462
1210 0 89.4533 14.5104 1298 164.348 1251.63 469.151
1211 0 92.3065 14.6793 1355 164.89 1252.46 468.697
1212 0 95.5481 14.6104 1396 168.526 1252.66 467.597
1213 0 98.7931 14.4544 1428 167.536 1252.2 466.062
1214 0 100.353 14.8675 1492 168.354 1252.13 463.981
1215 0 103.779 14.9452 1551 159.78 1251.85 463.384
1216 0 107.649 14.7423 1587 162.342 1252.27 461.08
1217 0 109.564 14.795 1621 162.858 1252.25 458.866
1218 0 113.403 14.6292 1659 163.382 1252.35 457.977
1219 0 114.394 15.1406 1732 162.636 1252.88 455.32
1220 0 118.474 15.1341 1793 166.284 1252.85 453.969
1221 0 124.316 15.1549 1884 163.126 1253.04 453.275
1222 0 125.421 15.2606 1914 165.155 1252.99 450.695
1223 0 131.529 15.3579 2020 164.441 1253.03 448.718
1224 0 134.59 15.1943 2045 161.311 1252.64 447.202
1225 0 138.571 15.0176 2081 169.175 1252.97 445.347
1226 0 142.566 15.3122 2183 163.203 1252.98 442.297
1227 0 147.437 15.193 2240 165.207 1252.86 439.762
1228 0 152.43 15.43 2352 165.226 1253.19 438.027
1229 0 157.47 15.2028 2394 168.979 1253.25 434.774
1230 0 163.419 15.2675 2495 166.04 1253.64 431.924
1231 0 168.395 15.6596 2637 169.099 1253.04 429.929
1232 0 172.523 15.7081 2710 160.987 1253.38 427.274
1233 0 178.51 15.2092 2715 166.068 1252.82 424.82
1234 0 182.246 15.3748 2802 167.185 1252.85 421.934
1235 0 189.488 15.5683 2950 166.472 1252.81 419.532
1236 0 194.614 15.2456 2967 170.051 1252.99 416.724
1237 0 199.661 15.7718 3149 163.314 1253.4 414.42
1238 0 205.453 15.2541 3134 170.205 1253.24 411.076
1239 1 30.1465 8.29284 250 138.112 1253.76 498.84
1240 0 29.1468 9.02329 263 141.882 1253.89 497.958
1241 0 28.1222 8.21415 231 137.948 1253.91 498.299
1242 0 29.1011 9.07181 264 137.833 1253.55 498.155
1243 0 27.1453 8.58343 233 134.528 1254.39 498.7
1244 0 24.2689 8.90027 216 135.972 1254.06 499.171
1245 0 24.1857 8.3107 201 132.279 1253.77 499.338
1246 0 29.1161 7.76202 226 134.044 1253.5 498.588
1247 0 30.1893 8.11546 245 130.759 1253.86 498.604
1248 0 27.0864 8.45444 229 135.847 1254.39 498.961
1249 0 27.0864 8.45444 229 137.633 1254.39 498.961
1250 0 29.0729 9.49338 276 127.239 1255.14 498.793
1251 0 29.0543 9.12084 265 127.608 1254.89 499.317
1252 0 29.2378 9.47402 277 129.632 1253.29 497.693
1253 0 29.1357 9.23267 269 131.16 1253.1 497.721
1254 0 32.2373 9.11987 294 128.946 1253.21 496.728
1255 0 32.306 9.87431 319 130.64 1253.65 496.683
1256 0 32.3288 9.37245 303 127.096 1254.84 496.139
1257 0 31.2316 9.82979 307 131.296 1254.52 495.876
1258 0 33.1956 9.88082 328 129.512 1253.47 496.369
1259 0 33.332 9.8704 329 126.188 1253.87 495.657
1260 0 33.3379 10.5586 352 128.594 1253.34 494.631
1261 0 35.2372 10.0178 353 124.479 1253.42 495.167
1262 0 34.2798 10.2393 351 128.362 1253.33 495.108
1263 0 35.2013 10.2269 360 127.075 1253.57 495.569
1264 0 35.1393 10.0742 354 137.893 1253.71 494.915
1265 0 34.2149 10.9017 373 134.375 1254.12 495.193
1266 0 35.2272 10.6452 375 128.32 1253.9 495.667
1267 0 36.2087 10.7985 391 131.036 1254.4 495.302
1268 0 37.1955 10.1625 378 131.966 1254.21 495.225
1269 0 34.2984 11.4291 392 132.992 1254.1 495.86
1270 0 36.2297 11.0407 400 132.325 1254.34 495.058
1271 0 36.1618 11.0614 400 135.162 1254.08 495.025
1272 0 36.1951 10.8302 392 132.393 1253.73 495.15
1273 0 36.4152 10.7647 392 134.844 1254.05 494.737
1274 0 36.2831 10.7488 390 137.908 1253.76 495.449
1275 0 37.2191 10.8278 403 138.526 1253.9 496.221
1276 0 37.2115 11.2331 418 135.077 1253.79 494.952
1277 0 37.2659 10.9483 408 139.855 1254.03 494.36
1278 0 36.3344 11.4217 415 137.376 1253.73 495.376
1279 0 36.3252 11.2869 410 138.607 1253.91 494.537
1280 0 36.1559 11.4228 413 142.99 1254.05 495.09
1281 0 37.1978 11.1834 416 136.346 1253.86 494.808
1282 0 38.2352 11.5339 441 131.134 1254.56 494.014
1283 0 37.208 11.3417 422 144.521 1254.47 494.5
1284 0 37.1362 11.0674 411 149.574 1254.13 494.757
1285 0 38.2124 10.651 407 145.853 1253.88 494.769
1286 0 37.1515 11.655 433 143.97 1254.12 494.979
1287 0 38.3388 11.3984 437 141.348 1254.52 494.323
1288 0 37.351 11.2714 421 157.287 1254.27 495.202
1289 0 38.3454 11.4225 438 146.256 1254.27 494.153
1290 0 37.2534 11.0862 413 152.685 1254.01 495.056
1291 0 37.27 11.2155 418 153.385 1254.45 494.275
1292 0 36.197 11.3269 410 152.946 1254.5 494.532
1293 0 38.3392 11.32 434 150.594 1255.08 494.339
1294 0 38.1476 11.0885 423 148.246 1254.72 494.702
1295 0 38.1716 11.2387 429 145.993 1254.71 493.921
1296 0 38.1776 11.4203 436 154.44 1254.99 494.741
1297 0 37.185 11.3487 422 137.434 1254.77 494.467
1298 0 40.3785 10.7731 435 151.616 1254.57 493.515
1299 0 38.213 10.9648 419 153.68 1255.36 494.52
1300 0 38.2129 11.1742 427 150 1254.96 494.269
1301 0 38.1085 11.2573 429 155.182 1254.95 494.697
1302 0 39.3 11.145 438 152.11 1255.97 494.361
1303 0 37.1792 11.3773 423 152.099 1256.39 493.962
1304 0 39.2484 11.0578 434 144.267 1255.44 494.159
1305 0 39.3786 11.1736 440 141.089 1254.7 493.795
1306 0 38.2571 11.2136 429 145.27 1254.62 493.755
1307 0 39.2388 11.086 435 147.756 1254.99 494.083
1308 0 38.1891 11.7049 447 145.239 1254.53 493.718
1309 0 38.2534 11.5284 441 142.821 1255.02 492.712
1310 0 39.2032 11.1215 436 139.897 1254.72 493.055
1311 0 40.1977 11.0952 446 137.363 1254.47 493.22
1312 0 38.237 11.2195 429 128.131 1254.34 493.998
1313 0 38.2389 11.6635 446 137.437 1254.53 493.39
1314 0 37.1972 11.8289 440 133.88 1254.91 492.339
1315 0 39.2287 11.2418 441 130.898 1254.73 492.846
1316 0 38.226 11.3535 434 133 1254.59 493.295
1317 0 39.2101 10.9156 428 133.516 1254.25 492.026
1318 0 39.2145 11.1183 436 125.58 1254.25 493.674
1319 0 39.2602 10.8762 427 129.583 1254.64 491.621
1320 0 39.2093 11.1198 436 130.571 1254.52 491.461
1321 0 39.2439 10.9571 430 128.123 1254.54 492.344
1322 0 40.3179 11.4093 460 122.757 1254.82 492.126
1323 0 38.24 11.7678 450 130.098 1254.6 491.591
1324 0 40.1597 11.4294 459 123.878 1254.5 492.057
1325 0 40.1459 11.1095 446 125.816 1254.02 490.892
1326 0 39.3169 11.9796 471 120.688 1253.87 491.49
1327 0 40.3203 11.5327 465 126.942 1254.22 491.923
1328 0 41.1367 11.79 485 120.965 1254.13 491.825
1329 0 38.0763 12.5012 476 123.319 1253.08 491.674
1330 0 42.0862 11.7616 495 121.113 1252.93 491.15
1331 0 39.1442 11.8536 464 130.739 1253.73 490.899
1332 0 40.1465 11.9562 480 126.819 1254.11 491.083
1333 0 41.2245 11.5465 476 130.298 1253.58 490.674
1334 0 40.1409 11.7835 473 133.844 1254.18 490.279
1335 0 40.1301 12.3847 497 116.451 1253.79 490.783
1336 0 40.1847 12.0444 484 135.494 1253.81 491.483
1337 0 40.2933 11.9375 481 134.366 1253.8 490.264
1338 0 40.257 12.1221 488 139.268 1253.97 490.822
1339 0 40.2508 11.3538 457 137.313 1253.99 490.923
1340 0 40.2149 11.3391 456 135.009 1254.06 490.98
1341 0 40.2242 12.0823 486 129.494 1253.92 491.36
1342 0 40.1107 11.4683 460 133.057 1253.88 491.252
1343 0 39.1191 12.0146 470 132.434 1253.94 491.06
1344 0 41.3502 11.4872 475 125.672 1254.32 490.827
1345 0 37.3287 12.2158 456 134.456 1254.26 491.943
1346 0 38.2024 11.6747 446 136.762 1254.73 491.915
1347 0 38.162 11.8704 453 134.777 1254.32 491.74
1348 0 36.1987 11.9065 431 127.712 1255.18 492.555
1349 0 37.1712 11.5681 430 130.163 1254.69 491.805
1350 0 38.2401 11.0617 423 130.043 1254.86 492.113
1351 0 39.2065 11.7838 462 130.485 1254.26 490.541
1352 0 40.1935 11.4695 461 126.479 1254.31 490.987
1353 0 38.1427 12.2173 466 130.034 1254.28 491.017
1354 0 39.192 11.584 454 120.238 1254.01 491.295
1355 0 40.1497 11.5319 463 130.756 1254.13 491.719
1356 0 39.2282 11.0635 434 127.783 1254.61 492.304
1357 0 39.1315 11.1164 435 121.651 1254.7 492.29
1358 0 40.2658 13.8331 557 110.409 1254.17 488.741
1359 0 43.2108 13.8854 600 114.198 1254.03 488.495
1360 0 43.2493 13.3412 577 116.397 1253.86 488.825
1361 0 41.3237 13.5032 558 112.923 1254.16 488.932
1362 0 41.356 14.0004 579 113.083 1254.84 488.085
1363 0 42.1792 12.4706 526 114.951 1255.46 488.375
1364 0 39.1777 11.7924 462 124.463 1255.05 489.545
1365 0 39.1719 11.8452 464 122.03 1254.34 490.211
1366 0 40.1316 11.6118 466 122.869 1254.59 490.079
1367 0 41.2424 11.4445 472 121.932 1254.29 489.299
1368 0 40.2341 11.6568 469 122.13 1254.24 489.61
1369 0 39.3 12.4936 491 115.212 1253.93 489.697
1370 0 42.1612 13.2112 557 107.592 1253.69 488.892
1371 0 43.2206 14.0905 609 106.315 1253.94 488.053
1372 0 43.2243 13.5803 587 106.256 1254.44 487.448
1373 0 41.2324 13.4603 555 101.787 1254.67 488.142
1374 0 41.009 11.7291 481 110.684 1254.19 489.025
1375 0 38.5052 11.479 442 114.342 1253.26 489.611
1376 0 37.4472 11.9902 449 113.029 1252.67 489.483
1377 0 39.3233 11.5453 454 114.736 1252.86 489.379
1378 0 40.3882 11.0923 448 112.404 1253.08 489.377
1379 0 40.3085 11.0895 447 110.911 1253.15 489.615
1380 0 41.4729 12.9 535 104.933 1253.49 487.621
1381 0 38.3825 12.2191 469 108.932 1252.89 488.644
1382 0 40.2924 11.5406 465 108.258 1253.2 489.114
1383 0 42.3499 11.5703 490 109.159 1253.64 488.549
1384 0 41.4757 11.8383 491 104.041 1253.3 488.758
1385 0 41.3635 12.1121 501 112.826 1254.74 489.214
1386 0 43.0214 11.7384 505 112.17 1255.79 489.652
1387 0 42.1056 12.0649 508 98.2992 1256.15 489.949
1388 0 41.1942 12.259 505 105.838 1256.06 490.121
1389 0 40.0895 12.048 483 108.954 1255.67 490.145
1390 0 42.0619 12.3389 519 105.593 1256.16 490.565
1391 0 41.0537 12.7638 524 106.372 1256.51 489.882
1392 0 41.043 12.1823 500 104.406 1256.12 489.604
1393 0 39.0556 12.7767 499 105.202 1255.8 490.591
1394 0 41.0285 12.5522 515 103.724 1256.09 490.206
1395 0 41.1893 12.042 496 107.161 1254.58 492.038
1396 0 40.155 12.128 487 107.975 1255.09 491.583
1397 0 41.1907 12.1386 500 110.55 1254.78 491.384
1398 0 40.203 11.6907 470 114.004 1255.25 491.121
1399 0 40.1328 11.6114 466 115.185 1254.59 492.071
1400 0 39.2703 11.892 467 116.79 1254.51 491.657
1401 0 39.3158 12.2852 483 115.863 1254.62 490.851
1402 0 38.1894 12.1238 463 111.11 1253.93 492.119
1403 0 41.3516 11.8496 490 127.178 1253.81 492.108
1404 0 39.1614 12.2825 481 123.401 1253.7 491.898
1405 0 39.2419 12.0535 473 119.154 1252.54 492.076
1406 0 39.2784 12.0423 473 120.979 1253.45 491.163
1407 0 41.1775 11.7783 485 123.161 1253.01 492.35
1408 0 39.1662 12.2299 479 123.399 1252.83 493.134
1409 0 39.155 11.8503 464 123.351 1253.44 492.569
1410 0 39.2078 11.6558 457 122.039 1253.28 492.926
1411 0 40.1564 12.2272 491 122.102 1253.52 492.982
1412 0 40.1913 11.5945 466 121.575 1253.98 492.03
1413 0 39.1727 11.9471 468 122.214 1254.1 495.216
1414 0 39.0969 11.9703 468 123.036 1253.95 493.353
1415 0 41.1812 11.6315 479 116.04 1252.89 494.198
1416 0 39.2068 11.8092 463 115.79 1252.25 494.488
1417 0 40.2463 11.9514 481 118.624 1250.99 491.917
1418 0 38.3157 12.2143 468 115.855 1252.35 494.314
1419 0 40.1101 11.8923 477 115.686 1252.3 494.899
1420 0 39.1552 11.9269 467 115.218 1251.71 495.255
1421 0 38.2441 11.9757 458 119.164 1251.96 496.428
1422 0 37.1346 11.8488 440 115.845 1251.87 495.289
1423 0 39.2394 12.0033 471 110.522 1252.32 494.977
1424 0 39.1269 11.7822 461 120.672 1252.77 496.306
1425 0 37.2099 12.1742 453 112.362 1252.02 495.901
1426 0 39.359 11.7381 462 116.29 1251.61 495.173
1427 0 39.1212 11.6305 455 111.127 1251.29 495.288
1428 0 39.1638 11.6179 455 117.552 1251.79 494.91
1429 0 39.2004 11.8366 464 108.399 1250.82 494.836
1430 0 38.2204 11.8 451 118.348 1251.24 494.843
1431 0 39.2861 11.6835 459 115.434 1251.27 494.898
1432 0 39.2705 11.5608 454 117.126 1250.94 496.297
1433 0 38.2526 12.156 465 109.688 1250.65 496.488
1434 0 38.2869 11.9362 457 113.926 1250.25 496.306
1435 0 38.2596 11.5265 441 116.41 1250.42 496.703
1436 0 38.1535 12.109 462 113.887 1250.6 496.006
1437 0 37.2386 12.5139 466 120.624 1250.73 496.043
1438 0 39.1616 11.2866 442 121.952 1250.21 497.269
1439 0 38.295 11.6464 446 120.022 1250.41 497.132
1440 0 39.1602 12.2063 478 117.013 1250.37 497.573
1441 0 37.0668 12.2482 454 120.097 1250.05 496.857
1442 0 37.2164 12.2258 455 116.198 1250.96 498.213
1443 0 38.2056 12.0925 462 123.106 1250.42 498.275
1444 0 38.2347 12.5802 481 117.322 1250.24 497.015
1445 0 38.2241 12.636 483 119.472 1250.03 499.311
1446 0 40.1734 11.8486 476 118.462 1250.41 497.576
1447 0 39.294 11.8848 467 121.475 1251.02 496.221
1448 0 39.528 11.5867 458 121.146 1250.07 496.214
1449 0 40.2302 11.7822 474 121.688 1249.96 497.032
1450 0 39.3351 12.4316 489 119.19 1250.18 496.356
1451 0 39.058 11.803 461 120.603 1250.6 495.336
1452 0 40.1612 12.1759 489 111.276 1250.62 496.397
1453 0 38.1644 12.0793 461 112.067 1250.8 496.137
1454 0 37.0974 12.6963 471 118.429 1250.59 495.752
1455 0 41.2996 11.4045 471 119.569 1250.84 494.817
1456 0 39.2029 11.8869 466 115.285 1250.62 495.989
1457 0 39.145 11.7512 460 116.48 1250.73 495.676
1458 0 39.2018 12.2953 482 114.162 1250.82 494.954
1459 0 40.0873 11.9489 479 112.411 1251.27 495.253
1460 0 40.3225 11.3832 459 113.717 1251.54 495.56
1461 0 39.1571 11.9774 469 113.446 1251.2 495.015
1462 0 40.1593 12.2263 491 109.098 1252.01 495.326
1463 0 41.132 11.8885 489 114.112 1251.52 494.757
1464 0 41.1788 11.6565 480 100.462 1251.71 494.538
1465 0 40.1934 11.8179 475 109.68 1251.69 494.554
1466 0 40.3257 11.9031 480 116.115 1251.65 494.294
1467 0 40.1583 11.5792 465 112.735 1252.74 494.845
1468 0 39.2104 11.3235 444 115.912 1252.49 494.662
1469 0 39.1776 10.312 404 117.624 1252.63 496.134
1470 0 37.1533 10.7662 400 113.682 1252.68 495.682
1471 0 37.1256 10.9358 406 119.03 1252.86 495.197
1472 0 37.0918 10.5145 390 119.646 1253.25 494.872
1473 0 36.2348 10.9287 396 118.558 1252.96 494.836
1474 0 37.1695 10.8422 403 114.109 1253.53 495.295
1475 0 36.0794 10.9203 394 118.508 1253.24 494.759
1476 0 35.1741 10.8318 381 115.449 1253.76 494.937
1477 0 35.2123 11.1325 392 114.367 1253.19 494.224
1478 0 38.2004 10.759 411 113.355 1253.46 493.667
1479 1 54.7425 8.36644 458 117.836 1253.87 488.769
1480 0 54.2792 8.4747 460 112.993 1253.93 488.589
1481 0 51.3212 8.16427 419 122.819 1254.29 491.348
1482 0 53.4392 8.55178 457 122.348 1254.61 489.179
1483 0 54.7108 7.98746 437 117.215 1254.41 490.034
1484 0 53.635 8.14766 437 120.913 1254.58 490.128
1485 0 55.5121 8.37656 465 121.088 1254.77 488.265
1486 0 56.7331 8.37254 475 116.922 1254.24 487.867
1487 0 56.7247 7.63336 433 121.718 1254.03 490.582
1488 0 54.3023 8.04755 437 119.11 1254.24 490.428
1489 0 53.3303 7.76294 414 121.64 1254.1 490.029
1490 0 56.4675 8.1817 462 118.019 1253.55 490.238
1491 0 54.8804 8.63696 474 119.772 1253.88 489.217
1492 0 57.3149 8.6365 495 118.37 1253.76 488.764
1493 0 54.4158 7.7551 422 120.23 1253.32 490.455
1494 0 56.2351 8.58895 483 115.903 1253.47 488.373
1495 1 38.0736 10.8474 413 111.404 1252.32 495.317
1496 0 37.0447 10.8517 402 114.945 1252.66 494.754
1497 0 37.1728 10.9758 408 110.213 1252.65 494.453
1498 0 38.2193 10.9107 417 113.827 1252.71 495.07
1499 0 38.1473 10.9313 417 105.554 1252.57 495
1500 0 37.1114 11.964 444 107.755 1252.28 494.473
1501 0 39.0734 11.1329 435 102.444 1250.86 492.915
1502 0 37.1509 10.8476 403 107.819 1252.33 493.963
1503 0 39.0723 11.1588 436 110.718 1251.28 494.119
1504 0 39.0599 11.1879 437 107.121 1251.29 495.119
1505 0 39.0599 11.1879 437 134.844 1251.29 495.119
1506 0 39.0663 11.2885 441 106.943 1250.92 494.857
1507 0 38.1834 10.5281 402 110.587 1252.16 496.005
1508 0 38.1836 11.3137 432 107.009 1252.58 495.877
1509 0 38.1574 10.9546 418 104.139 1252.48 496.471
1510 0 38.2008 10.7328 410 109.154 1251.92 496.029
1511 0 37.2874 10.9152 407 107.199 1252 496.28
1512 0 37.193 11.1043 413 110.898 1251.69 496.351
1513 0 37.3624 10.358 387 109.116 1251.24 496.14
1514 0 37.1281 10.5311 391 106.982 1251.14 496.714
1515 0 37.0929 10.9455 406 108.426 1251.43 496.704
1516 0 37.1334 11.149 414 106.879 1251.26 496.618
1517 0 36.2213 10.8776 394 111.132 1251.28 496.289
1518 0 38.1868 10.2391 391 113.476 1250.98 496.57
1519 0 37.1649 10.9243 406 109.456 1250.57 497.145
1520 0 40.2689 11.2742 454 107.304 1250.74 496.557
1521 0 39.191 11.2271 440 109.3 1250.89 496.516
1522 0 39.1668 10.3149 404 105.27 1250.4 496.384
1523 0 38.1175 10.6775 407 107.545 1250.15 498.047
1524 0 39.0158 10.6111 414 104.838 1252 497.667
1525 0 37.0154 10.8333 401 107.601 1252.22 497.793
1526 0 38.0265 10.4401 397 106.023 1252.04 498.091
1527 0 37.0298 10.6131 393 112.239 1251.81 498.242
1528 0 39.0481 10.7816 421 108.328 1252.14 497.366
1529 0 37.0525 11.1194 412 110.18 1251.68 497.587
1530 0 38.0732 10.7425 409 112.768 1252.26 498.599
1531 0 37.0108 10.4294 386 112.78 1252.65 498.259
1532 0 38.0133 10.6015 403 113.938 1251.94 498.025
1533 0 38.023 10.1781 387 114.429 1252.27 499.08
1534 0 39.0239 10.8907 425 110.468 1252.08 498.711
1535 0 39.0961 9.82195 384 111.927 1251.84 498.826
1536 0 37.034 10.5849 392 115.656 1251.73 498.592
1537 0 37.0281 10.3165 382 111.497 1252.04 498.243
1538 0 36.0145 10.6901 385 116.79 1252.69 498.231
1539 0 36.0052 11.5261 415 110.154 1252.55 497.002
1540 0 37.0198 10.805 400 108.872 1252.79 498.362
1541 0 37.0297 10.6131 393 110.644 1252.52 498.003
1542 0 36.0662 10.7857 389 104.902 1252.91 497.864
1543 0 37.0196 10.4269 386 113.567 1252.98 498.047
1544 0 38.1098 10.1549 387 113.819 1252.88 497.305
1545 0 36.0516 10.7346 387 110.217 1253.28 497.69
1546 0 38.1031 10.6028 404 109.188 1253.03 498.537
1547 0 36.0295 10.7689 388 111.825 1252.95 498.68
1548 0 37.0152 10.5092 389 112.774 1253.06 498.625
1549 0 38.0522 10.8798 414 108.833 1252.89 496.604
1550 0 37.0609 10.3613 384 113.849 1252.84 497.521
1551 0 36.0207 10.9382 394 110.363 1252.8 497.916
1552 0 37.0107 10.4564 387 113.491 1253.23 497.915
1553 0 39.0415 10.348 404 113.577 1253.23 496.317
1554 0 38.0157 10.6009 403 108.541 1253.22 497.323
1555 0 36.0226 10.882 392 57.2908 1253.05 496.857
1556 0 37.0142 10.5365 390 117.092 1253.12 496.58
1557 0 38.0296 10.6496 405 109.212 1253.7 497.269
1558 0 38.0339 11.2531 428 110.418 1253.56 495.757
1559 0 37.0218 10.8585 402 105.147 1253.55 495.769
1560 0 37.0206 10.9399 405 107.032 1253.43 496.615
1561 0 41.0192 11.6287 477 103.47 1254.06 494.182
1562 0 41.0546 13.1289 539 94.9759 1254.53 492.137
1563 0 40.0533 12.5583 503 98.839 1254.29 493.907
1564 0 39.0331 10.7857 421 107.594 1254.2 495.57
1565 0 38.0426 10.7511 409 104.364 1253.93 495.489
1566 0 38.0268 11.2552 428 104.64 1254.7 496.647
1567 0 37.0409 11.3118 419 103.833 1254.52 494.683
1568 0 39.0176 10.2005 398 108.317 1254.35 495.442
1569 0 38.0323 10.6751 406 108.532 1254.42 494.84
1570 0 38.0411 10.7252 408 105.814 1254.5 493.733
1571 0 38.0312 10.9647 417 106.161 1254.23 494.818
1572 0 38.0427 10.4619 398 105.812 1254.38 494.915
1573 0 39.1896 10.1302 397 110.773 1254.27 494.264
1574 0 38.0245 10.5984 403 110.112 1254.37 494.563
1575 0 38.0742 10.6109 404 107.23 1254.68 493.718
1576 0 38.0584 10.6415 405 107.835 1254.68 493.919
1577 0 38.0322 11.2536 428 105.946 1254.9 493.895
1578 0 36.0755 10.7552 388 105.335 1254.64 493.18
1579 0 37.0323 10.8014 400 105.992 1254.98 492.26
1580 0 38.0616 10.3254 393 102.628 1255.14 493.868
1581 0 36.0097 10.7193 386 109.119 1254.9 492.479
1582 0 39.0486 10.0388 392 106.01 1254.96 493.89
1583 0 38.0168 10.0482 382 107.78 1255.06 493.956
1584 0 37.0219 9.80502 363 103.532 1255.12 494.328
