index division length width area intensity CMx CMy
0 0 50.0834 14.3361 718 172.797 1099.02 270.267
1 0 53.2146 13.9999 745 176.132 1098.62 271.518
2 0 54.0899 14.6978 795 170.765 1098.22 271.011
3 0 55.0791 14.9603 824 171.265 1097.78 271.593
4 0 58.1154 14.6433 851 170.29 1097.75 272.39
5 0 61.0816 14.4397 882 170.854 1098 272.862
6 0 62.0607 14.8403 921 168.336 1096.6 273.642
7 0 66.0547 14.3517 948 170.312 1096.46 274.177
8 0 67.1539 14.3402 963 167.136 1096.19 274.909
9 0 69.0811 14.7508 1019 170.235 1095.71 275.952
10 0 72.058 14.4189 1039 167.574 1095.48 277.166
11 0 72.1716 15.186 1096 161.87 1095.71 278.65
12 0 76.0885 15.0351 1144 163.874 1096.28 279.698
13 0 80.0943 14.6203 1171 168.735 1097.41 279.249
14 0 84.1286 14.3114 1204 167.311 1097.93 279.782
15 0 86.1203 14.3172 1233 168.15 1098.66 279.212
16 0 90.1876 14.6694 1323 166.385 1100.11 280
17 1 43.0358 12.5012 538 156.922 1100.93 306.507
18 0 46.0501 13.0076 599 155.329 1101.78 308.18
19 0 46.1188 13.5736 626 163.088 1102.4 310.415
20 0 49.1251 13.4555 661 160.61 1102.75 311.15
21 0 50.1015 13.313 667 157.163 1103.3 312.171
22 0 49.069 14.3064 702 154.96 1104.01 315.281
23 0 51.1125 14.3409 733 156.876 1104.54 317.044
24 0 55.0233 13.7396 756 156.86 1104.46 320.841
25 0 57.0171 13.7152 782 154.22 1104.82 321.811
26 0 59.0273 14.0105 827 152.453 1105.23 323.605
27 0 60.0557 14.2201 854 147.604 1104.97 324.315
28 0 63.0825 14.1878 895 154.06 1105.73 326.6
29 0 64.0561 13.9097 891 148.724 1105.63 327.894
30 0 67.0722 14.1937 952 154.671 1105.42 329.348
31 0 68.0707 14.2352 969 154.815 1105.03 331.506
32 0 68.2674 14.3114 977 11.2692 1105.07 332.845
33 0 73.1029 14.3496 1049 152.639 1104.4 334.826
34 0 74.0654 14.4467 1070 156.833 1104.19 336.814
35 0 77.0755 14.3236 1104 146.312 1103.96 339.482
36 0 81.0454 14.5597 1180 150.479 1103.21 341.538
37 0 82.1033 14.6888 1206 147.3 1102.25 343.832
38 0 85.0526 14.6145 1243 151.599 1102.08 345.455
39 0 88.0611 14.876 1310 150.339 1101.78 346.96
40 0 93.054 14.8194 1379 148.533 1101.22 349.724
41 0 96.2195 14.5916 1404 137.109 1101.62 352.27
42 0 100.221 14.5478 1458 147.995 1101.58 355.184
43 1 56.0984 13.1911 740 109.397 1101.17 382.169
44 0 58.0832 13.8766 806 146.469 1100.2 386.339
45 0 59.1344 14.2218 841 151.986 1099.91 391.259
46 0 63.223 13.7134 867 147.802 1100.09 395.285
47 0 64.1118 14.5059 930 150.434 1099.71 400.217
48 0 68.142 13.692 933 151.048 1099.29 404.736
49 0 70.2432 13.6383 958 143.377 1098.74 407.972
50 0 72.1025 14.0217 1011 143.379 1098.96 414.109
51 0 75.2377 14.2482 1072 137.368 1099 418.221
52 0 78.2586 14.0432 1099 144.978 1098.85 422.539
53 0 78.1699 14.3278 1120 145.616 1099.27 427.811
54 0 84.1814 13.7916 1161 152.102 1099.34 433.399
55 0 88.2153 13.5804 1198 140.476 1099.04 438.746
56 0 91.1704 13.239 1207 149.197 1098.75 445.461
57 0 94.2835 13.714 1293 148.236 1098.9 451.442
58 1 47.1673 11.6606 550 140.251 1098.45 476.624
59 0 48.0957 12.2464 589 143.825 1098.84 475.514
60 0 49.1513 12.1665 598 135.871 1098.65 475.035
61 0 52.1469 12.1004 631 132.255 1099.06 473.586
62 0 54.1332 12.303 666 134.004 1099.66 472.596
63 0 54.1981 11.9008 645 134.929 1100.01 471.865
64 0 58.2102 12.4033 722 132.492 1100.19 470.633
65 0 58.3124 12.313 718 136.124 1101.21 470.117
66 0 61.1934 12.2562 750 134.521 1101.81 468.524
67 0 63.3566 12.2008 773 138.483 1101.23 467.114
68 0 63.2218 12.6855 802 129.315 1102 465.914
69 0 68.1802 12.4376 848 136.367 1101.78 465.85
70 0 70.3019 12.3752 870 134.693 1101.51 464.523
71 0 70.5015 12.6097 889 133.039 1101.49 463.82
72 0 74.3792 12.7858 951 134.938 1101.91 461.402
73 0 76.4548 12.8834 985 135.208 1101.5 459.82
74 0 79.4929 13.02 1035 141.635 1101.31 458.971
75 0 82.6771 13.1596 1088 136.618 1101.1 456.533
76 0 86.3537 13.0741 1129 140.552 1100.77 455.004
77 0 88.5242 13.1151 1161 141.636 1100.09 454.485
78 0 91.3812 12.8035 1170 146.891 1099.97 453.74
79 0 94.372 12.7262 1201 141.653 1099.9 451.786
80 0 98.2588 12.9963 1277 146.794 1099.85 449.929
81 1 52.2659 11.5946 606 141.294 1099.28 472.53
82 0 55.1841 11.6881 645 139.122 1099.42 471.73
83 0 57.0916 11.5779 661 145.089 1099.39 471.138
84 0 60.1074 12.1948 733 139.044 1098.76 470.209
85 0 60.1423 12.5203 753 143.811 1098.84 468.774
86 0 62.1367 12.8266 797 142.69 1098.73 467.888
87 0 63.1527 12.7469 805 139.125 1099.1 467.425
88 0 66.3274 12.8906 855 139.875 1099.03 466.208
89 0 69.2839 12.8601 891 138.808 1098.65 465.02
90 0 69.4477 13.1034 910 137.176 1099.13 463.423
91 0 72.2864 13.2528 958 141.533 1099.38 462.414
92 0 75.3255 13.5811 1023 141.671 1099.31 460.076
93 0 77.4785 12.8294 994 140.883 1099.63 458.069
94 0 81.4126 13.5114 1100 138.395 1099.09 455.876
95 0 84.6732 13.499 1143 136.463 1098.77 453.698
96 0 85.6384 13.2651 1136 138.786 1098.61 453.474
97 0 88.4416 13.6813 1210 138.656 1098.74 451.724
98 0 92.3124 13.2593 1224 144.516 1098.61 451.223
99 0 92.5951 13.4888 1249 133.892 1098.86 449.496
100 0 97.447 13.7305 1338 138.383 1098.72 447.628
101 0 101.504 13.7433 1395 137.827 1099.01 447.713
102 0 104.446 13.2125 1380 134.185 1098.91 446.858
103 0 107.339 13.6111 1461 129.044 1099.75 443.474
104 0 107.327 13.538 1453 134.995 1099.91 439.61
105 0 112.288 13.2962 1493 141.034 1099.98 436.45
106 0 117.513 13.2411 1556 136.517 1099.84 434.583
107 0 121.447 13.4544 1634 137.365 1099.62 433.46
108 1 61.2596 10.8554 665 132.517 1099.52 463.424
109 0 67.1412 11.3194 760 140.188 1098.96 465.349
110 0 69.0745 12.016 830 133.705 1098.93 464.881
111 0 70.1698 12.427 872 132.575 1099.43 463.456
112 0 72.103 12.496 901 132.842 1098.86 462.111
113 0 73.085 12.3281 901 133.777 1098.74 460.814
114 0 77.2299 12.3916 957 134.095 1098.46 458.865
115 0 82.1987 12.8104 1053 124.061 1098.52 457.258
116 0 83.3164 12.7586 1063 136.418 1099.4 455.681
117 0 86.225 12.595 1086 137.487 1098.82 455.556
118 0 88.2278 12.7738 1127 136.286 1098.98 453.272
119 0 91.1614 13.0209 1187 135.023 1099.42 451.792
120 0 94.2418 12.6483 1192 137.911 1099.4 450.958
121 0 97.3783 12.8673 1253 133.185 1099.67 449.91
122 0 100.234 13.0395 1307 132.166 1099.11 448.585
123 0 102.261 13.4069 1371 136.672 1100.09 446.042
124 0 105.275 12.814 1349 132.171 1099.55 445.699
125 0 107.44 13.4215 1442 131.034 1099.81 443.059
126 0 112.388 12.9017 1450 129.074 1099.51 441.05
127 1 59.0963 10.6606 630 132.313 1100.95 467.211
128 0 61.073 11.5108 703 131.92 1100.73 464.888
129 0 63.1209 11.5334 728 131.907 1099.47 462.49
130 0 66.1872 11.9207 789 128.237 1099.19 461.861
131 0 69.307 12.0046 832 132.655 1098.52 463.754
132 0 71.136 12.1176 862 129.263 1099.59 462.524
133 0 73.1473 12.5364 917 128.029 1099.77 460.535
134 0 77.1354 12.3419 952 130.979 1100.27 460.175
135 0 78.1719 12.2167 955 128.837 1100.23 457.222
136 0 80.1817 12.3968 994 135.173 1100.3 456.605
137 0 80.1817 12.3968 994 151.008 1100.3 456.605
138 0 84.179 12.6041 1061 135.815 1100.74 452.991
139 0 85.156 12.9175 1100 130.923 1100.65 452.463
140 0 89.2339 13.0892 1168 130.025 1100.66 449.693
141 0 93.1162 12.6186 1175 131.587 1101.01 447.843
142 0 97.2969 12.5492 1221 131.985 1101.38 448.301
143 0 99.2255 12.0332 1194 132.901 1101.96 447.868
144 1 54.1052 10.1654 550 135.164 1102.83 469.551
145 0 53.1355 11.2166 596 132.487 1102.42 467.878
146 0 56.0828 11.4474 642 128.773 1103.06 466.526
147 0 58.1585 11.2795 656 130.146 1102.01 465.928
148 0 61.0571 11.0552 675 126.387 1103.3 466.255
149 0 59.1345 11.6007 686 129.51 1103.15 464.398
150 0 63.3099 11.8781 752 129.02 1103.36 462.827
151 0 65.2012 12.2851 801 130.325 1103.72 461.63
152 0 68.1211 11.92 812 126.659 1103.86 461.261
153 0 70.1716 12.1132 850 131.193 1103.44 458.594
154 0 72.2183 12.1991 881 127.435 1103.63 457.936
155 0 73.2244 12.5641 920 131.874 1103.95 456.161
156 0 74.192 12.7237 944 127.088 1103.95 455.333
157 0 78.1776 12.9449 1012 123.347 1104.75 453.336
158 0 81.1931 13.0676 1061 125.995 1104.85 451.314
159 0 82.1602 12.1105 995 129.477 1105.22 449.58
160 0 86.155 12.7561 1099 131.208 1105.61 448.565
161 0 89.1421 12.7437 1136 122.261 1105.27 446.667
162 1 45.1306 9.48359 428 132.306 1106.21 468.32
163 0 49.0961 10.1026 496 129.363 1106.65 467.873
164 0 49.1509 10.6 521 131.937 1106.5 467.083
165 0 52.1245 11.2039 584 129.154 1106.24 465.985
166 0 52.046 10.5484 549 122.929 1104.92 463.277
167 0 56.0685 11.3076 634 127.992 1105.7 464.033
168 0 55.1957 12.0118 663 121.765 1105.98 464.062
169 0 56.4183 11.6806 659 123.448 1106.08 462.376
170 0 57.1918 12.3444 706 125.11 1106.07 461.007
171 0 61.4381 12.0121 738 119.614 1106.27 460.423
172 0 62.308 12.0691 752 122.267 1105.93 459.319
173 0 64.199 12.5547 806 122.083 1106.01 457.829
174 0 67.2847 12.6923 854 112.888 1106.09 457.04
175 0 69.2345 12.4216 860 126.952 1105.6 456.963
176 0 70.37 13.0453 918 123.963 1105.97 455.2
177 0 74.2928 13.1103 974 122.031 1105.33 453.231
178 0 76.2369 12.9334 986 125.075 1106.09 452.967
179 0 77.2528 13.0351 1007 126.624 1106.63 451.657
180 0 81.4004 13.0712 1064 133.394 1106.7 449.755
181 0 83.5728 12.9707 1084 130.78 1106.89 448.584
182 0 87.4429 12.7283 1113 132.812 1107.39 445.813
183 0 89.7506 12.7019 1140 134.296 1107.65 444.301
184 1 49.2875 11.0373 544 132.256 1108.44 465.2
185 0 50.0369 11.3716 569 133.96 1106.55 463.808
186 0 52.0768 12.2703 639 134.587 1106.91 463.507
187 0 54.1273 12.0087 650 129.089 1107.07 462.46
188 0 54.4281 12.1445 661 135.672 1107.22 462.474
189 0 56.1742 11.945 671 140.343 1107.42 461.882
190 0 57.1438 11.9523 683 141.814 1107.22 461.82
191 0 58.2749 11.9949 699 142.624 1107.96 460.788
192 0 60.2164 12.4053 747 140.04 1107.73 458.687
193 0 62.2483 12.4983 778 140.843 1107.69 457.955
194 0 64.2654 11.7793 757 138.76 1108.16 457.779
195 0 66.1242 12.0833 799 142.154 1107.51 457.733
196 0 69.1654 12.1303 839 141.312 1107.44 455.729
197 0 70.1808 11.9833 841 142.445 1107.33 454.99
198 0 72.1589 12.1676 878 131.425 1106.91 453.772
199 0 73.3176 12.0708 885 142.794 1107.61 452.477
200 0 76.3196 12.6311 964 137.156 1107.32 451.811
201 0 78.3953 12.1181 950 145.255 1107.58 451.213
202 0 84.2856 12.1492 1024 145.079 1107.15 448.97
203 1 45.0325 10.2815 463 142.328 1106.13 468.259
204 0 46.1155 10.6255 490 133.861 1103.91 467.345
205 0 47.0468 11.1591 525 130.941 1104.32 466.373
206 0 49.0381 11.5828 568 131.143 1104.58 465.387
207 0 50.2113 12.0292 604 134.649 1104.55 464.95
208 0 52.2129 12.0277 628 136.064 1104.87 465.038
209 0 53.1154 11.8233 628 136.365 1104.7 463.661
210 0 55.1909 12.2665 677 142.936 1104.75 463.099
211 0 57.0733 12.4577 711 143.378 1105.19 462.384
212 0 58.1164 12.5954 732 141.926 1104.78 460.776
213 0 58.1214 12.6115 733 143.502 1105.01 460.434
214 0 59.2306 12.6455 749 135.376 1104.61 460.067
215 0 61.1213 12.7452 779 139.656 1104.46 459.922
216 0 61.0921 13.0622 798 141.766 1104.66 458.766
217 0 64.0668 13.1425 842 134.163 1104.28 458.629
218 0 67.1457 12.7037 853 139.825 1104.24 457.948
219 0 69.1766 13.0102 900 137.933 1103.9 457.11
220 0 70.0659 13.63 955 137.238 1103.82 455.44
221 0 72.1224 12.9086 931 137.668 1103.79 454.716
222 0 75.2022 12.5129 941 135.055 1103.93 453.899
223 0 78.117 12.9293 1010 139.856 1103.72 452.668
224 0 77.0943 13.2824 1024 139.012 1103.85 451.68
225 0 83.1247 13.161 1094 133.669 1104.04 450.715
226 0 84.1586 13.4033 1128 136.42 1104.05 448.916
227 1 47.0514 10.2229 481 136.308 1105.25 468.929
228 0 48.0787 11.1276 535 133.374 1105.82 467.669
229 0 50.0438 10.8505 543 134.383 1104.89 467.529
230 0 52.1636 11.4831 599 131.955 1105.19 466.831
231 0 53.1073 12.2205 649 134.743 1104.67 464.619
232 0 54.1246 11.9354 646 130.494 1104.7 465.404
233 0 57.0938 12.1029 691 129.524 1104.92 464.15
234 0 58.1174 12.3543 718 129.773 1104.51 463.287
235 0 59.1571 12.4583 737 127.986 1104.61 462.782
236 0 61.1372 12.5783 769 124.518 1104.83 461.016
237 0 63.1138 12.7072 802 115.542 1104.34 460.262
238 0 64.0811 12.6558 811 126.127 1104.37 459.591
239 0 65.061 13.0647 850 128.796 1104.06 459.588
240 0 67.065 13.0321 874 120.019 1103.46 458.416
241 0 70.2037 12.9196 907 124.674 1103.17 457.396
242 0 71.1394 13.1713 937 127.081 1103.23 456.014
243 0 73.1191 13.4985 987 118.203 1103.1 454.901
244 0 77.1516 13.1041 1011 120.347 1103.59 454.166
245 0 79.1564 13.2775 1051 123.299 1103.62 452.359
246 0 81.1546 13.8747 1126 119.725 1103.51 451.417
247 0 84.2316 13.2492 1116 120.06 1104.31 450.691
248 0 86.1443 13.3497 1150 123.261 1104.19 450.27
249 0 89.1855 13.2196 1179 126.15 1104.04 448.575
250 0 92.1298 13.2313 1219 125.621 1104.28 446.269
251 1 49.0708 11.6159 570 120.935 1103.72 465.532
252 0 52.1239 12.2592 639 125.759 1105.22 465.657
253 0 52.0392 12.0871 629 117.882 1103.42 466.033
254 0 53.0612 12.985 689 118.962 1104.29 466.057
255 0 53.0289 12.5403 665 121.293 1104.94 464.471
256 0 55.0354 12.7554 702 122.501 1104.64 464.239
257 0 55.1192 12.9174 712 123.136 1104.88 462.935
258 0 59.1442 12.7485 754 116.257 1105.56 461.549
259 0 61.1102 12.6493 773 126.921 1105.85 461.338
260 0 62.0871 12.7563 792 115.826 1105.85 459.667
261 0 64.1536 13.1403 843 120.758 1106.09 459.097
262 0 65.1286 13.2507 863 122.194 1106.28 457.976
263 0 66.1125 13.2653 877 125.432 1106.4 458.047
264 0 69.147 13.3484 923 125.979 1106.37 456.199
265 0 71.1812 13.3322 949 127.7 1106.48 455.566
266 0 72.2822 13.5165 977 132.031 1106.8 454.257
267 0 77.1775 12.7628 985 136.31 1107.09 453.141
268 0 77.2831 13.4829 1042 138.916 1106.88 451.849
269 0 81.3297 13.6727 1112 137.025 1107.13 450.702
270 0 83.1896 13.5233 1125 137.605 1107.26 449.303
271 0 85.2502 13.8651 1182 142.409 1107.49 447.259
272 0 90.1906 13.5491 1222 133.364 1107.71 445.451
273 0 91.1672 13.6233 1242 141.89 1107.71 443.841
274 0 93.1842 13.9187 1297 143.857 1107.1 442.872
275 0 97.2288 13.6996 1332 146.739 1106.81 441.092
276 0 99.3194 13.6127 1352 138.801 1106.83 440.609
277 1 53.0917 12.4502 661 146.611 1106.68 464.585
278 0 56.1269 12.4717 700 151.917 1106.68 462.827
279 0 57.1774 12.8547 735 150.291 1107.13 462.516
280 0 60.2242 12.7689 769 151.571 1107.34 461.506
281 0 60.1599 13.1649 792 155.045 1107.42 460.143
282 0 64.2042 12.7718 820 151.918 1107.23 458.773
283 0 65.1195 12.7304 829 157.724 1107.46 458.312
284 0 68.1069 12.5538 855 156.88 1107.61 456.547
285 0 69.363 12.7878 887 159.142 1107.5 455.733
286 0 72.3406 13.16 952 152.514 1107.71 455.082
287 0 74.2382 13.4432 998 156.111 1107.86 454.153
288 0 75.4002 13.2758 1001 152.201 1107.49 452.624
289 0 79.3705 13.5063 1072 157.788 1107.83 451.942
290 0 80.3136 13.5095 1085 154.9 1107.46 450.934
291 0 82.298 13.6212 1121 151.748 1107.13 448.347
292 0 85.3635 13.6475 1165 157.857 1107.13 447.193
293 0 88.5742 13.7625 1219 160.776 1106.89 445.313
294 0 91.3933 13.7209 1254 149.765 1106.78 444.688
295 0 93.3982 13.9831 1306 160.064 1106.37 442.819
296 0 98.4379 13.7955 1358 160.152 1106.51 440.847
297 0 100.42 13.6825 1374 159.643 1106.41 440.045
298 0 102.4 14.2676 1461 160.513 1105.57 437.88
299 0 105.353 14.3138 1508 160.182 1106.13 436.574
300 0 107.361 13.9157 1494 161.949 1105.59 433.571
301 0 114.423 14.0444 1607 163.194 1105.57 433.564
302 0 117.321 14.3111 1679 164.52 1105.8 430.163
303 0 122.464 14.1184 1729 155.832 1105.5 428.132
304 0 126.368 14.1966 1794 165.242 1105.48 424.779
305 0 129.423 14.1474 1831 162.559 1105.69 422.413
306 1 68.1263 12.3741 843 161.208 1105.95 454.8
307 0 71.1988 12.5845 896 160.133 1105.78 452.133
308 0 74.1192 12.7497 945 156.326 1106.45 451.646
309 0 75.1262 13.0713 982 151.913 1106 450.311
310 0 77.1483 13.4287 1036 158.238 1106.09 449.452
311 0 80.1663 13.0728 1048 162.715 1105.89 447.743
312 0 82.3006 13.3535 1099 161.913 1105.83 446.046
313 0 84.2119 13.3235 1122 159.814 1105.49 445.502
314 0 87.2683 13.1892 1151 158.734 1105.49 444.579
315 0 90.2478 13.33 1203 161.512 1105.54 443.645
316 0 93.3578 13.4857 1259 163.624 1104.8 441.384
317 0 95.4606 13.5972 1298 160.066 1104.6 440.508
318 0 99.2694 13.8008 1370 158.45 1104.87 438.734
319 0 102.282 13.7169 1403 158.907 1104.82 436.944
320 0 105.357 13.7722 1451 164.367 1104.65 436.23
321 0 109.328 13.5465 1481 157.976 1104.83 435.625
322 0 110.338 13.6037 1501 160.813 1104.7 434.201
323 0 115.375 13.7551 1587 159.684 1104.6 431.848
324 0 120.28 13.7928 1659 159.661 1104.76 428.632
325 1 63.1958 11.8521 749 157.599 1104.69 457.515
326 0 66.1033 12.3141 814 157.316 1105.04 456.751
327 0 67.1462 12.5994 846 150.468 1104.51 456.781
328 0 69.1012 12.6771 876 156.284 1104.46 455.814
329 0 73.1505 12.3581 904 153.144 1104.43 454.733
330 0 72.2029 13.1712 951 146.967 1104.86 453.476
331 0 77.1006 12.7107 980 150.528 1105.67 451.4
332 0 81.1632 12.4934 1014 153.04 1105.26 449.656
333 0 82.1232 13.1266 1078 149.073 1105.03 448.084
334 0 86.1882 12.4495 1073 151.255 1105.21 446.962
335 0 87.1539 12.6328 1101 150.888 1105.27 444.591
336 0 93.1527 12.925 1204 149.321 1104.63 443.326
337 0 93.1462 12.7971 1192 151.535 1104.11 442.269
338 0 98.1736 12.7733 1254 146.729 1104.28 440.188
339 1 53.1288 9.90047 526 141.506 1103.68 464.933
340 0 55.2019 10.7062 591 136.937 1104.34 462.932
341 0 57.2932 11.0484 633 134.36 1104.48 462.04
342 0 59.0616 11.0732 654 138.514 1105.8 462.408
343 0 59.1028 11.7253 693 129.587 1104.93 460.782
344 0 63.1712 11.2235 709 133.951 1105.48 461.113
345 0 64.2222 11.3045 726 136.894 1106.07 458.647
346 0 65.0958 11.6751 760 133.487 1106.12 457.574
347 0 70.2009 11.8659 833 136.537 1105.52 455.627
348 0 70.2647 11.9121 837 133.257 1104.91 456.045
349 0 74.248 12.0946 898 132.431 1104.48 453.776
350 0 76.1482 11.9372 909 133.375 1104.48 453.536
351 0 78.204 11.5851 906 136.008 1104.17 451.671
352 0 81.2655 12.1331 986 131.716 1103.72 450.69
353 1 42.0511 9.48845 399 132.496 1104.11 471.368
354 0 46.033 10.058 463 133.799 1104.61 469.268
355 0 46.1773 10.2215 472 132.244 1102.8 469.867
356 0 49.1986 10.1832 501 130.012 1102.92 468.309
357 0 49.0839 11.1849 549 127.587 1103.6 468.102
358 0 51.0848 11.0405 564 126.222 1102.5 467.427
359 0 51.1163 11.7771 602 129.565 1103.81 466.748
360 0 53.0644 10.9678 582 123.254 1105.36 466.479
361 0 53.0902 11.0002 584 124.034 1105.57 465.748
362 0 54.0323 11.4376 618 124.524 1106.48 465.322
363 0 57.0875 11.2459 642 127.525 1105.94 464.822
364 0 58.0555 11.644 676 124.698 1105.91 462.611
365 0 62.1389 11.0881 689 124.433 1105.96 461.965
366 0 62.2394 11.2951 703 122.532 1105.55 462.125
367 0 63.2888 11.5344 730 127.186 1105.22 460.879
368 0 64.2398 11.8307 760 129.374 1105.56 460.488
369 0 67.2414 11.8826 799 128.023 1104.6 458.13
370 0 70.1678 11.9998 842 125.321 1104.69 456.601
371 0 73.1982 12.0495 882 124.422 1105.14 455.845
372 0 75.1301 11.9925 901 127.405 1105.24 454.926
373 0 76.1711 12.1831 928 126.01 1105.03 454.033
374 0 78.2148 12.2611 959 132.331 1105.85 452.145
375 0 81.1901 12.0828 981 133.996 1105.59 451.65
376 0 82.314 12.6467 1041 133.272 1105.55 449.864
377 0 88.2837 12.3919 1094 126.995 1105.2 448.872
378 0 89.1794 12.3683 1103 134.654 1105.15 447.075
379 0 94.2894 12.5359 1182 133.769 1105.75 445.004
380 0 97.3004 13.0421 1269 130.593 1105.84 442.196
381 0 102.363 13.0321 1334 129.725 1105.78 441.697
382 1 53.0339 11.1438 591 134.834 1105.17 466.457
383 0 55.095 10.8903 600 134.658 1106.04 465.273
384 0 58.2321 11.7461 684 128.889 1106.86 464.463
385 0 57.0627 13.196 753 129.886 1107.01 462.692
386 0 61.1344 12.4971 764 132.89 1106.55 461.63
387 0 61.1155 13.0082 795 132.669 1106.46 459.735
388 0 62.1816 13.5571 843 131.012 1106.79 460.348
389 0 64.1847 13.243 850 139.734 1107.14 459.102
390 0 67.128 13.288 892 133.238 1106.84 458.334
391 0 69.0493 13.15 908 139.09 1107.45 457.072
392 0 72.2455 12.942 935 132.975 1106.59 455.939
393 0 74.2129 13.5825 1008 134.704 1106.06 453.92
394 0 76.2104 13.3315 1016 132.199 1106.39 453.853
395 0 78.2095 13.5405 1059 131.147 1106.17 451.482
396 0 79.1859 13.5504 1073 131.838 1106.16 451.077
397 0 82.0901 13.4608 1105 136.007 1106.46 450.386
398 0 86.1931 13.9106 1199 128.001 1106.54 447.192
399 0 88.1234 13.708 1208 126.815 1106.94 447.781
400 0 90.2686 14.1356 1276 115.14 1108.01 444.917
401 0 92.2379 13.953 1287 118.716 1107.38 443.134
402 0 97.3079 13.781 1341 125.599 1106.63 443.125
403 0 99.3902 14.0758 1399 126.751 1107.48 439.784
404 0 103.278 14.0785 1454 119.553 1106.37 439.752
405 1 50.0623 12.4645 624 127.551 1106.73 465.585
406 0 54.0547 12.3394 667 127.108 1107.19 463.342
407 0 55.0276 12.0485 663 131.139 1107.3 463.682
408 0 57.0548 12.2339 698 126.332 1106.35 464.001
409 0 59.2953 12.2607 727 119.384 1105.43 461.308
410 0 60.1803 12.7616 768 129.243 1105.41 459.633
411 0 61.1392 12.5942 770 124.953 1105.29 460.043
412 0 62.1275 12.6675 787 129.222 1105.2 459.301
413 0 65.1907 13.0694 852 129.165 1104.77 457.289
414 0 65.1634 13.2743 865 127.602 1104.89 457.141
415 0 68.2372 12.9255 882 125.718 1104.82 457.033
416 0 71.2028 12.8787 917 129.901 1105.24 455.022
417 0 74.0838 12.7963 948 126.11 1105.89 454.604
418 0 76.1585 12.7103 968 128.337 1105.92 453.247
419 0 77.0538 13.0298 1004 130.957 1105.83 451.643
420 0 80.1138 12.8817 1032 129.757 1105.59 450.024
421 0 81.1375 12.978 1053 128.135 1105.79 447.508
422 0 85.1572 12.7294 1084 130.53 1105.48 448.273
423 0 87.3334 12.7672 1115 134.034 1105.61 445.872
424 0 91.1795 12.5686 1146 128.227 1105.63 445.398
425 0 94.131 13.1519 1238 131.978 1105.21 442.845
426 0 99.1351 12.9621 1285 138.645 1105.62 440.218
427 0 101.139 12.7646 1291 141.141 1105.5 439.706
428 0 105.116 12.8049 1346 134.452 1105.15 438.319
429 0 108.24 12.7125 1376 135.935 1104.93 435.494
430 0 112.095 12.6768 1421 133.777 1104.66 433.916
431 1 61.0779 9.90539 605 130.575 1105.3 460.469
432 0 63.1061 10.7914 681 128.606 1105.83 458.797
433 0 65.2482 11.4026 744 130.46 1104.61 459.536
434 0 67.2076 11.3083 760 134.008 1104.52 459.168
435 0 70.1695 11.7287 823 131.902 1105.87 458.487
436 0 71.1875 12.0808 860 125.174 1105.83 456.929
437 0 74.1706 11.6218 862 119.889 1105.32 456.209
438 0 76.116 11.8109 899 126.008 1105.21 454.709
439 0 78.1087 11.9705 935 124.025 1105.74 453.75
440 0 81.2807 12.0693 981 116.847 1104.88 451.758
441 0 82.1573 12.33 1013 121.525 1105.08 451.763
442 0 85.3094 12.144 1036 117.664 1105.52 450.125
443 0 89.3473 12.0877 1080 126.855 1104.68 447.199
444 0 90.4469 12.1287 1097 126.121 1104.71 446.845
445 1 48.1675 9.67457 466 90.2146 1104.95 469.659
446 0 51.1511 9.81406 502 123.345 1104.97 469.386
447 0 54.257 9.91577 538 123.996 1104.62 467.907
448 0 52.358 11.154 584 122.868 1104.12 466.705
449 0 55.2001 11.7935 651 123.745 1103.87 466.585
450 0 56.2064 11.3866 640 116.014 1104.22 465.773
451 0 57.17 11.6845 668 126.087 1104.69 465.355
452 0 59.1024 11.8608 701 125.682 1104.74 464.897
453 0 59.1065 12.0291 711 124.572 1104.52 463.634
454 0 63.1459 12.2256 772 125.519 1104.38 461.475
455 0 65.057 12.1432 790 125.277 1102.65 460.003
456 0 67.1095 12.5318 841 127.142 1102.71 458.91
457 0 69.0802 12.348 853 131.463 1102.28 460.318
458 0 70.0654 12.417 870 127.794 1102.36 458.905
459 0 74.204 12.6274 937 136.598 1102.59 457.456
460 0 75.1685 12.9043 970 129.362 1102.67 457.013
461 0 78.179 12.74 996 136.773 1102.91 455.376
462 0 79.1941 13.0818 1036 135.108 1103.86 454.201
463 0 82.185 12.9586 1065 141.648 1104.08 453.218
464 0 84.2289 13.1784 1110 140.089 1104.6 450.098
465 0 87.259 13.0416 1138 143.219 1104.74 449.585
466 0 90.1934 13.1384 1185 143.714 1104.57 447.846
467 0 94.2487 13.1991 1244 148.212 1104.5 446.814
468 0 96.2142 13.3348 1283 152.465 1104.8 445.773
469 0 99.3317 13.5908 1350 150.764 1105.29 443.381
470 0 101.284 13.3189 1349 151.325 1105.3 443.083
471 1 53.2454 11.7381 625 151.091 1106 467.694
472 0 54.057 12.7458 689 154.25 1106.68 464.888
473 0 55.034 12.1016 666 152.751 1106.76 465.721
474 0 55.041 12.845 707 152.158 1106.53 464.446
475 0 57.042 12.5872 718 151.847 1107.16 464.635
476 0 58.1101 12.8033 744 151.249 1106.95 462.067
477 0 61.0347 12.6649 773 155.113 1107.18 461.921
478 0 62.1395 13.2927 826 143.067 1106.78 460.494
479 0 63.2714 13.0075 823 151.989 1105.66 458.995
480 0 65.2542 13.6083 888 144.111 1105.8 457.919
481 0 68.1448 13.4566 917 150.672 1105.71 456.723
482 0 69.0666 13.8272 955 136.733 1105.9 455.654
483 0 71.218 13.6201 970 142.876 1106.28 454.396
484 0 73.1765 13.6793 1001 143.939 1106.11 453.535
485 0 75.1216 13.6046 1022 134.286 1106.5 452.424
486 0 76.0833 13.8007 1050 138.055 1106.74 452.242
487 0 80.0665 13.4763 1079 143.757 1106.81 450.211
488 0 82.0787 13.3652 1097 140.147 1107.26 449.204
489 0 85.0912 13.6912 1165 142.289 1107.15 447.554
490 0 87.171 13.5022 1177 148.811 1107.24 446.513
491 0 90.1392 13.2795 1197 140.364 1107.1 445.691
492 0 92.1354 13.5344 1247 141.555 1107.33 444.975
493 0 95.1421 13.9476 1327 137.355 1108.01 440.902
494 1 53.0162 11.3927 604 139.818 1108.98 461.651
495 0 56.1348 11.8108 663 138.281 1108.74 461.011
496 0 57.0314 12.4317 709 143.657 1108.74 460.513
497 0 58.1253 12.6623 736 143.462 1109.28 459.11
498 0 61.0822 12.4095 758 140.703 1109.41 457.633
499 0 63.2296 12.7946 809 135.63 1109.01 457.241
500 0 65.1779 12.8571 838 140.976 1109.64 457.137
501 0 67.2788 12.7083 855 132.361 1109.34 455.547
502 0 69.175 12.8515 889 134.497 1109.14 453.831
503 0 70.2034 12.7487 895 136.592 1109.26 452.255
504 0 71.3769 13.0294 930 133.587 1108.92 451.465
505 0 75.2719 13.3914 1008 128.557 1109.16 449.334
506 0 79.3193 13.1998 1047 126.361 1108.47 447.982
507 0 79.377 13.4044 1064 133.435 1108.11 447.709
508 0 83.5101 13.22 1104 128.083 1107.73 444.874
509 0 85.3572 13.2033 1127 131.269 1107.36 444.151
510 0 88.4501 13.4087 1186 130.616 1107.38 441.959
511 0 90.565 13.1618 1192 126.284 1108.63 441.487
512 0 93.3268 13.6617 1275 124.402 1107.75 439.278
513 1 50.1384 11.0095 552 129.62 1106.54 461.313
514 0 48.1953 11.2459 542 125.965 1105.89 460.74
515 0 50.1696 12.398 622 123.408 1106.69 460.31
516 0 54.2228 12.8913 699 122.886 1107.99 461.893
517 0 57.1388 12.7234 727 121.556 1107.89 461.151
518 0 59.1387 12.8173 758 126.487 1107.56 458.354
519 0 60.1196 12.8743 774 125.398 1107.4 457.801
520 0 62.1109 12.9768 806 123.223 1107.24 457.149
521 0 64.2092 13.1601 845 120.437 1106.96 455.679
522 0 68.1009 12.9807 884 118.793 1107.36 454.398
523 0 69.0921 13.2866 918 117.56 1106.52 452.813
524 0 72.2656 12.9661 937 121.498 1106.51 451.608
525 0 74.182 13.1703 977 120.199 1106.46 451.5
526 0 75.2003 13.3244 1002 118.852 1106.07 450.328
527 0 79.1306 13.3324 1055 119.323 1106.29 449.15
528 0 81.3629 12.9666 1055 116.241 1106.3 448.466
529 0 86.2522 13.5533 1169 118.352 1106.74 446.401
530 0 87.4834 13.5111 1182 120.231 1106.46 445.575
531 0 92.4346 13.0795 1209 118.859 1106.74 442.98
532 1 50.2591 11.5601 581 113.31 1106.66 464.78
533 0 51.3518 11.7815 605 114.977 1105.59 463.522
534 0 52.3464 12.3982 649 114.706 1105.84 463.256
535 0 54.2325 11.8932 645 114.428 1106.72 462.682
536 0 55.2086 12.5524 693 116.579 1107.12 462.462
537 0 57.2555 11.9814 686 116.872 1107.22 461.369
538 0 59.1552 12.408 734 120.429 1107.16 459.695
539 0 60.209 12.7556 768 117.97 1107.12 459.863
540 0 61.1315 12.4649 762 125.087 1106.84 459.693
541 0 64.1931 12.5403 805 121.576 1106.87 457.788
542 0 66.1532 12.7129 841 123.91 1107.03 456.161
543 0 66.1903 12.9173 855 125.868 1106.35 455.558
544 0 70.2597 12.8239 901 123.794 1106.72 456.226
545 0 72.2745 13.1305 949 126.787 1106.93 454.132
546 0 74.2822 13.1795 979 128.844 1106.95 453.31
547 0 75.2502 13.0498 982 129.641 1107.09 452.428
548 0 78.3189 13.0875 1025 127.648 1107.17 452.06
549 0 82.46 12.8426 1059 126.887 1106.84 450.431
550 0 84.4647 12.7982 1081 128.513 1106.35 448.498
551 1 45.2502 11.2707 510 131.039 1106.21 468.527
552 0 46.1838 11.4759 530 126.54 1105.59 467.217
553 0 48.2937 11.4508 553 130.967 1105.56 467.38
554 0 50.2815 12.3306 620 121.14 1105.65 466.503
555 0 51.3955 12.6859 652 128.179 1104.95 464.546
556 0 53.3196 12.7158 678 130.625 1104.84 464.316
557 0 55.2728 12.0131 664 131.946 1104.61 463.422
558 0 56.34 12.6553 713 126.196 1104.31 463.07
559 0 57.3973 12.5616 721 126.331 1104.24 462.721
560 0 59.0972 13.1478 777 131.042 1105.21 461.295
561 0 61.1593 12.9007 789 123.953 1104.81 460.667
562 0 61.2037 13.2345 810 130.802 1104.73 460.828
563 0 63.1979 13.5289 855 131.358 1104.32 458.986
564 0 66.2601 13.2357 877 128.444 1104.14 456.993
565 0 67.246 13.2796 893 124.193 1104.18 457.071
566 0 69.2745 12.8763 892 131.059 1104.32 455.53
567 0 72.2033 13.3235 962 129.102 1104.37 455.078
568 0 75.2646 13.2333 996 127.654 1103.86 454.69
569 0 77.1739 13.2169 1020 120.739 1104.19 452.228
570 0 79.2975 13.2539 1051 133.054 1104.26 452.038
571 0 85.2674 13.3697 1140 124.48 1104.73 448.764
572 0 86.1701 13.0904 1128 128.189 1105 446.142
573 1 45.1397 11.7413 530 126.702 1103.92 468.564
574 0 47.4782 11.4368 543 129.86 1103.16 466.582
575 0 49.0459 12.3354 605 124.253 1105.81 467.246
576 0 50.0686 11.9436 598 118.013 1105.7 466.908
577 0 50.0571 12.266 614 122.446 1105.32 467.124
578 0 53.0311 12.2758 651 119.214 1105.94 465.727
579 0 54.0212 13.0689 706 120.62 1106.04 464.887
580 0 57.0512 12.4625 711 121.605 1106.06 464.118
581 0 57.0648 12.6873 724 117.308 1106.15 462.565
582 0 59.0216 12.3345 728 125.323 1106.09 461.835
583 0 61.0338 12.5013 763 119.414 1106.3 461.999
584 0 63.1099 12.6921 801 114.115 1106.61 459.512
585 0 65.1272 13.0207 848 116.909 1104.7 458.532
586 0 67.1563 12.791 859 114.877 1105.01 457.665
587 0 69.1054 12.5026 864 117.668 1104.77 456.317
588 0 71.082 12.6333 898 115.754 1105.24 454.39
589 1 37.1327 9.9912 371 104.275 1105.15 472.801
590 0 38.1204 10.3881 396 116.023 1104.64 471.947
591 0 39.1847 10.4633 410 115.505 1104.54 471.373
592 0 38.1195 11.3328 432 113.519 1105.05 469.002
593 0 41.1657 11.2715 464 112.19 1105.93 467.957
594 0 42.3136 11.013 466 109.2 1106.26 470.133
595 0 43.1829 11.2081 484 105.169 1106.13 469.76
596 0 44.1894 11.6996 517 101.772 1106.35 467.667
597 0 45.1389 11.4978 519 112.15 1106.47 468.861
598 0 46.1541 11.4833 530 110.485 1106.45 466.528
599 0 48.1938 11.7857 568 109.581 1106.87 466.71
600 0 49.0932 11.8754 583 109.525 1107.1 465.885
601 0 51.1743 12.0373 616 114.404 1107.26 465.318
602 0 51.1199 12.7934 654 113.586 1106.8 464.425
603 0 52.3475 12.6845 664 117.794 1108.15 462.146
604 0 53.2203 12.5328 667 115.853 1107.92 463.405
605 0 56.0866 12.5342 703 121.859 1107.78 461.368
606 0 55.2718 12.719 703 121.929 1107.65 460.903
607 0 57.151 13.1756 753 121.234 1107.33 459.964
608 0 59.1059 13.0951 774 120.913 1107.01 458.762
609 0 61.1702 12.8657 787 121.943 1107.34 459.639
610 0 64.1733 12.8246 823 129.716 1107.61 457.921
611 0 64.1759 13.276 852 123.063 1107.79 456.959
612 0 67.2543 13.1293 883 127.922 1108.08 455.978
613 0 69.1546 13.2746 918 131.154 1107.92 455.174
614 0 70.1668 13.7244 963 123.628 1108.18 454.814
615 0 72.0702 13.4868 972 128.037 1108.57 452.714
616 0 73.113 13.951 1020 124.521 1109.17 451.452
617 0 75.1353 13.8151 1038 122.618 1108.97 451.222
618 0 78.26 13.2635 1038 127.645 1108.73 451.145
619 0 78.26 13.2635 1038 158.603 1108.73 451.145
620 0 81.1197 13.8191 1121 130.672 1108.62 447.299
621 0 82.1385 13.5503 1113 124.352 1108.21 446.567
622 0 86.1814 13.5876 1171 125.317 1108.26 445.271
623 0 88.1444 14.1359 1246 121.941 1107.95 444.104
624 0 91.1696 14.1933 1294 124.429 1107.93 443.145
625 0 94.3522 14.1279 1333 125.208 1107.26 441.317
626 0 97.2937 13.9269 1355 131.674 1107.57 439.925
627 1 52.1599 12.3467 644 132.304 1107.73 461.87
628 0 54.0332 13.2881 718 128.774 1108.4 462.827
629 0 55.051 13.3876 737 126.159 1108.11 461.377
630 0 58.0538 13.8664 805 125.451 1107.86 459.762
631 0 59.1606 13.3873 792 123.65 1107.1 459.683
632 0 61.1703 13.4379 822 124.134 1107.57 458.685
633 0 62.1144 13.7971 857 125.03 1106.79 456.95
634 0 65.114 13.7144 893 117.813 1106.62 456.336
635 0 66.0894 13.391 885 123.546 1106.39 455.854
636 0 71.1146 13.6259 969 117.767 1106.89 453.483
637 0 73.2112 13.6181 997 116.262 1106.8 451.697
638 0 75.1628 13.7036 1030 117.004 1106.96 452.158
639 0 78.0647 13.8219 1079 121.364 1106.69 450.567
640 0 81.1042 13.6984 1111 118.776 1106.52 448.688
641 0 85.2273 13.4816 1149 119.704 1106.71 446.685
642 0 88.0956 13.667 1204 113.527 1106.46 445.963
643 1 45.0778 11.1141 501 115.309 1107.02 467.469
644 0 47.0453 11.8822 559 117.801 1107.52 466.195
645 0 48.0576 12.5058 601 116.589 1106.22 465.845
646 0 48.0926 13.2037 635 115.72 1106.47 465.668
647 0 51.0401 12.304 628 122.498 1105.99 464.019
648 0 52.1488 12.5986 657 113.426 1105.47 464.16
649 0 54.1928 12.6954 688 119.576 1105.68 462.972
650 0 56.144 12.8598 722 119.906 1105.74 462.418
651 0 58.1304 12.8676 748 118.207 1105.9 461.197
652 0 58.078 12.9825 754 121.844 1105.68 460.926
653 0 61.2194 13.2964 814 118.833 1105.28 460.085
654 0 62.1303 12.7957 795 127.325 1105.29 459.231
655 0 65.1018 13.0258 848 125.404 1105.38 458.066
656 0 67.1935 13.0816 879 131.967 1105.25 457.106
657 0 70.1158 13.1497 922 126.231 1105.29 456.003
658 0 71.1413 13.5505 964 127.218 1105.57 455.162
659 0 72.0751 13.5553 977 131.958 1105.72 453.842
660 0 77.1377 13.0416 1006 129.062 1106.84 453.767
661 0 78.0992 13.4701 1052 133.982 1106.53 452.182
662 0 82.2045 13.4664 1107 128.938 1106.2 450.516
663 1 42.0731 11.3374 477 132.199 1105.36 470.189
664 0 43.2032 11.9204 515 130.689 1105.1 469.445
665 0 45.0695 12.6028 568 129.377 1105.11 468.729
666 0 46.061 12.1578 560 135.598 1105.38 468.477
667 0 49.0447 12.4376 610 126.307 1104.85 467.311
668 0 51.0445 11.97 611 133.116 1104.65 467.11
669 0 51.0341 12.2271 624 132.976 1104.99 465.473
670 0 54.2445 11.909 646 133.068 1105.55 465.373
671 0 55.1859 12.4488 687 133.144 1105.36 464.761
672 0 56.2182 13.163 740 130.068 1105.41 463.034
673 0 56.2372 13.0519 734 128.894 1105.23 462.891
674 0 60.1978 12.841 773 128.082 1104.98 461.414
675 0 62.1343 12.473 775 130.35 1105.03 461.373
676 0 64.2091 12.4281 798 118.301 1105.66 460.54
677 0 66.2211 12.6244 836 127.207 1104.7 459.13
678 0 68.2952 13.0609 892 127.892 1105.23 457.468
679 0 70.1677 13.197 926 127.058 1104.91 456.253
680 0 73.128 12.8132 937 122.455 1104.58 456.559
681 0 77.2089 12.9389 999 124.919 1104.31 455.34
682 0 78.1489 12.9112 1009 119.655 1104.3 453.651
683 0 79.1055 12.9195 1022 121.446 1104.52 452.772
684 0 85.2557 12.9024 1100 121.117 1104.35 450.464
685 1 40.1706 11.0031 442 122.113 1103.68 472.941
686 0 40.2371 11.5316 464 128.851 1104.26 471.61
687 0 44.3094 11.2843 500 122.112 1104.05 471.456
688 0 45.2009 11.8582 536 123.002 1103.73 470.321
689 0 46.1988 11.8834 549 123.39 1104.24 470.344
690 0 49.2494 11.7768 580 123.803 1104.24 470.297
691 0 50.3286 11.9614 602 124.819 1104.08 469.06
692 0 51.1736 12.0179 615 126.39 1104.41 468.784
693 0 52.2059 12.1442 634 126.293 1104.4 468.136
694 0 54.255 11.9436 648 129.131 1104.56 467.824
695 0 55.208 11.828 653 135.446 1104.64 465.634
696 0 56.1868 12.4762 701 125.66 1104.77 465.304
697 0 59.1195 12.1787 720 135.801 1104.66 463.556
698 0 61.1552 12.362 756 119.624 1104.36 463.737
699 0 62.1498 12.3572 768 134.182 1104.27 462.947
700 0 65.2912 13.0339 851 135.196 1104 460.719
701 0 68.199 12.3609 843 135.157 1104.16 460.269
702 0 69.2821 12.9326 896 137.522 1104.03 458.406
703 0 73.2257 12.8097 938 139.129 1103.97 456.604
704 0 74.2398 12.2845 912 139.696 1104.2 456.428
705 0 78.2728 12.3798 969 136.556 1104.06 456.341
706 1 38.1313 10.7523 410 144.476 1105.29 475.546
707 0 40.0758 11.603 465 140.065 1105.38 474.503
708 0 41.1144 11.918 490 140.153 1105.06 473.784
709 0 44.4073 11.8674 527 141.317 1103.46 473.224
710 0 46.4972 11.7857 548 139.292 1103.49 472.984
711 0 46.6094 12.2293 570 140.804 1102.84 468.96
712 0 47.563 11.9421 568 138.104 1103.07 471.456
713 0 49.4614 12.252 606 134.299 1102.81 470.173
714 0 49.4614 12.252 606 158.934 1101.81 470.173
715 0 51.5339 12.8653 663 131.682 1103.2 470.089
716 0 53.4449 12.4989 668 136.778 1103.87 469.135
717 0 55.3835 12.4044 687 136.907 1103.33 467.633
718 0 57.3829 12.4776 716 130.514 1103.39 467.492
719 0 59.3404 12.403 736 134.97 1103.37 465.591
720 0 60.2745 13.0403 786 134.132 1102.74 464.578
721 0 62.4545 12.1689 760 132.197 1102.66 464.968
722 0 64.3859 12.3474 795 129.101 1103.14 463.532
723 0 66.2631 12.1636 806 135.666 1103.13 462.933
724 0 69.46 12.3812 860 129.423 1103.19 460.384
725 0 71.3482 12.1657 868 133.46 1103.19 461.612
726 0 72.2546 12.1515 878 135.541 1104.99 461.311
727 0 73.2203 12.4283 910 130.908 1105.26 460.098
728 1 38.0693 10.1919 388 134.276 1105.28 477.343
729 0 41.1639 10.276 423 131.596 1104.87 476.123
730 0 45.1977 10.1996 461 135.694 1105.09 473.985
731 0 46.1089 10.3668 478 135.64 1106.01 473.107
732 0 47.0499 10.8395 510 140.314 1106.4 472.371
733 0 48.1512 11.2978 544 141.235 1106.2 470.085
734 0 49.2835 12.073 595 146.176 1105.94 469.272
735 0 51.21 11.9508 612 146.23 1104.44 469.041
736 0 53.1447 11.8921 632 141.93 1104.91 467.261
737 0 55.117 11.6479 642 142.078 1104.27 465.562
738 0 57.1248 11.6762 667 153.312 1104.42 465.973
739 0 59.022 12.3344 728 142.503 1103.66 465.747
740 0 61.0527 12.0388 735 143.283 1104.71 464.307
741 0 62.1324 12.1032 752 146.9 1104.3 462.612
742 0 64.0619 12.5972 807 147.587 1104.69 461.525
743 0 66.0991 12.3602 817 143.311 1104.88 460.488
744 0 66.0861 12.6804 838 145.808 1104.97 460.189
745 0 70.1638 12.6133 885 142.914 1105.15 457.455
746 0 70.2318 12.473 876 144.003 1105.47 458.212
747 0 73.0518 12.7854 934 144.488 1105.5 455.134
748 0 74.1866 12.9943 964 146.493 1105.57 454.484
749 0 79.3314 12.5423 995 138.593 1106.07 452.574
750 0 79.38 12.8244 1018 137.368 1106.38 451.315
751 0 83.483 12.6852 1059 147.216 1107.31 450.52
752 0 85.379 12.954 1106 144.354 1107.09 449.744
753 0 87.399 12.7805 1117 147.14 1107.09 447.585
754 0 90.6443 12.7421 1155 152.096 1107.21 445.648
755 0 93.7526 12.7143 1192 150.357 1107.2 444.899
756 0 97.5207 13.1767 1285 152.862 1106.57 443.524
757 0 99.5932 12.9125 1286 148.868 1106.92 441.026
758 0 102.67 13.373 1373 153.176 1107.19 439.503
759 0 107.652 13.2278 1424 151.857 1107.76 437.686
760 0 108.754 13.3329 1450 149.02 1107.85 436.172
761 0 112.46 13.5426 1523 156.752 1107.95 434.569
762 0 116.398 13.6686 1591 153.627 1108.4 432.492
763 0 121.457 13.8321 1680 145.807 1108.54 428.733
764 1 65.1584 12.7382 830 157.046 1107.78 457.717
765 0 69.2796 12.8465 890 161.067 1109.12 456.501
766 0 71.3143 12.9988 927 159.004 1109.23 454.929
767 0 74.242 12.6882 942 162.433 1108.87 454.897
768 0 75.2459 13.1303 988 158.003 1109 452.576
769 0 77.3096 13.2196 1022 158.234 1108.67 451.337
770 0 79.3168 12.9859 1030 155.661 1108.79 449.303
771 0 83.3415 13.1747 1098 160.364 1108.54 447.84
772 0 87.4168 13.4642 1177 69.6602 1108.35 445.085
773 0 90.282 13.2585 1197 154.302 1108.31 445.026
774 0 93.3606 13.2497 1237 159.033 1108.47 443.525
775 0 95.3353 13.3739 1275 160.855 1108.8 442.581
776 0 98.3229 13.476 1325 159.596 1108.49 442
777 0 101.271 13.3799 1355 163.999 1108.18 440.773
778 0 104.277 13.3011 1387 162.317 1108.05 438.719
779 0 109.247 14.6548 1601 153.214 1108.4 435.309
780 0 110.258 13.5772 1497 165.351 1107.78 434.836
781 0 114.25 13.3479 1525 155.38 1106.85 433.374
782 1 61.1577 11.9527 731 164.781 1106.8 459.345
783 0 62.0828 12.6283 784 162.312 1106.09 458.89
784 0 63.1814 12.6461 799 158.056 1106.14 457.625
785 0 65.1951 12.9611 845 164.187 1106.1 456.393
786 0 69.1216 12.9916 898 156.187 1105.52 454.857
787 0 71.2525 12.8838 918 155.46 1105.25 454.956
788 0 74.3634 12.7482 948 152.063 1105.29 453.953
789 0 75.2203 12.696 955 151.022 1105.87 452.216
790 0 77.2506 12.906 997 147.656 1105.42 451.389
791 0 80.1057 12.6333 1012 151.69 1105.77 449.236
792 0 84.0781 12.5479 1055 151.882 1105.69 448.952
793 0 86.1013 12.8337 1105 144.518 1105.98 447.128
794 0 90.0693 13.0455 1175 145.489 1106.09 444.714
795 0 93.1781 12.7283 1186 150.564 1106.78 443.203
796 1 48.0357 10.8253 520 146.879 1107.55 467.083
797 0 50.062 11.306 566 146.286 1107.36 466.016
798 0 50.1287 11.6301 583 148.086 1106.82 465.554
799 0 53.2833 10.9603 584 144.844 1107.13 464.226
800 0 54.2232 11.4527 621 146.916 1106.95 462.852
801 0 55.1955 11.8307 653 145.839 1107.6 461.289
802 0 57.2922 11.9562 685 146.136 1107.44 461.239
803 0 58.2594 12.1869 710 146.911 1107.67 461.039
804 0 60.2256 12.2041 735 154.442 1107.51 459.497
805 0 62.3612 12.0748 753 149.166 1107.59 458.009
806 0 65.2877 11.8705 775 151.474 1107.15 456.124
807 0 67.3122 11.8106 795 155.08 1107.33 455.943
808 0 68.266 11.88 811 147.218 1107.5 454.919
809 0 69.2932 12.209 846 150.993 1107.57 454.559
810 0 73.2001 12.3907 907 145.732 1107.14 452.298
811 0 74.387 12.3005 915 147.097 1107.16 451.686
812 0 77.4387 12.2936 952 157.576 1107.52 451.571
813 0 81.4475 13.5179 1101 147.817 1108.02 447.877
814 0 82.5258 12.3719 1021 151.615 1107.38 448.187
815 1 45.3304 10.8316 491 154.595 1107.59 466.941
816 0 47.3365 10.9641 519 153.507 1107.73 464.759
817 0 48.5361 11.8263 574 151.164 1107.29 462.991
818 0 50.6308 11.8505 600 153.442 1107.77 461.83
819 0 52.2276 12.1775 636 152.365 1109.26 463.539
820 0 54.0763 11.9091 644 151.166 1109.32 462
821 0 55.096 12.1969 672 149.001 1109.72 461.432
822 0 57.0953 12.8557 734 155.481 1109.28 460.356
823 0 59.0607 12.4279 734 158.843 1109.48 458.82
824 0 60.086 12.7817 768 155.228 1108.15 458.426
825 0 61.1673 12.7192 778 155.681 1108.39 457.748
826 0 64.3298 12.5758 809 158.569 1108.04 457.083
827 0 64.3298 12.5758 809 161.697 1107.04 457.083
828 0 69.1688 12.7803 884 153.94 1108.39 455.39
829 0 70.2248 12.9157 907 158.871 1108.65 454.638
830 0 73.3214 13.1885 967 147.997 1108.59 452.033
831 0 77.2799 12.94 1000 153.922 1108.31 450.481
832 0 76.2665 13.4004 1022 158.213 1108.53 450.134
833 0 80.2518 13.333 1070 155.777 1108.59 448.264
834 0 82.1977 13.3824 1100 144.342 1108.63 447.419
835 0 86.3666 13.2343 1143 150.327 1108.73 446.434
836 0 88.3159 13.0554 1153 153.721 1109.03 444.363
837 0 91.2051 13.4422 1226 156.637 1108.94 443.259
838 0 94.187 13.2715 1250 152.689 1108.59 440.954
839 0 97.494 12.9752 1265 147.409 1108.74 440.615
840 0 102.256 13.5347 1384 156.669 1109.68 438.072
841 0 105.215 13.6673 1438 150.076 1109.81 436.472
842 1 55.044 11.6089 639 157.665 1109.31 462.282
843 0 56.1346 12.3988 696 151.122 1109.83 460.476
844 0 57.0778 12.702 725 155.709 1108.85 460.415
845 0 57.0431 12.6045 719 155.53 1108.29 459.291
846 0 60.0415 12.6413 759 151.169 1107.98 458.646
847 0 63.0879 12.7124 802 159.001 1108.9 457.4
848 0 63.1086 12.7875 807 154.01 1107.82 456.601
849 0 67.0336 13.0681 876 154.546 1107.46 455.122
850 0 69.1005 12.8509 888 161.096 1107.7 454.454
851 0 70.0372 12.8646 901 155.175 1107.75 453.872
852 0 72.0446 13.103 944 153.588 1107.67 451.75
853 0 76.0641 12.9496 985 153.673 1108.43 450.334
854 0 78.0964 12.4205 970 156.093 1108.38 447.778
855 0 79.0667 13.4949 1067 139.776 1107.53 446.106
856 0 82.1024 13.1543 1080 146.244 1107.74 445.775
857 0 86.3137 13.1845 1138 155.681 1109.52 446.147
858 0 91.4354 12.5334 1146 159.756 1109.71 442.896
859 1 48.1879 11.5174 555 154.016 1107.97 463.211
860 0 49.2798 12.216 602 146.794 1107.98 462.659
861 0 50.2513 11.94 600 149.127 1108.93 464.857
862 0 52.136 11.681 609 151.778 1108.53 463.519
863 0 53.2758 11.9191 635 152.318 1108.26 463.176
864 0 54.2187 12.1729 660 146.129 1109.09 461.22
865 0 57.2636 12.3988 710 148.254 1109.8 460.044
866 0 59.4136 12.1353 721 150.333 1108.5 459.749
867 0 59.2776 12.7367 755 146.813 1108.44 459.555
868 0 63.3617 12.042 763 147.486 1108.46 457.142
869 0 64.4706 12.7035 819 147.098 1107.95 454.949
870 0 67.4024 13.0114 877 148.861 1107.42 453.457
871 0 68.2828 12.8729 879 149.808 1107.83 452.914
872 0 71.3518 12.3333 880 146.792 1107.75 453.893
873 0 75.3471 13.1259 989 147.023 1108.42 449.983
874 0 76.5056 13.1755 1008 145.328 1108.17 449.108
875 0 78.8488 13.0249 1027 147.474 1108.56 445.822
876 0 82.7103 12.8642 1064 145.247 1108.78 445.208
877 0 85.6689 12.9218 1107 149.909 1108.96 442.911
878 1 44.5011 10.966 488 152.779 1109.67 464.002
879 0 46.5798 11.0778 516 149.674 1109.03 465.471
880 0 47.093 12.1887 574 153.169 1107.94 465.784
881 0 50.1414 11.9861 601 150.449 1107.95 465.973
882 0 50.0381 12.7503 638 148.84 1109.31 465.146
883 0 50.0197 12.655 633 147.682 1109.73 464.777
884 0 50.0342 12.8312 642 148.025 1109.68 464.545
885 0 54.0484 12.7848 691 150.111 1109.36 464.385
886 0 56.0562 12.7194 713 151.603 1109.91 463.286
887 0 56.0459 13.1856 739 144.234 1110.21 462.018
888 0 60.0688 12.6688 761 135.774 1110.79 461.035
889 0 62.1662 12.9653 806 145.569 1111.05 457.244
890 0 63.0493 12.8788 812 144.214 1110.74 459.042
891 0 64.1578 13.233 849 144.412 1110.81 456.894
892 0 69.1408 12.9301 894 139.154 1110.59 456.751
893 0 69.2504 13.1407 910 145.032 1111 456.216
894 0 72.106 13.3692 964 135.607 1111.38 455.189
895 0 73.0627 13.6184 995 133.781 1111.24 454.049
896 0 75.0648 13.0687 981 140.179 1110.81 454.236
897 0 78.1264 13.5038 1055 126.75 1109.49 452.994
898 0 81.104 13.4272 1089 136.345 1109.31 450.636
899 0 85.1321 14.2602 1214 126.961 1109.07 448.51
900 0 88.1623 13.702 1208 130.1 1109.34 445.932
901 0 91.2026 13.8812 1266 133.394 1109.47 445.358
902 0 93.204 13.2183 1232 134.664 1109.15 443.632
903 0 96.1564 13.582 1306 136.008 1109.66 442.162
904 0 100.241 13.0187 1305 132.533 1108.69 440.143
905 1 55.1025 11.8869 655 128.692 1111.18 462.305
906 0 54.5446 12.3202 672 130.042 1109.18 461.321
907 0 56.4813 12.3404 697 131.633 1108.77 460.756
908 0 56.3077 12.8757 725 124.859 1108.61 460.286
909 0 58.3774 12.8303 749 131.69 1109.12 458.806
910 0 61.2459 12.6213 773 131.621 1109.21 458.756
911 0 65.2364 12.2631 800 132.701 1108.86 456.65
912 0 65.2364 12.2631 800 147.089 1108.86 456.65
913 0 68.2167 12.7828 872 125.335 1109.22 455.15
914 0 69.2543 12.9378 896 129.733 1109.3 454.738
915 0 73.2608 13.0083 953 131.459 1109.53 452.613
916 0 75.1889 12.7279 957 135.012 1109.41 451.202
917 0 77.1896 13.3308 1029 133.623 1109.52 451.091
918 0 80.2082 13.0411 1046 132.69 1109.83 449.876
919 0 84.2129 12.6821 1068 135.317 1109.54 448.413
920 0 84.1444 13.6432 1148 137.891 1109.48 447.031
921 0 89.112 13.1408 1171 129.288 1109.41 444.707
922 0 92.2024 13.1342 1211 133.379 1109.36 443.376
923 0 95.1756 13.2597 1262 144.528 1109.38 444.368
924 1 50.1609 12.1808 611 138.938 1108.52 466.306
925 0 52.178 12.879 672 136.735 1109.47 467.243
926 0 50.1612 13.1376 659 141.413 1109.18 465.91
927 0 54.1159 12.3808 670 146.458 1109.58 465.567
928 0 55.1351 12.7686 704 149.457 1110.03 464.572
929 0 58.161 12.7577 742 148.658 1109.59 463.553
930 0 56.3242 13.1737 742 143.985 1110.12 462.458
931 0 60.2018 12.6907 764 150.458 1109.26 462.448
932 0 61.3062 12.9351 793 145.914 1109.47 459.77
933 0 65.2098 12.7588 832 147.869 1109.14 459.171
934 0 65.2311 13.7358 896 154.085 1109.77 457.535
935 0 68.2238 13.2359 903 151.976 1109.6 457.028
936 0 69.2738 13.6415 945 154.729 1109.76 455.15
937 0 73.2659 13.5124 990 155.859 1110.1 455.487
938 0 74.5102 13.072 974 153.639 1110.11 454.67
939 0 77.3511 13.0315 1008 152.516 1110.21 452.097
940 0 79.2992 13.5184 1072 157.098 1109.89 451.146
941 0 81.3968 13.1701 1072 155.765 1110.04 448.819
942 0 85.4454 13.1195 1121 153.391 1109.8 447.352
943 1 43.2083 11.5487 499 157.21 1109.62 468.114
944 0 44.1293 12.2141 539 150.132 1109.29 467.557
945 0 45.1958 12.5675 568 162.549 1109.41 466.977
946 0 48.6037 12.283 597 151.638 1109.36 464.946
947 0 50.2793 12.9477 651 156.998 1109.23 465.82
948 0 52.2376 12.5006 653 156.469 1109.32 465.55
949 0 52.1295 13.3706 697 153.443 1109.23 464.759
950 0 53.252 13.5394 721 159.248 1109.2 464.363
951 0 54.332 13.7672 748 157.243 1109.34 464.441
952 0 55.1676 13.5043 745 156.691 1109.02 462.591
953 0 58.3366 13.525 789 161.269 1109.26 461.156
954 0 60.3399 13.5068 815 153.779 1109.19 459.818
955 0 62.3534 13.5358 844 155.39 1109.49 459.283
956 0 64.4117 13.6311 878 156.954 1109.82 458.195
957 0 64.3661 13.9204 896 160.354 1109.9 457.603
958 0 66.5361 14.0525 935 163.707 1110.08 457.08
959 0 68.2576 14.1376 965 160.23 1110.1 455.286
960 0 72.3501 13.5176 978 161.974 1110.36 454.832
961 0 72.3256 14.2826 1033 162.94 1110.37 453.352
962 0 73.22 14.3677 1052 162.441 1109.77 451.89
963 0 77.1723 14.2927 1103 164.406 1109.7 450.535
964 0 80.4159 13.9152 1119 159.022 1109.96 449.534
965 0 82.423 14.28 1177 159.839 1110.08 447.558
966 0 87.1539 13.9982 1220 161.261 1109.8 446.561
967 0 89.4294 14.5478 1301 159.264 1109.61 444.682
968 0 92.4067 14.6093 1350 160.159 1110.11 443.128
969 0 95.3614 14.4293 1376 162.677 1109.95 442.019
970 0 99.2822 14.353 1425 164.348 1110.35 440.899
971 1 49.2209 13.4902 664 159.726 1110.17 462.02
972 0 52.2887 14.114 738 156.821 1110.21 460.702
973 0 54.2709 13.8564 752 165.515 1110.16 459.903
974 0 54.2636 14.3927 781 165.507 1110.54 459.256
975 0 57.2972 14.2415 816 160.615 1110.67 458.202
976 0 58.2229 14.4273 840 169.805 1110.43 457.587
977 0 60.4483 14.5579 880 166.298 1110.93 457.07
978 0 61.2253 14.6018 894 171.521 1110.62 455.907
979 0 65.3536 14.9035 974 163.72 1110.71 454.335
980 0 66.4961 15.1287 1006 169.268 1109.97 452.795
981 0 69.2428 14.7452 1021 169.466 1110.55 451.824
982 0 70.49 15.0092 1058 160.459 1110.63 450.876
983 0 75.4225 14.3061 1079 164.122 1110.85 449.919
984 0 77.373 14.3849 1113 165.124 1110.77 448.329
985 0 80.5308 14.4541 1164 167.065 1110.69 447.534
986 0 83.3784 14.5601 1214 165.841 1110.96 445.646
987 0 87.591 14.8417 1300 160.841 1111.2 444.048
988 0 89.6422 14.7587 1323 164.119 1112.28 443.687
989 0 95.5223 14.2061 1357 154.595 1112.41 442.021
990 0 97.4694 14.6097 1424 161.304 1111.64 441.878
991 1 50.5217 14.6472 740 167.059 1111.22 463.266
992 0 53.6323 14.3757 771 164.617 1111.01 461.641
993 0 54.3088 14.8963 809 159.459 1111.31 460.674
994 0 55.1795 15.1868 838 165.643 1111.5 460.949
995 0 58.6036 14.9479 876 165.317 1111.11 459.306
996 0 60.6546 14.7722 896 160.61 1111.3 458.067
997 0 62.4522 14.9715 935 158.595 1111.17 456.757
998 0 62.4522 14.9715 935 161.029 1110.17 456.757
999 0 68.4308 15.0517 1030 160.135 1111.85 454.622
1000 0 69.5576 15.081 1049 164.269 1111.25 454.223
1001 0 72.4652 15.0141 1088 162.656 1111.96 453.166
1002 0 72.4652 15.0141 1088 174.041 1111.96 453.166
1003 0 76.3152 14.8201 1131 161.74 1111.96 450.407
1004 0 79.372 15.4085 1223 157.782 1111.49 450.646
1005 0 81.4641 15.4178 1256 158.591 1112.1 449.448
1006 0 85.4025 15.1167 1291 163.443 1111.86 446.87
1007 0 88.4163 14.9633 1323 165.38 1112.57 445.346
1008 0 91.4498 14.9043 1363 166.41 1112.21 443.715
1009 1 48.5961 13.8694 674 166.472 1112.21 464.067
1010 0 51.6327 14.6806 758 169.029 1112.11 463.026
1011 0 51.3575 15.4213 792 166.48 1112.25 462.131
1012 0 51.6876 15.0907 780 158.138 1111.89 461.568
1013 0 53.3223 15.4719 825 162.528 1112.04 459.973
1014 0 56.7645 14.9037 846 168.374 1112.07 458.545
1015 0 60.539 15.3785 931 167.365 1112.09 455.48
1016 0 63.6017 14.8895 947 168.969 1112.14 453.738
1017 0 66.7887 15.1523 1012 167.773 1112.38 452.816
1018 0 68.8017 14.9851 1031 166.607 1112.34 451.783
1019 0 68.5234 15.4692 1060 153.95 1112.2 450.274
1020 0 72.7486 14.9144 1085 169.485 1112.38 450.542
1021 0 76.9467 14.9714 1152 168.843 1112.41 449.326
1022 0 75.7336 15.3433 1162 175.802 1112.22 448.198
1023 0 78.7596 15.5664 1226 166.184 1111.91 446.235
1024 0 82.9572 15.056 1249 166.243 1111.93 445.369
1025 0 86.7254 15.0936 1309 168.996 1112.1 444.542
1026 0 88.6252 15.1424 1342 171.864 1112.23 442.609
1027 0 92.7813 15.0461 1396 171.792 1112.04 440.646
1028 0 96.7586 14.8307 1435 171.035 1112.08 440.627
1029 0 99.8506 14.8722 1485 173.334 1112 437.849
1030 0 103.768 14.783 1534 167.164 1111.67 437.095
1031 0 105.662 15.0669 1592 166.957 1111.52 434.441
1032 0 109.877 15.1442 1664 165.23 1111.83 432.545
1033 0 113.973 14.6613 1671 171.727 1112.48 431.226
1034 1 57.5743 13.2351 762 170.948 1113.47 458.018
1035 0 61.6491 13.4633 830 171.539 1113.25 455.967
1036 0 62.3112 14.235 887 164.188 1113.17 454.796
1037 0 65.7876 14.3188 942 172.411 1112.93 453.8
1038 0 68.4508 14.0539 962 172.02 1112.89 453.266
1039 0 71.3573 14.084 1005 164.483 1112.86 451.33
1040 0 72.4853 14.2788 1035 162.586 1113.2 450.223
1041 0 74.6882 14.3396 1071 166.857 1113.82 450.624
1042 0 77.1666 14.4752 1117 167.147 1113.01 448.7
1043 0 80.2244 14.5342 1166 158.125 1113.52 447.72
1044 0 83.2462 14.331 1193 164.428 1113.26 447.251
1045 0 86.1748 14.1108 1216 162.921 1112.93 445.567
1046 0 89.3711 14.4678 1293 150.831 1113.09 444.363
1047 0 92.1954 14.5018 1337 159.767 1113.15 441.846
1048 0 93.2986 14.5018 1353 157.777 1112.79 441.714
1049 0 97.2393 14.3049 1391 154.896 1112.93 440.111
1050 0 102.226 14.2331 1455 154.709 1112.58 437.652
1051 0 105.269 14.1828 1493 158.845 1112.36 436.324
1052 0 108.275 14.0938 1526 153.605 1111.61 435.043
1053 1 61.0771 11.7393 717 146.365 1112.62 457.876
1054 0 64.1391 12.0363 772 145.373 1111.54 457.56
1055 0 64.1518 12.3145 790 143.349 1111.43 455.681
1056 0 67.2247 12.1681 818 147.185 1111.13 455.967
1057 0 69.3127 12.5662 871 149.121 1111.35 454.075
1058 0 70.3952 12.4582 877 147.532 1110.98 451.746
1059 0 75.6019 12.5129 946 147.754 1111.14 451.488
1060 0 76.6107 12.6484 969 151.9 1111.39 450.984
1061 0 80.5048 12.2477 986 144.383 1111.51 449.079
1062 0 82.5355 12.5158 1033 148.399 1111.42 447.571
1063 0 86.5865 12.5308 1085 153.83 1111.05 445.69
1064 0 89.7437 13.1931 1184 152.972 1111.1 444.294
1065 0 89.7437 13.1931 1184 159.536 1111.1 444.294
1066 0 95.5129 12.8046 1223 154.233 1111.15 440.214
1067 1 50.442 10.2296 516 149.694 1111.45 463.61
1068 0 55.5875 10.434 580 143.721 1112.05 462.084
1069 0 54.5453 11.4584 625 146.52 1112.4 461.419
1070 0 56.6936 11.518 653 147.421 1112.51 461.369
1071 0 58.2221 12.0229 700 144.211 1112.3 459.129
1072 0 60.3415 11.7001 706 152.623 1112.68 458.652
1073 0 62.31 11.5551 720 144.688 1111.97 457.431
1074 0 64.5702 12.0024 775 139.359 1112.03 456.321
1075 0 67.5654 11.7368 793 148.014 1112.24 455.444
1076 0 68.853 12.1418 836 152.754 1112.37 454.74
1077 0 71.8117 11.6137 834 146.501 1111.84 454.042
1078 0 72.63 12.1024 879 144.33 1111.85 453.391
1079 0 74.8789 12.5002 936 153.907 1110.81 452.295
1080 0 76.7824 12.3987 952 152.923 1110.84 450.33
1081 0 79.6479 12.4423 991 153.67 1110.99 449.556
1082 0 83.5105 12.5613 1049 150.467 1111.36 448.402
1083 0 86.6599 12.8318 1112 144.914 1111.36 447.531
1084 0 88.528 12.9676 1148 145.639 1111.79 445.44
1085 0 91.401 12.757 1166 152.521 1111.67 444.08
1086 0 94.5611 12.944 1224 152.447 1111.16 443.515
1087 0 96.6109 12.6176 1219 156.216 1110.77 440.956
1088 1 51.3549 11.7418 603 154.592 1111.36 463.879
1089 0 53.418 11.7002 625 160.05 1111.38 462.21
1090 0 56.3233 12.2329 689 152.897 1111.65 460.473
1091 0 56.4563 12.1864 688 156.115 1111.07 460.84
1092 0 55.3313 12.9583 717 157.272 1110.71 459.576
1093 0 61.6154 12.1885 751 156.774 1110.91 458.369
1094 0 61.4478 12.4008 762 156.713 1111.19 458.804
1095 0 64.4172 12.5743 810 148.579 1111.27 456.043
1096 0 65.2991 12.7567 833 137.297 1111.54 454.335
1097 0 68.2945 12.5632 858 136.358 1111.31 453.49
1098 0 70.3737 12.5331 882 126.972 1111.63 452.025
1099 0 72.3197 12.8872 932 132.101 1111.44 451.768
1100 0 75.3577 12.6464 953 130.112 1110.88 449.432
1101 0 76.3143 13.6803 1044 132.657 1110.56 449.307
1102 0 76.423 13.2552 1013 134.661 1110.69 448.091
1103 0 78.6469 13.5034 1062 124.105 1111.48 447.753
1104 0 81.377 13.2961 1082 128.825 1111.06 445.502
1105 0 84.3546 13.5144 1140 127.195 1111.08 445.246
1106 0 88.3798 12.797 1131 117.403 1111.2 442.921
1107 0 88.4476 13.2734 1174 124.216 1110.75 442.293
1108 0 93.2379 12.999 1212 115.736 1110.63 440.312
1109 1 48.1871 12.0364 580 120.348 1111.1 463.002
1110 0 50.1685 12.4381 624 117.149 1110.75 463.942
1111 0 51.2895 13.9405 715 111.053 1110.86 462.487
1112 0 54.1203 13.7841 746 116.914 1110.61 461.332
1113 0 52.1144 13.2785 692 114.23 1110.35 462.447
1114 0 54.0991 13.5492 733 116.771 1110.5 461.026
1115 0 56.4746 13.2272 747 116.89 1111.55 458.226
1116 0 56.4746 13.2272 747 160.367 1112.55 458.226
1117 0 58.374 14.0816 822 122.44 1111.21 457.436
1118 0 60.2624 13.6901 825 124.918 1110.83 456.771
1119 0 62.3133 13.7691 858 125.9 1111.12 455.72
1120 0 62.8233 13.5937 854 127.182 1111.55 455.146
1121 0 66.2958 13.5604 899 127.677 1110.9 453.601
1122 0 66.6396 14.1808 945 129.337 1110.77 451.01
1123 0 71.9923 13.5431 975 130.231 1110.79 450.764
1124 0 72.7945 13.9846 1018 131.219 1110.95 449.077
1125 0 73.8846 13.9677 1032 134.654 1111 449.596
1126 0 75.6348 14.5171 1098 134.276 1111.39 448.156
1127 0 78.9052 14.4224 1138 124.334 1110.92 445.685
1128 0 81.5798 14.256 1163 128.114 1110.43 445.794
1129 0 82.8595 14.2168 1178 129.307 1110.68 444.91
1130 0 85.6453 14.1981 1216 132.123 1110.77 443.521
1131 0 88.8638 14.2015 1262 134.539 1110.83 441.758
1132 1 45.652 12.7486 582 132.634 1110.5 462.127
1133 0 47.5894 13.2593 631 138.025 1110.42 461.338
1134 0 47.7801 13.4993 645 143.195 1110.92 461.282
1135 0 50.5125 13.9767 706 139.653 1110.87 461.048
1136 0 52.6023 13.7827 725 140.299 1110.44 459.621
1137 0 53.5104 14.2215 761 134.703 1110.52 459.028
1138 0 55.833 14.0777 786 151.118 1111.07 457.625
1139 0 56.5591 14.0561 795 143.974 1110.46 456.669
1140 0 58.6048 14.0091 821 144.669 1110.53 455.558
1141 0 61.8815 13.8652 858 153.197 1110.54 453.699
1142 0 63.8211 14.1019 900 150.229 1110.53 452.733
1143 0 64.9929 13.7707 895 163.826 1110.69 451.656
1144 0 65.6467 14.2277 934 162.264 1110.64 450.39
1145 0 68.6408 14.1753 973 169.453 1110.69 449.861
1146 0 71.7077 14.3778 1031 168.035 1110.54 449.208
1147 0 71.9553 14.5507 1047 166.961 1110.79 448.012
1148 0 74.615 14.3269 1069 168.855 1110.85 447.378
1149 0 76.785 14.3908 1105 165.26 1111.05 445.835
1150 0 79.4962 14.2523 1133 170.089 1111.51 445.607
1151 0 80.5473 14.2401 1147 161.841 1111.43 444.363
1152 0 84.594 14.2445 1205 170.036 1111.02 442.862
1153 0 85.6047 14.3216 1226 171.784 1110.93 441.803
1154 0 88.5724 14.6998 1302 164.137 1111.17 439.912
1155 0 88.5724 14.6998 1302 172.26 1112.17 439.912
1156 0 92.5161 14.7434 1364 168.177 1110.67 438.661
1157 0 94.46 14.9164 1409 164.268 1110.49 437.248
1158 0 99.2392 14.591 1448 165.331 1110.52 435.759
1159 0 103.217 14.8328 1531 166.088 1110.58 434.915
1160 0 108.233 14.8753 1610 161.043 1110.62 433.465
1161 0 111.174 14.7517 1640 158.702 1112.26 430.732
1162 0 114.231 14.8646 1698 162.412 1111.57 429.132
1163 0 119.325 14.6826 1752 169.696 1111.08 426.462
1164 0 122.206 14.8029 1809 169.496 1110.71 424.983
1165 0 127.192 14.8909 1894 160.852 1111.19 422.45
1166 0 132.246 14.473 1914 168.719 1111 419.977
1167 0 138.229 14.7219 2035 157.984 1111 418.06
1168 0 138.229 14.7219 2035 166.404 1110 418.06
1169 0 147.205 14.4968 2134 157.642 1111.2 412.682
1170 0 152.264 14.4289 2197 166.377 1111.15 411.018
1171 0 156.402 14.6673 2294 163.626 1110.96 407.757
1172 0 161.407 14.7206 2376 164.042 1111.18 406.307
1173 0 167.288 14.3645 2403 157.563 1111.15 402.26
1174 0 175.559 14.6674 2575 160.736 1111.07 398.475
1175 0 180.395 14.5071 2617 152.542 1111.17 396.885
1176 0 186.565 14.4454 2695 157.368 1110.88 392.716
1177 0 193.523 14.36 2779 152.585 1111.2 389.83
1178 1 95.276 11.3565 1082 147.006 1111.19 438.331
1179 0 101.433 11.2291 1139 149.932 1110.91 435.573
1180 0 103.24 11.3231 1169 147.068 1110.82 433.78
1181 0 108.203 11.46 1240 146.373 1111.08 432.031
1182 1 61.3538 8.05166 494 129.897 1111 458.008
1183 0 66.1218 8.3936 555 136.133 1111.26 455.389
1184 0 69.3979 8.86194 615 133.616 1110.95 454.509
1185 0 70.3005 9.63009 677 132.555 1110.75 453.321
1186 0 73.3484 10.4433 766 134.889 1110.98 450.863
1187 0 73.3074 11.2131 822 132.073 1111.05 449.439
1188 0 78.3316 10.8896 853 129.079 1111.01 448.287
1189 0 80.4637 10.949 881 135.324 1111.17 447.373
1190 0 82.3892 10.8509 894 136.435 1111.31 446.447
1191 0 84.4108 10.9228 922 142.677 1111.14 445.198
1192 0 87.4786 11.077 969 139.746 1110.97 444.532
1193 0 90.4536 11.2876 1021 140.295 1110.52 443.48
1194 0 92.4147 11.3943 1053 140.158 1110.56 441.468
1195 0 96.4809 11.5567 1115 135.686 1111.06 439.854
1196 0 98.2984 11.282 1109 141.985 1111.25 437.776
1197 0 103.465 11.5691 1197 138.728 1111.21 436.454
1198 0 103.495 11.6044 1201 142.479 1111.24 434.893
1199 0 106.325 11.5401 1227 138.394 1111.41 433.15
1200 0 111.581 11.3998 1272 137.213 1111.25 429.953
1201 0 113.311 11.1022 1258 137.06 1110.35 428.847
1202 0 118.476 11.7914 1397 139.862 1110.42 427.225
1203 0 121.359 11.709 1421 149.189 1110.72 426.528
1204 0 125.399 11.5232 1445 142.732 1110.65 423.667
1205 0 131.39 11.3859 1496 143.925 1110.86 421.489
1206 1 75.1455 10.0339 754 140.271 1111.55 451.046
1207 0 76.1528 10.6234 809 136.621 1111.33 449.564
1208 0 78.2989 11.2262 879 139.324 1110.3 446.66
1209 0 80.2898 11.172 897 140.654 1110.43 446.436
1210 0 83.4936 11.2344 938 147.511 1109.95 445.526
1211 0 85.2361 11.1103 947 143.807 1110.63 444.581
1212 0 88.3174 11.3115 999 141.664 1110.69 442.719
1213 0 88.3577 11.1139 982 136.781 1110.64 441.185
1214 0 94.4594 11.7405 1109 145.69 1111.18 439.7
1215 0 96.4463 11.8201 1140 148.416 1111.05 439.209
1216 0 101.532 12.331 1252 151.574 1110.95 436.273
1217 0 103.469 11.8683 1228 156.908 1110.44 435.287
1218 1 60.2382 10.6079 639 151.432 1109.59 457.991
1219 0 62.432 11.1001 693 156.078 1110.42 456.143
1220 0 63.027 10.9001 687 143.109 1109.53 455.435
1221 0 65.091 11.4301 744 148.934 1109.63 455.664
1222 0 67.1096 11.2204 753 145.555 1110.12 454.797
1223 0 68.1754 12.3358 841 139.775 1110.22 453.159
1224 0 68.1754 12.3358 841 153.473 1109.22 453.159
1225 0 70.1068 11.996 841 145.365 1110.03 451.246
1226 0 75.2278 12.0168 904 139.15 1109.93 449.872
1227 0 76.1401 12.1749 927 146.003 1109.56 449.562
1228 0 79.2255 12.2435 970 149.993 1110.33 448.95
1229 0 82.1026 12.5087 1027 151.753 1109.99 446.313
1230 0 84.159 12.4764 1050 146.151 1110.23 444.381
1231 0 87.174 12.5037 1090 149.856 1110.03 444.398
1232 0 87.1631 12.62 1100 147.397 1110.49 443.413
1233 0 91.1781 12.5249 1142 153.263 1110.23 442.281
1234 0 94.1997 12.707 1197 149.947 1110.39 439.968
1235 0 97.2389 12.8035 1245 150.971 1110.72 439.213
1236 0 99.2617 13.1471 1305 150.864 1111.05 437.118
1237 0 101.661 12.9941 1321 156.298 1111.78 434.405
1238 0 106.646 13.9527 1488 146.019 1112.22 430.95
1239 0 107.673 12.9837 1398 157.474 1111.86 431.337
1240 0 109.756 13.2293 1452 162.082 1111.48 429.707
1241 0 113.828 13.5731 1545 157.001 1111.83 427.17
1242 0 117.61 13.5193 1590 158.558 1111.56 424.409
1243 1 64.3062 11.2897 726 158.574 1112.95 452.922
1244 0 65.1586 11.7099 763 155.139 1113.21 452.852
1245 0 65.3488 11.5381 754 147.382 1110.07 447.938
1246 0 68.1316 12.1236 826 155.383 1109.23 451.414
1247 0 71.1587 12.17 866 157.372 1109.59 450.752
1248 0 74.2046 12.6138 936 153.936 1110.08 449.103
1249 0 0 0 0 -nan -nan -nan
1250 1 80.3077 12.1906 979 151.08 1109.98 438.207
1251 0 79.248 12.7448 1010 153.752 1110.2 435.528
1252 0 83.2118 12.6544 1053 147.437 1110.02 436.909
1253 0 86.3271 12.6843 1095 154.107 1110.47 432.253
1254 0 89.2723 12.4003 1107 147.367 1110.44 431.631
1255 0 92.4041 12.6401 1168 155.658 1111.14 431.855
1256 0 94.3737 12.62 1191 144.716 1112.46 429.956
1257 0 97.3793 12.4564 1213 150.332 1112.18 430.024
1258 0 101.314 12.6241 1279 142.473 1110.99 429.958
1259 0 104.321 12.9696 1353 148.982 1111.73 431.301
1260 0 107.473 12.8126 1377 147.214 1111.08 429.756
1261 0 110.405 12.3093 1359 146.513 1110.87 429.097
1262 0 114.31 13.0873 1496 144.368 1111.22 427.88
1263 0 115.262 13.0225 1501 142.455 1111.85 426.529
1264 0 120.621 12.9331 1560 142.734 1112.5 424.13
1265 0 124.54 13.1685 1640 143.93 1112.36 421.992
1266 0 126.488 13.1791 1667 142.619 1112.23 419.973
1267 0 131.357 13.3834 1758 135.649 1112.43 414.921
1268 0 137.506 13.4612 1851 128.258 1112.62 414.286
1269 0 138.391 13.6714 1892 137.511 1112.27 412.692
1270 0 142.392 13.5541 1930 137.309 1112.79 409.625
1271 0 150.603 13.333 2008 133.384 1112.45 408.342
1272 0 156.676 13.7226 2150 144.313 1112.26 406.175
1273 1 85.261 11.4707 978 139.007 1112.72 441.532
1274 0 88.3049 11.6641 1030 132.515 1111.74 438.595
1275 0 90.176 12.3869 1117 133.213 1112.49 438.201
1276 0 93.3086 12.2711 1145 132.951 1111.6 436.358
1277 0 96.1914 11.737 1129 131.422 1112.39 434.856
1278 0 100.189 12.3766 1240 135.643 1112.16 432.74
1279 0 103.292 12.5759 1299 126.411 1112.42 432.181
1280 0 105.388 12.3828 1305 131.509 1112.45 430.746
1281 0 109.357 12.3723 1353 135.989 1112.71 428.894
1282 0 111.265 12.3309 1372 138.597 1112.7 426.245
1283 0 114.419 12.5853 1440 133.231 1112.4 424.86
1284 0 117.315 12.5304 1470 135.799 1112.44 423.656
1285 0 121.399 12.5207 1520 136.15 1112.23 420.059
1286 0 124.428 12.8267 1596 130.842 1112.55 417.587
1287 0 129.422 12.5712 1627 135.901 1112.81 413.688
1288 0 132.48 12.8246 1699 136.958 1112.82 415.401
1289 0 134.328 13.1841 1771 130.15 1112.84 411.989
1290 0 139.486 12.9691 1809 134.999 1112.54 411.286
1291 0 143.326 12.9146 1851 133.324 1112.83 408.47
1292 0 146.395 13.4499 1969 132.264 1112.99 406.542
1293 0 150.397 12.9989 1955 138.152 1113.35 405.931
1294 0 153.455 13.2417 2032 132.676 1113.38 403.928
1295 0 159.337 13.0102 2073 139.403 1113.28 400.694
1296 0 164.347 13.3376 2192 135.25 1113.08 398.353
1297 0 169.385 13.4781 2283 137.903 1113.36 395.355
1298 0 174.482 13.2564 2313 136.686 1113.03 392.337
1299 0 180.326 13.4202 2420 141 1113.6 389.638
1300 0 184.388 13.4065 2472 139.673 1113.47 387.674
1301 0 191.489 13.6092 2606 132.406 1113.42 385.182
1302 0 196.396 13.7935 2709 136.86 1114.55 381.357
1303 0 201.389 13.8786 2795 139.008 1114.53 377.289
1304 0 208.345 13.7992 2875 141.351 1113.86 374.156
1305 0 214.576 13.9857 3001 139.851 1113.68 372.367
1306 0 222.348 13.6858 3043 137.46 1113.28 367.726
1307 0 229.453 14.0682 3228 139.638 1113.19 365.49
1308 1 178.329 12.1573 2168 136.29 1113.18 391.359
1309 0 183.499 12.8175 2352 141.426 1113.17 387.037
1310 0 189.423 13.0396 2470 142.662 1113.24 382.018
1311 0 197.534 13.9065 2747 138.873 1113 379.454
1312 0 203.681 13.202 2689 134.742 1112.96 374.76
1313 0 210.579 13.7003 2885 141.233 1113.03 372.978
1314 0 215.418 13.5457 2918 127.737 1113.24 370.133
1315 1 56.0373 7.90545 443 118.684 1114.24 454.106
1316 0 61.0451 8.46914 517 115.652 1114.48 451.712
1317 0 63.0255 10.5989 668 118.528 1114.3 451.353
1318 0 65.2637 10.8789 710 126.061 1112.11 451.776
1319 0 66.2023 11.2232 743 125.793 1112.1 449.322
1320 0 69.0844 11.305 781 124.02 1110.93 448.969
1321 0 71.1021 10.9842 781 128.741 1110.61 448.201
1322 0 73.2692 11.178 819 119.647 1110.81 447.095
1323 0 73.0862 11.2333 821 126.677 1111.28 446.663
1324 0 75.1101 11.2635 846 123.418 1111.12 445.499
1325 0 78.1001 11.3188 884 121.861 1110.99 443.528
1326 0 79.2046 11.0852 878 123.081 1110.8 442.526
1327 0 83.1187 11.5257 958 125.965 1110.81 442.178
1328 0 87.3007 11.4661 1001 120.892 1110.86 440.197
1329 0 90.223 11.2388 1014 125.907 1110.96 439.146
1330 0 94.1762 11.0644 1042 126.231 1112.62 435.878
1331 0 97.1841 11.6068 1128 126.328 1113.09 433.842
1332 0 99.1749 11.0613 1097 122.853 1113.55 432.806
1333 0 101.153 10.7164 1084 120.741 1112.68 431.998
1334 1 57.0844 9.61735 549 126.661 1114.16 455.195
1335 0 58.039 9.66592 561 118.164 1113.76 454.756
1336 0 58.3933 10.8574 634 116.301 1112.24 453.992
1337 0 60.2006 10.681 643 123.471 1112.75 453.233
1338 0 61.1959 10.638 651 130.258 1112.65 452.401
1339 0 64.1715 10.8771 698 126.937 1112.3 451.666
1340 0 66.234 11.1876 741 129.134 1112.03 449.377
1341 0 68.162 10.6218 724 132.829 1112.21 449.717
1342 0 72.0729 13.6667 985 115.046 1109.82 444.825
1343 0 80.1286 13.7154 1099 109.475 1110.18 441.773
1344 1 111.256 10.9207 1215 107.213 1110.78 436.003
1345 0 110.237 10.4049 1147 113.048 1110.8 439.294
1346 0 112.39 11.0686 1244 106.715 1110.9 437.143
1347 0 112.913 14.0462 1586 99.8714 1110.98 428.242
1348 0 111.264 12.9422 1440 106.648 1111.59 433.644
1349 0 110.453 14.1237 1560 103.473 1111.38 429.606
1350 0 83.1046 13.7778 1145 121.049 1111.14 439.573
1351 0 83.0723 13.7832 1145 123.405 1111.33 439.413
1352 0 85.0559 14.1436 1203 124.255 1111.46 438.5
1353 1 96.3728 15.0354 1449 116.263 1112.59 433.397
1354 0 98.3842 15.1345 1489 112.647 1112.17 432.633
1355 0 94.3714 13.182 1244 130.863 1111.41 434.712
1356 0 97.2504 12.6683 1232 134.308 1111.42 433.489
1357 0 100.185 12.4271 1245 129.093 1111.6 433.134
1358 0 103.223 12.4197 1282 137.126 1111.29 432.905
1359 1 56.4587 11.4066 644 124.38 1111.88 455.225
1360 0 57.4079 11.7057 672 137.476 1111.6 454.638
1361 0 58.3102 12.0734 704 132.658 1112.09 452.793
1362 0 60.3295 12.1831 735 127.611 1113.32 451.831
1363 0 62.3099 12.3255 768 139.359 1114.27 451.405
1364 0 62.3736 12.4251 775 136.231 1113.07 450.345
1365 0 65.201 12.2544 799 133.543 1112.1 450.302
1366 0 65.3892 12.3109 805 138.671 1112.04 449.729
1367 0 67.2024 12.44 836 134.965 1112.29 447.748
1368 0 68.2084 12.6964 866 136.576 1111.89 447.656
1369 0 71.3334 12.4346 887 129.971 1111.78 446.586
1370 0 72.2203 12.6973 917 131.663 1111.36 445.807
1371 0 74.2286 12.8926 957 142.752 1111.8 446.723
1372 0 77.1077 12.6576 976 132.441 1112.26 444.047
1373 0 79.2801 12.2729 973 131.413 1112.87 442.718
1374 0 80.2088 12.8165 1028 123.161 1112.88 441.211
1375 0 84.1826 12.5204 1054 122.695 1112.97 441.565
1376 0 87.1404 12.6922 1106 124.549 1112.16 438.899
1377 0 90.158 12.1786 1098 126.797 1112.21 438.328
1378 0 91.1731 12.8218 1169 129.09 1112.16 437.428
1379 0 94.1156 13.0265 1226 127.893 1112.53 435.32
1380 0 100.186 13.2254 1325 123.367 1112.16 431.364
1381 1 53.037 10.6718 566 130 1111.6 455.965
1382 0 54.2261 12.0237 652 128.014 1112.73 455.687
1383 0 56.4508 11.8687 670 122.725 1113.53 452.504
1384 0 58.516 11.9796 701 126.031 1113.62 452.258
1385 0 58.4325 12.4246 726 115.61 1113.44 451.74
1386 0 59.3752 12.7157 755 118.664 1113.42 451.857
1387 0 61.0685 12.707 776 123.312 1114.74 452.192
1388 0 63.1031 12.6618 799 119.949 1114.91 450.778
1389 0 63.0261 12.8836 812 119.514 1114.3 450.581
1390 0 67.0796 13.1485 882 116.59 1114.56 449.622
1391 0 68.3205 13.2171 903 114.784 1114.75 447.914
1392 0 71.1121 13.0639 929 121.532 1113.22 447.525
1393 0 71.1959 13.4558 958 117.078 1113.2 446.718
1394 0 76.3108 12.7505 973 117.883 1114.22 445.749
1395 0 77.1932 13.1359 1014 119.544 1113.48 445.89
1396 0 79.4517 13.052 1037 117.282 1113.15 444.092
1397 0 82.2221 13.05 1073 119.51 1113.86 442.572
1398 0 83.4542 13.4805 1125 124.485 1114.27 441.825
1399 0 86.542 13.843 1198 120.945 1114.63 439.614
1400 0 89.4657 13.3683 1196 122.702 1114.37 439.003
1401 0 91.4193 13.1373 1201 123.306 1114.18 436.595
1402 0 94.4051 13.3997 1265 116.598 1113.42 436.219
1403 0 96.4301 13.9272 1343 120.477 1113.35 434.748
1404 0 100.493 13.6626 1373 125.341 1112.94 432.596
1405 0 104.287 14.019 1462 120.179 1112.25 430.71
1406 0 107.484 13.1927 1418 126.601 1112.79 428.998
1407 0 110.269 13.2404 1460 120.764 1112.85 428.445
1408 0 112.282 12.914 1450 117.387 1113.08 426.208
1409 1 62.129 10.4943 652 119.853 1113.25 452.587
1410 0 63.1847 11.2211 709 116.068 1113.22 450.98
1411 0 67.1088 12.3829 831 117.122 1113.37 451.205
1412 0 68.1336 12.3728 843 118.161 1113.44 451.235
1413 0 70.1335 12.4192 871 123.362 1113.79 451.365
1414 0 73.2007 12.4179 909 121.503 1113.6 449.162
1415 0 76.0653 12.6207 960 116.601 1112.41 448.162
1416 0 77.1732 12.8672 993 120.747 1112.1 447.183
1417 0 80.1294 12.692 1017 125.956 1111.76 444.944
1418 0 82.2169 12.5278 1030 122.717 1112.41 444.333
1419 0 83.0758 12.8076 1064 126.22 1112.2 444.376
1420 0 87.1216 13.1196 1143 125.664 1111.66 441.906
1421 0 91.2034 12.9272 1179 122.013 1111.68 441.454
1422 0 94.0354 12.9313 1216 124.625 1111.91 439.224
1423 0 97.1225 12.9321 1256 125 1112.28 438.17
1424 0 102.255 13.0556 1335 125.889 1112.41 435.155
1425 0 103.114 12.8402 1324 129.125 1111.56 435.818
1426 0 108.153 12.6025 1363 123.557 1110.95 433.706
1427 0 112.218 12.8054 1437 129.237 1110.63 431.696
1428 0 114.239 13.1478 1502 126.903 1110.44 428.214
1429 1 64.1624 10.0682 646 123.491 1108.12 453.772
1430 0 68.1562 10.3732 707 122.339 1108.64 451.897
1431 0 69.2228 10.7623 745 122.591 1108.69 450.216
1432 0 70.2848 11.9087 837 118.368 1109.11 449.324
1433 0 72.1187 11.6197 838 118.808 1107.5 449.456
1434 0 73.1443 11.5525 845 118.987 1107 448.386
1435 0 75.0736 11.9749 899 116.061 1107.21 445.54
1436 0 79.0867 11.9489 945 111.386 1107.37 444.912
1437 0 84.2601 12.2953 1036 116.98 1109.01 446.39
1438 0 85.1942 12.137 1034 109.48 1108.02 446.373
1439 0 87.2404 12.7349 1111 116.542 1107.95 444.364
1440 0 91.18 12.415 1132 114.105 1109.5 444.086
1441 0 93.1842 12.0085 1119 114.475 1109.27 442.707
1442 0 96.2773 12.2978 1184 117.788 1110.29 442.054
1443 0 100.289 12.4241 1246 120.264 1109.63 440.427
1444 1 55.1103 10.5425 581 121.329 1110.32 463.792
1445 0 56.1866 10.7855 606 113.644 1109.74 463.845
1446 0 57.3669 11.9058 683 117.326 1108.29 458.581
1447 0 58.1296 11.4399 665 110.186 1108.14 455.6
1448 0 60.066 11.6871 702 114.922 1107.24 454.014
1449 0 59.1151 11.3338 670 115.722 1107.35 454.234
1450 0 61.1512 11.5288 705 117.804 1107.08 453.576
1451 0 64.0479 11.3197 725 116.404 1107.64 451.35
1452 0 66.0484 12.0518 796 109.746 1107.53 451.329
1453 0 67.146 11.5271 774 117.067 1107.4 448.929
1454 0 69.3048 11.6442 807 115.232 1108.64 447.991
1455 0 72.2591 11.5695 836 114.4 1109.25 447.334
1456 0 74.2259 11.6806 867 117.644 1108.74 446.811
1457 0 74.3471 11.9978 892 113.447 1109.03 444.683
1458 0 79.1627 12.3164 975 113.223 1109.17 442.563
1459 0 81.4278 11.9247 971 113.784 1109.73 441.713
1460 1 41.3676 9.30681 385 116.161 1108.67 460.709
1461 0 44.2085 9.70402 429 117.555 1109.22 460.175
1462 0 46.4561 10.0525 467 110.64 1109.56 457.959
1463 0 49.1434 11.6598 573 114.401 1108.6 459.565
1464 0 53.2222 11.6493 620 117.992 1108.92 458.25
1465 0 55.1142 11.8844 655 116.93 1108.92 459.742
1466 0 54.02 11.9585 646 109.825 1109.1 458.859
1467 0 55.1377 11.8249 652 112.738 1110 458.949
1468 0 58.0336 12.2171 709 114.188 1110.03 457.378
1469 0 59.1039 12.4865 738 115.869 1110.29 457.247
1470 0 61.14 12.2669 750 120.259 1110.21 455.856
1471 0 62.208 12.0242 748 121.533 1110.52 454.878
1472 0 64.0348 12.6494 810 115.638 1110.7 453.404
1473 0 66.1706 12.5584 831 115.655 1110.01 452.697
1474 0 67.0546 13.2877 891 118.912 1110.68 453.16
1475 0 69.1239 13.0056 899 110.941 1110.4 451.897
1476 0 72.192 12.91 932 118.305 1110.73 449.514
1477 0 73.2396 13.4217 983 120.535 1110.87 448.345
1478 0 74.2153 13.1779 978 118.647 1111.04 447.859
1479 0 77.17 13.5675 1047 121.713 1111.2 446.459
1480 0 78.1944 13.3897 1047 123.874 1111.27 446.363
1481 0 82.1446 13.2084 1085 125.996 1111.57 444.675
1482 0 83.1934 13.4025 1115 124.908 1111.81 443.359
1483 0 87.2608 12.9153 1127 122.897 1111.92 443.045
1484 0 90.41 12.8304 1160 123.026 1111.97 441.277
1485 0 91.187 13.6204 1242 121.49 1111.73 438.655
1486 0 93.2181 13.1305 1224 127.605 1111.2 438.121
1487 0 99.2537 13.2287 1313 125.382 1111.79 436.954
1488 1 56.1944 11.7449 660 122.173 1111.9 457.602
1489 0 57.3143 12.3355 707 120.475 1113.07 455.912
1490 0 59.4379 12.6014 749 126.68 1112.6 456.371
1491 0 62.3261 12.7876 797 120.483 1112.44 455.627
1492 0 64.2003 12.6323 811 126.523 1112.48 455.256
1493 0 64.2484 12.8408 825 130.205 1112.61 454.228
1494 0 67.101 13.1742 884 125.652 1112.57 453.037
1495 0 68.2592 13.4487 918 126.132 1112.35 452.324
1496 0 70.2075 13.2749 932 128.343 1112.41 451.702
1497 0 73.201 13.2512 970 131.166 1112.34 450.086
1498 0 76.2854 12.9514 988 127.542 1111.86 448.826
1499 0 78.3125 13.0886 1025 122.074 1111.78 448.135
1500 0 81.2863 12.8066 1041 124.078 1111.56 447.045
1501 0 81.3452 13.4488 1094 128.192 1111.36 443.284
1502 0 85.3913 13.5143 1154 123.802 1111.3 441.961
1503 0 86.3649 13.2809 1147 126.485 1111.76 442.477
1504 0 89.3551 13.5079 1207 123.917 1111.34 440.606
1505 0 90.2996 12.7354 1150 124.731 1110.92 435.244
1506 0 94.6597 13.2158 1251 123.731 1110.59 434.138
1507 0 99.5551 13.3293 1327 118.986 1110.8 432.022
1508 0 101.473 12.9985 1319 121.66 1111.18 431.975
1509 1 56.1105 10.6754 599 123.758 1110.24 455.055
1510 0 58.273 10.8112 630 121.957 1109.83 455.316
1511 0 62.0693 11.4066 708 116.684 1109.6 455.538
1512 0 65.0412 11.2544 732 119.444 1109.3 457.112
1513 0 64.1049 11.84 759 119.393 1109.25 455.136
1514 0 66.2148 12.4444 824 109.858 1110.1 454.768
1515 0 69.2071 11.4295 791 114.526 1110.2 454.072
1516 0 70.3273 12.3565 869 116.234 1110.07 452.41
1517 0 74.2417 11.3548 843 111.189 1110.12 451.846
1518 0 77.3113 11.9775 926 116.178 1109.85 449.886
1519 0 79.3246 11.7492 932 116.781 1109.44 450.115
1520 0 80.2409 12.612 1012 117.914 1109.45 449.003
1521 0 83.2541 12.2396 1019 120.963 1109.64 447.034
1522 0 87.2293 12.106 1056 119.23 1108.74 444.772
1523 0 87.2293 12.106 1056 143.068 1108.74 444.772
1524 1 50.2164 9.67812 486 123.337 1108.17 465.877
1525 0 50.1684 9.4681 475 121.716 1108.48 465.267
1526 0 52.2263 10.8183 565 126.09 1108.09 463.747
1527 0 55.5375 11.0736 615 128.87 1108.15 461.976
1528 0 56.3056 10.9225 615 126.928 1108.53 461.728
1529 0 57.2446 11.2849 646 130.734 1108.68 461.348
1530 0 59.3111 11.2627 668 129.451 1109.82 460.367
1531 0 61.2423 11.4137 699 130.209 1110.85 459.73
1532 0 62.3371 11.8228 737 130.318 1110.4 458.242
1533 0 64.2628 11.5463 742 128.849 1110.94 457.796
1534 0 65.2941 11.2261 733 136.626 1110.74 458.065
1535 0 66.312 11.8983 789 130.943 1110.39 456.512
1536 0 69.3872 11.9763 831 129.226 1109.98 455.464
1537 0 71.3708 11.9096 850 126.764 1110.18 453.786
1538 0 72.377 12.4625 902 132.673 1110.9 452.188
1539 0 75.3955 12.2156 921 140.885 1111.01 451.001
1540 0 79.3454 12.0612 957 137.062 1110.84 451.235
1541 0 81.3349 12.1596 989 138.055 1110.86 450.043
1542 0 81.658 12.2462 1000 145.072 1110.78 448.191
1543 0 85.4577 12.1932 1042 137.681 1110.28 445.215
1544 0 87.5169 12.0548 1055 138.809 1110.28 444.243
1545 1 50.2723 10.0254 504 138.411 1110.94 464.077
1546 0 51.421 10.6766 549 138.627 1110.65 464.634
1547 0 52.1902 10.4042 543 141.993 1110.71 463.814
1548 0 56.1155 10.9061 612 137.688 1112 462.101
1549 0 57.2081 11.7291 671 134.116 1109.97 459.469
1550 0 57.2081 11.7291 671 150.677 1108.97 459.469
1551 0 63.2018 11.3604 718 146.584 1109.96 458.818
1552 0 63.1572 11.701 739 148.214 1110.39 458.129
1553 0 64.1019 12.0901 775 146.717 1111.27 456.653
1554 0 65.0988 11.6438 758 145.873 1111.46 456.781
1555 0 68.1414 12.1365 827 145.336 1110.19 454.423
1556 0 69.2968 12.4681 864 146.391 1109.72 454.115
1557 0 72.19 12.1762 879 146.126 1110.13 453.757
1558 0 75.284 12.7251 958 144.704 1110.22 451.515
1559 0 74.3876 12.4214 924 143.392 1110.11 450.619
1560 0 78.3294 12.69 994 151.795 1109.89 451.063
1561 0 78.5434 13.0119 1022 147.162 1110.2 449.35
1562 0 81.5406 13.061 1065 151.285 1111.11 447.44
1563 0 83.5124 13.016 1087 150.16 1110.79 446.154
1564 0 88.2684 13.323 1176 154.088 1110.82 445.442
1565 0 90.621 13.0985 1187 153.723 1110.85 444.013
1566 0 93.4532 13.4827 1260 148.316 1112.15 441.769
1567 0 95.5489 13.3126 1272 148.96 1111.73 439.992
1568 0 98.4144 13.2399 1303 145.507 1111.37 439.183
1569 0 100.576 13.1244 1320 145.845 1111.61 436.89
1570 0 103.591 13.0996 1357 151.926 1111.89 432.108
1571 0 106.847 13.1309 1403 152.412 1111.78 431.043
1572 0 110.618 13.1896 1459 153.57 1111.59 429.42
1573 0 115.555 13.2232 1528 149.615 1112.12 427.656
1574 1 64.5437 11.5581 746 149.802 1112.97 450.487
1575 0 66.5528 12.1107 806 142.208 1113.33 448.99
1576 0 67.4517 12.7499 860 44.5837 1112.86 449.654
1577 0 70.4816 12.3437 870 139.339 1112.89 448.215
1578 0 72.3023 13.001 940 140.821 1112.66 447.665
1579 0 74.4148 12.7528 949 136.39 1112.66 445.578
1580 0 75.3261 12.6915 956 142.327 1113 447.705
1581 0 77.2088 12.5892 972 136.056 1113.18 445.462
1582 0 79.4198 13.1202 1042 130.972 1113.03 444.884
1583 0 83.251 12.8287 1068 134.236 1113.12 444.728
1584 0 85.3351 13.4177 1145 132.049 1113.09 443.307
1585 0 87.2893 13.3693 1167 134.654 1113.33 441.877
1586 0 88.5065 13.5018 1195 134.574 1113.21 440.255
1587 0 93.2759 13.3368 1244 131.395 1112.84 438.396
1588 0 94.4544 13.5939 1284 134.643 1113.35 436.57
1589 0 99.5615 13.4791 1342 121.544 1113.3 436.382
1590 0 100.513 13.839 1391 131.735 1113.53 435.294
1591 0 103.361 13.8833 1435 130.004 1112.68 428.821
1592 0 105.442 13.6473 1439 127.654 1113.4 430.434
1593 0 108.446 13.5091 1465 130.701 1113.17 429.805
1594 0 111.634 13.7234 1532 125.888 1112.7 426.725
1595 0 117.563 13.8989 1634 123.77 1113.11 426.578
1596 1 66.4151 11.4883 763 124.292 1112.78 451.771
1597 0 67.1232 11.4416 768 121.134 1113.2 449.6
1598 0 70.1738 12.2125 857 116.173 1112.73 450.323
1599 0 71.2658 12.2499 873 115.648 1112.13 449.503
1600 0 73.16 12.1241 887 112.979 1112.51 448.837
1601 0 77.1563 12.3904 956 114.627 1112.69 447.524
1602 0 78.3219 12.2571 960 42.3562 1112.63 446.53
1603 0 81.2746 12.2794 998 104.412 1112.64 445.314
1604 0 83.3946 12.4708 1040 108.317 1112.3 443.387
1605 0 87.4048 12.8483 1123 109.138 1112.33 442.428
1606 0 88.4208 12.6441 1118 112.732 1112.45 441.478
1607 0 91.4174 12.8203 1172 111.21 1112.3 439.507
1608 0 92.3678 12.775 1180 111.264 1111.93 438.814
1609 0 96.4145 12.6641 1221 109.753 1111.85 437.256
1610 0 100.468 12.5214 1258 111.145 1111.97 435.054
1611 0 102.548 13.0475 1338 116.191 1111.73 433.422
1612 0 105.375 12.4982 1317 117.777 1111.45 432.658
1613 0 109.476 12.9983 1423 118.465 1111.3 430.181
1614 0 113.557 12.7865 1452 117.416 1111.15 428.496
1615 1 63.4089 10.5348 668 122.967 1111.62 455.253
1616 0 63.24 11.5275 729 114.46 1111.71 455.099
1617 0 66.1477 11.7918 780 113.795 1111.56 453.503
1618 0 68.148 12.2821 837 120.012 1111.03 452.599
1619 0 70.2533 12.0991 850 120.941 1111.02 451.247
1620 0 73.1207 11.9802 876 124.282 1110.28 450.174
1621 0 74.3089 11.8963 884 121.725 1110.05 448.919
1622 0 76.3714 12.3607 944 120.939 1110.31 448.31
1623 0 78.3182 12.296 963 119.869 1110.63 448.351
1624 0 81.2808 12.3768 1006 26.0905 1110.61 447.895
1625 0 85.38 12.2628 1047 118.17 1110.2 446.599
1626 0 88.31 11.9466 1055 121.977 1109.94 445.159
1627 0 90.2557 12.0768 1090 125.055 1109.37 443.972
1628 0 92.2049 12.6024 1162 125.579 1109.1 442.505
1629 0 94.3098 12.5968 1188 122.124 1109.03 441.154
1630 0 98.361 12.322 1212 124.723 1109.33 439.859
1631 0 100.365 12.056 1210 128.325 1109.22 438.863
1632 1 56.2092 10.3186 580 121.44 1109.47 461.103
1633 0 58.2636 10.6928 623 123.324 1110.48 458.782
1634 0 59.3386 10.7013 635 122.244 1110.89 459.573
1635 0 60.1922 11.4965 692 115.065 1110.6 457.827
1636 0 61.1087 11.7168 716 127.27 1109.44 458.863
1637 0 62.1922 12.1398 755 122.307 1109.61 459.064
1638 0 63.1661 11.8418 748 124.068 1110.25 455.766
1639 0 67.1232 11.7694 790 127.797 1109.62 456.497
1640 0 70.2749 12.0242 845 126.824 1109.6 453.936
1641 0 69.3879 12.5238 869 120.484 1109.48 453.254
1642 0 73.3777 12.1426 891 123.838 1109.86 451.559
1643 0 74.5006 12.3623 921 125.419 1110.15 451.656
1644 0 79.5941 11.634 926 119.455 1110.64 449.982
1645 0 79.5083 12.7157 1011 121.061 1110 449.098
1646 0 83.5239 12.4515 1040 119.753 1110.46 445.873
1647 0 84.6389 11.9685 1013 118.011 1109.17 446.182
1648 0 87.437 12.6949 1110 119.545 1109.17 444.483
1649 0 89.8724 12.6068 1133 121.783 1109.09 443.984
1650 0 94.4982 11.9261 1127 126.655 1109.28 442.74
1651 0 94.4324 12.4851 1179 120.461 1109.68 441.025
1652 0 99.7746 12.5683 1254 123.513 1109.61 439.003
1653 0 102.568 12.7916 1312 123.535 1110.24 437.519
1654 0 105.521 12.4335 1312 126.152 1109.65 435.877
1655 0 108.531 12.5217 1359 127.297 1110.33 434.6
1656 0 110.473 12.7542 1409 129.917 1110.89 432.721
1657 0 115.483 12.8071 1479 130.12 1110.86 431.478
1658 0 120.412 12.9639 1561 130.398 1111.07 428.803
1659 0 122.629 12.6806 1555 132.15 1111.09 426.948
1660 1 70.3931 11.2795 794 129.923 1110.09 453.761
1661 0 70.2235 12.0472 846 121.368 1110.31 450.517
1662 0 72.2045 12.1876 880 128.486 1110.65 450.198
1663 0 74.1893 12.3468 916 128.516 1111.03 449.05
1664 0 78.2071 13.3364 1043 120.997 1111.43 447.525
1665 0 80.2247 12.9387 1038 124.537 1111.07 445.829
1666 0 84.3564 12.791 1079 121.75 1110.87 443.525
1667 0 84.4894 13.1022 1107 116.868 1111.24 443.906
1668 0 85.3525 13.3681 1141 122.397 1111.1 441.229
1669 0 89.6841 13.2465 1188 125.268 1111.42 437.731
1670 0 90.5873 13.4014 1214 126.548 1112.12 436.297
1671 0 95.6511 13.1206 1255 129.019 1112.1 435.115
1672 0 98.5419 13.3446 1315 125.188 1111.91 432.303
1673 0 101.501 13.4481 1365 119.135 1112.23 431.842
1674 0 105.75 13.5981 1438 126.907 1111.92 431.656
1675 0 107.612 13.7625 1481 129.154 1112.37 428.742
1676 0 111.469 13.4297 1497 132.949 1112.27 428.487
1677 0 115.985 13.1482 1525 133.45 1112.44 426.54
1678 1 60.6717 12.0979 734 127.282 1112.02 450.932
1679 0 61.864 12.5598 777 127.497 1112.92 450.135
1680 0 63.8055 12.6165 805 125.979 1112.55 449.755
1681 0 66.8151 12.2427 818 128.153 1112.9 448.082
1682 0 67.7201 12.6698 858 124.558 1112.87 446.686
1683 0 71.0564 12.8208 911 122.395 1112.64 445.629
1684 0 75.2414 12.6127 949 129.976 1112.89 443.612
1685 0 77.0356 12.8772 992 127.315 1112.69 442.666
1686 0 76.7932 12.9959 998 129.536 1112.61 441.579
1687 0 81.7113 13.1806 1077 132.183 1112.66 440.882
1688 0 81.7095 13.6826 1118 127.112 1112.32 437.832
1689 0 86.5332 13.4053 1160 130.99 1112.52 437.93
1690 0 87.8196 13.6758 1201 133.305 1112.22 435.788
1691 0 90.737 13.7981 1252 132.747 1112.16 433.441
1692 0 93.5676 13.1563 1231 135.065 1111.9 431.196
1693 0 97.7812 13.3973 1310 135.796 1112.33 430.805
1694 0 100.595 13.3803 1346 136.053 1112.42 428.444
1695 1 56.7761 11.4485 650 139.925 1112.11 452.44
1696 0 58.9137 11.8988 701 131.986 1112.43 452.461
1697 0 60.8263 12.6754 771 128.677 1112.48 453.7
1698 0 62.9159 12.7313 801 136.004 1112.48 453.578
1699 0 62.6002 13.3067 833 137.915 1112.44 452.549
1700 0 67.8685 12.4947 848 134.922 1112.12 449.321
1701 0 70.2584 12.3829 870 132.416 1112.17 448.08
1702 0 69.7555 12.9739 905 135.937 1111.68 447.61
1703 0 74.9528 12.8748 965 135.335 1111.97 446.058
1704 0 75.9504 13.1665 1000 129.232 1111.91 445.373
1705 0 75.9108 13.3183 1011 139.634 1111.22 444.635
1706 0 79.7556 13.3282 1063 128.276 1111.76 443.59
1707 0 81.6998 13.06 1067 132.156 1111.63 443.358
1708 0 84.8208 13.558 1150 130.289 1111.49 440.175
1709 0 89.8953 12.5813 1131 136.703 1111.32 439.905
1710 0 92.0768 12.9023 1188 136.06 1110.79 437.565
1711 0 94.0992 12.795 1204 133 1110.36 438.098
1712 0 97.8607 12.8857 1261 133.437 1110.55 437.902
1713 1 53.4405 10.9655 586 127.256 1110.69 461.225
1714 0 57.3775 11.5725 664 132.271 1109.89 460.474
1715 0 57.1449 12.0046 686 127.364 1110.12 459.398
1716 0 60.1336 11.8403 712 130.559 1109.39 458.881
1717 0 60.1833 11.9468 719 134.569 1109.72 458.499
1718 0 62.2389 11.8575 738 124.156 1110.19 457.626
1719 0 64.0544 12.1303 777 131.057 1110.22 456.731
1720 0 67.1403 12.0792 811 127.242 1109.71 455.721
1721 0 68.4022 12.8212 877 127.542 1110.18 454.588
1722 0 71.2956 12.4832 890 132.518 1110.09 454.627
1723 0 73.5199 12.7721 939 129.705 1109.46 453.126
1724 0 73.5206 12.8535 945 126.641 1109.39 453.105
1725 0 76.5022 12.8232 981 129.519 1109.91 451.879
1726 0 79.384 13.0253 1034 127.626 1110.04 449.602
1727 0 80.5461 13.1353 1058 124.359 1110.48 446.448
1728 0 81.4587 13.1478 1071 126.535 1110.47 444.141
1729 0 86.501 12.9131 1117 132.006 1110.57 444.857
1730 0 86.8194 13.1998 1146 127.356 1110.7 443.697
1731 0 90.3342 12.8301 1159 132.06 1109.52 439.728
1732 0 94.5898 12.9189 1222 133.529 1110.11 439.921
1733 0 95.4728 12.6528 1208 126.373 1109.3 438.81
1734 0 98.4515 13.0927 1289 136.716 1108.74 437.427
1735 0 101.553 12.8899 1309 139.981 1108.86 437.639
1736 0 105.318 12.9133 1360 135.965 1108.91 436.337
1737 1 57.2618 10.1289 580 140.3 1109.7 461.5
1738 0 60.1458 10.6907 643 136.202 1110.31 460.46
1739 0 62.1273 11.1062 690 136.823 1109.93 456.965
1740 0 64.3611 11.4821 739 139.989 1108.54 457.249
1741 0 64.3091 11.5847 745 135.393 1108.03 457.138
1742 0 66.5529 11.5547 769 137.692 1108.06 455.241
1743 0 67.4001 11.6172 783 134.409 1108 454.004
1744 0 71.3383 11.8169 843 134.604 1106.83 448.089
1745 0 75.5299 12.2733 927 142.055 1106.8 451.072
1746 0 77.2165 12.3678 955 135.83 1106.5 450.653
1747 0 76.3132 12.9073 985 137.204 1106.64 448.995
1748 0 80.1931 13.1557 1055 133.75 1106.69 447.799
1749 0 82.389 13.3756 1102 133.174 1107.43 447.589
1750 0 85.1125 13.1356 1118 125.547 1109.1 448.633
1751 0 87.2721 13.0053 1135 140.581 1109.19 447.863
1752 0 90.3121 13.2873 1200 130.317 1109.08 446.712
1753 0 95.3101 13.22 1260 139.083 1108.58 444.335
1754 0 98.1845 13.1793 1294 138.119 1108.71 443.446
1755 0 100.239 13.5676 1360 136.992 1108.86 441.099
1756 0 102.276 13.3756 1368 138.191 1109.1 439.442
1757 0 106.298 13.4434 1429 139.609 1109.06 438.55
1758 0 109.244 13.3737 1461 139.125 1108.63 435.063
1759 1 60.2946 11.0789 668 143.006 1111.49 458.642
1760 0 61.1414 11.8905 727 141.785 1111.24 458.429
1761 0 65.1348 12.62 822 138.44 1110.58 456.036
1762 0 67.2006 11.9047 800 141.215 1110.78 457.242
1763 0 67.0668 12.5397 841 139.302 1111.1 457.316
1764 0 70.1893 12.6515 888 135.378 1111.08 454.936
1765 0 72.0741 12.5427 904 135.969 1110.7 454.15
1766 0 75.0745 12.4943 938 143.187 1110.7 452.873
1767 0 77.0612 13.6515 1052 133.465 1111.3 450.073
1768 0 80.0619 13.1648 1054 139.255 1111.06 450.302
1769 0 81.1923 13.2279 1074 141.193 1111.35 449.82
1770 0 84.2063 13.2175 1113 136.694 1111.34 447.963
1771 0 85.2167 13.2955 1133 136.335 1111.19 446.914
1772 0 88.0656 13.4445 1184 145.962 1110.52 445.048
1773 0 90.1339 13.6796 1233 141.6 1111.24 443.645
1774 0 94.1805 13.145 1238 140.278 1111.08 442.158
1775 0 99.1517 12.9599 1285 139.433 1111.62 441.36
1776 0 100.296 13.5001 1354 138.023 1111.47 439.991
1777 0 103.315 13.4927 1394 134.975 1111.59 438.135
1778 0 106.185 13.6366 1448 133.332 1111.95 436.748
1779 0 110.366 13.7905 1522 140.16 1111.28 434.535
1780 0 110.366 13.7905 1522 161.415 1110.28 434.535
1781 0 115.186 13.9079 1602 138.74 1111.54 431.239
1782 0 118.508 13.9232 1650 141.542 1111.93 429.543
1783 0 122.247 13.7263 1678 143.197 1111.83 426.647
1784 1 74.3574 11.4716 853 144.789 1112.42 452.655
1785 0 77.3328 12.4785 965 141.634 1112.51 450.91
1786 0 78.1732 12.2804 960 133.031 1112.42 451.051
1787 0 80.3808 12.4035 997 138.491 1112.53 449.999
1788 0 82.3623 12.5057 1030 146.091 1112.68 448.286
1789 0 85.3293 12.5279 1069 143.613 1112.34 446.943
1790 0 87.2626 12.7546 1113 143.202 1112.4 445.43
1791 0 91.1249 12.5871 1147 145.904 1112.3 444.101
1792 0 91.2359 13.1418 1199 150.444 1111.92 443.118
1793 0 94.2623 13.4306 1266 139.077 1111.96 441.912
1794 0 97.3606 13.0648 1272 147.757 1112.47 441.093
1795 0 100.313 13.6074 1365 154.327 1112.18 439.187
1796 0 102.26 13.759 1407 158.041 1112.49 438.325
1797 0 104.385 13.9197 1453 153.553 1111.57 434.949
1798 0 109.602 13.7407 1506 147.568 1110.98 433.414
1799 0 111.63 13.9031 1552 153.278 1111.49 432.557
1800 0 114.491 13.608 1558 155.711 1111.17 430.198
1801 0 117.527 13.5373 1591 157.247 1111.08 429.872
1802 0 120.514 14.0648 1695 147.671 1110.54 427.968
1803 0 124.386 14.1013 1754 131.146 1110.64 425.118
1804 0 129.44 13.9293 1803 151.355 1110.97 424.316
1805 1 72.1285 11.7429 847 146.651 1109.95 451.712
1806 0 74.1344 11.9378 885 146.093 1109.8 451.111
1807 0 77.0445 12.5772 969 136.36 1110.31 450.082
1808 0 80.1573 12.5129 1003 139.069 1110.11 448.671
1809 0 82.1606 12.3417 1014 145.865 1110.64 448.678
1810 0 85.3029 12.6139 1076 140.984 1110.04 446.309
1811 0 87.2507 12.7105 1109 138.718 1110.23 446.398
1812 0 91.3507 12.6545 1156 141.267 1110.03 444.054
1813 0 93.2826 12.9392 1207 141.096 1110.5 443.451
1814 0 94.3429 12.974 1224 137.026 1110.22 441.518
1815 0 98.2814 13.3494 1312 136.616 1110.72 439.672
1816 0 100.376 13.2302 1328 140.32 1110.59 438.788
1817 0 102.402 13.281 1360 144.623 1110.28 437.31
1818 0 105.302 13.3236 1403 145.968 1109.85 436.587
1819 0 108.294 13.1586 1425 142.934 1109.74 434.082
1820 0 111.333 13.3563 1487 139.974 1108.95 431.94
1821 0 115.299 13.5561 1563 140.16 1108.51 429.639
1822 0 120.424 13.8594 1669 136.044 1108.75 427.688
1823 1 68.0886 10.5745 720 139.186 1108.8 456.311
1824 0 68.1175 11.0691 754 140.237 1108.44 454.507
1825 0 72.0754 11.3492 818 134.744 1108.51 451.864
1826 0 74.2019 11.9269 885 132.383 1110.03 452.652
1827 0 77.1078 12.1129 934 133.613 1110.7 452.84
1828 0 78.0476 12.6461 987 130.658 1110.88 451.095
1829 0 82.0986 12.2901 1009 134.772 1110.62 449.395
1830 0 83.0643 12.376 1028 132.424 1109.81 448.348
1831 0 86.2173 12.7469 1099 134.665 1110.01 447.043
1832 0 88.1738 12.6001 1111 142.473 1109.7 446.221
1833 0 92.1542 12.6744 1168 137.03 1110.01 444.074
1834 0 95.3455 12.9109 1231 142.806 1109.33 442.997
1835 0 98.1693 13.1304 1289 144.761 1109.15 442.345
1836 0 101.212 13.0815 1324 144.741 1109.06 440.65
1837 0 101.254 12.9871 1315 142.049 1108.66 440.418
1838 0 105.263 12.9865 1367 142.252 1108.35 437.793
1839 0 108.163 12.9896 1405 151.027 1107.99 437.073
1840 0 110.242 12.9806 1431 146.59 1109.05 435.853
1841 0 113.176 13.2183 1496 148.691 1108.82 434.404
1842 0 116.242 13.3858 1556 144.793 1108.03 431.625
1843 0 118.174 13.0908 1547 147.496 1108.21 430.052
1844 0 120.185 13.1714 1583 144.925 1107.76 428.709
1845 0 128.357 13.4625 1728 144.797 1108.62 424.769
1846 0 133.447 13.3011 1775 147.452 1108.72 424.119
1847 1 75.2657 11.1605 840 141.283 1108.41 455.582
1848 0 77.3232 11.8593 917 142.414 1108.44 455.299
1849 0 80.3222 11.8647 953 142.022 1108.6 452.608
1850 0 82.3566 11.8873 979 138.375 1108.19 451.938
1851 0 84.2476 12.3564 1041 134.454 1108.61 450.97
1852 0 87.3998 12.1854 1065 135.21 1108.12 447.61
1853 0 88.365 12.3126 1088 135.2 1108.44 448.014
1854 0 91.3719 12.3451 1128 143.356 1107.33 446.206
1855 0 96.4982 12.2697 1184 137.553 1107.97 444.497
1856 0 97.4258 12.4608 1214 138.33 1107.53 443.822
1857 0 100.456 12.0948 1215 143.161 1107.15 441.942
1858 0 104.474 12.539 1310 140.111 1107.45 440.245
1859 0 108.518 12.4127 1347 140.736 1107.48 437.908
1860 0 110.637 12.6178 1396 138.069 1107.37 436.236
1861 0 114.638 12.4828 1431 139.767 1107.32 433.059
1862 0 118.9 12.2624 1458 141.136 1107.28 431.34
1863 0 120.812 12.4159 1500 153.459 1108.09 429.005
1864 1 68.8707 10.3527 713 150.363 1108.25 456.893
1865 0 69.5182 10.8605 755 152.008 1108.55 453.208
1866 0 70.4596 11.6521 821 146.998 1108.67 453.638
1867 0 73.3852 11.9234 875 144.918 1109.02 452.326
1868 0 77.4265 11.8693 919 141.704 1109.07 453.061
1869 0 80.554 11.5699 932 144.9 1108.77 452.219
1870 0 83.5629 12.2303 1022 142.059 1108.94 450.323
1871 0 83.405 11.9297 995 141.472 1109 450.348
1872 0 87.5235 11.7911 1032 144.953 1109.61 447.712
1873 0 91.5749 12.0339 1102 145.845 1109.14 445.328
1874 0 92.5961 12.1387 1124 144.751 1109.29 442.907
1875 0 97.7486 11.949 1168 148.873 1109.04 442.54
1876 0 98.5833 12.4362 1226 133.902 1108.98 440.742
1877 0 102.826 12.2829 1263 137.37 1109.35 439.793
1878 0 105.816 12.4744 1320 140.833 1109.17 436.81
1879 0 108.747 12.5889 1369 141.9 1109.92 435.709
1880 0 109.702 12.6889 1392 143.747 1109.72 433.94
1881 1 59.4411 10.2623 610 140.303 1110.06 460.036
1882 0 63.5852 10.6157 675 142.504 1110.22 458.108
1883 0 64.6781 10.4982 679 145.021 1109.87 457.611
1884 0 64.5252 10.523 679 137.091 1109.85 456.648
1885 0 67.414 11.3775 767 140.552 1110.05 454.259
1886 0 70.5839 12.0141 848 139.441 1110.78 453.623
1887 0 73.3834 12.5505 921 127.557 1111.14 451.911
1888 0 73.2621 12.4348 911 133.451 1111.08 451.428
1889 0 76.3341 12.1833 930 132.088 1111.54 450.778
1890 0 80.4043 11.865 954 131.451 1111.36 448.539
1891 0 82.3847 12.1746 1003 132.596 1111.45 447.567
1892 0 84.4452 12.292 1038 126.64 1111.75 446.5
1893 0 88.5331 12.3118 1090 129.199 1111.96 444.836
1894 0 88.3675 12.8667 1137 132.579 1112.05 443.579
1895 0 92.3595 12.5271 1157 131.765 1111.85 442.713
1896 0 95.4674 12.4231 1186 134.855 1111.12 441.233
1897 0 98.5882 12.6283 1245 128.22 1111.72 440.89
1898 0 101.312 12.7132 1288 130.877 1111.48 439.545
1899 0 106.3 13.9417 1482 129.578 1111.59 437.012
1900 0 108.508 12.6903 1377 132.943 1111.5 436.072
1901 0 108.507 12.9945 1410 133.077 1111.45 434.488
1902 0 113.292 13.0017 1473 133.452 1111.52 433.794
1903 0 114.39 13.2966 1521 136.034 1111.54 431.842
1904 1 63.1479 11.5602 730 132.496 1111.19 456.103
1905 0 66.2448 11.9406 791 128.197 1111.1 454.822
1906 0 67.4233 12.3696 834 128.272 1110.92 455.558
1907 0 68.2343 12.0028 819 126.897 1110.62 453.834
1908 0 71.323 12.4504 888 122.168 1111.25 453.605
1909 0 72.233 12.612 911 121.835 1110.83 453.625
1910 0 74.3063 12.5696 934 129.837 1110.98 451.05
1911 0 77.2118 12.4722 963 120.444 1111.15 451.979
1912 0 81.2355 12.4084 1008 118.705 1111.59 450.295
1913 0 83.2867 12.3429 1028 118.331 1111.11 448.34
1914 0 85.3161 12.3775 1056 118.547 1111.24 447.602
1915 0 88.3353 12.7242 1124 121.761 1110.44 445.76
1916 0 90.4745 12.2244 1106 116.943 1111.15 445.108
1917 0 93.4314 12.651 1182 119.338 1110.2 443.208
1918 0 98.2498 13.4453 1321 113.867 1110.09 440.537
1919 0 100.25 12.3591 1239 113.399 1110.42 441.218
1920 0 103.35 13.6526 1411 112.526 1110.52 437.586
1921 1 55.129 10.3031 568 109.204 1109.16 462.588
1922 0 58.2441 10.662 621 109.95 1109.28 461.583
1923 0 61.2363 10.6146 650 116.977 1108.94 462.074
1924 0 62.1476 11.3601 706 113.436 1109.18 460.465
1925 0 64.288 11.604 746 111.166 1108.57 458.311
1926 0 66.2708 12.0264 797 107.714 1108.76 458.571
1927 0 66.3314 12.3923 822 114.321 1108.25 457.321
1928 0 70.2928 12.1634 855 111.968 1108.44 456.062
1929 0 70.2252 12.4741 876 116.451 1109.02 453.795
1930 0 74.3843 12.301 915 110.929 1108.58 454.661
1931 0 74.4551 12.4236 925 114.789 1108.79 454.824
1932 0 76.5262 12.6754 970 110.306 1108.75 454.365
1933 0 80.3806 12.6274 1015 115.291 1108.89 452.432
1934 0 81.398 13.1821 1073 116.938 1109.17 451.692
1935 0 83.5468 12.891 1077 115.941 1108.95 450.335
1936 0 84.2574 13.435 1132 121.985 1108.75 449.743
1937 0 89.4382 13.0034 1163 122.027 1108.76 448.033
1938 0 90.5842 13.1921 1195 121.181 1108.63 444.529
1939 0 93.5959 13.5155 1265 116.662 1108.47 442.494
1940 0 97.7947 13.0886 1280 121.237 1108.21 442.212
1941 0 99.5324 13.7041 1364 120.628 1108.85 433.41
1942 0 102.612 13.2344 1358 123.666 1108.69 435.918
1943 0 105.388 13.0945 1380 120.192 1108.4 434.363
1944 0 109.487 13.2618 1452 123.895 1109.05 432.716
1945 0 112.555 13.6023 1531 122.003 1108.49 430.362
1946 1 62.2601 12.3996 772 118.916 1107.98 458.092
1947 0 65.2232 12.8482 838 122.329 1107.84 460.568
1948 0 66.2112 12.4903 827 124.417 1106.94 459.984
1949 0 69.3684 12.6859 880 122.538 1107.26 459.352
1950 0 72.421 12.5516 909 124.146 1107.33 457.274
1951 0 73.5719 12.7902 941 118.265 1107.45 456.141
1952 0 77.3482 12.9286 1000 123.161 1107.99 455.643
1953 0 78.4688 12.9733 1018 126.367 1108.03 454.223
1954 0 80.4061 12.9343 1040 123.447 1107.72 452.912
1955 0 80.5082 13.1912 1062 127.332 1107.48 451.062
1956 0 85.4158 12.9601 1107 131.764 1108.69 449.199
1957 0 86.5557 13.136 1137 139.296 1107.96 448.691
1958 0 89.7601 13.3244 1196 140.391 1108.86 445.08
1959 0 92.721 12.8989 1196 136.806 1107.9 444.105
1960 0 95.6937 13.2715 1270 135.907 1107.65 440.694
1961 0 97.7703 12.9692 1268 135.649 1108.09 441.338
1962 0 100.739 13.3215 1342 128.855 1107.93 439.941
1963 0 104.732 13.2433 1387 132.311 1108.65 437.321
1964 0 108.777 13.4495 1463 135.293 1108.7 436.185
1965 0 111.701 13.1691 1471 132.038 1107.95 433.125
1966 1 64.5379 11.8535 765 134.277 1107.91 456.21
1967 0 66.2845 11.8429 785 133.763 1108.6 454.811
1968 0 66.1742 13.2378 876 135.894 1106.76 453.531
1969 0 70.1049 13.1374 921 139.224 1107.73 454.577
1970 0 73.192 13.1845 965 132.395 1107.86 453.088
1971 0 74.096 13.0236 965 134.568 1108.92 452.888
1972 0 77.1102 13.2149 1019 135.248 1109.56 453.457
1973 0 79.1343 13.1422 1040 134.094 1109.88 450.188
1974 0 83.1608 13.2033 1098 132.878 1110.06 449.047
1975 0 83.0944 13.599 1130 136.846 1109.8 447.49
1976 0 86.2883 13.3738 1154 141.887 1109.96 446.627
1977 0 89.2839 13.4515 1201 138.097 1110.38 444.714
1978 0 93.3397 13.4455 1255 138.906 1109.97 443.237
1979 0 94.3321 13.1769 1243 139.25 1109.95 443.283
1980 0 96.2959 13.7597 1325 134.23 1110.68 441.248
1981 0 103.296 14.1245 1459 137.549 1110.15 440.188
1982 0 104.573 13.6078 1423 141.049 1110.13 438.635
1983 0 107.512 13.5613 1458 142.374 1110.08 436.572
1984 0 110.536 13.6154 1505 141.845 1110.1 436
1985 1 60.2694 12.6598 763 147.21 1110.59 460.709
1986 0 60.2694 12.6598 763 165.767 1110.59 460.709
1987 0 64.1975 13.4429 863 139.912 1110.2 457.29
1988 0 66.2235 13.7413 910 142.806 1110.67 456.114
1989 0 67.3246 13.5463 912 149.195 1110.76 455.472
1990 0 69.1826 13.8185 956 145.597 1111.56 454.727
1991 0 72.1567 13.6786 987 144.06 1111.4 452.638
1992 0 75.2309 13.4253 1010 144.554 1111.4 452.26
1993 0 74.2431 14.237 1057 140.594 1111.92 451.024
1994 0 79.2536 13.5262 1072 145.061 1112.28 450.302
1995 0 81.122 14.1145 1145 142.257 1112.67 448.507
1996 0 83.2567 13.8848 1156 149.685 1112.36 448.446
1997 0 86.1901 14.178 1222 147.205 1112.04 447.268
1998 0 87.3214 14.2004 1240 145.518 1112.04 446.183
1999 0 91.3301 14.5407 1328 148.271 1112.27 443.52
2000 0 93.2508 14.2948 1333 151.02 1112.22 442.794
2001 0 95.5054 14.2714 1363 143.924 1111.79 440.511
2002 0 100.246 14.4744 1451 140.617 1111.95 439.963
2003 0 101.341 14.1995 1439 147.932 1111.63 437.721
2004 0 104.395 14.5217 1516 144.515 1111.63 436.594
2005 0 108.298 14.5524 1576 144.628 1112.09 435.148
2006 0 111.25 14.5978 1624 145.84 1111.89 433.237
2007 0 114.173 14.6795 1676 144.045 1111.62 431.396
2008 0 119.276 14.5628 1737 146.117 1111.01 429.143
2009 1 69.1114 13.0514 902 140.442 1110.94 455.987
2010 0 71.2544 13.1922 940 143.416 1111.2 454.546
2011 0 74.091 13.5239 1002 140.44 1110.78 452.018
2012 0 75.0961 13.263 996 133.846 1110.56 450.651
2013 0 79.2657 13.398 1062 143.879 1111.57 451.595
2014 0 80.1256 13.6411 1093 143.977 1110.88 450.796
2015 0 81.1377 13.6928 1111 142.101 1110.79 449.236
2016 0 84.1824 13.4945 1136 143.404 1110.42 448.498
2017 0 88.219 13.7499 1213 139.333 1110.8 446.546
2018 0 89.1028 13.7145 1222 135.722 1110.22 446.31
2019 0 93.1721 13.8775 1293 138.067 1110.75 443.93
2020 0 96.2234 13.8116 1329 144.514 1110.42 442.949
2021 0 97.1415 13.9796 1358 144.316 1110.44 441.283
2022 0 102.313 13.7324 1405 140.152 1110.49 440.041
2023 0 103.442 14.0078 1449 146.796 1110.55 439.629
2024 0 108.252 13.9674 1512 138.423 1110.28 437.597
2025 0 109.348 13.8274 1512 139.579 1109.23 436.456
2026 0 114.291 13.7719 1574 144.435 1108.71 434.77
2027 0 117.515 13.6494 1604 143.708 1109.45 432.372
2028 1 65.2061 13.4957 880 140.076 1109.33 457.702
2029 0 67.1122 13.7382 922 145.554 1109.45 455.894
2030 0 71.1467 13.5354 963 140.699 1108.19 456.124
2031 0 73.1295 13.7974 1009 146.188 1108.73 453.491
2032 0 76.1335 13.6339 1038 144.194 1108.84 453.153
2033 0 79.2235 13.6954 1085 143.288 1109.65 452.11
2034 0 81.1373 14.001 1136 140.574 1109.74 450.571
2035 0 86.1203 14.0037 1206 138.272 1110.45 447.409
2036 0 88.1037 13.8473 1220 143.848 1109.87 446.379
2037 0 91.1698 14.0288 1279 129.382 1109.38 445.199
2038 0 95.2152 14.2204 1354 135.5 1109.47 443.674
2039 0 98.2752 14.3169 1407 136.723 1109.68 442.112
2040 0 100.32 14.4537 1450 139.443 1109.62 440.642
2041 0 103.315 14.0541 1452 142.748 1109.65 439.795
2042 0 107.372 14.5662 1564 138.753 1109.64 437.501
2043 0 110.221 14.4346 1591 140.026 1109.66 436.524
2044 0 112.279 13.983 1570 140.866 1109.34 431.511
2045 0 115.359 14.3726 1658 129.908 1109.37 431.189
2046 0 120.315 14.2626 1716 134.973 1109.5 429.154
2047 0 124.385 14.4712 1800 139.932 1108.88 428.696
2048 1 70.4722 12.7994 902 141.315 1108.85 456.346
2049 0 72.1962 13.7265 991 138.988 1108.23 453.782
2050 0 74.1779 14.3574 1065 136.062 1108.19 453.28
2051 0 77.2684 14.3526 1109 143.966 1108.98 451.633
2052 0 80.227 13.7485 1103 141.191 1108.54 451.172
2053 0 83.2163 13.9516 1161 137.024 1108.22 451.166
2054 0 85.1129 14.0754 1198 137.493 1108.17 447.957
2055 0 87.2198 14.2399 1242 134.773 1107.76 447.487
2056 0 90.2526 14.0384 1267 140.398 1107.72 446.834
2057 0 93.1292 14.3457 1336 143.443 1107.77 444.694
2058 0 97.1762 14.2319 1383 140.706 1109.42 444.256
2059 0 98.276 14.3168 1407 142.178 1109.27 442.77
2060 0 101.33 14.1617 1435 142.371 1108.27 441.662
2061 0 102.217 14.2247 1454 145.138 1107.88 440.695
2062 0 106.313 14.589 1551 143.841 1108.25 438.828
2063 0 108.279 14.3149 1550 147.779 1108.38 437.996
2064 0 112.303 14.5856 1638 142.508 1107.85 435.467
2065 0 115.292 14.5283 1675 141.418 1107.93 433.949
2066 0 119.231 14.3502 1711 146.384 1108.31 432.396
2067 0 123.218 14.5515 1793 148.99 1108.6 429.959
2068 0 128.489 14.5071 1864 143.668 1108.68 427.174
2069 1 73.225 13.2742 972 155.365 1109.26 453.716
2070 0 76.1066 13.9016 1058 147.31 1108.95 452.23
2071 0 78.1602 14.4703 1131 147.137 1108.53 450.635
2072 0 81.1539 14.4417 1172 149.678 1109.98 449.818
2073 0 85.2306 15.5461 1325 145.155 1109.85 446.823
2074 0 90.2525 16.1879 1461 141.077 1109.19 443.491
2075 0 92.2667 15.4769 1428 147.033 1109.4 442.242
2076 0 94.3946 15.3505 1449 146.395 1109.7 442.128
2077 0 96.4548 14.6079 1409 154.009 1109.49 442.432
2078 0 98.4082 14.2773 1405 152.893 1109.4 441.035
2079 0 100.276 14.6297 1467 156.641 1110.17 438.793
2080 0 106.153 14.545 1544 158.287 1109.61 436.806
2081 0 108.146 14.5821 1577 153.107 1109.84 435.687
2082 0 111.073 14.7651 1640 154.638 1110.05 434.054
2083 0 116.313 14.6587 1705 157.8 1109.52 430.97
2084 0 118.161 14.8611 1756 158.181 1109.65 430.286
2085 0 121.176 14.805 1794 154.133 1109.69 428.266
2086 0 126.308 15.0664 1903 163.962 1109.82 425.704
2087 0 130.19 14.8245 1930 165.397 1110.04 423.519
2088 0 134.239 14.9286 2004 165.506 1110.46 421.118
2089 0 139.316 15.2172 2120 155.301 1110.53 419.056
2090 0 144.346 14.8047 2137 160.991 1110.89 416.595
2091 0 150.388 15.174 2282 160.514 1110.53 413.808
2092 0 155.551 14.979 2330 161.194 1110.9 410.534
2093 0 161.29 14.8676 2398 155.181 1111.28 407.351
2094 1 88.2394 14.03 1238 165.394 1111.21 441.554
2095 0 92.2779 14.1529 1306 160.891 1111.72 439.204
2096 0 94.3585 14.1906 1339 164.892 1111.04 437.63
2097 0 97.321 14.2415 1386 160.517 1111.36 436.14
2098 0 100.543 14.0836 1416 163.505 1111.59 434.124
2099 0 104.354 14.2016 1482 162.238 1111.79 432.327
2100 0 107.208 14.5885 1564 164.265 1112.12 429.952
2101 0 109.166 14.7115 1606 159.694 1112.15 427.31
2102 0 114.28 14.342 1639 158.687 1112.03 425.076
2103 0 118.402 14.5099 1718 161.1 1112.04 422.633
2104 0 122.311 14.3813 1759 162.4 1112.08 420.491
2105 0 127.365 14.5173 1849 159.325 1112.74 418.343
2106 0 131.402 14.3758 1889 163.098 1112.2 416.259
2107 0 135.383 14.4479 1956 156.714 1112.17 414.947
2108 0 140.22 14.3702 2015 149.878 1112.31 412.437
2109 0 145.563 14.6397 2131 153.083 1112.46 409.031
2110 0 149.289 14.6763 2191 156.561 1112.45 406.11
2111 0 155.2 14.5876 2264 155.574 1112.67 404.324
2112 0 160.389 14.496 2325 153.102 1112.5 403.486
2113 0 165.274 14.5818 2410 153.328 1112.53 400.364
2114 0 172.448 14.8044 2553 150.338 1111.91 398.276
2115 0 176.368 14.6172 2578 157.358 1112.16 395.661
2116 0 181.206 14.7788 2678 147.96 1112.34 391.952
2117 0 188.474 14.7342 2777 149.738 1112.18 388.767
2118 0 195.286 14.8551 2901 154.058 1111.84 385.386
2119 0 199.459 15.141 3020 156.524 1112.34 381.873
2120 0 205.49 15.2611 3136 142.182 1111.99 379.439
2121 0 214.553 14.9893 3216 148.791 1111.92 374.323
2122 0 222.409 15.0669 3351 152.199 1111.87 370.964
2123 0 229.467 15.1961 3487 150.98 1112.15 367.428
2124 0 237.425 14.8636 3529 159.359 1112.2 363.13
2125 0 247.872 14.7536 3657 160.675 1112.05 359.103
2126 0 246.673 14.728 3633 147.931 1111.85 358.471
2127 0 246.554 14.8608 3664 154.917 1112.3 358.127
2128 1 209.43 14.3867 3013 159.568 1112 376.88
2129 0 217.712 14.7672 3215 153.3 1111.95 373.03
2130 0 225.902 15.0463 3399 154.671 1112.05 370.077
2131 0 233.615 15.0632 3519 146.101 1112.33 366.889
2132 0 240.918 15.1545 3651 151.91 1112.29 362.322
2133 0 250.626 15.2698 3827 143.521 1112.28 357.669
2134 0 260.91 15.2006 3966 141.955 1112.4 355.066
2135 0 268.73 15.2049 4086 137.795 1111.8 352.199
2136 1 72.4274 11.584 839 144.368 1111.45 449.348
2137 0 73.3687 12.5121 918 146.545 1110.19 447.188
2138 0 78.3324 12.0129 941 147.818 1110.3 446.887
2139 0 79.1588 12.3928 981 142.375 1111.24 444.116
2140 0 83.2075 12.547 1044 146.044 1110.9 443.941
2141 0 84.5251 12.7063 1074 148.226 1110.44 442.189
2142 0 88.2988 12.8088 1131 150.185 1110.23 442.193
2143 0 90.4647 12.7564 1154 146.335 1110.53 439.253
2144 0 94.3603 12.696 1198 148.524 1110.57 438.535
2145 0 96.4504 13.2089 1274 148.413 1111.29 436.187
2146 0 100.368 12.6434 1269 153.359 1111.82 435.383
2147 0 105.238 13.1226 1381 145.135 1111.78 433.561
2148 0 107.417 12.9867 1395 148.511 1111.41 433.067
2149 0 111.438 12.6169 1406 150.691 1110.98 431.001
2150 1 67.4088 11.052 745 142.816 1110.15 453.071
2151 0 68.3816 11.7722 805 144.102 1109.33 451.206
2152 0 70.2107 11.7219 823 151.383 1109.24 450.077
2153 0 72.3118 12.1833 881 148.652 1109.26 448.35
2154 0 75.3354 12.1988 919 150.386 1109.31 447.22
2155 0 76.36 12.0089 917 146.504 1109.02 446.661
2156 0 77.3783 12.3032 952 165.045 1108.87 445.611
2157 0 81.3308 12.5783 1023 164.722 1109.26 444.093
2158 0 82.3949 12.7314 1049 162.136 1109.29 443.1
2159 0 84.4409 12.6716 1070 157.634 1109.86 441.107
2160 0 85.5283 13.0834 1119 161.28 1110.31 440.076
2161 0 88.6317 12.8848 1142 158.264 1109.64 438.047
2162 0 93.5629 14.7708 1382 146.266 1110.04 435.839
2163 0 98.4502 15.2971 1506 142.879 1109.8 433.502
2164 0 95.7303 15.2094 1456 150.951 1110.01 433.26
2165 0 99.5046 13.7079 1364 162.236 1109.46 434.084
2166 0 102.533 13.6444 1399 166.111 1109.44 433.658
2167 0 104.409 13.5716 1417 161.622 1109.66 431.977
2168 0 107.489 13.6758 1470 160.878 1109.92 430.534
2169 0 110.435 13.5555 1497 157.786 1109.53 429.56
2170 0 113.314 14.1553 1604 156.885 1109.87 429.224
2171 0 117.408 13.8235 1623 159.515 1109.42 427.649
2172 0 118.525 14.0224 1662 163.028 1109.99 427.157
2173 0 121.275 14.1332 1714 162.713 1109.39 425.246
2174 0 127.32 13.8627 1765 167.211 1108.72 423.048
2175 0 128.504 14.2641 1833 164.943 1108.43 421.405
2176 0 134.448 13.7972 1855 162.311 1108.52 419.569
2177 0 138.327 14.0248 1940 161.961 1108.67 417.1
2178 0 142.493 14.2463 2030 162.189 1108.51 413.608
2179 0 146.358 14.0273 2053 162.326 1108.58 411.943
2180 0 151.373 14.0183 2122 161.334 1108.09 409.871
2181 1 94.2396 11.5981 1093 163.585 1107.23 438.327
2182 0 98.3696 11.9549 1176 162.724 1106.92 436.055
2183 0 100.195 12.4657 1249 159.583 1106.72 435.03
2184 0 103.15 12.2346 1262 159.107 1106.97 432.658
2185 0 107.427 12.0827 1298 159.302 1108.15 431.555
2186 0 108.303 12.6312 1368 159.77 1108.55 429.86
2187 0 110.296 12.8835 1421 156.769 1108.65 428.132
2188 0 113.344 13.0046 1474 160.815 1108.43 426.299
2189 0 118.21 12.5624 1485 161.472 1108.2 425.071
2190 0 120.37 12.7357 1533 162.08 1107.51 423.248
2191 0 124.295 12.9611 1611 159.176 1108 420.755
2192 0 126.496 12.9095 1633 157.819 1107.98 417.81
2193 0 130.414 13.0277 1699 157.191 1108.21 416.007
2194 0 133.482 13.1179 1751 154.8 1108.87 414.025
2195 0 137.214 13.0162 1786 159.791 1109.33 411.459
2196 0 141.32 12.8503 1816 163.244 1108.78 410.316
2197 0 147.281 13.3758 1970 161.983 1109.06 406.629
2198 0 150.538 13.3322 2007 160.334 1109.46 403.506
2199 0 153.604 13.7105 2106 156.695 1109.49 402.336
2200 1 96.4954 9.53414 920 148.849 1109.87 435.961
2201 0 95.4616 9.99355 954 145.978 1109.25 435.313
2202 0 99.4174 10.2598 1020 143.229 1109.52 434.679
2203 0 101.409 10.147 1029 151.341 1109.06 431.985
2204 0 104.745 10.5303 1103 148.585 1109.23 431.638
2205 0 106.858 10.266 1097 149.198 1109.44 429.873
2206 0 109.497 10.5847 1159 151.39 1109.33 428.645
2207 0 112.375 10.8031 1214 147.517 1110.06 425.314
2208 0 116.777 10.7813 1259 143.554 1110.05 424.909
2209 0 120.991 11.0835 1341 147.785 1110.26 421.397
2210 0 123.659 10.9899 1359 153.778 1109.84 420.56
2211 1 64.5811 6.33312 409 130.015 1110.51 456.103
2212 0 63.5268 7.60309 483 120.487 1111.45 454.253
2213 0 68.6604 7.77741 534 136.041 1111.59 451.253
2214 0 70.5476 8.3915 592 129.617 1111.86 451.735
2215 0 70.4904 8.22807 580 127.938 1111.91 449.674
2216 0 75.4794 9.22106 696 131.596 1111.61 449.175
2217 0 75.6465 8.42075 637 127.336 1112.32 448.246
2218 0 76.8051 8.97076 689 126.029 1111.82 446.832
2219 0 78.567 8.87141 697 132.891 1112.3 446.732
2220 0 81.6535 9.03819 738 132.564 1111.71 445.565
2221 0 82.5393 9.24408 763 132.596 1112.16 444.62
2222 0 82.4628 9.0465 746 133.497 1112.04 442.615
2223 0 85.5986 9.47445 811 135.232 1111.6 440.139
2224 0 88.5108 10.0327 888 132.589 1111.99 438.053
2225 0 92.5166 9.68475 896 140.749 1112.23 437.817
2226 0 94.5254 9.9021 936 135.76 1112.38 435.936
2227 0 96.5282 9.94528 960 136.618 1111.95 435.447
2228 0 99.3782 10.4651 1040 139.971 1112.28 433.686
2229 0 100.48 10.6986 1075 135.442 1112 433.286
2230 0 102.691 10.8384 1113 136.034 1112.22 432.036
2231 0 105.561 10.9226 1153 141.885 1111.97 430.987
2232 0 108.485 11.0061 1194 136.13 1112.21 428.192
2233 0 111.383 11.034 1229 146.309 1112.42 426.393
2234 0 114.521 10.8539 1243 145.298 1111.77 425.641
2235 0 117.413 11.4212 1341 148.117 1111.62 423.239
2236 0 119.395 11.4662 1369 154.306 1111.28 421.803
2237 0 124.757 11.7348 1464 147.286 1111.17 419.715
2238 0 127.329 11.7491 1496 150.182 1111.5 420.182
2239 0 130.31 12.2784 1600 145.824 1111.89 416.772
2240 0 133.463 11.8535 1582 152.076 1111.49 414.991
2241 1 81.1702 9.01808 732 146.458 1111.94 444.199
2242 0 82.2168 9.46279 778 141.181 1110.77 443.455
2243 0 83.1081 10.3239 858 147.167 1109.82 441.413
2244 0 86.0942 10.5234 906 144.344 1109.44 439.918
2245 0 87.151 10.9236 952 148.225 1109.34 438.936
2246 0 88.1021 10.6467 938 148.994 1109.6 438.123
2247 0 92.1823 10.5986 977 146.176 1109.51 437.818
2248 0 94.1323 11.1651 1051 150.231 1109.72 436.742
2249 0 95.1071 10.893 1036 148.788 1109.31 435.281
2250 0 96.106 11.4145 1097 139.198 1108.75 435.887
2251 0 99.1276 11.46 1136 146.677 1108.99 432.74
2252 0 101.062 11.8344 1196 152.227 1109.88 431.421
2253 0 103.208 12.0437 1243 145.623 1109.92 428.115
2254 0 107.241 11.8798 1274 148.247 1109.22 428.189
2255 0 109.106 11.9884 1308 153.292 1109.26 427.533
2256 0 111.151 12.1996 1356 151.212 1109.61 426.687
2257 0 114.187 12.3044 1405 145.252 1109.01 423.843
2258 0 117.238 12.2742 1439 147.896 1109.7 421.599
2259 0 120.211 12.5945 1514 148.003 1109.92 420.719
2260 0 122.218 12.5759 1537 156.333 1109.89 419.231
2261 0 123.244 12.7714 1574 147.853 1109.9 417.449
2262 0 129.214 12.7928 1653 149.14 1109.48 418.315
2263 0 133.104 12.9297 1721 145.915 1109.33 415.777
2264 0 135.223 12.7567 1725 149.404 1109.76 414.075
2265 0 140.276 12.5895 1766 147.206 1110.98 411.515
2266 0 142.242 12.5983 1792 143.833 1109.94 408.328
2267 1 84.2104 9.58314 807 140.244 1110.36 438.737
2268 0 86.2288 10.9128 941 135.786 1111.22 440.31
2269 0 89.1494 10.9255 974 133.006 1111.21 440.767
2270 0 90.2366 11.359 1025 130.663 1110.4 439.608
2271 0 94.2184 11.6113 1094 134.892 1110.14 438.367
2272 0 95.1228 11.7112 1114 129.135 1110.52 436.571
2273 0 98.1532 11.6756 1146 133.798 1110.06 435.267
2274 0 101.343 11.7423 1190 133.971 1110.61 435.4
2275 0 101.132 12.0536 1219 138.026 1109.75 434.216
2276 0 105.153 11.5545 1215 136.64 1110.18 433.012
2277 0 107.388 12.1242 1302 135.984 1109.67 430.634
2278 0 109.229 11.7734 1286 137.76 1109.94 431.117
2279 0 113.384 12.2063 1384 137.023 1110.28 431.001
2280 0 113.278 12.0588 1366 138.668 1109.1 428.653
2281 0 116.304 12.4158 1444 136.283 1109.87 427.292
2282 0 119.272 12.4506 1485 139.304 1109.96 425.65
2283 0 121.313 12.2163 1482 134.642 1109.16 423.146
2284 0 124.259 12.2647 1524 140.867 1108.97 421.427
2285 0 126.374 12.4392 1572 136.231 1109.3 418.974
2286 0 129.313 12.2803 1588 141.269 1110.05 416.856
2287 0 133.346 12.2913 1639 136.383 1110.75 415.766
2288 0 137.496 12.4876 1717 135.801 1110.83 414.348
2289 0 140.359 12.6177 1771 132.434 1109.56 413.576
2290 0 144.365 12.2675 1771 135.411 1109.79 411.143
2291 0 148.43 12.8074 1901 135.016 1109.82 409.141
2292 0 153.432 12.4289 1907 130.692 1109.73 405.848
2293 0 155.393 12.581 1955 129.926 1109.32 402.287
2294 0 159.304 13.1259 2091 133.383 1110.47 400.102
2295 0 166.355 13.0144 2165 133.744 1109.78 396.75
2296 0 171.525 12.9427 2220 131.499 1109.91 394.082
2297 1 102.181 9.62017 983 129.048 1109.98 428.997
2298 0 106.253 10.6256 1129 124.676 1109.09 429.632
2299 0 106.178 11.0099 1169 125.165 1108.79 426.872
2300 0 113.39 11.3414 1286 125.85 1109.44 428.019
2301 0 115.451 11.5806 1337 121.71 1110.13 426.346
2302 0 116.392 11.5987 1350 120.111 1110.15 425.349
2303 0 119.302 11.8355 1412 122.738 1110.53 423.426
2304 0 123.125 11.8254 1456 123.878 1110.73 420.375
2305 0 126.265 11.4046 1440 125.097 1110.66 419.408
2306 0 130.191 11.3833 1482 123.941 1110.9 415.463
2307 1 59.231 7.34413 435 106.547 1110.02 454.975
2308 0 65.3096 7.97739 521 109.271 1110.65 453.478
2309 0 64.1873 7.92991 509 110.112 1110.7 454.611
2310 0 67.1761 8.3363 560 109.179 1110.8 452.768
2311 0 67.1009 8.86724 595 106.556 1111.51 451.045
2312 0 69.2793 9.26684 642 109.475 1112.27 449.833
2313 0 70.197 10.0004 702 113.188 1112.89 448.281
2314 0 71.2508 10.1051 720 116.442 1110.76 448.532
2315 0 73.2686 10.1271 742 120.298 1111.14 446.23
2316 0 76.271 10.8167 825 121.238 1111.05 445.618
2317 0 78.2558 10.159 795 119.537 1110.85 446.355
2318 0 79.2396 10.2348 811 122.434 1110.9 444.673
2319 0 81.2938 10.7757 876 123.025 1111.41 443.672
2320 0 84.4865 10.6171 897 119.768 1110.91 443.726
2321 0 85.2763 10.4249 889 120.269 1111.38 442.251
2322 0 86.2777 11.3934 983 132.337 1111.47 440.79
2323 0 89.2569 11.2148 1001 130.729 1111.87 438.369
2324 0 92.4849 11.1261 1029 133.343 1111.93 438.026
2325 0 94.283 11.5185 1086 132.864 1112.77 435.801
2326 0 97.3626 11.452 1115 136.615 1112.73 433.8
2327 0 97.5921 11.5481 1127 141.225 1113.54 433.466
2328 0 100.417 11.5418 1159 140.839 1112.86 432.488
2329 0 102.366 11.5174 1179 140.868 1112.41 430.476
2330 0 104.505 11.6167 1214 142.558 1113.04 429.761
2331 0 107.515 11.8867 1278 140.641 1113.32 427.764
2332 0 111.348 12.0164 1338 142.195 1113.82 426.952
2333 0 114.349 11.8934 1360 141.124 1113.74 426.073
2334 0 115.515 12.0936 1397 138.183 1114.41 423.417
2335 0 118.513 11.6528 1381 139.312 1113.9 422.141
2336 0 121.399 12.2818 1491 144.388 1113.76 421.52
2337 0 126.346 12.3867 1565 132.877 1113.83 420.328
2338 1 77.07 9.34216 720 138.176 1114.57 445.658
2339 0 77.0679 9.74466 751 138.26 1114.41 443.88
2340 0 79.0595 9.60036 759 133.196 1114.37 444.586
2341 0 80.102 10.212 818 124.506 1114.45 441.075
2342 0 82.1419 10.0071 822 126.968 1114.93 441.32
2343 0 82.1939 10.7794 886 130.823 1114.73 441.574
2344 0 84.1803 11.0834 933 127.648 1114.35 441.133
2345 0 78.1278 6.97575 545 122.712 1114.2 442.58
2346 0 78.2186 8.00321 626 123.112 1113.26 442.086
2347 0 90.2574 10.8578 980 120.287 1113.9 435.564
2348 0 92.1706 10.882 1003 120.749 1113.87 435.557
2349 0 94.2558 10.7261 1011 117.383 1113.5 432.618
2350 0 96.1313 10.3712 997 110.756 1113.48 431.268
2351 0 98.253 10.9106 1072 123.481 1113.44 428.385
2352 0 100.359 11.429 1147 130.313 1113.47 429.649
2353 0 104.332 11.08 1156 124.154 1113.32 429.436
2354 0 106.413 11.4459 1218 118.974 1112.98 426.297
2355 0 110.455 11.2082 1238 126.55 1112.94 424.876
2356 0 115.24 11.5932 1336 123.692 1113.48 424.65
2357 0 115.381 11.9431 1378 126.221 1113.64 423.173
2358 0 118.395 11.9177 1411 122.963 1113.14 420.859
2359 0 120.369 11.9632 1440 123.394 1113.12 417.458
2360 0 124.536 11.6191 1447 118.924 1113.08 418.151
2361 0 127.313 11.3814 1449 120.013 1112.74 415.462
2362 0 132.413 11.9173 1578 122.086 1112.46 413.172
2363 0 135.325 12.0229 1627 121.226 1111.87 412.126
2364 0 140.486 12.1649 1709 114.798 1112.57 409.568
2365 0 144.362 11.4643 1655 122.363 1112.31 406.324
2366 1 84.1534 9.69658 816 107.598 1112.82 442.333
2367 0 86.4196 10.6342 919 116.912 1111.77 441.046
2368 0 88.2066 11.2803 995 114.733 1112.35 440.15
2369 0 91.2972 10.8656 992 116.758 1111.14 438.91
2370 0 94.1909 10.8397 1021 113.066 1110.65 438.276
2371 0 97.1849 11.3495 1103 119.42 1109.75 436.394
2372 0 99.1748 11.2327 1114 119.272 1110.17 436.163
2373 0 103.187 11.2127 1157 126.474 1110.5 435.394
2374 0 104.272 11.7769 1228 116.764 1110.75 433.761
2375 0 109.307 11.5912 1267 120.642 1110.03 433.597
2376 0 110.363 11.8428 1307 133.757 1110.16 433.119
2377 0 114.283 11.9003 1360 138.293 1109.41 430.806
2378 0 117.223 11.508 1349 140.928 1109.41 428.723
2379 0 116.313 11.9247 1387 140.234 1110.48 426.909
2380 0 121.37 11.9304 1448 140.874 1110.56 426.834
2381 0 126.402 12.3099 1556 129.952 1110 423.301
2382 0 129.621 11.9734 1552 134.655 1110.24 423.335
2383 0 134.644 12.0689 1625 135.644 1110.17 421.089
2384 1 76.6381 9.72102 745 122.805 1109.76 448.911
2385 0 79.7292 10.3099 822 124.976 1110.09 447.848
2386 0 83.6212 11.1335 931 116.02 1110.09 446.478
2387 0 85.4955 12.1527 1039 130.175 1110.5 446.878
2388 0 88.363 11.962 1057 123.916 1110.31 446.921
2389 0 90.4091 11.9236 1078 127.216 1110.24 445.584
2390 0 91.3919 12.4738 1140 122.895 1110 443.171
2391 0 96.5277 12.0484 1163 123.248 1110.01 442.127
2392 0 98.6811 12.5556 1239 113.556 1109.77 438.282
2393 0 102.555 11.9253 1223 126.33 1110.59 440.011
2394 0 102.492 12.157 1246 144.337 1110.23 438.709
2395 0 106.787 12.3797 1322 138.785 1109.92 437.588
2396 0 108.716 12.5189 1361 148.658 1109.72 434.392
2397 0 111.777 13.2406 1480 144.647 1109.43 431.818
2398 0 113.762 12.9217 1470 148.805 1109.37 429.582
2399 0 117.77 12.898 1519 150.302 1108.94 429.743
2400 0 121.587 12.7316 1548 143.313 1109.36 428.451
2401 0 124.75 12.7215 1587 144.215 1109.18 427.319
2402 0 129.744 13.7039 1778 140.484 1109.53 422.329
2403 1 74.746 11.1845 836 142.298 1109.1 450.92
2404 0 76.5344 12.0599 923 144.587 1109.48 449.71
2405 0 77.807 12.1326 944 148.322 1110.47 452.255
2406 0 81.6135 12.4367 1015 143.71 1110.24 449.134
2407 0 82.7284 12.6317 1045 145.683 1110.19 445.896
2408 0 84.7445 12.2722 1040 144.385 1110.26 446.768
2409 0 86.8824 12.4766 1084 143.136 1110.23 444.127
2410 0 91.2148 12.772 1165 140.971 1110.13 442.62
2411 0 91.7871 12.6597 1162 144.73 1110.29 441.256
2412 0 94.769 12.7573 1209 144.266 1110.52 439.889
2413 0 96.0314 12.9749 1246 149.216 1110.72 439.28
2414 0 97.7784 13.2647 1297 149.264 1110.84 438.233
2415 0 100.032 12.9559 1296 147.107 1110.58 436.623
2416 0 105.002 13.095 1375 145.966 1110.94 434.61
2417 0 106.816 12.47 1332 151.824 1111.08 434.268
2418 0 108.932 13.2468 1443 146.676 1111.98 433.17
2419 0 111.749 13.3245 1489 151.152 1111.66 431.336
2420 0 111.749 13.3245 1489 163.287 1111.66 431.336
2421 0 117.853 13.1011 1544 142.972 1112.34 429.899
2422 0 120.837 13.0589 1578 148.305 1112.18 426.999
2423 0 125.696 13.4531 1691 149.169 1112.23 424.923
2424 1 72.574 11.6295 844 142.441 1112.01 449.602
2425 0 75.5129 12.5012 944 146.454 1111.99 446.989
2426 0 76.5428 12.9339 990 152.423 1111.87 444.947
2427 0 78.5069 13.0307 1023 154.7 1111.78 442.612
2428 0 82.588 12.5079 1033 151.783 1112.2 442.712
2429 0 85.7195 12.6576 1085 153.006 1112.09 441.342
2430 0 85.9442 12.6943 1091 155.212 1111.86 439.009
2431 0 88.6079 12.5158 1109 147.672 1111.84 437.574
2432 0 91.7713 12.7818 1173 148.569 1112.17 437.264
2433 0 94.7905 12.6279 1197 150.17 1112.23 436.251
2434 0 97.7774 12.866 1258 148.502 1111.94 434.947
2435 0 98.7061 13.3021 1313 147.337 1111.82 433.099
2436 0 103.641 13.209 1369 145.179 1111.74 432.532
2437 0 105.675 13.4374 1420 142.794 1111.43 430.765
2438 0 109.529 13.2751 1454 149.103 1111.96 430.388
2439 0 112.576 13.3865 1507 142.594 1111.52 429.402
2440 0 113.57 13.7537 1562 147.277 1111.86 428.067
2441 0 118.59 13.4834 1599 148.45 1111.68 425.789
2442 0 121.485 13.6067 1653 138.053 1112.03 424.415
2443 0 123.401 13.7276 1694 143.429 1112.08 423.371
2444 0 127.572 13.8274 1764 138.426 1112.03 422.628
2445 0 131.503 13.4141 1764 146.73 1112.27 421.099
2446 0 134.495 13.3314 1793 142.053 1112.31 418.573
2447 0 139.485 13.6789 1908 143.519 1112.16 416.045
2448 0 141.511 13.8576 1961 138.617 1112.24 413.433
2449 0 147.618 13.6162 2010 137.584 1112.14 411.193
2450 1 85.3925 11.7575 1004 138.716 1111.96 442.077
2451 0 90.4763 11.7047 1059 134.511 1111.7 440.601
2452 0 92.4787 12.7164 1176 129.832 1111.23 439.48
2453 0 95.4266 12.6275 1205 128.356 1110.75 438.205
2454 0 98.5295 12.3212 1214 130.585 1110.96 435.254
2455 0 101.343 12.7093 1288 129.498 1111.57 432.955
2456 0 104.497 12.852 1343 129.666 1110.89 433.095
2457 0 108.721 12.8494 1397 130.46 1111.54 430.933
2458 0 111.416 13.2298 1474 125.5 1111.26 429.71
2459 0 114.436 12.7583 1460 132.256 1111.18 429.166
2460 0 118.575 12.8189 1520 134.047 1111.3 427.739
2461 0 122.437 13.1823 1614 131.925 1111.12 425.765
2462 0 123.481 12.9089 1594 128.167 1111.34 425.343
2463 0 127.36 13.2224 1684 131.754 1110.99 421.88
2464 0 129.401 13.238 1713 130.169 1111.16 420.199
2465 0 134.538 13.3643 1798 133.714 1111.21 418.804
2466 0 139.303 13.388 1865 135.763 1111.01 416.962
2467 0 145.531 13.3717 1946 134.529 1111.06 413.119
2468 0 150.268 13.5158 2031 133.095 1110.83 411.61
2469 0 154.487 13.7876 2130 134.265 1110.7 410.931
2470 0 160.374 13.8489 2221 41.1851 1110.77 408.563
2471 1 94.3177 11.2704 1063 129.788 1110.11 439.886
2472 0 95.2111 12.5406 1194 132.095 1110.37 441.298
2473 0 98.1319 13.0029 1276 129.778 1110.96 439.582
2474 0 102.116 12.5641 1283 129.979 1109.98 438.545
2475 0 106.16 12.8109 1360 122.908 1110.57 436.305
2476 0 107.209 13.1145 1406 127.172 1110.3 435.691
2477 0 109.23 12.9451 1414 124.715 1110.5 434.18
2478 0 116.369 13.2165 1538 129.639 1110.59 433.283
2479 0 119.364 13.0022 1552 133.53 1110.56 430.861
2480 0 122.338 13.291 1626 128.532 1110.51 427.992
2481 0 126.254 13.1402 1659 134.875 1110.59 427.165
2482 0 127.36 13.2694 1690 132.668 1109.76 425.483
2483 0 132.529 13.4612 1784 132.717 1109.83 422.332
2484 0 139.431 13.3542 1862 133.106 1109.67 421.567
2485 0 140.552 13.4968 1897 132.975 1109.64 418.546
2486 0 146.384 13.4236 1965 130.783 1109.89 415.666
2487 0 150.433 13.295 2000 139.6 1110.03 414.097
2488 0 155.448 13.355 2076 136.3 1110.2 411.435
2489 0 159.474 13.4504 2145 134.027 1110.01 409.583
2490 0 164.333 13.5396 2225 141.469 1110.2 407.818
2491 0 167.372 13.8793 2323 141.434 1109.7 404.498
2492 0 173.381 13.7212 2379 142.993 1110.54 403.678
2493 0 177.321 13.9183 2468 136.494 1110.28 399.587
2494 0 182.319 14.2717 2602 144.082 1110.32 397.46
2495 0 187.372 14.2337 2667 149.078 1110.32 393.669
2496 0 192.293 14.2647 2743 137.836 1110.13 391.949
2497 0 197.492 14.2639 2817 147.918 1110.04 389.807
2498 0 203.201 14.4192 2930 148.326 1109.89 386.552
2499 0 207.356 14.2315 2951 154.127 1110.04 384.105
2500 0 213.36 14.342 3060 154.719 1110.33 379.347
2501 0 220.458 14.166 3123 157.775 1110.17 377.481
2502 0 225.454 14.6061 3293 157.207 1110.25 373.171
2503 0 232.461 14.6433 3404 156.973 1110.33 369.015
2504 0 240.387 14.8927 3580 158.356 1110.63 365.518
2505 0 249.448 14.6684 3659 160.823 1110.88 361.102
2506 0 256.455 14.8642 3812 158.741 1110.81 355.922
2507 1 57.1196 10.3817 593 141.781 1110.05 460.811
2508 0 59.1426 10.8889 644 136.711 1109.8 459.511
2509 0 62.1119 11.2056 696 133.336 1111.01 457.931
2510 0 62.1623 11.47 713 141.725 1111.36 457.75
2511 0 66.2768 11.5727 767 142.922 1112.25 456.841
2512 0 68.2624 12.0857 825 135.833 1112.22 455.172
2513 0 69.219 11.5286 798 141.305 1112.51 454.976
2514 0 72.2745 11.6639 843 138.372 1112.82 453.904
2515 0 73.1649 11.8909 870 142.937 1112.95 453.359
2516 0 77.5595 11.7716 913 143.542 1112.98 450.842
2517 0 79.2883 11.7798 934 145.117 1112.75 449.741
2518 0 80.2074 12.1435 974 140.586 1112.63 449.1
2519 0 82.4936 11.9524 986 146.287 1112.44 447.994
2520 0 85.2528 11.9996 1023 145.337 1112.47 446.806
2521 0 87.1849 12.5022 1090 143.885 1112.09 445.023
2522 0 89.2316 12.2938 1097 145.84 1111.92 443.374
2523 0 92.3016 12.7192 1174 138.538 1111.99 441.687
2524 0 95.2973 12.3088 1173 140.013 1112.72 441.021
2525 0 97.1144 12.3463 1199 146.337 1112.92 438.887
2526 0 100.117 12.9249 1294 138.049 1112.56 437.96
2527 0 100.307 12.691 1273 138.179 1113.06 435.968
2528 0 103.276 12.5393 1295 141.844 1113.03 430.724
2529 0 107.291 12.6293 1355 144.713 1112.31 434.272
2530 0 108.378 15.9534 1729 124.878 1113.32 427.338
2531 0 107.421 16.1794 1738 124.838 1113.31 425.836
2532 0 108.576 15.9427 1731 124.666 1113.27 426.174
2533 1 12.021 9.8993 119 107.101 1114.74 477.538
2534 0 12.0289 10.3085 124 106.202 1114.31 477.613
2535 0 65.1115 10.5972 690 133.141 1111.78 439.306
2536 0 71.2868 11.3205 807 114.475 1112.04 443.768
2537 0 72.249 11.405 824 133.342 1111.62 445.512
2538 0 74.2568 12.4433 924 130.337 1112.12 450.198
2539 0 76.2617 12.444 949 128.331 1112.07 447.939
2540 0 78.4602 12.9875 1019 133.444 1112.26 445.124
2541 0 82.2132 12.8082 1053 133.953 1113.03 445.057
2542 0 84.3894 13.0585 1102 116.299 1112.28 442.924
2543 0 85.337 13.101 1118 110.314 1112.37 440.921
2544 0 86.3828 13.336 1152 139.874 1112.51 440.892
2545 0 89.2715 13.3637 1193 138.34 1112.64 440.144
2546 0 91.4794 13.7627 1259 137.429 1112.85 439.115
2547 0 94.3483 13.2064 1246 131.412 1113.03 438.719
2548 0 99.5443 13.0193 1296 138.508 1113.66 437.179
2549 0 101.294 13.1992 1337 130.218 1113.79 436.295
2550 0 103.414 13.4992 1396 134.87 1113.72 433.775
2551 0 104.483 13.8013 1442 130.62 1113.82 431.024
2552 0 109.442 13.6511 1494 124.98 1113.6 430.133
2553 0 111.488 13.9567 1556 134.22 1113.4 431.062
2554 0 115.38 13.7285 1584 135.848 1113.51 429.496
2555 0 115.38 13.7285 1584 157.573 1113.51 429.496
2556 0 121.285 13.7528 1668 139.096 1113.67 426.304
2557 0 124.443 13.4278 1671 130.473 1114.03 422.756
2558 0 128.658 13.4387 1729 137.015 1113.55 417.722
2559 0 131.461 12.9848 1707 135.941 1114.17 417.049
2560 0 137.564 12.9976 1788 136.147 1113.43 419.339
2561 1 76.2064 12.768 973 141.779 1113.55 446.464
2562 0 81.2827 13.0901 1064 136.725 1113.34 445.887
2563 0 83.3368 12.5155 1043 137.515 1113.39 445.788
2564 0 85.3306 12.9731 1107 138.244 1113.57 442.574
2565 0 87.3247 13.112 1145 137.89 1113.02 441.028
2566 0 89.288 13.5404 1209 136.806 1113.44 439.648
2567 0 92.4343 13.469 1245 141.598 1113.3 438.609
2568 0 95.3616 13.6113 1298 137.964 1112.95 437.032
2569 0 97.4074 13.4487 1310 139.492 1112.85 435.669
2570 0 101.245 13.4525 1362 140.144 1113.45 435.026
2571 0 104.472 13.4582 1406 140.906 1113.15 431.712
2572 0 107.315 13.8936 1491 141.863 1113.42 431.092
2573 0 110.416 14.2552 1574 135.972 1113.48 429.943
2574 0 115.452 13.9105 1606 141.832 1113.48 427.993
2575 0 119.337 13.7426 1640 139.993 1112.94 425.785
2576 0 121.273 13.82 1676 138.622 1112.73 422.322
2577 0 126.363 13.6432 1724 134.424 1112.98 419.973
2578 0 129.373 14.0988 1824 134.743 1113.32 418.317
2579 1 73.2767 11.7363 860 136.033 1113.42 447.156
2580 0 78.3794 12.7584 1000 131.259 1113.95 446.474
2581 0 77.2944 13.0152 1006 133.082 1113.39 444.781
2582 0 81.3392 13.0073 1058 134.086 1113.41 445.571
2583 0 84.1356 12.9791 1092 134.256 1113.97 444.107
2584 0 87.1186 14.3253 1248 128.002 1112.86 439.781
2585 0 89.3178 13.3904 1196 132.628 1112.73 440.079
2586 0 92.3102 13.3571 1233 136.464 1112.58 439.108
2587 0 95.1732 13.4071 1276 133.172 1112.24 437.465
2588 0 97.2151 13.5473 1317 137.358 1111.91 435.665
2589 0 98.2418 13.3955 1316 134.17 1112.09 433.51
2590 0 103.235 13.6195 1406 135.464 1111.85 432.618
2591 0 105.214 13.3917 1409 134.734 1111.96 432.812
2592 0 109.338 13.6092 1488 133.363 1112.45 431.728
2593 0 111.221 14.0711 1565 127.533 1112.4 429.098
2594 0 115.349 13.8016 1592 127.835 1112.38 428.014
2595 0 118.266 13.8756 1641 134.346 1112.38 427.14
2596 0 121.202 14.1582 1716 127.52 1112.14 426.209
2597 0 126.194 13.7566 1736 124.974 1113.21 424.567
2598 1 55.0838 10.6928 589 117.869 1113.92 458.294
2599 0 60.0552 11.1065 667 118.538 1113.02 457.711
2600 0 60.0196 11.8128 709 124.142 1113.18 457.669
2601 0 64.0599 12.3946 794 123.082 1113.8 456.999
2602 0 64.1414 13.0181 835 123.291 1113.64 456.14
2603 0 67.0871 12.6999 852 125.241 1113.76 454.736
2604 0 68.1328 12.9013 879 121.131 1113.75 454.124
2605 0 70.0682 12.9303 906 120.769 1113.52 452.834
2606 0 71.0798 13.0276 926 118.616 1113.56 452.312
2607 0 74.116 13.1011 971 116.729 1113.69 450.56
2608 0 77.097 13.1523 1014 118.839 1113.45 449.978
2609 0 80.1348 13.0405 1045 120.033 1113.7 448.753
2610 0 83.0734 13.2293 1099 113.251 1113.68 447.742
2611 0 84.0993 13.0322 1096 119.769 1113.41 446.86
2612 0 86.1716 12.9625 1117 117.442 1113.3 445.716
2613 0 89.178 13.1086 1169 116.541 1112.99 445.002
2614 0 89.063 13.6308 1214 111.381 1112.89 443.691
2615 0 92.1584 13.2272 1219 111.972 1113.44 442.632
2616 0 94.2523 13.3896 1262 111.259 1113.2 442.246
2617 0 98.2629 13.3621 1313 109.093 1113 439.723
2618 0 102.156 13.5284 1382 102.996 1112.42 436.526
2619 0 105.455 13.1051 1382 101.821 1112.78 433.258
2620 0 108.616 13.0736 1420 95.4007 1112.07 431.632
2621 0 113.541 13.1758 1496 96.494 1112.01 431.731
2622 1 62.3121 11.5387 719 95.3853 1111.43 456.159
2623 0 65.2498 11.8315 772 100.108 1112.46 455.162
2624 0 66.3324 12.6032 836 102.097 1111.36 453.769
2625 0 70.2174 12.4328 873 97.9198 1111.34 453.123
2626 0 70.2736 12.8356 902 96.8016 1111.25 451.29
2627 0 73.3692 12.7983 939 97.426 1110.93 452.354
2628 0 74.288 12.99 965 92.6808 1110.19 450.712
2629 0 77.2085 12.6281 975 92.682 1109.97 450.178
2630 0 78.1295 12.6329 987 92.0638 1110.08 449.716
2631 0 82.1485 12.6113 1036 92.1245 1110.39 448.753
2632 0 83.0572 12.8105 1064 88.3581 1110.89 447.542
2633 0 85.1694 12.5162 1066 89.2833 1110.95 446.735
2634 0 87.3249 12.6081 1101 91.3015 1111.04 444.663
2635 0 89.3163 13.3346 1191 91.7901 1110.48 444.145
2636 0 91.2153 13.3969 1222 86.8282 1110.57 442.432
2637 0 94.3976 13.4114 1266 92.1493 1110.83 442.151
2638 0 96.3419 13.286 1280 93.1914 1111.03 441.501
2639 0 98.435 13.5826 1337 93.015 1111.24 439.969
2640 0 102.232 12.8434 1313 90.3671 1110.95 438.705
2641 0 104.281 13.0992 1366 92.672 1111.12 437.863
2642 0 108.301 13.4717 1459 95.6367 1111.1 435.987
2643 0 112.275 13.0839 1469 101.539 1110.91 433.526
2644 0 115.263 13.4561 1551 100.34 1110.58 432.099
2645 0 117.229 13.7765 1615 98.6297 1110.46 429.85
2646 0 121.396 13.5672 1647 97.895 1110.59 428.256
2647 0 124.399 13.6657 1700 96.6382 1110.65 426.4
2648 0 130.258 13.5423 1764 97.1525 1110.62 423.972
2649 0 132.281 13.8115 1827 95.5342 1110.53 423.197
2650 0 136.414 13.9868 1908 100.414 1110.89 420.845
2651 0 141.284 13.9011 1964 95.7057 1111.05 417.976
2652 0 146.46 13.5942 1991 96.3943 1111.13 417.118
2653 0 150.334 13.8292 2079 89.1852 1110.89 412.958
2654 1 88.1794 10.7621 949 94.4573 1111.37 448.263
2655 0 89.0994 11.3693 1013 93.9763 1110.96 445.671
2656 0 93.1795 12.213 1138 93.8638 1111.4 443.59
2657 0 97.1326 12.2307 1188 93.0286 1111.33 441.526
2658 0 98.1133 12.4448 1221 94.9934 1112.08 440.952
2659 0 103.091 12.455 1284 96.7796 1111.9 440.05
2660 0 105.135 12.8787 1354 92.0207 1111.18 437.292
2661 0 109.224 12.7628 1394 91.3192 1110.86 435.599
2662 0 113.126 12.7027 1437 96.8956 1111.01 433.431
2663 0 114.308 13.2625 1516 96.8575 1110.5 433.247
2664 0 117.074 13.0687 1530 97.1196 1111.25 431.294
2665 0 122.17 13.604 1662 98.8303 1111.09 428.915
2666 0 127.124 13.4515 1710 99.7018 1111.2 426.669
2667 0 130.167 13.6133 1772 98.3493 1111.54 425.08
2668 0 134.176 13.4748 1808 104.257 1110.82 423.843
2669 0 139.286 13.1887 1837 109.448 1111.1 421.369
2670 0 141.303 13.6445 1928 107.631 1110.92 419.349
2671 0 147.366 13.592 2003 111.378 1110.53 418.04
2672 0 150.466 13.8636 2086 110.919 1110.59 414.349
2673 0 156.415 13.5473 2119 104.837 1110.86 410.623
2674 0 161.441 13.3671 2158 106.253 1110.99 406.81
2675 0 167.475 13.7155 2297 109.206 1110.94 404.032
2676 0 173.336 13.3383 2312 104.629 1110.76 402.444
2677 0 178.404 12.836 2290 107.599 1110.58 400.647
2678 1 104.206 11.6884 1218 103.245 1110.84 440.64
2679 0 107.171 12.3261 1321 104.649 1111.34 438.852
2680 0 109.163 13.118 1432 100.1 1111.74 435.304
2681 0 114.075 12.8863 1470 98.7088 1111.75 434.222
2682 0 115.212 13.0628 1505 98.5356 1111.1 432.958
2683 0 119.114 12.8784 1534 93.2516 1110.85 430.948
2684 0 123.253 12.8354 1582 99.1087 1111.37 430.793
2685 0 126.182 13.3934 1690 112.307 1109.92 430.003
2686 0 131.253 13.5007 1772 109.631 1110.4 426.444
2687 0 135.199 12.9956 1757 110.862 1110.48 424.266
2688 0 139.125 13.0027 1809 111.369 1110.73 422.711
2689 0 143.104 13.4657 1927 110.4 1110.37 421.351
2690 0 147.204 13.6749 2013 108.869 1110.71 419.679
2691 0 151.22 13.6755 2068 110.252 1110.59 417.044
2692 0 157.228 13.8525 2178 110.691 1110.44 415.043
2693 0 162.267 13.8414 2246 106.374 1110.44 412.053
2694 0 169.257 13.766 2330 107.632 1110.42 410.653
2695 0 172.212 13.9247 2398 104.174 1109.9 406.804
2696 0 177.281 14.0511 2491 110.735 1110.12 403.881
2697 0 185.532 14.4126 2674 105.687 1110.13 400.696
2698 0 191.403 14.2057 2719 105.128 1109.99 396.309
2699 0 197.408 14.1281 2789 104.015 1110.04 394.094
2700 0 205.643 13.8395 2846 103.552 1110.45 391.617
2701 0 211.524 14.0031 2962 106.007 1110.45 387.703
2702 0 218.716 14.0776 3079 102.343 1110.5 385.321
2703 1 167.477 13.4885 2259 104.452 1110.12 408.3
2704 0 176.67 13.1601 2325 101.308 1110.34 406.821
2705 0 179.475 13.8961 2494 101.104 1110.03 401.828
2706 0 184.556 13.5081 2493 104.37 1110.52 400.239
2707 0 191.609 13.8877 2661 93.201 1110.53 397.79
2708 0 197.572 13.8532 2737 105.742 1110.4 393.685
2709 0 204.959 13.9296 2855 96.3559 1110.5 389.482
2710 0 213.914 13.9402 2982 102.588 1110.05 387.949
2711 0 219.632 14.0735 3091 98.2844 1110.06 382.736
2712 0 226.635 14.1549 3208 92.0047 1110.19 379.617
2713 0 232.77 14.3103 3331 96.9979 1110.59 375.986
2714 0 242.587 13.9043 3373 98.5909 1110.84 372.181
2715 0 250.584 14.2826 3579 97.691 1110.49 365.397
2716 0 258.818 14.2301 3683 97.5066 1110.33 361.336
2717 0 268.514 14.3829 3862 98.0298 1110.13 355.648
2718 0 277.452 13.9159 3861 94.2396 1110.06 353.806
2719 1 210.262 13.4261 2823 95.5707 1110.01 386.125
2720 1 73.1395 11.4439 837 84.7599 1108.16 455.768
2721 0 74.1263 11.7637 872 83.2638 1110.45 452.438
2722 0 77.2797 12.3706 956 80.6318 1108.73 454.17
2723 0 80.2736 12.582 1010 89.2208 1108.46 454.059
2724 0 81.1539 12.655 1027 83.1022 1108.94 452.815
2725 0 84.2208 12.4435 1048 99.2452 1108.56 450.978
2726 0 86.2886 12.8638 1110 88.0045 1109.09 448.907
2727 0 89.1275 12.7234 1134 88.0071 1108.88 447.864
2728 0 91.2382 12.8345 1171 89.357 1108.99 447.208
2729 0 95.3106 13.0416 1243 89.0531 1109 444.864
2730 0 97.3679 12.766 1243 98.5133 1109.31 444.596
2731 0 100.525 13.5389 1361 97.1506 1109.97 442.128
2732 0 104.308 13.0191 1358 95.7165 1110.17 442.714
2733 0 107.386 13.2234 1420 98.5324 1110.36 441.268
2734 0 111.414 13.7236 1529 89.6691 1109.62 437.012
2735 0 113.467 12.7614 1448 99.1036 1110.16 437.037
2736 0 115.397 13.1892 1522 98.4718 1110.36 434.688
2737 0 120.486 12.35 1488 99.0564 1110.14 432.318
2738 0 125.612 13.5258 1699 95.1501 1110.76 428.203
2739 0 127.545 13.0072 1659 92.6395 1110.96 427.385
2740 0 126.634 17.1834 2176 96.6654 1111.39 420.055
2741 1 78.4808 11.6844 917 101.929 1110.59 452.077
2742 0 79.5851 11.8741 945 102.159 1110.06 452.505
2743 0 81.307 13.1846 1072 98.1409 1109.81 443.205
2744 0 84.5653 13.1496 1112 105.057 1109.92 434.138
2745 0 86.5994 12.8638 1114 118.522 1109.91 432.357
2746 0 87.6009 13.1391 1151 115.768 1110.17 437.001
2747 0 91.5334 13.0663 1196 116.247 1110.3 443.999
2748 0 94.5152 12.8339 1213 114.711 1109.95 444.392
2749 0 96.5116 13.1901 1273 106.041 1109.62 442.448
2750 0 99.4309 13.5069 1343 115.028 1110.01 440.984
2751 0 102.523 13.3922 1373 111.816 1109.96 439.087
2752 0 105.715 13.2337 1399 118.048 1110 438.116
2753 0 106.614 13.3472 1423 112.148 1109.73 436.275
2754 0 110.528 13.7159 1516 112.831 1109.64 433.256
2755 0 112.784 13.7165 1547 115.876 1109.99 433.639
2756 0 115.734 14.084 1630 109.797 1110.41 432.156
2757 0 118.434 13.746 1628 113.547 1110.33 430.342
2758 0 123.611 13.9065 1719 112.018 1110.54 428.891
2759 0 124.47 13.9551 1737 113.363 1109.91 426.684
2760 0 128.522 13.6941 1760 115.926 1110.21 424.351
2761 0 134.477 13.9206 1872 117.126 1110.23 422.277
2762 0 138.581 13.9485 1933 111.503 1110.27 421.955
2763 1 77.3984 11.7057 906 106.709 1110.68 451.446
2764 0 79.2279 12.3441 978 110.788 1110.23 449.606
2765 0 82.2642 12.3261 1014 107.189 1109.83 448.148
2766 0 84.3939 13.3185 1124 121.517 1110.41 443.136
2767 0 87.9308 13.2718 1167 124.413 1109.88 441.474
2768 0 88.5241 13.0812 1158 115.63 1109.72 441.038
2769 0 92.4762 13.6251 1260 121.377 1110.27 439.454
2770 0 96.6853 13.394 1295 118.836 1110.95 437.921
2771 0 98.301 13.6011 1337 108.176 1111.01 436.554
2772 0 102.606 13.3326 1368 111.859 1111.25 434.431
2773 0 105.531 13.1241 1385 120.084 1112.05 432.78
2774 0 109.329 13.3817 1463 119.416 1111.73 430.372
2775 0 112.621 13.7896 1553 106.511 1111.76 428.465
2776 0 116.62 13.8142 1611 98.4333 1111.56 427.908
2777 0 119.613 14.2877 1709 113.422 1111.59 424.013
2778 0 123.696 13.3311 1649 117.039 1111.76 423.716
2779 0 126.922 14.3552 1822 113.978 1111.74 419.588
2780 0 130.862 13.6403 1785 112.337 1111.54 419.175
2781 0 134.506 13.6574 1837 112.37 1111.8 415.944
2782 0 138.657 13.1259 1820 110.665 1111.98 414.93
2783 0 145.71 13.9867 2038 103.69 1111.95 412.985
2784 0 148.759 14.2244 2116 109.841 1112.18 411.038
2785 1 82.4166 12.6552 1043 112.009 1112.02 442.115
2786 0 86.5524 13.8182 1196 122.764 1112.34 438.898
2787 0 90.5445 13.1206 1188 125.115 1112.63 437.988
2788 0 92.5876 13.0579 1209 126.473 1112.6 438.748
2789 0 93.5424 12.9674 1213 122.857 1112.5 435.339
2790 0 96.6279 13.3605 1291 109.432 1112.69 434.439
2791 0 102.675 13.1872 1354 114.617 1112.76 433.068
2792 0 104.758 13.6409 1429 111.349 1113.2 430.849
2793 0 107.416 13.5827 1459 117.342 1113.04 429.367
2794 0 109.631 13.5637 1487 115.504 1113.05 426.385
2795 0 112.761 13.5508 1528 115.634 1113.99 425.914
2796 0 115.006 14.008 1611 119.819 1114.16 424.045
2797 0 116.522 14.1003 1643 122.089 1114.36 422.805
2798 0 121.892 13.9632 1702 124.399 1114.15 420.743
2799 0 125.524 14.077 1767 123.616 1114.42 418.469
2800 0 129.593 14.3063 1854 122.763 1114.4 416.22
2801 0 135.702 14.2371 1932 114.317 1114.24 414.675
2802 0 137.459 14.5207 1996 104.554 1114.17 412.506
2803 0 140.308 14.3898 2019 100.556 1114.39 411.39
2804 0 145.548 14.5244 2114 119.225 1114.43 408.369
2805 0 150.664 14.2835 2152 120.479 1114.23 406.644
2806 0 155.458 13.9973 2176 126.48 1114.45 405.312
2807 1 88.3606 13.0828 1156 133.318 1114.38 437.092
2808 0 91.4758 13.5555 1240 134.48 1114.42 435.041
2809 0 94.4826 13.3781 1264 134.754 1114.32 434.267
2810 0 95.2702 13.6349 1299 108.518 1114.12 432.657
2811 0 99.378 13.4134 1333 133.654 1114.44 431.35
2812 0 101.482 14.1897 1440 130.926 1114.71 430.444
2813 0 106.276 13.7754 1464 134.637 1114.39 429.801
2814 0 110.346 14.1282 1559 135.667 1114.4 427.393
2815 0 111.34 13.9932 1558 118.963 1113.94 425.597
2816 0 115.456 14.2738 1648 136.834 1114.67 424.038
2817 0 117.297 14.3055 1678 141.396 1114.7 423.045
2818 0 120.25 14.104 1696 138.336 1114.55 419.255
2819 0 124.37 14.473 1800 141.023 1114.45 418.692
2820 0 128.295 14.2485 1828 137.144 1114.79 417.363
2821 0 131.241 14.4543 1897 138.857 1114.58 414.842
2822 0 138.496 14.2748 1977 125.057 1114.35 413.045
2823 0 142.37 14.5395 2070 133.36 1114.53 410.452
2824 0 147.244 14.3911 2119 133.897 1114.57 408.197
2825 0 154.168 14.5231 2239 130.508 1114.32 405.032
2826 0 158.27 14.5195 2298 132.43 1114.6 402.196
2827 1 93.2527 13.458 1255 139.034 1114.85 434.709
2828 0 94.1574 13.5943 1280 130.954 1114.38 432.833
2829 0 97.2724 13.6421 1327 135.169 1113.79 431.673
2830 0 102.216 13.5106 1381 135.437 1112.53 429.245
2831 0 104.183 13.5051 1407 136.466 1113 429.488
2832 0 108.229 13.7302 1486 139.109 1112.56 426.628
2833 0 113.176 13.9252 1576 128.057 1112.77 426.365
2834 0 115.37 13.8598 1599 135.448 1112.12 423.022
2835 0 119.179 13.9622 1664 123.112 1112.08 421.371
2836 0 123.2 14.0665 1733 130.455 1111.71 419.143
2837 0 126.126 14.1763 1788 125.378 1111.77 417.101
2838 0 131.276 14.1687 1860 125.152 1111.98 414.396
2839 0 133.207 14.4737 1928 133.823 1111.97 413.874
2840 0 140.172 14.1683 1986 141.636 1112.26 411.891
2841 0 141.226 14.7069 2077 141.234 1112.63 409.042
2842 0 147.192 14.4845 2132 133.839 1112.22 407.431
2843 0 153.271 14.4646 2217 141.032 1112.64 406.044
2844 0 157.325 14.1618 2228 140.013 1112.82 402.779
2845 0 162.314 14.2994 2321 144.432 1112.27 399.455
2846 0 168.282 14.7015 2474 140.794 1112.66 396.048
2847 0 174.321 14.5995 2545 147.352 1112.69 394.793
2848 0 177.254 14.8431 2631 146.498 1111.67 390.799
2849 0 183.418 14.486 2657 152.721 1112.13 388.662
2850 0 189.588 14.7425 2795 148.827 1113.14 385.588
2851 0 193.328 14.597 2822 149.869 1113.02 381.684
2852 0 201.55 14.6961 2962 150.808 1113.53 379.86
2853 0 207.291 14.757 3059 151.111 1113.49 377.068
2854 0 212.479 14.9991 3187 157.221 1113.32 372.712
2855 0 218.465 14.8399 3242 157.534 1113.92 372.063
2856 0 227.715 15.1944 3460 156.423 1113.97 369.899
2857 0 236.36 15.3198 3621 155.896 1113.63 365.907
2858 1 60.0685 9.00638 541 142.224 1111.6 455.802
2859 0 63.1695 9.86235 623 136.364 1112.87 455.055
2860 0 65.1646 10.5118 685 137.064 1113.31 453.828
2861 0 66.2168 10.964 726 133.326 1113.18 453.544
2862 0 65.1423 10.8685 708 139.657 1113.62 453.397
2863 0 69.1768 10.784 746 130.68 1113.69 451.421
2864 0 69.1852 10.9416 757 138.645 1113.78 451.771
2865 0 72.236 10.8948 787 140.225 1113.52 450.51
2866 0 72.236 10.8948 787 139.947 1112.52 450.51
2867 0 78.3043 11.1488 873 124.312 1113.84 448.83
2868 0 80.3297 11.0295 886 140.893 1113.75 446.674
2869 0 82.2466 11.3196 931 136.037 1113.23 445.205
2870 0 84.3328 11.2412 948 136.469 1113.03 444.554
2871 0 85.2576 11.084 945 138.478 1112.61 441.326
2872 0 88.1605 11.1615 984 134.071 1113.58 439.968
2873 0 92.272 11.0868 1023 135.45 1113.96 437.504
2874 0 95.1258 11.4059 1085 119.992 1113.88 436.815
2875 0 98.2188 11.2198 1102 129.339 1113.08 435.358
2876 0 102.151 11.5222 1177 127.872 1113.21 433.732
2877 0 106.251 11.5952 1232 127.738 1112.84 432.289
2878 0 107.327 11.5814 1243 135.004 1113.17 428.895
2879 0 111.275 11.6648 1298 139.257 1113.46 428.235
2880 0 114.262 11.9725 1368 140.626 1113.27 425.805
2881 0 118.299 11.5893 1371 139.36 1112.71 424.759
2882 0 120.218 11.3294 1362 134.703 1112.69 422.987
2883 0 124.378 11.6178 1445 134.398 1113.21 421.09
2884 0 128.273 11.7952 1513 133.404 1112.91 418.317
2885 0 130.374 12.073 1574 138.851 1112.53 417.147
2886 0 135.387 11.7663 1593 143.82 1112.33 416.535
2887 0 138.48 12.0812 1673 142.505 1112.3 414.704
2888 0 141.437 12.1538 1719 143.071 1112.88 411.977
2889 0 145.757 12.0818 1761 143.294 1112.72 410.341
2890 0 152.76 11.9927 1832 145.872 1112.49 407.064
2891 0 157.89 12.078 1907 149.216 1112.48 405.294
2892 0 160.861 11.9917 1929 142.296 1113.05 402.046
2893 0 167.046 12.3379 2061 137.314 1113.29 397.716
2894 0 174.13 12.2839 2139 143.585 1113.33 396.212
2895 1 114.468 11.1123 1272 134.979 1113.11 425.999
2896 0 115.696 11.971 1385 146.451 1113.35 425.32
2897 0 119.306 11.4663 1368 143.34 1113.3 424.283
2898 0 123.563 11.2008 1384 141.832 1113.48 422.751
2899 0 127.723 11.6424 1487 145.35 1113.34 420.261
2900 0 133.541 11.7567 1570 142.08 1113.49 419.335
2901 0 135.555 11.3828 1543 147.303 1113.89 416.892
2902 0 139.536 11.9539 1668 149.418 1113.6 415.89
2903 0 141.416 12.0001 1697 149.217 1113.72 413.326
2904 0 145.512 12.0402 1752 139.39 1113.84 411.541
2905 0 151.633 11.6597 1768 148.385 1113.71 409.2
2906 0 155.837 12.3013 1917 147.844 1114.06 405.428
2907 1 95.7415 10.1628 973 144.508 1114.14 438.539
2908 0 99.4949 10.5232 1047 137.526 1114.3 437.151
2909 0 100.547 10.602 1066 143.72 1114.47 434.893
2910 0 102.481 10.7337 1100 132.629 1114.31 431.155
2911 0 107.303 11.4349 1227 135.759 1114.77 430.547
2912 0 107.492 11.1822 1202 140.78 1114.57 429.775
2913 0 110.369 11.3982 1258 135.103 1114.33 428.961
2914 0 115.338 11.2973 1303 138.236 1114.42 426.356
2915 0 115.338 11.2973 1303 135.91 1114.42 426.356
2916 0 122.576 11.9844 1469 134.364 1115.59 421.664
2917 0 126.739 12.0247 1524 137.763 1115.6 420.512
2918 0 128.967 12.29 1585 140.771 1115.24 418.324
2919 0 130.666 12.7271 1663 137.235 1114.48 417.289
2920 0 134.521 12.2435 1647 142.349 1114.26 415.26
2921 0 137.76 12.362 1703 143.957 1113.97 413.224
2922 0 139.984 12.9443 1812 143.067 1113.99 411.236
2923 0 144.002 12.4929 1799 142.858 1113.75 408.432
2924 0 145.88 12.805 1868 142.513 1113.65 406.428
2925 0 149.38 12.6523 1890 130.601 1113.94 406.578
2926 0 155.905 12.437 1939 142.576 1113.55 404.026
2927 0 158.552 12.816 2032 140.444 1114.02 403.541
2928 0 162.581 12.929 2102 139.459 1113.47 402.72
2929 0 167.726 13.3313 2236 142.926 1113.47 399.385
2930 0 171.801 13.2944 2284 140.312 1113.88 396.902
2931 0 173.618 13.3915 2325 143.837 1114.04 394.088
2932 0 178.789 13.3285 2383 137.037 1113.94 390.658
2933 0 183.54 13.512 2480 131.492 1113.76 387.407
2934 0 188.768 13.4292 2535 140.719 1113.81 386.868
2935 0 192.641 13.3513 2572 142.825 1114.15 383.458
2936 0 198.617 13.0301 2588 144.14 1114.06 380.282
2937 0 204.501 13.242 2708 141.453 1114.13 377.726
2938 0 209.545 13.6295 2856 140.925 1114.04 374.801
2939 0 214.738 13.4629 2891 144.72 1114.04 371.721
2940 0 222.793 13.6449 3040 137.718 1113.91 370.413
2941 0 227.882 13.7439 3132 141.39 1113.63 369.111
2942 0 233.894 13.7199 3209 142.306 1113.65 365.931
2943 0 238.881 13.5633 3240 137.51 1113.83 362.377
2944 0 244.88 14.0109 3431 140.299 1113.57 358.389
2945 0 251.632 13.6668 3439 142.065 1113.4 354.75
2946 1 64.3254 7.49316 482 121.517 1113.8 455.255
2947 0 65.237 8.10889 529 116.737 1114.63 453.117
2948 0 69.2034 9.69605 671 111.486 1114.29 451.772
2949 0 69.4527 9.53167 662 116.763 1114.27 450.207
2950 0 71.2757 9.56848 682 116.933 1113.89 450.139
2951 0 72.2744 10.64 769 118.588 1113.92 449.163
2952 0 76.3193 10.4561 798 112.154 1114.39 449.076
2953 0 77.3484 10.5367 815 114.861 1114.21 449.602
2954 0 78.4404 10.2626 805 117.646 1114.54 446.937
2955 0 79.3168 10.9056 865 114.225 1113.94 445.689
2956 0 82.3526 11.0258 908 119.009 1113.46 444.762
2957 0 83.3531 11.0254 919 119.298 1113.86 445.246
2958 0 84.4823 11.3515 959 124.528 1113.43 443.073
2959 0 89.5216 11.2152 1004 124.525 1113.57 442.014
2960 0 90.4336 11.6329 1052 120.982 1113.38 440.664
2961 0 94.4682 11.5171 1088 123.626 1113.26 440.001
2962 0 94.4478 11.5196 1088 120.678 1112.84 438.347
2963 0 97.5741 11.3042 1103 124.242 1112.91 436.12
2964 0 99.6783 11.4067 1137 124.902 1113.11 436.405
2965 0 103.57 12.2816 1272 121.486 1111.98 427.563
2966 0 106.694 12.1188 1293 121.585 1111.94 426.886
2967 0 102.559 10.5988 1087 127.915 1111.83 429.711
2968 0 109.335 12.3931 1355 122.017 1111.91 428.255
2969 1 18.1 7.90057 143 104.434 1108.9 473.378
2970 0 21.2018 7.49938 159 102.774 1109.11 472.516
2971 0 22.0206 8.53746 188 103.293 1108.71 474.101
2972 0 24.188 8.06185 195 101.815 1109.22 472.61
2973 0 21.1169 8.14514 172 105.227 1109.05 471.866
2974 0 19.2429 7.84703 151 103.238 1109.22 472.079
2975 0 21.3823 7.20221 154 104.299 1108.97 472.961
2976 0 22.1165 8.09349 179 106.441 1109.07 473.022
2977 0 26.5512 7.26897 193 104.917 1109.27 471.207
2978 0 21.2879 7.75087 165 104.182 1108.81 471.921
2979 0 21.2238 8.00989 170 102.2 1108.92 472.235
2980 0 24.4241 7.4926 183 103.924 1108.72 471.579
2981 0 14.0107 6.49503 91 103.791 1107.38 472.593
2982 1 92.3622 12.1262 1120 124.421 1111.08 437.072
2983 0 97.8457 12.4788 1221 123.135 1110.9 436.306
2984 0 96.4465 12.7843 1233 124.838 1111.07 436.64
2985 0 100.56 12.1619 1223 126.051 1111.34 433.119
2986 0 102.462 12.6876 1300 120.524 1111.64 432.065
2987 0 104.707 12.9791 1359 124.71 1110.78 430.785
2988 0 108.712 12.8504 1397 123.207 1111.21 428.708
2989 0 109.554 12.9343 1417 127.77 1111.34 427.512
2990 0 112.623 12.644 1424 132.798 1111.68 424.69
2991 0 116.744 13.1999 1541 130.146 1111.9 422.887
2992 0 118.76 13.1947 1567 129.294 1112.25 421.943
2993 0 122.619 13.2687 1627 127.61 1111.95 421.254
2994 0 125.444 13.225 1659 121.067 1111.66 420.227
2995 0 127.884 13.1447 1681 130.459 1111.48 417.654
2996 0 131.725 12.8449 1692 134.444 1111.26 415.952
2997 0 136.102 13.5119 1839 129.678 1111.95 416.947
2998 0 139.916 12.7505 1784 130.747 1112.01 411.672
2999 0 144.771 13.6561 1977 125.872 1111.71 408.79
3000 0 148.841 13.4842 2007 126.951 1111.44 405.967
3001 0 153.651 13.1923 2027 127.955 1111.72 406.086
3002 1 89.6712 11.5533 1036 119.214 1111.84 438.919
3003 0 94.5851 11.9469 1130 119.586 1111.63 436.814
3004 0 95.7547 12.5633 1203 117.683 1111.57 430.688
3005 0 97.6404 12.0647 1178 115.669 1111.6 431.11
3006 0 99.5235 12.2986 1224 127.212 1111.32 433.315
3007 0 101.468 12.4867 1267 121.812 1111.54 429.861
3008 0 105.482 12.2106 1288 124.7 1111.99 430.294
3009 0 107.572 12.5497 1350 122.027 1111.77 427.376
3010 0 111.814 12.4493 1392 125.821 1112.05 427.105
3011 0 113.64 12.8212 1457 125.773 1111.91 423.563
3012 0 115.463 13.1643 1520 122.433 1111.88 423.603
3013 0 120.378 12.3528 1487 124.913 1112.02 422.482
3014 0 122.666 12.6523 1552 128.316 1112.02 420.615
3015 0 123.654 13.1173 1622 130.685 1111.81 418.078
3016 0 127.498 12.659 1614 132.31 1112.47 416.524
3017 0 130.483 13.3658 1744 126.181 1111.83 414.403
3018 0 135.42 12.9523 1754 115.095 1111.88 413.033
3019 0 139.577 13.1827 1840 125.088 1112.18 408.756
3020 0 143.845 12.7777 1838 124.277 1112 407.69
3021 0 150.943 13.0247 1966 128.016 1112.33 407.051
3022 0 154.62 13.6723 2114 118.411 1112.66 403.641
3023 0 159.781 13.7 2189 122.068 1112.8 401.106
3024 0 164.613 13.3647 2200 121.44 1113.1 397.879
3025 0 169.586 13.4857 2287 125.68 1112.97 395.575
3026 0 173.673 14.0436 2439 123.886 1113.01 391.123
3027 0 181.768 13.6932 2489 125.682 1113.16 389.201
3028 1 107.966 11.763 1270 123.063 1113.35 427.294
3029 0 111.631 12.1024 1351 116.762 1113.62 426.257
3030 0 115.037 12.3786 1424 122.395 1113.52 424.211
3031 0 115.586 12.8908 1490 120.745 1113.77 421.934
3032 0 119.772 12.7743 1530 123.121 1114.03 422.4
3033 0 121.911 13.0587 1592 109.853 1113.89 420.674
3034 0 125.685 13.0087 1635 122.073 1114.12 417.7
3035 0 129.695 12.7762 1657 128.567 1114.46 416.046
3036 0 134.731 12.833 1729 122.412 1114.59 414.461
3037 0 137.795 13.0992 1805 123.959 1114.67 411.564
3038 0 141.688 13.1203 1859 118.282 1114.35 409.034
3039 0 145.877 12.963 1891 119.789 1114.47 406.314
3040 0 148.723 13.2662 1973 123.782 1114.73 406.476
3041 0 154.66 13.6493 2111 120.857 1114.96 401.772
3042 0 157.969 13.0849 2067 127.763 1115.15 401.046
3043 0 164.61 13.0915 2155 122.658 1115.25 395.318
3044 1 96.3435 10.5352 1015 119.817 1115.79 429.044
3045 0 99.4395 11.5246 1146 116.561 1116.03 428.974
3046 0 104.627 11.8516 1240 117.826 1115.79 425.94
3047 0 106.527 12.4288 1324 114.747 1115.45 423.716
3048 0 107.447 12.6202 1356 108.148 1115.47 422.541
3049 0 111.48 12.2713 1368 110.135 1115.57 421.317
3050 0 117.758 12.6106 1485 107.218 1115.42 419.127
3051 0 119.555 12.5633 1502 108.45 1115.26 419.886
3052 0 120.843 12.868 1555 110.874 1115.15 420.424
3053 0 125.114 12.7004 1589 111.56 1114.65 416.296
3054 0 129.812 12.9341 1679 108.665 1115.04 414.88
3055 0 131.944 12.763 1684 108.352 1114.53 413.488
3056 0 136.086 12.8521 1749 109.42 1114.91 411.25
3057 0 139.975 13.1166 1836 108.575 1115.09 411.138
3058 0 142.623 12.6838 1809 112.783 1115.4 409.707
3059 0 147.718 13.2211 1953 111.848 1115.62 406.377
3060 0 152.697 13.4711 2057 10.6694 1115.6 406.259
3061 0 156.499 13.1758 2062 116.429 1115.17 401.784
3062 0 159.472 13.5384 2159 107.467 1115.17 399.825
3063 0 163.396 13.5744 2218 114.391 1114.98 396.349
3064 0 169.468 13.5247 2292 114.081 1115.02 394.991
3065 0 173.369 13.5261 2345 119.078 1114.4 392.553
3066 0 179.627 14.7695 2653 118.525 1114.74 386.375
3067 0 186.591 13.7091 2558 120.381 1114.97 386.289
3068 0 193.851 13.954 2705 117.548 1114.24 381.493
3069 0 201.882 14.127 2852 122.682 1114.09 378.996
3070 0 205.882 14.3869 2962 123.625 1113.75 377.01
3071 0 212.719 14.3993 3063 119.957 1114.25 372.82
3072 0 218.931 14.0501 3076 117.76 1114.01 369.955
3073 0 223.7 14.1618 3168 121.013 1114.09 367.529
3074 0 231.613 14.1184 3270 113.087 1114.24 365.392
3075 0 239.902 16.1858 3883 113.034 1114.07 357.33
3076 0 246.694 15.047 3712 115.425 1113.63 356.139
3077 0 257.73 16.7811 4325 107.029 1114.24 349.785
3078 1 60.2465 10.9218 658 104.372 1111.98 457.412
3079 0 64.4492 11.544 744 105.746 1113.66 450.587
3080 0 32.0217 10.1181 324 94.037 1112.1 470.086
3081 0 32.0772 10.0383 322 105.348 1112.26 470.252
3082 0 31.0933 10.1951 317 101.069 1111.83 470.104
3083 0 31.1357 10.4703 326 101.23 1111.13 470.043
3084 0 31.0367 9.89152 307 105.616 1111.71 469.489
3085 0 31.3849 9.68618 304 105.832 1112.48 469.414
3086 1 73.2548 12.6135 924 111.753 1112.74 448.951
3087 0 78.4237 12.2285 959 114.395 1111.93 447.01
3088 0 80.3378 12.9204 1038 119.055 1112.15 446.015
3089 1 167.389 14.2363 2383 80.7209 1110.07 392.558
3090 0 169.657 12.4192 2107 87.3645 1110.35 398.539
3091 0 167.771 9.56663 1605 98.7003 1111.96 422.841
3092 0 167.5 9.63579 1614 98.3123 1112.37 426.645
3093 0 169.583 10.9563 1858 91.2234 1111.84 418.38
3094 0 149.51 11.2835 1687 95.5702 1113.13 428.167
3095 0 149.048 12.6469 1885 95.244 1112.9 421.977
3096 0 140.876 13.9698 1968 92.125 1112.88 420.816
3097 0 134.337 15.5281 2086 93.0662 1112.9 419.264
3098 0 139.373 13.3239 1857 102.421 1113.29 425.27
3099 0 104.488 16.6239 1737 106.904 1112.44 431.712
3100 0 107.372 15.9352 1711 107.201 1112.72 430.278
3101 0 109.668 16.7141 1833 104.878 1113.39 429.162
3102 0 113.382 16.1225 1828 105.664 1113.87 427.338
3103 0 117.893 16.0145 1888 108.631 1113.52 426.1
3104 1 70.4576 13.3981 944 105.675 1112.87 451.105
3105 0 72.303 13.3743 967 113.365 1112.64 450.42
3106 0 72.4319 14.9658 1084 107.688 1112.95 447.968
3107 0 76.3684 13.9194 1063 117.023 1112.84 447.163
3108 0 78.6213 14.4872 1139 106.851 1112.69 446.277
3109 0 78.5556 14.6266 1149 113.847 1112.55 445.502
3110 0 79.5828 14.9404 1189 107.696 1112.14 444.537
3111 0 81.2265 14.7612 1199 113.869 1112.39 443.741
3112 0 85.7113 15.2022 1303 113.774 1112.44 442.65
3113 0 87.6431 14.5819 1278 114.587 1112.61 442.836
3114 0 91.7417 14.9877 1375 129.468 1113.08 441.66
3115 0 93.6859 14.9222 1398 100.028 1113.16 440.534
3116 0 93.474 14.7528 1379 115.848 1112.6 437.348
3117 0 95.5587 14.8704 1421 116.813 1112.34 436.013
3118 0 98.7543 14.4196 1424 114.487 1112.44 435.928
3119 0 102.545 14.657 1503 111.69 1112.82 434.533
3120 0 105.516 14.6802 1549 114.87 1112.92 432.801
3121 0 107.6 15 1614 116.719 1113.35 429.993
3122 0 110.929 14.6039 1620 115.01 1112.87 429.41
3123 0 111.684 15.0603 1682 114.856 1112.94 427.693
3124 0 117.49 14.8523 1745 115.274 1113.34 427.194
3125 0 119.628 14.8795 1780 110.958 1113.24 425.241
3126 0 122.611 14.9579 1834 112.302 1113.29 422.979
3127 0 125.428 14.8292 1860 118.602 1113.58 421.986
3128 0 128.575 15.1273 1945 111.378 1113.5 421.131
3129 0 132.596 14.5027 1923 121.68 1113.42 418.534
3130 0 135.72 14.5225 1971 121.325 1112.9 417.079
3131 0 140.61 15.0629 2118 114.464 1113.58 415.534
3132 0 147.635 15.0303 2219 118.314 1114.04 412.433
3133 0 153.884 14.6929 2261 121.628 1113.96 409.065
3134 1 79.5481 13.7778 1096 120.034 1114.38 445.495
3135 0 81.66 13.8501 1131 123.126 1115.01 443.364
3136 0 84.3834 14.0786 1188 118.836 1114.83 441.439
3137 0 86.3401 14.2807 1233 125.613 1115.12 440.14
3138 0 89.3789 14.4329 1290 121.115 1115.05 438.994
3139 0 91.483 14.2212 1301 124.507 1114.61 437.176
3140 0 93.2884 14.7285 1374 124.393 1115.1 435.983
3141 0 97.4552 14.776 1440 125.224 1115.39 434.162
3142 0 100.378 14.3059 1436 127.093 1115.17 433.119
3143 0 101.253 14.7354 1492 126.743 1115.25 431.923
3144 0 105.333 15.1805 1599 122.887 1115.58 430.163
3145 0 109.324 14.9738 1637 120.714 1115.75 427.513
3146 0 112.62 14.6687 1652 125.093 1115.74 426.649
3147 0 116.802 14.9998 1752 125.053 1115.77 425.338
3148 0 120.257 15.0345 1808 126.462 1115.56 423.757
3149 0 123.417 15.2816 1886 121.72 1115.85 421.035
3150 0 129.503 15.5286 2011 123.578 1115.67 418.685
3151 0 134.712 15.3438 2067 125.477 1115.44 416.91
3152 0 138.806 15.4172 2140 129.462 1115.17 413.677
3153 0 140.517 15.4644 2173 125.724 1115.03 413.172
3154 0 145.78 15.5234 2263 130.348 1115.43 410.887
3155 0 151.677 15.4869 2349 130.948 1115.37 408.623
3156 0 155.517 15.5224 2414 134.879 1115.23 407.071
3157 0 161.567 15.0154 2426 134.885 1115.13 406.066
3158 0 167.64 14.8234 2485 133.216 1114.49 401.943
3159 0 173.634 15.2851 2654 129.662 1114.94 398.68
3160 1 92.5897 14.6669 1358 145.75 1115.47 436.856
3161 0 96.25 14.9818 1442 140.252 1115.36 434.881
3162 0 98.5792 15.1756 1496 143.319 1115.57 433.537
3163 0 101.628 15.2321 1548 139.705 1115.31 432.703
3164 0 104.215 15.2954 1594 149.609 1114.83 431.055
3165 0 108.439 15.3358 1663 143.59 1114.7 429.861
3166 0 111.377 15.8561 1766 143.995 1114.93 427.775
3167 0 112.368 15.3335 1723 148.038 1114.83 426.087
3168 0 118.796 15.4803 1839 144.055 1115.11 425.145
3169 0 122.594 15.2862 1874 149.104 1114.32 423.208
3170 0 125.481 15.5323 1949 150.293 1114.08 420.931
3171 0 128.329 15.5771 1999 154.35 1114.25 419.446
3172 0 134.539 15.9359 2144 146.386 1114.03 418.296
3173 0 136.296 15.7965 2153 155.736 1114.43 416.064
3174 0 141.246 15.5686 2199 159.06 1114.46 414.218
3175 0 146.418 15.845 2320 147.073 1113.78 412.098
3176 0 151.367 15.9876 2420 160.948 1113.79 410.013
3177 0 158.594 15.2654 2421 161.805 1113.87 406.368
3178 0 165.562 15.5289 2571 161.589 1114.18 403.539
3179 0 171.642 15.6431 2685 160.636 1114.49 400.573
3180 1 83.3242 14.5816 1215 166.016 1114.09 443.165
3181 0 85.2476 15.1793 1294 167.197 1114.05 442.022
3182 0 90.3372 15.1986 1373 168.188 1113.9 439.862
3183 0 94.3654 15.2069 1435 157.084 1114.02 437.642
3184 0 94.2047 15.2434 1436 163.01 1113.72 435.953
3185 0 98.4314 15.5032 1526 157.373 1113.56 435.385
3186 0 100.603 15.586 1568 164.821 1113.43 433.492
3187 0 105.237 15.5554 1637 162.217 1113.51 431.145
3188 0 110.274 15.117 1667 165.648 1113.32 430.002
3189 0 113.266 15.3973 1744 161.712 1113.2 427.648
3190 0 118.619 15.1915 1802 168.485 1112.77 425.452
3191 0 120.254 15.6835 1886 163.445 1112.93 424.396
3192 0 125.421 15.4679 1940 158.432 1112.88 422.164
3193 0 128.243 15.5486 1994 164.943 1112.91 421.427
3194 0 134.421 15.7639 2119 160.987 1112.8 418.516
3195 0 139.395 15.2946 2132 168.225 1112.47 417.792
3196 0 143.429 15.5617 2232 155.911 1112.36 414.692
3197 0 146.36 15.5438 2275 162.255 1112.47 413.05
3198 1 75.3245 13.2892 1001 158.405 1112.7 449.571
3199 0 76.1899 13.8339 1054 151.085 1112.7 448.494
3200 0 76.2551 14.399 1098 156.121 1112.55 448.322
3201 0 79.4804 13.9028 1105 157.785 1112.61 447.3
3202 0 84.5169 13.6186 1151 158.992 1112.59 445.118
3203 0 85.4819 14.3539 1227 161.482 1112.12 443.968
3204 0 88.3654 14.5306 1284 152.375 1112.34 442.327
3205 0 89.451 14.6561 1311 162.518 1112.11 441.307
3206 0 94.6127 14.2053 1344 160.385 1112.43 440.195
3207 0 96.399 14.357 1384 156.41 1112.43 437.81
3208 0 99.6352 14.3925 1434 153.748 1112.62 436.146
3209 0 102.523 14.5919 1496 163.271 1112.73 433.836
3210 0 106.422 14.7056 1565 158.8 1112.51 433.077
3211 0 106.303 14.9384 1588 160.635 1112.67 430.96
3212 0 111.403 14.9278 1663 159.221 1112.59 430.617
3213 0 114.455 14.7569 1689 165.704 1112.77 428.692
3214 0 117.541 14.9224 1754 133.682 1112.64 426.099
3215 0 121.344 14.9327 1812 167.184 1112.95 424.525
3216 0 122.413 15.2435 1866 163.83 1112.92 422.772
3217 0 127.783 14.9864 1915 165.784 1112.72 420.801
3218 0 130.328 15.154 1975 155.993 1112.95 419.16
3219 0 133.476 15.3137 2044 167.124 1112.64 417.846
3220 0 138.525 15.1381 2097 159.324 1112.68 414.842
3221 0 143.709 15.1417 2176 161.555 1112.72 411.847
3222 0 148.517 15.1699 2253 163.852 1112.76 409.514
3223 0 151.406 15.0126 2273 164.803 1112.91 407.837
3224 0 157.46 15.3309 2414 167.479 1112.94 404.268
3225 0 160.264 15.6929 2515 161.489 1113.2 401.096
3226 0 168.472 15.0708 2539 161.534 1112.71 399.272
3227 0 171.428 15.4467 2648 165.808 1112.77 397.252
3228 0 176.39 15.1766 2677 166.19 1113.04 393.91
3229 0 184.704 15.2352 2814 164.451 1113.02 390.512
3230 0 189.318 15.4819 2931 169.493 1112.89 388.87
3231 0 195.405 15.3169 2993 162.634 1113.25 383.909
3232 0 200.494 15.2075 3049 167.834 1113.67 380.194
3233 1 38.4329 8.5864 330 124.515 1114.12 464.655
3234 0 40.3645 9.19125 371 129.58 1113.47 463.372
3235 0 40.4269 8.3113 336 120.592 1113.23 462.896
3236 0 41.4071 9.20133 381 130.538 1113.1 461.341
3237 0 42.4456 9.87147 419 129.489 1112.89 458.833
3238 0 41.5858 10.1477 422 127.479 1112.98 459.164
3239 0 42.6028 9.83504 419 130.938 1112.89 460.625
3240 0 42.7717 9.79619 419 127.055 1113.14 460.389
3241 0 43.2225 9.5552 413 131.366 1113.18 458.784
3242 0 44.2217 9.88202 437 125.243 1114.54 458.428
3243 0 44.3759 9.84769 437 126.046 1114.49 458.654
3244 0 42.2279 9.89866 418 126.184 1114.49 457.299
3245 1 23.0736 6.93434 160 126.738 1113.46 467.781
3246 0 23.0212 6.86323 158 126.614 1113.47 467.595
3247 0 25.0268 6.95255 174 131.063 1113.45 466.316
3248 0 21.0092 6.14018 129 130.047 1114.01 468.101
3249 0 23.0118 6.08384 140 127.714 1114.31 467.521
3250 1 46.2295 9.62589 445 128.281 1115.64 455.672
3251 0 47.1572 9.86064 465 122.271 1115.83 455.138
3252 0 48.1238 9.37166 451 120.747 1116.16 453.982
3253 0 47.0874 9.70535 457 123.775 1116.31 454.63
3254 0 46.171 9.85467 455 126.387 1117.69 454.868
3255 0 47.0999 9.40554 443 123.219 1117.78 453.993
3256 0 48.4409 9.70255 470 125.932 1116.46 454.645
3257 0 44.7463 9.87791 442 119.593 1115.78 457.272
3258 0 47.4868 10.2555 487 123.524 1115.47 456.752
3259 0 47.4302 10.099 479 123.474 1115.03 456.96
3260 0 46.3437 10.9616 508 126.943 1115.39 456.498
3261 0 47.5445 10.3903 494 126.755 1115.6 456.01
3262 0 49.7418 10.4741 521 123.251 1115.73 455.787
3263 1 18.0048 8.9976 162 126.654 1113.38 470.432
3264 0 17.0039 8.58627 146 125.993 1113.01 472.178
3265 0 17.0596 9.20302 157 126.433 1112.86 471.045
3266 0 17.0019 9.35187 159 125.987 1113.25 471.346
3267 0 17.0289 9.16091 156 129.231 1113.35 470.814
3268 0 18.0116 8.71661 157 126 1112.99 470.382
3269 0 17.0095 9.40651 160 129.631 1113.15 470.706
3270 0 18.0734 9.35076 169 127.456 1113.56 470.686
3271 0 18.0224 9.59918 173 123.688 1113.77 471.393
3272 0 19.0331 8.93181 170 128.876 1113.09 471.312
3273 0 19.0105 9.67888 184 123.527 1113.04 470.505
3274 0 19.0973 10.4203 199 123.754 1113.16 469.935
3275 0 18.0434 9.42172 170 134.518 1113.63 471.159
3276 0 18.0128 9.65979 174 128.54 1113.41 470.598
3277 0 18.1331 9.70598 176 129.403 1113.52 471.67
3278 0 19.1047 9.21237 176 132.352 1113.34 471.727
3279 0 18.0443 10.1971 184 128.745 1113.91 471.696
3280 0 18.1662 10.2388 186 131.57 1113.72 471.769
3281 0 19.0249 9.98692 190 127.663 1113.63 471.621
3282 0 19.0267 9.46038 180 131.783 1113.12 471.283
3283 0 19.0657 9.33612 178 139.084 1112.89 470.831
3284 0 19.0657 9.33612 178 137.916 1112.89 470.831
3285 0 19.0588 9.96916 190 138.363 1112.73 471.089
3286 0 19.0401 9.66379 184 138.054 1112.38 471.147
3287 0 19.0011 10.1047 192 133.026 1112.32 471.516
3288 0 20.0802 10.458 210 134.414 1112.1 471.138
3289 0 18.0717 11.3437 205 136.327 1112.46 471.912
3290 0 14.0065 9.13859 128 122.148 1111.36 474.867
3291 0 11.0013 8.72628 96 129.406 1111.07 477.302
3292 0 11.0024 10.7249 118 126.017 1111.53 478.246
3293 0 11.0134 10.805 119 119.168 1111.33 479.05
3294 0 11.0031 9.72452 107 121.299 1111.29 479.561
3295 0 11.0029 9.63381 106 129.349 1111.09 480.151
3296 0 10.0058 9.79427 98 126.724 1111.67 479.878
3297 0 10.0087 10.5908 106 129.123 1111.13 479.566
3298 0 11.0036 9.7241 107 125.383 1110.53 479.981
3299 0 12.002 10.0816 121 127.058 1110.93 479.636
3300 0 10.0005 9.99952 100 123.49 1110.86 480.05
3301 0 13.0128 8.99113 117 130.786 1110.95 479.744
3302 0 12.0081 9.82671 118 123.542 1110.84 479.712
3303 0 12.0511 9.45971 114 125.728 1110.96 479.026
3304 0 12.0048 9.82941 118 126.331 1110.73 479.839
3305 0 12.0392 8.9707 108 124.648 1110.7 480.37
3306 0 12.0318 9.39182 113 121.735 1110.39 480.354
3307 0 12.0026 9.83121 118 124.025 1110.69 482.246
3308 0 13.1218 8.91648 117 126.427 1110.46 480.889
3309 1 49.5945 12.824 636 135.005 1113.41 462.841
3310 0 50.8756 12.5797 640 136.725 1113.3 462.205
3311 0 49.698 12.1534 604 135.947 1113.67 461.634
3312 0 50.6041 12.4891 632 134.934 1113.08 461.938
3313 0 50.4629 13.2176 667 132.813 1113.16 462.238
3314 0 49.4251 12.18 602 138.628 1112.52 460.714
3315 0 51.4064 12.5471 645 136.47 1112.9 461.581
3316 0 51.6165 11.7792 608 133.758 1112.8 462.138
3317 0 51.613 12.2256 631 131.021 1113.46 461.057
3318 0 52.597 12.4342 654 130.431 1113.19 461.044
3319 0 51.365 12.4209 638 132.328 1113.63 460.942
3320 0 51.3551 12.4623 640 136.325 1113.41 460.414
3321 0 51.4992 12.6992 654 133.901 1113.67 461.394
3322 0 51.4317 12.5798 647 131.099 1113.51 461.158
3323 0 51.4705 12.0069 618 131.049 1113.02 460.903
3324 0 50.4812 11.9252 602 131.311 1112.83 461.744
3325 0 52.357 11.9182 624 130.213 1112.85 461.292
3326 0 51.3509 12.1712 625 133.16 1112.87 461.699
3327 0 51.7034 12.0495 623 136.056 1112.74 462.101
3328 0 51.7446 12.0979 626 134.669 1112.77 461.607
3329 0 52.8613 12.2585 648 135.769 1112.95 461.731
3330 0 52.8419 12.1116 640 125.327 1113.6 461.195
3331 0 52.5046 11.6752 613 128.639 1113.17 461.863
3332 0 52.4692 11.8927 624 135.696 1113.06 461.771
3333 0 52.4778 11.967 628 133.288 1112.89 461.592
3334 0 51.6491 11.7717 608 136.548 1112.5 461.567
3335 0 53.4738 12.0059 642 131.439 1113.18 461.43
3336 0 53.4236 11.9423 638 130.657 1113.12 460.908
3337 0 52.5373 12.4864 656 130.776 1112.86 460.226
3338 0 53.4786 11.6308 622 135.169 1113.09 460.566
3339 1 12.0302 9.89174 119 124.227 1110.55 479.714
3340 0 12.0573 10.4501 126 119.016 1110.97 479.175
3341 0 12.029 8.3964 101 117.198 1111.27 479.485
3342 0 13.0211 9.59978 125 121.352 1110.9 479.576
3343 0 13.052 10.8029 141 113.411 1111.18 478.766
3344 0 14.069 9.45342 133 120.955 1111.26 478.383
3345 0 14.1666 10.5177 149 120.544 1111.07 478.275
3346 0 13.0647 11.0986 145 118.103 1111.46 478.241
3347 0 11.0334 11.3292 125 118.888 1111.46 477.656
3348 0 13.0099 11.1453 145 109.359 1111.56 476.793
3349 0 13.0011 9.99915 130 112.923 1111.33 476.5
3350 0 13.0003 10.4613 136 117.368 1111.16 475.596
3351 0 14.0157 9.77474 137 112.365 1111.7 476.62
3352 0 14.0291 9.26643 130 115.369 1111.69 475.769
3353 0 14.0042 8.64027 121 117.116 1110.79 475.727
3354 0 15.0178 9.25571 139 112.353 1111.6 475.914
3355 0 14.0188 10.2006 143 112.441 1111.52 476.524
3356 0 14.008 9.78015 137 114.328 1111.93 476.526
3357 0 12.0295 10.5573 127 106.567 1111.6 476.039
3358 0 12.0015 10.7486 129 112.473 1111.52 476.046
3359 0 13.008 10.2245 133 112.534 1111.65 476.361
3360 0 13.0012 10.5375 137 107.905 1111.83 475.182
3361 0 13.0019 11.2291 146 106.219 1112.11 474.918
3362 0 12.0121 12.2377 147 106.707 1112.12 475.381
3363 0 12.0024 10.3313 124 108.968 1111.96 474.903
3364 0 13.0235 9.75159 127 107.323 1112.13 474.661
3365 0 14.006 9.28175 130 106.169 1112.08 474.269
3366 1 55.4661 12.1696 675 114.519 1115.16 454.71
3367 0 55.4321 12.0327 667 112.235 1115.1 454.216
3368 0 57.7072 12.1129 699 108.674 1115.37 453.486
3369 0 54.3935 12.1154 659 113.882 1115.6 455.08
3370 0 57.3172 11.794 676 113.954 1115.59 454.188
3371 0 56.4815 11.1364 629 112.663 1115.96 454.909
3372 0 55.5903 11.7826 655 113.469 1115.94 454.876
3373 0 56.3909 11.775 664 110.762 1116.15 454.607
3374 0 53.2347 11.4775 611 110.727 1115.8 454.902
3375 0 55.3865 11.5371 639 113.482 1115.88 455.66
3376 0 55.4478 11.0194 611 116.673 1115.9 454.998
3377 0 56.4046 11.3466 640 114.398 1116.19 454.53
3378 0 55.4053 10.9015 604 111.715 1115.79 454.757
3379 0 56.6071 11.147 631 115.528 1116.19 454.498
3380 0 55.5864 11.2078 623 111.854 1116.38 453.676
3381 0 56.4258 11.1651 630 114.8 1116.2 453.986
3382 0 54.2966 11.7687 639 114.914 1116.1 454.577
3383 0 55.5978 11.1695 621 115.931 1116.05 453.243
3384 0 55.6038 11.9416 664 110.203 1116.51 453.929
3385 0 57.5054 11.1294 640 108.295 1116.06 454.684
3386 0 55.6288 11.1813 622 110.754 1116.06 454.952
3387 0 54.3101 11.3975 619 113.236 1116.2 454.33
3388 0 54.5917 10.8075 590 108.342 1116.1 453.483
3389 0 55.3072 11.0655 612 112.577 1115.66 455.248
3390 0 56.4265 10.9346 617 113.24 1115.56 454.446
3391 0 55.3219 11.2614 623 104.478 1115.82 455.226
3392 0 56.6366 10.5762 599 102.538 1115.21 455.255
3393 0 56.3461 11.9085 671 39.6587 1115.52 455.204
3394 0 55.7765 11.6178 648 100.779 1115.68 454.679
3395 0 53.3564 12.0135 641 98.9298 1115.48 454.29
3396 0 54.4646 11.1265 606 103.518 1115.47 455.018
3397 0 54.6683 11.3411 620 103.048 1115.34 455.947
3398 0 53.4986 11.5891 620 102.111 1115.12 456.374
3399 0 53.3653 11.8804 634 103.041 1114.94 456.252
3400 0 54.7256 10.909 597 106.233 1114.88 456.003
3401 0 54.6956 10.7504 588 99.699 1114.83 456.585
3402 0 54.8007 11.1677 612 100.42 1114.85 456.882
3403 0 53.4074 11.0659 591 103.523 1114.69 455.332
3404 0 55.7128 10.4644 583 103.823 1114.7 455.12
3405 0 54.6065 11.3356 619 101.254 1114.71 455.971
3406 0 54.5369 11.0567 603 102.166 1114.29 456.214
3407 0 54.4708 10.3358 563 105.146 1114.47 456.632
3408 0 53.6994 11.3409 609 101.716 1113.93 456.079
3409 0 54.3662 11.4593 623 104.86 1114.22 456.061
3410 0 54.4826 11.031 601 101.985 1113.71 456.309
3411 0 55.7498 11.0673 617 106.844 1113.86 456.716
3412 0 54.4664 10.9058 594 102.362 1113.2 456.751
3413 0 54.6916 11.4826 628 101.475 1113.46 458.08
3414 0 55.605 10.9882 611 106.249 1113.53 457.439
3415 0 53.2605 10.9274 582 102.84 1113.84 457.553
3416 0 54.3403 11.4832 624 104.724 1113.59 457.455
3417 0 55.3566 11.7059 648 105.164 1113.8 457.122
3418 0 56.3133 11.7557 662 102.282 1114.03 455.906
3419 0 54.2966 10.9215 593 106.379 1113.63 456.75
3420 0 55.2279 11.2624 622 103.706 1113.7 456.714
3421 0 57.1696 10.9324 625 98.1472 1114.02 456.514
3422 0 55.3356 11.367 629 104.723 1113.36 457.132
3423 0 56.2203 11.3482 638 104.724 1113.96 456.876
3424 0 57.2253 10.9217 625 102.402 1113.94 457.176
3425 0 55.2646 11.1645 617 102.465 1113.82 457.248
3426 0 56.2328 11.7903 663 103.627 1113.52 457.023
3427 0 57.0803 11.2999 645 102.042 1112.96 457.448
3428 0 56.1849 11.2842 634 101.968 1113.22 458.487
3429 0 57.2319 12.0737 691 97.2489 1113.21 457.305
3430 0 58.1638 11.2613 655 94.2397 1113.07 457.592
3431 0 57.3085 11.2549 645 101.459 1113.47 457.71
3432 0 57.2707 11.2448 644 100.455 1113.11 457.351
3433 0 57.3197 11.4969 659 98.2762 1113.04 456.803
3434 0 57.3492 11.2992 648 96.1559 1112.89 457.539
