index division length width area intensity CMx CMy
0 0 48.1282 14.5029 698 147.577 1292.64 485.703
1 0 50.1724 14.51 728 146.669 1293.43 486.212
2 0 51.114 14.5948 746 146.988 1294.08 484.771
3 0 53.179 14.7051 782 146.847 1293.62 482.976
4 0 54.0834 14.5701 788 145.042 1293.42 482.784
5 0 57.1246 14.3896 822 141.946 1293.31 481.524
6 0 58.1626 14.9409 869 142.445 1292.62 480.568
7 0 60.1913 14.7364 887 145.256 1292.09 479.766
8 0 63.1672 14.8178 936 141.072 1291.93 477.956
9 0 67.0829 14.6386 982 138.437 1291.64 476.942
10 0 66.0524 15.1395 1000 141.197 1292.05 476.711
11 0 69.1267 14.9436 1033 137.163 1292.46 475.833
12 0 72.1305 14.5431 1049 142.47 1293 474.328
13 0 75.1723 14.4202 1084 144.293 1294 472.281
14 0 76.0986 14.7966 1126 144.259 1294.59 470.62
15 0 80.1116 14.9292 1196 145.6 1295.68 467.047
16 0 82.2213 14.5461 1196 141.054 1296.87 465.642
17 0 86.0895 14.2062 1223 142.667 1296.71 464.292
18 0 89.4114 14.6066 1306 144.511 1297.57 463.001
19 0 91.1131 14.4326 1315 146.576 1298.37 461.318
20 0 96.1875 14.4717 1392 145.419 1298.97 458.271
21 0 100.124 14.8116 1483 143.034 1299.46 456.21
22 0 104.143 14.6337 1524 148.949 1300.02 454.522
23 0 107.152 14.876 1594 153.811 1300.81 452.393
24 0 113.149 15.0863 1707 150.227 1301.37 451.012
25 0 116.225 14.9365 1736 152.39 1301.99 449.118
26 0 121.15 14.5604 1764 150.948 1301.9 447.621
27 0 123.211 15.1854 1871 157.686 1301.96 443.639
28 0 129.152 15.1759 1960 155.911 1302.65 441.716
29 0 134.234 14.6908 1972 155.959 1302.94 439.72
30 0 139.223 15.0478 2095 156.556 1302.27 436.579
31 0 143.249 14.5411 2083 158.243 1301.83 436.579
32 0 147.164 15.0445 2214 158.197 1301.79 433.137
33 0 154.197 15.0522 2321 160.392 1301.59 430.591
34 1 85.1903 13.7692 1173 167.426 1300.34 462.841
35 0 89.1247 14.1599 1262 158.097 1299.93 460.113
36 0 91.1944 13.7508 1254 165.462 1299.22 458.718
37 0 96.2707 14.0022 1348 162.55 1299.02 458.403
38 0 97.1639 14.2028 1380 167.044 1298.72 456.723
39 1 144.235 14.5318 2096 168.458 1298.51 433.374
40 0 148.303 14.8075 2196 163.414 1298.37 431.302
41 0 155.262 14.775 2294 160.409 1298.24 428.506
42 0 159.196 15.0569 2397 163.488 1297.7 425.999
43 0 166.341 14.9452 2486 158.666 1297.09 422.621
44 0 172.271 14.6746 2528 160.057 1296.66 420.068
45 1 126.202 14.041 1772 166.021 1295.92 443.234
46 0 131.353 14.008 1840 170.07 1296.54 440.378
47 0 133.234 14.103 1879 164.885 1296.3 440.152
48 0 137.303 14.0856 1934 169.61 1296.12 436.968
49 1 69.1116 12.7909 884 167.457 1295.79 470.541
50 0 72.1611 12.874 929 167.141 1296.36 469.084
51 0 73.2026 12.9367 947 170.219 1295.58 468.058
52 0 78.1618 12.9347 1011 164.272 1295.76 466.177
53 0 80.2494 13.1216 1053 169.736 1295.13 465.17
54 0 83.184 12.827 1067 170.453 1295.22 463.387
55 0 84.1753 13.2699 1117 172.757 1295.42 461.84
56 1 182.521 14.3162 2613 149.893 1295.76 415.806
57 0 189.273 14.0802 2665 155.629 1296.31 411.726
58 0 48.1402 12.8791 620 156.995 1296.16 480.031
59 0 51.2518 12.2922 630 154.005 1296.32 478.549
60 0 51.1456 12.611 645 160.099 1296.55 477.966
61 0 54.1455 12.4849 676 158.322 1297.4 477.604
62 0 56.1747 12.5501 705 157.234 1297.72 476.112
63 0 57.268 12.4677 714 151.758 1297.89 474.726
64 0 59.1755 12.4207 735 156.396 1297.99 474.634
65 0 61.2886 12.6451 775 153.886 1298.7 473.383
66 0 64.2574 12.6678 814 152.477 1298.18 471.991
67 0 66.2818 12.296 815 159.561 1298.77 471.544
68 0 68.5848 12.0143 824 151.627 1299.42 470.739
69 0 70.3197 12.429 874 164.318 1299.05 469.307
70 0 75.2279 11.9636 900 156.326 1297.87 467.353
71 0 77.5466 12.341 957 161.803 1297.44 465.763
72 1 40.0297 12.141 486 155.802 1297.38 482.496
73 0 42.0268 12.3493 519 154.786 1297.38 481.545
74 0 45.106 11.9275 538 150.766 1296.44 480.307
75 0 45.1493 12.4476 562 158.301 1296.77 480.137
76 0 48.065 12.1502 584 154.295 1296.75 480.233
77 0 48.131 12.2582 590 154.239 1296.69 479.103
78 0 51.0242 12.1315 619 152.464 1297.06 477.691
79 0 52.062 11.9665 623 156.538 1297.22 477.379
80 0 54.0561 12.709 687 159.967 1297.06 475.948
81 0 56.0092 12.3908 694 155.209 1296.89 475.228
82 0 58.0183 12.2892 713 156.335 1296.73 474.425
83 0 59.1322 13.1231 776 156.559 1296.69 472.481
84 0 62.0925 12.8035 795 157.332 1296.43 472.703
85 0 61.1713 13.0944 801 154.935 1296.29 471.754
86 0 65.0667 12.9098 840 156.338 1295.98 470.248
87 0 67.0472 12.8566 862 156.962 1296.43 470.175
88 0 70.1993 12.9346 908 149.956 1296.31 469.638
89 0 72.1444 13.0987 945 148.924 1295.9 467.312
90 0 74.1023 13.0765 969 151.281 1295.73 466.868
91 0 76.1525 13.1709 1003 149.777 1296.07 465.458
92 0 78.2743 13.0311 1020 154.857 1296.16 464.874
93 0 81.3415 13.4003 1090 155.714 1295.54 462.324
94 0 84.2286 13.1191 1105 155.758 1295.55 461.31
95 0 85.44 13.4597 1150 146.696 1295.64 460.389
96 0 90.2109 13.1802 1189 150.646 1295.59 458.795
97 1 47.2562 11.9773 566 147.595 1295.22 479.496
98 0 48.3394 12.495 604 149.879 1295.1 479.07
99 0 51.2515 12.3118 631 139.578 1295.2 478.45
100 0 50.1833 13.3511 670 147.378 1295.28 477.184
101 0 53.1617 12.6783 674 146.469 1295.59 477.286
102 0 56.1459 12.9662 728 146.426 1295.02 475.75
103 0 56.097 12.9597 727 150.37 1295.97 475.393
104 0 57.0867 13.4707 769 149.099 1296.35 474.298
105 0 60.1446 13.5341 814 151.717 1296.62 473.843
106 0 61.1488 13.1482 804 153.626 1296.36 472.903
107 0 62.1461 13.7096 852 142.942 1296.15 472.013
108 0 64.1102 13.5704 870 148.502 1295.69 472.103
109 0 67.0838 13.6993 919 152.52 1295.79 470.762
110 0 70.1293 13.361 937 155.067 1295.51 468.628
111 0 73.1047 13.2276 967 153.644 1295.87 467.699
112 0 72.1111 13.9923 1009 154.949 1295.29 465.834
113 0 78.0632 13.3482 1042 152.369 1295.22 464.719
114 0 81.129 13.8915 1127 147.947 1294.89 462.14
115 0 82.268 13.4317 1105 150.405 1294.91 461.925
116 0 84.2053 13.479 1135 150.284 1294.99 461.306
117 0 87.248 13.5934 1186 147.508 1294.79 460.751
118 0 91.1388 13.5288 1233 149.189 1295.24 457.875
119 1 52.0522 12.2569 638 144.914 1295.05 477.089
120 0 52.0516 12.43 647 151.607 1295.48 477.957
121 0 54.1398 13.1511 712 148.758 1295.74 476.202
122 0 55.1159 13.263 731 153.546 1295.95 474.752
123 0 56.0845 13.7649 772 149.006 1296.24 473.63
124 0 59.0504 13.3276 787 153.83 1296.26 473.072
125 0 60.1358 13.3365 802 155.468 1296.4 471.357
126 0 61.2061 13.6261 834 154.855 1296.74 469.9
127 0 64.3298 13.322 857 155.244 1297.05 467.938
128 0 67.3284 13.0851 881 150.388 1296.64 467.091
129 0 66.2589 13.8698 919 153.163 1296.67 465.041
130 0 72.1656 13.4967 974 151.426 1296.98 464.074
131 0 74.315 13.7388 1021 149.551 1296.75 462.718
132 0 76.2979 13.6177 1039 153.042 1296.93 461.129
133 0 78.3815 13.8298 1084 151.3 1296.95 459.362
134 0 81.3436 13.7565 1119 146.71 1296.77 457.853
135 0 84.3314 13.8501 1168 152.041 1296.76 456.355
136 0 86.3451 13.944 1204 146.927 1296.84 454.3
137 0 91.2074 13.7598 1255 146.413 1296.85 451.063
138 0 95.166 13.6814 1302 146.792 1297.64 451.276
139 1 51.1609 11.4932 588 150.264 1298.03 472.401
140 0 52.1605 12.2698 640 139.822 1298.63 471.852
141 0 55.1704 12.5248 691 141.728 1298.3 471.408
142 0 57.0701 12.7562 728 147.893 1299.12 472.566
143 0 57.1062 13.0284 744 141.734 1300.01 470.968
144 0 60.0218 12.9286 776 145.454 1299.98 469.468
145 0 62.1032 13.1233 815 142.456 1299.44 468.524
146 0 64.1353 12.9414 830 147.414 1299.58 467.271
147 0 65.0221 13.2109 859 133.978 1300.18 464.716
148 0 68.0608 13.4879 918 133.73 1300.41 463.975
149 0 68.0608 13.4879 918 162.498 1299.41 463.975
150 0 72.0659 13.6958 987 136.146 1300.89 460.705
151 0 74.1451 13.6354 1011 136.575 1300.98 459.751
152 0 77.1054 13.6955 1056 138.502 1301.1 459.069
153 0 82.1071 13.3971 1100 138.991 1300.98 456.137
154 0 82.2445 14.007 1152 134.243 1300.86 454.896
155 0 86.2163 13.1994 1138 136.251 1300.99 453.205
156 0 88.1504 13.908 1226 133.675 1300.86 451.292
157 0 93.1902 13.4564 1254 131.862 1301.04 450.258
158 0 97.3093 13.678 1331 121.378 1301.33 446.897
159 0 99.2377 13.4929 1339 135.456 1301.58 446.248
160 0 104.284 13.2331 1380 128.568 1302.52 443.018
161 0 108.221 13.5464 1466 136.235 1303.19 441.386
162 1 53.1604 12.3024 654 124.584 1303.23 468.498
163 0 54.232 11.9302 647 127.278 1303.56 468.275
164 0 56.1789 12.5492 705 122.999 1302.99 467.884
165 0 58.2858 12.5073 729 125.754 1303.2 467.082
166 0 60.1618 12.3002 740 125.016 1303.18 466.005
167 0 60.1467 12.7023 764 125.516 1303.52 464.36
168 0 63.1585 12.3657 781 125.493 1302.86 463.533
169 0 66.1023 13.1614 870 126.194 1302.81 461.239
170 0 67.1504 13.2389 889 131.836 1303.12 460.602
171 0 71.0584 12.6797 901 127.729 1302.78 459.769
172 0 73.1708 12.6143 923 137.104 1302.49 458.249
173 0 76.1398 12.7791 973 129.509 1302.3 455.374
174 0 78.0948 13.2147 1032 130.445 1302.26 454.57
175 0 80.2043 12.9045 1035 134.308 1301.94 454.747
176 0 84.2114 13.2524 1116 131.656 1302.04 452.022
177 0 89.2715 12.9381 1155 138.381 1301.98 449.978
178 0 91.1888 13.0169 1187 132.559 1302.87 448.778
179 0 94.2568 13.0495 1230 137.663 1303.51 447.221
180 0 99.3354 12.5333 1245 140.302 1303.1 445.181
181 0 103.377 12.8366 1327 18.0354 1303.32 444.066
182 0 105.295 13.258 1396 135.439 1303.12 441.774
183 1 57.1216 11.8519 677 139.363 1302.52 464.984
184 0 60.1457 12.1871 733 137.426 1303.11 463.217
185 0 60.1435 12.0711 726 137.047 1303.46 463.069
186 0 61.1285 12.0729 738 139.77 1303.75 463.314
187 0 64.0998 12.5585 805 134.441 1302.43 460.836
188 0 65.1587 12.3238 803 136.126 1302.74 460.8
189 0 67.1405 12.4217 834 131.103 1303.3 459.807
190 0 70.1996 12.436 873 131.473 1302.99 459.257
191 0 74.1662 12.4046 920 130.827 1303.53 457.397
192 0 76.1324 12.3469 940 126.722 1303.13 456.228
193 0 76.161 12.7756 973 127.935 1302.56 454.547
194 0 80.1293 12.667 1015 131.765 1302.89 453.189
195 0 84.0926 12.736 1071 129.733 1302.8 451.655
196 0 87.1124 12.5355 1092 127.42 1302.72 450.06
197 0 91.1969 12.643 1153 130.441 1303.25 448.781
198 1 49.3444 10.984 542 126.089 1302.68 468.993
199 0 51.1857 11.5267 590 130.976 1303 467.58
200 0 53.223 11.5927 617 129.903 1302.4 467.734
201 0 54.1769 12.2008 661 119.998 1302.96 466.127
202 0 55.1913 12.2302 675 128.419 1302.42 465.357
203 0 57.3393 12.522 718 124.609 1301.88 463.446
204 0 59.1611 12.3561 731 126.332 1301.9 462.826
205 0 61.4315 12.518 769 124.33 1301.81 462.623
206 0 63.279 12.5634 795 129.361 1301.3 462.062
207 0 64.4822 12.2204 788 129.272 1301.16 461.388
208 0 65.3979 12.7986 837 127.633 1301.06 460.743
209 0 68.3489 12.9775 887 121.372 1300.66 457.874
210 0 71.3937 12.6202 901 126.289 1300.29 458.127
211 0 71.6024 12.9465 927 131.014 1300.88 457.22
212 0 73.7279 13.0615 963 133.696 1301.02 455.068
213 0 77.4688 13.5409 1049 134.871 1301.23 453.532
214 0 79.519 13.1541 1046 135.83 1300.75 453.535
215 0 83.5227 13.0503 1090 130.425 1300.91 452.934
216 0 86.6115 13.1622 1140 134.625 1300.83 451.668
217 0 87.5218 13.2995 1164 127.386 1300.7 451.228
218 0 90.4832 13.1406 1189 132.351 1300.74 449.486
219 0 94.8112 13.2368 1255 138.649 1300.45 448.216
220 0 98.5996 13.2252 1304 134.676 1300.43 444.835
221 0 102.426 13.3754 1370 127.48 1300.29 444.302
222 1 54.2644 11.831 642 115.488 1300.01 466.763
223 0 52.1321 12.219 637 138.876 1299.07 465.749
224 0 55.0956 12.5781 693 141.759 1298.75 466.948
225 0 57.1001 12.7671 729 133.914 1299.08 466.551
226 0 60.1366 12.5381 754 139.196 1299.33 465.424
227 0 61.3394 12.7324 781 138.554 1300.09 464.656
228 0 64.2226 12.6435 812 137.538 1300.6 463.743
229 0 63.2308 12.5097 791 136.582 1300.4 463.363
230 0 67.38 12.4815 841 139.018 1300.93 462.944
231 0 68.1768 13.0103 887 138.577 1300.59 460.435
232 0 69.167 13.0843 905 138.252 1300.66 459.901
233 0 72.3944 12.9706 939 141.456 1300.63 458.253
234 0 74.1961 12.9522 961 136.021 1300.54 457.893
235 0 77.4371 12.9266 1001 139.906 1300 456.62
236 0 78.6389 13.0724 1028 144.007 1300.35 455.477
237 0 81.515 12.9792 1058 145.422 1300.34 452.963
238 0 85.482 13.7573 1176 140.505 1300.21 450.534
239 0 87.3962 13.2958 1162 138.021 1300.44 451.02
240 0 92.4569 12.8492 1188 140.244 1299.76 449.557
241 0 94.3526 12.9302 1220 138.524 1299.62 448.855
242 0 97.5477 12.8758 1256 135.229 1299.5 446.875
243 0 101.237 12.7325 1289 135.529 1300.11 444.062
244 1 52.1161 11.8965 620 139.147 1299.86 467.974
245 0 54.2344 11.8006 640 139.805 1300.23 466.722
246 0 56.2016 12.295 691 135.441 1300.48 467.676
247 0 57.2704 12.1703 697 132.221 1300.01 465.657
248 0 59.1989 12.1286 718 137.745 1300.31 467.23
249 0 63.1257 12.1979 770 129.605 1299.77 465.377
250 0 64.198 12.5549 806 134.22 1300.45 464.264
251 0 65.1441 13.0173 848 125.772 1300.66 461.272
252 0 68.3704 12.6224 863 139.453 1300.28 460.387
253 0 71.2348 12.6343 900 137.323 1300.8 459.256
254 0 72.195 12.951 935 134.814 1301.54 458.511
255 0 77.2389 12.4808 964 132.917 1301.78 456.985
256 0 79.2524 12.8072 1015 139.978 1301.5 455.185
257 0 80.1695 12.5734 1008 137.827 1301.77 454.305
258 0 83.2434 12.7337 1060 137.143 1302.04 452.786
259 0 86.283 12.4126 1071 135.45 1301.95 452.272
260 0 89.4203 12.637 1130 136.889 1302.25 450.179
261 0 92.4816 12.6512 1170 139.55 1301.79 447.882
262 1 47.2378 11.6009 548 140.04 1301.44 469.836
263 0 50.2596 11.9579 601 130.514 1302.36 469.348
264 0 50.303 12.1066 609 133.361 1302.4 468.356
265 0 52.1972 11.8972 621 135.755 1302.6 468.027
266 0 54.3168 12.2246 664 130.748 1302.27 467.209
267 0 54.183 12.2363 663 133.106 1302.34 466.575
268 0 57.2861 12.0623 691 135.671 1302.18 465.216
269 0 57.1665 12.4199 710 133.287 1302.18 465.144
270 0 61.2078 12.4167 760 129.464 1302.68 463.503
271 0 60.1723 12.9295 778 134.139 1303.01 463.233
272 0 64.1312 12.4744 800 132.516 1303.12 461.714
273 0 65.1642 12.8445 837 131.109 1303.64 461.968
274 0 69.1697 12.5778 870 133.19 1303.51 460.694
275 0 70.1346 12.804 898 130.194 1302.97 459.061
276 0 73.1386 12.7429 932 136.347 1303.02 457.961
277 0 75.0845 12.8522 965 136.649 1302.39 456.59
278 0 78.0965 12.6254 986 129.963 1302.58 455.82
279 0 80.1566 12.6003 1010 129.05 1303.23 454.362
280 0 83.3317 12.6723 1056 132.545 1303.42 453.185
281 0 85.2252 12.86 1096 133.815 1303.66 451.215
282 0 88.1731 12.4528 1098 135.022 1303.66 449.515
283 0 90.2628 12.9289 1167 138.19 1304.06 449.401
284 1 49.0433 11.9486 586 133.94 1304.55 469.582
285 0 49.1547 12.1453 597 130.93 1304.93 469.938
286 0 49.2801 12.3579 609 134.826 1305.01 469.458
287 0 54.1287 12.0084 650 131.409 1305.09 467.895
288 0 55.1702 12.3618 682 133.371 1304.9 466.431
289 0 56.1787 12.389 696 130.654 1304.7 466.693
290 0 55.2042 12.5172 691 137.433 1304.22 466.116
291 0 58.1649 12.6881 738 147.814 1304.59 465.062
292 0 61.1084 12.6169 771 140.712 1303.53 463.319
293 0 63.1823 12.0287 760 141.216 1303.4 462.039
294 0 63.0713 13.0804 825 135.181 1303.14 461.612
295 0 66.0475 12.4002 819 147.346 1303.22 460.838
296 0 68.1256 12.7265 867 144.73 1302.67 458.548
297 0 69.1952 12.9055 893 145.568 1302.5 457.777
298 0 73.2144 12.4839 914 145.672 1301.96 456.296
299 0 77.1216 12.4868 963 151.207 1302.46 454.854
300 0 78.1704 12.4344 972 150.277 1302.05 453.888
301 0 80.1021 12.6089 1010 145.576 1302.05 453.39
302 0 84.1886 12.9471 1090 143.111 1302.72 451.065
303 0 85.2204 12.896 1099 145.337 1302.64 449.943
304 0 88.2643 12.7685 1127 135.146 1302.52 449.098
305 0 94.2151 12.6625 1193 146.733 1302.55 448.251
306 1 48.0752 12.0644 580 142.705 1302.19 469.695
307 0 48.0104 12.0807 580 140.676 1301.4 469.228
308 0 49.0316 11.8291 580 145.997 1301.33 468.376
309 0 51.0492 11.8317 604 141.955 1300.78 467.904
310 0 52.0359 11.9917 624 142.429 1300.9 466.649
311 0 54.092 11.7208 634 139.562 1301.25 466.756
312 0 54.028 12.4195 671 149.258 1301.46 466.215
313 0 56.0462 12.686 711 135.44 1300.89 464.491
314 0 59.0685 12.2062 721 145.319 1301.56 464.473
315 0 60.1192 12.3754 744 146.051 1301.24 463.753
316 0 62.0592 12.6653 786 141.365 1301.21 462.687
317 0 64.0545 12.4894 800 143.8 1300.98 461.934
318 0 64.0726 12.9072 827 145.4 1300.54 460.181
319 0 67.1064 12.741 855 144.925 1301.1 460.689
320 0 66.172 13.208 874 140.787 1301.09 459.188
321 0 70.2495 12.8684 904 150.445 1301.39 459.746
322 0 71.1232 13.4415 956 145.283 1301.84 457.616
323 0 74.1481 13.8372 1026 147.071 1302.36 457.69
324 0 77.1368 13.2751 1024 146.779 1302.2 454.705
325 0 79.3074 12.937 1026 144.306 1302.66 453.643
326 0 81.1686 13.5028 1096 145.323 1303.15 452.552
327 0 87.3408 13.2126 1154 148.389 1302.23 452.313
328 0 89.165 13.2339 1180 153.297 1302.25 449.785
329 0 91.2364 13.0211 1188 140.811 1301.91 449.275
330 1 44.2564 11.3656 503 142.66 1301.9 471.909
331 0 46.1531 11.7652 543 141.136 1301.85 469.875
332 0 47.42 12.1468 576 140.568 1301.48 467.438
333 0 49.0524 12.8638 631 135.696 1301.78 468.448
334 0 51.1176 12.4615 637 136.689 1301.05 467.868
335 0 52.1673 12.3257 643 141.096 1301.09 466.291
336 0 54.0329 12.4739 674 137.114 1300.57 465.347
337 0 55.4072 12.7601 707 132.88 1300.91 464.761
338 0 57.3506 12.9554 743 130.49 1300.56 463.948
339 0 59.2739 13.0412 773 135.211 1301.02 464.351
340 0 60.3308 13.4426 811 132.17 1301.48 463.748
341 0 61.3794 13.2944 816 137.352 1302 463.414
342 0 63.3452 13.1975 836 137.244 1301.94 462.684
343 0 64.3889 13.201 850 132.662 1300.86 460.994
344 0 68.225 13.2356 903 132.573 1301.55 461.102
345 0 69.4495 13.3046 924 134.216 1301.5 460.488
346 0 72.502 12.9514 939 133.656 1301.19 458.868
347 0 75.4737 13.5014 1019 132.02 1300.89 456.619
348 0 78.533 12.8608 1010 128.361 1300.9 455.547
349 0 80.581 13.4151 1081 128.192 1300.66 453.826
350 0 84.3951 12.8443 1084 131.009 1301.15 452.713
351 1 43.46 11.873 516 132.382 1300.66 471.932
352 0 45.3267 11.9576 542 125.109 1300.5 470.533
353 0 46.2674 12.4061 574 125.437 1300.61 470.962
354 0 48.0714 12.4814 600 128.917 1300.83 471.698
355 0 49.0529 12.8025 628 126.548 1300.65 471.67
356 0 50.1083 13.1715 660 128.114 1300.73 470.809
357 0 52.043 12.8355 668 126.287 1300.68 469.765
358 0 53.1155 13.0659 694 130.059 1301.74 468.775
359 0 54.1501 13.3703 724 137.318 1301.78 467.456
360 0 58.204 13.3152 775 131.529 1301.72 466.663
361 0 59.0536 13.2422 782 126.807 1302.01 465.376
362 0 61.1411 12.741 779 132.078 1302 465.696
363 0 62.1208 13.3289 828 140.208 1301.97 463.575
364 0 64.1742 13.8841 891 136.178 1302.2 463.612
365 0 67.0318 13.7994 925 136.037 1302.79 462.269
366 0 68.1179 13.5647 924 139.081 1302.59 460.797
367 0 69.1256 13.7286 949 137.605 1302.07 459.508
368 0 72.0889 13.5943 980 147.2 1302.3 458.194
369 0 76.1011 13.6923 1042 141.118 1301.72 456.969
370 0 77.1738 13.5797 1048 141.598 1301.15 455.805
371 0 81.1223 13.8063 1120 144.538 1301.85 455.197
372 0 83.1345 13.5804 1129 132.859 1302.02 453.252
373 0 87.1363 13.8519 1207 131.038 1302.11 451.582
374 0 91.1773 13.7644 1255 138.492 1302.38 450.263
375 0 93.1526 14.1381 1317 131.374 1302.44 447.646
376 0 98.1628 13.8749 1362 132.803 1302.45 445.432
377 0 100.143 13.9202 1394 136.329 1302.5 443.098
378 0 104.173 13.6792 1425 133.377 1302.41 442.342
379 0 109.132 13.6073 1485 133.201 1302.45 440.389
380 1 54.0519 12.3585 668 133.533 1302.31 466.099
381 0 57.0486 12.1475 693 136.056 1302.47 465.211
382 0 58.0167 12.8239 744 129.536 1302.92 464.374
383 0 60.1094 12.5438 754 136.765 1302.95 463.643
384 0 63.067 12.7483 804 135.305 1303.16 461.805
385 0 66.0694 13.1528 869 129.186 1303.11 460.339
386 0 68.105 12.98 884 138.288 1303.25 459.421
387 0 70.1649 13.0122 913 136.371 1303.51 457.099
388 0 71.1651 13.4195 955 136.801 1303.49 457.527
389 0 74.2049 13.3414 990 138.217 1303.82 456.104
390 0 78.0778 13.1792 1029 130.12 1303.75 454.611
391 0 80.1649 13.4223 1076 132.244 1303.47 453.564
392 0 82.1311 13.2836 1091 132.191 1303.34 452.62
393 0 85.0809 13.8104 1175 136.997 1302.94 450.115
394 0 90.0756 13.1667 1186 133.119 1303.2 449.344
395 0 93.0718 12.8288 1194 134.229 1302.65 447.703
396 0 95.0994 13.7645 1309 133.136 1302.97 445.438
397 0 100.13 13.3427 1336 135.159 1302.43 443.508
398 1 52.0467 11.4513 596 125.646 1302.31 468.529
399 0 54.111 11.9939 649 130.405 1302.36 467.402
400 0 54.1206 12.3243 667 134.66 1303.54 467.04
401 0 56.1118 12.5286 703 132.509 1303.56 465.839
402 0 58.1421 11.9019 692 133.34 1303.77 466.103
403 0 60.1553 12.0189 723 132.394 1303.34 464.74
404 0 62.0862 12.3377 766 130.956 1302.81 463.572
405 0 64.1264 12.6469 811 134.133 1302.79 462.688
406 0 65.161 12.6456 824 129.587 1302.38 462.404
407 0 68.1597 12.2653 836 142.772 1303.08 461.596
408 0 68.1923 12.89 879 139.587 1301.98 460.353
409 0 71.1214 13.034 927 138.921 1302.15 459.549
410 0 73.253 12.8595 942 139.338 1301.61 459.156
411 0 75.0848 13.1718 989 133.194 1301.79 457.076
412 0 77.1067 13.0469 1006 143.928 1301.97 456.041
413 0 78.1416 13.13 1026 139.17 1301.58 455.325
414 0 83.1362 13.087 1088 71.8851 1301.35 454.765
415 0 83.1361 13.3997 1114 139.82 1301.47 452.555
416 0 86.229 13.1394 1133 142.666 1300.84 451.587
417 0 89.1805 13.1643 1174 141.578 1301.49 451.115
418 0 90.1606 13.4981 1217 139.569 1301.86 449.629
419 0 93.0851 13.6327 1269 136.373 1301.75 446.899
420 0 96.1577 12.8643 1237 138.247 1301.71 447.419
421 0 100.133 13.0127 1303 133.974 1301.74 445.324
422 1 54.1114 11.7351 635 131.704 1301.54 468.633
423 0 56.0369 12.3312 691 132.266 1301.89 466.554
424 0 55.1124 12.411 684 129.31 1301.88 466.098
425 0 58.1047 12.2365 711 128.899 1301.16 464.976
426 0 59.0799 12.4408 735 133.933 1301.08 464.401
427 0 61.1559 12.6889 776 132.939 1301.23 463.321
428 0 61.133 12.4483 761 125.319 1300.34 463.339
429 0 66.0577 12.6556 836 137.7 1300.92 461.329
430 0 67.0637 12.8535 862 133.836 1300.01 461.111
431 0 68.0991 12.8049 872 137.095 1299.97 460.314
432 0 71.0696 12.5652 893 131.213 1301.25 458.812
433 0 73.1268 12.786 935 134.57 1300.67 458.325
434 0 75.0947 12.9303 971 136.246 1300.26 457.005
435 0 78.2418 12.6147 987 140.212 1300.34 456.044
436 0 79.0817 12.9992 1028 136.799 1300.75 454.728
437 0 83.2486 13.0453 1086 132.157 1300.38 453.448
438 0 86.1349 13.0261 1122 132.233 1300.55 452.416
439 0 89.0971 12.8624 1146 136.499 1300.55 450.532
440 0 93.1072 12.6199 1175 137.693 1300.63 448.811
441 0 97.0617 12.8063 1243 136.073 1300.88 447.632
442 1 51.0446 11.0492 564 134.605 1301.08 470.716
443 0 50.0672 11.8441 593 133.258 1300.7 469.546
444 0 53.1124 12.0876 642 134.71 1299.9 468.402
445 0 54.1779 12.2744 665 135.188 1299.95 468.785
446 0 57.0546 12.1112 691 128.661 1300.01 466.559
447 0 57.1037 12.0483 688 135.635 1299.72 466.733
448 0 60.1145 11.9439 718 130.487 1299.49 465.007
449 0 62.1663 11.9357 742 134.485 1299.35 464.605
450 0 65.1069 12.1646 792 138.442 1299.56 462.926
451 0 67.2834 12.2764 826 134.333 1299.62 462.219
452 0 70.1581 11.9872 841 136.912 1299.16 460.667
453 0 71.1285 11.9643 851 125.295 1299.23 459.741
454 0 73.1283 12.2661 897 134.139 1299.24 458.07
455 0 77.3088 12.5083 967 134.242 1299.02 456.312
456 1 40.0653 10.0336 402 135.391 1298.9 474.353
457 0 43.081 10.6311 458 133.354 1299.01 473.445
458 0 44.0695 10.2565 452 127.538 1299.64 473.46
459 0 45.0367 10.9022 491 137.187 1299.88 472.22
460 0 47.093 10.8296 510 135.188 1300.18 472.663
461 0 49.063 10.6394 522 121.833 1299.41 472.059
462 0 49.1377 11.7018 575 127.936 1299.4 472.852
463 0 52.1837 11.2871 589 132.985 1300 471.253
464 0 53.1435 11.6665 620 127.781 1300.31 470.068
465 0 54.1384 11.526 624 130.577 1300.46 470.087
466 0 56.1151 11.619 652 129.202 1300.6 469.417
467 0 55.1758 12.0886 667 130.565 1300.84 468.603
468 0 58.1227 12.2327 711 123.015 1301.17 467.885
469 0 61.1837 11.5717 708 129.369 1301.67 466.29
470 0 62.0364 12.4443 772 128.181 1301.41 466.347
471 0 65.0501 12.3443 803 130.783 1301.19 464.38
472 0 67.1303 12.3342 828 125.657 1301.56 461.911
473 0 68.1023 12.1288 826 129.15 1301.64 461.812
474 0 72.1497 11.7949 851 131.538 1301.1 460.163
475 0 73.1069 12.5296 916 126.701 1301.12 459.561
476 0 75.0837 12.6126 947 126.852 1301.62 457.906
477 0 77.1471 12.7808 986 125.96 1302.57 456.311
478 0 81.1879 12.5142 1016 130.842 1302.79 455.317
479 1 43.1234 11.3395 489 125.562 1303.85 472.712
480 0 46.1125 11.4286 527 135.746 1303.7 471.822
481 0 48.151 12.0662 581 128.916 1303.3 470.577
482 0 49.0642 11.6378 571 135.413 1303.56 470.557
483 0 50.0544 12.0069 601 131.993 1303.23 468.601
484 0 52.1818 12.2265 638 129.735 1303.74 467.89
485 0 53.1703 12.3941 659 120.429 1303.69 467.335
486 0 56.1808 12.264 689 131.946 1303.28 466.212
487 0 55.1924 13.0815 722 130.402 1303.2 465.741
488 0 58.1571 12.5866 732 134.119 1303.18 465.4
489 0 60.1384 12.9036 776 135.411 1303.46 463.704
490 0 62.2592 12.4962 778 140.875 1303.18 462.856
491 0 63.1984 12.8168 810 138.652 1303.03 463.217
492 0 64.3114 12.9371 832 138.3 1303.41 462.614
493 0 66.1692 13.0725 865 135.928 1303.91 460.438
494 0 67.2269 13.4767 906 133.018 1303.92 459.383
495 0 69.2399 13.1138 908 140.652 1304.01 459.435
496 0 73.2036 12.9229 946 115.234 1303.14 457.434
497 0 75.2306 13.3855 1007 133.83 1303.81 456.079
498 0 76.1687 13.4176 1022 136.683 1303.96 454.994
499 0 77.1547 13.0647 1008 136.337 1303.19 454.668
500 0 80.3706 13.5871 1092 132.284 1304.44 453.871
501 0 84.2032 13.5743 1143 137.977 1304.94 452.308
502 0 87.1685 13.3305 1162 134.111 1304.76 450.579
503 0 90.2314 13.4875 1217 126.868 1305.1 448.937
504 1 47.0842 11.5962 546 136.297 1304.04 469.394
505 0 48.0715 11.6909 562 135.598 1304.54 469.555
506 0 49.0193 12.1177 594 136.577 1304.71 469.603
507 0 50.0669 12.1238 607 139.774 1303.96 468.847
508 0 53.0624 12.0424 639 136.98 1303.55 467.748
509 0 53.0753 12.3975 658 139.771 1303.52 466.398
510 0 55.0841 12.5081 689 143.509 1303.83 465.014
511 0 56.0234 12.7625 715 140.092 1304.66 464.806
512 0 57.1266 13.0237 744 142.812 1302.9 463.489
513 0 59.0822 12.1356 717 144.53 1303.09 463.127
514 0 63.1923 12.0901 764 139.425 1302.68 462.927
515 0 64.073 12.2985 788 139.165 1303.34 461.313
516 0 65.0974 12.5197 815 138.669 1303.26 460.199
517 0 67.1405 12.5111 840 137.492 1303.52 459.504
518 0 69.1566 12.638 874 141.962 1303.08 458.299
519 0 69.0976 13.1264 907 141.17 1303.14 456.778
520 0 72.1083 13.1746 950 138.4 1302.98 456.038
521 0 74.1162 13.4518 997 140.358 1303.14 455.256
522 0 77.1552 12.9609 1000 142.055 1302.98 454.489
523 0 78.1385 13.0281 1018 143.396 1302.74 453.602
524 0 82.1787 13.0812 1075 144.582 1303.29 451.938
525 0 84.2039 13.0517 1099 142.73 1303.38 450.359
526 0 88.2136 13.3426 1177 136.056 1302.88 449.153
527 0 91.2587 13.1933 1204 134.492 1302.17 446.436
528 0 94.3997 12.5742 1187 143.238 1302.23 446.605
529 1 51.2187 11.363 582 136.878 1302.86 466.864
530 0 55.3318 12.2533 678 135.541 1302.75 465.814
531 0 54.1089 12.6412 684 136.263 1303.06 466.227
532 0 57.1436 12.5123 715 131.523 1302.04 465.32
533 0 56.2198 12.7891 719 134.72 1301.64 464.687
534 0 57.1414 13.4403 768 135.865 1301.98 464.405
535 0 61.127 12.8258 784 135.366 1302.86 464.052
536 0 62.0948 13.0124 808 127.319 1302.79 463.09
537 0 64.1523 12.9847 833 129.208 1302.89 461.612
538 0 67.0881 13.1022 879 130.729 1302.83 459.778
539 0 68.1329 12.96 883 121.581 1302.82 458.749
540 0 70.105 13.0518 915 133.589 1303.06 458.093
541 0 73.3127 13.422 984 127.019 1303.03 457.318
542 0 75.4315 12.8726 971 134.808 1303.15 456.458
543 0 77.3247 12.9583 1002 136.543 1302.86 455.15
544 0 80.2102 13.3898 1074 112.35 1303.42 454.29
545 0 81.2627 13.3025 1081 138.07 1303.87 452.712
546 0 83.2994 13.4935 1124 133.143 1303.21 451.496
547 0 87.4639 13.4798 1179 136.795 1303.24 450.17
548 0 90.1959 13.6481 1231 134.519 1303.32 448.947
549 0 95.4756 13.3856 1278 140.788 1303.34 446.649
550 0 97.3246 13.5834 1322 136.721 1302.98 444.399
551 0 99.4604 13.6235 1355 140.046 1303.08 443.835
552 0 105.33 13.358 1407 133.744 1303.01 441.316
553 1 54.1361 12.1361 657 137.924 1302.86 468.021
554 0 55.1761 12.0704 666 135.922 1302.31 467.18
555 0 56.2269 11.9516 672 137.484 1301.76 466.033
556 0 58.1472 12.3652 719 122.032 1301.56 465.259
557 0 60.168 12.4817 751 127.457 1301.58 463.811
558 0 63.1638 12.7446 805 137.568 1301.13 462.863
559 0 63.1134 12.5171 790 131.022 1300.98 461.827
560 0 66.1428 12.4881 826 136.039 1301.54 461.78
561 0 67.1279 12.7816 858 139.753 1301.25 460.834
562 0 70.241 13.0266 915 140.91 1301.15 459.534
563 0 73.1432 12.537 917 128.12 1300.4 459.439
564 0 74.0883 13.0115 964 138.82 1300.7 457.881
565 0 77.1546 12.6629 977 138.912 1300.96 456.187
566 0 81.1381 12.9409 1050 133.198 1301.28 455.004
567 0 83.1497 12.8323 1067 139.659 1300.53 453.56
568 0 88.1954 12.7217 1122 139.455 1300.2 451.502
569 0 90.0846 13.0655 1177 134.917 1300.19 450.085
570 0 93.2484 12.4292 1159 137.896 1300.24 448.84
571 0 97.1278 12.6843 1232 140.188 1300.07 446.04
572 0 101.267 13.1237 1329 140.02 1299.87 443.679
573 1 53.0495 10.9709 582 138.194 1299.45 468.436
574 0 54.0347 11.141 602 141.849 1299.81 468.424
575 0 57.1836 11.6117 664 135.605 1300.13 467.13
576 0 58.0857 11.5863 673 139.504 1301.04 466.571
577 0 61.3356 11.5757 710 143.563 1301.19 464.727
578 0 62.5344 11.7535 735 146.574 1301.62 463.898
579 0 65.3109 11.5907 757 141.337 1302.05 463.07
580 0 66.44 11.6948 777 142.172 1302.37 462.561
581 0 68.5046 11.8824 814 134.031 1302.32 460.785
582 0 69.3419 11.9841 831 130.191 1302.06 459.224
583 0 72.3153 11.7126 847 138.62 1302.02 459.466
584 0 75.7298 11.7391 889 134.372 1302.01 457.036
585 0 78.4059 11.5808 908 133.332 1301.92 455.714
586 0 82.2281 11.8451 974 134.506 1302.01 454.058
587 0 83.8263 12.0249 1008 129.348 1302.04 452.673
588 0 86.4374 12.4367 1075 127.437 1301.13 450.554
589 0 89.5504 12.3953 1110 130.501 1300.77 448.543
590 0 93.5445 11.9729 1120 130.946 1300.88 446.507
591 0 94.5194 12.3255 1165 130.831 1301.5 445.385
592 1 48.4171 10.678 517 126.128 1300.57 468.147
593 0 51.1484 11.3004 578 124.087 1302.48 468.855
594 0 51.1916 11.4277 585 124.113 1303.82 469.113
595 0 52.1584 11.1391 581 129.666 1304.06 468.787
596 0 54.2249 11.6552 632 125.456 1303.79 467.008
597 0 56.2456 12.1076 681 127.871 1303.97 466.51
598 0 56.0846 12.2493 687 121.509 1304.78 465.378
599 0 58.0968 12.0661 701 130.712 1305.23 463.986
600 0 58.1489 12.3648 719 131.32 1305.03 463.204
601 0 61.1681 12.0978 740 133.541 1305.16 462.957
602 0 62.1666 12.37 769 132.564 1304.83 462.454
603 0 65.2668 12.6251 824 133.735 1304.79 460.951
604 0 67.2473 11.7031 787 133.624 1304.63 460.408
605 0 69.1778 12.6919 878 129.076 1304.39 458.33
606 0 70.4 12.2727 864 130.959 1304.19 457.853
607 0 73.2739 12.4737 914 125.452 1304.61 456.684
608 0 75.4916 12.3987 936 132.452 1304.05 454.374
609 0 77.3687 12.5632 972 129.515 1304.31 454.315
610 0 79.3044 12.7105 1008 121.765 1303.96 453.388
611 0 83.2298 12.5436 1044 127.533 1303.62 451.205
612 0 85.2583 12.0809 1030 126.673 1304.02 450.779
613 0 86.3348 12.2894 1061 132.604 1303.73 449.413
614 0 90.3485 12.2747 1109 136.337 1303.42 447.546
615 0 92.6005 12.2678 1136 132.031 1302.74 443.01
616 0 95.7257 12.6821 1214 132.356 1303.49 441.846
617 0 98.8466 12.2817 1214 133.837 1303.86 440.787
618 0 102.661 12.2345 1256 130.501 1303.88 439.496
619 0 105.623 12.45 1315 131.88 1304.26 437.669
620 1 55.7453 10.7453 599 143.175 1304.29 463.197
621 0 56.3707 11.3712 641 137.105 1304.61 464.493
622 0 59.1585 11.6636 690 126.881 1304.79 463.416
623 0 60.412 12.2658 741 135.084 1304.55 462.798
624 0 62.3291 12.1452 757 135.534 1304.05 461.841
625 0 63.2347 12.3666 782 136.413 1304.13 460.381
626 0 64.4356 12.3534 796 45.951 1303.72 459.874
627 0 66.2234 12.337 817 134.639 1303.48 458.262
628 0 68.2501 13.0403 890 134.208 1303.65 457.794
629 0 71.491 12.8548 919 135.094 1304.01 456.82
630 0 72.3499 12.8542 930 140.663 1303.22 455.428
631 0 75.2784 12.1283 913 136.83 1303.41 455.449
632 0 77.5435 12.4188 963 142.749 1303.23 454.382
633 0 78.1766 12.8299 1003 140.745 1303 453.088
634 0 81.3849 12.4224 1011 142.241 1302.62 452.013
635 0 83.5693 12.4328 1039 142.159 1302.64 451.489
636 0 85.6334 12.5418 1074 139.848 1302.14 447.294
637 0 87.4349 12.5579 1098 139.031 1302.07 446.665
638 1 49.1175 10.3222 507 145.014 1302.95 465.905
639 0 48.3143 11.4459 553 149.307 1302.56 467.307
640 0 50.3304 12.0603 607 146.659 1302.65 466.811
641 0 52.1071 11.6299 606 138.172 1303.4 466.419
642 0 54.1083 11.44 619 146.357 1303.41 466.376
643 0 55.0738 11.5845 638 146.544 1303.27 465.268
644 0 56.0958 11.6943 656 147.852 1300.82 464.267
645 0 56.0368 11.9207 668 144.972 1301.26 464.16
646 0 58.0531 11.8512 688 148.167 1301.28 463.862
647 0 61.0323 11.6332 710 148.683 1301.24 462.313
648 0 64.064 13.2524 849 132.976 1300.97 460.425
649 0 66.161 13.0742 865 141.582 1300.64 459.942
650 0 65.0516 11.9905 780 147.932 1300.36 460.062
651 0 67.0818 12.0152 806 140.107 1300.64 458.847
652 0 70.1191 12.3362 865 142.302 1300.4 458.356
653 0 72.0774 12.0981 872 131.158 1300.64 457.956
654 0 75.252 12.1459 914 137.885 1301.48 457.166
655 0 76.2181 11.9919 914 141.156 1301.09 455.613
656 0 78.1893 12.2267 956 140.405 1300.48 453.459
657 0 83.2169 12.137 1010 139.031 1301.29 452.413
658 0 84.1578 12.0726 1016 142.073 1301.73 452.555
659 0 88.15 12.3312 1087 141.588 1301.63 450.114
660 0 90.1262 12.0831 1089 144.673 1302.08 449.986
661 0 93.1838 12.5988 1174 144.732 1302.36 448.368
662 1 52.1556 10.8905 568 145.634 1301.55 468.579
663 0 52.1574 11.8871 620 141.247 1302.18 467.113
664 0 53.1843 11.4131 607 136.414 1303.13 463.203
665 0 56.2825 11.46 645 134.572 1303.51 462.529
666 0 56.1643 12.2676 689 138.906 1303.9 461.794
667 0 57.2496 12.07 691 139.514 1303.8 461.55
668 0 60.3534 12.1948 736 131.565 1303.22 459.726
669 0 61.2516 12.0487 738 135.56 1302.37 459.142
670 0 62.2799 11.9782 746 130.457 1302.14 458.351
671 0 64.1751 12.6217 810 129.88 1302.2 456.698
672 0 66.3497 12.5999 836 133.779 1302.64 455.968
673 0 69.2073 12.412 859 124.573 1302.48 455.111
674 0 69.2121 12.4256 860 131.828 1302.38 456.242
675 0 71.1343 12.5959 896 134.011 1302.42 454.956
676 0 75.2426 12.6923 955 136.208 1301.02 455.079
677 0 77.2634 12.5545 970 135.263 1301.12 455.253
678 0 79.2569 13.0588 1035 133.462 1301.35 452.64
679 0 83.2159 12.786 1064 132.112 1300.59 453.231
680 0 86.1965 12.7035 1095 134.571 1300.13 452.326
681 0 89.1962 12.4893 1114 132.397 1299.6 448.507
682 0 92.308 12.805 1182 132.318 1299.85 449.419
683 1 51.0519 11.0476 564 131.915 1299.13 470.855
684 0 51.1312 11.6563 596 127.68 1299.24 469.059
685 0 54.2648 11.7572 638 131.953 1300.43 469.074
686 0 54.0331 12.3258 666 133.179 1299.19 468.682
687 0 56.0204 11.9599 670 135.302 1298.53 467.415
688 0 57.0474 12.0426 687 131.485 1298.37 467.022
689 0 59.0744 12.2896 726 131.35 1298.61 466.377
690 0 60.0489 11.9403 717 140.177 1298.99 466.184
691 0 62.0776 12.1944 757 132.45 1298.54 465.079
692 0 62.1095 12.1238 753 133.546 1298.62 463.984
693 0 66.0698 12.29 812 132.282 1299.07 463.496
694 0 68.0711 12.3694 842 128.101 1299.02 463.007
695 0 71.1225 11.7965 839 138.723 1298.46 462.163
696 0 71.0362 12.4584 885 135.078 1299.34 461.575
697 0 72.0898 12.9977 937 127.095 1299.22 460.376
698 0 77.2272 11.6151 897 127.122 1299.05 459.342
699 0 79.0703 12.6343 999 122.085 1298.81 457.448
700 0 83.1169 12.5726 1045 122.689 1299 456.144
701 0 83.0808 12.4939 1038 132.988 1299.18 455.419
702 0 87.0869 12.4703 1086 132.84 1298.84 453.887
703 1 46.0591 10.6168 489 132.54 1298.56 473.91
704 0 48.043 11.1359 535 127.417 1298.6 473.972
705 0 49.044 11.4591 562 132.018 1298.52 474.036
706 0 50.2972 11.77 592 126.802 1299.59 473.081
707 0 52.2131 11.7404 613 120.369 1299.72 472.579
708 0 53.3487 12.5214 668 128.735 1299.94 471.31
709 0 54.4966 12.0191 655 127.424 1299.71 469.22
710 0 55.278 12.5728 695 120.954 1299.67 471.138
711 0 56.3227 12.7835 720 124.082 1299.69 469.089
712 0 57.0948 12.8033 731 130.031 1300.25 469.57
713 0 59.2113 12.7678 756 127.804 1299.63 468.669
714 0 60.1279 12.7894 769 131.912 1299.59 467.822
715 0 62.1549 12.7906 795 126.008 1299.35 467.85
716 0 64.0785 12.9685 831 128.606 1300.44 466.859
717 0 64.0486 13.1931 845 128.701 1299.81 464.917
718 0 66.0746 13.0156 860 132 1299.58 465.306
719 0 69.4106 12.9663 900 130.507 1299.22 462.406
720 0 69.366 13.0179 903 131.011 1299.15 461.26
721 0 73.4856 13.4448 988 132.152 1299.26 459.349
722 0 74.3797 13.6462 1015 128.871 1299.34 459.473
723 0 76.3286 13.8611 1058 128.646 1299.38 457.67
724 0 78.3458 13.3511 1046 138.424 1300.07 456.14
725 0 80.4453 13.7733 1108 133.986 1299.91 456.74
726 0 85.3252 13.2083 1127 134.308 1300.81 455.552
727 0 89.2583 13.4665 1202 139.298 1300.93 452.428
728 0 92.1365 13.5017 1244 136.554 1300.74 451.891
729 0 95.152 13.2315 1259 134.763 1301.75 451.18
730 0 98.298 12.9402 1272 138.774 1301.75 448.996
731 1 53.2881 11.222 598 137.796 1300.89 471.629
732 0 53.1766 12.261 652 138.952 1299.97 469.379
733 0 55.2109 12.4613 688 140.116 1300.14 468.449
734 0 56.243 12.3393 694 136.621 1300.48 466.916
735 0 58.282 12.817 747 136.131 1300.47 465.758
736 0 60.2218 12.3045 741 143.517 1300.61 465.043
737 0 62.2696 12.3174 767 142.973 1300.78 464.17
738 0 65.1307 12.4826 813 134.525 1301.03 463.738
739 0 65.131 12.8971 840 138.645 1300.88 462.337
740 0 68.3708 12.6516 865 137.649 1301.22 460.842
741 0 69.344 12.6615 878 143.899 1301.51 459.197
742 0 71.477 12.9412 925 145.03 1302.41 458.423
743 0 74.5104 12.7902 953 144.591 1302 456.284
744 0 76.5817 12.7446 976 139.132 1302.4 456.038
745 0 78.3002 12.848 1006 145.038 1302.42 454.462
746 0 81.4755 12.8382 1046 141.979 1302.23 452.997
747 0 84.4334 12.649 1068 143.948 1302.05 450.378
748 0 88.3871 12.5584 1110 144.743 1302.65 449.494
749 0 91.415 12.5691 1149 141.697 1302.69 448.097
750 0 94.312 12.2042 1151 138.884 1302.83 446.67
751 0 97.1375 12.6419 1228 134.053 1302.61 443.917
752 0 100.389 12.8501 1290 133.911 1303.03 444.543
753 1 54.2189 12.966 703 129.339 1302.82 465.929
754 0 54.2356 11.7635 638 140.461 1302.87 467.132
755 0 54.0902 12.0355 651 129.244 1302.65 466.547
756 0 57.1304 11.8501 677 130.052 1302.39 465.641
757 0 60.1879 11.6469 701 139.729 1302.49 463.817
758 0 61.1844 12.0946 740 135.228 1302.86 463.489
759 0 62.2074 11.751 731 127.368 1303.11 462.561
760 0 66.2864 12.2951 815 133.414 1303.04 460.321
761 0 68.1953 12.1123 826 122.737 1303.37 459.68
762 0 70.1339 12.3193 864 124.162 1303.46 458.624
763 0 72.1049 12.4541 898 125.612 1303.56 456.403
764 0 74.1153 12.2917 911 126.495 1303.66 455.557
765 0 77.2102 11.8508 915 128.489 1303.45 454.899
766 0 80.1259 11.9811 960 127.696 1303.87 453.551
767 0 82.1197 12.494 1026 135.048 1303.22 451.647
768 0 84.0939 12.1293 1020 132.038 1303.6 450.84
769 0 87.1942 12.2829 1071 133.005 1303.73 449.775
770 0 91.1603 12.2312 1115 131.853 1304.16 446.974
771 0 94.2099 12.4191 1170 131.428 1303.9 445.465
772 1 51.0267 10.9942 561 120.943 1303.13 466.66
773 0 53.0706 11.1173 590 127.742 1305.02 465.61
774 0 54.249 11.0601 600 125.888 1304.7 465.312
775 0 55.0613 11.7324 646 118.173 1305.31 464.302
776 0 56.0471 11.3298 635 129.679 1305.36 463.232
777 0 59.1405 11.9546 707 127.291 1305.46 463.065
778 0 60.167 11.9501 719 125.413 1305.3 461.018
779 0 61.1832 11.9968 734 126.634 1305.11 461.012
780 0 62.0417 12.1048 751 126.084 1304.48 459.148
781 0 66.2037 11.7818 780 126.454 1303.81 459.408
782 0 66.3549 12.2071 810 125.979 1303.66 457.298
783 0 69.232 12.2487 848 127.75 1303.12 456.963
784 0 70.2191 12.0765 848 127.321 1302.71 456.145
785 0 74.2305 12.7441 946 125.838 1301.25 454.64
786 0 76.1855 12.4696 950 127.172 1301.78 454.177
787 0 78.2726 12.2776 961 130.186 1301.53 453.13
788 0 79.3589 12.7648 1013 122.859 1301.52 451.628
789 0 84.273 12.412 1046 123.048 1301.53 450.931
790 0 86.114 12.1583 1047 122.616 1301.51 449.051
791 0 90.2287 12.2023 1101 129.707 1301.64 445.08
792 0 92.1939 12.4846 1151 133.675 1301.58 446.446
793 0 97.2269 12.3526 1201 129.928 1302.17 444.921
794 0 100.128 12.3742 1239 129.636 1302.23 442.427
795 1 53.0942 11.5455 613 124.967 1301.49 466.333
796 0 56.0379 11.7777 660 124.977 1302.36 466.227
797 0 57.216 12.3042 704 120.889 1302.37 464.013
798 0 59.2269 12.3592 732 126.302 1302.61 463.592
799 0 60.1653 12.4989 752 120.527 1302.64 462.012
800 0 62.2208 12.5039 778 132.312 1302.42 461.252
801 0 65.18 12.4732 813 123.111 1302.71 459.513
802 0 67.1707 12.163 817 126.733 1303.06 459.96
803 0 69.1397 12.5398 867 127.386 1302.98 458.125
804 0 70.2155 12.4759 876 127.823 1302.94 457.341
805 0 73.1584 12.9035 944 124.685 1303.03 456.303
806 0 76.1673 12.9058 983 123.316 1303.17 454.358
807 0 78.2455 13.202 1033 124.95 1303.27 453.552
808 0 81.1564 12.6916 1030 121.06 1303.15 451.643
809 0 82.2374 13.0111 1070 120.223 1303.56 451.083
810 0 87.2238 12.1641 1061 125.943 1303.69 449.629
811 0 87.2093 12.7968 1116 130.075 1303.97 448.57
812 0 91.2084 12.7839 1166 130.014 1304.42 446.481
813 0 95.2398 12.8098 1220 125.33 1303.97 444.746
814 0 98.2945 13.1035 1288 126.214 1303.51 442.485
815 0 102.384 12.7462 1305 125.199 1303.38 440.802
816 1 55.0495 11.3171 623 124.888 1303.21 463.612
817 0 58.0561 11.5406 670 124.69 1303.3 463.121
818 0 60.2441 11.5862 698 126.269 1304.2 461.665
819 0 61.3902 12.2169 750 127.423 1303.91 460.665
820 0 63.2925 11.9129 754 121.918 1304.42 459.935
821 0 64.3943 12.3303 794 128.723 1304.67 459.004
822 0 65.1796 12.3198 803 120.915 1304.41 458.797
823 0 67.143 12.317 827 116.955 1305.02 457.687
824 0 69.2317 12.2487 848 123.158 1304.88 456.169
825 0 71.1522 12.4662 887 128.188 1305.29 455.368
826 0 74.1705 12.5656 932 123.5 1304.12 454.829
827 0 76.1829 12.2206 931 125.158 1304.58 453.554
828 0 79.0911 13.0862 1035 117.275 1305.06 452.069
829 0 79.1695 12.7448 1009 118.646 1305.17 451.424
830 0 82.2501 12.5714 1034 119.028 1304.83 448.958
831 0 85.1891 12.396 1056 124.618 1304.68 447.21
832 0 89.1516 12.1142 1080 124.232 1304.68 446.133
833 0 93.1201 12.4785 1162 123.077 1304.69 444.51
834 0 93.2515 11.8926 1109 124.274 1304.79 443.788
835 0 100.159 12.6798 1270 131.149 1305.22 441.186
836 1 53.1102 11.3726 604 130.503 1305.63 463.089
837 0 56.355 10.5581 595 119.447 1306.74 460.066
838 0 56.0888 11.3213 635 117.863 1305.75 458.983
839 0 57.0715 11.985 684 118.833 1305.18 457.713
840 0 59.0178 11.6067 685 117.091 1305.9 456.844
841 0 60.0568 11.6556 700 119.053 1305.25 456.55
842 0 61.0381 11.4682 700 123.281 1305.67 455.779
843 0 65.0326 11.5019 748 114.598 1305.91 454.658
844 0 65.0213 11.6885 760 123.684 1305.7 454.17
845 0 67.0868 11.4926 771 121.327 1305.78 452.363
846 0 70.0593 12.0327 843 121.038 1305.24 452.517
847 0 70.1323 12.4764 875 123.416 1305.09 451.17
848 0 73.0665 12.3723 904 121.015 1305.02 449.742
849 0 75.0942 12.8772 967 124.902 1304.57 448.999
850 0 77.2352 12.7921 988 124.448 1304.09 447.489
851 0 80.0664 12.8643 1030 125.66 1304.28 446.929
852 0 81.054 13.1147 1063 123.363 1304.23 447.311
853 0 84.1357 13.2049 1111 129.84 1304.84 443.888
854 0 87.0882 12.9868 1131 125.256 1305.1 442.844
855 0 90.2689 12.773 1153 131.886 1304.61 442.558
856 0 94.158 13.2012 1243 133.009 1305.19 441.677
857 0 96.2256 13.4268 1292 131.69 1305.19 441.067
858 0 99.25 13.6222 1352 133.335 1306.19 437.837
859 0 102.337 13.5825 1390 138.966 1306.06 436.786
860 0 105.205 13.2599 1395 139.973 1306.54 435.38
861 0 110.237 13.1263 1447 137.42 1306.85 434.089
862 0 114.168 13.1823 1505 140.526 1305.96 432.3
863 0 114.466 13.3227 1525 144.006 1305.72 429.402
864 1 59.2512 11.2065 664 143.325 1306.46 456.553
865 0 63.1685 12.0313 760 143.137 1306.71 460.696
866 0 64.2383 12.1267 779 152.95 1306.59 458.4
867 0 65.2757 12.5774 821 152.374 1305.87 457.454
868 0 67.4498 12.6168 851 150.917 1305.81 456.42
869 0 70.1387 12.461 874 149.44 1305.34 455.932
870 0 73.1853 12.3385 903 144.389 1304.64 454.888
871 0 75.2697 12.6744 954 147.338 1304.55 454.06
872 0 78.127 12.9661 1013 150.636 1304.28 453.644
873 0 79.138 12.8383 1016 148.919 1304.55 451.913
874 0 81.1473 13.457 1092 153.284 1305.09 450.655
875 0 85.1088 12.9129 1099 145.493 1303.85 449.763
876 0 88.1801 12.8374 1132 151.931 1304.32 448.281
877 0 90.2143 13.2573 1196 141.267 1304.28 447.006
878 0 95.147 12.9799 1235 152.09 1305.33 442.443
879 0 97.198 13.1073 1274 151.098 1304.1 444.702
880 0 99.2837 12.7413 1265 149.954 1305.02 443.027
881 0 104.208 12.523 1305 148.147 1304.54 442.969
882 0 107.405 12.9323 1389 146.971 1304.97 440.645
883 0 110.622 12.9359 1431 148.283 1304.78 436.377
884 1 58.3284 10.7323 626 137.348 1305.45 461.789
885 0 58.0486 11.6454 676 142.374 1306.28 462.658
886 0 59.0723 11.7483 694 143.452 1306.96 460.624
887 0 62.1127 11.2859 701 142.013 1307.32 460.158
888 0 64.1236 11.5246 739 138.269 1306.57 459.746
889 0 66.0763 11.3202 748 140.238 1306.64 457.983
890 0 67.1092 11.5036 772 145.615 1306.57 457.017
891 0 68.2059 11.7878 804 135.93 1306.57 456.827
892 0 71.1751 11.6895 832 133.056 1306.49 456.124
893 0 72.2066 12.2981 888 138.038 1306.08 454.651
894 0 73.2022 11.9805 877 139.509 1306.13 453.587
895 0 77.2096 11.9415 922 132.586 1306.44 452.61
896 0 80.2467 11.9506 959 141 1306.86 450.132
897 0 83.1772 11.5296 959 143.135 1307.22 449.567
898 0 87.214 11.9247 1040 138.767 1307.01 448.278
899 0 89.2659 11.9531 1067 140.041 1306.6 445.27
900 0 92.284 11.9522 1103 129.458 1306.71 444.445
901 1 46.0599 10.9206 503 137.278 1307.62 466.316
902 0 48.0996 10.7693 518 131.961 1305.77 466.21
903 0 49.2284 11.1318 548 138.115 1304.95 465.093
904 0 51.1693 11.2763 577 130.307 1305.33 464.338
905 0 53.2117 11.1442 593 131.184 1305.33 463.545
906 0 55.1669 10.7311 592 135.427 1304.79 462.735
907 0 56.1518 10.7922 606 136.822 1304.53 461.965
908 0 57.2957 11.4319 655 141.78 1304.55 461.377
909 0 58.1655 11.4673 667 131.168 1304.57 460.436
910 0 61.1357 11.8261 723 135.365 1305.01 459.584
911 0 63.1113 11.4718 724 132.742 1304.39 458.686
912 0 64.1404 11.584 743 134.836 1304.47 457.942
913 0 66.1566 10.9437 724 133.772 1305.09 456.855
914 0 68.2567 11.0465 754 137.371 1305.28 456.679
915 0 71.1075 11.9537 850 138.727 1305.88 456.422
916 0 72.149 12.391 894 136.661 1306.09 455.119
917 0 76.1497 12.134 924 138.377 1305.9 455.202
918 0 79.0648 11.6613 922 141.1 1305.36 456.053
919 0 81.1503 12.1626 987 142.352 1305.48 454.747
920 0 84.175 12.0463 1014 143.239 1305.33 453.243
921 0 87.0979 12.1472 1058 142.703 1305.05 451.952
922 1 47.0371 11.1401 524 137.569 1305.41 471.172
923 0 47.041 11.6069 546 141.205 1305.84 471.099
924 0 49.0902 11.8557 582 145.299 1305.94 469.543
925 0 50.1205 12.051 604 145.732 1306.88 470.142
926 0 51.2187 11.3045 579 147.276 1307.1 468.48
927 0 52.2219 11.7575 614 148.91 1306.63 467.704
928 0 54.1779 11.9606 648 144.017 1306.94 466.696
929 0 53.271 12.2769 654 143.685 1306.31 466.509
930 0 57.2265 12.0049 687 139.437 1306.57 464.991
931 0 58.1454 12.142 706 145.636 1306.2 464.594
932 0 60.2112 12.506 753 143.692 1306.11 462.643
933 0 63.1464 12.1464 767 144.734 1305.63 461.648
934 0 64.1655 12.1872 782 150.123 1306.21 461.286
935 0 65.1934 12.7007 828 154.992 1306.29 460.925
936 0 68.142 12.6354 861 146.804 1306.04 459.375
937 0 70.1965 12.7214 893 145.144 1306.55 458.574
938 0 73.1375 13.0713 956 145.254 1306.75 457.403
939 0 73.1179 13.2662 970 147.152 1305.97 455.973
940 0 76.2141 12.8847 982 151.831 1306.73 455.397
941 0 79.1755 13.0343 1032 149.694 1306.66 452.604
942 0 78.1501 13.666 1068 149.585 1306.08 452.066
943 0 84.1234 13.2068 1111 152.776 1306.05 451.281
944 0 87.1453 13.2308 1153 153.805 1306.09 449.976
945 0 87.1115 12.9834 1131 157.522 1306.7 448.883
946 0 92.1341 12.9919 1197 156.736 1306.48 448.023
947 0 94.099 13.2201 1244 158.445 1306.74 445.293
948 0 97.203 13.4769 1310 148.56 1306.25 444.061
949 0 102.312 13.6445 1396 149.144 1306.22 441.702
950 1 53.1564 11.2122 596 152.859 1306.18 464.362
951 0 54.2483 12.111 657 154.703 1306.45 463.487
952 0 56.0454 12.472 699 155.119 1305.88 463.425
953 0 59.1066 12.4352 735 146.891 1305.94 463.411
954 0 59.0428 12.5164 739 151.116 1305.11 461.648
955 0 62.0122 12.8201 795 145.184 1305.11 460.947
956 0 63.0521 12.4024 782 150.604 1305.04 460.423
957 0 63.0895 12.6487 798 151.063 1305.25 459.935
958 0 66.1713 12.3467 817 144.681 1305.47 458.785
959 0 67.2306 12.8364 863 143.744 1305.73 457.087
960 0 71.0899 12.4772 887 144.528 1305.45 456.047
961 0 74.0654 12.57 931 142.912 1306.06 455.108
962 0 75.0621 12.6828 952 143.572 1305.49 451.905
963 0 78.1742 13.0734 1022 139.567 1306.02 452.147
964 0 81.2097 12.7078 1032 144.983 1306.24 451.329
965 0 84.2435 12.4164 1046 138.418 1306.4 448.968
966 0 87.3431 12.7085 1110 138.162 1306.14 447.896
967 0 91.1744 13.2822 1211 132.144 1306.31 446.853
968 0 93.1613 12.7521 1188 144.22 1306.45 445.347
969 0 96.2571 12.7575 1228 141.686 1306.57 444.7
970 0 100.248 12.8581 1289 141.092 1306.98 441.967
971 1 53.203 11.0332 587 134.036 1308.68 464.905
972 0 55.1614 10.714 591 130.435 1308.03 462.264
973 0 54.1725 11.3711 616 125.823 1307.34 462.195
974 0 57.2595 11.5963 664 128.42 1308.24 459.994
975 0 57.1794 12.1372 694 129.898 1307.79 457.963
976 0 60.4288 11.8321 715 124.811 1307.69 457.827
977 0 61.2892 11.4539 702 130.094 1308.48 458.296
978 0 64.2473 11.6892 751 130.288 1307.72 456.453
979 0 66.0804 12.0762 798 127.308 1307.39 455.739
980 0 69.2258 11.7297 812 126.804 1306.64 454.462
981 0 72.1338 11.5896 836 126.733 1306.95 453.236
982 0 73.1651 12.1233 887 127.205 1307.22 452.169
983 0 76.2686 12.0495 919 127.242 1307.72 450.723
984 0 79.2229 12.6226 1000 125.957 1308.05 448.4
985 0 81.2089 12.3016 999 124.045 1308.27 449.096
986 0 84.2313 12.3588 1041 133.118 1308.39 447.236
987 0 85.4732 12.6004 1077 130.151 1308.83 446.749
988 0 88.3381 12.3616 1092 131.957 1309.95 443.577
989 0 93.7099 12.368 1159 129.292 1309.31 439.718
990 0 96.7109 13.1526 1272 129.078 1308.67 441.05
991 0 100.617 12.4631 1254 138.73 1308.09 440.6
992 0 102.772 12.8342 1319 135.449 1307.73 435.909
993 0 106.829 12.768 1364 139.328 1307.66 435.386
994 0 109.373 12.8277 1403 137.739 1307.77 434.532
995 0 115.761 12.8454 1487 137.459 1306.64 430.245
996 1 59.2662 11.3218 671 135.981 1307.02 457.319
997 0 62.1004 11.9001 739 136.873 1306.94 462.698
998 0 63.1682 11.6673 737 137.7 1307.2 460.934
999 0 65.2499 11.9847 782 137.01 1308.62 460.059
1000 0 67.2449 11.8225 795 140.992 1308.2 457.331
1001 0 69.2013 12.4275 860 141.847 1308.66 455.617
1002 0 71.2288 12.2843 875 148.912 1308.42 454.959
1003 0 73.2321 12.713 931 145.422 1308.33 455.155
1004 0 73.3126 12.74 934 145.192 1308.12 455.209
1005 0 77.3253 13.0876 1012 143.398 1307.87 453.238
1006 0 78.2671 13.1601 1030 147.005 1307.69 451.187
1007 0 82.3718 12.8199 1056 152.603 1307.99 449.835
1008 0 86.5308 12.3655 1070 152.47 1308.01 449.472
1009 0 87.231 13.0229 1136 143.703 1308.23 448.056
1010 0 90.2645 13.1835 1190 153.108 1308.04 447.707
1011 0 93.2107 13.0886 1220 143.24 1308.04 446.547
1012 0 98.4019 12.6725 1247 159.079 1308.07 445.533
1013 0 101.43 12.6196 1280 150.183 1308.06 443.304
1014 0 104.423 13.4261 1402 152.558 1308.69 441.48
1015 0 108.397 12.9893 1408 158.055 1308.09 439.26
1016 1 55.3087 12.2042 675 161.418 1308.23 465.644
1017 0 60.1465 11.6715 702 156.507 1309.66 463.244
1018 0 59.1048 12.6386 747 155.857 1309.26 463.517
1019 0 62.1179 12.6051 783 151.193 1308.85 462.088
1020 0 64.2683 12.6656 814 150.142 1308.22 460.252
1021 0 65.2767 12.6998 829 158.116 1308.05 458.708
1022 0 68.1857 12.9939 886 155.317 1307.77 457.633
1023 0 70.1961 12.6075 885 158.721 1307.47 456.36
1024 0 71.2952 13.0444 930 155.476 1307.66 455.206
1025 0 72.2081 13.5719 980 157.732 1307.74 455.248
1026 0 76.2207 12.8705 981 161.021 1308.19 452.827
1027 0 78.1547 12.9999 1016 155.518 1308.25 451.558
1028 0 81.1219 12.9928 1054 155.299 1307.91 450.601
1029 0 84.2522 12.8661 1084 156.336 1308.17 449.265
1030 0 85.137 13.1318 1118 158.533 1308.04 448.199
1031 0 89.3107 12.6972 1134 156.232 1308.1 446.646
1032 0 93.2042 12.6389 1178 155.416 1309.28 446.421
1033 0 95.4899 12.7762 1220 153.176 1311.94 445.525
1034 1 50.3305 11.8815 598 152.329 1309.98 464.851
1035 0 51.3516 11.8399 608 153.72 1309.38 464.018
1036 0 53.3156 11.8727 633 154.092 1308.25 464.611
1037 0 53.3305 12.3194 657 146.31 1308.09 464.114
1038 0 56.2379 12.2871 691 149.355 1307.96 463.302
1039 0 58.084 12.1204 704 149.294 1308.08 464.308
1040 0 58.1803 12.4269 723 146.34 1307.54 462.524
1041 0 61.1057 12.4047 758 148.747 1309.2 462.327
1042 0 63.0842 12.4437 785 148.837 1308.08 461.659
1043 0 65.118 12.8075 834 148.372 1308.46 459.978
1044 0 67.1398 12.5708 844 143.498 1307.76 460.312
1045 0 69.1076 12.6325 873 147.714 1307.42 458.473
1046 0 72.1598 12.9435 934 140.419 1307.29 456.727
1047 0 75.0785 12.8532 965 146.006 1307.69 456.056
1048 0 77.0881 12.5052 964 138.72 1307.73 455.505
1049 0 78.1822 12.7011 993 140.737 1307.16 454.22
1050 0 82.1549 12.8903 1059 137.713 1307.29 452.636
1051 1 42.0301 11.4204 480 149.823 1307.23 471.602
1052 0 44.0347 11.877 523 146.964 1307.48 470.744
1053 0 45.2618 12.1957 552 140.292 1308.98 468.828
1054 0 47.1372 11.6681 550 143.182 1308.04 469.091
1055 0 48.1641 12.0837 582 136.486 1307.04 468.275
1056 0 51.1983 12.0707 618 143.618 1306.85 467.362
1057 0 50.1633 12.1603 610 139.746 1306.98 467.303
1058 0 53.4843 12.0596 645 143.46 1306.15 463.564
1059 0 53.199 12.4814 664 139.67 1306.52 465.636
1060 0 55.4248 12.341 684 133.988 1306.85 464.982
1061 0 56.3171 12.9268 728 142.249 1306.91 464.629
1062 0 58.2893 12.5409 731 135.713 1307.47 463.963
1063 0 60.2723 12.6758 764 129.514 1307.1 463.267
1064 0 64.4674 13.8209 891 123.47 1309.97 460.92
1065 0 70.3907 14.9025 1049 116.403 1309.65 457.582
1066 0 70.2796 14.8549 1044 119.218 1309.41 457.072
1067 0 69.3028 15.1365 1049 119.704 1309.21 456.429
1068 0 71.1625 14.0805 1002 124.341 1309.15 456.971
1069 0 71.1636 13.5041 961 130.606 1310.14 457.628
1070 0 73.2203 13.0838 958 124.768 1309.77 456.342
1071 0 74.087 12.9712 961 132.606 1309.49 455.329
1072 0 78.2928 13.0153 1019 123.338 1309.64 454.309
1073 0 79.1238 13.2451 1048 122.573 1309.38 451.952
1074 0 83.2738 13.3055 1108 122.389 1309.42 450.576
1075 0 86.2812 13.4212 1158 122.205 1309.26 448.976
1076 0 90.4125 13.173 1191 124.603 1309.56 447.956
1077 1 45.1424 11.9622 540 126.607 1309.02 470.061
1078 0 46.1754 12.2576 566 115.913 1309.16 468.131
1079 0 47.0799 12.0434 567 134.559 1308.85 467.316
1080 0 49.0916 12.6906 623 124.169 1308.96 466.815
1081 0 50.22 12.6245 634 130.363 1307.91 467.062
1082 0 52.2547 13.2811 694 129.375 1307.52 467.964
1083 0 55.3219 13.1232 726 124.164 1307.51 466.134
1084 0 54.135 13.2631 718 129.347 1308.33 465.579
1085 0 58.2454 13.0826 762 130.798 1308.63 464.921
1086 0 58.23 13.0173 758 125.182 1308.68 465.165
1087 0 59.1928 13.4476 796 128.214 1308.75 464.514
1088 0 62.4099 13.3312 832 125.429 1308.26 463.424
1089 0 64.1297 13.7222 880 125.92 1307.65 461.883
1090 0 66.0921 13.6627 903 118.316 1307.69 460.375
1091 0 69.2269 13.5063 935 120.562 1307.11 459.276
1092 0 68.1986 13.8566 945 125.233 1307.4 458.325
1093 0 73.1587 13.7783 1008 120.327 1307.59 457.629
1094 0 78.3043 13.6008 1065 118.393 1308.17 456.369
1095 0 79.1481 13.6832 1083 124.459 1307.89 455.302
1096 0 82.1233 13.5771 1115 119.81 1307.86 453.631
1097 0 83.2505 13.6456 1136 120.239 1307.53 452.129
1098 0 87.1166 13.5566 1181 119.662 1307.81 451.547
1099 1 44.3237 12.0252 533 128.91 1307.14 472.6
1100 0 43.4294 12.8715 559 127.758 1307.25 471.109
1101 0 46.2662 12.7091 588 128.122 1307.01 470.25
1102 0 48.2968 12.2783 593 126.578 1307.33 470.057
1103 0 48.451 13.2711 643 126.459 1307.55 469.649
1104 0 50.2383 13.2369 665 127.553 1307.52 468.666
1105 0 51.2656 13.0692 670 125.412 1307.59 468.242
1106 0 53.3002 13.1332 700 126.829 1307.96 467.036
1107 0 54.207 13.5222 733 122.681 1308.04 466.847
1108 0 56.3716 13.4642 759 128.85 1307.78 465.945
1109 0 59.1192 13.4643 796 126.541 1307.14 464.815
1110 0 59.1333 13.681 809 125.058 1307.67 463.602
1111 0 61.0885 13.6851 836 121.434 1307.33 462.756
1112 0 62.3454 13.8743 865 123.251 1307.31 460.279
1113 0 65.225 13.4764 879 124.047 1307.21 459.832
1114 0 66.2389 13.6627 905 125.619 1307.36 460.21
1115 0 69.2179 13.1902 913 131.463 1307.64 459.227
1116 0 71.1305 13.5666 965 128.187 1307.75 458.033
1117 0 74.0706 14.0002 1037 124.766 1306.84 456.957
1118 0 76.1678 13.9166 1060 126.323 1306.35 455.358
1119 0 79.1679 13.7429 1088 127.998 1306.97 454.641
1120 0 80.2827 13.7763 1106 127.533 1306.97 453.92
1121 0 84.4578 13.7465 1161 129.932 1306.89 453.115
1122 0 87.334 13.8205 1207 132.631 1307.02 450.568
1123 1 48.1187 12.6978 611 134.187 1307.15 469.979
1124 0 49.1496 12.9197 635 134.318 1306.86 468.934
1125 0 50.1695 13.2351 664 136.154 1307.05 468.607
1126 0 53.0728 13.4721 715 127.224 1306.97 467.187
1127 0 55.2146 13.3841 739 133.934 1306.09 466.539
1128 0 55.2959 13.3826 740 133.78 1306.01 466.289
1129 0 59.4875 13.2465 788 133.084 1306.14 463.055
1130 0 59.2886 13.8981 824 132.161 1305.84 463.209
1131 0 62.6312 13.6034 852 135.654 1306.31 457.664
1132 0 63.3354 13.7522 871 135.712 1306.06 456.13
1133 0 66.4488 13.9506 927 133.573 1306.33 455.121
1134 0 67.6332 13.6323 922 134.166 1307.35 455.326
1135 0 69.6496 13.9986 975 139.501 1306.46 453.564
1136 0 71.6469 13.8457 992 135.838 1306.39 451.72
1137 0 75.4632 13.8081 1042 141.118 1306.31 451.26
1138 0 78.755 13.5356 1066 143.42 1306.74 450.292
1139 0 80.6946 13.706 1106 142.16 1306.65 449.568
1140 0 83.5919 13.6855 1144 139.203 1306.77 445.372
1141 0 86.538 13.7743 1192 142.815 1306.41 444.024
1142 1 42.5091 13.1266 558 141.219 1305.83 465.71
1143 0 45.3194 12.776 579 136.472 1305.41 466.309
1144 0 44.3297 12.768 566 135.677 1305.79 465.269
1145 0 47.4143 13.2028 626 139.474 1305.24 465.171
1146 0 47.4523 13.6769 649 139.864 1305.56 464.982
1147 0 48.4485 13.6021 659 139.005 1305.79 463.636
1148 0 49.4145 13.6195 673 134.535 1305.55 463.108
1149 0 53.5078 13.6803 732 143.112 1305.46 461.392
1150 0 54.5569 13.3439 728 137.089 1305.9 461.554
1151 0 55.5634 13.6061 756 139.069 1305.93 460.463
1152 0 56.4806 13.9517 788 139.268 1305.37 459.31
1153 0 58.7532 13.7695 809 136.562 1305.43 458.446
1154 0 60.4259 13.802 834 140.285 1305.63 457.805
1155 0 60.5112 14.0305 849 139.2 1305.89 456.6
1156 0 64.6973 13.7564 890 134.889 1305.34 456.701
1157 0 66.6335 13.9119 927 143.218 1305.43 454.892
1158 0 68.7572 13.9476 959 138.599 1305.19 453.432
1159 0 70.5973 13.8391 977 139.696 1304.97 454.135
1160 0 72.8121 14.0773 1025 143.154 1305.27 451.1
1161 0 75.625 14.1752 1072 136.098 1307.09 449.195
1162 0 79.7394 14.1586 1129 138.694 1306.39 447.785
1163 0 81.6407 14.0739 1149 146.034 1305.51 446.574
1164 0 83.7181 14.1905 1188 144.748 1305.37 445.937
1165 0 85.7326 13.8804 1190 145.703 1305.7 444.542
1166 0 88.9492 14.2891 1271 147.747 1305.7 442.939
1167 0 92.7834 14.6147 1356 146.48 1305.78 441.73
1168 0 94.529 14.165 1339 143.291 1306.05 441.438
1169 0 99.5554 13.8315 1377 152.365 1306 439.231
1170 0 101.654 14.2935 1453 147.383 1306.44 438.003
1171 0 106.598 14.231 1517 147.901 1306.32 435.363
1172 0 108.593 14.2827 1551 147.453 1306.8 433.728
1173 0 113.49 14.0541 1595 145.95 1306.72 432.915
1174 1 60.5224 12.9043 781 142.85 1306.55 457.818
1175 0 64.3284 12.6694 815 147.693 1305.82 456.928
1176 0 66.2885 13.1094 869 142.232 1305.91 454.386
1177 0 68.4335 12.8884 882 143.536 1306.48 455.114
1178 0 71.3838 13.3504 953 134.955 1306.64 452.865
1179 0 73.3867 12.9315 949 138.975 1306.24 450.575
1180 0 75.3265 12.8507 968 141.41 1306.39 451.16
1181 0 78.5029 13.0441 1024 140.152 1306.42 450.316
1182 0 81.3021 12.964 1054 142.785 1306.77 449.953
1183 0 84.6815 12.919 1094 135.816 1306.66 447.764
1184 0 88.7164 13.0077 1154 153.861 1306.55 444.703
1185 0 91.5507 13.173 1206 153.176 1306.8 445.31
1186 0 94.4483 12.7689 1206 149.279 1307.46 442.648
1187 0 97.3414 12.6359 1230 154.588 1307.44 441.202
1188 0 103.464 12.9417 1339 154.415 1307.32 440.933
1189 0 107.471 12.9431 1391 157.89 1306.98 438.581
1190 1 52.1051 12.3596 644 153.391 1308.09 465.175
1191 0 54.0945 12.4782 675 143.877 1307.71 464.23
1192 0 56.0682 12.1816 683 152.691 1307.51 463.883
1193 0 58.1533 12.4498 724 146.34 1307.4 463.684
1194 0 60.2262 12.1874 734 149.406 1307.98 462.379
1195 0 63.2832 11.8831 752 149.277 1308.29 461.423
1196 0 65.1193 12.0087 782 151.294 1308.14 459.467
1197 0 67.139 12.5262 841 149.338 1308.3 458.491
1198 0 69.1659 12.1013 837 143.796 1307.87 456.91
1199 0 70.17 12.4555 874 143.325 1307.82 456.267
1200 0 73.1389 12.2233 894 145.342 1307.59 454.567
1201 0 76.147 12.1607 926 150.37 1307 453.325
1202 0 76.147 12.1607 926 161.897 1306 453.325
1203 0 85.0975 12.0333 1024 145.513 1307.69 449.681
1204 0 84.0791 12.3098 1035 138.22 1307.13 448.737
1205 0 87.0795 12.368 1077 148.877 1307.47 447.214
1206 0 91.1702 12.2079 1113 145.582 1307.14 445.383
1207 1 47.0104 11.189 526 149.422 1306.01 467.496
1208 0 50.024 11.8543 593 151.046 1306.16 464.931
1209 0 49.1797 11.6918 575 146.43 1307.16 465.866
1210 0 50.0746 11.9222 597 150.27 1306.53 464.75
1211 0 53.0472 11.8385 628 151.893 1305.96 464.231
1212 0 54.2047 12.3237 668 147.531 1306.36 463.03
1213 0 56.3216 12.1978 687 147.559 1306.78 462.748
1214 0 58.1987 12.5261 729 147.226 1307.29 461.955
1215 0 58.2388 12.981 756 142.484 1306.97 461.131
1216 0 61.3897 12.4777 766 150.396 1306.87 460.644
1217 0 64.0825 12.5307 803 146.035 1306.5 458.857
1218 0 65.1534 12.4782 813 148.007 1306.5 458.089
1219 0 66.1667 13.0579 864 145.264 1306.62 458.214
1220 0 68.1298 12.9605 883 143.253 1306.11 456.349
1221 0 70.1095 12.6374 886 142.757 1306.56 456.264
1222 0 71.104 13.3607 950 146.636 1306.53 454.932
1223 0 74.1018 12.9686 961 145.502 1306.62 453.904
1224 0 77.1135 13.1235 1012 144.898 1307.05 453.066
1225 0 79.1249 13.1564 1041 141.011 1307.06 452.121
1226 0 81.1025 13.5261 1097 143.107 1307.41 449.988
1227 0 83.0648 13.6038 1130 130.784 1306.82 448.185
1228 0 87.1394 13.2087 1151 141.597 1307.91 447.844
1229 0 92.0814 13.2491 1220 132.133 1307.3 445.932
1230 0 94.1956 13.6418 1285 133.819 1307.14 443.417
1231 1 48.0493 11.509 553 138.519 1307.03 467.297
1232 0 50.112 11.2149 562 137.881 1308.02 467.593
1233 0 51.1493 11.965 612 129.593 1307.97 466.203
1234 0 51.1188 12.5003 639 135.034 1307.77 464.117
1235 0 55.0488 12.5707 692 126.149 1307.06 464.527
1236 0 56.1132 13.0272 731 138.313 1306.97 463.681
1237 0 58.0638 13.1063 761 127.69 1306.33 461.298
1238 0 59.1156 13.2621 784 129.908 1306.72 461.696
1239 0 61.0343 13.4023 818 131.204 1306.55 460.51
1240 0 63.1637 13.1088 828 129.362 1306.72 459.199
1241 0 64.0687 13.4231 860 129.643 1307.16 458.699
1242 0 65.0756 13.5688 883 132.646 1307.2 457.506
1243 0 69.085 13.3314 921 125.749 1308.01 455.759
1244 0 71.196 13.5963 968 130.206 1307.96 455.441
1245 0 72.0262 13.7172 988 130.692 1307.45 453.927
1246 0 75.0913 13.5701 1019 124.048 1306.77 453.403
1247 0 76.1445 13.4612 1025 124.816 1306.44 452.63
1248 0 80.0964 13.3839 1072 128.922 1306.63 451.674
1249 0 82.157 13.2429 1088 131.067 1307.31 450.358
1250 0 86.2546 13.2399 1142 123.345 1307.15 448.567
1251 0 87.2255 13.6199 1188 127.599 1307.18 447.258
1252 0 90.1936 13.4599 1214 124.554 1307.09 446.239
1253 0 93.1986 13.1225 1223 121.851 1307.29 444.963
1254 1 44.1588 11.8663 524 125.097 1307.54 468.239
1255 0 46.3122 11.8327 548 118.973 1308.83 467.863
1256 0 49.176 11.8351 582 120.833 1309.59 466.108
1257 0 49.1056 12.2389 601 120.556 1308.87 465.155
1258 0 50.1104 13.3904 671 121.654 1308.76 464.876
1259 0 52.0976 12.9948 677 116.904 1309.12 463.727
1260 0 55.2001 13.4601 743 115.734 1307.92 462.253
1261 0 56.1171 12.759 716 116.281 1307.65 460.828
1262 0 58.2536 13.2009 769 121.471 1307.75 460.362
1263 0 60.123 13.0566 785 117.256 1307.98 460.345
1264 0 61.1227 13.3338 815 119.804 1308.33 458.836
1265 0 65.2443 13.3192 869 121.997 1308.34 456.999
1266 0 65.1734 13.7019 893 118.61 1308.38 456.333
1267 0 68.1338 13.2827 905 116.599 1309.54 455.484
1268 0 70.0901 13.5254 948 118.769 1309.38 454.442
1269 0 72.1619 14.0102 1011 121.22 1308.79 452.301
1270 0 75.1077 13.5006 1014 123.969 1308.76 450.657
1271 0 77.1458 13.4162 1035 116.1 1308.99 450.438
1272 0 80.2006 13.8278 1109 125.651 1308.52 448.133
1273 1 37.1847 12.29 457 134.182 1308.43 467.54
1274 0 38.1658 12.1837 465 137.178 1307.56 466.802
1275 0 41.2282 12.8795 531 135.426 1308.14 466.03
1276 0 43.17 13.2963 574 134.679 1307.79 464.571
1277 0 47.2861 13.302 629 132.897 1307.75 464.059
1278 0 47.347 14.1086 668 130.828 1307.46 463.871
1279 0 48.2003 14.0871 679 131.586 1307.41 463.085
1280 0 50.2625 14.5038 729 139.639 1307.4 461.446
1281 0 51.2449 14.4014 738 138.829 1307.36 460.757
1282 0 54.2884 13.8151 750 133.129 1307.47 460.327
1283 0 56.3386 13.9159 784 143.019 1307.53 458.994
1284 0 55.4902 14.8675 825 141.916 1307.1 458.97
1285 0 60.3259 14.2393 859 134.324 1307.21 457.91
1286 0 62.5172 14.668 917 140.119 1307.68 456.731
1287 0 64.6735 14.5655 942 140.663 1308.17 455.66
1288 0 65.7672 14.5665 958 141.767 1307.7 455.84
1289 0 66.4861 15.0257 999 140.193 1308.24 454.412
1290 0 70.7355 15.0278 1063 139.267 1308.18 453.738
1291 0 73.6823 14.5761 1074 139.513 1308.17 453.067
1292 0 76.5589 14.4856 1109 136.5 1308.12 452.075
1293 0 77.8417 14.4396 1124 140.773 1307.98 450.989
1294 0 80.6545 14.6303 1180 141.356 1308.25 450.859
1295 0 83.6771 14.7591 1235 143.437 1308.45 448.498
1296 0 86.8283 14.569 1265 144.615 1308.06 447.606
1297 0 90.6028 14.4587 1310 142.48 1308.45 446.6
1298 0 92.6304 14.4229 1336 144.827 1308.13 444.084
1299 0 94.9677 14.7103 1397 145.389 1308.34 443.289
1300 1 44.7101 14.896 666 153.354 1307.6 465.98
1301 0 48.5816 14.9851 728 150.308 1307.67 465.713
1302 0 48.5941 15.2282 740 153.785 1309.3 463.504
1303 0 49.6299 15.3738 763 154.461 1309.4 462.077
1304 0 54.958 14.1199 776 153.799 1308.47 462.506
1305 0 57.0088 14.3487 818 144.96 1308.17 461.795
1306 0 58.0132 14.9104 865 151.825 1307.87 460.637
1307 0 60.8131 14.6186 889 143.075 1308.03 459.722
1308 0 61.7096 14.8599 917 152.716 1307.84 458.195
1309 0 63.6762 15.2019 968 148.009 1308 457.484
1310 0 68.9188 15.0612 1038 141.364 1307.62 455.516
1311 0 69.8464 15.305 1069 149.964 1307.55 454.758
1312 0 72.6372 14.9235 1084 148.324 1307.2 454.318
1313 0 75.624 14.7704 1117 148.877 1307.46 453.085
1314 0 77.7844 14.4245 1122 150.554 1307.63 452.403
1315 1 36.6386 14.2473 522 154.255 1307.08 470.328
1316 0 38.5061 14.2835 550 156.373 1307.01 469.098
1317 0 39.478 14.1851 560 159.923 1307.05 468.943
1318 0 39.3988 14.772 582 161.485 1307.05 469.182
1319 0 40.4693 14.8755 602 160.053 1307.71 467.553
1320 0 40.6525 15.6202 635 151.865 1307.94 468.074
1321 0 43.5711 15.2624 665 164.158 1308.18 467.662
1322 0 44.4396 14.7616 656 164.488 1307.71 466.713
1323 0 46.5944 14.7872 689 167.052 1308.29 467.038
1324 0 48.509 15.1518 735 157.652 1308.39 466.279
1325 0 48.6517 15.3129 745 163.168 1308.55 465.106
1326 0 49.3129 15.4726 763 156.218 1307.73 464.502
1327 0 51.5339 15.3879 793 165.119 1308.89 464.344
1328 0 53.5184 15.4713 828 158.087 1308.42 463.33
1329 0 54.5974 15.1289 826 163.125 1308.84 463.552
1330 0 57.4206 15.3952 884 158.068 1308.42 462.446
1331 0 57.3816 15.7716 905 160.635 1308.97 462.073
1332 0 59.3176 15.7963 937 157.424 1308.66 461.63
1333 0 58.2664 16.0298 934 157.201 1307.98 461.131
1334 0 62.4178 15.6205 975 161.133 1308.77 460.209
1335 0 63.3355 15.6942 994 154.881 1308.43 459.445
1336 0 63.5008 16.0943 1022 155.575 1308.24 460.244
1337 0 66.6891 15.7747 1052 151.99 1307.95 458.422
1338 0 69.347 15.8478 1099 147.51 1308.57 457.181
1339 0 70.339 16.1077 1133 158.823 1308.17 456.923
1340 0 70.2398 16.6572 1170 157.414 1307.99 455.825
1341 0 75.3297 15.9831 1204 156.047 1307.86 455.429
1342 0 75.6598 16.0984 1218 154.186 1307.47 454.111
1343 0 78.4191 16.144 1266 162.849 1307.42 453.228
1344 0 79.4341 16.328 1297 166.988 1307.5 452.61
1345 0 83.6995 15.9141 1332 160.465 1307.72 450.477
1346 0 85.6752 16.1657 1385 164.009 1307.94 449.923
1347 0 89.4857 15.9579 1428 159.723 1308.19 448.568
1348 0 90.8769 16.4068 1491 157.829 1308.9 446.571
1349 0 94.8669 16.1595 1533 158.051 1309 444.727
1350 0 97.4828 16.3413 1593 165.79 1309.2 444.3
1351 0 101.681 16.5813 1686 159.927 1309.2 442.974
1352 0 103.58 16.5476 1714 158.031 1309 441.584
1353 0 106.804 16.0106 1710 158.87 1309.08 440.051
1354 0 109.604 16.3498 1792 163.634 1309.2 438.725
1355 0 111.524 16.122 1798 166.447 1309.43 438.064
1356 0 116.948 15.973 1868 171.019 1309.13 435.921
1357 0 119.73 16.2115 1941 170.371 1308.83 435.056
1358 0 122.621 16.392 2010 163.556 1309.3 432.552
1359 0 124.546 16.0502 1999 156.906 1309.46 430.886
1360 0 130.924 15.7114 2057 168.18 1309.52 429.464
1361 0 135.809 15.7574 2140 161.406 1308.94 426.166
1362 1 57.3618 16.2477 932 169.137 1309.7 459.403
1363 0 61.9094 15.668 970 167.452 1310.9 459.026
1364 0 63.6863 16.0945 1025 171.421 1309.99 458.591
1365 0 64.7291 16.7467 1084 169.549 1309.17 458.174
1366 0 67.554 16.0908 1087 168.608 1309.48 457.307
1367 0 69.3607 16.5079 1145 166.355 1309.36 456.163
1368 0 70.4135 16.8434 1186 168.859 1309.09 455.995
1369 0 70.7238 17.1088 1210 164.543 1309.06 454.096
1370 0 75.8379 16.0078 1214 163.183 1309.17 452.734
1371 0 77.6288 16.7206 1298 165.429 1309.76 452.698
1372 0 79.755 16.5507 1320 165.913 1309.94 449.952
1373 0 81.443 16.5146 1345 165.971 1309.99 449.089
1374 0 83.903 16.4237 1378 163.676 1310.2 448.406
1375 0 85.7511 16.7345 1435 168.556 1310.32 447.616
1376 0 87.9212 16.7195 1470 161.362 1309.04 446.21
1377 0 91.9528 16.3127 1500 163.451 1308.88 444.234
1378 0 95.2474 16.3784 1560 153.968 1308.81 443.719
1379 0 96.5503 16.4785 1591 163.932 1308.74 443.056
1380 0 99.8083 16.171 1614 165.372 1308.68 441.795
1381 0 102.14 16.3893 1674 156.699 1308.6 439.67
1382 0 105.958 16.3272 1730 158.688 1309.32 438.609
1383 0 109.782 16.2049 1779 157.707 1309.08 436.512
1384 0 112.035 16.0932 1803 157.544 1309.82 435.986
1385 0 115.05 16.2365 1868 154.136 1309.43 434.462
1386 0 119.833 15.7219 1884 150.906 1309.2 432.975
1387 1 60.7868 15.1349 920 153.698 1309.55 458.47
1388 0 62.5263 15.0976 944 154.444 1309.61 458.786
1389 0 64.6381 15.1613 980 145.781 1309.88 457.867
1390 0 64.3044 15.4577 994 156.779 1309.89 457.119
1391 0 65.7872 15.8693 1044 148.835 1310.36 456.02
1392 0 70.1982 15.328 1076 152.945 1310.07 454.991
1393 0 71.6952 15.4822 1110 146.677 1309.88 455.194
1394 0 73.8786 15.7691 1165 153.749 1309.9 454.405
1395 0 75.5934 15.8612 1199 150.05 1310.04 453.88
1396 0 78.4273 15.6323 1226 143.244 1309.54 452.615
1397 0 79.8562 15.9161 1271 146.765 1310.14 451.901
1398 0 84.0945 15.6491 1316 133.249 1310.05 450.422
1399 0 84.3389 15.9713 1347 149.2 1309.66 448.869
1400 0 87.8025 16.1954 1422 150.128 1309.54 448.762
1401 0 88.8209 16.2462 1443 147.995 1308.97 448.064
1402 0 93.7846 16.218 1521 144.625 1308.75 446.152
1403 0 95.1376 16.1766 1539 150.244 1308.65 445.985
1404 0 99.8338 16.7078 1668 154.508 1308.93 443.124
1405 0 102.288 16.2482 1662 150.776 1308.51 442.662
1406 0 103.104 16.2844 1679 164.356 1309.02 442.699
1407 0 106.837 16.3988 1752 159.938 1308.72 440.986
1408 0 108.431 16.6282 1803 161.069 1309.12 440.374
1409 0 113.184 16.6543 1885 165.091 1308.98 439.762
1410 0 115.809 16.933 1961 168.155 1308.3 438.052
1411 0 119.088 16.5843 1975 160.977 1308.17 436.616
1412 0 122.803 17.2309 2116 169.626 1308.3 434.441
1413 0 127.487 16.8644 2150 162.793 1308.45 433.422
1414 0 128.876 16.8379 2170 167.037 1308.57 430.898
1415 0 135.3 16.7258 2263 169.537 1307.56 430.103
1416 0 136.103 16.9357 2305 167.662 1307.25 428.88
1417 0 139.533 17.0068 2373 173.074 1307.11 426.281
1418 0 143.347 16.8472 2415 170.521 1308.07 425.322
1419 0 148.398 17.069 2533 167.011 1307.76 424.328
1420 0 151.422 17.1177 2592 165.691 1306.35 421.844
1421 0 154.284 17.2799 2666 166.217 1307.1 420.65
1422 0 158.862 17.0148 2703 171.038 1307.24 419.483
1423 0 163.803 17.1059 2802 168.352 1307.41 416.932
1424 0 167.396 16.9 2829 164.192 1307.01 415.394
1425 0 173.966 17.1528 2984 165.529 1306.41 413.166
1426 1 38.1031 13.8834 529 146.113 1305.31 475.246
1427 0 37.1483 14.7786 549 142.745 1305.16 476.109
1428 0 38.2542 14.4298 552 145.355 1304.62 475.134
1429 0 39.1205 14.2892 559 149.394 1304.94 474.699
1430 0 39.2113 14.8682 583 143.34 1305.54 474.528
1431 0 40.1215 14.6804 589 144.857 1305.51 473.567
1432 0 41.249 14.8125 611 149.682 1305.47 473.151
1433 0 41.1176 15.2003 625 141.573 1305.28 472.997
1434 0 41.1176 15.2003 625 147.978 1305.28 472.997
1435 0 43.0564 14.7713 636 145.987 1305.07 473.41
1436 0 48.471 15.2669 740 147.622 1304.66 469.915
1437 0 47.1806 15.7268 742 27.5499 1305.61 469.691
1438 0 45.1222 15.2696 689 150.2 1304.86 470.73
1439 0 49.2254 15.0938 743 149.95 1305.21 470.324
1440 0 48.3362 15.6611 757 151.162 1305.46 470.733
1441 0 51.1176 15.0437 769 149.532 1304.76 469.451
1442 0 52.8191 14.881 786 148.146 1306.16 470.482
1443 0 53.5396 14.8488 795 153.009 1304.95 470.937
1444 0 62.5226 15.0186 939 143.526 1305.23 467.66
1445 0 62.2327 15.0403 936 142.906 1304.72 467.551
1446 1 103.233 14.385 1485 138.552 1305.53 449.757
1447 0 103.738 13.7365 1425 147.391 1306.24 450.578
1448 1 65.0896 15.1023 983 154.103 1305.12 464.81
1449 0 66.3067 14.9759 993 149.193 1305.17 464.735
1450 0 66.7493 14.7567 985 158.019 1305 465.18
1451 0 69.629 14.7352 1026 155.939 1305.21 463.34
1452 0 69.9439 14.8833 1041 151.438 1305 463.733
1453 0 70.53 13.6821 965 153.047 1305.82 463.346
1454 0 61.8528 13.9687 864 158.406 1305.67 465.579
1455 0 61.8936 14.8965 922 156.132 1306.01 464.936
1456 0 61.7243 15.5206 958 158.348 1305.5 464.564
1457 1 33.1456 16.1711 536 156.134 1304.69 476.409
1458 0 35.134 16.2236 570 162.765 1305.27 475.381
1459 0 35.0829 15.9337 559 162.599 1305.9 474.408
1460 0 36.1848 16.0289 580 155.36 1305.93 475.248
1461 0 34.7573 16.6008 577 163.284 1305.27 473.953
1462 0 36.5333 16.2591 594 163.197 1305.72 473.973
1463 0 37.4206 16.4348 615 167.192 1305.48 473.956
1464 1 126.568 15.2724 1933 160.96 1306.11 436.341
1465 0 129.201 15.472 1999 162.151 1306.17 435.848
1466 0 128.646 15.8963 2045 170.432 1305.89 435.789
1467 0 128.883 16.2162 2090 168.084 1306.72 435.267
1468 0 131.862 16.0926 2122 171.023 1307.15 434.517
1469 0 134.024 16.6314 2229 171.618 1307.49 433.454
1470 0 134.277 16.734 2247 173.19 1308.21 432.285
1471 0 137.867 16.6537 2296 173.023 1308.53 431.868
1472 0 295.631 19.0339 5627 163.27 1309.12 349.13
1473 0 300.508 18.8847 5675 159.838 1308.47 347.476
1474 0 304.141 19.1917 5837 157.935 1309.34 346.777
1475 0 307.21 19.2051 5900 155.078 1309.43 343.75
1476 1 69.8471 15.5482 1086 162.549 1308.61 457.415
1477 0 72.1832 16.1533 1166 164.232 1308.49 456.238
1478 1 45.178 16.8445 761 174.966 1309.27 466.143
1479 0 45.3006 17.2183 780 173.176 1309.15 464.391
1480 0 48.1028 17.5042 842 172.776 1309.3 464.045
1481 0 57.0702 15.8401 904 173.018 1309.43 464.002
1482 0 60.049 15.3042 919 171.913 1309.79 463.45
1483 0 61.4614 15.2942 940 174.784 1309.88 463.247
1484 0 62.8024 15.716 987 176.226 1309.92 461.77
1485 0 64.9987 15.2465 991 167.341 1309.83 461.321
1486 0 66.0409 15.8235 1045 159.818 1309.71 460.522
1487 0 69.3596 15.744 1092 169.825 1309.65 460.186
1488 0 71.73 17.0361 1222 158.388 1309.09 457.197
1489 1 158.929 14.2265 2261 128.431 1309.96 413.224
1490 0 162.003 9.53069 1544 134.399 1308.86 442.19
1491 1 202.005 10.5393 2129 118.631 1308.83 394.2
1492 1 245.329 10.7814 2645 108.551 1308.41 360.105
1493 0 243.478 7.71734 1879 133.885 1309.15 395.912
1494 0 174.914 8.96439 1568 151.596 1309.39 396.821
1495 0 179.566 8.7099 1564 150.196 1308.83 394.276
1496 0 244.218 6.76035 1651 149.074 1309.05 365.632
1497 0 247.936 6.8808 1706 151.804 1308.66 363.719
1498 1 244.588 7.98077 1952 116.218 1309.22 354.324
1499 0 242.834 5.83527 1417 127.731 1308.47 394.083
1500 0 237.641 6.21946 1478 120.478 1308.55 392.698
1501 0 141.744 9.31257 1320 137.661 1307.99 409.452
1502 0 140.34 8.48655 1191 150.679 1307.84 413.83
1503 0 144.524 8.27542 1196 151.979 1308.42 412.736
1504 0 150.635 7.94637 1197 143.5 1308.11 410.494
1505 1 84.5799 10.1443 858 130.908 1306.73 453.002
1506 0 92.8091 9.46028 878 133.402 1307.21 450.386
1507 0 91.6428 9.35153 857 146.76 1307.23 455.862
1508 0 93.6144 9.63527 902 138.39 1307.35 452.29
1509 0 94.0461 9.36775 881 146.366 1307.84 454.613
1510 0 93.3982 10.0858 942 140.011 1307.41 451.105
1511 0 90.6098 10.937 991 135.455 1307.28 451.204
1512 0 103.617 9.89219 1025 142.757 1306.44 449.54
1513 0 90.797 11.8286 1074 139.53 1307.34 450.205
1514 0 98.9742 11.6091 1149 137.708 1307.53 447.241
1515 0 94.0628 13.289 1250 131.578 1307.84 445.347
1516 0 97.1229 13.4366 1305 127.723 1307.7 445.151
1517 0 92.4071 14.3712 1328 134.486 1306.77 444.556
1518 0 92.6739 15.3441 1422 121.136 1306.63 442.614
1519 1 177.955 10.2273 1820 134.787 1306.35 404.262
1520 0 182.076 10.3309 1881 138.106 1306.18 403.442
1521 0 182.892 10.7276 1962 134.971 1306.09 402.616
1522 0 183.64 10.7166 1968 140.236 1306.18 402.356
1523 0 188.539 10.9155 2058 138.826 1306.01 401.871
1524 1 44.3895 12.2101 542 172.273 1305.54 466.319
1525 0 47.2988 12.2625 580 173.067 1305.51 465.216
1526 0 46.6226 13.0194 607 163.723 1304.43 466.651
1527 0 46.5458 13.5136 629 166.24 1304.65 466.695
1528 0 48.6247 12.9564 630 167.973 1305.18 466.9
1529 0 51.5773 12.7769 659 173.24 1304.54 465.53
1530 0 51.5318 13.2928 685 169.531 1305.11 464.65
1531 0 52.8188 13.0446 689 173.48 1305.43 463.839
1532 0 53.5395 13.2612 710 168.684 1305.07 462.99
1533 0 55.6445 13.3167 741 176.139 1305.52 462.889
1534 0 56.7552 13.6551 775 168.684 1305.08 462.28
1535 0 59.4643 13.8739 825 162.745 1305.13 461.326
1536 0 61.6298 13.7758 849 161.662 1305.71 460.231
1537 0 64.6557 13.7498 889 166.151 1304.92 459.089
1538 0 67.8888 14.9509 1015 111.826 1305.72 456.386
1539 0 69.917 14.5315 1016 165.124 1306.02 455.372
1540 0 71.756 13.6435 979 170.322 1305.91 455.778
1541 0 73.6087 13.6261 1003 170.534 1306.05 453.305
1542 0 74.5865 13.8765 1035 159.61 1306.21 452.343
1543 0 78.772 14.0532 1107 169.251 1305.55 451.098
1544 0 78.6615 13.9077 1094 174.915 1305.16 450.905
1545 0 83.6146 13.3948 1120 172.36 1305.6 449.029
1546 0 86.4095 13.7485 1188 171.462 1305.57 448.888
1547 0 87.56 13.9904 1225 168.182 1306.1 447.592
1548 0 90.317 13.5633 1225 166.732 1306.7 446.912
1549 0 95.2624 14.8537 1415 148.84 1306.96 441.859
1550 1 47.0991 11.9535 563 160.913 1306.93 465.696
1551 0 48.0986 12.6407 608 159.625 1307.02 465.37
1552 0 52.4407 12.3949 650 163.897 1307.58 466.935
1553 0 52.0359 12.8757 670 163.881 1306.83 465.51
1554 0 53.1373 13.0981 696 164.99 1307.46 465.57
1555 0 56.1596 12.8562 722 161.889 1307.26 464.299
1556 0 57.2584 13.1684 754 162.889 1307.57 463.53
1557 0 59.2674 12.992 770 166.665 1307.46 462.831
1558 0 61.4053 12.9305 794 167.864 1308.05 460.924
1559 0 64.3438 13.4745 867 165.729 1307.2 460.033
1560 0 65.5282 13.3683 876 166.38 1307.1 459.316
1561 0 68.4406 13.267 908 163.76 1307.29 458.097
1562 0 70.4118 13.1228 924 165.258 1308.22 455.773
1563 0 72.2972 13.3753 967 168.209 1307.49 454.717
1564 0 74.4628 13.4832 1004 162.066 1307.72 454.12
1565 0 77.673 13.1448 1021 165.862 1307.43 452.864
1566 0 79.4068 13.5253 1074 159.308 1308.08 451.313
1567 0 83.2176 13.1823 1097 161.397 1307.9 449.889
1568 0 86.1683 13.1951 1137 164.833 1307.65 448.679
1569 1 44.1279 11.7839 520 156.51 1306.96 468.377
1570 0 44.093 12.02 530 154.825 1308.52 467.134
1571 0 46.116 11.8614 547 149.678 1308.96 466.135
1572 0 48.1368 12.2152 588 153.463 1308.21 465.57
1573 0 49.1426 12.7384 626 147.286 1309 464.548
1574 0 51.0902 12.429 635 151.255 1308.68 463.605
1575 0 53.1086 12.2767 652 149.437 1308.18 462.603
1576 0 55.1639 12.5988 695 148.141 1308.65 461.43
1577 0 56.1461 12.61 708 143.497 1307.82 460.823
1578 0 58.1145 12.4237 722 149.904 1307.99 460.007
1579 0 60.151 12.851 773 145.811 1307.62 458.649
1580 0 61.0947 12.7834 781 142.067 1308.02 458.563
1581 0 63.2408 12.9663 820 82.9829 1308.47 456.404
1582 0 65.1945 13.0686 852 146.322 1308.53 456.241
1583 0 67.1948 13.0962 880 147.645 1308.77 455.868
1584 0 69.1515 13.0438 902 147.591 1309.16 454.924
1585 0 69.1309 12.9031 892 144.46 1309.51 455.075
1586 0 71.1226 13.1323 934 149.713 1309.65 453.168
1587 0 74.1352 13.0302 966 150.877 1309.06 452.744
1588 0 77.2097 13.0813 1010 149.415 1309.75 451.013
1589 0 79.1736 13.262 1050 144.132 1309.68 450.41
1590 0 81.1884 13.3024 1080 148.781 1309.78 449.483
1591 0 84.2221 13.2982 1120 146.187 1309.79 447.172
1592 0 86.2528 13.0778 1128 149.87 1309.91 447.393
1593 0 90.1491 13.6552 1231 145.782 1309.31 446.443
1594 0 93.1368 13.0775 1218 148.571 1308.45 444.197
1595 1 49.0508 11.3963 559 139.506 1308.66 466.721
1596 0 49.173 12.2425 602 146.163 1308.46 466.38
1597 0 52.0248 12.3595 643 138.451 1308.63 464.89
1598 0 52.0461 12.6426 658 135.851 1308.68 464.154
1599 0 54.1206 12.158 658 140.936 1308.02 462.789
1600 0 55.057 13.1319 723 133.264 1307.93 461.791
1601 0 55.068 12.9295 712 135.449 1307.86 462.944
1602 0 58.0763 12.8279 745 134.102 1307.9 461.399
1603 0 60.0622 12.9699 779 139.755 1307.65 460.144
1604 0 63.0999 13.0111 821 126.14 1307.54 458.469
1605 0 63.149 12.9218 816 137.713 1308.07 458.259
1606 0 66.0604 12.9881 858 136.523 1307.99 457.244
1607 0 68.1188 12.8599 876 131.554 1308.08 456.309
1608 0 71.1252 12.949 921 138.636 1308.03 455.682
1609 0 73.1352 13.0307 953 141.959 1308.12 454.099
1610 0 74.1292 13.2471 982 137.122 1308.54 453.089
1611 0 78.3578 12.9406 1014 134.365 1308.15 451.674
1612 0 80.1129 13.3437 1069 139.075 1307.87 451.363
1613 0 83.166 13.1544 1094 139.331 1307.44 448.378
1614 0 87.1041 13.3633 1164 135.759 1307.51 448.119
1615 0 88.1744 12.7588 1125 136.806 1307.48 446.317
1616 0 91.1819 13.4566 1227 140.684 1306.82 444.515
1617 0 96.1223 12.713 1222 137.606 1306.55 444.515
1618 0 97.1933 13.0359 1267 139.248 1307.16 443.107
1619 1 52.0178 11.0347 574 128.181 1306.89 465.275
1620 0 55.0401 11.8096 650 127.469 1306.72 463.437
1621 0 56.1058 11.9774 672 132.231 1306.04 463.019
1622 0 58.046 12.0594 700 132.791 1306.18 462.316
1623 0 59.0532 12.1416 717 131.582 1307.12 462.052
1624 0 62.0812 12.838 797 131.263 1307.07 460.985
1625 0 64.0313 12.4158 795 123.55 1307.2 460.009
1626 0 67.0785 12.1648 816 127.442 1306.69 459.711
1627 0 67.0352 12.4114 832 127.142 1306.37 458.064
1628 0 70.1593 12.6142 885 123.544 1305.77 457.762
1629 0 73.1137 12.2139 893 132.94 1306.48 455.892
1630 0 74.2458 12.3105 914 132.204 1305.93 455.615
1631 0 77.1007 12.6199 973 131.398 1306.03 454.645
1632 0 78.1915 12.6356 988 130.969 1306.31 452.895
1633 0 82.3083 12.6476 1041 132.202 1306.44 452.163
1634 0 84.2848 12.4578 1050 135.243 1306.57 450.318
1635 0 86.4764 12.5005 1081 130.445 1307.03 449.09
1636 1 48.2538 10.7764 520 135.681 1305.61 469.365
1637 0 48.3357 11.4615 554 135.32 1305.17 469.5
1638 0 50.2096 12.1491 610 137.72 1305.49 468.205
1639 0 52.1713 11.7114 611 135.272 1304.87 466.953
1640 0 52.0829 12.4417 648 130.21 1305.07 466.867
1641 0 55.1972 12.1927 673 132.872 1305.36 465.187
1642 0 57.0412 11.8511 676 134.235 1306.95 462.735
1643 0 57.1127 12.309 703 130.215 1307.4 463.12
1644 0 61.0867 12.0485 736 133.95 1307.88 461.818
1645 0 61.0957 12.3249 753 131.089 1307.77 460.863
1646 0 64.0782 12.2194 783 133.985 1307.88 460.08
1647 0 66.0486 12.4757 824 131.116 1307.43 458.848
1648 0 68.0497 12.2851 836 137.212 1306.62 457.813
1649 0 71.0998 12.7708 908 131.892 1306.58 456.801
1650 0 73.0678 12.5774 919 134.256 1307.31 456.372
1651 0 74.1708 12.7004 942 133.033 1307.55 455.638
1652 0 80.1443 12.9516 1038 126.071 1306.7 454.513
1653 0 81.2041 13.1274 1066 136.476 1307 453.206
1654 0 84.2233 12.8468 1082 133.471 1306.65 451.55
1655 0 87.1812 12.7206 1109 132.549 1307.3 448.724
1656 0 87.1812 12.7206 1109 168.434 1308.3 448.724
1657 0 91.1318 12.9812 1183 136.048 1307.62 447.566
1658 0 94.1639 13.1473 1238 139.184 1307.78 445.844
1659 1 49.0685 11.9833 588 136.25 1308.81 468.036
1660 0 50.3174 11.9641 602 135.178 1306.56 466.698
1661 0 53.1765 12.2046 649 133.709 1307.5 466.205
1662 0 53.0695 12.4365 660 135.438 1308.73 465.367
1663 0 57.0251 12.5208 714 134.181 1309.6 462.071
1664 0 57.1318 12.0423 688 136.94 1309.38 462.369
1665 0 58.077 12.4834 725 135.188 1308.65 460.592
1666 0 60.0397 12.625 758 137.427 1308.68 460.153
1667 0 63.039 12.294 775 133.366 1308.68 460.735
1668 0 63.1432 12.9864 820 141.355 1308.76 459.96
1669 0 66.0411 12.6134 833 140.144 1308.46 459.541
1670 0 66.1105 13.1447 869 145.328 1309.39 458.784
1671 0 70.0867 13.2835 931 139.325 1309.05 457.313
1672 0 71.1547 13.3793 952 138.63 1308.97 456.197
1673 0 72.0932 13.5796 979 136.196 1309.18 455.388
1674 0 75.114 13.7258 1031 141.881 1309.21 454.62
1675 0 79.1174 13.461 1065 138.06 1309.76 452.716
1676 0 80.0845 13.6356 1092 146.001 1309.35 452.597
1677 0 82.1696 13.9468 1146 143.689 1309.76 451.91
1678 0 86.1332 14.0596 1211 135.595 1309.32 449.738
1679 0 89.1536 13.6842 1220 152.524 1309.43 448.398
1680 0 91.0639 13.7925 1256 147.975 1309.36 448.275
1681 0 91.0639 13.7925 1256 180.259 1307.36 448.275
1682 0 97.1184 13.8079 1341 148.638 1309.97 445.933
1683 0 101.258 13.6878 1386 154.175 1309.77 444.938
1684 1 51.0498 12.9482 661 135.452 1309.96 467.407
1685 0 51.2181 12.8861 660 163.226 1309.7 467.738
1686 0 52.2026 13.3327 696 159.668 1309.69 466.523
1687 0 56.2413 12.9442 728 161.391 1309.52 465.56
1688 0 56.214 13.3419 750 163.179 1309.8 464.852
1689 0 60.1565 12.7002 764 160.868 1310.06 463.631
1690 0 60.0953 13.4453 808 162.573 1309.87 461.969
1691 0 63.0956 13.329 841 159.289 1309.67 459.952
1692 0 65.1372 12.988 846 163.359 1309.41 459.66
1693 0 66.1552 13.3625 884 161.575 1309.75 457.6
1694 0 70.2373 13.9812 982 148.82 1309.86 453.53
1695 0 71.1532 13.9277 991 153.642 1309.69 453.517
1696 0 74.3586 13.9056 1034 151.024 1309.82 452.504
1697 0 74.3586 13.9056 1034 163.685 1309.82 452.504
1698 0 79.4834 13.0719 1039 154.106 1309.01 453.568
1699 0 81.4862 13.1679 1073 153.924 1308.68 451.924
1700 0 84.4552 13.5575 1145 150.493 1308.36 449.546
1701 0 87.2948 13.2539 1157 142.367 1308.31 448.287
1702 0 91.3132 12.9445 1182 152.118 1308.25 446.513
1703 1 46.3608 12.5753 583 149.714 1308.5 466.914
1704 0 47.1998 12.7543 602 154.329 1308.28 466.223
1705 0 49.3069 12.554 619 145.811 1308.05 464.523
1706 0 50.1331 12.9655 650 146.405 1308.15 465.146
1707 0 52.3296 12.7843 669 145.525 1308.55 464.78
1708 0 54.3899 13.0171 708 141.805 1307.84 461.792
1709 0 56.434 13.1304 741 147.513 1307.21 462.274
1710 0 56.3974 13.529 763 147.815 1306.52 461.208
1711 0 58.636 13.5923 797 146.476 1306.45 461.246
1712 0 60.4866 13.1765 797 141.545 1306.11 460.44
1713 0 63.4195 12.9613 822 142.243 1307.29 460.647
1714 0 63.4483 13.444 853 144.771 1307.25 458.761
1715 0 65.3675 13.5235 884 139.428 1307.21 458.103
1716 0 69.5063 13.4233 933 140.258 1306.65 456.128
1717 0 70.9073 13.3978 950 140.864 1306.69 456.096
1718 0 72.7178 13.9581 1015 140.6 1307.3 454.062
1719 0 75.6167 13.0923 990 140.929 1306.97 454.727
1720 0 78.7424 13.3219 1049 141.14 1306.44 453.91
1721 0 81.5749 13.1781 1075 136.781 1307.15 453.92
1722 0 83.6689 12.9319 1082 141.908 1306.87 451.46
1723 1 44.4857 11.6891 520 147.912 1305.71 470.26
1724 0 44.5202 12.2192 544 149.077 1305.87 468.831
1725 0 48.2992 12.2362 591 144.462 1306.28 470.853
1726 0 48.3433 13.3214 644 146.978 1305.82 469.175
1727 0 51.4105 12.8378 660 143.608 1305.39 468.267
1728 0 53.1506 13.2454 704 143.169 1305.93 467.908
1729 0 54.246 13.4757 731 147.234 1306.15 466.717
1730 0 57.0919 13.4345 767 141.03 1305.78 466.108
1731 0 58.3145 13.3243 777 144.422 1305.47 465.086
1732 0 61.4068 13.435 825 138.187 1306.15 464.115
1733 0 61.245 13.5848 832 144.547 1305.61 464.132
1734 0 65.4551 13.5666 888 145.409 1304.83 461.952
1735 0 66.4537 13.6035 904 144.981 1304.86 461.863
1736 0 69.3264 13.1119 909 144.935 1305.14 461.807
1737 0 72.5444 13.4814 978 139.206 1304.85 460.006
1738 0 74.287 13.5555 1007 137.696 1305.23 456.289
1739 0 76.6414 13.922 1067 137.64 1304.97 455.246
1740 0 78.4968 13.5547 1064 140.235 1305.54 452.442
1741 0 82.7789 13.675 1132 141.548 1304.92 452.342
1742 0 85.6651 13.366 1145 139.984 1304.66 451.089
1743 0 88.5898 13.5569 1201 140.666 1304.87 450.731
1744 0 88.467 13.7339 1215 146.677 1305.34 450.208
1745 0 92.5808 13.5773 1257 145 1304.88 448.547
1746 1 50.1477 12.6825 636 146.7 1305.11 470.637
1747 0 53.2601 12.8614 685 139.228 1305.29 468.991
1748 0 52.4858 13.0511 685 143.945 1304.15 469.272
1749 0 55.2553 12.759 705 144.41 1304.54 467.675
1750 0 56.2605 13.3308 750 144.356 1305.03 465.915
1751 0 58.5606 13.3878 784 146.059 1304.82 465.239
1752 0 59.3967 13.2499 787 155.141 1305.43 464.914
1753 0 60.5023 13.3714 809 154.586 1305.32 463.896
1754 0 63.6075 13.1274 835 147.231 1305.67 463.88
1755 0 66.6925 13.1649 878 141.896 1304.98 460.687
1756 0 67.5135 13.1381 887 142.118 1305.38 460.921
1757 0 69.4408 13.1479 913 144.186 1304.98 460.437
1758 0 71.2735 13.5113 963 138.928 1304.54 459.104
1759 0 73.5833 13.3046 979 153.248 1305.72 458.257
1760 0 75.4547 13.2795 1002 145.004 1306.5 457.477
1761 0 80.4757 13.2959 1070 148.917 1305.6 455.734
1762 0 81.4065 13.795 1123 145.524 1305.88 453.539
1763 0 84.4617 13.4736 1138 146.765 1306.31 453.128
1764 0 86.4188 13.5503 1171 151.786 1305.94 451.078
1765 0 90.4227 13.4701 1218 149.115 1305.83 450.697
1766 0 93.4274 13.2081 1234 147.873 1305.98 448.123
1767 0 97.468 13.666 1332 152.595 1305.93 446.536
1768 0 100.206 13.7817 1381 150.329 1306.31 444.889
1769 1 54.2346 13.1097 711 149.584 1306.66 467.018
1770 0 57.2276 12.9134 739 147.294 1306.73 466.348
1771 0 58.2126 13.3648 778 143.91 1306.7 465.276
1772 0 61.1611 13.5871 831 149.221 1306.86 464.303
1773 0 63.2647 13.2143 836 143.547 1306.7 463.2
1774 0 64.2731 13.4582 865 142.758 1307.14 461.702
1775 0 68.3894 13.1161 897 148.061 1307.17 460.948
1776 0 69.3833 13.7785 956 140.295 1307 458.94
1777 0 72.3866 13.5108 978 145.414 1306.99 457.717
1778 0 75.2883 13.5214 1018 134.116 1307.15 457.023
1779 0 77.3985 13.269 1027 143.42 1306.65 455.39
1780 0 80.3362 13.456 1081 141.202 1306.95 453.706
1781 0 83.4046 13.3566 1114 141.378 1306.88 452.22
1782 0 87.4517 13.5503 1185 141.486 1307.19 449.757
1783 0 89.406 13.8358 1237 138.918 1307.72 447.399
1784 0 93.2673 13.8741 1294 140.495 1307.8 446.91
1785 1 47.2279 12.2597 579 145.209 1308.36 470.178
1786 0 49.2207 12.4744 614 147.8 1308.39 469.77
1787 0 50.1872 13.0113 653 147.496 1308.63 469.191
1788 0 52.2512 12.9184 675 140.191 1309.3 466.933
1789 0 54.304 13.2771 721 142.374 1308.68 465.662
1790 0 55.3248 13.8455 766 143.174 1308.8 464.265
1791 0 57.2457 13.4683 771 141.431 1308.45 463.895
1792 0 60.0968 12.9791 780 142.176 1307.43 463.12
1793 0 60.0968 12.9791 780 168.453 1307.43 463.12
1794 0 62.2811 13.7923 859 145.632 1307.69 460.704
1795 0 66.2087 13.3668 885 144.032 1307.44 460.108
1796 0 66.2455 13.9028 921 141.389 1307.78 459.328
1797 0 70.2387 13.5253 950 140.144 1307.58 457.875
1798 0 73.3396 13.1989 968 141.342 1307.35 456.299
1799 0 75.2636 13.4594 1013 137.41 1307.95 455.636
1800 0 78.326 13.3289 1044 140.214 1307.13 453.913
1801 0 79.1593 13.7697 1090 134.476 1307.16 453.212
1802 0 83.2987 13.7097 1142 135.253 1307.03 451.342
1803 0 86.355 14.1046 1218 139.165 1307.29 449.744
1804 0 90.5498 13.5506 1227 140.768 1307.55 448.976
1805 0 91.3891 13.6121 1244 136.517 1307.07 448.186
1806 0 94.3921 13.4863 1273 144.723 1306.3 446.886
1807 1 47.2441 12.8905 609 143.021 1307.52 468.834
1808 0 47.2441 12.8905 609 169.108 1308.52 468.834
1809 0 51.3297 13.4036 688 142.821 1306.93 466.956
1810 0 54.3592 13.0061 707 134.212 1306.49 466.334
1811 0 55.3367 13.1378 727 146.963 1306.58 467.087
1812 0 57.3444 13.3404 765 148.733 1306.45 466.274
1813 0 58.2148 13.2269 770 146.653 1306.84 462.373
1814 0 58.2148 13.2269 770 175.403 1307.84 462.373
1815 0 60.3054 13.6638 824 149.233 1306.59 458.773
1816 0 61.5162 13.9638 859 145.298 1307.21 457.53
1817 0 65.5041 13.5411 887 146.736 1306.78 456.857
1818 0 67.5466 13.5166 913 149.18 1306.17 456.065
1819 0 68.4901 13.8122 946 146.904 1305.68 453.943
1820 0 72.446 13.9828 1013 149.385 1305.01 452.366
1821 0 74.4779 13.8296 1030 147.035 1304.38 451.453
1822 0 76.4244 13.7914 1054 148.686 1305.3 450.806
1823 0 78.5312 13.8926 1091 152.685 1305.79 450.21
1824 0 82.718 13.685 1132 143.336 1304.53 447.893
1825 0 86.6138 13.185 1142 143.763 1304.54 446.38
1826 0 87.3629 13.8617 1211 143.528 1304.64 445.794
1827 0 90.3216 13.9944 1264 143.512 1304.89 445.254
1828 0 92.2813 14.1957 1310 144.117 1305.58 444.344
1829 1 46.1061 12.1676 561 145.225 1305.24 466.954
1830 0 47.0611 12.6006 593 144.983 1304.42 466.725
1831 0 51.185 12.6013 645 139.544 1305.68 467.296
1832 0 52.1359 13.3114 694 147.514 1305.39 465.952
1833 0 55.1853 12.8295 708 136.367 1305.45 465.282
1834 0 57.3085 13.0347 747 131.93 1305.03 464.458
1835 0 58.2997 12.9675 756 130.388 1304.55 464.16
1836 0 58.1658 13.5819 790 134.89 1305.2 463.311
1837 0 62.2361 13.2238 823 132.307 1303.85 462.787
1838 0 64.1556 13.4205 861 111.841 1303.92 461.469
1839 0 66.1483 13.7721 911 118.326 1303.32 459.866
1840 0 68.359 13.6778 935 120.336 1303.81 459.132
1841 0 69.325 14.0642 975 118.677 1304.32 458.329
1842 0 72.2718 13.6845 989 122.386 1303.51 457.202
1843 0 76.1374 13.712 1044 120.303 1303.96 456.556
1844 0 78.1873 13.4932 1055 123.203 1303.76 454.059
1845 0 82.231 13.535 1113 120.653 1304.03 452.009
1846 0 85.2269 13.5755 1157 120.136 1304.24 452.411
1847 0 89.4564 13.5597 1213 127.398 1303.39 451.157
1848 0 89.3259 13.6691 1221 118.541 1304.35 449.588
1849 1 47.2399 11.431 540 119.502 1303.84 470.828
1850 0 49.211 11.9485 588 113.587 1303.46 470.379
1851 0 51.0801 12.6468 646 111.633 1304.05 470.362
1852 0 51.1372 12.5349 641 121.103 1303.86 468.418
1853 0 53.1595 12.566 668 118.91 1304.05 468.808
1854 0 55.2007 12.373 683 119.507 1302.93 468.204
1855 0 56.2555 12.7276 716 118.972 1303.41 467.644
1856 0 58.1471 12.7779 743 122.182 1302.7 466.585
1857 0 60.2716 12.51 754 121.671 1303 465.18
1858 0 63.2395 12.4448 787 127.334 1302.58 464.072
1859 0 64.1191 12.3988 795 121.891 1302.76 462.908
1860 0 66.2154 12.3234 816 125.532 1303.31 462.391
1861 0 68.2769 12.4347 849 126.463 1302.94 460.986
1862 0 70.6751 12.8051 905 123.377 1303.29 459.349
1863 0 72.3379 12.9946 940 122.722 1304.6 457.801
1864 0 75.4778 13.0237 983 130.026 1303.32 456.253
1865 0 79.4968 12.881 1024 124.517 1303.22 454.207
1866 0 80.4254 12.8691 1035 128.042 1303.11 452.025
1867 0 85.4582 12.6261 1079 128.485 1303.65 450.435
1868 1 41.1871 10.9015 449 121.788 1304.33 472.294
1869 0 43.2468 11.3303 490 119.635 1303.89 471.367
1870 0 43.0552 11.8685 511 124.853 1304.16 472.018
1871 0 45.1104 11.5716 522 128.188 1304.2 471.454
1872 0 47.1091 11.7812 555 125.591 1304.8 470.323
1873 0 49.1184 11.8489 582 122.665 1304.2 468.72
1874 0 50.0994 12.0959 606 122.569 1304.56 469.546
1875 0 51.0479 12.3414 630 123.33 1304.05 467.354
1876 0 54.0981 12.5698 680 119.825 1304.06 466.341
1877 0 56.1158 11.9218 669 119.169 1304.6 466.535
1878 0 56.1589 12.3222 692 120.038 1304.44 465.302
1879 0 59.1839 12.2499 725 123.799 1304.77 463.832
1880 0 61.1734 12.1131 741 119.445 1305.36 463.155
1881 0 64.2706 12.4474 800 120.418 1305.5 462.1
1882 0 65.1527 12.2482 798 115.038 1306.63 460.124
1883 0 68.1542 12.2223 833 122.005 1306.42 459.463
1884 0 69.196 12.5152 866 127.488 1306.01 457.92
1885 0 72.142 12.4477 898 127.834 1306.11 456.726
1886 0 75.2444 12.1604 915 122.673 1306.69 455.209
1887 0 76.1938 12.4288 947 119.624 1306.98 455.172
1888 0 79.2274 12.6093 999 117.21 1307.21 453.03
1889 0 82.3639 12.3112 1014 119.695 1307.55 451.816
1890 0 83.4046 12.925 1078 118.792 1307.56 449.973
1891 0 87.4864 12.4362 1088 116.77 1307.48 448.325
1892 0 88.3801 12.2313 1081 117.701 1308.03 447.436
1893 0 91.6227 12.4314 1139 117.938 1308.29 445.494
1894 0 94.4421 12.505 1181 129.341 1308.33 445.629
1895 0 96.2618 12.9646 1248 129.998 1308.38 442.205
1896 1 53.1884 11.3747 605 124.598 1308.09 463.45
1897 0 55.2852 12.1551 672 120.418 1308.42 464.896
1898 0 56.0466 13.2211 741 124.779 1308.94 463.159
1899 0 59.0551 12.2597 724 126.243 1308.6 462.739
1900 0 60.1293 12.1738 732 129.495 1308.29 461.668
1901 0 64.0858 12.1244 777 117.851 1308.51 460.609
1902 0 65.1267 12.6216 822 116.14 1308.64 459.764
1903 0 66.0946 12.709 840 121.612 1308.08 458.187
1904 0 70.1991 12.3221 865 121.966 1308.26 455.699
1905 0 70.0916 13.0258 913 121.03 1308.1 454.15
1906 0 74.087 12.5798 932 111.51 1308.09 453.763
1907 0 77.0747 12.4035 956 122.456 1308.12 453.02
1908 0 79.0763 12.8736 1018 126.242 1307.97 452.956
1909 0 81.024 13.0825 1060 123.174 1307.64 451.782
1910 0 84.1104 13.0305 1096 130.38 1307.63 450.635
1911 0 87.1174 13.0054 1133 126.013 1308.01 450.063
1912 0 89.1765 13.0976 1168 131.44 1307.95 448.338
1913 0 91.246 13.1732 1202 126.038 1307.6 445.636
1914 0 93.6497 12.7496 1194 126.393 1307.16 443.753
1915 1 51.2704 11.8197 606 134.168 1305.84 464.822
1916 0 54.0317 12.4742 674 140.908 1307.12 466.211
1917 0 55.069 12.4752 687 133.592 1306.55 466.246
1918 0 56.1142 12.3498 693 142.44 1307.32 465.216
1919 0 58.1354 12.4709 725 136.977 1307.23 465.041
1920 0 60.0869 12.5818 756 139.212 1306.93 464.341
1921 0 60.1514 13.0504 785 135.083 1306.57 462.625
1922 0 63.1273 13.1322 829 140.458 1306.84 461.59
1923 0 64.0727 12.9852 832 136.806 1305.76 461.34
1924 0 66.175 12.7843 846 134.138 1306.17 460.474
1925 0 67.2565 13.3965 901 132.008 1305.24 460.568
1926 0 69.1876 13.2394 916 124.384 1305.29 459.474
1927 0 70.1166 13.1923 925 134.32 1304.92 458.984
1928 0 72.1454 12.8352 926 127.96 1305.14 458.978
1929 0 75.1319 13.2301 994 126.84 1305.86 456.822
1930 0 79.0857 13.0871 1035 125.122 1304.59 455.2
1931 0 79.0789 13.7458 1087 129.193 1305.17 454.556
1932 0 83.0632 13.4355 1116 127.039 1305.09 453.961
1933 0 87.1773 13.2489 1155 129.171 1306.45 449.605
1934 0 88.1912 13.6408 1203 130.895 1306.05 448.323
1935 0 93.2057 13.1108 1222 129.615 1306.1 447.885
1936 0 94.0436 13.5044 1270 124.006 1305.55 447.457
1937 0 98.1576 14.2118 1395 130.248 1306.2 443.38
1938 1 51.212 12.5557 643 131.414 1304.84 467.639
1939 0 54.0445 12.8043 692 138.668 1304.64 468.233
1940 0 56.0473 12.9355 725 132.714 1304.62 466.52
1941 0 57.0881 13.1376 750 135.427 1305.33 466.495
1942 0 59.045 13.6167 804 137.792 1305.14 465.265
1943 0 61.0216 13.2904 811 139.301 1305.09 464.634
1944 0 62.0626 13.3736 830 138.492 1305.41 464.881
1945 0 65.0408 14.3756 935 129.963 1305.71 461.301
1946 0 65.1018 13.5634 883 126.911 1305.4 461.294
1947 0 68.0404 13.7271 934 129.154 1304.48 461.12
1948 0 70.0307 13.7368 962 130.009 1304.28 460.582
1949 0 70.1224 13.9898 981 130.796 1304.17 459.111
1950 0 74.0921 13.3752 991 126.486 1304.68 457.565
1951 0 77.1188 13.6283 1051 124.495 1304.39 455.826
1952 0 78.1725 13.7005 1071 125.656 1304.67 455.67
1953 0 81.1394 13.8157 1121 124.666 1304.62 453.322
1954 0 83.1372 13.7123 1140 124.745 1304.06 452.039
1955 0 86.0962 14.054 1210 121.887 1304.13 450.925
1956 0 89.1439 13.5287 1206 121.679 1304.82 449.74
1957 0 91.1157 14.3883 1311 126.962 1304.06 447.976
1958 0 94.1403 13.9048 1309 124.152 1304.74 447.055
1959 0 98.2722 13.8391 1360 124.903 1304.08 444.954
1960 0 102.483 13.6607 1400 122.931 1303.97 442.946
1961 1 51.4712 12.5507 646 126.161 1304.45 467.698
1962 0 53.1188 12.8203 681 120.786 1304.52 467.436
1963 0 53.0751 13.3396 708 125.739 1304.36 467.972
1964 0 56.0618 13.0927 734 124.869 1304.37 467.161
1965 0 58.2703 13.1113 764 128.84 1303.7 465.541
1966 0 60.2068 13.2045 795 124.537 1303.35 463.214
1967 0 62.1537 13.3379 829 123.333 1304.99 461.616
1968 0 64.263 13.8493 890 122.083 1304.19 460.201
1969 0 67.1089 13.4408 902 113.786 1305.1 458.007
1970 0 69.2798 13.3517 925 120.019 1304.99 456.551
1971 0 72.4722 13.4396 974 133.69 1305.14 454.973
1972 0 74.2891 13.7167 1019 134.139 1305.07 454.402
1973 0 76.225 13.6438 1040 139.06 1305.02 453.151
1974 0 79.5695 13.6484 1086 131.72 1305.02 451.79
1975 0 81.2009 13.3989 1088 130.512 1304.61 452.108
1976 0 82.3174 13.6666 1125 127.457 1304.89 450.745
1977 0 86.4486 13.2449 1145 129.169 1305.34 447.862
1978 0 90.4804 13.4836 1220 124.324 1305.6 446.281
1979 0 93.4928 13.477 1260 126.317 1305.69 446.164
1980 0 95.4554 14.7084 1404 123.755 1306.33 441.527
1981 0 98.6083 13.2545 1307 131.41 1305.69 441.842
1982 1 53.3184 12.0034 640 130.783 1305.99 464.169
1983 0 55.1758 12.6686 699 128.605 1305.25 465.997
1984 0 56.2629 12.3705 696 125.511 1306.29 465.096
1985 0 59.1939 12.704 752 134.029 1306.89 464.259
1986 0 61.1875 12.7967 783 133.531 1306.44 461.682
1987 0 64.1677 12.7634 819 136.763 1306.43 460.166
1988 0 66.084 13.0137 860 130.97 1306.65 458.476
1989 0 68.1877 12.7589 870 132.207 1306.91 459.041
1990 0 70.1025 12.7385 893 130.021 1306.8 458.383
1991 0 72.2725 13.3522 965 133.139 1307.07 456.221
1992 0 75.3791 13.0673 985 128.253 1307.19 456.219
1993 0 76.2596 13.2705 1012 129.45 1307.21 455.318
1994 0 80.155 13.0871 1049 133.688 1307.28 454.403
1995 0 82.3254 13.228 1089 133.063 1307.73 452.794
1996 0 84.4629 13.2839 1122 136.611 1307.67 451.262
1997 0 88.4964 12.9158 1143 125.302 1307.38 450.033
1998 0 90.3127 12.7446 1151 138.102 1307.78 449.713
1999 1 49.232 12.5934 620 137.884 1307.87 467.969
2000 0 51.1094 12.7178 650 136.778 1308.33 467.728
2001 0 54.0507 12.3773 669 137.483 1308.28 466.079
2002 0 54.1662 12.7016 688 136.384 1308.04 465.106
2003 0 56.1134 12.6173 708 130.058 1308.07 465.116
2004 0 58.2315 12.4503 725 130.582 1308 464.058
2005 0 60.1348 12.1228 729 137.587 1307.25 463.285
2006 0 62.1489 12.631 785 135.818 1307.26 461.268
2007 0 63.2133 12.7347 805 141.534 1306.97 459.325
2008 0 65.4487 12.8039 838 136.623 1307.29 457.681
2009 0 67.2784 13.2138 889 137.037 1306.91 456.97
2010 0 69.4023 13.3281 925 134.738 1306.7 455.79
2011 0 71.4286 13.09 935 139.063 1306.58 454.706
2012 0 72.5537 12.9973 943 138.988 1306.98 455.818
2013 0 76.4955 12.9419 990 132.725 1307.46 455.112
2014 0 76.381 13.197 1008 146.948 1306.56 453.075
2015 0 82.7011 12.4424 1029 144.76 1306.63 452.465
2016 0 83.6226 12.9032 1079 142.694 1306.3 447.837
2017 0 85.6025 12.9085 1105 140.269 1306.6 446.225
2018 1 46.2935 11.4703 531 144.908 1305.98 466.341
2019 0 47.4011 11.5187 546 146.608 1305.95 466.899
2020 0 49.221 11.3366 558 145.355 1306.65 469.03
2021 0 49.2284 12.1271 597 139.876 1306.65 467.559
2022 0 52.1288 11.8936 620 142.245 1307.14 466.824
2023 0 54.146 11.7829 638 136.926 1307.4 466.845
2024 0 56.2199 11.8463 666 135.68 1306.74 466.213
2025 0 56.1418 12.2903 690 138.71 1306.29 464.851
2026 0 59.0753 12.4925 738 134.392 1306.05 464.901
2027 0 60.1088 11.9616 719 142.883 1306.76 463.893
2028 0 60.1239 12.4077 746 135.84 1306.7 462.916
2029 0 61.076 12.8037 782 135.818 1306.39 461.473
2030 0 65.167 12.3989 808 132.968 1305.39 461.236
2031 0 68.1277 12.4325 847 29.1842 1306.22 459.895
2032 0 70.075 12.4723 874 149.656 1305.57 459.499
2033 0 71.1866 12.8395 914 151.872 1305.04 457.277
2034 0 75.1613 12.6395 950 150.966 1305.31 456.606
2035 0 76.2244 13.106 999 154.072 1305.16 454.764
2036 0 79.097 12.5163 990 150.084 1304.76 454.212
2037 0 82.1986 12.7009 1044 146.416 1304.5 452.962
2038 0 85.2031 12.3939 1056 143.973 1304.35 451.752
2039 0 88.3492 12.4845 1103 143.033 1304.86 450.736
2040 0 89.1438 12.6537 1128 145.341 1305.1 448.525
2041 0 94.1925 12.5912 1186 142.644 1305.04 447.567
2042 0 97.2606 12.667 1232 134.871 1304.49 446.155
2043 1 51.1471 11.4962 588 136.925 1303.53 468.507
2044 0 51.1375 11.9677 612 135.5 1304.27 468.003
2045 0 55.1381 11.843 653 138.351 1304.87 466.916
2046 0 56.1002 12.2994 690 139.088 1304.64 465.419
2047 0 57.1248 12.2189 698 144.393 1303.6 464.539
2048 0 58.1347 12.1786 708 136.483 1303.88 464.304
2049 0 61.1967 12.0268 736 141.803 1303.6 463.254
2050 0 62.1405 12.5039 777 129.008 1303.71 463.063
2051 0 63.0951 12.4732 787 136.273 1304.4 461.56
2052 0 67.1788 12.0574 810 133.01 1304.48 461.358
2053 0 70.1812 12.14 852 132.962 1304.27 459.815
2054 0 71.1455 12.3269 877 126.155 1304.49 457.71
2055 0 73.1794 12.6265 924 126.532 1304.45 457.813
2056 0 75.257 12.8094 964 125.204 1304.45 456.021
2057 0 79.3377 12.743 1011 129.639 1304.13 454.811
2058 0 81.3885 12.299 1001 127.146 1304.46 454.599
2059 0 83.4151 12.5397 1046 123.054 1304.26 453.146
2060 0 85.2804 12.371 1055 125.427 1304.04 451.446
2061 0 87.1791 12.4571 1086 122.511 1303.98 450.413
2062 1 48.0342 11.2004 538 120.926 1305.17 471.02
2063 0 47.0662 11.4945 541 114.604 1304.59 470.17
2064 0 49.1776 11.672 574 113.336 1304.61 469.556
2065 0 50.205 12.0904 607 113.386 1303.95 469.471
2066 0 52.2778 11.7449 614 118.295 1303.14 468.109
2067 0 51.1761 12.0369 616 123.172 1303.02 468.226
2068 0 53.0723 12.1721 646 122.543 1303.38 467.285
2069 0 55.1905 12.176 672 119.515 1304.04 466.049
2070 0 58.1878 12.0472 701 123.412 1303.24 465.101
2071 0 57.1508 12.0558 689 125.498 1303.13 464.321
2072 0 58.1772 12.8401 747 121.315 1304.76 464.001
2073 0 61.2031 12.3196 754 123.729 1304.24 462.824
2074 0 62.1562 12.8708 800 118.135 1304.89 459.816
2075 0 65.0688 12.5252 815 123.336 1305.38 459.629
2076 0 68.0976 12.5702 856 119.79 1305.62 458.555
2077 0 68.0493 13.0788 890 116.083 1305.58 458.144
2078 0 72.064 12.5305 903 118.872 1305.78 454.502
2079 0 73.1141 12.7882 935 116.636 1305.95 453.995
2080 0 75.0604 13.0562 980 113.33 1306.44 452.799
2081 0 77.1636 12.9984 1003 114.82 1306.62 451.334
2082 0 80.1564 13.1493 1054 111.496 1306.91 450.514
2083 1 41.0989 11.5331 474 113.899 1306.91 469.314
2084 0 42.0665 11.8384 498 107.588 1306.02 469.247
2085 0 45.0116 12.108 545 111.628 1306.29 468.406
2086 0 44.1702 12.4066 548 113.48 1306.82 468.026
2087 0 47.1244 12.4139 585 115.605 1306.34 468.978
2088 0 49.1873 12.8692 633 108.833 1307.03 467.512
2089 0 50.0763 12.7206 637 117.735 1307.29 467.312
2090 0 51.314 12.784 656 110.143 1307.18 466.521
2091 0 54.097 12.3852 670 117.319 1307.28 463.018
2092 0 55.1253 12.8797 710 68.3451 1307.97 461.946
2093 0 55.1544 12.873 710 120.715 1308.09 460.91
2094 0 57.1375 13.2487 757 117.291 1307.54 460.103
2095 0 58.2352 13.394 780 117.808 1307.92 459.549
2096 0 60.1646 13.2138 795 121.117 1307.41 458.367
2097 0 62.2107 13.3257 829 127.725 1307.97 457.925
2098 0 65.2043 13.3273 869 128.802 1308.41 456.35
2099 0 65.3409 13.3301 871 128.029 1308.59 455.951
2100 0 69.2003 13.5838 940 127.029 1308.88 454.994
2101 0 70.134 13.5027 947 130.21 1308.75 453.049
2102 0 72.3086 13.4147 970 135.327 1309.07 452.548
2103 0 73.2868 13.7542 1008 139.06 1309.1 450.801
2104 0 76.2678 13.6755 1043 128.356 1309.09 450.376
2105 0 77.2591 14.0695 1087 131.745 1309.11 449.301
2106 0 80.2044 13.877 1113 128.509 1308.97 447.153
2107 0 84.4219 14.0011 1182 125.135 1309.04 444.736
2108 0 86.6158 13.7504 1191 136.128 1309.24 442.917
2109 0 91.5425 13.7095 1255 135.13 1308.82 441.211
2110 0 93.3088 13.8465 1292 135.188 1308.72 439.266
2111 0 96.3914 13.6008 1311 134.61 1308.56 439.134
2112 0 100.526 13.4592 1353 139.042 1309.03 438.346
2113 1 54.2969 13.0394 708 146.09 1308.65 461.004
2114 0 56.2053 13.4507 756 142.274 1309.46 461.122
2115 0 56.3128 13.2829 748 145.398 1309.28 460.103
2116 0 60.2944 13.4672 812 143.427 1310.39 456.828
2117 0 60.4369 13.8823 839 142.956 1309.76 456.175
2118 0 63.1759 13.6445 862 141.376 1309.52 454.602
2119 0 66.3944 13.6909 909 141.44 1309.14 453.089
2120 0 67.2834 13.7627 926 134.185 1308.55 452.695
2121 0 70.2194 13.2869 933 141.499 1308.89 451.92
2122 0 70.4922 13.5334 954 139.157 1308.99 451.601
2123 0 74.366 13.4873 1003 145.908 1308.56 449.593
2124 0 75.3604 14.0525 1059 142.274 1309.18 448.327
2125 0 78.4504 13.5627 1064 140.524 1308.64 447.447
2126 0 80.544 13.9179 1121 141.806 1308.24 446.081
2127 0 84.3601 13.8454 1168 142.501 1308.43 444.408
2128 0 87.3904 13.9718 1221 135.277 1308.44 442.717
2129 0 91.437 13.4956 1234 136.229 1308.52 441.699
2130 0 95.5317 13.5766 1297 132.626 1309.07 439.521
2131 0 96.4069 13.5675 1308 136.576 1309.02 438.835
2132 1 49.3831 11.5829 572 136.92 1308.44 462.35
2133 0 52.0589 12.2938 640 139.078 1309.07 462.931
2134 0 55.1479 12.2579 676 133.717 1308.9 461.959
2135 0 56.1583 12.4113 697 132.707 1308.65 463.142
2136 0 57.134 12.4969 714 133.77 1308.87 460.524
2137 0 59.1295 12.5826 744 137.909 1307.9 460.151
2138 0 59.0353 13.06 771 140.464 1307.86 459.021
2139 0 62.1202 12.8622 799 135.663 1307.98 456.354
2140 0 65.1114 12.901 840 133.732 1308.23 455.71
2141 0 66.1998 13.0212 862 135.731 1307.48 453.744
2142 0 68.3482 13.0947 895 131.094 1307.12 455.343
2143 0 70.3978 12.8697 906 130.199 1307.48 454.278
2144 0 71.2829 13.243 944 135.469 1307.44 454.559
2145 0 74.2339 12.959 962 135.601 1308.14 452.776
2146 0 76.2556 13.1138 1000 126.77 1308.18 451.896
2147 0 77.1663 13.4126 1035 131.609 1308.68 451.39
2148 0 81.1679 13.3181 1081 133.278 1308.22 450.244
2149 0 82.184 13.3724 1099 138.712 1308.12 448.639
2150 0 88.1712 13.2356 1167 122.258 1307.45 447.755
2151 0 90.1935 13.1606 1187 114.629 1306.88 446.516
2152 0 92.2327 13.39 1235 116.462 1306.82 445.341
2153 1 50.0825 11.7007 586 133.408 1306.24 465.916
2154 0 53.1454 11.7226 623 127.78 1305.66 465.311
2155 0 54.1235 12.2313 662 131.26 1305.7 464.219
2156 0 56.0742 12.3943 695 123.968 1306.85 464.119
2157 0 57.0245 12.6788 723 122.65 1306.39 463.347
2158 0 58.0999 12.9949 755 118.999 1306.65 462.438
2159 0 60.0712 13.3841 804 124.371 1306.56 461.175
2160 0 63.1295 13.0367 823 120.988 1307.29 460.205
2161 0 65.0443 12.7605 830 120.699 1306.32 460.587
2162 0 66.1399 13.0179 861 123.139 1305.76 459.402
2163 0 68.0986 13.2014 899 118.399 1304.94 457.994
2164 0 71.195 12.7256 906 124.223 1305.48 457.972
2165 0 70.2256 13.357 938 119.58 1305.33 457.48
2166 0 74.1726 13.1315 974 117.882 1305.25 456.86
2167 0 77.1787 13.2161 1020 118.423 1304.96 454.424
2168 0 80.285 13.0784 1050 122.39 1305.3 453.975
2169 0 83.2683 12.9461 1078 132.865 1305.28 451.246
2170 0 85.1752 12.9615 1104 133.841 1305.12 450.709
2171 0 87.1946 13.0627 1139 133.87 1304.93 449.668
2172 1 47.0503 10.967 516 124.626 1305.57 471.087
2173 0 49.0705 11.942 586 120.154 1304.47 469.28
2174 0 50.0671 12.0838 605 127.018 1304.02 468.65
2175 0 51.1733 12.018 615 132.041 1304.55 467.189
2176 0 52.1947 11.9552 624 127.048 1304.47 467.684
2177 0 54.2467 12.351 670 125.373 1304.6 466.61
2178 0 54.1135 12.8434 695 11.259 1304.61 465.938
2179 0 57.1687 12.5068 715 112.904 1305.44 464.253
2180 0 58.1578 12.0534 701 106.024 1304.23 464.264
2181 0 60.1226 12.4246 747 107.185 1304.26 464.359
2182 0 64.1526 12.0962 776 97.7178 1303.95 462.268
2183 0 65.1729 12.674 826 111.502 1304.46 461.025
2184 0 68.1556 12.134 827 114.49 1304.36 460.216
2185 0 68.1514 12.5603 856 113.923 1305.21 459.364
2186 0 69.1055 12.3869 856 109.199 1305.32 458.65
2187 0 72.2145 12.4075 896 108.451 1305.57 457.513
2188 0 77.1995 12.0208 928 112.578 1305.22 455.913
2189 0 77.122 12.5515 968 111.316 1305.29 455.061
2190 0 81.0547 12.3744 1003 108.444 1304.9 453.732
2191 0 82.1613 12.4755 1025 108.167 1305.43 451.713
2192 0 85.1635 12.5523 1069 104.617 1304.45 450.144
2193 0 90.1811 11.9316 1076 113.099 1304.81 448.58
2194 1 50.0547 11.3676 569 108 1305.5 467.708
2195 0 52.1017 11.823 616 112.753 1305.55 465.901
2196 0 55.2577 11.7993 652 112.328 1303.97 464.902
2197 0 57.1883 11.6108 664 104.14 1304.21 464.145
2198 0 58.1306 11.8354 688 98.3954 1304.12 463.67
2199 0 61.0586 12.3815 756 103.136 1305.87 461.549
2200 0 62.1721 12.1437 755 112.524 1305.4 461.819
2201 0 63.3302 12.2217 774 115.519 1304.09 461.552
2202 0 64.1283 12.2723 787 109.999 1305.9 460.149
2203 0 66.1429 12.5184 828 111.925 1305.61 458.97
2204 0 71.122 12.584 895 106.498 1305.59 456.949
2205 0 73.1244 12.7044 929 104.957 1305.81 455.928
2206 0 75.2061 12.6187 949 104.959 1305.57 454.557
2207 0 78.2737 12.7373 997 101.884 1306.12 453.197
2208 0 80.1386 12.7155 1019 102.662 1305.63 452.042
2209 0 82.1225 12.9076 1060 102.625 1306.27 450.253
2210 0 82.2071 12.9308 1063 109.512 1307.48 450.215
2211 0 86.1414 12.7929 1102 109.014 1307.67 448.293
2212 0 89.3461 12.9832 1160 103.924 1307.77 446.6
2213 0 91.2397 13.1741 1202 101.984 1308 445.344
2214 0 95.5599 13.2692 1268 99.7524 1308.58 442.771
2215 0 97.2834 13.2499 1289 107.649 1308.56 441.736
2216 0 101.234 13.1181 1328 108.966 1307.85 441.214
2217 1 56.0526 11.4178 640 109.016 1308.15 463.944
2218 0 60.0869 12.2656 737 107.467 1307.47 462.387
2219 0 61.0279 12.0764 737 108.537 1308 461.737
2220 0 62.0309 12.6389 784 98.8163 1308.1 459.923
2221 0 62.0389 12.605 782 105.976 1308.3 459.042
2222 0 65.0837 12.9372 842 107.506 1308.3 457.913
2223 0 67.1349 13.1228 881 105.056 1308.55 457.005
2224 0 69.172 12.8954 892 103.305 1308.53 456.387
2225 0 71.1217 13.1465 935 102.622 1308.43 456.34
2226 0 73.0746 13.2741 970 103.642 1309.09 455.082
2227 0 76.092 13.1814 1003 97.4058 1309.13 454.85
2228 0 78.0549 13.2983 1038 103.381 1309.22 452.83
2229 0 78.0926 13.2535 1035 104.71 1308.95 451.619
2230 0 82.0757 13.3779 1098 107.646 1309.1 450.056
2231 0 84.0635 13.6326 1146 99.308 1308.86 448.809
2232 0 88.0883 13.6681 1204 107.176 1308.96 447.216
2233 0 91.0509 13.6297 1241 100.583 1308.31 446.336
2234 0 92.0716 13.5655 1249 106.79 1308.38 444.621
2235 0 95.0771 13.5679 1290 107.578 1308.77 443.901
2236 0 100.166 13.6673 1369 105.68 1309.14 442.204
2237 0 103.132 13.6718 1410 104.318 1308.17 441.657
2238 0 106.465 13.5443 1442 107.551 1307.84 439.549
2239 0 109.225 13.6965 1496 103.251 1308.01 436.918
2240 1 60.0622 11.9376 717 103.914 1308.8 462.199
2241 0 62.2551 12.9628 807 109.458 1307.93 460.374
2242 0 63.0429 13.356 842 107.567 1308.93 459.888
2243 0 65.0586 13.0959 852 106.492 1308.84 459.376
2244 0 68.0603 13.062 889 108.141 1309.44 457.623
2245 0 68.0406 13.3009 905 104.516 1309.03 455.937
2246 0 71.0233 13.7138 974 101.418 1309.25 454.125
2247 0 75.0511 13.191 990 101.239 1309.42 452.135
2248 0 76.3372 13.6369 1041 102.302 1309.49 451.69
2249 0 80.1489 13.45 1078 96.9518 1308.56 450.271
2250 0 81.0771 13.592 1102 93.5826 1308.31 449.426
2251 0 83.1475 13.8188 1149 93.5796 1307.57 448.331
2252 0 87.1554 13.5276 1179 94.3308 1308.72 447.16
2253 0 89.299 13.9195 1243 92.86 1309.11 446.266
2254 0 91.0886 13.6021 1239 93.9952 1308.38 445.312
2255 0 93.2084 13.6468 1272 94.662 1308.1 443.818
2256 0 99.466 13.4116 1334 91.6012 1308.31 441.455
2257 0 103.358 13.9515 1442 94.0666 1307.96 438.85
2258 0 105.459 13.7588 1451 96.3928 1307.96 437.219
2259 0 108.289 13.6949 1483 94.704 1306.9 437.144
2260 1 59.0808 12.3729 731 94.7798 1307.15 461.25
2261 0 61.1111 12.4691 762 95.2139 1307.38 459.941
2262 0 63.0413 13.3722 843 86.9798 1307.27 459.827
2263 0 64.1449 13.1265 842 90.1461 1306.35 459.956
2264 0 68.1742 13.0548 890 86.8865 1306.43 458.691
2265 0 68.1784 13.2887 906 90.808 1307 457.436
2266 0 72.0985 13.3151 960 89.7292 1306.39 457.102
2267 0 74.1016 13.3735 991 86.6256 1306.45 455.724
2268 0 76.1616 13.0381 993 94.6918 1307.62 454.222
2269 0 79.2209 13.2667 1051 93.5423 1307.33 452.754
2270 0 82.2601 13.6397 1122 91.0036 1306.47 451.409
2271 0 85.197 13.4394 1145 93.5424 1306.02 449.999
2272 0 87.3407 13.6363 1191 86.429 1306.69 448.037
2273 0 90.2354 13.5756 1225 88.7224 1306.16 447.237
2274 0 93.3692 13.6555 1275 86.458 1306.47 446.398
2275 0 96.2752 13.5341 1303 86.0046 1305.9 445.154
2276 0 99.2696 13.831 1373 82.4268 1305.4 442.635
2277 0 105.223 13.5996 1431 85.5835 1305.79 441.096
2278 0 108.263 13.227 1432 86.5775 1305.7 438.392
2279 0 112.211 13.7687 1545 81.8343 1305.76 437.866
2280 0 114.237 13.612 1555 83.8283 1305.16 436.26
2281 0 118.191 13.3766 1581 86.9184 1306.12 435.264
2282 1 65.1633 12.5224 816 83.6348 1306.14 462.105
2283 0 67.2983 12.9721 873 82.8305 1305.85 460.266
2284 0 69.3692 13.0606 906 80.5949 1305.49 458.087
2285 0 71.3834 12.8881 920 85.0674 1305.5 458.087
2286 0 74.3269 13.333 991 82.7952 1305.92 454.019
2287 0 76.3256 13.2328 1010 84.5356 1306.2 453.392
2288 0 78.554 13.4175 1054 82.445 1306.18 451.692
2289 0 82.44 13.4522 1109 80.7421 1305.87 451.742
2290 0 84.532 13.2967 1124 81.4279 1305.86 451.015
2291 0 87.4267 13.0166 1138 81.7381 1306.36 447.839
2292 0 90.496 13.437 1216 77.6653 1306.16 446.641
2293 0 93.4693 13.5981 1271 81.919 1305.4 445.159
2294 0 96.7235 13.2439 1281 83.4551 1306.07 441.774
2295 0 99.5554 13.5804 1352 84.4512 1305.85 440.613
2296 0 102.493 13.3278 1366 84.0007 1305.89 439
2297 0 106.435 14.0743 1498 79.6449 1305.61 435.226
2298 1 55.3602 12.6806 702 86.896 1306.33 458.979
2299 0 58.1124 12.7339 740 85.7649 1306.68 460.154
2300 0 62.2439 13.0776 814 80.7936 1306.53 461.488
2301 0 63.3638 12.9096 818 85.1712 1306.45 458.713
2302 0 62.2654 13.057 813 83.4034 1306.25 460.074
2303 0 66.3459 12.9774 861 85.9257 1306.67 458.447
2304 0 69.4143 12.9224 897 88.4091 1307.03 455.98
2305 0 70.5152 13.3872 944 89.5413 1306.98 451.941
2306 0 69.5375 13.4028 932 88.1749 1307.11 451.583
2307 0 75.2968 12.8558 968 89.1746 1306.7 451.189
2308 0 75.5892 13.0177 984 87.19 1306.62 449.325
2309 0 79.5691 13.4851 1073 82.7288 1306.19 448.21
2310 0 82.4426 13.0879 1079 88.5079 1306.49 446.344
2311 0 82.7727 13.2532 1097 90 1306.5 444.469
2312 0 86.4352 13.3857 1157 87.2394 1306.62 442.473
2313 0 88.4684 13.0216 1152 91.3941 1306.8 441.701
2314 0 91.6576 13.3541 1224 92.482 1307.22 440.953
2315 0 93.3812 13.3646 1248 96.9303 1307.19 439.095
2316 0 95.5883 13.3489 1276 95.989 1307.81 438.205
2317 0 100.489 13.6233 1369 94.0095 1307.57 437.419
2318 0 101.565 13.6858 1390 96.4245 1307.62 435.533
2319 0 105.419 13.4415 1417 98.4432 1307.85 434.229
2320 0 108.41 13.7164 1487 92.9435 1307.52 431.989
2321 1 57.4431 11.8726 682 99.4927 1308.24 457.15
2322 0 59.3158 12.1216 719 91.6982 1308.33 455.527
2323 0 63.266 12.9137 817 99.7503 1308.72 455.616
2324 0 63.266 12.9137 817 163.764 1308.72 455.616
2325 0 66.2395 13.4965 894 100.082 1309.76 454.384
2326 0 71.3317 13.3321 951 94.8044 1309.54 452.799
2327 0 71.2493 13.0949 933 103.518 1310.32 452.433
2328 0 74.5857 13.1124 978 99 1309.64 451.087
2329 0 75.3908 13.0785 986 97.6521 1309.2 449.782
2330 0 78.372 13.3339 1045 97.1187 1309.78 448.993
2331 0 81.2906 13.5809 1104 99.1187 1310.01 447.547
2332 0 84.4417 12.8965 1089 99.3572 1310.62 447.203
2333 0 84.3924 13.4372 1134 95.5635 1310.31 445.75
2334 0 88.289 13.4558 1188 89.9638 1310.62 443.206
2335 0 91.5036 13.3984 1226 92.5734 1310.36 442.425
2336 0 95.6813 13.0747 1251 95.8585 1310.02 441.094
2337 0 97.7053 13.3258 1302 96.3725 1310.67 439.846
2338 0 100.553 12.9583 1303 98.8473 1310.48 438.704
2339 0 103.362 13.2833 1373 100.277 1310.03 435.749
2340 1 56.4279 11.5546 652 99.1074 1309.93 459.566
2341 0 57.2005 12.0453 689 97.4819 1309.37 459.431
2342 0 60.2295 12.386 746 98.6354 1309.34 458.576
2343 0 62.1327 12.6664 787 95.5273 1310.09 457.058
2344 0 63.0758 12.7624 805 99.3081 1310.07 455.815
2345 0 67.0566 12.1837 817 97.4186 1310.11 455.218
2346 0 69.1484 12.7407 881 95.7764 1310.12 453.381
2347 0 71.0976 12.9681 922 96.2592 1310.42 453.003
2348 0 71.1646 12.984 924 100.854 1309.71 453.248
2349 0 75.1077 13.2077 992 100.34 1309.7 452.144
2350 0 74.3172 13.3751 994 99.0644 1310 452.042
2351 0 79.2265 12.7735 1012 101.024 1309.79 450.486
2352 0 82.1866 12.9583 1065 101.402 1310.01 448.896
2353 0 84.0949 12.7594 1073 102.364 1310.04 447.171
2354 0 88.3398 12.9047 1140 101.891 1309.66 446.746
2355 0 89.2275 13.1013 1169 100.758 1309.01 444.352
2356 0 93.3451 12.6948 1185 96.4464 1309.23 442.381
2357 0 96.3759 12.9182 1245 97.1293 1309.09 441.083
2358 1 54.1895 11.9027 645 90.9473 1309.06 462.572
2359 0 55.1547 12.4377 686 99.9942 1309.71 462.169
2360 0 56.1961 12.6165 709 98.9972 1309.22 463.265
2361 0 59.2882 12.532 743 99.6743 1309.54 460.482
2362 0 60.155 12.6839 763 93.3866 1308.68 460.176
2363 0 63.2483 12.2849 777 95.1287 1308.18 459.284
2364 0 65.2052 12.5143 816 98.4179 1308.7 458.146
2365 0 65.2052 12.5143 816 164.838 1309.7 458.146
2366 0 67.0985 13.115 880 91.0557 1308.28 455.88
2367 0 70.1571 12.5575 881 99.0772 1308.79 453.41
2368 0 73.331 12.5595 921 96.8512 1308.37 454.132
2369 0 73.36 12.9226 948 96.8112 1308.24 453.937
2370 0 78.1739 12.8943 1008 94.7202 1308.7 449.592
2371 0 79.1491 13.3419 1056 91.0644 1308.2 449.579
2372 0 83.4442 12.8948 1076 86.0558 1308.3 448.283
2373 0 85.4165 13.1942 1127 91.827 1308.07 447.126
2374 0 89.4041 12.8741 1151 89.4944 1307.78 446.19
2375 0 91.2258 13.209 1205 90.9087 1307.25 445.835
2376 0 94.2451 13.3694 1260 86.6619 1307.21 444.402
2377 0 97.1846 13.3252 1295 87.3251 1307.04 442.324
2378 0 101.316 13.2753 1345 90.3465 1306.92 440.662
2379 0 104.232 13.2877 1385 88.0975 1306.95 439.626
2380 1 57.0962 11.8922 679 85.8085 1307.49 461.567
2381 0 60.2952 12.9529 781 84.7951 1307.13 462.099
2382 0 62.311 12.6302 787 82.1487 1307.75 462.013
2383 0 65.3505 12.7773 835 84.1437 1307.21 460.387
2384 0 67.2633 12.8302 863 84.241 1307.05 456.884
2385 0 68.2912 13.1203 896 86.9487 1307.1 457.496
2386 0 67.1736 13.5172 908 88.5892 1307.18 456.376
2387 0 70.2587 13.2083 928 89.3082 1306.93 455.121
2388 0 74.3396 13.1827 980 84.0296 1306.84 454.991
2389 0 75.3048 13.0935 986 84.2698 1306.69 453.366
2390 0 78.1526 13.2945 1039 82.7748 1306.42 452.413
2391 0 79.293 13.4943 1070 80.7019 1306.62 450.641
2392 0 83.4366 13.6151 1136 85.243 1306.67 450.033
2393 0 85.58 13.1806 1128 83.8918 1306.84 447.856
2394 0 87.3818 13.607 1189 83.9226 1306.98 446.971
2395 0 91.3699 13.6369 1246 84.6196 1306.52 446.001
2396 0 93.2028 13.4116 1250 88.0208 1306.62 444.604
2397 0 96.4225 13.7624 1327 86.208 1306.35 442.907
2398 0 100.416 13.6532 1371 89.9664 1306.22 439.67
2399 0 103.422 13.7302 1420 98.2169 1306.43 438.988
2400 0 108.449 13.5548 1470 95.7503 1306.67 437.393
2401 0 111.341 13.7415 1530 92.6719 1306.58 435.818
2402 1 62.2797 12.187 759 98.9025 1306.13 459.466
2403 0 65.2085 12.5751 820 94.6988 1306.56 458.054
2404 0 66.1429 12.9266 855 89.2234 1307 458.436
2405 0 69.0922 12.4905 863 91.5261 1307.74 458.28
2406 0 69.1072 12.8062 885 93.9797 1307.63 456.368
2407 0 72.1241 12.8528 927 96.6106 1307.54 454.079
2408 0 75.1183 13.086 983 91.5992 1307.61 453.357
2409 0 79.086 13.0617 1033 84.9564 1307.65 451.746
2410 0 81.0816 13.2582 1075 91.8381 1307.72 451.347
2411 0 82.1031 13.0689 1073 92.5014 1307.84 449.294
2412 0 85.0897 13.0921 1114 91.9443 1307.67 447.543
2413 0 89.2211 12.9678 1157 80.1651 1308.27 447.497
2414 0 92.2304 13.3036 1227 82.1777 1308.42 445.419
2415 0 96.1537 13.1768 1267 81.4878 1308.6 442.526
2416 0 98.2272 13.2448 1301 83.0223 1308.58 441.81
2417 0 102.195 13.4156 1371 75.4136 1308.41 439.539
2418 0 106.196 13.1455 1396 81.9334 1308.55 437.978
2419 0 108.276 13.7611 1490 80.2524 1308.88 436.163
2420 0 113.378 13.2919 1507 74.9064 1309.55 435.305
2421 0 115.366 13.3661 1542 78.2108 1309.87 434.04
2422 1 63.1573 12.6509 799 75.4543 1308.42 458.801
2423 0 65.2035 13.1895 860 75.0186 1309.19 460.886
2424 0 67.1267 12.8265 861 81.4924 1309.8 458.76
2425 0 67.2553 12.8466 864 81.6123 1309.71 455.894
2426 0 71.1678 13.1942 939 76.574 1310.45 453.634
2427 0 74.2479 13.3337 990 74.5596 1310.91 450.808
2428 0 73.2015 13.2921 973 75.5159 1311.07 450.364
2429 0 78.298 13.4869 1056 78.1979 1311.01 447.652
2430 0 81.2543 13.0209 1058 79.6739 1311.04 446.783
2431 0 83.4142 13.3311 1112 78.0279 1310.59 445.277
2432 0 84.4369 13.4301 1134 74.5529 1310.79 444.824
2433 0 87.4639 13.377 1170 74.4034 1311.36 444.059
2434 0 88.5866 13.5461 1200 72.0108 1311.05 442.893
2435 0 92.7185 13.5895 1260 76.9936 1310.32 440.471
2436 0 93.4325 13.7425 1284 75.6807 1310.2 440.065
2437 0 99.5384 12.9397 1288 80.5924 1309.92 440.288
2438 0 102.576 13.3072 1365 78.926 1310.33 437.777
2439 0 105.24 13.1604 1385 88.083 1310.08 436.895
2440 1 60.032 12.5267 752 86.1582 1309.1 461.42
2441 0 63.1504 12.6365 798 82.495 1309.8 462.189
2442 0 64.1296 12.8958 827 85.9371 1309.93 460.472
2443 0 63.0929 13.3296 841 84.2818 1309.76 460.289
2444 0 67.0746 13.0154 873 78.0905 1309.92 459.872
2445 0 70.1107 13.3646 937 83.2038 1310.15 458.156
2446 0 72.1005 13.5644 978 83.0726 1309.62 456.188
2447 0 75.1248 13.0849 983 92.6907 1309.67 455.528
2448 0 76.149 13.815 1052 84.7472 1309.8 454.583
2449 0 78.1102 13.5322 1057 90.4863 1309.62 453.184
2450 0 81.2424 13.3182 1082 92.1497 1309.22 452.188
2451 0 84.196 13.718 1155 92.4485 1309.34 450.97
2452 0 84.3391 13.7184 1157 93.3034 1308.83 450.261
2453 0 90.2156 13.6229 1229 95.4052 1308.62 448.479
2454 0 91.2599 13.7629 1256 98.3256 1308.84 446.471
2455 0 95.1548 13.9037 1323 95.2419 1308.57 445.014
2456 0 100.334 13.8238 1387 94.5638 1308.9 443.317
2457 0 101.23 13.5434 1371 96.5784 1309.71 442.835
2458 0 105.141 13.6199 1432 93.9853 1309.27 441.288
2459 0 109.267 13.5265 1478 92.2936 1309.2 438.463
2460 1 62.0865 12.3376 766 87.6358 1309.64 462.914
2461 0 64.1157 12.883 826 98.8027 1308.78 462.054
2462 0 65.088 12.9363 842 93.5333 1309.06 462.121
2463 0 67.1015 13.4721 904 92.7423 1308.91 459.579
2464 0 70.1489 13.2718 931 90.0548 1308.63 458.269
2465 0 71.2253 13.9136 991 87.1524 1308.94 458.009
2466 0 75.2126 12.9234 972 85.8477 1308.45 456.818
2467 0 77.2444 13.4508 1039 87.3965 1308.75 454.685
2468 0 80.2031 13.1541 1055 85.6616 1308.87 454.047
2469 0 83.2031 13.1485 1094 84.9241 1308.62 452.854
2470 0 86.1678 13.3461 1150 84.4513 1308.39 451.53
2471 0 89.25 13.4454 1200 79.6608 1308.24 449.805
2472 0 92.3474 13.3951 1237 78.6726 1308.72 448.232
2473 0 95.506 13.5698 1296 80.5995 1308.37 447.731
2474 0 99.3803 13.4031 1332 80.3566 1308.49 445.565
2475 0 102.276 13.4734 1378 81.4086 1308.29 444.311
2476 1 54.1223 12.5826 681 81.558 1306.96 467.636
2477 0 55.2137 12.4426 687 82.9214 1306.59 467.608
2478 0 57.2455 12.8045 733 77.1528 1307.1 467.756
2479 0 59.2319 12.6283 748 82.5067 1307.03 466.301
2480 0 61.2068 12.515 766 82.97 1306.69 464.618
2481 0 62.1862 12.9611 806 15.2109 1307.7 464.794
2482 0 64.1057 12.9942 833 83.958 1307.42 463.98
2483 0 66.1168 12.6897 839 83.4207 1307.18 462.609
2484 0 68.1498 12.722 867 83.2768 1307.56 460.609
2485 0 71.2608 13.4576 959 81.9708 1308.48 458.79
2486 0 72.2598 13.3131 962 83.0884 1308.06 458.465
2487 0 74.2675 13.5726 1008 85.7133 1308.44 456.639
2488 0 79.4842 13.0844 1040 84.6885 1309.06 455.946
2489 0 81.4057 13.488 1098 84.0747 1308.72 453.87
2490 0 82.3032 13.7419 1131 84.8824 1308.33 452.674
2491 0 85.4977 13.205 1129 85.651 1308.21 451.363
2492 0 88.302 13.3519 1179 83.0263 1308.74 450.746
2493 0 90.3919 12.9658 1172 82.2227 1308.05 448.623
2494 0 93.5297 13.0333 1219 80.9836 1308.1 447.455
2495 1 50.1761 11.639 584 90.8425 1308.25 468.81
2496 0 52.3716 12.4113 650 86.98 1307.87 467.705
2497 0 55.3682 12.8233 710 91.3099 1308.25 465.461
2498 0 57.3479 12.6421 725 87.8428 1307.96 464.728
2499 0 58.5674 12.8399 752 92.2181 1307.67 463.618
2500 0 58.3573 13.2117 771 91.6044 1308.1 463.224
2501 0 60.4312 13.0562 789 90.7921 1307.52 462.477
2502 0 63.4896 12.8997 819 91.884 1307.75 460.912
2503 0 64.3686 12.8324 826 90.9564 1307.68 458.971
2504 0 65.7611 13.2449 871 83.8783 1307.61 457.534
2505 0 68.6399 12.8934 885 86.7604 1308.29 456.741
2506 0 69.3741 13.4632 934 87.4122 1308.22 454.922
2507 0 72.411 12.9953 941 89.6419 1307.78 452.172
2508 0 73.6835 13.1644 970 88.0052 1308.16 451.385
2509 0 76.7815 12.9328 993 88.8943 1307.96 450.312
2510 0 77.5595 13.4219 1041 92.8838 1307.76 449.474
2511 0 81.8238 13.028 1066 89.6098 1308.36 448.722
2512 0 85.6804 12.9318 1108 93.0966 1307.83 446.545
2513 0 85.7387 13.3079 1141 91.1805 1308.51 445.348
2514 0 89.7048 12.7641 1145 89.0035 1308.44 444.678
2515 0 92.6374 13.0185 1206 89.1343 1307.93 442.612
2516 0 93.8261 13.12 1231 88.5695 1308.98 441.221
2517 0 97.4662 13.143 1281 96.0679 1308.57 439.818
2518 0 101.797 12.9178 1315 91.9536 1308.37 437.847
2519 0 105.51 13.0888 1381 97.1079 1308.57 435.735
2520 0 109.989 13.174 1449 93.8019 1308.77 434.054
2521 1 59.4687 12.1745 724 99.5497 1308.91 457.131
2522 0 61.4109 12.2291 751 96.3648 1308.87 455.261
2523 0 64.489 12.3587 797 94.6901 1308.35 454.409
2524 0 64.7489 12.8651 833 94.946 1308.42 453.968
2525 0 67.7881 12.7161 862 89.6624 1309.01 452.216
2526 0 69.7678 12.8856 899 95.5984 1309.44 451.86
2527 0 71.8657 12.746 916 98.1114 1309.38 450.3
2528 0 74.9352 12.7977 959 92.7424 1309.13 447.753
2529 0 76.6452 12.9036 989 93.3883 1309.53 447.344
2530 0 79.9398 12.697 1015 92.0867 1309.79 443.867
2531 0 80.6756 12.9035 1041 101.332 1309.45 443.001
2532 0 83.7143 12.7935 1071 97.0672 1309.5 442.117
2533 0 86.5487 12.8136 1109 94.4581 1309.34 439.625
2534 0 89.3904 12.9656 1159 94.9948 1309.46 438.327
2535 0 92.5804 12.9941 1203 94.6492 1309.68 436.806
2536 0 95.509 12.9412 1236 90.8892 1309.9 435.273
2537 0 99.542 13.2105 1315 92.1133 1309.69 433.71
2538 0 103.356 13.2939 1374 90.5553 1309.84 433.321
2539 0 107.503 14.2415 1531 87.292 1309.27 429.658
2540 0 110.456 13.3718 1477 94.6886 1309.77 428.681
2541 0 112.436 13.2075 1485 99.664 1309.07 426.613
2542 0 118.573 13.4854 1599 95.5604 1309.28 423.4
2543 1 63.531 11.4275 726 104.201 1309.12 449.92
2544 0 64.5949 12.1682 786 102.973 1309.25 447.921
2545 0 70.7387 12.4543 881 101.384 1308.66 449.36
2546 0 73.5058 12.5568 923 105.102 1308.91 450.345
2547 0 75.453 12.4979 943 99.5758 1309.07 450.042
2548 0 77.5614 12.8286 995 91.6603 1309.63 448.595
2549 0 78.6636 12.8014 1007 101.36 1310.03 446.823
2550 0 81.6305 12.7526 1041 99.9087 1310.05 445.913
2551 0 84.5796 12.9109 1092 101.707 1309.84 443.32
2552 0 88.3854 13.2827 1174 95.7112 1310.01 441.612
2553 0 91.6735 13.0572 1197 98.5021 1309.81 440.234
2554 0 95.5316 12.9381 1236 100.184 1309.75 438.076
2555 0 95.5262 13.3052 1271 95.2172 1309.92 437.725
2556 0 100.604 13.081 1316 100.392 1309.73 436.435
2557 0 103.569 13.0251 1349 99.1742 1309.97 435.475
2558 0 107.511 13.2544 1425 104.7 1310.03 433.582
2559 0 110.56 13.2417 1464 104.695 1310.28 432.403
2560 0 112.457 13.2406 1489 104.65 1310.2 429.79
2561 0 117.467 13.3654 1570 100.428 1310.03 427.757
2562 0 121.382 13.1073 1591 111.109 1310.31 426.177
2563 0 125.4 13.3572 1675 109.186 1310.13 425.241
2564 1 72.2121 11.7847 851 108.996 1310.06 452.622
2565 0 74.108 12.3738 917 104.046 1310.81 451.329
2566 0 77.1128 12.1251 935 105.005 1310.88 450.124
2567 0 79.1309 12.7637 1010 101.097 1310.85 449.516
2568 0 81.1346 12.3745 1004 101.175 1310.88 448.971
2569 0 81.0941 13.0589 1059 98.0444 1311.19 447.851
2570 0 84.0943 13.0211 1095 93.0767 1310.23 447.226
2571 0 87.3045 12.5423 1095 93.3644 1310.1 444.647
2572 0 90.0636 12.7799 1151 95.7246 1310.35 443.533
2573 0 94.0846 12.7757 1202 94.1148 1310.1 440.705
2574 0 97.1461 13.0422 1267 98.1784 1310.14 439.402
2575 0 100.131 12.9131 1293 94.1879 1310.09 438.915
2576 0 103.379 12.8266 1326 91.3733 1310.42 437.802
2577 0 106.175 12.7808 1357 88.9617 1310.47 434.036
2578 0 109.19 12.9041 1409 97.1455 1310.71 432.695
2579 0 113.408 12.9003 1463 95.7963 1310.21 432.214
2580 0 114.197 13.179 1505 94.8518 1309.94 430.966
2581 0 116.29 13.3976 1558 27.6014 1309.94 429.225
2582 0 121.283 12.9449 1570 89.7306 1309.44 428.62
2583 0 125.262 12.9568 1623 87.2132 1309.81 426.732
2584 0 129.56 12.8975 1671 93.9479 1309.54 422.879
2585 1 73.2346 11.033 808 87.9802 1308.7 452.939
2586 0 75.0946 11.6653 876 83.8527 1309.56 450.772
2587 0 77.2597 11.662 901 82.6526 1310.83 448.612
2588 0 80.1524 12.5261 1004 85.3586 1309.71 447.237
2589 0 83.3027 12.6647 1055 79.6161 1309.74 446.155
2590 0 83.1944 13.21 1099 95.4995 1309.53 447.289
2591 0 84.2348 13.13 1106 84.9087 1309.36 446.796
2592 0 91.1437 14.1644 1291 83.1557 1310.76 442.92
2593 0 92.0724 13.131 1209 84.354 1310.8 442.383
2594 0 93.3449 12.9091 1205 87.0905 1309.35 441.656
2595 0 97.1487 12.7434 1238 86.7819 1309.27 440.23
2596 0 100.213 12.8226 1285 85.2521 1309.08 439.879
2597 0 102.125 13.2093 1349 96.7769 1309.98 438.214
2598 0 105.222 13.039 1372 99.6203 1310.19 433.941
2599 0 107.199 13.6755 1466 83.5055 1309.55 435.957
2600 0 110.155 13.7443 1514 82.5852 1310.74 433.535
2601 0 113.452 13.5211 1534 83.9772 1310.43 432.128
2602 0 116.175 13.2817 1543 86.8315 1310.18 431.539
2603 0 120.258 13.5542 1630 88.084 1310.44 428.612
2604 0 124.361 13.7825 1714 81.5706 1308.79 428.425
2605 0 128.468 13.5365 1739 79.5768 1309.7 424.933
2606 0 133.346 13.7312 1831 82.1589 1309.22 423.86
2607 0 137.23 13.8673 1903 82.6668 1309.37 420.685
2608 0 142.272 13.671 1945 83.0437 1309.67 418.956
2609 1 76.2204 12.0309 917 82.6292 1309.42 451.626
2610 0 81.2402 12.42 1009 84.334 1310.13 450.242
2611 0 84.1237 12.1607 1023 78.0499 1309.76 449.002
2612 0 86.2022 12.6331 1089 77.5069 1310.33 447.242
2613 0 90.3017 12.1592 1098 77.6603 1310.35 445.234
2614 0 93.0968 12.6535 1178 75.7513 1310.01 444.598
2615 0 94.2815 12.7172 1199 80.0976 1310.43 442.446
2616 0 96.3252 12.6343 1217 81.1315 1309.91 441.504
2617 0 99.2578 12.5632 1247 80.2975 1309.82 438.965
2618 0 103.131 12.7798 1318 83.2845 1309.64 438.633
2619 0 106.12 13.0796 1388 84.17 1309.94 436.329
2620 0 109.204 12.3072 1344 88.2894 1309.91 435.693
2621 0 112.107 12.8092 1436 86.3579 1309.84 433.095
2622 0 115.123 13.0121 1498 80.2523 1309.99 430.384
2623 0 118.204 13.2483 1566 77.7746 1309.58 429.854
2624 0 122.114 12.9961 1587 86.2999 1309.34 427.73
2625 0 125.109 13.1885 1650 88.1812 1309.3 425.752
2626 0 130.24 12.9683 1689 84.6134 1308.56 423.199
2627 0 133.22 13.5415 1804 83.0782 1308.57 422.667
2628 0 138.358 13.3061 1841 83.0141 1308.81 419.021
2629 0 142.28 13.3329 1897 85.1075 1308.61 415.244
2630 0 149.312 13.2542 1979 86.0288 1308.76 412.947
2631 0 154.271 13.204 2037 85.244 1308.36 410.042
2632 1 92.2207 10.5833 976 83.8781 1307.56 442.306
2633 0 95.1562 11.4023 1085 87.47 1307.88 441.947
2634 0 99.1873 12.7738 1267 84.9834 1308.69 442.09
2635 0 102.215 12.6205 1290 85.9496 1308.71 439.9
2636 0 104.189 12.6788 1321 88.2952 1308.72 437.572
2637 0 110.355 12.342 1362 84.486 1308.57 436.568
2638 0 114.299 12.4848 1427 88.3581 1308.58 435.273
2639 0 116.282 12.8395 1493 85.8748 1308.64 432.985
2640 0 119.262 12.8205 1529 91.6586 1308.54 432.572
2641 0 120.281 13.2607 1595 91.5179 1308.69 431.214
2642 0 125.296 12.9853 1627 98.0313 1308.76 430.087
2643 0 127.346 13.4202 1709 93.9304 1308.45 428.56
2644 0 130.538 13.2069 1724 94.7459 1308.72 427.184
2645 0 134.343 13.0189 1749 95.5632 1308.73 423.606
2646 0 138.452 13.1092 1815 89.4942 1308.54 422.364
2647 0 143.51 13.2813 1906 87.1327 1308.59 421.012
2648 0 147.42 13.5599 1999 86.8374 1308.92 419.25
2649 0 150.472 13.1188 1974 89.6849 1309.12 416.07
2650 1 83.1862 11.9611 995 97.7618 1309 450.188
2651 0 84.3442 12.2 1029 100.488 1308.44 449.444
2652 0 86.1308 12.5971 1085 99.9594 1309.13 448.586
2653 0 90.1217 12.4498 1122 99.0499 1308.01 446.679
2654 0 93.06 12.3899 1153 94.7485 1309.24 446.422
2655 0 96.1718 12.3841 1191 93.0982 1309.23 445.071
2656 0 98.2542 12.5898 1237 97.9547 1308.14 443.889
2657 0 101.176 12.6117 1276 93.779 1308.11 442.319
2658 0 104.135 12.6087 1313 98.904 1308.32 439.872
2659 0 106.104 12.6951 1347 98.8241 1308.05 438.884
2660 0 110.204 12.6038 1389 98.4694 1307.57 436.931
2661 0 113.253 12.7149 1440 97.2764 1307.23 435.734
2662 0 117.213 12.4644 1461 99.7468 1307.18 432.659
2663 0 121.115 12.6079 1527 100.05 1307.39 430.234
2664 1 66.2888 10.9822 728 96.0453 1308.1 455.779
2665 0 69.3412 11.9554 829 94.9457 1307.96 455.754
2666 0 70.105 12.3244 864 96.4757 1308.07 456.597
2667 0 72.0621 12.3227 888 99.3829 1308.18 456.648
2668 0 74.1104 12.9267 958 92.9864 1308.51 454.524
2669 0 77.1491 12.3397 952 93.7258 1308.09 453.505
2670 0 80.0621 12.4403 996 94.1506 1307.51 452.698
2671 0 83.0957 12.7684 1061 92.5297 1308.35 451.788
2672 0 84.103 12.9127 1086 92.2357 1307.4 449.105
2673 0 88.1108 12.8702 1134 90.2478 1307.52 448.449
2674 0 90.1276 12.7708 1151 88.722 1307.07 446.704
2675 0 91.1379 13.0352 1188 91.0194 1307.44 446.022
2676 0 95.1301 12.8876 1226 87.4029 1307.64 444.685
2677 0 100.13 12.6836 1270 91.1 1307.65 443.151
2678 0 102.2 13.043 1333 92.8507 1307.54 441.544
2679 1 58.201 11.5806 674 91.2433 1306.34 464.628
2680 0 60.3222 11.3888 687 88.6346 1306.02 462.953
2681 0 63.1884 12.3282 779 86.6085 1307.28 462.734
2682 0 63.0635 12.5746 793 90.802 1307.62 461.412
2683 0 66.2703 12.5094 829 97.959 1307.09 460.566
2684 0 66.1115 12.8419 849 88.1543 1308.53 459.239
2685 0 70.1117 12.7796 896 82.6998 1307.72 459.537
2686 0 70.1321 12.6903 890 88.727 1307.88 456.951
2687 0 70.1951 13.0351 915 87.7628 1307.65 454.58
2688 0 74.1665 13.2135 980 86.8857 1307.26 453.409
2689 0 77.0792 12.9866 1001 85.4516 1307.35 453.461
2690 0 78.2515 13.1882 1032 86.7897 1307.32 451.932
2691 0 79.228 13.215 1047 97.8701 1307.37 450.156
2692 0 83.2956 13.3861 1115 89.5444 1307.17 449.314
2693 0 86.2043 13.004 1121 87.347 1307.16 448.365
2694 0 89.3413 13.0623 1167 83.1328 1307.28 447.919
2695 0 92.2823 13.1336 1212 88.7648 1307.22 446.056
2696 0 94.4242 13.0157 1229 86.9129 1307.08 446.013
2697 1 54.1869 11.2389 609 87.3892 1306.58 467.703
2698 0 54.1472 11.598 628 81.8599 1306.43 466.35
2699 0 57.105 12.1005 691 87.9001 1306.52 465.842
2700 0 58.1022 11.7035 680 88.3206 1307.29 464.147
2701 0 59.2414 12.3393 731 82.3871 1307.38 457.726
2702 0 60.2748 12.6587 763 83.9712 1307.66 457.819
2703 0 61.1469 12.8379 785 84.3618 1307.51 456.811
2704 0 64.1291 12.2877 788 81.8655 1307.68 458.018
2705 0 65.1863 12.5333 817 86.7797 1307.59 458.543
2706 0 65.191 13.2994 867 81.2538 1307.59 458.867
2707 0 67.1435 13.1063 880 83.7216 1307.77 459.164
2708 0 70.1827 12.9377 908 80.2687 1307.04 459.46
2709 0 70.0827 13.27 930 88.8054 1307.56 457.247
2710 0 74.0974 13.2258 980 80.9286 1307.19 456.89
2711 0 76.0532 13.3065 1012 79.2055 1307.46 456.111
2712 0 79.1684 13.2502 1049 83.2545 1307.17 455.256
2713 0 80.0717 13.4504 1077 84.3018 1307.22 454.195
2714 0 84.1105 13.292 1118 82.4508 1307.16 452.695
2715 0 84.1864 13.7433 1157 80.7796 1306.89 451.391
2716 0 87.086 13.125 1143 77.3193 1306.48 450.206
2717 0 89.0729 13.3935 1193 78.1224 1306.33 448.578
2718 0 93.095 13.4486 1252 82.9704 1306.37 448.282
2719 0 96.2371 13.2485 1275 79.0596 1306.47 446.83
2720 0 97.1954 13.4471 1307 75.0757 1306.37 445.956
2721 0 100.402 13.4559 1351 79.6876 1306.8 443.757
2722 0 105.394 13.3593 1408 81.0242 1307.08 441.401
2723 0 108.35 13.3457 1446 85.316 1306.78 437.668
2724 0 110.346 13.2492 1462 83.7661 1306.83 435.766
2725 0 114.652 13.8593 1589 87.9434 1306.67 435.208
2726 0 115.515 13.9981 1617 84.8732 1306.96 432.822
2727 0 118.648 13.873 1646 84.9192 1306.9 431.845
2728 0 122.401 14.0195 1716 82.282 1306.55 430.231
2729 1 68.3292 11.4153 780 83.3256 1306.78 461.29
2730 0 72.2511 12.249 885 75.183 1306.72 458.945
2731 0 73.2427 13.1208 961 76.462 1307 457.646
2732 0 75.2935 13.2415 997 84.9739 1306.91 456.56
2733 0 78.4217 12.9811 1018 86.0864 1307.38 456.233
2734 0 79.4151 13.3602 1061 83.8172 1306.85 454.135
2735 0 82.4082 13.6758 1127 84.6566 1307.07 452.79
2736 0 85.5998 13.3178 1140 86.8851 1307.08 451.735
2737 0 88.6427 13.4247 1190 81.1538 1307.09 449.824
2738 0 92.3764 13.6831 1264 82.6258 1306.96 448.142
2739 0 95.4852 13.4576 1285 80.5969 1307.29 446.686
2740 0 97.5893 14.0384 1370 86.0496 1307.41 445.174
2741 0 99.4195 13.9812 1390 88.7201 1307.38 444.39
2742 0 103.51 13.6799 1416 89.4795 1306.81 442.828
2743 0 105.606 13.7776 1455 88.1615 1306.94 440.732
2744 0 110.525 13.8159 1527 88.4447 1306.46 438.673
2745 0 113.547 14.1704 1609 83.7899 1306.99 437.899
2746 0 115.418 13.8799 1602 91.8358 1307.51 436.709
2747 0 119.377 14.1401 1688 90.0504 1306.87 434.468
2748 0 122.432 13.8526 1696 89.1763 1307.08 432.731
2749 0 124.45 14.1985 1767 87.7272 1306.81 430.113
2750 0 129.72 13.9223 1806 88.6113 1307.05 428.03
2751 0 135.506 14.1396 1916 85.2156 1307.61 426.478
2752 0 139.669 14.0976 1969 81.9411 1307.48 424.305
2753 0 144.551 14.258 2061 85.1383 1307.83 422.19
2754 1 82.273 12.4585 1025 82.5756 1307.4 453.346
2755 0 84.4032 12.8787 1087 79.3487 1307.61 452.373
2756 0 85.3341 12.7616 1089 78.022 1307.47 451.304
2757 0 90.4911 12.7195 1151 76.9288 1307.21 450.149
2758 0 91.4754 12.8013 1171 77.0547 1307.38 448.699
2759 0 97.5201 12.4487 1214 79.8081 1307.58 446.873
2760 0 98.5445 12.9992 1281 88.6027 1307.55 444.243
2761 0 101.464 13.1475 1334 87.8568 1307.56 441.945
2762 0 103.509 13.1196 1358 92.5832 1307.44 439.664
2763 0 107.37 12.9366 1389 89.7423 1307.65 438.742
2764 0 111.441 12.9755 1446 87.6687 1306.93 436.507
2765 0 113.356 13.0474 1479 89.5707 1307.28 435.32
2766 0 118.279 13.3414 1578 90.1122 1307.14 432.595
2767 0 121.471 13.3118 1617 87.3117 1307.2 430.577
2768 0 124.221 13.1459 1633 86.2009 1307.76 428.176
2769 0 128.249 13.0684 1676 87.1468 1308.28 425.69
2770 0 134.354 13.2188 1776 87.969 1308.19 423.605
2771 0 140.277 12.8246 1799 90.7387 1308.42 422.258
2772 1 80.1387 12.1664 975 90.8564 1308.08 449.33
2773 0 83.2144 12.5699 1046 86.3117 1309.54 448.253
2774 0 86.2857 12.5977 1087 89.8289 1309.09 446.975
2775 0 87.2979 12.9098 1127 88.7462 1309 445.601
2776 0 92.1335 12.9703 1195 86.3816 1308.78 444.65
2777 0 94.2385 12.8716 1213 83.1863 1308.49 442.363
2778 0 96.2431 12.5516 1208 80.4719 1308.53 439.307
2779 0 99.2838 12.2981 1221 83.8821 1308.69 436.936
2780 0 103.425 12.6952 1313 83.8454 1308.68 435.766
2781 0 105.436 12.5479 1323 85.6992 1308.73 434.226
2782 0 109.337 12.713 1390 84.4237 1309.02 432.885
2783 0 111.417 12.6013 1404 85.1781 1308.78 430.81
2784 0 115.409 12.538 1447 84.405 1309.01 428.738
2785 1 67.2079 9.38877 631 86.2916 1309.07 453.636
2786 0 65.2231 10.0578 656 88.6326 1309.45 452.285
2787 0 67.3094 10.1472 683 87.7423 1309.69 451.091
2788 0 71.3125 11.1902 798 87.589 1310.07 450.056
2789 0 74.2465 11.0982 824 87.4357 1309.66 448.405
2790 0 74.352 12.0239 894 82.896 1309.26 449.132
2791 0 79.3166 12.2547 972 84.1718 1309.63 448.652
2792 0 82.272 12.0089 988 84.8725 1309.64 446.41
2793 0 84.1843 12.3657 1041 83.7397 1310.01 443.301
2794 0 86.4579 12.5957 1089 82.3792 1309.72 442.038
2795 0 88.4836 12.7368 1127 84.0807 1309.62 439.973
2796 0 90.3113 12.4791 1127 83.0568 1309.73 440.696
2797 0 95.2929 12.6242 1203 80.6509 1310.42 439.62
2798 0 98.1984 13.4931 1325 79.5155 1310.54 438.065
2799 0 102.255 13.3196 1362 84.5764 1309.99 436.148
2800 0 105.269 13.4037 1411 91.1141 1309.88 435.026
2801 0 108.386 13.3412 1446 87.0007 1310.26 433.793
2802 0 109.4 12.9068 1412 92.9915 1310.79 430.639
2803 0 114.347 13.5465 1549 84.8838 1310.72 430.848
2804 0 115.401 13.2755 1532 87.2382 1310.52 427.371
2805 0 118.518 13.2807 1574 88.2147 1309.98 425.585
2806 0 121.429 12.9294 1570 88.3369 1310.25 425.427
2807 0 123.353 13.1007 1616 93.771 1310.47 424.052
2808 1 67.2565 9.73883 655 96.9344 1310.65 453.302
2809 0 71.265 10.2435 730 97.4192 1310.44 452.104
2810 0 70.1246 10.6097 744 96.7043 1310.53 451.832
2811 0 72.0919 11.3744 820 94.3585 1310.93 450.055
2812 0 75.1787 12.4237 934 91.7216 1310.3 448.742
2813 0 78.131 12.5686 982 101.161 1311.15 443.274
2814 0 82.0879 12.7059 1043 93.3921 1311.36 442.71
2815 0 83.1419 12.4366 1034 89.5406 1311.44 445.374
2816 0 85.1227 12.4879 1063 89.857 1311.72 443.176
2817 0 87.1814 12.778 1114 85.3214 1311.66 441.502
2818 0 90.2548 12.6088 1138 87.5589 1311.57 439.58
2819 0 95.3019 13.5045 1287 88.3559 1310.88 439.35
2820 0 99.4319 13.1547 1308 90.8486 1311.01 440.394
2821 0 101.399 13.5997 1379 89.4061 1310.99 436.104
2822 0 104.181 13.371 1393 95.0732 1310.96 433.705
2823 0 107.28 13.9542 1497 85.0494 1310.91 431.699
2824 0 109.402 13.1076 1434 91.2636 1310.49 431.078
2825 0 113.351 13.295 1507 87.8952 1310.27 430.526
2826 0 117.369 12.908 1515 87.6898 1310.53 427.674
2827 0 123.187 13.6865 1686 99.7592 1310.98 425.305
2828 1 68.1552 10.9456 746 92.185 1310.25 452.592
2829 0 70.1855 11.0422 775 95.6774 1309.17 451.846
2830 0 71.1625 12.4363 885 83.5277 1308.34 449.837
2831 0 74.3259 12.7816 950 82.9347 1308.3 450.134
2832 0 78.2434 12.8957 1009 81.439 1308.5 451.476
2833 0 80.3824 13.2243 1063 88.0724 1308.43 447.569
2834 0 83.257 13.068 1088 81.8327 1308.06 445.329
2835 0 85.5844 13.0047 1113 80.2031 1307.9 443.213
2836 0 87.6547 13.1311 1151 76.8758 1307.65 442.798
2837 0 89.6467 13.3413 1196 77.0786 1307.7 441.202
2838 0 92.6984 13.4307 1245 79.2217 1307.66 438.252
2839 0 97.4709 13.0193 1269 78.7652 1307.39 438.359
2840 0 98.4058 13.3935 1318 80.3968 1307.77 436.315
2841 0 102.523 13.1482 1348 79.7886 1307.19 437.358
2842 0 104.48 13.0647 1365 76.0447 1307.62 433.276
2843 0 110.521 13.2373 1463 78.6357 1307.61 433.918
2844 0 111.583 13.6759 1526 77.6769 1308.55 431.324
2845 1 63.2426 11.701 740 76.3081 1307.26 457.086
2846 0 65.3307 11.8474 774 68.2662 1307.24 454.672
2847 0 67.2981 13.0019 875 72.5086 1308.96 456.031
2848 0 69.3291 13.1979 915 73.6295 1308.01 452.342
2849 0 70.1608 13.1412 922 74.7213 1307.56 455.57
2850 0 71.2864 13.2143 942 75.1974 1308.79 454.228
2851 0 73.1573 12.9174 945 75.6952 1309.01 450.725
2852 0 78.2699 13.2362 1036 76.4846 1309.31 449.258
2853 0 79.4172 12.9821 1031 77.6421 1308.84 448.193
2854 0 81.3251 13.2431 1077 80.5125 1309.65 447.47
2855 0 82.2867 13.4773 1109 77.7124 1310.33 447.314
2856 0 85.2609 13.4763 1149 79.1819 1309.76 445.795
2857 0 90.5344 13.1994 1195 75.2987 1309.5 443.392
2858 0 93.4408 13.6236 1273 75.7761 1309.57 442.46
2859 0 93.2776 13.3151 1242 81.1908 1309.77 441.642
2860 0 98.3259 13.2518 1303 79.2295 1309.72 440.25
2861 0 103.481 13.3261 1379 76.108 1309.74 438.355
2862 0 105.605 13.541 1430 74.1035 1309.91 436.996
2863 0 109.529 13.5306 1482 74.0297 1309.93 435.551
2864 0 114.643 13.3807 1534 66.5541 1309.46 433.546
2865 1 63.3925 12.2254 775 73.3832 1309.86 458.232
2866 0 66.3613 12.7032 843 73.2313 1310.42 459.155
2867 0 67.2677 13.2307 890 71.7225 1310.71 458.544
2868 0 70.1908 12.5373 880 71.8114 1310.4 456.903
2869 0 70.3919 13.3254 938 80.5064 1309.92 455.94
2870 0 74.4163 12.9273 962 78.3555 1309.33 455.03
2871 0 75.4385 13.5342 1021 82.0206 1309.46 452.458
2872 0 79.4637 13.3898 1064 78.4164 1308.88 450.822
2873 0 81.3149 13.8228 1124 83.7874 1308.67 449.689
2874 0 84.4126 13.671 1154 80.7435 1308.99 448.232
2875 0 86.397 13.8546 1197 85.2782 1308.46 447.834
2876 0 90.5224 14.0407 1271 89.2219 1308.97 445.644
2877 0 92.3023 13.9867 1291 93.598 1309.51 444.352
2878 0 97.26 13.8803 1350 90.083 1309.57 442.436
2879 0 100.401 13.8843 1394 88.51 1309.95 441.194
2880 0 103.467 13.9369 1442 87.6366 1309.82 439.684
2881 0 106.369 13.613 1448 91.4896 1309.58 438.217
2882 0 110.346 13.8021 1523 88.0696 1309.4 436.797
2883 0 111.301 14.0879 1568 86.4738 1309.56 434.501
2884 0 115.236 14.0148 1615 87.0328 1308.94 432.5
2885 1 61.1572 13.1464 804 86.0236 1309.03 457.072
2886 0 62.0477 13.812 857 79.2847 1309.54 456.034
2887 0 67.2419 13.8455 931 81.7927 1308.77 455.486
2888 0 72.3733 16.0833 1164 74.4751 1308.76 451.357
2889 0 72.3367 15.5799 1127 77.6602 1308.98 451.694
2890 0 73.2254 14.3802 1053 84.6125 1308.62 451.716
2891 0 74.2701 14.7704 1097 84.9544 1308.45 450.933
2892 0 77.3292 14.6516 1133 84.6796 1308.4 450.161
2893 0 81.42 14.505 1181 82.4505 1308.35 449.262
2894 0 83.3996 14.6643 1223 91.3483 1308.48 446.643
2895 0 86.3332 15 1295 89.1019 1308.52 444.258
2896 0 89.327 14.8443 1326 86.3537 1308.65 444.169
2897 0 92.2589 15.088 1392 86.0431 1308.81 441.458
2898 0 94.2522 14.4612 1363 83.8283 1308.94 442.046
2899 0 97.3944 15.1138 1472 91.9368 1308.75 440.621
2900 0 99.2263 15.0061 1489 87.7878 1308.83 439.493
2901 0 104.238 14.841 1547 97.4725 1308.94 437.345
2902 0 104.238 15.3687 1602 94.1398 1309.01 436.767
2903 0 109.366 14.8949 1629 91.9134 1309.31 434.996
2904 0 112.443 15.0921 1697 90.2988 1309 433.924
2905 0 116.519 15.0619 1755 88.7658 1308.93 431.299
2906 0 120.402 15.0413 1811 84.1138 1309.04 429.531
2907 0 124.823 14.9251 1863 86.4036 1308.64 427.753
2908 0 129.251 15.2494 1971 85.1974 1309.03 426.236
2909 0 133.595 14.8808 1988 91.8491 1309.05 423.313
2910 0 139.618 15.0983 2108 84.1423 1309.54 420.522
2911 1 70.1946 15.0866 1059 102.57 1309.43 452.361
2912 0 74.5553 15.1297 1128 100.241 1309.51 450.795
2913 0 77.1432 15.037 1160 99.7466 1309.84 450.312
2914 0 79.298 15.0319 1192 97.4664 1309.96 448.988
2915 0 82.2668 15.1337 1245 91.8659 1310.35 447.057
2916 0 86.2224 14.8569 1281 94.4481 1309.85 446.22
2917 0 87.4951 15.1666 1327 91.6059 1310.03 444.855
2918 0 91.3304 15.0771 1377 89.419 1309.43 443.866
2919 0 91.4042 15.3056 1399 81.2073 1309.47 442.354
2920 0 97.3343 14.8355 1444 79.1593 1309.54 440.242
2921 0 101.673 15.1663 1542 81.3787 1309.35 438.99
2922 0 101.564 14.9069 1514 84.1116 1309.4 438.305
2923 0 105.564 15.3082 1616 87.8422 1309.51 436.52
2924 0 109.679 14.9163 1636 85.0697 1309.52 435.98
2925 0 110.383 15.4462 1705 83.8692 1309.57 434.107
2926 0 115.43 15.0741 1740 83.5213 1309.38 432.916
2927 0 118.442 14.9524 1771 83.4376 1309.64 430.935
2928 0 122.777 15.6707 1924 82.2022 1309.49 429.196
2929 0 126.566 15.2805 1934 83.8345 1309.72 427.412
2930 0 129.542 15.4854 2006 84.6152 1309.74 424.982
2931 0 134.801 15.1038 2036 96.0589 1309.42 424.203
2932 0 138.99 15.0227 2088 100.082 1309.41 421.743
2933 0 143.656 15.0428 2161 89.1398 1309.81 419.319
2934 1 78.6722 14.2109 1118 90.0125 1309.28 450.791
2935 0 80.7323 14.7401 1190 92.9294 1309.01 449.712
2936 0 81.867 14.7801 1210 89.9884 1309.41 448.741
2937 0 84.8024 14.8227 1257 90.829 1309.33 446.556
2938 0 88.6911 15.0522 1335 87.815 1309.65 446.654
2939 0 92.1006 14.7339 1357 93.4223 1309.52 444.746
2940 0 94.909 14.7826 1403 94.8097 1309.64 444.026
2941 0 98.0072 14.7336 1444 88.3102 1309.45 442.535
2942 0 100.827 14.6092 1473 92.1005 1309.44 441.752
2943 0 104.632 14.9572 1565 89.768 1309.56 438.932
2944 0 107.605 14.8599 1599 89.9181 1309.33 437.984
2945 0 111.038 14.5446 1615 94.6768 1309.3 436.305
2946 1 57.7622 14.577 842 99.4086 1309.68 461.949
2947 0 59.9156 14.9877 898 94.0379 1310.13 460.139
2948 0 62.8398 15.3565 965 93.4 1310.08 458.107
2949 0 66.0838 15.3896 1017 93.0069 1309.97 458.259
2950 0 66.7603 15.7279 1050 89.9743 1310.17 457.124
2951 0 69.0612 15.3777 1062 97.2307 1309.83 456.36
2952 0 70.7098 15.5848 1102 97.7922 1309.54 455.655
2953 0 73.915 15.6125 1154 96.6724 1309.44 455.251
2954 0 77.1861 15.4043 1189 100.595 1309.45 453.654
2955 0 78.0535 15.6559 1222 103.614 1309.2 452.398
2956 0 80.8691 15.5313 1256 102.486 1309.36 450.979
2957 0 84.2105 15.3069 1289 105.993 1309.66 451.481
2958 0 87.9804 15.9695 1405 104.107 1309.68 449.206
2959 0 89.0987 15.466 1378 107.906 1310.34 448.718
2960 0 90.9016 15.7203 1429 102.389 1309.8 446.917
2961 0 93.9512 15.4016 1447 108.106 1309.86 446.677
2962 0 93.8876 16.2961 1530 104.959 1309.13 444.927
2963 0 98.8867 15.7453 1557 103.82 1308.25 443.791
2964 0 101.612 15.7364 1599 103.037 1309 443.2
2965 0 105.777 15.6461 1655 103.118 1307.84 441.141
2966 0 109.917 15.7118 1727 96.8107 1307.76 438.708
2967 0 113.91 15.565 1773 100.33 1307.98 438.067
2968 0 118.744 15.8576 1883 96.2692 1307.96 435.908
2969 1 65.8723 14.0727 927 103.32 1307.66 461.145
2970 0 66.6199 14.5302 968 98.656 1307.46 460.116
2971 0 70.7278 14.5911 1032 99.9196 1307.71 459.98
2972 0 71.6107 14.4113 1032 111.624 1307.42 458.622
2973 0 72.8553 15.2631 1112 109.541 1307.3 458.059
2974 0 76.634 14.5888 1118 113.041 1307.41 457.927
2975 0 77.681 15.1002 1173 112.47 1307.06 457.02
2976 0 80.7031 14.8569 1199 102.321 1307.47 455.847
2977 0 82.8615 15.0854 1250 103.363 1307.05 454.273
2978 0 85.5683 15.0056 1284 105.336 1307.1 452.093
2979 0 87.7408 15.0215 1318 110.106 1307.21 452.419
2980 0 89.5147 15.0143 1344 107.225 1307.15 451.089
2981 0 93.8306 14.9205 1400 112.117 1306.9 449.72
2982 0 94.7683 15.2372 1444 115.226 1306.86 448.388
2983 0 97.4642 15.2877 1490 106.398 1306.15 447.172
2984 0 101.772 15.1516 1542 112.733 1306.2 445.696
2985 0 101.82 15.2426 1552 111.182 1306.29 445.409
2986 0 106.552 15.2038 1620 109.009 1306.25 443.783
2987 0 111.698 15.0048 1676 109.185 1306.21 442.403
2988 0 113.499 15.216 1727 100.878 1306.36 440.479
2989 0 117.456 15.2056 1786 102.888 1306.93 439.404
2990 0 120.817 14.8157 1790 105.493 1307.45 437.333
2991 0 123.529 15.211 1879 102.267 1308.17 436.731
2992 0 127.533 15.1177 1928 104.277 1308.25 434.744
2993 0 131.502 15.0112 1974 108.832 1308.5 433.696
2994 0 135.486 14.9979 2032 108.809 1308.31 431.863
2995 0 138.739 14.8841 2065 107.036 1307.77 429.185
2996 0 144.406 15.1517 2188 107.835 1308.1 426.831
2997 0 148.439 15.3734 2282 103.072 1308.15 424.688
2998 0 152.695 15.4622 2361 106.002 1308.76 422.086
2999 0 159.603 15.1877 2424 104.422 1307.67 419.191
3000 0 164.772 14.8509 2447 103.6 1307.44 416.547
3001 1 58.4449 14.7318 861 104.667 1307.25 464.564
3002 0 61.7058 14.5529 898 104.546 1307.61 463.741
3003 0 61.3575 14.5214 891 100.899 1307.89 463.361
3004 0 63.5705 14.9912 953 101.841 1308.05 462.951
3005 0 64.2929 14.9628 962 118.116 1307.83 461.386
3006 0 65.4911 15.6357 1024 117.08 1307.8 461.313
3007 0 68.422 14.7759 1011 118.407 1308.01 459.89
3008 0 70.5921 14.9592 1056 112.287 1308.6 459.421
3009 0 71.66 14.9037 1068 120.669 1308.62 457.865
3010 0 72.2938 15.3125 1107 114.957 1308.72 457.744
3011 0 75.3571 15.2739 1151 115.36 1308.38 457.176
3012 0 76.5079 15.1618 1160 110.788 1307.8 454.972
3013 0 78.2295 15.3778 1203 108.397 1308.25 453.861
3014 0 80.4066 15.2475 1226 120.289 1308.02 453.39
3015 0 83.2736 15.5271 1293 103.975 1307.82 451.556
3016 0 84.6744 15.2348 1290 113.32 1308.04 451.506
3017 0 86.5585 16.174 1400 112.416 1308.1 449.301
3018 0 90.6016 16.1918 1467 116.922 1308.16 447.727
3019 0 92.6232 15.8708 1470 122.048 1308.61 446.305
3020 0 94.7964 16.3403 1549 115.482 1308.65 444.666
3021 0 98.4746 16.5017 1625 112.844 1309.07 443.05
3022 0 102.733 17.5211 1800 106.963 1308.86 440.511
3023 1 221.742 13.3804 2967 116.394 1309.47 388.317
3024 0 220.932 13.95 3082 117.648 1309.68 386.36
3025 0 210.617 12.9382 2725 115.097 1309.43 397.399
3026 0 217.982 14.1571 3086 99.2032 1309.78 389.462
3027 0 219.889 12.7519 2804 86.5624 1309.79 400.586
3028 0 221.702 11.8944 2637 94.2742 1309.14 412.204
3029 1 56.5905 14.6491 829 114.41 1308.4 459.274
3030 0 59.6991 14.4223 861 114.304 1308.52 459.216
3031 0 61.824 14.1531 875 109.722 1308.7 458.065
3032 0 63.8597 14.156 904 112.509 1309.78 458.623
3033 0 63.5467 14.4618 919 120.499 1309.23 457.208
3034 0 67.041 14.0958 945 115.218 1309.61 455.139
3035 0 67.06 14.7032 986 111.406 1309.79 454.28
3036 0 69.6267 14.7501 1027 110.758 1309.73 452.21
3037 0 71.7069 14.4617 1037 103.961 1309.87 451.544
3038 0 71.9159 14.2389 1024 111.07 1309.54 449.467
3039 0 74.5091 14.5351 1083 108.262 1309.88 449.024
3040 0 78.7504 14.4634 1139 117.141 1309.64 448.412
3041 0 77.6153 15.0228 1166 114.059 1310.02 445.858
3042 0 79.8528 14.9901 1197 122.348 1310 446.025
3043 0 82.7942 14.9527 1238 121.997 1310.06 444.872
3044 0 84.9859 15.2849 1299 121.287 1309.74 444.107
3045 0 87.6697 15.1934 1332 111.564 1309.79 442.685
3046 0 88.7986 15.0791 1339 117.102 1310.19 441.879
3047 0 91.8582 14.7619 1356 119.175 1310.69 439.851
3048 0 93.2756 15.1594 1414 110.526 1310.72 438.988
3049 0 95.8393 15.1191 1449 108.135 1311.28 437.524
3050 0 100.295 15.0955 1514 112.401 1311.09 435.884
3051 0 102.963 15.2287 1568 115.288 1310.8 434.742
3052 0 107.942 14.9524 1614 111.906 1310.67 433.432
3053 0 110.288 14.988 1653 108.647 1310.66 430.395
3054 0 115.793 15.1305 1752 109.366 1310.74 428.262
3055 0 117.384 15.3087 1797 116.306 1310.24 426.653
3056 1 68.5453 9.92044 680 93.4206 1309.9 453.168
3057 0 69.6467 10.2661 715 93.0755 1310 452.997
3058 0 68.779 9.74135 670 98.4075 1310.68 453.09
3059 0 72.4807 9.68534 702 98.8034 1310.73 453.234
3060 0 73.4581 10.0738 740 101.346 1310.79 450.889
3061 0 77.484 10.8797 843 95.7485 1310.42 448.569
3062 0 78.5525 10.2988 809 95.6502 1310.77 447.727
3063 0 80.6044 10.8803 877 95.4367 1310.53 446.238
3064 0 82.6854 9.95339 823 99.6962 1311.21 447.405
3065 0 84.7144 10.3996 881 91.7889 1311.12 446.117
3066 0 86.7199 10.1245 878 103.534 1310.96 446.779
3067 1 48.2756 10.2122 493 93.1826 1311.68 465.406
3068 0 48.4718 10.4184 505 88.0574 1311.6 464.533
3069 0 49.1369 10.6641 524 22.521 1312.09 465.553
3070 0 52.2358 10.3377 540 75.7852 1311.3 464.541
3071 0 51.1675 10.319 528 92.9811 1311.16 464.392
3072 0 54.1206 10.6983 579 94.0535 1311.11 462.758
3073 1 31.142 8.73418 272 93.5919 1310.54 474.827
3074 0 30.1401 8.19506 247 91.6964 1310.46 475.292
3075 0 28.0617 8.94457 251 91.0717 1310.66 474.725
3076 0 29.0967 8.07651 235 92.6 1311.04 475.808
3077 0 29.0237 8.51028 247 89.3441 1310.33 476.636
3078 0 32.1628 8.86118 285 87.2456 1310.05 474.47
3079 0 30.1112 9.0996 274 78.1679 1310.23 475.42
3080 0 33.1374 9.29463 308 87.052 1309.84 474.107
3081 0 33.1898 9.43061 313 90.6741 1309.84 474.591
3082 0 34.1706 9.74521 333 87.036 1310.08 473.925
3083 0 36.2468 9.98708 362 89.3287 1310.11 473.663
3084 0 38.305 10.2075 391 85.0102 1309.71 472.22
3085 0 40.3044 10.1974 411 87.0827 1310.07 472.72
3086 0 41.3078 10.2402 423 90.6194 1309.71 472.913
3087 0 42.2816 11.0686 468 86.4765 1309.46 471.186
3088 0 43.3519 11.1183 482 87.0892 1309.11 471.272
3089 0 44.5524 10.5718 471 86.5711 1309.34 471.017
3090 0 46.3726 10.3941 482 87.4958 1308.84 470.116
3091 0 46.5574 10.3099 480 85.4688 1308.8 470.848
3092 0 48.3627 10.6901 517 87.6983 1308.39 469.662
3093 0 50.4393 10.3689 523 97.5488 1307.87 469.249
3094 0 50.4402 11.1023 560 109.545 1307.73 467.916
3095 0 51.7007 10.7542 556 108.845 1307.55 467.52
3096 0 53.4806 11.0133 589 105.62 1307.44 466.314
3097 0 54.3472 11.5737 629 97.9189 1307.24 464.583
3098 0 55.2716 11.6697 645 88.6171 1307.37 464.524
3099 0 58.5369 11.4458 670 89.8791 1307.96 465.178
3100 0 61.7132 11.4562 707 101.764 1308.69 463.563
3101 0 64.8575 13.1982 856 94.0584 1308.24 458.221
3102 0 67.6023 13.6682 924 90.5963 1308.5 455.836
3103 0 68.0068 12.6752 862 97.9594 1308.34 457.502
3104 0 69.7036 12.8257 894 98.3289 1307.97 454.908
3105 0 68.6596 15.7589 1082 88.1359 1308.13 452.03
3106 0 73.0274 14.9122 1089 88.5234 1308.1 449.009
3107 0 75.0987 15.2999 1149 92.2367 1308.07 449.606
3108 0 76.7905 15.4446 1186 92.6619 1307.96 448.589
3109 0 80.8875 15.1445 1225 92.2751 1307.42 447.361
3110 0 81.9742 15.2487 1250 89.86 1307.82 446.091
3111 0 83.8847 15.3425 1287 91.0023 1307.54 444.655
3112 0 86.7304 15.3118 1328 86.9262 1307.59 444.297
3113 0 89.7316 15.3123 1374 87.7868 1307.65 443.031
3114 0 91.65 15.2973 1402 95.3138 1307.96 441.524
3115 0 94.8341 15.1317 1435 97.9909 1308.49 440.87
3116 0 98.8455 15.0437 1487 123.74 1308.14 437.59
3117 0 103.208 15.0279 1551 123.597 1307.73 435.476
3118 0 98.4669 12.0751 1189 110.857 1307.08 438.323
3119 0 94.0268 11.2734 1060 110.205 1307.82 448.994
3120 0 85.7849 14.0701 1207 103.818 1307.26 446.995
3121 0 89.3041 13.7844 1231 107.947 1307.15 446.242
3122 0 90.1089 14.2161 1281 103.839 1306.97 445.966
3123 0 94.2661 12.8678 1213 111.104 1307.51 448.66
3124 0 85.772 15.5762 1336 107.559 1307.4 446.623
3125 0 92.7519 13.0563 1211 114.754 1307.61 448.724
3126 1 80.528 17.733 1428 94.4657 1307.03 444.38
3127 0 85.7015 15.9974 1371 101.669 1307.4 445.322
3128 0 90.5796 15.3015 1386 100.968 1307.5 445.337
3129 0 85.7739 16.7767 1439 98.8367 1308.17 443.603
3130 0 89.6078 17.7105 1587 98.2974 1308.1 441.221
3131 0 90.7876 17.5575 1594 97.8645 1308.24 441.123
3132 0 88.6255 17.3652 1539 102.344 1308.69 442.311
3133 0 90.7012 16.9568 1538 103.467 1308.82 440.304
3134 0 90.4267 16.7318 1513 113.273 1309.21 440.472
3135 0 92.519 15.867 1468 119.404 1309.03 440.548
3136 0 92.5832 14.6463 1356 122.857 1309.75 438.522
3137 0 95.5392 13.7535 1314 127.471 1309.79 438.479
3138 0 97.5504 13.7057 1337 113.15 1309.79 437.637
3139 0 101.65 13.5269 1375 111.341 1309.45 436.017
3140 0 105.691 13.5962 1437 117.05 1310.41 433.509
3141 1 54.2957 12.7082 690 125.846 1309.99 458.97
3142 0 58.2578 14.3328 835 116.253 1310.1 454.583
3143 0 58.1895 13.7997 803 126.609 1309.48 456.143
3144 0 60.1435 14.2326 856 127.974 1308.97 454.789
3145 0 60.1563 13.6977 824 127.692 1309.42 455.387
3146 0 62.2269 14.0454 874 123.483 1309.37 455.72
3147 0 64.2721 13.6296 876 123.777 1309.15 455.99
3148 0 67.1927 13.5878 913 112.686 1309.09 455.055
3149 0 67.2322 14.145 951 114.374 1309.58 455.433
3150 0 70.2185 14.1131 991 108.9 1309.34 453.417
3151 0 72.2738 14.4727 1046 100.734 1309.33 451.281
3152 0 75.3041 13.7841 1038 105.481 1308.53 451.093
3153 0 75.3798 14.2876 1077 103.598 1309.04 450.206
3154 0 81.3327 14.0411 1142 95.9956 1309.69 447.287
3155 0 83.252 14.1378 1177 101.162 1309.83 446.927
3156 0 85.3211 14.252 1216 101.26 1309.81 446.214
3157 0 89.3665 13.9202 1244 105.421 1309.54 444.793
3158 0 92.3794 14.0508 1298 103.641 1309.98 443.006
3159 0 95.2157 13.8317 1317 105.106 1309.89 442.315
3160 0 98.4256 13.8379 1362 105.729 1309.7 440.778
3161 1 49.0807 12.7953 628 99.3933 1309.8 465.123
3162 0 51.0956 13.2301 676 99.4867 1310.15 463.53
3163 0 53.1171 13.1973 701 105.919 1309.75 462.425
3164 0 54.1689 13.3656 724 106.033 1309.74 462.206
3165 0 55.236 13.2703 733 106.262 1309.53 461.254
3166 0 57.0936 13.0663 746 105.044 1309.85 460.831
3167 0 59.1082 13.1454 777 102.732 1309.29 458.66
3168 0 60.1279 14.5024 872 91.7064 1309.63 457.569
3169 0 63.0246 13.7724 868 105.279 1309.72 457.243
3170 0 64.0227 13.9482 893 99.9283 1309.64 457.001
3171 0 66.0537 14.034 927 101.813 1309.31 455.589
3172 0 68.1057 13.9489 950 106.687 1309.61 455.725
3173 0 72.1086 14.1453 1020 104.267 1309.08 454.179
3174 0 73.164 14.0643 1029 102.087 1309.26 453.296
3175 0 73.1949 14.2086 1040 105.978 1309.38 452.846
3176 0 78.1072 13.904 1086 102.278 1309.21 451.23
3177 0 80.1826 14.018 1124 99.653 1309.18 449.552
3178 0 83.1049 13.6213 1132 99.667 1309.06 449.261
3179 0 85.1294 13.8847 1182 96.8164 1308.99 446.947
3180 0 88.1649 13.9171 1227 102.976 1308.53 446.378
3181 0 90.2827 13.6903 1236 103.877 1308.29 445.391
3182 1 47.0606 12.9833 611 100.861 1307.94 465.74
3183 0 48.0456 13.5496 651 102.78 1307.63 465.278
3184 0 50.1405 13.2228 663 113.513 1307.86 464.689
3185 0 52.1241 12.9307 674 112.501 1307.73 464.392
3186 0 53.038 13.3112 706 109.834 1307.75 462.711
3187 0 56.071 13.1975 740 106.807 1307.54 461.37
3188 0 58.0934 13.0652 759 106.379 1307.34 460.889
3189 0 59.0435 13.1937 779 104.245 1307.22 459.552
3190 0 62.1035 13.558 842 97.1651 1306.91 457.988
3191 0 62.1148 14.0385 872 99.0986 1307.08 457.922
3192 0 65.0897 13.5352 881 100.504 1307.18 456.721
3193 0 67.0541 13.6904 918 97.3017 1306.48 456.667
3194 0 68.0959 13.716 934 101.846 1306.81 455.549
3195 0 71.0761 13.4926 959 102.039 1307.23 454.198
3196 0 73.0596 13.3453 975 112.141 1306.66 453.648
3197 0 75.0988 13.4223 1008 113.719 1306.67 452.497
3198 0 78.1076 13.5454 1058 117.463 1306.64 451.159
3199 0 80.0639 13.5642 1086 113.115 1306.53 450.222
3200 0 82.0743 13.5365 1111 114.513 1306.46 450.238
3201 0 85.2155 13.683 1166 105.407 1306.76 447.584
3202 0 89.1834 13.6124 1214 108.469 1306.59 445.506
3203 0 91.1116 13.7085 1249 112.204 1306.13 445.501
3204 0 94.1313 13.7361 1293 119.813 1306.55 443.427
3205 1 47.0404 12.0747 568 124.915 1305.65 467.336
3206 0 49.1121 11.9115 585 121.549 1305.47 468.197
3207 0 50.1402 12.8839 646 116.429 1306.34 466.926
3208 0 52.1057 12.7241 663 116.958 1306.6 465.443
3209 0 54.0708 12.7425 689 116.488 1306.57 463.93
3210 0 56.1732 12.7463 716 110.274 1306.59 463.962
3211 0 57.1528 12.9127 738 115.028 1306.55 462.56
3212 0 59.1926 13.076 774 108.164 1306.76 461.258
3213 0 61.0968 13.1922 806 109.029 1306.81 460.012
3214 0 62.2031 13.472 838 106.307 1306.81 458.802
3215 0 63.1666 13.5356 855 113.058 1307.26 457.904
3216 0 66.0668 13.4712 890 101.12 1306.74 456.889
3217 0 69.0684 13.4649 930 96.1817 1306.95 454.926
3218 0 72.0842 12.7351 918 95.8682 1307.08 454.769
3219 0 74.1163 13.182 977 98.4616 1307.31 453.378
3220 0 77.1068 13.1895 1017 97.4602 1307.09 450.873
3221 0 79.1152 13.158 1041 120.951 1306.96 449.034
3222 0 84.1371 12.9788 1092 114.741 1307.25 447.582
3223 0 88.1244 12.8795 1135 112.689 1307.79 445.649
3224 1 47.0883 10.2573 483 96.6812 1307.36 466.64
3225 0 48.1401 11.4458 551 93.4537 1308 465.548
3226 0 49.0886 11.4283 561 89.6078 1308.02 464.524
3227 0 53.1435 11.8171 628 92.5414 1307.81 462.068
3228 0 54.0756 12.1681 658 91.3495 1307.59 461.609
3229 0 56.0645 12.3608 693 90.4863 1307.78 460.755
3230 0 57.0557 12.111 691 92.9725 1307.74 461.159
3231 0 58.0738 12.5702 730 90.1178 1308.07 458.481
3232 1 64.0353 15.3509 983 79.3672 1308.18 445.602
3233 0 66.0446 16.3677 1081 74.827 1308.82 444.071
3234 0 67.0849 14.7127 987 82.8723 1308.55 445.873
3235 0 68.1448 14.8067 1009 85.8731 1308.94 445.332
3236 0 69.0835 15.0687 1041 86.2392 1309.4 444.41
3237 0 70.1876 13.8486 972 97.714 1308.96 445.297
3238 0 72.1348 14.6947 1060 90.5915 1309.26 445.427
3239 0 72.0734 14.5546 1049 93.8818 1309.65 445.846
3240 0 74.2062 13.5164 1003 98.8983 1309.78 448.667
3241 0 74.1531 13.4182 995 96.5096 1310.1 448.024
3242 0 78.3405 14.4625 1133 95.4404 1310.58 443.26
3243 0 81.1294 13.3121 1080 96.512 1310.71 444.2
3244 0 84.2421 14.5652 1227 93.5591 1310.84 439.703
3245 0 86.4896 14.7879 1279 96.767 1310.94 438.621
3246 0 87.17 14.0759 1227 99.8704 1310.75 437.763
3247 0 91.3162 13.9625 1275 95.9051 1310.77 438.22
3248 0 97.4742 15.1322 1475 91.9837 1311.98 434.172
3249 0 99.3362 15.221 1512 93.672 1311.67 434.22
3250 0 103.4 15.1838 1570 90.6637 1312.13 431.997
3251 0 105.315 15.0216 1582 93.5898 1311.81 429.67
3252 0 109.318 15.5967 1705 90.1988 1312.05 427.405
3253 0 112.357 15.7978 1775 88.9555 1312.05 427.389
3254 0 116.383 15.1225 1760 91.2 1311.89 426.309
3255 0 120.245 14.72 1770 94.9847 1311.78 424.215
3256 0 124.315 14.8977 1852 93.3785 1311.9 421.426
3257 1 61.0608 12.0208 734 94.6117 1311.02 453.497
3258 0 63.0982 13.0432 823 99.051 1310.9 447.139
3259 0 69.0952 14.5886 1008 89.9663 1310.86 442.904
3260 0 69.0346 14.442 997 103.339 1310.95 443.18
3261 0 71.0976 13.5588 964 112.117 1311.36 442.772
3262 0 73.1051 13.0223 952 112.897 1310.77 443.075
3263 0 73.1741 13.4747 986 102.316 1310.5 442.396
3264 0 77.1053 12.8136 988 100.267 1310.81 443.05
3265 0 80.0982 13.2962 1065 98.846 1311.67 440.469
3266 0 81.0283 13.9951 1134 101.268 1310.76 438.478
3267 0 84.083 13.8316 1163 99.9286 1310.7 439.141
3268 0 86.168 13.6013 1172 106.91 1310.63 437.439
3269 0 92.0932 13.2149 1217 99.1002 1310.68 438.422
3270 0 93.231 13.6328 1271 98.9253 1310.61 438.15
3271 0 98.2038 13.2174 1298 99.2296 1310.69 438.013
3272 0 101.21 13.4572 1362 96.2394 1310.14 436.358
3273 0 105.457 13.0859 1380 96.6152 1310.21 435.022
3274 0 108.206 13.8532 1499 93.1401 1310.11 431.791
3275 1 59.0265 12.5029 738 95.6626 1309.76 457.528
3276 0 62.1452 12.6478 786 96.0534 1310.19 453.037
3277 0 64.0904 12.6852 813 89.3186 1309.92 451.191
3278 0 68.0639 14.6186 995 85.2593 1309.72 445.371
3279 0 68.0839 15.1431 1031 81.9137 1309.64 444.304
3280 0 72.0854 14.6493 1056 80.7159 1309.72 443.692
3281 0 73.1697 14.5689 1066 92.6088 1309.5 443.254
3282 0 76.1684 13.9822 1065 89.0282 1309.12 442.223
3283 0 78.0937 14.0472 1097 97.7985 1309.01 438.699
3284 0 80.1617 13.9343 1117 94.0707 1308.85 437.804
3285 0 83.2441 13.1421 1094 93.7724 1308.44 439.442
3286 0 85.153 13.4816 1148 103.431 1308.07 439.334
3287 0 86.1229 13.5388 1166 100.834 1308.12 443.068
3288 0 90.1725 13.6627 1232 105.91 1308 442.551
3289 0 93.0981 13.9745 1301 103.064 1308.48 441.956
3290 0 97.2283 13.5352 1316 107.391 1308.34 442.541
3291 0 98.2227 13.7646 1352 104.868 1308.24 437.369
3292 0 103.368 13.3988 1385 109.569 1307.98 435.079
3293 0 107.36 13.301 1428 111.971 1308.1 433.559
3294 0 110.27 13.7118 1512 106.444 1308.24 429.294
3295 0 115.086 13.5463 1559 111.39 1308.29 433.746
3296 0 119.068 13.8408 1648 102.411 1308.24 428.228
3297 1 64.0767 15.8092 1013 87.8865 1307.76 447.843
3298 0 65.0451 15.5431 1011 84.1701 1307.51 448.437
3299 0 68.1099 15.7246 1071 80.4174 1307.62 446.528
3300 0 67.0815 15.9209 1068 80.6142 1307.55 446.492
3301 0 67.0671 15.7752 1058 79.7098 1307.46 446.392
3302 0 70.2041 15.17 1065 86.3784 1307.88 446.25
3303 0 73.0764 15.5591 1137 97.1196 1308.03 443.879
3304 0 72.0989 15.9226 1148 99.257 1307.56 445.3
3305 0 75.0944 15.2475 1145 102.12 1307.22 444.901
3306 0 76.2407 14.7297 1123 102.854 1307.24 444.682
3307 0 78.1919 14.5795 1140 106.925 1307.39 443.894
3308 0 81.2918 14.0851 1145 105.526 1307.1 444.466
3309 0 82.206 14.1595 1164 101.558 1307.17 444.674
3310 0 85.1703 13.6902 1166 98.8714 1307.15 445.22
3311 0 87.3659 13.8727 1212 94.0932 1307.11 444.136
3312 0 90.2581 13.3506 1205 93.3253 1306.98 442.35
3313 0 94.3415 13.1119 1237 93.8892 1307 442.669
3314 0 99.4974 14.5029 1443 86.9709 1306.8 438.841
3315 0 99.5382 13.8138 1375 88.8967 1307.35 438.516
3316 1 54.4414 12.2701 668 86.5644 1306.39 461.793
3317 0 55.1126 12.665 698 80.5473 1307.66 458.745
3318 0 57.1286 12.7607 729 89.3141 1307.26 457.066
3319 0 59.1084 13.0438 771 85.6265 1307.66 456.23
3320 0 60.1246 13.4887 811 88.4747 1307.3 456.843
3321 0 62.2048 13.1823 820 87.2756 1307.19 457.966
3322 0 62.1449 13.3398 829 92.1182 1307.53 458.227
3323 0 64.2221 13.4222 862 92.8132 1307.35 454.777
3324 0 67.1483 13.567 911 92.685 1307.14 454.243
3325 0 70.2886 13.4588 946 87.3404 1307.11 454.089
3326 0 71.3835 13.4905 963 100.798 1307.19 454.991
3327 0 74.2417 13.1732 978 97.9898 1307.32 453.657
3328 0 76.2808 13.6338 1040 91.0808 1307.01 450.388
3329 0 77.2228 13.8042 1066 95.8349 1307.3 450.719
3330 0 79.0999 13.818 1093 95.065 1307.63 449.97
3331 0 83.1185 13.3544 1110 98.3261 1307.5 448.923
3332 0 86.1276 13.4336 1157 94.8902 1307.42 446.889
3333 0 90.0793 13.6435 1229 90.0814 1307.57 445.273
3334 0 93.1392 13.8073 1286 92.8282 1307.42 443.636
3335 0 95.2051 13.8228 1316 90.8746 1307.73 442.815
3336 1 50.0996 12.2356 613 94.292 1308.24 463.093
3337 0 52.0945 12.5541 654 93.3593 1307.58 461.301
3338 0 53.2401 12.8287 683 90.3909 1308.19 463.19
3339 0 54.0367 13.0282 704 90.5028 1308.54 461.295
3340 0 56.2524 13.475 758 93.0567 1308.77 460.124
3341 0 59.2274 12.8825 763 109.132 1308.73 460.064
3342 0 61.1052 12.8303 784 106.153 1308.56 458.897
3343 0 61.196 13.2035 808 109.36 1308.47 458.595
3344 0 65.1964 12.9762 846 111.197 1308.85 457.293
3345 0 66.1253 13.0359 862 113.535 1308.61 456.869
3346 0 68.1602 12.9988 886 112.81 1308.79 455.099
3347 0 69.3075 12.8413 890 119.166 1308.65 454.527
3348 0 72.1235 12.95 934 111.6 1308.77 453.224
3349 0 75.1338 13.1233 986 105.562 1308.83 452.268
3350 0 77.069 13.157 1014 104.274 1308.66 451.524
3351 0 78.2027 13.0175 1018 101.584 1308.97 450.253
3352 0 81.1711 13.1944 1071 96.7311 1309.15 449.734
3353 0 84.1483 12.6562 1065 98.6235 1309.38 447.684
3354 0 87.1361 12.7617 1112 99.6601 1309.58 445.799
3355 0 89.4268 12.882 1152 95.0425 1309.1 444.107
3356 1 46.1044 11.6475 537 96.54 1308.77 463.894
3357 0 48.1591 11.5658 557 95.3214 1309.45 464.327
3358 0 50.0814 11.8008 591 92.1117 1309.02 464.469
3359 0 51.1149 13.1664 673 88.4576 1309.08 463.076
3360 0 53.1275 12.5171 665 104.179 1309.22 462.454
3361 0 53.0612 12.8342 681 114.062 1309.42 460.579
3362 0 55.1076 12.8295 707 114.102 1309.49 459.53
3363 0 58.1023 12.8911 749 110.104 1309.48 458.475
3364 0 59.216 13.0708 774 110.114 1309.63 457.78
3365 0 63.0541 13.306 839 108.619 1309.6 456.383
3366 0 64.1245 13.2711 851 109.392 1309.65 454.928
3367 0 66.1788 13.6449 903 114.739 1310.1 452.589
3368 0 70.222 13.2437 930 115.511 1310.08 452.929
3369 0 71.2492 13.1651 938 111.361 1310.17 453.463
3370 0 73.2126 13.1262 961 120.272 1310.16 451.282
3371 0 77.3979 13.1657 1019 111.619 1310.25 449.814
3372 0 79.4217 13.3717 1062 113.976 1310.6 449.104
3373 0 82.1568 13.4742 1107 115.523 1310.9 446.546
3374 0 82.3513 13.4788 1110 115.103 1310.61 445.254
3375 0 87.2914 13.4721 1176 117.258 1310.67 444.204
3376 0 90.3239 13.6287 1231 118.58 1310.61 443.404
3377 0 91.2927 13.3746 1221 117.287 1310.57 442.265
3378 0 96.3599 13.4081 1292 119.795 1309.89 440.454
3379 1 51.256 12.8375 658 124.751 1310.35 462.696
3380 0 53.2112 12.7041 676 118.692 1309.9 462.132
3381 0 54.0878 12.4058 671 112.7 1309.8 461.842
3382 0 55.2672 13.5885 751 106.415 1309.4 460.161
3383 0 58.2761 12.8526 749 113.973 1309.92 458.864
3384 0 57.3651 13.3008 763 110.09 1310.02 458.802
3385 0 60.2561 13.4426 810 110.251 1309.51 457.581
3386 0 62.4011 13.1088 818 115.804 1310.2 456.72
3387 0 63.3615 13.7307 870 102.49 1310 455.622
3388 0 65.2505 13.5325 883 108.187 1309.9 454.204
3389 0 67.2558 13.7832 927 103.385 1309.86 452.835
3390 0 70.3939 14.5751 1026 106.612 1309.67 449.257
3391 0 71.5754 14.0132 1003 109.566 1309.92 449.516
3392 0 75.5265 14.5247 1097 102.31 1309.68 448.234
3393 0 76.4998 14.1177 1080 106.378 1309.97 447.769
3394 0 78.65 13.8716 1091 99.4913 1309.62 446.373
3395 0 80.5229 13.8346 1114 110.934 1309.47 444.636
3396 0 83.5418 14.5317 1214 107.375 1309.31 443.95
3397 0 86.605 14.214 1231 115.624 1309.43 441.456
3398 0 88.6047 14.0173 1242 112.587 1309.76 442.073
3399 0 91.6713 14.1375 1296 95.1181 1309.26 439.178
3400 0 95.6021 14.0373 1342 100.845 1309.29 438.353
3401 0 98.8345 13.9324 1377 98.069 1309.52 438.073
3402 0 101.346 13.7154 1390 103.25 1309.48 435.652
3403 0 104.274 13.7235 1431 98.0874 1309.29 433.523
3404 1 53.063 12.6076 669 90.5904 1308.85 459.405
3405 0 55.2209 12.8756 711 91.7089 1308.75 461.626
3406 0 58.2983 14.2028 828 83.57 1308.48 456.581
3407 0 60.1718 14.8907 896 85.0848 1308.24 456.279
3408 0 62.3118 14.3633 895 83.438 1308.07 455.96
3409 0 62.2892 14.224 886 90.2427 1308.09 455.371
3410 0 64.3216 14.1788 912 92.7336 1307.73 454.583
3411 0 65.2621 13.9897 913 88.9847 1307.94 454.795
3412 0 65.3914 14.1456 925 89.5914 1307.78 453.453
3413 0 71.416 13.9465 996 91.988 1308.02 452.511
3414 0 71.3432 14.0588 1003 92.2692 1307.92 451.453
3415 0 74.4188 13.3434 993 90.7633 1307.82 450.737
3416 0 76.61 13.3533 1023 92.9501 1307.7 449.132
3417 0 78.7769 13.5446 1067 92.2371 1307.67 446.884
3418 0 82.5755 13.0184 1075 89.3126 1307.94 446.172
3419 0 84.654 13.4311 1137 88.7617 1307.75 444.598
3420 0 88.4159 13.5496 1198 84.7112 1307.68 443.02
3421 0 88.6712 13.6008 1206 91.3781 1308.05 442.692
3422 0 92.4319 13.8805 1283 84.7108 1308.21 441.469
3423 0 96.4141 13.8984 1340 86.1478 1307.95 440.514
3424 0 100.425 14.4188 1448 86.8418 1307.92 439.329
3425 1 51.2522 12.0385 617 84.5997 1307.44 463.801
3426 0 51.181 12.7 650 85.6062 1307.37 464.095
3427 0 55.315 13.4864 746 79.5643 1306.8 463.299
3428 0 56.2136 14.1603 796 79.157 1306.98 463.825
3429 0 58.2822 13.9665 814 80.1585 1307.02 462.73
3430 0 58.218 13.793 803 91.3425 1306.89 463.314
3431 0 60.2124 13.6351 821 91.5518 1306.76 461.744
3432 0 63.263 13.2621 839 89.6472 1306.95 460.478
3433 0 68.3716 16.0739 1099 88.2857 1306.94 456.687
3434 0 65.3858 15.5691 1018 90.1925 1306.82 457.062
3435 0 68.3802 14.7265 1007 88.2085 1306.71 456.486
3436 0 69.3926 14.4396 1002 91.1717 1306.8 456.686
3437 0 73.562 14.0154 1031 90.7905 1306.2 456.581
3438 0 75.5102 14.2365 1075 87.4381 1306.13 454.821
3439 0 78.5486 14.0168 1101 83.3778 1306.43 454.056
3440 0 80.5967 14.008 1129 87.4712 1306.97 452.475
3441 0 83.6454 14.1789 1186 100.77 1306.41 451.878
3442 0 84.3588 14.5332 1226 93.6158 1306.37 450.021
3443 0 88.4704 14.3551 1270 89.9181 1306.02 448.22
3444 0 92.4246 14.2927 1321 85.9667 1305.91 447.316
3445 0 95.41 13.8874 1325 84.3442 1305.68 446.337
3446 0 98.3208 14.117 1388 104.396 1305.99 443.932
3447 1 52.0514 13.064 680 99.7426 1306.61 466.556
3448 0 52.0505 13.0642 680 93.1735 1306.35 466.112
3449 0 56.1074 12.9217 725 94.2924 1305.63 465.168
3450 0 58.0706 13.1564 764 89.5759 1305.52 464.322
3451 0 60.0737 13.3669 803 87.8792 1305.58 462.843
3452 0 62.0746 13.4032 832 90.5553 1305.57 461.662
3453 0 64.0853 13.5288 867 96.9423 1305.85 461.785
3454 0 66.0921 13.1029 866 101.327 1306.04 459.722
3455 0 68.0898 13.4969 919 90.4374 1305.55 458.273
3456 0 69.1434 13.9276 963 82.1828 1305.89 457.238
3457 0 71.1359 13.4531 957 84.3856 1305.92 456.136
3458 0 73.1371 13.4679 985 100.987 1306.39 458.09
3459 0 76.1512 13.4732 1026 97.2515 1306.62 455.54
3460 0 79.1541 13.4295 1063 98.3396 1306.5 454.88
3461 0 82.2973 13.3783 1101 97.9064 1306.42 453.888
3462 0 85.1056 12.9016 1098 92.98 1306.54 452.688
3463 0 87.2369 13.171 1149 85.0261 1306.3 449.923
3464 1 46.0439 11.6628 537 82.2812 1306.94 470.587
3465 0 46.3734 12.6581 587 79.0307 1305.78 467.838
3466 0 46.3734 12.6581 587 157.625 1305.78 467.838
3467 0 50.0318 12.6919 635 81.0614 1306.2 467.852
3468 0 53.0561 12.3643 656 80.7561 1306.61 466.579
3469 0 53.0959 12.6187 670 82.8791 1306.37 466.218
3470 0 56.0424 12.4727 699 81.6938 1305.82 466.492
3471 0 56.0624 13.3423 748 81.8008 1306.33 464.648
3472 0 59.0189 12.6739 748 83.9385 1305.95 464.142
3473 0 60.0663 13.0023 781 88.5916 1306.13 463.963
3474 0 61.0871 13.1452 803 82.5442 1306.38 461.792
3475 0 63.131 13.1473 830 81.2157 1306.85 459.988
3476 0 65.1061 13.9004 905 80.7635 1307.11 457.434
3477 0 68.2743 13.1235 896 84.5804 1307.27 457.214
3478 0 71.1661 13.0399 928 88.1379 1307.3 455.228
3479 0 75.1323 13.1901 991 82.8436 1307.31 454.48
3480 0 76.1812 13.5204 1030 83.2796 1307.13 453.46
3481 0 79.1437 13.0522 1033 84.3185 1307.21 452.242
3482 1 37.116 10.777 400 89.2875 1307.36 471.67
3483 0 39.1641 11.2858 442 81.733 1307.39 471.023
3484 0 41.1804 10.539 434 85.3134 1307.52 471.021
3485 0 40.1865 11.372 457 80.9212 1307.99 469.615
3486 0 43.1497 11.5876 500 78.954 1308.19 468.634
3487 0 44.5049 11.9313 531 78.6083 1308.73 467.695
3488 0 46.0398 11.8159 544 86.5864 1307.78 468.697
3489 0 47.1094 12.5665 592 80.7568 1307.34 467.52
3490 0 48.069 12.6277 607 83.3806 1307.46 467.522
3491 0 49.1796 12.5052 615 85.7561 1307.53 465.52
3492 0 51.1509 13.2158 676 81.784 1307.44 465.286
3493 0 52.106 13.0503 680 85.2897 1307.89 464.329
3494 0 52.2518 13.4924 705 79.9532 1307.75 463.078
3495 0 54.2973 13.4813 732 80.1175 1308.09 462.857
3496 0 57.1421 12.8102 732 80.2705 1308.07 461.466
3497 0 58.2043 13.2293 770 80.0377 1308.06 461.208
3498 0 59.2021 13.1752 780 78.7667 1308.06 460.4
3499 0 60.3727 13.6817 826 79.1961 1308.8 459.999
3500 0 64.1413 13.2988 853 79.5053 1308.6 459.484
3501 0 65.2099 13.6329 889 79.3656 1308.81 456.516
3502 0 67.3829 13.7424 926 76.4255 1308.87 456.875
3503 0 69.2472 13.719 950 78.0326 1309 454.953
3504 0 71.3178 14.1199 1007 76.3386 1308.82 452.174
3505 0 73.5256 13.6007 1000 86.227 1309.04 451.216
3506 0 77.3245 13.7731 1065 85.7164 1308.89 449.769
3507 0 79.5047 14.0746 1119 87.1528 1308.95 449.058
3508 0 80.46 14.2804 1149 86.356 1308.83 446.719
3509 0 84.4937 14.001 1183 84.4472 1308.76 446.691
3510 0 85.5291 14.3577 1228 85.816 1308.66 443.858
3511 0 90.5656 13.9788 1266 81.6224 1308.41 442.006
3512 0 92.4802 14.1328 1307 81.9487 1308.27 440.965
3513 0 96.5445 14.1075 1362 82.3157 1308.54 440.102
3514 1 50.276 12.6899 638 80.9749 1308.26 463.16
3515 0 53.4787 12.3975 663 84.1946 1308.44 462.232
3516 0 53.0602 13.1549 698 85.6404 1308.36 462.332
3517 0 57.2118 14.2803 817 79.2326 1308.47 460.923
3518 0 58.2013 13.7969 803 76.9888 1308.65 460.012
3519 0 60.1959 13.0906 788 81.8058 1308.3 459.136
3520 0 61.0865 13.1289 802 80.601 1308.62 459.147
3521 0 62.1201 13.2002 820 81.45 1308.18 457.754
3522 0 64.1431 13.2984 853 80.0352 1308.14 457.674
3523 0 65.1516 13.4609 877 76.5644 1308.14 456.649
3524 0 67.2358 13.5493 911 72.8156 1308.13 455.252
3525 0 68.2124 13.3847 913 81.5137 1308.05 454.619
3526 0 72.3741 13.1953 955 80.2073 1307.97 452.509
3527 0 74.2393 13.6316 1012 81.4407 1308.1 451.685
3528 0 75.2321 13.0928 985 78.9066 1308.01 451.817
3529 0 76.3885 13.1302 1003 88.327 1308.02 450.866
3530 0 79.496 13.4346 1068 100.355 1307.94 449.955
3531 0 81.8366 14.0035 1146 92.2382 1307.98 447.976
3532 0 83.534 13.3479 1115 102.702 1308.25 447.4
3533 0 86.4658 13.3463 1154 97.065 1308.21 446.198
3534 0 91.4981 13.279 1215 97.6428 1308.12 444.228
3535 1 46.1763 11.2829 521 102.745 1307.67 466.94
3536 0 48.1956 11.7853 568 102.694 1307.79 465.602
3537 0 49.1238 12.3769 608 83.0378 1307.9 463.342
3538 0 53.0241 12.7301 675 82.8518 1307.96 463.056
3539 0 55.1415 12.6039 695 86.3122 1307.98 463.521
3540 0 57.0682 12.9144 737 82.6092 1307.93 461.757
3541 0 57.0327 13.3958 764 84.61 1307.65 461.551
3542 0 59.0509 13.6154 804 95.459 1307.96 460.985
3543 0 60.0287 13.4436 807 86.4783 1307.74 460.698
3544 0 63.0257 13.55 854 95.9567 1307.59 460.317
3545 0 66.1039 13.6149 900 91.5611 1307.23 457.917
3546 0 66.0143 13.4365 887 90.4915 1306.92 457.6
3547 0 68.1134 13.5656 924 90.342 1307.39 457.208
3548 0 70.0538 13.9464 977 85.7584 1307.31 455.649
3549 0 74.0754 13.8373 1025 88.2683 1307.63 455.14
3550 0 76.0416 13.3743 1017 85.5143 1307.6 454.673
3551 0 79.0769 13.3161 1053 88.7635 1307.37 452.538
3552 0 81.0606 13.5084 1095 89.4457 1307.11 451.651
3553 0 83.0977 13.6466 1134 86.224 1307.36 449.739
3554 1 42.019 12.1136 509 89.1709 1307.57 469.491
3555 0 44.011 12.1561 535 87.8636 1307.83 468.714
3556 0 46.0724 12.3501 569 84.949 1307.48 467.996
3557 0 48.0884 12.7889 615 86.1268 1307.11 467.969
3558 0 50.1765 12.456 625 85.688 1307.06 467.874
3559 0 51.0893 12.6445 646 89.6827 1307.07 467.681
3560 0 53.0709 13.0392 692 82.9422 1307.07 466.082
3561 0 56.1395 12.8252 720 85.4083 1307.22 465.303
3562 0 56.2131 13.431 755 76.1285 1307.37 464.318
3563 0 57.0864 13.0329 744 78.8723 1307.27 464.438
3564 0 59.0538 13.9195 822 77.219 1307.48 462.629
3565 0 62.1974 13.4893 839 74.975 1307.27 462.372
3566 0 64.1293 13.3948 859 72.4121 1307.58 461.123
3567 0 64.0918 13.9488 894 72.9575 1307.38 459.959
3568 0 68.2333 13.3659 912 71.8388 1307.5 458.886
3569 0 70.2725 14.1449 994 73.2918 1307.84 459.079
3570 0 72.1498 13.5829 980 77.0459 1307.75 458.122
3571 0 74.2174 14.0533 1043 76.9032 1307.82 457.039
3572 0 77.3345 14.0041 1083 81.4026 1307.71 455.27
3573 0 80.1692 14.0952 1130 80.0531 1307.54 453.5
3574 0 81.1982 14.0767 1143 78.5538 1307.58 452.291
3575 0 85.2633 13.7222 1170 84.1504 1307.27 450.668
3576 0 87.3038 13.516 1180 84.417 1307.37 449.782
3577 0 91.161 13.6133 1241 86.0774 1307.67 447.735
3578 0 92.1124 13.8635 1277 84.8066 1307.46 446.43
3579 0 95.3144 13.9748 1332 80.1539 1307.78 443.195
3580 0 100.276 13.9315 1397 83.9434 1307.81 441.797
3581 1 55.2337 12.2208 675 85.4682 1307.9 462.627
3582 0 55.2337 12.2208 675 171.279 1307.9 462.627
3583 0 59.1985 13.6997 811 85.4735 1307.43 460.203
3584 0 58.2486 13.8201 805 83.8 1307.35 459.871
3585 0 61.1531 13.409 820 80.0159 1307.58 458.156
3586 0 64.1316 13.8465 888 87.0439 1307.3 457.257
3587 0 66.2778 13.6999 908 86.9229 1307.53 456.493
3588 0 68.131 13.7529 937 82.7609 1307.66 454.947
3589 0 69.1309 14.0169 969 87.5366 1307.41 454.439
3590 0 74.187 13.5199 1003 80.6002 1307.71 452.399
3591 0 75.1995 13.6703 1028 81.6605 1307.68 452.322
3592 0 76.3302 13.9918 1068 90.3221 1307.9 451.082
3593 0 81.2317 14.0339 1140 94.8842 1308.47 449.961
3594 0 82.2805 14.0738 1158 102.796 1308.16 448.791
3595 0 85.2391 14.1367 1205 104.695 1308.44 447.305
3596 0 88.1548 13.9187 1227 101.033 1308.65 445.683
3597 0 92.0948 13.7141 1263 102.648 1308.58 445.363
3598 0 96.1449 13.8437 1331 103.234 1308.69 443.922
3599 0 97.1211 14.3841 1397 103.356 1308.76 440.943
3600 0 104.07 13.9714 1454 101.581 1309.65 439.568
3601 0 105.153 14.436 1518 100.105 1309.11 437.375
3602 0 109.279 14.376 1571 99.7989 1309.26 434.331
3603 1 58.174 12.2735 714 100.311 1308.98 459.746
3604 0 59.1601 12.8296 759 95.8406 1309.31 458.452
3605 0 62.0428 13.6196 845 95.9917 1309.58 456.469
3606 0 63.0946 13.3609 843 92.5801 1309.55 457.72
3607 0 66.152 13.3934 886 90.2698 1309.7 455.252
3608 0 66.151 13.9681 924 101.136 1309.97 454.15
3609 0 69.2278 13.7372 951 100.212 1310.14 454.043
3610 0 72.2854 14.2214 1028 97.8181 1310.85 452.152
3611 0 74.368 14.0786 1047 97.0363 1310.31 452.183
3612 0 77.2811 14.1302 1092 100.022 1310.65 449.977
3613 0 78.237 14.1877 1110 94.1306 1310.54 448.892
3614 0 81.4347 14.0604 1145 103.232 1310.39 448.008
3615 0 84.3054 13.9849 1179 100.497 1310.6 446.559
3616 0 86.1858 14.0162 1208 102.566 1310.44 445.579
3617 0 90.3046 14.0414 1268 101.308 1310.37 444.126
3618 0 92.1618 14.5288 1339 109.377 1310.29 441.948
3619 0 96.1235 14.5958 1403 107.043 1310.29 442.387
3620 0 99.1968 14.063 1395 108.434 1310.54 440.323
3621 0 102.179 14.4648 1478 104.727 1310.19 439.269
3622 0 106.21 14.17 1505 94.7183 1309.6 436.957
3623 0 109.226 14.1542 1546 95.5078 1309.3 434.396
3624 1 58.0314 12.6655 735 99.8 1309.77 458.543
3625 0 60.0973 12.5796 756 102.608 1309.76 455.971
3626 0 61.1967 13.138 804 97.097 1309.74 456.621
3627 0 63.1031 13.0897 826 89.2058 1309.99 455.769
3628 0 64.1172 13.5533 869 95.7135 1309.61 455.318
3629 0 66.1768 13.5546 897 99.0881 1309.47 455.47
3630 0 70.0562 13.2037 925 96.8768 1308.78 454.484
3631 0 72.1276 13.6009 981 103.832 1308.84 453.058
3632 0 74.076 13.5806 1006 88.6262 1308.32 452.324
3633 0 76.1105 13.3621 1017 84.7227 1308.27 451.219
3634 0 78.0802 13.7807 1076 93.8764 1308.34 450.479
3635 0 79.0973 13.7679 1089 95.4398 1308.44 449.43
3636 0 83.1179 13.8117 1148 93.4068 1308.47 448.754
3637 0 85.1342 13.5433 1153 92.2402 1308.5 447.457
3638 0 87.1314 13.8182 1204 94.5249 1308.14 447.141
3639 0 90.095 13.9963 1261 90.9873 1307.8 444.114
3640 0 93.1064 13.8658 1291 94.3695 1308.03 444.329
3641 0 95.2094 14.1057 1343 100.875 1307.79 443.078
3642 0 98.176 13.9647 1371 101.697 1307.92 441.058
3643 0 102.141 14.2549 1456 94.206 1308.11 439.876
3644 0 103.186 13.9554 1440 95.7799 1307.88 438.706
3645 1 56.0858 11.9995 673 86.7533 1307.63 462.9
3646 0 57.0747 12.3347 704 102.932 1307.79 462.324
3647 0 60.0603 12.9703 779 92.7458 1308.37 461
3648 0 61.0382 12.7297 777 89.2368 1308.15 460.942
3649 0 61.0602 13.0036 794 97.3564 1308.05 460.229
3650 0 64.082 13.0146 834 104.902 1308.08 459.76
3651 0 66.0791 13.3779 884 98.2613 1308.42 458.788
3652 0 69.1588 12.9123 893 94.8802 1308.21 457.508
3653 0 71.0263 12.9529 920 103.486 1307.99 456.802
3654 0 73.1177 13.6903 1001 93.957 1307.86 455.41
3655 0 76.1243 13.3334 1015 92.1941 1308.08 454.306
3656 0 78.0588 13.3233 1040 99.0952 1307.52 453.12
3657 0 81.0762 13.4565 1091 97.451 1307.68 451.317
3658 0 84.1512 13.8679 1167 99.126 1308.37 450.143
3659 0 86.0446 13.3187 1146 100.834 1308.31 449.27
3660 0 88.1063 13.7334 1210 100.064 1308.04 448.648
3661 0 93.1158 13.5852 1265 96.0237 1308.23 447.798
3662 0 95.2386 14.1644 1349 89.3973 1308.34 445.869
3663 0 99.4476 13.8364 1376 89.5109 1308.26 443.838
3664 1 52.193 12.1855 636 87.1572 1308.03 465.231
3665 0 56.1532 12.2344 687 85.4993 1308.15 465.753
3666 0 56.0338 12.9029 723 88.9613 1307.8 464.793
3667 0 58.0818 12.534 728 95.6951 1307.52 464.412
3668 0 59.0834 12.5924 744 104.194 1307.38 462.958
3669 0 62.0681 12.4057 770 98.3312 1307.65 462.983
3670 0 62.1312 12.8921 801 92.8365 1307.42 460.725
3671 0 66.1227 13.0515 863 98.3314 1307.16 459.57
3672 0 68.2118 13.0769 892 104.355 1307.15 459.414
3673 0 69.0626 12.9303 893 102.348 1306.94 458.289
3674 0 70.2846 13.2319 930 93.9409 1306.38 457.396
3675 0 74.1313 13.0714 969 95.355 1306.55 455.424
3676 0 76.1717 13.6402 1039 91.8691 1306.72 454.854
3677 0 79.2443 13.0104 1031 91.7362 1307.12 454.032
3678 0 81.2679 13.1294 1067 93.1518 1306.89 452.612
3679 0 84.3194 13.3065 1122 88.6979 1306.9 449.808
3680 0 87.4268 13.0509 1141 92.4969 1307.06 449.369
3681 0 89.4244 13.0054 1163 96.5924 1307.27 446.673
3682 0 92.3669 13.1974 1219 101.582 1307.21 445.738
3683 0 95.3452 12.9215 1232 98.9716 1307.34 443.765
3684 0 97.4389 13.2391 1290 90.7566 1307.72 441.2
3685 0 100.377 12.9412 1299 88.7175 1307.91 441.058
3686 0 105.282 12.9461 1363 83.5385 1307.87 439.494
3687 0 107.471 12.5987 1354 90.3848 1307.74 438.119
3688 1 60.0806 11.5179 692 88.013 1307.69 462.449
3689 0 63.1086 11.916 752 86.1184 1307.16 460.968
3690 0 65.1437 11.82 770 90.3169 1307.14 459.287
3691 0 66.0709 12.1839 805 87.4062 1307.24 457.739
3692 0 70.1276 11.7785 826 80.4879 1307.59 455.937
3693 0 71.1567 12.1563 865 75.9827 1307.42 454.535
3694 0 74.2022 11.8325 878 77.6321 1307.36 453.697
3695 0 75.1528 12.1619 914 78.6893 1307.57 451.881
3696 0 77.1067 12.1001 933 83.1061 1307.99 451.29
3697 0 79.2089 12.7511 1010 84.1772 1307.94 447.839
3698 0 83.2506 12.5885 1048 72.9103 1308.08 448.323
3699 0 85.3435 12.7368 1087 73.5428 1308.41 446.62
3700 0 88.2905 12.6854 1120 75.7616 1308.49 445.112
3701 0 91.3054 12.5951 1150 77.4504 1308.02 443.544
3702 0 93.3427 12.1381 1133 92.233 1308.12 443.739
3703 0 96.2839 12.0581 1161 94.907 1308.46 441.875
3704 0 99.3082 12.2951 1221 92.4169 1308.87 440.301
3705 0 100.267 12.5864 1262 89.9746 1308.53 438.571
3706 0 105.578 12.9288 1365 86.7897 1309.09 437.784
3707 0 107.343 12.6976 1363 93.4666 1309.16 436.649
3708 0 111.496 12.5027 1394 99.7826 1308.88 435.334
3709 1 59.1201 11.316 669 93.2152 1309.29 459.676
3710 0 60.2314 12.0867 728 99.2624 1309.08 456.242
3711 0 63.2065 12.1823 770 91.561 1309.21 455.727
3712 0 65.0805 12.4922 813 99.5892 1309.31 456.501
3713 0 66.1104 12.5245 828 97.9855 1309.28 455.874
3714 0 67.0632 12.2869 824 97.0291 1309.11 454.044
3715 0 70.17 12.37 868 99.6659 1309.42 453.912
3716 0 71.0807 12.9571 921 97.8371 1309.91 453.558
3717 0 72.0797 13.1105 945 98.1164 1309.44 453.538
3718 0 76.088 12.985 988 96.3796 1309.3 451.221
3719 0 77.1751 13.5018 1042 93.6027 1309.6 450.871
3720 0 78.0919 13.3561 1043 92.3816 1310.02 450.155
3721 0 82.1287 13.5032 1109 95.6763 1309.54 449.207
3722 0 84.2682 13.8724 1169 116.634 1310.58 448.266
3723 0 86.3297 13.6569 1179 94.9559 1310.09 447.008
3724 0 87.1209 13.9576 1216 99.5896 1310.22 446.102
3725 0 90.2932 13.7552 1242 100.279 1310.05 445.18
3726 0 94.243 13.6031 1282 100.64 1310.36 444.095
3727 0 97.189 13.7258 1334 104.717 1310.24 441.852
3728 0 100.213 13.7806 1381 126.678 1310.04 441.692
3729 0 102.227 14.0765 1439 131.353 1310.06 438.591
3730 0 106.336 13.4103 1426 137.506 1309.82 436.458
3731 0 109.437 13.4323 1470 137.886 1309.33 436.407
3732 1 58.2159 11.8696 691 131.91 1309.09 460.952
3733 0 59.0413 12.4997 738 129.236 1309.44 459.905
3734 0 60.0165 13.0297 782 119.556 1309.76 459.71
3735 0 63.0339 13.7545 867 116.901 1309.4 457.415
3736 0 65.0407 14.2987 930 122.755 1309.34 456.441
3737 0 67.0709 14.9394 1002 105.093 1310.19 453.706
3738 0 69.0846 14.6053 1009 112.448 1309.9 453.789
3739 0 70.0467 13.9907 980 116.99 1309.78 454.744
3740 0 71.0314 13.3321 947 110.142 1309.24 453.64
3741 0 73.0504 13.1416 960 102.754 1309.23 454.22
3742 0 76.1156 13.4664 1025 104.528 1308.8 452.462
3743 0 78.031 14.0201 1094 104.346 1308.78 450.704
3744 0 80.0877 13.8473 1109 98.569 1308.67 448.547
3745 0 82.0719 13.7928 1132 99.5875 1308.45 447.803
3746 0 86.1464 14.0342 1209 94.4475 1308.31 447.056
3747 0 88.0777 14.2374 1254 97.2336 1308.15 445.081
3748 0 91.101 14.1272 1287 96.425 1308.29 444.499
3749 0 94.0958 14.4852 1363 92.8114 1307.99 443.729
3750 0 97.1206 14.0444 1364 95.4362 1307.94 443.061
3751 0 100.065 14.2708 1428 108.447 1308.09 442.651
3752 0 103.043 14.0815 1451 123.59 1308.21 441.245
3753 0 105.086 14.255 1498 114.955 1307.82 439.651
3754 0 111.147 13.8466 1539 120.967 1307.95 437.225
3755 1 62.1853 12.6075 784 119.128 1306.93 462.105
3756 0 63.0671 13.3826 844 124.379 1307.36 460.822
3757 0 65.099 13.0417 849 131.329 1307.36 460.484
3758 0 66.0214 13.3896 884 113.648 1306.85 458.63
3759 0 70.1042 13.3088 933 116.341 1306.77 457.543
3760 0 71.1221 13.5963 967 113.785 1306.78 456.826
3761 0 73.0927 13.777 1007 106.21 1307.34 455.296
3762 0 77.1278 13.536 1044 109.228 1307.38 455.155
3763 0 78.1584 13.9076 1087 107.833 1307.59 453.949
3764 0 80.1081 14.0186 1123 116.565 1307.09 452.541
3765 0 84.2633 13.529 1140 112.672 1307.21 451.539
3766 0 87.2497 13.5588 1183 115.91 1307.35 449.409
3767 0 91.409 13.6748 1250 113.782 1307.23 446.812
3768 0 94.3115 13.7099 1293 119.066 1307.12 445.224
3769 0 98.3555 13.8274 1360 120.303 1306.97 444.008
3770 1 53.1369 11.6491 619 109.144 1306.48 467.528
3771 0 55.0913 12.2161 673 113.421 1306.5 466.073
3772 0 57.0268 12.2574 699 127.199 1306.65 465.511
3773 0 58.033 12.9064 749 123.449 1306.83 464.479
3774 0 60.0974 12.6794 762 123.499 1306.81 463.151
3775 0 62.0195 12.5444 778 117.86 1306.63 462.591
3776 0 64.1006 12.4336 797 120.941 1307.03 461.386
3777 0 65.0818 12.8454 836 120.728 1306.89 460.768
3778 0 66.2023 12.7337 843 105.215 1306.88 457.88
3779 0 69.0827 13.0134 899 105.518 1306.52 457.785
3780 0 69.1601 13.1579 910 111.32 1306.29 457.002
3781 0 75.1667 13.0377 980 118.884 1306.37 455.644
3782 0 77.2162 13.1061 1012 114.31 1306.35 454.023
3783 0 78.1373 13.0027 1016 118.387 1306.21 454.197
3784 0 82.122 13.139 1079 108.18 1306.13 453.425
3785 1 43.1131 11.8757 512 99.248 1305.96 472.039
3786 0 43.0275 12.3642 532 116.476 1305.63 471.393
3787 0 46.0108 12.1493 559 120.42 1305.81 470.399
3788 0 46.0479 12.335 568 131.412 1305.75 470.379
3789 0 49.1045 12.6669 622 125.053 1306.17 469.211
3790 0 50.0413 13.0093 651 111.452 1305.96 468.072
3791 0 51.0424 12.8325 655 114.614 1305.99 468.25
3792 0 54.0241 12.5129 676 117.086 1306.06 468.584
3793 0 54.0577 13.3376 721 104.76 1305.9 466.8
3794 0 57.0271 12.9061 736 99.6033 1305.92 466.418
3795 0 56.0407 13.5616 760 108.416 1305.85 465.179
3796 0 58.0575 13.0216 756 116.511 1305.83 464.307
3797 0 60.0609 13.6029 817 113.514 1305.48 463.51
3798 0 62.0475 13.8765 861 114.805 1305.52 462.436
3799 0 63.102 14.1358 892 117.483 1305.84 461.994
3800 0 66.0665 13.9405 921 126.862 1305.58 459.704
3801 0 66.0714 13.8789 917 120.481 1305.76 459.302
3802 0 69.1875 14.1066 976 112.405 1305.81 458.243
3803 0 72.1973 13.7678 994 119.259 1305.84 456.609
3804 0 75.1404 14.3332 1077 121.215 1305.58 455.011
3805 0 78.0628 13.7069 1070 116.937 1305.87 453.528
3806 0 80.1407 14.0129 1123 108.943 1306.16 452.482
3807 0 84.287 14.0591 1185 114.435 1305.72 449.44
3808 0 86.1619 13.7764 1187 108.893 1306.05 448.261
3809 0 88.0923 13.8718 1222 117.012 1306.35 446.106
3810 1 47.0546 11.6248 547 112.367 1306.8 467.236
3811 0 48.0227 12.5566 603 103.577 1306.11 467.632
3812 0 49.0453 12.9472 635 100.343 1306.42 466.646
3813 0 53.0482 12.9505 687 98.8282 1306.36 465.246
3814 0 54.0552 12.7647 690 110.488 1306.69 464.355
3815 0 54.0284 12.9191 698 113.426 1306.69 463.976
3816 0 55.0345 13.5733 747 103.627 1306.88 462.921
3817 0 58.0697 12.9327 751 95.7763 1307.25 462.126
3818 0 58.0541 13.7802 800 99.245 1307.18 461.495
3819 0 61.1005 13.4041 819 103.357 1307.29 460.841
3820 0 60.1642 13.9119 837 105.072 1307.44 460.319
3821 0 65.048 13.1288 854 106.822 1307.25 458.614
3822 0 67.0487 13.6468 915 106.867 1307.94 457.342
3823 0 69.076 14.4623 999 104.068 1308.34 455.871
3824 0 71.0492 13.8355 983 109.235 1308.76 455.854
3825 0 71.0484 13.8638 985 111.435 1308.82 455.128
3826 0 74.1327 13.4758 999 112.958 1309.29 454.295
3827 0 77.2029 13.7171 1059 112.968 1309.34 452.901
3828 0 79.1207 13.9281 1102 115.724 1309 451.036
3829 0 82.104 13.5438 1112 116.201 1309.4 449.5
3830 0 83.0947 13.7072 1139 110.234 1309.74 449.276
3831 0 86.1557 13.9747 1204 104.237 1309.81 446.388
3832 0 90.1244 13.7144 1236 110.865 1309.88 446.395
3833 0 94.1118 14.2171 1338 105.638 1309.41 444.286
3834 0 97.1068 13.6551 1326 115.759 1309.9 442.668
3835 0 101.243 13.7886 1396 115.537 1310.29 440.214
3836 1 53.0508 12.7237 675 116.772 1310.11 462.31
3837 0 55.1203 13.3708 737 123.016 1309.8 461.741
3838 0 57.0656 12.7047 725 122.066 1309.77 462.381
3839 0 58.0818 13.1539 764 124.009 1310.19 462.755
3840 0 61.1345 13.1023 801 128.382 1310.29 461.479
3841 0 62.1388 13.325 828 111.876 1310.51 459.63
3842 0 65.0882 13.3358 868 103.972 1310.47 459.611
3843 0 66.1219 13.6868 905 119.093 1310.2 457.743
3844 0 67.1392 13.5241 908 106.752 1310.66 456.971
3845 0 71.159 13.4628 958 104.675 1310.6 454.931
3846 0 71.1629 13.5745 966 107.06 1310.77 453.663
3847 0 74.1872 13.5064 1002 105.551 1310.16 452.685
3848 0 77.1995 13.7048 1058 115.753 1310.38 450.713
3849 0 80.2614 13.456 1080 115.548 1310.3 449.931
3850 0 82.3991 13.9686 1151 116.669 1310.36 447.365
3851 0 85.3028 13.4579 1148 119.485 1310.87 446.348
3852 0 89.2855 13.384 1195 145.981 1310.71 445.289
3853 0 91.2504 13.4903 1231 142.845 1310.54 443.633
3854 1 49.0888 11.8357 581 140.449 1310.27 465.16
3855 0 49.1621 12.1232 596 145.094 1310.01 464.609
3856 0 53.1501 12.5682 668 141.419 1310.27 463.292
3857 0 54.2153 13.0775 709 141.76 1308.93 462.385
3858 0 54.1721 13.0879 709 137.904 1308.86 461.763
3859 0 58.2174 12.9686 755 141.731 1308.59 460.754
3860 0 59.1296 13.3943 792 139.093 1308.73 459.729
3861 0 60.2733 13.754 829 144.21 1308.88 459.094
3862 0 63.2964 13.4921 854 142.974 1308.69 457.601
3863 0 64.1102 13.8979 891 137.136 1308.13 456.493
3864 0 65.4053 14.3108 936 136.518 1308.2 455.319
3865 0 66.2226 14.1039 934 138.526 1308.29 455.864
3866 0 70.2048 13.9734 981 138.12 1308.34 454.822
3867 0 72.2986 13.8177 999 139.517 1308.48 453.692
3868 0 74.2681 13.6128 1011 127.686 1308.44 452.755
3869 0 77.3006 13.9326 1077 139.458 1308.12 451.542
3870 0 78.4255 13.8093 1083 138.935 1308.03 451.294
3871 0 83.4912 13.8218 1154 133.804 1308.05 448.8
3872 0 84.5398 13.4966 1141 141.713 1307.78 447.179
3873 0 84.5398 13.4966 1141 159.622 1307.78 447.179
3874 0 91.3747 13.8879 1269 140.939 1307.75 442.632
3875 0 94.6523 14.3261 1356 130.526 1308 441.442
3876 1 48.3807 12.6704 613 119.036 1308.18 464.463
3877 0 50.2354 12.7997 643 112.389 1308.69 463.039
3878 0 54.3992 13.1987 718 114.838 1308.1 463.547
3879 0 54.2967 13.2236 718 126.173 1308.17 463.723
3880 0 54.3426 13.5805 738 119.686 1308.51 463.01
3881 0 58.4595 13.3597 781 130.092 1308.96 461.348
3882 0 58.6799 13.8378 812 132.014 1308.74 459.526
