index division length width area intensity CMx CMy
0 0 70.0722 15.9978 1121 134.508 1260.84 254.05
1 0 70.0907 15.1803 1064 75.3712 1261.05 254.626
2 0 73.1527 16.6911 1221 130.104 1261.43 251.295
3 0 75.1298 16.7177 1256 132.331 1260.06 250.237
4 0 79.1857 16.5813 1313 134.784 1259.97 247.923
5 0 82.1438 16.6172 1365 136.667 1259.65 246.149
6 0 82.1438 16.6172 1365 170.861 1259.65 246.149
7 0 89.1405 16.5918 1479 136.435 1258.94 243.569
8 0 92.1395 16.627 1532 132.243 1258.88 242.47
9 0 96.0727 16.5708 1592 137.354 1259.13 239.562
10 0 99.2621 16.6227 1650 133.793 1259.68 238.521
11 1 53.0851 14.2413 756 144.884 1259.46 262.694
12 0 54.0706 14.851 803 137.359 1260.34 261.785
13 0 56.0666 14.9465 838 148.507 1261.06 259.976
14 0 59.0815 14.7423 871 141.343 1261.5 259.668
15 0 62.146 14.9809 931 141.262 1262.63 257.789
16 0 64.1907 14.862 954 140.804 1263.87 256.799
17 0 65.2535 14.9877 978 134.674 1263.9 256.917
18 0 67.0686 15.2083 1020 146.776 1264.71 256.101
19 0 70.1446 15.2542 1070 143.436 1265.26 254.332
20 0 73.1955 15.2195 1114 142.619 1265.82 253.557
21 0 77.2052 15.3746 1187 141.53 1266.4 251.628
22 0 78.3047 16.5635 1297 137.005 1267.37 250.128
23 0 82.1393 15.5102 1274 139.538 1267.8 248.981
24 0 84.1609 16.6704 1403 132.808 1268.12 246.944
25 0 87.1624 16.6012 1447 132.36 1268.91 245.299
26 1 45.1498 13.7321 620 133.231 1267.65 267.363
27 0 46.1232 14.0927 650 142.066 1267.95 265.312
28 0 49.1713 13.8089 679 141.701 1268.44 265.242
29 0 50.0877 14.1352 708 141.873 1268.39 264.89
30 0 52.137 14.0783 734 138.534 1268.11 264.105
31 0 53.0779 14.2809 758 137.912 1267.41 265.123
32 0 55.2592 14.622 808 136.08 1267.39 263.873
33 0 59.1939 14.1738 839 141.815 1266.51 264.168
34 0 60.2246 14.3961 867 142.205 1266.5 263.905
35 0 60.2246 14.3961 867 180.495 1267.5 263.905
36 0 64.1034 15.0382 964 141.199 1265.24 261.741
37 0 66.0931 15.0697 996 134.337 1265.13 261.786
38 0 69.163 15.3695 1063 135.188 1264.63 261.213
39 0 72.1689 14.8263 1070 143.593 1264.35 261.029
40 0 74.2616 15.405 1144 133.955 1263.73 260.058
41 0 76.2467 15.2007 1159 137.468 1263.24 258.886
42 0 79.0969 15.2471 1206 140.646 1262.55 257.38
43 0 82.0585 15.3671 1261 131.967 1262.6 256.809
44 0 86.0576 15.141 1303 139.612 1262.6 256.715
45 0 88.1993 15.2496 1345 138.045 1261.98 256.723
46 0 92.2349 15.016 1385 134.877 1262.94 255.665
47 1 47.1409 12.8551 606 140.314 1262.09 279.639
48 0 50.0486 13.3071 666 136.616 1261.66 278.901
49 0 52.1269 13.4671 702 131.942 1261.76 280.152
50 0 54.1246 13.7645 745 125.894 1262.32 280.463
51 0 55.0786 13.8166 761 127.439 1262.03 281.216
52 0 58.0734 13.7757 800 126.408 1261.91 281.802
53 0 59.1649 14.2483 843 128.824 1261.85 281.287
54 0 61.1046 14.2542 871 127.901 1262.07 282.011
55 0 65.0921 14.057 915 124.683 1262.41 281.796
56 0 65.233 14.7012 959 125.795 1262.52 282.61
57 0 69.246 13.9936 969 124.848 1263.05 282.353
58 0 71.1473 14.2662 1015 119.738 1263.48 282.789
59 0 73.1728 14.1993 1039 123.316 1263.72 283.053
60 0 75.2326 14.4352 1086 124.874 1263.67 282.999
61 0 80.1592 14.1219 1132 118.009 1264.31 282.88
62 0 84.1419 14.4042 1212 119.682 1264.69 282.252
63 0 88.18 13.5405 1194 124.639 1264.67 281.834
64 0 89.1318 14.271 1272 120.609 1264.62 282.372
65 0 92.0634 14.1207 1300 112.943 1264.85 281.37
66 0 97.1787 13.8508 1346 119.737 1264.93 281.582
67 1 52.0735 11.9254 621 118.356 1265.34 306.684
68 0 52.0368 12.3182 641 113.885 1266.3 309.03
69 0 54.0998 12.9206 699 111.711 1265.46 309.763
70 0 62.0579 16.0495 996 96.2229 1265.1 319.91
71 0 64.1899 15.3918 988 94.6994 1265.11 320.348
72 0 65.0992 15.4841 1008 97.3522 1265.18 320.194
73 0 65.0351 15.0995 982 100.363 1264.69 320.343
74 0 67.0991 15.2461 1023 97.652 1264.29 319.568
75 0 67.0411 15.1101 1013 96.2053 1264.47 319.931
76 0 68.2637 14.693 1003 101.612 1264.57 320.138
77 0 70.0536 13.8323 969 101.913 1264.71 320.399
78 0 72.2005 14.0996 1018 102.247 1264.53 321.966
79 0 75.1731 13.6751 1028 65.1897 1264.47 323.68
80 0 78.3011 13.2054 1034 107.046 1263.61 325.523
81 0 79.0747 13.9109 1100 104.458 1263.51 326.59
82 0 83.2157 14.3482 1194 102.155 1263.28 326.782
83 0 86.1461 14.429 1243 101.317 1264.03 328.982
84 0 88.1605 13.9745 1232 108.483 1263.23 330.669
85 0 92.2538 14.2541 1315 104.91 1263.02 332.114
86 0 94.08 14.1263 1329 100.977 1262.69 333.119
87 0 99.1054 14.1365 1401 105.592 1263.54 335.522
88 1 50.018 12.5155 626 100.042 1262.93 363.872
89 0 52.0487 13.1992 687 98.7074 1262.36 366.905
90 0 53.1164 13.0845 695 98.905 1262.23 369.108
91 0 53.0454 13.2339 702 97.2764 1262.38 371.714
92 0 56.1259 13.3272 748 97.881 1262.44 374.289
93 0 57.0761 13.6134 777 100.304 1262.73 377.804
94 0 58.1002 14.1136 820 99.6146 1262.56 381.015
95 0 62.113 13.5237 840 104.155 1263.48 384.082
96 0 63.112 13.9751 882 95.4365 1262.7 386.808
97 0 68.0642 13.737 935 100.084 1263 389.268
98 0 69.2162 13.884 961 100.858 1262.52 391.64
99 0 71.1297 14.101 1003 103.982 1262.59 395.667
100 0 75.1353 14.068 1057 100.525 1262.62 399.178
101 0 77.3961 13.8896 1075 101.831 1262.33 402.517
102 0 80.2178 14.0742 1129 102.553 1262.31 406.136
103 0 82.2622 14.0769 1158 104.741 1262.03 410.279
104 0 86.6184 13.9001 1204 101.552 1262.55 413.711
105 0 88.3414 14.127 1248 107.328 1262.76 417.811
106 0 90.532 14.3485 1299 106.884 1262.68 421.381
107 1 46.2633 12.2776 568 105.958 1262.84 449.803
108 0 48.1987 12.9257 623 105.942 1263.56 453.177
109 0 49.168 13.3013 654 107.372 1262.55 457.963
110 0 69.5858 12.948 901 93.4628 1263.32 486.62
111 0 64.5967 15.7748 1019 89.527 1263.06 484.259
112 0 62.352 16.5993 1035 90.4947 1262.25 486.186
113 0 59.1886 15.9321 943 100.839 1262.27 487.709
114 0 57.4206 13.6711 785 108.443 1262.27 486.115
115 0 57.3268 13.3794 767 109.584 1261.34 490.003
116 0 59.2478 13.7895 817 113.816 1261.56 490.441
117 0 61.1547 13.2778 812 109.314 1261.39 489.936
118 0 61.4546 14.1893 872 114.336 1261.54 488.046
119 0 64.2253 13.5461 870 109.98 1261 487.257
120 0 66.432 13.4574 894 115.915 1261.38 487.105
121 0 69.244 13.3008 921 117.847 1261.48 484.396
122 0 72.5213 14.0097 1016 114.837 1262 482.261
123 0 74.471 13.8309 1030 114.128 1261.61 481.163
124 0 77.458 13.5945 1053 115.736 1261.51 478.931
125 0 80.6332 13.9149 1122 119.519 1261.67 478.322
126 0 83.4314 13.58 1133 122.227 1261.75 477.089
127 0 84.3712 14.1043 1190 126.891 1262.19 473.341
128 0 87.4817 13.8886 1215 122.618 1261.8 473.84
129 1 44.1854 12.4702 551 123.43 1261.4 494.383
130 0 45.0921 12.8404 579 133.173 1261.58 494.064
131 0 47.1711 12.4017 585 137.321 1262.11 492.552
132 0 48.1092 12.7626 614 136.638 1262.56 492.077
133 0 50.3392 12.5548 632 129.535 1262.36 491.014
134 0 50.2825 12.748 641 133.119 1262.39 490.594
135 0 52.1096 12.8575 670 132.509 1262.68 489.869
136 0 53.1939 13.0278 693 125.734 1263.2 489.143
137 0 54.4592 12.872 701 134.7 1263.22 488.009
138 0 58.1206 13.1967 767 130.952 1263.24 487.121
139 0 58.3504 13.4703 786 133.009 1263.99 485.929
140 0 59.1524 13.3384 789 133.113 1264.63 485.304
141 0 62.4163 13.5542 846 128.099 1263.84 484.54
142 0 64.3786 13.1721 848 132.114 1264.02 484.117
143 0 66.3603 13.2308 878 127.633 1264.94 482.604
144 0 68.4987 13.5331 927 128.75 1265.13 479.893
145 0 68.5408 13.8604 950 136.548 1265.1 477.802
146 0 72.4653 13.6479 989 131.605 1265.09 477.178
147 0 74.8261 13.2841 994 135.933 1265.84 475.546
148 0 76.4644 13.4311 1027 140.022 1265.54 475.66
149 0 80.5107 13.5634 1092 133.832 1265.65 473.608
150 0 83.3407 13.6908 1141 137.696 1266.02 471.957
151 0 85.1475 13.7878 1174 135.198 1266.1 469.812
152 1 47.0737 12.3636 582 139.768 1266.65 489.533
153 0 49.1153 12.1551 597 135.447 1266.17 487.874
154 0 49.147 12.9001 634 137.456 1266.48 486.823
155 0 51.053 12.6143 644 137.335 1266.8 487.022
156 0 52.2068 12.3164 643 138.378 1267.28 485.67
157 0 53.1001 13.4651 715 132.313 1267.58 485.071
158 0 55.2143 12.8771 711 131.654 1268.21 485.08
159 0 57.2002 13.3041 761 132.491 1267.97 483.035
160 0 59.1412 13.0197 770 132.304 1267.77 481.544
161 0 60.31 13.0658 788 131.626 1267.79 481.561
162 0 63.2318 13.3635 845 131.351 1267.35 480.032
163 0 64.1727 13.5572 870 121.333 1268.03 478.994
164 0 66.163 13.5574 897 131.077 1267.45 479.282
165 0 68.2789 13.7378 938 124.983 1267.45 477.067
166 0 70.1355 13.9159 976 113.757 1267.63 476.8
167 0 72.3233 13.813 999 128.688 1268.04 475.056
168 0 75.3211 13.5022 1017 132.981 1268.37 473.81
169 0 77.3068 14.2161 1099 131.237 1268.65 471.829
170 0 80.1415 14.2872 1145 128.71 1269.05 469.654
171 0 84.3265 13.8509 1168 133.414 1268.9 468.702
172 0 85.1411 14.2587 1214 130.021 1268.78 466.862
173 0 88.1168 13.7999 1216 136.061 1268.63 465.86
174 0 91.3495 13.9355 1273 134.283 1268.31 464.456
175 0 94.3247 14.2274 1342 131.042 1269.22 462.893
176 0 99.1692 13.8954 1378 130.044 1268.54 460.461
177 0 101.311 14.3519 1454 133.779 1269.71 460.124
178 0 103.299 14.124 1459 132.199 1269.77 458.633
179 0 105.304 14.3014 1506 129.596 1269.79 458.014
180 0 109.445 14.1167 1545 133.617 1269.63 456.175
181 0 114.149 14.4022 1644 127.904 1269.21 453.217
182 0 119.225 14.5355 1733 128.727 1269.62 450.628
183 0 123.271 14.5371 1792 129.091 1268.96 448.013
184 0 128.298 14.6456 1879 130.046 1269.36 445.377
185 0 132.252 14.2682 1887 133.735 1269.04 442.901
186 0 136.485 14.4631 1974 132.529 1269.53 441.818
187 1 74.1186 12.7768 947 136.263 1268.99 471.34
188 0 77.1285 12.9005 995 130.052 1268.79 470.656
189 0 81.2758 12.4514 1012 133.744 1269.01 468.62
190 0 84.4015 12.9974 1097 133.63 1268.06 467.463
191 0 88.2601 12.4518 1099 136.907 1268.45 466.227
192 1 47.1022 11.6131 547 133.958 1269.32 484.826
193 0 47.0799 11.7672 554 138.78 1268.98 484.493
194 0 49.0639 11.271 553 137.866 1268.12 484.593
195 0 51.0872 11.6663 596 133.955 1268.66 482.955
196 0 52.2298 12.0238 628 135.877 1268.8 482.18
197 0 53.255 12.3932 660 137.62 1268.82 482.12
198 0 55.1263 12.2265 674 135.886 1268.59 481.174
199 0 57.0984 12.4172 709 137.322 1269.09 480.803
200 0 58.2143 12.4368 724 139.938 1268.26 480.347
201 0 60.1189 12.9909 781 137.365 1267.73 478.86
202 0 63.1501 12.6682 800 133.746 1267.86 477.179
203 0 63.2683 12.4233 786 133.816 1267.79 476.239
204 0 66.192 12.3882 820 136.8 1267.43 475.799
205 0 67.14 12.9878 872 137.366 1267.89 474.771
206 0 68.1781 12.834 875 137.079 1267.24 474.687
207 0 72.1152 12.7019 916 142.646 1267.35 471.945
208 0 73.3129 12.8218 940 144.165 1267.55 472.179
209 0 75.1276 12.7649 959 142.178 1267.14 470.082
210 0 79.3592 13.0042 1032 140.749 1266.6 468.581
211 0 80.1969 12.7062 1019 149.543 1267.09 468.047
212 0 83.4258 12.5501 1047 132.484 1266.76 466.84
213 0 86.3227 12.4069 1071 145.363 1266.85 465.766
214 0 88.1663 12.4651 1099 141.4 1266.4 464.347
215 0 92.4018 12.3158 1138 141.718 1265.53 462.303
216 1 47.1146 11.2704 531 136.61 1265.59 485.435
217 0 50.0708 11.8233 592 133.09 1265.97 485.958
218 0 51.1459 11.9071 609 127.039 1265.89 484.591
219 0 53.0719 11.5692 614 128.137 1265.86 485.049
220 0 56.0842 11.6789 655 129.924 1265.96 483.13
221 0 56.1518 12.2881 690 136.71 1265.37 482.933
222 0 57.1778 12.5923 720 134.976 1267.08 481.896
223 0 58.0931 12.807 744 132.824 1267.33 481.102
224 0 61.1313 12.6286 772 133.829 1267.39 480.799
225 0 63.2285 12.7158 804 132.7 1266.87 479.72
226 0 66.161 12.394 820 134.087 1266.89 478.395
227 0 67.2665 12.785 860 135.016 1266.52 477.209
228 0 68.2463 12.4988 853 134.593 1266.64 477.236
229 0 72.1956 12.2445 884 136.143 1266.48 476.533
230 0 76.2081 12.4659 950 132.472 1266.7 474.148
231 0 78.3036 12.5282 981 134.833 1266.33 472.989
232 1 41.0545 10.3277 424 140.644 1266.35 491.616
233 0 42.0532 11.2952 475 140.611 1266.33 490.853
234 0 43.0281 11.7365 505 138.026 1265.44 490.614
235 0 44.0797 12.1144 534 136.888 1265.56 489.554
236 0 44.0324 11.8549 522 140.994 1265.28 489.975
237 0 45.0786 12.4893 563 132.027 1265.17 488.169
238 0 46.0902 12.584 580 129.436 1265.28 487.297
239 0 50.0656 12.164 609 134.982 1265.72 487.793
240 0 47.1783 12.6541 597 138.369 1265.21 486.794
241 0 51.0632 12.0831 617 140.246 1265.04 485.69
242 0 52.1184 12.6059 657 131.988 1265.21 485.107
243 0 54.1516 12.7605 691 128.938 1265.29 483.721
244 0 56.2244 12.6635 712 134.083 1265.9 484.614
245 0 56.0833 12.8915 723 132.817 1265.72 483.225
246 0 57.2276 12.8784 737 135.071 1266.08 482.668
247 0 60.0956 13.3121 800 124.315 1266.46 480.398
248 0 61.1719 13.1433 804 126.358 1266.87 482.348
249 0 64.1895 13.4913 866 128.191 1266.46 480.212
250 0 66.2832 12.8388 851 130.823 1267.06 479.255
251 0 67.2631 13.5438 911 125.592 1267.14 477.839
252 0 68.2242 12.8107 874 129.685 1267.59 477.706
253 0 72.2456 13.1773 952 128.18 1267.47 475.428
254 0 75.1666 12.9047 970 129.942 1267.85 474.341
255 0 76.244 13.2863 1013 124.437 1267.61 473.565
256 0 79.2178 13.0653 1035 122.865 1267.52 472.06
257 0 82.317 12.9256 1064 126.863 1268.44 470.345
258 0 85.209 13.1794 1123 120.099 1267.73 468.835
259 1 46.0538 12.2031 562 132.409 1267.96 488.635
260 0 48.1345 12.2781 591 127.971 1267.78 486.552
261 0 49.0676 12.3503 606 125.69 1267.3 486.848
262 0 51.1467 12.4739 638 126.944 1267.76 485.638
263 0 52.0983 12.8219 668 120.425 1267.67 484.862
264 0 51.0271 12.8559 656 126.797 1267.74 484.971
265 0 55.0868 12.5438 691 124.433 1267.59 484.181
266 0 56.061 12.8788 722 127.738 1268.12 482.201
267 0 57.0723 13.5092 771 130.733 1267.99 481.507
268 0 60.0471 13.4395 807 122.047 1268.5 480.477
269 0 62.0629 13.3413 828 127.089 1268.79 480.156
270 0 64.0582 13.3316 854 129.04 1269.3 480.001
271 0 66.0171 13.3905 884 122.189 1269.07 478.257
272 0 66.0915 13.33 881 126.808 1269.88 477.398
273 0 69.1534 13.1592 910 125.344 1270.11 476.277
274 0 71.1389 13.5931 967 122.969 1270.68 473.93
275 0 75.0739 13.6399 1024 123.626 1270.45 473.284
276 0 78.1257 13.2735 1037 119.701 1269.9 471.53
277 0 80.1549 13.2868 1065 119.391 1269.5 469.754
278 0 82.1066 13.5556 1113 122.334 1269.9 468.58
279 0 86.2438 13.543 1168 38.0856 1270.33 467.367
280 0 88.2984 13.3751 1181 123.924 1270.26 465.098
281 0 93.2706 13.2303 1234 116.133 1270.2 463.991
282 1 48.032 12.8456 617 121.066 1269.6 484.365
283 0 51.0875 12.7624 652 114.253 1269.58 483.498
284 0 52.1136 12.4728 650 114.546 1269.56 482.785
285 0 54.0836 13.2018 714 112.28 1270 482.657
286 0 55.1008 13.1759 726 109.318 1270.04 481.825
287 0 57.0491 13.2868 758 111.371 1269.64 480.703
288 0 60.0306 13.4098 805 108.009 1269.53 478.63
289 0 61.0418 13.2368 808 106.813 1269.3 478.316
290 0 63.1329 13.4003 846 109.395 1269.14 477.687
291 0 65.0761 13.538 881 108.872 1269.55 476.58
292 0 67.044 13.5881 911 107.338 1268.99 475.512
293 0 69.0703 13.4935 932 106.105 1269.15 474.183
294 0 73.1519 13.3558 977 112.093 1269.03 472.555
295 0 74.1597 13.8755 1029 111.179 1269.52 471.66
296 0 78.0837 13.6136 1063 110.054 1269.13 469.967
297 0 78.2257 13.7806 1078 110.115 1269.48 469.045
298 0 81.2184 13.5684 1102 106.847 1268.81 467.705
299 0 85.1365 13.5782 1156 115.349 1268.99 466.241
300 0 87.1856 13.7064 1195 110.67 1269.15 464.695
301 0 91.1872 13.8068 1259 111.905 1269.71 463.497
302 0 95.1237 13.6769 1301 112.59 1269.65 461.453
303 0 98.137 13.4913 1324 107.65 1269.52 459.406
304 1 50.0826 11.7206 587 115.334 1268.59 482.6
305 0 50.0743 12.4615 624 113.37 1268.74 482.926
306 0 50.2223 12.9225 649 116.461 1269.73 481.716
307 0 55.2865 12.3538 683 112.085 1269.16 481.365
308 0 55.3131 13.1072 725 112.974 1269.62 480.844
309 0 58.172 13.0131 757 116.387 1269.69 478.49
310 0 59.1712 13.5032 799 115.146 1269.59 477.796
311 0 62.1647 13.0299 810 114.447 1269.66 478.609
312 0 64.28 13.0056 836 107.565 1269.01 476.38
313 0 64.2838 13.1448 845 117.499 1268.32 475.757
314 0 67.143 13.6276 915 112.622 1268.98 474.225
315 0 69.1246 13.5986 940 117.149 1268.56 473.068
316 0 73.3306 13.6505 1001 113.621 1268.35 472.113
317 0 74.1325 13.7591 1020 117.901 1268.06 470.289
318 0 76.1712 13.9423 1062 115.911 1267.78 468.593
319 0 79.3315 13.5129 1072 120.909 1268 467.983
320 0 82.2548 13.5433 1114 118.845 1268.2 466.78
321 0 86.1307 13.5956 1171 118.062 1268.22 467.001
322 0 89.2752 13.5088 1206 119.085 1268.63 465.42
323 0 90.4012 13.6834 1237 120.548 1268.03 463.443
324 0 94.4333 13.9358 1316 124.797 1267.57 460.204
325 0 98.4525 13.5091 1330 125.275 1268.28 459.079
326 1 51.3041 11.8899 610 120.807 1268.57 484.161
327 0 52.1213 12.6052 657 120.664 1267.89 483.553
328 0 55.0655 12.4579 686 119.662 1268.13 482.287
329 0 56.1437 12.8242 720 114.99 1267.37 481.028
330 0 56.1314 12.9874 729 119.007 1267.56 480.302
331 0 59.1954 12.6361 748 118.464 1267.46 479.778
332 0 62.3817 12.4876 779 119.757 1267.68 478.273
333 0 63.2121 13.0671 826 110.011 1267.53 477.987
334 0 66.1538 12.8337 849 120.614 1267.57 476.66
335 0 67.1294 13.0941 879 121.288 1267.89 475.833
336 0 68.2328 13.5712 926 118.964 1267.83 474.191
337 0 71.4969 12.7138 909 118.73 1267.82 474.382
338 0 73.3231 12.9973 953 127.476 1267.65 472.955
339 0 77.547 12.9212 1002 118.216 1268.44 471.611
340 0 77.6397 13.2793 1031 125.677 1267.68 470.034
341 0 79.4 13.1234 1042 126.033 1267.54 469.787
342 0 83.4376 13.1236 1095 121.951 1267.4 467.5
343 0 87.7667 13.3194 1169 125.232 1266.41 466.495
344 0 89.5034 13.2956 1190 123.189 1266.36 464.241
345 1 46.379 11.212 520 125.829 1265.27 486.052
346 0 47.4349 11.7213 556 126.424 1266.19 486.275
347 0 51.1676 11.8239 605 128.863 1266.72 485.236
348 0 51.0725 12.5312 640 114.436 1267.11 484.547
349 0 53.0823 12.4147 659 122.763 1266.93 484.791
350 0 55.0925 12.5789 693 125.375 1267.21 484.294
351 0 56.0497 12.5068 701 125.572 1267.11 483.84
352 0 56.0569 12.63 708 122.531 1267.26 482.941
353 0 58.0233 12.6501 734 128.481 1267.16 481.995
354 0 60.1283 12.8226 771 125.663 1267.38 481.069
355 0 61.037 12.8611 785 117.71 1267.91 479.529
356 0 63.0839 12.523 790 124.077 1267.84 478.547
357 0 63.1415 13.1767 832 124.684 1267.3 477.709
358 0 67.0817 12.9991 872 131.616 1267.3 475.856
359 0 69.1576 13.462 931 123.909 1266.95 474.202
360 0 72.2062 13.1014 946 124.96 1266.97 473.979
361 0 74.0465 13.37 990 121.689 1266.75 471.455
362 0 75.2608 13.5662 1021 127.652 1267.3 471.266
363 0 81.3037 13.4311 1092 125.47 1267.34 469.055
364 0 82.2949 13.1478 1082 116.936 1268.06 468.457
365 0 85.3705 13.5644 1158 125.126 1268.23 466.646
366 0 87.2913 13.2888 1160 125.345 1268.01 465.943
367 0 90.3096 14.3839 1299 116.184 1267.68 463.042
368 0 94.2178 13.8403 1304 124.412 1268.21 462.738
369 0 97.3497 13.8367 1347 122.105 1268.09 462.047
370 0 100.268 13.833 1387 117.093 1268.11 459.784
371 0 102.39 13.6635 1399 124.515 1267.72 459.801
372 0 105.338 14.1829 1494 123.007 1268.15 456.531
373 0 109.392 13.6755 1496 123.245 1268.85 455.995
374 0 113.269 13.8873 1573 120.755 1268.42 454.303
375 0 118.416 13.8242 1637 125.948 1268.06 451.39
376 0 122.315 14.0212 1715 124.202 1268.46 450.054
377 1 62.0798 12.5 776 127.465 1268.64 479.644
378 0 64.1273 12.7403 817 131.222 1267.66 479.99
379 0 65.2114 13.1725 859 125.555 1268.53 479.331
380 0 68.1871 12.7883 872 125.534 1269.03 478.599
381 0 70.1095 13.3648 937 128.457 1268.66 475.43
382 0 73.1464 13.2611 970 135.041 1269.52 474.902
383 0 75.146 13.2808 998 134.729 1269.69 473.03
384 0 78.2923 13.3985 1049 130.004 1270.08 471.7
385 0 81.1811 13.1804 1070 132.55 1270.36 470.059
386 0 83.3769 13.301 1109 129.408 1269.93 469.631
387 0 87.2333 13.5613 1183 130.395 1269.82 467.588
388 0 90.4152 13.5818 1228 128.075 1269.52 466.675
389 0 92.1679 13.5188 1246 123.893 1269.83 464.319
390 0 95.2565 13.6054 1296 127.331 1270.1 463.03
391 0 98.2673 13.6261 1339 129.993 1270.02 461.4
392 1 55.1368 12.2786 677 136.508 1270.68 483.247
393 0 57.1576 12.7542 729 133.909 1269.59 482.261
394 0 58.1017 13.2354 769 129.65 1269.92 481.732
395 0 59.0884 13.2513 783 123.925 1269.75 481.771
396 0 62.109 13.2831 825 141.822 1270.02 480.212
397 0 64.17 13.6201 874 136.305 1270.06 478.874
398 0 66.1256 13.9734 924 133.447 1270.49 478.361
399 0 68.1572 13.2048 900 82.3567 1270.23 477.353
400 0 70.1695 13.0256 914 135.604 1269.6 476.834
401 0 71.1595 13.7016 975 132.576 1270.47 475.481
402 0 74.1083 13.7906 1022 137.967 1269.69 474.497
403 0 75.1407 13.8673 1042 138.995 1269.97 473.741
404 0 77.2205 14.1284 1091 145.644 1269.68 471.648
405 0 82.1349 13.5143 1110 144.557 1269.25 471.053
406 0 82.0765 13.926 1143 147.867 1269.05 470.8
407 0 84.1482 13.6426 1148 145.605 1269.08 468.595
408 0 87.2194 14.2629 1244 139.101 1268.49 466.344
409 0 90.1605 13.6091 1227 143.233 1268.63 465.829
410 0 94.1393 13.7668 1296 145.398 1268.25 464.997
411 0 95.1488 13.4841 1283 149.536 1268.5 462.51
412 1 52.0692 12.1569 633 146.343 1268.16 485.06
413 0 53.1002 12.2599 651 137.502 1268.74 483.733
414 0 55.2104 12.5339 692 146.549 1268.32 484.087
415 0 57.0874 12.2094 697 146.584 1268.26 483.67
416 0 58.0968 12.5652 730 151.218 1267.92 482.577
417 0 58.0487 13.5059 784 151.05 1268.6 481.259
418 0 61.0532 12.9068 788 151.113 1268.62 480.27
419 0 63.1066 13.4059 846 148.788 1268.1 479.284
420 0 66.1051 13.3727 884 149.632 1267.93 478.869
421 0 67.1114 13.5893 912 144.248 1268.18 477.67
422 0 71.1172 13.6535 971 145.536 1268.24 476.352
423 0 73.1855 13.172 964 140.96 1268.18 476.206
424 0 75.1225 13.3648 1004 152.453 1267.91 475.087
425 0 78.1204 13.5048 1055 150.501 1267.33 471.806
426 0 80.1839 13.5688 1088 149.496 1268.27 471.239
427 0 82.1036 13.6291 1119 151.54 1268.29 469.769
428 0 85.0968 13.6198 1159 144.164 1267.62 469.192
429 0 86.1182 13.8995 1197 150.588 1267.98 467.709
430 0 92.1837 13.3972 1235 153.04 1267.51 465.746
431 1 51.1573 11.7872 603 140.836 1266.97 486.599
432 0 54.0991 12.1074 655 147.195 1267.05 484.438
433 0 53.0546 12.685 673 145.366 1266.26 484.12
434 0 54.1066 12.4199 672 141.338 1266.43 483.969
435 0 57.0728 11.9672 683 143.681 1266.55 483.816
436 0 61.1095 11.8476 724 143.564 1266.68 482.979
437 0 62.1024 12.3667 768 140.432 1266.87 481.262
438 0 63.1403 12.5435 792 134.902 1266.66 480.343
439 0 65.329 12.6896 829 136.433 1267.51 478.988
440 0 68.1127 12.9051 879 138.846 1267.33 478.337
441 0 70.212 13.2029 927 138.475 1267.62 476.229
442 0 72.0853 12.7349 918 142.136 1267.52 475.137
443 0 74.0955 12.9832 962 139.804 1266.96 473.874
444 0 78.0852 12.973 1013 144.218 1266.94 472.543
445 0 81.3525 12.7593 1038 146.896 1266.91 471.824
446 0 85.159 12.9405 1102 139.95 1266.77 470.185
447 1 42.0963 11.4975 484 136.814 1267.06 491.048
448 0 44.2229 11.3516 502 146.604 1267.04 490.544
449 0 44.188 12.0395 532 142.355 1266.54 489.233
450 0 45.1113 11.9482 539 147.391 1266.81 489.447
451 0 46.0278 12.1883 561 139.408 1266.75 489.114
452 0 48.1538 12.2732 591 142.763 1266.48 487.741
453 0 49.0717 12.1047 594 138.099 1265.96 487.086
454 0 51.2069 11.8539 607 144.735 1265.66 487.407
455 0 52.182 12.0348 628 143.785 1266.16 487.209
456 0 54.2392 11.818 641 145.513 1266 486.569
457 0 55.1644 12.5987 695 140.124 1266.25 484.458
458 0 57.2124 12.3225 705 138.782 1266.31 484.742
459 0 58.1551 12.9825 755 138.164 1266.3 483.017
460 0 59.1768 12.4204 735 137.995 1266.18 482.586
461 0 61.1925 12.6159 772 136.446 1265.75 480.635
462 0 63.1701 12.2051 771 133.598 1266.24 481.416
463 0 65.1728 12.674 826 136.136 1266.12 480.266
464 0 66.1413 12.9269 855 133.946 1266.24 479.571
465 0 68.1536 12.6186 860 132.21 1266.5 478.227
466 0 71.2493 12.5194 892 134.938 1266.26 476.674
467 0 74.1662 12.7551 946 139.54 1265.98 475.786
468 0 76.4279 12.8618 983 136.937 1265.86 474.031
469 0 78.2843 12.9272 1012 140.551 1266.16 472.767
470 1 41.2011 10.2667 423 139.773 1265.94 492.877
471 0 44.2135 10.4267 461 139.935 1266.1 491.117
472 0 44.1117 10.9041 481 142.274 1267.37 489.578
473 0 45.193 11.639 526 147.895 1267.39 488.196
474 0 48.0997 11.4138 549 141.834 1268.04 487.546
475 0 49.0952 12.0989 594 144.833 1268.54 486.493
476 0 49.1473 12.5337 616 145.891 1268.34 485.567
477 0 53.0698 12.248 650 141.14 1269.07 483.798
478 0 54.1606 12.2229 662 143.911 1268.94 483.856
479 0 54.0575 13.1157 709 145.192 1268.88 482.401
480 0 56.0536 12.72 713 145.47 1268.98 481.077
481 0 60.1394 12.471 750 143.413 1269.31 480.56
482 0 62.049 12.6191 783 142.188 1269.35 480.383
483 0 62.1034 13.1716 818 143.642 1269.3 478.463
484 0 65.0928 12.9354 842 143.627 1269.06 478.305
485 0 68.0773 12.618 859 145.955 1269.05 476.499
486 0 71.1345 13.2144 940 148 1268.97 475.167
487 0 73.21 13.4954 988 142.608 1268.83 474.873
488 0 74.1793 13.6157 1010 140.838 1269.13 473.784
489 0 76.0969 13.312 1013 146.5 1268.44 472.539
490 0 80.2877 13.5139 1085 144.168 1268.64 470.559
491 1 39.0305 12.2468 478 140.224 1268.71 490.826
492 0 42.1938 12.5137 528 141.288 1269.44 490.358
493 0 42.0649 12.9086 543 142.948 1269.97 488.713
494 0 43.136 13.214 570 141.526 1270.02 488.686
495 0 45.153 12.7345 575 143.111 1270.21 487.979
496 0 45.0259 13.7032 617 143.071 1270.59 485.93
497 0 47.1609 12.892 608 137.979 1270.33 486.262
498 0 47.1458 12.6628 597 145.672 1270.28 485.764
499 0 49.2056 13.2302 651 144.083 1270.37 484.624
500 0 51.1785 13.0133 666 141.212 1270.61 485.237
501 0 53.1666 12.9781 690 142.833 1271.08 483.045
502 0 54.2377 13.1827 715 145.007 1270.67 483.438
503 0 56.1496 13.464 756 140.464 1270.46 481.911
504 0 57.136 13.5991 777 142.43 1270.21 480.86
505 0 58.1898 13.6106 792 140.83 1270.46 480.913
506 0 60.1552 13.7977 830 145.219 1269.94 480.1
507 0 63.158 13.4266 848 143.428 1270.18 479.1
508 0 64.1044 13.8368 887 146.85 1269.86 477.803
509 0 65.0573 13.8647 902 142.163 1269.99 476.646
510 0 69.1028 13.7332 949 143.359 1269.9 475.443
511 0 70.1642 14.295 1003 140.933 1269.84 474.321
512 0 73.1824 13.8558 1014 140.81 1269.81 473.052
513 0 77.1563 13.7643 1062 138.556 1270.22 471.313
514 0 78.1336 13.5409 1058 139.372 1270.08 471.532
515 0 81.1327 13.7183 1113 137.165 1269.81 469.72
516 1 43.0552 13.2156 569 143.107 1269.88 486.207
517 0 44.2151 13.2986 588 144.068 1269.52 486.939
518 0 47.1843 13.797 651 137.647 1269.66 485.579
519 0 46.2254 13.8236 639 137.865 1269.43 485.302
520 0 50.2103 13.1646 661 138.395 1268.83 483.708
521 0 50.0744 13.3801 670 140.096 1268.86 483.285
522 0 52.0987 13.7815 718 142.691 1268.53 482.694
523 0 54.1923 13.7473 745 142.86 1268.82 481.67
524 0 56.2171 13.8392 778 140.261 1267.81 480.54
525 0 57.1484 13.9286 796 137.932 1268.17 479.289
526 0 60.3145 13.7778 831 136.111 1267.58 477.8
527 0 63.1254 14.2573 900 132.381 1267.64 477.013
528 0 65.1275 14.3565 935 136.276 1268.21 476.524
529 0 68.3199 14.1979 970 137.586 1268.24 472.947
530 0 70.1343 14.1871 995 140.702 1268.25 474.007
531 0 72.1042 14.2849 1030 138.013 1268.13 472.663
532 0 74.1299 14.3937 1067 140.841 1268.39 472.291
533 0 77.1891 14.2507 1100 132.961 1268.85 469.385
534 0 79.202 14.4314 1143 136.141 1268.4 468.248
535 0 81.3152 14.3762 1169 141.263 1268.92 467.169
536 0 86.3065 14.0893 1216 139.099 1268.53 466.003
537 0 89.5302 14.4309 1292 133.584 1268.29 462.854
538 0 93.5088 14.2767 1335 137.091 1267.86 461.194
539 1 47.119 13.0096 613 140.003 1267.16 483.563
540 0 49.2614 12.9107 636 140.799 1268.79 483.764
541 0 51.2396 13.0563 669 138.416 1268.42 485.776
542 0 52.1244 13.6213 710 139.073 1268.25 483.728
543 0 54.239 13.2562 719 142.09 1267.98 483.167
544 0 57.1531 13.4901 771 138.633 1268.68 482.864
545 0 59.1783 13.2312 783 140.591 1268.82 482.114
546 0 59.2222 14.167 839 160.235 1268.82 479.932
547 0 63.1602 13.6795 864 158.292 1268.11 479.618
548 0 65.0964 13.7796 897 152.26 1268.36 478.562
549 0 68.0852 13.8062 940 153.378 1268.3 477.195
550 0 71.0433 13.8648 985 151.252 1267.71 476.155
551 0 72.1124 13.9366 1005 151.629 1267.96 475.311
552 0 76.1176 13.6894 1042 152.787 1267.41 473.711
553 0 78.1517 13.7297 1073 157.008 1266.85 472.89
554 0 79.3295 13.8788 1101 155.545 1267.24 470.978
555 1 41.1383 13.6126 560 155.661 1266.56 489.284
556 0 43.3154 13.09 567 152.263 1267.79 488.596
557 0 45.3851 12.7134 577 153.234 1267.57 487.853
558 0 46.249 12.8868 596 148.168 1267.11 487.057
559 0 46.1887 13.5747 627 159.093 1266.98 486.671
560 0 48.3192 13.3901 647 150.702 1266.84 486.496
561 0 51.314 13.3102 683 155.351 1266.7 485.65
562 0 52.2676 12.9526 677 158.433 1266.43 485.003
563 0 53.2199 13.5851 723 158.844 1265.61 484.6
564 0 54.2964 13.8867 754 153.568 1266.13 484.16
565 0 55.4319 13.909 771 156.393 1265.93 482.122
566 0 58.5563 13.6108 797 160.247 1266.25 481.977
567 0 59.6189 13.8882 828 158.192 1265.75 480.302
568 0 60.4883 14.0027 847 150.22 1265.29 478.726
569 0 65.6447 14.3957 945 151.572 1265.67 476.479
570 0 66.6591 14.1466 943 152.327 1265.79 475.402
571 0 69.6997 13.8738 967 148.09 1266.26 474.869
572 0 71.8097 14.0789 1011 152.84 1266.36 473.377
573 0 76.8806 13.7486 1057 152.037 1266.78 471.994
574 0 77.7028 14.3753 1117 146.855 1267.08 470.737
575 0 81.6168 13.8819 1133 152.077 1266.99 469.898
576 0 83.6244 14.0988 1179 147.85 1266.97 468.499
577 0 87.3836 13.8699 1212 152.821 1266.87 467.464
578 1 45.118 13.365 603 159.551 1267.13 488.335
579 0 47.1966 13.2425 625 156.336 1267.17 486.882
580 0 48.1973 13.507 651 160.888 1266.97 486.488
581 0 50.2348 13.4966 678 155.757 1266.95 484.652
582 0 52.4122 13.2603 695 154.715 1266.83 484.029
583 0 53.5011 13.4764 721 158.193 1266.73 482.141
584 0 54.4542 13.975 761 154.518 1266.73 481.331
585 0 58.538 13.1709 771 158.453 1266.86 480.685
586 0 58.4367 14.0665 822 155.692 1267 478.294
587 0 60.4654 14.2561 862 152.541 1267.45 478.255
588 0 62.8247 13.7685 865 155.235 1266.79 476.591
589 0 63.4939 13.8911 882 154.07 1266.93 474.795
590 0 65.6163 14.1733 930 151.405 1267.23 473.794
591 0 67.6978 14.2102 962 151.235 1267.67 471.866
592 0 70.7455 13.7959 976 148.451 1267.53 471.079
593 0 72.6016 13.8427 1005 146.852 1267.52 471.125
594 0 75.9042 13.7674 1045 151.381 1267.36 469.967
595 0 76.5584 14.1983 1087 150.92 1267.47 468.672
596 0 79.7729 14.3532 1145 144.318 1267.17 466.203
597 0 83.0436 14.3178 1189 154.144 1267.63 465.886
598 0 86.0181 13.8343 1190 150.823 1267.49 465.088
599 0 86.8394 14.0029 1216 156.935 1267.95 463.734
600 0 90.7439 14.2269 1291 153.926 1267.71 461.038
601 0 92.5976 13.9636 1293 155.688 1267.95 460.623
602 0 95.7439 14.215 1361 156.762 1268.31 459.752
603 0 98.5315 14.1173 1391 156.341 1267.89 458.302
604 1 52.2246 12.7335 665 162.391 1267.46 480.098
605 0 52.149 13.4806 703 156.011 1268.12 479.043
606 0 55.2165 13.3837 739 158.735 1268.11 478.769
607 0 57.3339 13.5522 777 158.331 1268.09 477.817
608 0 58.278 14.0705 820 154.978 1268.21 475.726
609 0 60.4234 13.3392 806 153.225 1268.29 474.541
610 0 64.3857 13.4191 864 152.469 1267.89 474.503
611 0 65.4441 13.6911 896 150.059 1268.52 472.778
612 0 67.6454 13.9403 943 147.879 1268.78 471.857
613 0 70.5274 13.9378 983 150.393 1268.43 470.204
614 0 73.326 14.1287 1036 150.25 1268.74 467.825
615 0 75.499 13.7618 1039 152.207 1268.31 467.559
616 0 77.5313 14.42 1118 144.127 1268.29 465.03
617 0 80.498 14.0749 1133 147.581 1268.56 464.314
618 0 82.4481 14.2393 1174 146.131 1269.28 463.187
619 0 85.4195 14.0249 1198 147.25 1269.47 461.906
620 0 87.5227 14.2363 1246 149 1269.26 461.655
621 0 91.384 14.2585 1303 138.979 1268.6 460.065
622 0 95.5082 14.1977 1356 147.588 1268.22 458.639
623 0 97.4651 14.4154 1405 145.243 1269.17 457.14
624 0 101.407 14.2593 1446 135.582 1268.75 456.678
625 0 104.196 14.204 1480 147.63 1269.27 455.521
626 1 53.068 12.3427 655 147.102 1268.76 479.348
627 0 56.0328 12.0108 673 143.152 1269.4 478.987
628 0 57.1154 12.6761 724 140.978 1269.54 478.721
629 0 61.0319 12.387 756 143.183 1269.93 476.923
630 0 62.1151 12.2515 761 139.861 1269.8 476.794
631 0 65.1281 12.2221 796 143.186 1270.02 475.335
632 0 65.0402 12.4846 812 145.894 1269.86 474.541
633 0 68.121 12.6099 859 141.607 1269.44 472.912
634 0 70.075 12.3582 866 139.425 1269.39 472.673
635 0 73.1914 12.3102 901 144.872 1269.61 471.021
636 0 75.09 11.9457 897 147.629 1269.45 470.119
637 0 77.1005 12.7237 981 138.624 1268.97 468.194
638 0 80.0942 12.1107 970 139.858 1267.97 466.916
639 0 83.2263 11.9674 996 134.857 1268.77 466.848
640 1 44.0351 9.83307 433 140.053 1267.52 486.307
641 0 44.0995 10.2722 453 138.556 1269.27 486.082
642 0 48.1273 9.76577 470 137.053 1268.8 485.121
643 0 48.1319 11.1776 538 134.753 1269.03 484.013
644 0 50.15 10.9671 550 130.793 1268.72 483.744
645 0 49.1772 10.8994 536 139.164 1268.04 484.287
646 0 50.2851 10.5598 531 137.979 1267.87 484.153
647 0 51.158 10.7901 552 133.804 1267.97 482.221
648 0 54.1875 11.1096 602 133.337 1268 481.842
649 0 56.2149 10.7445 604 141.361 1267.9 482.709
650 0 56.162 11.3422 637 134.882 1267.95 481.824
651 0 57.1336 11.1493 637 136.179 1267.89 481.623
652 0 61.1817 11.0981 679 137.152 1267.94 480.197
653 0 63.147 11.3228 715 141.717 1267.57 479.038
654 0 64.1087 11.3089 725 135.13 1267.98 479.189
655 0 66.1294 11.1599 738 145.558 1267.96 477.375
656 0 68.1325 11.1988 763 145.591 1267.46 476.478
657 0 73.2839 11.5851 849 143.43 1267.7 474.292
658 0 72.1781 11.624 839 149.99 1267.46 474.845
659 0 76.1882 11.6422 887 152.299 1267.54 472.653
660 0 79.1215 11.2612 891 150.419 1267.9 472.423
661 0 81.2145 11.5127 935 147.446 1267.75 471.132
662 0 83.2212 11.2111 933 149.959 1267.68 469.855
663 1 47.0344 10.8644 511 148.425 1269.22 487.299
664 0 50.0562 10.4483 523 152.977 1269.02 486.629
665 0 50.0133 11.237 562 154.288 1269.17 485.491
666 0 49.1006 11.0182 541 148.429 1268.19 486.183
667 0 51.0812 10.9238 558 139.894 1267.79 485.663
668 0 50.1809 11.0998 557 152.183 1265.58 485.386
669 0 58.2278 11.455 667 147.454 1266.39 482.933
670 0 58.2787 11.7195 683 153.13 1266.67 482.88
671 0 57.227 11.4981 658 149.71 1266.62 482.821
672 0 56.1525 12.0386 676 159.102 1266.72 481.914
673 0 60.2209 11.4246 688 154.526 1266.59 481.731
674 0 65.1063 11.366 740 150.145 1266.42 479.503
675 0 65.1517 11.4348 745 153.933 1266.09 479.526
676 0 67.2236 11.7518 790 153.07 1266.4 478.159
677 0 69.1611 11.9865 829 153.411 1265.88 476.419
678 0 71.3088 12.2846 876 149.919 1266.08 475.353
679 0 74.3073 11.8831 883 150.725 1265.66 474.565
680 0 77.2051 11.9811 925 143.535 1265.59 474.29
681 0 78.238 12.168 952 149.558 1265.57 472.951
682 0 82.1509 12.124 996 152.845 1265.17 470.681
683 0 84.0831 12.1071 1018 146.655 1265.44 469.714
684 0 87.1438 12.29 1071 138.235 1266.24 468.27
685 0 89.164 12.0452 1074 133.223 1267.19 467.342
686 0 95.1551 12.8947 1227 132.983 1267.44 463.442
687 1 50.0868 10.8013 541 137.948 1267.35 486.455
688 0 51.135 11.1665 571 137.312 1265.39 485.632
689 0 52.1481 11.7933 615 134.85 1266.07 485.735
690 0 54.1805 12.0523 653 134.951 1265.27 484.072
691 0 55.1771 11.3634 627 136.22 1265.74 484.812
692 0 56.2271 11.8982 669 136.278 1265.39 483.439
693 0 56.2508 12.3198 693 134.745 1266.51 483.481
694 0 60.3312 12.2325 738 133.401 1266.2 481.146
695 0 61.3735 12.481 766 135.516 1265.64 481.059
696 0 64.2347 12.5633 807 137.13 1265.67 480.975
697 0 64.2347 12.5633 807 163.182 1264.67 480.975
698 0 67.254 12.7725 859 135.3 1265.46 479.542
699 0 68.198 12.9623 884 138.138 1265.35 477.498
700 0 68.138 12.1958 831 142.304 1266.32 477.921
701 0 71.0206 12.8836 915 134.321 1266.42 476.144
702 0 72.2125 12.6986 917 139.985 1266.12 475.742
703 0 75.1696 12.9441 973 142.013 1266.69 472.939
704 0 78.2139 12.9133 1010 137.761 1266.82 472.278
705 0 80.1957 12.8685 1032 141.145 1267.01 471.176
706 0 83.1428 12.6409 1051 142.421 1266.42 471.9
707 0 84.294 12.9072 1088 140.671 1266.9 470.577
708 0 90.385 12.834 1160 140.206 1265.96 468.213
709 0 91.3512 13.0485 1192 142.492 1265.69 467.593
710 0 94.234 12.7555 1202 140.451 1266.19 466.041
711 1 51.3271 11.5728 594 136.423 1266.12 486.662
712 0 52.7704 11.37 600 139.295 1267.01 484.743
713 0 55.1538 11.894 656 143.468 1265.69 485.79
714 0 56.2252 12.61 709 132.281 1265.53 483.76
715 0 58.2003 12.4054 722 136.425 1265.44 484.057
716 0 58.2123 12.3857 721 134.401 1267.91 483.68
717 0 61.2501 12.0163 736 137.118 1266.81 482.961
718 0 63.3385 12.6621 802 136.329 1266.73 482.208
719 0 65.2939 12.4514 813 136.578 1266.09 482.626
720 0 66.2092 12.6266 836 132.276 1265.84 480.498
721 0 68.329 12.8496 878 133.453 1266.09 480.024
722 0 69.3354 12.7208 882 132.467 1266.21 478.981
723 0 72.2037 12.4232 897 129.304 1265.82 478.243
724 0 74.1843 12.9003 957 126.142 1266.3 476.648
725 0 77.3381 12.8009 990 125.56 1265.5 475.808
726 0 79.4683 13.5903 1080 121.594 1265.36 473.096
727 0 81.5155 13.2981 1084 126.628 1265.1 470.173
728 0 83.5469 12.7952 1069 130.704 1266.02 470.937
729 0 86.6849 13.1741 1142 126.532 1266.05 467.327
730 0 89.7463 13.1816 1183 130.258 1266.02 465.625
731 0 92.6151 13.0108 1205 124.889 1265.74 466.043
732 0 96.9804 13.3738 1297 123.797 1265.77 462.793
733 0 98.8666 13.5536 1340 124.323 1266.08 460.945
734 0 100.579 13.4421 1352 127.645 1266.34 459.941
735 0 104.609 13.3259 1394 131.613 1266.52 459.445
736 0 107.592 13.3839 1440 130.973 1267.16 457.358
737 0 109.623 13.5829 1489 125.058 1266.16 454.97
738 0 114.625 13.6271 1562 130.186 1266.43 452.845
739 0 117.487 13.4398 1579 132.707 1266.72 451.391
740 0 121.413 13.8041 1676 129.717 1266.61 448.74
741 1 67.1039 12.1155 813 130.427 1267.82 476.927
742 0 68.1155 12.1265 826 134.516 1268.87 477.827
743 0 70.106 12.2814 861 133.346 1269.21 475.736
744 0 73.2252 12.2635 898 127.01 1269.22 474.743
745 0 75.1635 11.9074 895 126.053 1269.44 473.815
746 0 78.1631 12.0901 945 125.62 1269.63 471.324
747 0 82.2474 11.8423 974 134.485 1269.19 470.56
748 0 84.2542 11.9638 1008 134.512 1269.09 469.151
749 0 87.2929 12.418 1084 136.678 1268.77 466.939
750 0 90.1183 11.9066 1073 140.091 1268.78 464.738
751 0 92.2805 12.5704 1160 137.495 1269.26 463.16
752 1 50.174 10.4038 522 142.115 1269.85 484.385
753 0 52.0348 10.6852 556 138.739 1270.69 483.714
754 0 53.1324 11.5937 616 139.237 1270.14 483.131
755 0 54.1813 11.8122 640 136.706 1269.53 482.441
756 0 52.2253 11.393 595 132.748 1268.92 483.207
757 0 56.2725 11.4088 642 133.48 1269.22 481.625
758 0 56.2532 11.4127 642 132.525 1269.65 481.02
759 0 61.2216 12.5119 766 125.961 1269.45 477.363
760 0 60.2039 11.3614 684 128.37 1269.74 477.784
761 0 61.2121 11.6807 715 128.085 1270.13 477.783
762 0 65.2887 11.6559 761 126.727 1269.81 476.359
763 0 66.1534 12.1989 807 130.613 1270.09 473.99
764 0 70.1412 12.0044 842 123.495 1270.4 473.529
765 0 71.2213 12.075 860 126.437 1270.98 473.236
766 0 73.2939 12.4567 913 120.23 1270.93 471.33
767 0 76.1508 12.1732 927 124.934 1270.82 469.644
768 0 79.1447 12.5087 990 126.164 1270.55 469.349
769 0 82.3482 12.7143 1047 118.853 1270.31 467.162
770 0 83.3321 11.7842 982 124.57 1270.29 466.374
771 0 86.2614 12.0564 1040 125.802 1270.1 465.98
772 0 87.3465 12.044 1052 126.844 1269.85 464.084
773 0 91.4072 12.5811 1150 130.705 1269.28 461.359
774 0 93.6183 12.5937 1179 127.932 1269.43 460.236
775 1 50.132 10.8713 545 131.464 1269.67 482.176
776 0 55.2037 10.8145 597 129.697 1269.21 481.296
777 0 55.3661 11.6678 646 124.814 1270.01 480.142
778 0 56.2359 11.5407 649 126.23 1269.8 479.065
779 0 60.2749 11.995 723 129.068 1269.95 478.515
780 0 58.2067 12.3354 718 127.533 1269.14 477.117
781 0 63.2526 11.9521 756 127.926 1269.06 476.335
782 0 64.2453 12.032 773 133.374 1269.72 474.894
783 0 65.3176 12.6 823 129.599 1269.7 473.203
784 0 68.1743 12.38 844 133.515 1269.43 473.814
785 0 69.2805 12.6587 877 130.326 1268.99 473.125
786 0 71.2686 12.3056 877 138.25 1268.93 472.904
787 0 73.3032 12.3596 906 137.086 1268.89 472.39
788 0 75.2467 12.7315 958 134.34 1268.6 470.169
789 0 78.2941 12.2998 963 134.231 1267.87 469.474
790 0 80.2107 12.5046 1003 136.691 1267.98 469.396
791 0 84.2592 12.236 1031 135.422 1267.91 466.631
792 0 85.2945 12.6972 1083 134.767 1267.89 465.754
793 0 89.6102 12.5655 1126 136.663 1267.54 463.816
794 1 47.2705 10.4082 492 138.091 1267.12 484.671
795 0 50.1879 10.7396 539 134.644 1267.12 484.423
796 0 53.2523 11.4173 608 133.586 1267.23 483.589
797 0 53.1883 11.4123 607 126.995 1267.02 482.259
798 0 54.292 11.6408 632 125.644 1268.67 481.487
799 0 56.2387 11.7179 659 127.156 1268.77 481.041
800 0 58.2605 12.0322 701 124.298 1268.82 479.476
801 0 60.1803 12.1302 730 129.277 1269.07 477.9
802 0 62.1163 11.9775 744 121.575 1269.58 477.946
803 0 66.3239 11.6398 772 128.563 1269.66 476.703
804 0 68.152 12.208 832 128.865 1269.6 475.293
805 0 69.2882 12.2387 848 132.221 1269.8 474.254
806 0 72.0955 11.8454 854 129.402 1269.32 473.645
807 0 75.3055 12.9074 972 126.507 1269.01 471.29
808 0 77.1745 12.0636 931 128.538 1269.08 470.394
809 0 79.1864 12.3001 974 125.875 1269.36 469.049
810 0 82.206 12.347 1015 121.582 1269.51 467.359
811 0 84.2779 12.5062 1054 126.901 1269.31 465.285
812 0 87.3132 12.4723 1089 123.522 1269.64 464.662
813 0 91.1491 12.4741 1137 124.887 1269.69 463.373
814 1 48.0967 10.9571 527 122.757 1270.75 484.025
815 0 50.2612 10.903 548 123.679 1270.94 482.792
816 0 53.0999 11.0546 587 122.078 1271.22 480.889
817 0 55.1718 11.1651 616 123.541 1271.68 480.968
818 0 57.4268 11.3013 649 124.177 1270.2 478.894
819 0 58.3106 11.5588 674 118.516 1270.79 477.99
820 0 60.2792 11.5297 695 123.255 1271.07 477.148
821 0 61.3607 12.0109 737 123.677 1270.74 476.881
822 0 62.2411 12.1945 759 120.974 1270.86 475.482
823 0 64.3165 12.4074 798 115.674 1271.12 473.376
824 0 67.2065 12.4541 837 116.317 1270.14 473.75
825 0 67.1763 12.1174 814 111.975 1270.49 473.55
826 0 68.1977 12.8303 875 114.569 1270.22 472.338
827 0 69.3719 12.9015 895 120.084 1269.95 470.825
828 0 73.1912 12.4742 913 119.958 1270.01 470.415
829 0 77.2989 12.6651 979 113.653 1270.01 468.17
830 0 79.2649 12.6412 1002 118.175 1270.82 466.972
831 0 82.1672 12.6815 1042 109.686 1271.55 464.438
832 1 42.1637 10.0798 425 118.056 1271.93 484.44
833 0 44.0454 10.58 466 114.017 1272.23 484.352
834 0 45.0739 10.627 479 116.681 1271.82 483.994
835 0 48.1386 10.9268 526 118.317 1272.1 481.827
836 0 50.2268 11.0499 555 117.726 1272.39 479.874
837 0 50.2375 11.4854 577 117.622 1271.8 481.175
838 0 53.0929 12.1485 645 115.704 1270.71 479.724
839 0 55.0468 11.7355 646 120.259 1270.99 479.412
840 0 55.0876 11.636 641 123.78 1271.59 478.507
841 0 59.231 11.6662 691 119.645 1270.96 477.2
842 0 60.09 12.3315 741 118.333 1270.96 475.347
843 0 60.1856 12.4448 749 113.786 1270.38 473.746
844 0 61.0607 12.4958 763 123.338 1270.24 473.457
845 0 63.156 12.6195 797 122.176 1270.3 472.497
846 0 66.1603 12.5453 830 117.865 1269.96 471.927
847 0 69.2043 12.3547 855 120.105 1269.88 471.494
848 0 69.2495 13.0254 902 118.838 1270.36 470.316
849 0 71.157 12.6621 901 123.64 1270.36 469.014
850 0 72.0508 12.8243 924 122.168 1271.65 469.213
851 0 75.1365 12.5771 945 117.11 1271.81 468.958
852 0 77.1846 13.4612 1039 118.304 1271.67 467.332
853 0 80.226 13.2376 1062 119.2 1271.06 464.328
854 0 83.1465 13.0733 1087 120.04 1270.87 464.284
855 0 84.2935 13.3581 1126 115.976 1272.49 464.469
856 1 48.1642 11.7099 564 119.348 1272.58 481.856
857 0 50.2513 11.6813 587 117.388 1271.43 480.583
858 0 51.1753 12.2129 625 119.944 1271.23 477.773
859 0 53.235 12.7923 681 120.348 1271.23 478.402
860 0 54.0571 13.1158 709 112.721 1272.16 479.786
861 0 54.2404 12.8318 696 116.793 1271.77 478.691
862 0 58.1289 12.6959 738 116.934 1271.76 478.213
863 0 60.0758 12.7006 763 118.557 1271.27 476.972
864 0 62.3137 12.9185 805 116.585 1271.63 475.986
865 0 63.0805 12.9359 816 118.934 1272.67 474.858
866 0 65.1301 12.237 797 121.875 1270.9 474.897
867 0 67.1502 13.3432 896 118.358 1270.42 474.079
868 0 68.0643 13.5607 923 117.989 1270.13 472.85
869 0 70.105 13.4655 944 117.124 1270.13 472.278
870 0 72.19 13.4229 969 120.671 1269.99 471.741
871 0 76.1275 13.4249 1022 118.711 1269.81 470.39
872 0 78.2364 13.6254 1066 124.267 1270.61 469.929
873 0 79.1636 13.9711 1106 126.381 1271.14 467.581
874 0 82.0998 13.5689 1114 127.241 1271.22 466.801
875 0 83.1844 13.7406 1143 127.717 1270.93 465.577
876 0 86.2086 13.9661 1204 131.338 1271.03 464.282
877 0 90.4435 13.6328 1233 130.085 1271.23 462.768
878 1 48.0896 11.4162 549 130.907 1271.59 484.222
879 0 48.1726 12.2891 592 131.684 1271.12 483.693
880 0 50.1504 12.8613 645 128.66 1270.94 481.631
881 0 52.1255 12.5658 655 130.169 1271.3 483.56
882 0 54.0958 12.9215 699 128.675 1271.44 483.485
883 0 54.0106 12.9604 700 134.713 1271.46 482.057
884 0 58.0518 12.9023 749 134.139 1271.55 480.664
885 0 58.0681 12.8298 745 131.522 1271.87 480.836
886 0 59.0996 13.3503 789 133.815 1271.21 479.108
887 0 63.0433 12.7214 802 130.566 1272.07 478.455
888 0 65.0731 12.9393 842 137.34 1271.88 477.304
889 0 68.1492 13.2503 903 126.786 1271.75 475.725
890 0 70.0296 12.6232 884 134.136 1272.25 474.63
891 0 72.2601 13.0639 944 128.456 1272.1 473.698
892 0 75.1308 13.0705 982 131.834 1271.98 473.258
893 0 77.2406 13.1537 1016 132.18 1271.56 471.325
894 0 81.1706 12.7509 1035 129.136 1272.6 469.906
895 0 83.138 13.1949 1097 136.263 1272.64 468.513
896 0 85.127 12.8161 1091 135.848 1272.49 467.078
897 0 88.1741 13.0197 1148 133.912 1273.05 466.114
898 0 91.1378 13.0462 1189 130.022 1272.43 463.426
899 0 95.2421 13.4184 1278 134.757 1272.09 461.597
900 0 98.2399 13.0904 1286 129.838 1272.78 459.509
901 0 102.292 13.5984 1391 134.195 1272.03 458.869
902 1 53.1022 12.2594 651 132.19 1271.5 482.654
903 0 55.0821 12.0184 662 137.669 1271.52 480.511
904 0 56.0979 11.8008 662 136.015 1271.78 482.121
905 0 59.0421 12.3302 728 133.848 1273.01 479.736
906 0 59.0785 12.8642 760 128.896 1273.13 478.792
907 0 63.0938 12.3309 778 130.582 1272.7 477.154
908 0 64.1746 12.7932 821 122.543 1272.94 476.052
909 0 68.0949 12.8497 875 104.121 1272.65 474.946
910 0 69.1439 12.163 841 132.317 1272.55 476.046
911 0 70.0753 12.3153 863 137.538 1272.76 473.739
912 0 72.2662 13.1182 948 135.526 1273.05 472.159
913 0 74.1157 12.9392 959 139.006 1272.8 471.17
914 0 76.3752 13.2504 1012 139.874 1272.77 468.828
915 0 81.2269 12.9268 1050 139.143 1273.58 466.994
916 0 84.1519 13.238 1114 136.887 1273.63 464.434
917 0 86.2168 13.0833 1128 144.35 1272.93 465.473
918 0 88.2585 12.792 1129 144.563 1272.91 464.462
919 0 92.3398 12.4757 1152 148.951 1272.34 462.476
920 0 96.3841 14.2866 1377 141.949 1272.54 459.117
921 0 98.4906 12.9352 1274 150.538 1272.26 459.982
922 1 51.273 10.5709 542 149.557 1272.31 482.738
923 0 52.3735 11.4371 599 148.247 1272.92 481.746
924 0 55.3336 11.8012 653 141.13 1272.83 480.346
925 0 58.2665 11.9623 697 155.377 1272.33 480.887
926 0 58.2877 12.404 723 146.754 1272.28 478.876
927 0 61.2573 11.9496 732 149.814 1271.56 478.117
928 0 62.1871 12.382 770 151.142 1272.32 476.974
929 0 64.3509 11.6549 750 152.336 1272.81 475.94
930 0 66.2336 12.2747 813 145.925 1272.99 475.16
931 0 67.3308 12.4757 840 129.433 1272.95 474.229
932 0 70.2844 12.2787 863 144.622 1272.51 472.878
933 0 73.3734 12.6204 926 136.554 1272.91 470.937
934 0 73.2864 12.1441 890 145.619 1272.66 470.828
935 0 77.3047 12.7547 986 129.558 1273.14 469.308
936 0 79.3235 12.3671 981 141.001 1272.98 467.954
937 0 81.3896 12.6552 1030 134.696 1273.17 466.355
938 0 84.1596 12.5713 1058 133.647 1273.61 465.044
939 0 88.2447 12.4313 1097 122.554 1273.5 464.118
940 0 89.2548 12.4027 1107 133.341 1273.48 461.827
941 0 93.4924 12.386 1158 136.699 1273.09 459.254
942 0 98.4314 12.1709 1198 134.198 1272.54 458.008
943 1 50.1024 10.8777 545 130.156 1273.77 481.626
944 0 51.1272 10.8162 553 124.662 1273.63 481.168
945 0 52.2692 11.1921 585 123.585 1273.79 480.803
946 0 56.0966 11.1593 626 124.581 1273.98 480.219
947 0 57.1559 11.3899 651 126.627 1272.61 478.249
948 0 57.168 11.335 648 125.215 1272.45 477.198
949 0 60.1943 11.7453 707 126.081 1272.75 476.798
950 0 62.158 11.2294 698 127.713 1273.17 476.809
951 0 64.2345 11.7071 752 122.707 1273.22 475.404
952 0 64.316 11.6767 751 125.025 1272.45 474.024
953 0 66.1548 11.6696 772 117.383 1273.33 474.359
954 0 70.2535 11.7716 827 118.775 1273.23 472.025
955 0 70.1681 11.8715 833 122.553 1273.31 471.343
956 0 73.1267 11.4322 836 123.227 1273.5 470.208
957 0 75.1578 12.1079 910 114.873 1273.24 468.402
958 0 78.2008 12.0203 940 119.784 1273.48 468.455
959 0 80.1315 11.5934 929 115.041 1274.18 467.991
960 0 83.2095 11.6814 972 123.722 1274.23 465.448
961 0 82.1654 11.27 926 118.751 1274.51 465.694
962 0 88.1299 11.9596 1054 121.19 1274.05 462.917
963 0 92.2957 11.669 1077 123.186 1273.98 462.453
964 0 96.213 11.724 1128 122.271 1274.04 460.048
965 0 97.2026 12.0882 1175 122.633 1274.18 457.91
966 0 101.129 11.3815 1151 123.228 1273.3 457.055
967 1 55.0642 10.7693 593 118.11 1274.1 480.626
968 0 58.1979 11.6671 679 114.533 1274.08 478.604
969 0 59.4405 11.8606 705 116.335 1273 477.504
970 0 61.5429 11.9916 738 116.192 1272.71 476.037
971 0 63.3167 12.4454 788 121.095 1273.13 475.673
972 0 65.3231 12.0784 789 122.188 1272.74 475.45
973 0 67.6329 12.2869 831 117.937 1273.28 473.995
974 0 70.3557 11.982 843 115.533 1273.93 473.095
975 0 69.6664 12.445 867 122.337 1273.76 471.459
976 0 73.3118 12.2218 896 124.015 1273.04 471.529
977 0 76.2946 12.36 943 123.11 1272.46 470.587
978 0 79.2209 13.0395 1033 119.912 1272.98 470.3
979 0 81.3436 12.8713 1047 118.109 1272.62 467.896
980 0 83.7218 13.2343 1108 114.401 1272.22 466.835
981 0 86.5491 13.3104 1152 126.05 1272.8 464.799
982 0 89.4802 12.595 1127 127.482 1273.72 465.148
983 0 92.5235 12.7427 1179 116.103 1274.37 459.608
984 0 95.4944 13.0269 1244 116.783 1274.21 461
985 0 98.4923 12.7827 1259 119.008 1274.17 457.019
986 0 102.286 12.6019 1289 127.626 1274.58 457.894
987 0 104.408 12.7863 1335 123.622 1274.29 456.199
988 0 110.248 12.6624 1396 125.936 1275.52 454.52
989 0 111.212 12.8494 1429 124.13 1274.94 451.202
990 0 115.173 13.076 1506 128.422 1273.96 451.673
991 0 120.298 13.0758 1573 131.285 1273.55 449.641
992 0 124.247 13.0063 1616 125.444 1274.44 446.73
993 0 130.325 13.451 1753 130.737 1275.23 443.913
994 1 52.1813 11.5175 601 123.01 1275.38 479.988
995 0 55.0612 11.6961 644 131.675 1275.46 479.36
996 0 57.064 12.0041 685 124.8 1274.67 478.082
997 0 58.0659 11.7453 682 130.996 1274.71 478.358
998 0 60.1151 11.8939 715 127.449 1274.63 476.555
999 0 62.021 11.9314 740 134.832 1274.84 477.482
1000 0 64.2736 12.6646 814 133.1 1274.02 476.055
1001 0 66.0733 12.5013 826 92.3959 1273.88 475.649
1002 0 69.1047 12.0976 836 135.172 1273.74 473.591
1003 0 71.2864 12.1341 865 144.346 1273.69 472.919
1004 0 73.1697 12.2045 893 139.628 1274.22 471.017
1005 0 76.1597 12.3819 943 136.211 1273.92 469.073
1006 0 78.3318 12.1151 949 137.423 1273.66 467.321
1007 0 80.3849 12.1913 980 143.103 1273.52 466.626
1008 1 44.0409 10.4221 459 139.39 1273.74 486.129
1009 0 45.0805 10.448 471 139.59 1274.59 485.507
1010 0 47.0743 10.8127 509 142.582 1274.89 486.01
1011 0 48.1066 11.4537 551 142.695 1275.93 485.064
1012 0 51.0669 11.7885 602 138.875 1276.53 483.86
1013 0 49.1072 12.1571 597 145.765 1276.37 484.067
1014 0 52.0567 11.9293 621 142.142 1276.09 484.676
1015 0 53.1372 12.1196 644 140.435 1275.3 483.242
1016 0 55.0976 11.9969 661 147.284 1276.31 482.38
1017 0 55.0701 12.7655 703 147.421 1275.94 481.984
1018 0 57.1983 12.0633 690 150.835 1275.98 481.661
1019 0 58.0732 12.3293 716 144.05 1276.19 479.694
1020 0 61.1941 12.6156 772 138.15 1276.63 479.352
1021 0 61.0609 12.6759 774 143.2 1275.89 478.286
1022 0 61.158 12.5249 766 141.389 1275.2 477.956
1023 0 64.2214 12.7216 817 138.148 1275.44 476.081
1024 0 66.1728 12.7394 843 135.515 1275.3 474.977
1025 0 69.141 12.959 896 143.218 1275.58 473.441
1026 0 71.1865 12.8536 915 134.659 1275.95 473.126
1027 0 74.153 12.7574 946 139.36 1276.02 471.968
1028 0 75.1733 13.2627 997 133.733 1275.78 470.785
1029 0 76.1574 13.0125 991 139.649 1275.28 469.241
1030 0 81.178 13.5135 1097 135.608 1274.49 467.725
1031 0 82.2009 12.9804 1067 140.105 1274.88 466.928
1032 0 86.3151 12.8483 1109 134.271 1274.58 465.898
1033 0 87.1393 13.1055 1142 133.741 1278.17 465.661
1034 0 90.1256 12.9819 1170 137.377 1276.19 464.056
1035 1 48.0777 11.627 559 142.834 1276.12 485
1036 0 49.3554 11.9339 589 136.211 1274.33 482.543
1037 0 49.2306 12.025 592 130.519 1275.51 480.561
1038 0 51.1421 12.1035 619 131.38 1275.3 480.604
1039 0 52.1489 12.0616 629 129.258 1275.07 479.297
1040 0 54.1636 12.1299 657 116.688 1274.41 479.318
1041 0 53.1541 12.6237 671 129.34 1277.62 479.015
1042 0 56.2535 12.5859 708 133.592 1276.08 477.54
1043 0 57.2408 12.6308 723 130.451 1276.41 477.376
1044 0 57.1732 12.9256 739 135.429 1275.67 478.168
1045 0 61.1869 12.4537 762 132.629 1274.78 476.388
1046 0 62.1414 13.4854 838 121.317 1274.47 477.856
1047 0 63.1593 13.1572 831 127.419 1274.39 476.745
1048 0 67.2551 13.1291 883 131.185 1274.57 476.036
1049 0 69.2459 13.4015 928 131.949 1273.97 474.206
1050 0 69.2319 13.6064 942 133.076 1274.11 473.637
1051 0 71.18 13.206 940 138.363 1274.31 472.584
1052 0 75.1875 13.3932 1007 136.673 1274.19 471.363
1053 0 77.374 13.5704 1050 132.685 1275.52 468.765
1054 0 79.2572 13.8158 1095 135.026 1273.92 466.849
1055 0 82.278 13.6002 1119 133.626 1273.81 465.765
1056 0 84.3419 13.7298 1158 134.946 1273.6 464.706
1057 0 89.206 12.9924 1159 139.947 1273.17 463.21
1058 0 91.2766 12.9825 1185 140.247 1273.68 461.766
1059 1 48.2244 11.1976 540 143.476 1273.44 482.617
1060 0 50.3152 11.4677 577 140.671 1274.23 481.778
1061 0 51.0429 11.9703 611 138.628 1275.5 483.342
1062 0 52.1831 12.1879 636 144.462 1274 482.11
1063 0 53.2593 12.5236 667 142.243 1274.18 481.198
1064 0 55.1458 12.1496 670 139.6 1277.27 481.113
1065 0 58.0868 12.3092 715 133.73 1276.04 479.477
1066 0 58.163 12.2758 714 136.917 1275.74 478.702
1067 0 63.1526 12.0027 758 133.293 1275.35 476.992
1068 0 63.2306 12.2409 774 136.779 1275.37 476.314
1069 0 66.129 13.02 861 126.346 1275.45 474.544
1070 0 68.2973 12.8116 875 136.232 1274.72 473.789
1071 0 70.3525 12.6079 887 136.604 1274.15 473.521
1072 0 72.4111 13.0229 943 135.739 1274.07 472.474
1073 0 72.3172 13.0674 945 134.321 1273.48 469.525
1074 0 77.5656 12.686 984 134.661 1273.05 466.401
1075 0 77.7215 13.3425 1037 133.104 1272.83 464.815
1076 0 81.7299 13.0307 1065 136.458 1273.17 464.856
1077 0 81.5593 13.0335 1063 133.149 1273.03 464.024
1078 0 85.726 12.7849 1096 140.997 1273.5 464.227
1079 0 89.5467 12.6526 1133 140.106 1273.42 462.289
1080 0 92.6171 12.7838 1184 134.244 1273.15 459.874
1081 1 48.3531 10.8163 523 142.665 1272.32 483.224
1082 0 49.3268 11.292 557 139.925 1272.91 483.321
1083 0 49.087 12.0806 593 141.233 1273.51 482.46
1084 0 52.0374 12.222 636 139.322 1275.04 482.403
1085 0 53.0581 12.1188 643 128.334 1275.38 480.302
1086 0 54.0786 12.4264 672 133.298 1275.17 482.49
1087 0 56.0581 12.7368 714 131.289 1274.86 481.867
1088 0 57.0908 12.4363 710 137.434 1274.32 480.121
1089 0 61.0623 13.1833 805 132.322 1274.23 478.851
1090 0 64.0759 12.891 826 129.884 1274.34 477.816
1091 0 64.1657 13.0911 840 132.215 1274.72 476.233
1092 0 67.0696 13.3294 894 130.311 1274.61 475.567
1093 0 67.2039 13.0796 879 136.001 1274.94 476.601
1094 0 70.1216 13.0202 913 138.422 1275.26 475.233
1095 0 72.12 12.9368 933 138.731 1274.52 474.162
1096 0 75.1278 13.1509 988 139.438 1274.4 472.072
1097 0 77.1485 13.1694 1016 137.981 1274.11 470.581
1098 0 78.1593 13.4341 1050 139.664 1274.34 470.16
1099 0 81.1238 13.0541 1059 136.138 1274.51 468.705
1100 0 84.1566 13.5581 1141 130.724 1274.58 466.705
1101 0 89.2208 14.5818 1301 132.934 1274.11 463.847
1102 0 90.2782 13.3809 1208 139.909 1274.35 463.273
1103 0 95.2273 13.242 1261 138.936 1274.01 462.301
1104 0 96.2353 12.8331 1235 138.24 1273.42 461.259
1105 1 50.0768 11.3825 570 134.044 1273.82 481.949
1106 0 52.1831 11.9771 625 135.402 1273.5 480.65
1107 0 51.1704 12.644 647 143.379 1273.09 481.791
1108 0 56.2255 12.7878 719 137.533 1273.71 479.854
1109 0 57.1077 12.7829 730 140.44 1273.83 479.17
1110 0 58.1828 12.4779 726 139.737 1274.14 477.897
1111 0 60.1737 12.5636 756 142.037 1274.03 476.989
1112 0 63.1643 12.8712 813 149.942 1273.69 478.451
1113 0 66.4737 13.0427 867 144.14 1273.42 477.104
1114 0 67.3873 12.9698 874 144.595 1274.39 476.022
1115 0 71.1411 12.8618 915 143.195 1274.66 475.645
1116 0 71.1673 13.5315 963 144.498 1274.25 474.295
1117 0 74.2043 13.072 970 151.285 1273.91 473.551
1118 0 77.4892 13.1373 1018 144.798 1273.24 472.993
1119 0 80.4131 13.2192 1063 134.116 1273.67 471.383
1120 0 81.4868 13.7936 1124 145.657 1273.77 470.475
1121 0 85.3257 13.0793 1116 150.484 1273.14 469.668
1122 0 86.5717 13.1683 1140 142.611 1272.47 466.976
1123 0 92.5053 15.091 1396 144.473 1273.16 460.229
1124 0 93.6182 13.2132 1237 150.173 1273.03 462.554
1125 0 96.5304 13.8091 1333 146.708 1273.22 459.795
1126 0 99.5181 13.0429 1298 154.654 1272.92 458.677
1127 0 102.373 12.9429 1325 145.497 1272.42 459.824
1128 1 54.2432 12.4624 676 148.68 1272.93 483.087
1129 0 55.2971 13.1472 727 149.325 1272.25 482.29
1130 0 57.1009 14.2204 812 142.58 1271.23 480.634
1131 0 57.1819 13.221 756 145.792 1272.04 481.271
1132 0 59.352 13.1082 778 142.384 1271.55 479.748
1133 0 62.449 13.0987 818 144.267 1272.39 474.52
1134 0 63.4667 13.7237 871 140.163 1272.7 472.153
1135 0 64.3346 13.694 881 140.86 1272.62 473.838
1136 0 68.3651 12.9744 887 143.198 1272.21 472.37
1137 0 70.3676 13.2447 932 138.592 1271.89 470.074
1138 0 72.3616 13.4187 971 138.774 1271.47 474.326
1139 0 74.4545 13.243 986 143.161 1271.17 474.173
1140 0 76.4699 13.744 1051 137.834 1272.31 470.09
1141 0 78.3941 13.7 1074 136.06 1271.73 465.954
1142 0 82.4785 13.8339 1141 136.729 1272.1 464.87
1143 0 84.5065 13.6913 1157 145.201 1270.62 462.12
1144 0 85.6288 14.0841 1206 141.371 1271.13 464.937
1145 0 92.6375 14.3139 1326 136.872 1271.43 463.053
1146 0 94.7497 14.2797 1353 141.448 1271.21 460.625
1147 0 97.7056 14.0422 1372 149.673 1271.78 458.077
1148 1 43.5264 13.4401 585 155.501 1271.69 483.511
1149 0 45.642 13.4525 614 149.309 1271.52 482.077
1150 0 46.569 14.3872 670 154.716 1272.56 481.901
1151 0 48.6036 14.4228 701 141.322 1272.68 479.241
1152 0 51.321 14.1073 724 152.359 1272.74 479.855
1153 0 51.5576 14.2753 736 154.505 1273.12 479.848
1154 0 52.3839 14.4701 758 151.694 1273.43 480.053
1155 0 53.931 14.5742 786 149.637 1274.16 478.552
1156 0 56.095 14.5111 814 150.275 1273.95 479.33
1157 0 58.5734 14.4776 848 147.752 1272.88 478.185
1158 0 59.7713 14.5555 870 145.355 1272.45 476.767
1159 0 59.5029 15.3102 911 151.06 1272.05 477.106
1160 0 63.5156 14.8782 945 146.107 1272.21 475.999
1161 0 65.6264 14.8111 972 137.916 1274.46 475.071
1162 0 66.6402 14.9909 999 143.055 1272.98 474.018
1163 0 69.4859 14.6217 1016 148.959 1272.17 473.99
1164 0 70.4661 14.617 1030 137.727 1271.99 472.459
1165 0 73.5154 14.6092 1074 141.97 1271.98 471.7
1166 0 75.653 14.6855 1111 143.023 1271.92 470.525
1167 0 77.4409 15.1212 1171 134.617 1272.21 470.575
1168 0 79.3618 15.549 1234 140.874 1272.41 469.027
1169 0 80.5334 14.3916 1159 153.979 1272.48 468.339
1170 0 82.5388 14.7567 1218 143.348 1272.64 468.671
1171 0 84.8749 14.4801 1229 149.36 1272.45 466.605
1172 0 89.758 14.5057 1302 141.942 1272.53 465.573
1173 0 94.4277 16.457 1554 137.505 1272.49 461.593
1174 0 94.5488 15.0081 1419 145.866 1272.16 463.042
1175 0 97.551 15.0998 1473 146.199 1272.62 461.529
1176 0 100.534 15.1591 1524 144.226 1272.68 459.26
1177 0 103.771 15.1777 1575 147.599 1272.37 458.111
1178 0 109.641 14.9215 1636 146.909 1272.9 456.621
1179 0 114.692 14.7699 1694 147.877 1272.94 453.634
1180 0 117.764 14.3762 1693 146.052 1272.88 453.09
1181 1 58.6864 14.5349 853 155.208 1272.71 479.869
1182 0 60.7018 14.7277 894 161.154 1273.13 478.793
1183 0 63.4678 14.8894 945 155.924 1272.9 478.012
1184 0 64.6815 15.1975 983 157.532 1273.18 477.145
1185 0 67.3892 15.1953 1024 150.588 1272.9 476.72
1186 0 69.6428 14.9908 1044 154.446 1273.3 475.64
1187 0 70.4916 15.0798 1063 159.793 1273.6 474.824
1188 0 72.6071 14.971 1087 159.339 1273.36 473.21
1189 0 77.7975 15.4118 1199 155.329 1273.45 471.058
1190 0 79.5213 15.0526 1197 166.982 1273.04 470.071
1191 0 82.6751 15.3976 1273 156.931 1273.9 469.219
1192 0 84.4773 15.1757 1282 162.302 1273.18 468.75
1193 0 87.3836 14.7396 1288 167.661 1272.9 467.138
1194 0 88.6612 15.1476 1343 160.773 1273.72 465.908
1195 0 94.5377 14.883 1407 155.319 1273.36 463.956
1196 1 44.4151 14.342 637 156.782 1273.71 486.096
1197 0 44.3693 15.0555 668 157.087 1274.08 484.569
1198 0 47.4437 14.6911 697 162.098 1273.79 484.11
1199 0 49.6396 14.283 709 77.6841 1273.47 483.803
1200 0 50.6114 14.3841 728 162.353 1273.35 482.58
1201 0 52.5562 14.4988 762 164.345 1273.88 482.163
1202 0 53.3294 14.7949 789 157.475 1273.65 480.307
1203 0 54.749 14.6852 804 156.883 1274.1 479.536
1204 0 57.232 14.4849 829 164.221 1273.54 477.338
1205 0 58.3062 14.784 862 167.843 1273.4 476.053
1206 0 61.2431 14.6955 900 165.394 1273.41 475.358
1207 0 63.2632 14.4476 914 168.028 1273.74 474.856
1208 0 65.448 14.607 956 168.629 1273.47 473.473
1209 0 65.4739 15.1358 991 167.44 1273.61 473.379
1210 0 71.4191 15.122 1080 167.858 1273.09 470.783
1211 0 72.3819 15.1005 1093 168.756 1272.75 470.168
1212 0 74.1343 14.9863 1111 171.651 1273.17 469.236
1213 0 76.3243 15.0018 1145 170.881 1272.74 467.398
1214 0 79.3769 15.3193 1216 169.047 1273.05 466.195
1215 0 82.3273 15.1104 1244 165.236 1273.4 464.481
1216 0 85.1601 15.2066 1295 152.273 1273.25 464.274
1217 0 87.2915 15.3623 1341 164.515 1273.4 462.162
1218 0 92.3135 14.6349 1351 169.839 1273.51 460.853
1219 0 94.0937 14.9319 1405 156.514 1273.21 459.04
1220 0 99.2978 14.673 1457 163.419 1272.82 456.465
1221 0 104.26 14.6366 1526 159.59 1273.1 454.997
1222 1 54.1563 12.3901 671 158.89 1272.94 476.669
1223 0 57.2527 12.3138 705 163.01 1273.65 477.017
1224 0 57.136 13.1791 753 156.359 1273.54 475.478
1225 0 60.4249 13.1734 796 160.266 1273.57 474.129
1226 0 62.2415 12.6925 790 161.801 1273.59 473.129
1227 0 63.41 13.1683 835 155.268 1274.12 471.616
1228 0 65.3088 13.3519 872 155.612 1272.94 470.94
1229 0 68.4875 13.3455 914 151.765 1273.18 470.476
1230 0 70.454 13.1859 929 153.487 1273.53 467.818
1231 0 72.3656 13.1969 955 155.884 1274.34 466.875
1232 0 76.4717 13.1683 1007 154.102 1273.95 465.665
1233 0 78.2915 13.2198 1035 156.001 1273.91 464.131
1234 0 81.4382 13.2002 1075 150.183 1273.99 461.808
1235 0 82.4797 13.276 1095 155.598 1274.33 461.255
1236 0 86.5718 12.9372 1120 156.448 1274.1 459.311
1237 0 88.4061 13.2344 1170 157.103 1273.34 457.374
1238 0 88.4061 13.2344 1170 160.608 1272.34 457.374
1239 0 92.4619 13.2703 1227 153.928 1273.51 455.292
1240 0 96.5536 13.2051 1275 141.852 1273.55 453.718
1241 0 99.7809 13.4094 1338 148.035 1273.47 452.728
1242 0 100.605 13.558 1364 151.842 1273.62 451.729
1243 0 101.748 13.9462 1419 155.754 1274.11 449.71
1244 0 107.837 14.3179 1544 152.598 1273.1 447.168
1245 0 111.124 13.7324 1526 155.326 1273.19 447.555
1246 0 116.086 13.6019 1579 157.436 1272.99 444.022
1247 0 119.018 13.687 1629 159.374 1272.57 442.859
1248 0 121.672 13.3885 1629 153.376 1273.4 439.972
1249 0 126.851 13.8114 1752 156.299 1273.4 438.139
1250 0 131.026 13.7225 1798 155.869 1273.31 435.866
1251 1 77.5424 10.2782 797 143.419 1273.46 466.668
1252 1 44.332 8.54913 379 134.897 1273.19 484.544
1253 0 43.1988 8.81969 381 135.961 1273.5 483.89
1254 0 44.2026 9.25284 409 128.812 1274.25 482.883
1255 0 46.2131 9.47784 438 136.811 1275.08 481.76
1256 0 47.1431 9.20601 434 132.779 1276.37 481.479
1257 0 48.3159 8.79628 425 131.266 1274.09 480.289
1258 0 48.2413 9.24518 446 135.928 1273.37 480.572
1259 0 49.3231 8.9816 443 136.941 1274.31 480.894
1260 0 51.4175 9.64652 496 135.032 1272.93 478.081
1261 0 53.2936 8.51884 454 138.881 1273.37 479.068
1262 0 53.3215 10.0335 535 138.626 1273.37 477.897
1263 1 31.0936 8.42617 262 133.218 1275.39 490.305
1264 0 31.0129 8.25462 256 128.715 1276.39 490.145
1265 0 30.0165 7.89565 237 131.937 1276.03 490.418
1266 0 32.1493 7.71402 248 125.383 1275.78 490.677
1267 0 30.044 8.72055 262 128.805 1275.45 490.748
1268 0 27.0981 7.93413 215 128.633 1275.68 492.167
1269 0 27.394 9.08959 249 125.506 1274.51 491.321
1270 0 33.2115 8.7018 289 120.862 1274.2 489.131
1271 0 35.4395 9.00126 319 126.056 1274.83 488.549
1272 0 36.2763 8.93146 324 126.762 1274.39 488.253
1273 0 36.1551 9.09969 329 126.064 1274.8 487.401
1274 0 39.2308 9.27841 364 123.915 1274.94 486.843
1275 0 38.2772 10.0321 384 126.643 1274.81 487.06
1276 0 40.1334 9.294 373 126.45 1274.6 487.145
1277 0 39.1877 9.64589 378 128.278 1274.85 487.225
1278 0 43.3399 9.5524 414 124.304 1273.92 485.384
1279 0 43.1843 10.0268 433 129.859 1274.73 484.079
1280 0 43.255 9.84858 426 130.171 1274.56 483.27
1281 0 45.2916 10.046 455 123.365 1274.44 483.323
1282 0 45.3046 9.53545 432 129.433 1275.56 484.37
1283 0 43.5494 8.79462 383 137.452 1275.17 483.924
1284 0 53.8422 11.4966 619 129.701 1274 477.79
1285 0 52.5072 10.4176 547 132.062 1274.14 479.373
1286 0 51.2743 10.3561 531 127.185 1273.61 479.222
1287 0 54.3519 10.616 577 126.686 1273.85 478.277
1288 0 54.3233 10.4191 566 121.94 1273.6 478.302
1289 0 57.3192 10.6945 613 126.912 1274.47 476.457
1290 0 58.2603 10.4703 610 127.989 1274.54 476.682
1291 0 61.3962 10.7499 660 130.668 1274.2 474.115
1292 0 62.3589 10.9848 685 127.13 1273.75 473.793
1293 0 66.2515 11.0941 735 127.569 1273.78 472.186
1294 0 69.3109 11.1238 771 131.882 1273.29 470.636
1295 0 70.2669 11.4563 805 133.015 1273.37 469.114
1296 0 73.1367 11.2803 825 131.976 1273.78 469.076
1297 0 75.2031 11.5288 867 127.74 1274.06 467.629
1298 1 41.0481 9.74467 400 127.355 1274.46 483.91
1299 0 43.0239 10.2734 442 129.419 1273.86 483.724
1300 0 42.0365 10.9191 459 129.519 1274.29 482.654
1301 0 46.1187 10.7982 498 137.761 1274.31 481.857
1302 0 48.1568 11.1718 538 137.299 1275.35 479.719
1303 0 46.1489 11.5279 532 136.673 1275.67 479.641
1304 0 50.0515 10.7689 539 135.926 1275.11 479.529
1305 0 50.1194 11.9714 600 134.223 1271.71 478.802
1306 0 51.3092 11.7718 604 134.222 1272.06 478.935
1307 0 52.126 11.9326 622 129.249 1272.48 478.344
1308 0 55.3775 11.539 639 132.141 1272.5 478.097
1309 0 57.1656 12.42 710 131.342 1272.02 476.256
1310 0 58.2183 11.9035 693 136.576 1272.24 475.99
1311 0 59.1938 11.8425 701 133.864 1272.26 475.208
1312 0 60.0997 12.2463 736 131.821 1272.4 475.092
1313 0 62.1913 11.7862 733 123.175 1272.54 473.958
1314 0 65.1213 12.3769 806 124.773 1272.74 473.628
1315 0 67.123 12.1121 813 131.37 1273.17 472.902
1316 0 68.0376 12.0669 821 134.917 1273.24 471.73
1317 0 71.1269 12.1614 865 130.21 1273.38 469.951
1318 0 72.3561 13.1986 955 130.323 1272.48 467.774
1319 0 74.1709 12.4577 924 133.302 1273.63 468.498
1320 0 78.3025 12.2218 957 132.586 1272.71 467.34
1321 0 80.3277 12.6606 1017 128.825 1273.55 465.298
1322 0 79.5502 12.9729 1032 133.53 1273.42 463.774
1323 0 84.5141 12.4003 1048 129.445 1273.52 463.008
1324 1 43.1416 11.0798 478 129.59 1273.47 483.462
1325 0 44.2456 11.3684 503 126.062 1272.98 482.034
1326 0 47.1587 11.5991 547 125.424 1272.69 480.693
1327 0 49.0707 12.1254 595 123.545 1275.19 479.518
1328 0 50.0439 11.7896 590 124.253 1274.94 479.358
1329 0 52.0442 11.3749 592 125.772 1274.98 478.858
1330 0 52.0577 11.8907 619 126.082 1274.18 478.157
1331 0 54.0547 11.6179 628 127.182 1274.31 478.029
1332 0 55.0997 12.0327 663 124.107 1274.22 476.434
1333 0 57.1039 12.3459 705 122.513 1274.05 475.328
1334 0 57.3475 12.6597 726 129.919 1274.02 474.554
1335 0 60.1039 12.3952 745 125.544 1273.55 473.75
1336 0 64.2355 12.4386 799 127.472 1273.76 472.86
1337 0 63.2636 12.7562 807 124.674 1273.91 472.238
1338 0 66.2084 12.4305 823 126.034 1274.61 471.357
1339 0 67.2906 12.4237 836 124.605 1274.74 471.108
1340 0 69.1804 12.7926 885 123.431 1274.75 469.601
1341 0 72.4936 12.1666 882 128.418 1274.97 469.331
1342 0 74.2974 12.6519 940 126.554 1274.86 467.563
1343 0 75.6166 12.5105 946 125.653 1274.53 463.796
1344 0 78.5636 12.5122 983 130.054 1274.94 464.338
1345 0 80.6292 12.3156 993 123.574 1274.72 462.915
1346 0 83.8176 12.3482 1035 126.452 1275.22 461.9
1347 0 86.6721 12.4608 1080 129.148 1275.77 460.161
1348 0 88.74 12.4521 1105 121.512 1276.03 458.51
1349 0 92.6824 12.5051 1159 124.884 1275.26 456.437
1350 0 94.6693 12.6757 1200 133.358 1275.89 455.72
1351 1 51.3871 10.9366 562 130.56 1275.56 477.359
1352 0 53.1712 11.1903 595 127.58 1274.73 478.368
1353 0 53.1182 12.1051 643 121.812 1273.67 476.513
1354 0 56.211 12.3108 692 15.0246 1273.3 476.264
1355 0 57.1758 12.4004 709 125.984 1273.37 475.159
1356 0 59.316 12.1215 719 129.643 1273.23 473.053
1357 0 62.3562 12.2682 765 124.454 1273.19 471.544
1358 0 63.2217 12.1952 771 129.467 1273.87 472.013
1359 0 64.3866 12.689 817 127.106 1274.12 471.136
1360 0 66.305 12.2766 814 128.795 1274.52 469.6
1361 0 68.2929 12.4171 848 131.189 1273.71 469.877
1362 0 68.2212 12.9285 882 127.667 1274.86 467.632
1363 0 71.2953 12.5675 896 129.989 1275.9 467.597
1364 0 74.4525 12.6255 940 124.443 1275.22 467.75
1365 0 73.3202 12.4659 914 126.008 1274.75 467.463
1366 0 76.1556 12.3431 940 130.981 1274.38 466.456
1367 0 81.3489 13.7679 1120 122.927 1274.38 462.705
1368 0 80.3439 12.9319 1039 129.58 1274.62 462.999
1369 0 83.3432 12.9825 1082 132.268 1274.41 461.821
1370 0 86.3261 12.7655 1102 133.101 1274.68 460.749
1371 0 94.1973 14.7138 1386 128.615 1274.58 458.335
1372 0 94.1822 14.472 1363 128.08 1275.37 455.595
1373 0 94.2556 13.1133 1236 130.499 1275.33 456.942
1374 0 96.352 12.9421 1247 138.257 1275.47 455.333
1375 0 99.2905 12.4785 1239 139.884 1275.18 454.596
1376 0 101.204 12.954 1311 143.241 1275.68 452.874
1377 0 103.314 12.7572 1318 134.826 1275.72 451.699
1378 0 108.425 13.0229 1412 138.978 1275.86 450.462
1379 0 111.313 13.0353 1451 144.374 1276.19 448.727
1380 0 115.592 13.0459 1508 134.721 1275.65 446.749
1381 0 118.535 13.4644 1596 141.744 1275.64 445.281
1382 0 121.467 13.2464 1609 145.282 1275.91 442.881
1383 0 125.67 13.416 1686 144.593 1276.29 441.273
1384 0 129.911 13.3322 1732 140.465 1276.67 439.49
1385 0 132.565 13.4123 1778 141.752 1276.27 437.918
1386 0 135.662 13.4599 1826 145.589 1276.15 436.781
1387 0 139.604 13.5598 1893 140.399 1276.13 433.415
1388 0 144.802 13.5219 1958 136.823 1276.18 431.953
1389 0 146.678 13.4989 1980 132.22 1276.18 428.98
1390 0 152.767 13.6548 2086 140.381 1276.28 426.3
1391 0 156.99 13.5614 2129 137.453 1276.41 424.778
1392 0 159.629 13.7569 2196 135.439 1276.37 421.353
1393 0 162.744 13.6349 2219 139.839 1276.2 419.943
1394 0 167.514 13.4735 2257 129.805 1275.89 416.394
1395 0 171.515 13.544 2323 139.947 1276.31 415.947
1396 0 176.367 13.3585 2356 136.676 1276.28 413.126
1397 0 182.461 14.1017 2573 122.684 1276.82 409.849
1398 0 189.329 13.5848 2572 139.233 1276.54 407.484
1399 0 194.389 13.8382 2690 138.97 1275.76 404.817
1400 0 199.572 13.8947 2773 139.516 1276.02 402.164
1401 0 207.579 13.8502 2875 138.952 1276.02 398.304
1402 0 213.569 13.7942 2946 132.345 1275.97 395.67
1403 0 220.094 13.785 3034 119.275 1275.96 392.356
1404 0 226.798 14.1183 3202 122.878 1276.01 386.31
1405 0 231.677 14.3303 3320 116.787 1275.24 385.266
1406 0 237.522 14.0703 3342 142.887 1275.99 384.633
1407 1 247.698 14.2472 3529 139.316 1276.32 378.423
1408 1 175.654 13.4526 2363 148.139 1276 412.25
1409 0 180.584 13.5117 2440 141.908 1275.69 411.548
1410 0 185.768 13.4361 2496 140.054 1275.04 407.06
1411 0 191.768 13.5059 2590 134.044 1274.45 403.214
1412 0 196.641 13.9289 2739 130.188 1274.89 400.939
1413 0 205.057 13.0988 2686 143.28 1274.67 394.423
1414 0 212.762 13.4939 2871 145.786 1274.96 394.459
1415 0 219.791 14.0224 3082 137.904 1274.05 391.279
1416 0 223.579 13.0916 2927 142.994 1273.21 389.362
1417 1 234.869 15.3107 3596 137.013 1273.4 377.367
1418 0 238.755 13.6164 3251 143.873 1274.14 379.072
1419 0 247.771 13.6214 3375 142.412 1274.02 374.781
1420 0 258.824 13.372 3461 143.483 1273.4 372.888
1421 1 186.035 12.7771 2377 142.021 1273.54 407.767
1422 0 191.629 13.2391 2537 141.903 1272.89 405.866
1423 0 197.655 12.9923 2568 142.469 1273.64 403.21
1424 0 202.746 13.3468 2706 142.545 1274.02 399.06
1425 0 208.652 13.4099 2798 141.827 1273.34 396.918
1426 0 216.707 14.7526 3197 137.154 1273.58 390.925
1427 0 220.654 13.4011 2957 139.309 1272.89 391.177
1428 0 225.65 13.162 2970 141.025 1272.62 388.91
1429 0 235.717 13.898 3276 135.125 1272.56 384.057
1430 0 240.809 13.3342 3211 138.737 1272.66 382.341
1431 1 187.579 12.6507 2373 146.437 1272.83 409.153
1432 0 192.761 12.8086 2469 147.645 1272.62 406.716
1433 0 199.582 12.8268 2560 148.876 1272.83 402.862
1434 0 203.636 12.817 2610 148.264 1271.93 399.518
1435 0 210.566 13.1455 2768 145.332 1271.69 397.181
1436 0 217.716 12.971 2824 148.094 1271.37 395.025
1437 1 256.899 12.7676 3280 147.799 1272.6 377.403
1438 0 258.873 13.5008 3495 144.559 1271.94 376.323
1439 0 259.609 13.2468 3439 147.217 1271.52 377.075
1440 0 259.637 13.4457 3491 141.588 1271.68 377.807
1441 0 255.407 13.2964 3396 140.32 1271.65 375.332
1442 1 196.329 12.423 2439 140.841 1273.29 408.391
1443 0 201.494 12.844 2588 130.63 1271.83 405.012
1444 0 209.65 12.7117 2665 133.051 1271.73 403.484
1445 0 214.517 12.7822 2742 130.519 1271.7 398.706
1446 0 218.444 13.2712 2899 131.418 1271.98 392.717
1447 0 227.387 14.5435 3307 124.415 1272.51 390.1
1448 0 231.522 12.9102 2989 135.916 1271.54 390.694
1449 0 238.571 13.2581 3163 131.465 1271.99 388.618
1450 0 244.517 13.267 3244 130.559 1271.67 385.436
1451 0 253.553 13.09 3319 136.084 1271.93 380.053
1452 0 258.685 13.24 3425 138.894 1271.97 377.137
1453 0 258.638 12.7282 3292 138.698 1271.53 376.276
1454 1 63.1388 9.21778 582 118.811 1272.97 473.938
1455 0 66.1978 9.86437 653 112.72 1272.9 472.397
1456 0 66.3448 10.7167 711 117.439 1271.13 463.308
1457 0 70.2266 10.5373 740 111.519 1272.43 473.347
1458 0 71.3615 11.1545 796 110.549 1272.62 471.016
1459 0 73.261 11.1656 818 110.015 1272.37 470.141
1460 0 76.2147 10.9297 833 99.9016 1272.73 470.185
1461 0 78.2005 10.8695 850 111.469 1272.2 468.474
1462 0 80.1751 11.2379 901 111.029 1272.68 466.271
1463 0 82.3865 11.4825 946 110.592 1272.56 466.6
1464 0 85.181 11.1879 953 111.086 1272.35 464.089
1465 0 88.2127 11.4383 1009 104.279 1273.19 459.73
1466 0 91.2129 12.2899 1121 106.369 1272.73 457.212
1467 0 91.3035 11.5658 1056 108.686 1273.95 460.024
1468 0 96.3284 11.4712 1105 112.734 1274.19 457.839
1469 0 98.3217 12.0014 1180 110.906 1274.15 454.947
1470 0 104.249 12.4318 1296 113.094 1274.85 451.863
1471 0 103.454 11.8411 1225 116.523 1274.73 452.692
1472 0 110.323 11.6658 1287 114.66 1275.04 449.965
1473 0 111.314 11.7595 1309 116.927 1274.66 448.772
1474 0 115.749 11.4731 1328 112.911 1274.28 445.002
1475 0 62.3898 11.7647 734 107.877 1273.96 460.879
1476 0 62.3806 11.0932 692 116.85 1274.24 458.077
1477 0 64.1698 11.454 735 117.899 1274.68 457.714
1478 0 65.438 11.935 781 113.672 1273.84 464.108
1479 0 68.4625 11.7583 805 120.535 1274.22 463.605
1480 0 68.4439 11.5715 792 119.335 1274.47 462.967
1481 0 69.5227 12.4564 866 117.359 1274.77 464.227
1482 0 71.4022 12.5626 897 118.896 1274.32 466.287
1483 0 72.3912 12.391 897 118.421 1274.48 466.724
1484 0 72.3071 12.5437 907 121.756 1274.7 464.667
1485 0 76.4024 12.2771 938 122.416 1274.63 466.42
1486 0 76.2368 12.8416 979 120.349 1274.39 465.58
1487 0 78.2474 13.1506 1029 121.628 1274.53 466.007
1488 0 82.227 13.1344 1080 120.624 1273.97 463.358
1489 0 84.1559 13.071 1100 121.198 1273.37 462.656
1490 0 87.269 12.937 1129 124.244 1273.73 461.393
1491 0 88.1428 13.0584 1151 125.371 1273.08 461.303
1492 0 92.2651 12.9952 1199 129.843 1273.82 459.211
1493 0 93.2393 13.342 1244 123.996 1274.35 458.223
1494 0 97.3057 13.4319 1307 129.382 1273.91 456.775
1495 0 99.4178 13.1667 1309 131.709 1273.43 455.102
1496 0 104.278 12.8119 1336 130.248 1273.03 453.43
1497 0 107.187 13.3038 1426 119.978 1273.5 451.381
1498 1 59.0285 11.181 660 125.195 1272.36 477.114
1499 0 60.2893 12.1746 734 129.339 1272.29 475.08
1500 0 62.4365 12.3966 774 129.685 1272.32 473.702
1501 0 64.2202 12.6596 813 124.239 1272.42 474.196
1502 0 65.17 12.1989 795 126.59 1272.42 473.908
1503 0 67.144 12.7487 856 119.105 1272.61 472.901
1504 0 69.1108 12.5885 870 122.38 1273.16 472.821
1505 0 72.3946 12.6391 915 122.259 1272.36 471.467
1506 0 73.234 12.3986 908 124.478 1272.27 470.957
1507 0 74.3761 12.6519 941 127.262 1272.38 469.409
1508 0 76.2464 12.5383 956 126.862 1272.6 468.854
1509 0 79.1136 12.817 1014 128.476 1272.33 467.003
1510 0 80.2013 13.3913 1074 127.795 1272.56 466.357
1511 0 84.1694 13.0808 1101 123.749 1272.78 466.314
1512 0 87.2048 12.9924 1133 131.178 1271.94 464.551
1513 0 88.2063 13.4231 1184 121.814 1272.33 462.729
1514 0 89.3257 13.4004 1197 127.716 1272.51 462.741
1515 0 94.1713 12.9551 1220 130.906 1271.66 461.355
1516 0 97.3372 13.5919 1323 127.814 1271.99 460.128
1517 0 101.323 13.2645 1344 124.545 1272.04 457.758
1518 0 104.237 13.498 1407 128.403 1272.1 455.893
1519 0 107.314 13.2788 1425 129.095 1271.51 455.248
1520 0 112.281 12.9675 1456 128.547 1271.67 453.943
1521 0 114.369 13.3079 1522 129.976 1271.64 451.942
1522 1 63.1575 12.1284 766 130.764 1271.94 478.217
1523 0 64.1124 12.5249 803 131.248 1271.37 475.923
1524 0 67.1462 13.2696 891 127.499 1271.82 476.019
1525 0 70.1439 12.6454 887 130.794 1271.14 474.476
1526 0 70.1787 12.7389 894 134.417 1270.83 474.52
1527 0 72.1575 13.2488 956 128.128 1270.63 472.225
1528 0 73.222 12.7284 932 132.168 1271.71 472.438
1529 0 77.2786 13.0049 1005 131.449 1270.82 471.361
1530 0 79.1493 12.8997 1021 131.51 1271.54 469.902
1531 0 83.2561 13.3924 1115 127.369 1271.76 468.351
1532 0 84.4243 13.3729 1129 128.084 1271.29 466.809
1533 0 87.2807 13.6571 1192 129.471 1271.42 465.262
1534 0 89.2841 13.149 1174 138.253 1270.79 464.654
1535 0 93.4118 13.0819 1222 141.142 1270.73 463.456
1536 0 97.2071 13.3221 1295 138.439 1271.11 460.709
1537 0 99.3092 13.6845 1359 130.617 1271.5 459.28
1538 0 103.297 13.3692 1381 142.474 1271.88 456.713
1539 0 106.271 13.7291 1459 132.976 1271.72 455.668
1540 0 109.281 13.4699 1472 136.202 1271.29 454.562
1541 1 55.2541 12.2706 678 143.844 1272.09 481.503
1542 0 58.3132 12.57 733 141.724 1271.92 479.394
1543 0 60.3494 13.3224 804 138.923 1272.09 477.281
1544 0 63.2989 12.9386 819 133.725 1271.83 477.037
1545 0 65.4063 12.8275 839 137.259 1271.77 474.367
1546 0 68.5393 13.8753 951 132.241 1272.32 472.338
1547 0 69.6131 13.4745 938 129.432 1272.37 471.701
1548 0 71.6644 13.8004 989 134.995 1272.71 471.033
1549 0 73.4609 13.4085 985 135.625 1273.15 470.538
1550 0 75.495 13.1929 996 140.009 1272.97 468.766
1551 0 78.3118 13.4335 1052 139.72 1273.36 468.524
1552 0 81.6123 13.5396 1105 137.441 1272.7 465.799
1553 0 83.4464 13.5656 1132 137.336 1272.51 465.685
1554 0 86.4706 13.7966 1193 139.278 1272.85 463.453
1555 0 89.6346 13.3542 1197 142.225 1272.26 459.821
1556 0 92.2999 13.3045 1228 137.283 1272.62 462.906
1557 0 95.3996 13.4592 1284 140.903 1271.98 461.021
1558 1 50.0307 12.3524 618 135.133 1273.52 482.44
1559 0 52.209 12.1626 635 140.58 1273.1 482.603
1560 0 51.2525 12.2726 629 138.052 1273.45 482.618
1561 0 51.3181 12.5687 645 139.042 1273.43 481.716
1562 0 56.298 12.4871 703 135.502 1273.79 480.094
1563 0 55.1038 13.0481 719 139.755 1274.06 479.768
1564 0 58.3442 12.8033 747 130.293 1274.23 478.542
1565 0 58.2096 13.0906 762 140.699 1273.9 479.096
1566 0 61.1803 12.5694 769 142.316 1274.41 477.48
1567 0 64.112 13.1801 845 136.575 1273.48 476.133
1568 0 65.3153 13.1363 858 139.028 1273.66 475.452
1569 0 66.1068 13.1756 871 137.774 1273.88 473.249
1570 0 69.2352 13.2303 916 134.754 1274.04 473.484
1571 0 71.1178 13.4284 955 137.826 1274.28 472.238
1572 0 74.2054 13.0853 971 135.58 1273.88 471.099
1573 0 75.1226 13.5113 1015 132.148 1273.67 468.977
1574 0 76.214 13.8032 1052 137.074 1273.67 466.861
1575 0 80.3503 13.5407 1088 138.767 1273.29 465.948
1576 0 84.2068 13.5618 1142 137.44 1274.42 464.759
1577 0 86.219 13.5469 1168 139.023 1273.87 463.462
1578 0 88.2955 13.7153 1211 141.976 1274.07 460.57
1579 0 91.2264 13.8228 1261 141.163 1273.88 459.526
1580 0 95.1684 13.9647 1329 135.682 1273.86 458.322
1581 0 97.202 13.6314 1325 139.137 1273.61 456.813
1582 0 100.194 14.0128 1404 139.641 1274.44 455.244
1583 0 104.192 13.7727 1435 141.631 1274.43 453.334
1584 1 54.0419 12.1387 656 143.113 1275 479.213
1585 0 55.1143 13.1 722 140.524 1275.41 478.512
1586 0 57.2634 13.1148 751 141.309 1274.67 476.543
1587 0 60.2148 12.9536 780 144.458 1274.08 476.871
1588 0 61.1771 13.5018 826 138.368 1274.8 474.436
1589 0 64.2205 13.1889 847 142.103 1274.55 473.957
1590 0 66.1702 13.3746 885 143.298 1274.43 472.972
1591 0 67.2926 13.4636 906 139.839 1274.58 472.394
1592 0 70.1791 12.9383 908 144.496 1275.08 471.827
1593 0 73.1899 13.0482 955 139.913 1274.69 470.348
1594 0 73.1825 13.5005 988 141.936 1274.25 469.384
1595 0 78.2994 13.4101 1050 140.899 1274.41 468.014
1596 0 78.1386 13.7832 1077 141.659 1274.4 466.954
1597 0 81.1368 13.4957 1095 140.869 1274.19 466.455
1598 0 83.1791 13.489 1122 148.061 1274.08 464.611
1599 0 89.1314 12.9472 1154 144.829 1273.97 462.255
1600 0 90.2502 13.3075 1201 146.067 1274.48 460.24
1601 0 93.1655 13.578 1265 139.377 1273.72 459.144
1602 0 96.1685 13.4452 1293 140.53 1273.36 457.483
1603 0 98.3276 13.4042 1318 146.939 1273.86 456.922
1604 1 53.2763 11.9565 637 143.058 1274.62 479.535
1605 0 55.2895 12.1542 672 148.26 1274.69 478.601
1606 0 57.2857 12.4638 714 141.916 1274.34 477.506
1607 0 58.2153 12.866 749 146.362 1273.63 475.689
1608 0 60.1728 13.0291 784 135.39 1273.73 474.967
1609 0 62.2304 13.1447 818 139.098 1273.94 473.77
1610 0 65.6569 12.7024 834 143.741 1274.03 472.376
1611 0 67.4786 12.8485 867 144.141 1274.52 470.533
1612 0 68.3717 13.2657 907 136.652 1274.13 470.062
1613 0 69.4805 13.1404 913 141.023 1274.2 468.018
1614 0 72.3362 13.5064 977 138.913 1274.16 466.305
1615 0 75.541 13.0922 989 139.997 1273.63 465.361
1616 0 75.4538 13.1074 989 145.61 1273.54 463.473
1617 0 79.4316 13.093 1040 141.505 1273.26 461.674
1618 0 81.5082 13.2379 1079 143.292 1273.29 460.23
1619 0 83.4567 13.0487 1089 143.784 1272.75 458.328
1620 1 47.1778 10.9373 516 140.089 1272.74 479.578
1621 0 47.1731 11.2776 532 141.278 1272.21 479.374
1622 0 50.0874 11.7994 591 140.054 1271.28 477.597
1623 0 53.3124 12.0422 642 141.081 1271.85 480.502
1624 0 53.1824 12.3913 659 137.159 1272.65 480.357
1625 0 55.2119 12.2981 679 143.539 1272.55 479.925
1626 0 57.1654 12.6475 723 142.408 1271.83 479.272
1627 0 58.1978 12.973 755 143.298 1272.11 479.216
1628 0 59.1743 12.6237 747 148.49 1271.35 478.438
1629 0 61.163 13.1125 802 138.759 1271.72 476.04
1630 0 64.2993 12.9239 831 140.486 1271.64 475.38
1631 0 67.2663 13.2607 892 141.929 1271.33 474.953
1632 0 69.2792 12.8466 890 134.224 1271.5 473.472
1633 0 69.3282 13.0827 907 144.368 1271.72 471.939
1634 0 71.3158 13.6856 976 136.882 1271.36 471.533
1635 0 75.3528 13.0055 980 135.524 1271.92 469.552
1636 0 77.3829 12.884 997 139.618 1271.44 467.999
1637 0 80.2309 12.8255 1029 138.723 1270.8 467.988
1638 0 82.2483 12.9243 1063 142.389 1271.29 467.373
1639 0 84.4321 13.2296 1117 136.473 1270.78 465.013
1640 1 47.1187 11.1633 526 132.648 1270.82 484.842
1641 0 46.1671 11.3284 523 136.05 1271.83 484.897
1642 0 49.2611 11.8552 584 137.243 1273.23 484.111
1643 0 50.3165 12.2226 615 128.93 1272.66 482.083
1644 0 51.1579 12.2953 629 136.151 1273.25 482.3
1645 0 52.1055 12.206 636 135.272 1272.93 481.289
1646 0 55.2042 11.6114 641 140.256 1272.77 480.222
1647 0 57.0883 12.3668 706 134.765 1272.33 479.112
1648 0 59.2737 12.2989 729 137.941 1272.15 478.265
1649 0 60.2068 12.5733 757 130.089 1271.8 478.9
1650 0 62.2629 12.4312 774 140.218 1272.61 477.623
1651 0 63.3225 12.4758 790 138.257 1272.92 476.476
1652 0 65.3043 13.0313 851 133.404 1272.56 474.504
1653 0 67.458 12.4967 843 103.894 1272.7 474.05
1654 0 70.3484 12.6371 889 133.307 1272.1 472.544
1655 0 72.398 12.7904 926 143.172 1272.66 470.417
1656 0 74.319 12.9711 964 138.693 1272.54 469.807
1657 0 74.3379 12.9275 961 134.903 1272.59 469.334
1658 0 78.4306 12.8394 1007 133.909 1272.54 468.022
1659 0 80.2464 13.0847 1050 142.183 1272.57 465.848
1660 0 82.3539 13.1748 1085 143.682 1272.47 465.058
1661 0 86.1787 12.9266 1114 144.718 1272.66 464.022
1662 0 87.34 12.6059 1101 145.8 1272.75 462.892
1663 0 89.181 12.7045 1133 144.677 1273.14 461.402
1664 1 48.1895 11.019 531 145.196 1273.52 480.874
1665 0 50.3507 11.2809 568 141.139 1271.86 478.912
1666 0 51.2753 11.526 591 138.069 1273.06 479.472
1667 0 52.1047 12.7628 665 138.65 1273.14 478.919
1668 0 53.1826 12.6921 675 141.772 1273.35 477.944
1669 0 56.1656 12.6234 709 137.993 1274.23 477.017
1670 0 57.1139 13.0091 743 143.07 1274.37 475.906
1671 0 60.1676 13.4125 807 139.62 1273.98 475.026
1672 0 60.1763 13.2444 797 142.258 1274.11 474.752
1673 0 64.103 12.4955 801 144.983 1274.39 473.119
1674 0 64.3229 13.51 869 141.478 1273.44 471.747
1675 0 67.2987 13.2395 891 137.59 1273.49 469.984
1676 0 69.2069 13.4524 931 137.831 1273.61 469.658
1677 0 71.4067 13.6962 978 139.954 1274.14 467.77
1678 0 72.4501 13.4437 974 142.613 1273.94 467.24
1679 0 77.6132 13.2838 1031 139.252 1274.23 465.465
1680 0 77.754 13.8256 1075 143.073 1273.95 464.803
1681 0 79.8443 13.7017 1094 145.282 1273.88 463.768
1682 0 84.5303 13.6519 1154 145.688 1273.96 461.366
1683 0 87.6776 13.5154 1185 144.125 1274.3 461.397
1684 0 89.9062 13.6587 1228 143.657 1274.51 459.033
1685 0 92.7556 13.9183 1291 143.032 1274.56 456.745
1686 0 94.433 13.9782 1320 145.061 1274.32 455.062
1687 0 97.4023 13.665 1331 148.298 1274.17 455.118
1688 0 100.377 13.8777 1393 140.173 1274.08 452.726
1689 0 105.423 13.7731 1452 141.218 1274.18 451.172
1690 1 54.1427 12.7626 691 141.543 1273.85 479.004
1691 0 57.1435 12.4074 709 141.606 1274.72 477.437
1692 0 58.1704 12.6353 735 146.178 1274.23 477.109
1693 0 61.0664 12.7566 779 149.996 1274.53 475.497
1694 0 64.0595 12.8162 821 136.616 1273.84 474.124
1695 0 66.0541 12.6109 833 144.498 1273.03 473.553
1696 0 67.1325 12.6168 847 145.46 1273.44 472.374
1697 0 70.1505 12.7298 893 146.801 1272.87 471.551
1698 0 73.0791 12.808 936 149.01 1272.68 470.848
1699 0 74.1384 13.1106 972 145.434 1272.85 468.849
1700 0 77.1456 13.0921 1010 147.202 1272.86 467.487
1701 0 79.2526 13.2109 1047 138.198 1273.28 465.921
1702 0 81.3155 13.1586 1070 136.009 1273.03 465.577
1703 0 86.2677 13.3422 1151 136.146 1273.93 464.182
1704 0 86.3367 13.4242 1159 139.538 1273.52 463.123
1705 0 88.1648 13.2025 1164 139.142 1273.17 461.672
1706 0 92.1148 13.0924 1206 150.337 1273.9 461.284
1707 0 95.1819 13.6055 1295 150.755 1273.65 458.368
1708 1 50.0823 12.2598 614 146.13 1273.01 480.202
1709 0 53.0697 12.2104 648 144.901 1272.74 479.931
1710 0 53.1208 12.8951 685 148.73 1271.32 480.201
1711 0 55.1731 12.4155 685 147.146 1271.86 480.495
1712 0 57.2106 12.4802 714 142.578 1272.16 479.284
1713 0 57.2123 12.5497 718 148.954 1273.1 479.259
1714 0 59.247 12.8445 761 142.984 1273.19 477.707
1715 0 62.1979 12.6532 787 148.078 1273.08 477.094
1716 0 63.0633 13.0662 824 145.515 1272.59 475.926
1717 0 67.1477 12.5544 843 138.926 1272.87 475.466
1718 0 70.2229 12.9018 906 137.543 1273.31 474.281
1719 0 70.2442 12.9548 910 144.42 1272.93 473.708
1720 0 73.1616 13.3267 975 143.331 1271.73 472.157
1721 0 75.0919 13.6366 1024 141.094 1273.11 470.974
1722 0 75.0919 13.6366 1024 168.342 1274.11 470.974
1723 0 80.2233 13.263 1064 142.841 1271.57 469.227
1724 0 82.255 13.7621 1132 145.159 1271.05 468.301
1725 0 84.2364 13.4265 1131 147.4 1271.31 467.252
1726 0 88.1809 13.2682 1170 149.597 1271.96 465.762
1727 0 91.2129 13.3315 1216 151.678 1271.65 463.717
1728 0 92.1522 13.6839 1261 141.684 1271.87 462.347
1729 0 98.2152 13.3381 1310 147.615 1272.17 461.189
1730 1 52.0748 12.3284 642 146.886 1272.38 483.025
1731 0 54.055 12.1728 658 148.511 1270.63 482.959
1732 0 56.0776 12.5184 702 154.781 1272.4 480.962
1733 0 58.1133 12.6821 737 154.005 1271.85 480.851
1734 0 60.0336 12.7429 765 152.812 1271.75 480.624
1735 0 61.0733 12.7224 777 158.771 1271.4 479.474
1736 0 63.0651 12.606 795 148.858 1272.03 479.45
1737 0 65.0797 12.8458 836 157.535 1271.51 479.524
1738 0 65.0797 12.8458 836 170.121 1270.51 479.524
1739 0 67.1499 13.0901 879 159.537 1272.38 475.775
1740 0 70.1154 13.3209 934 160.863 1272.32 473.981
1741 0 74.1089 13.1023 971 154.181 1271.67 473.078
1742 0 75.1716 13.1566 989 161.891 1270.67 473.047
1743 0 79.2642 13.4361 1065 160.065 1271.09 472.142
1744 0 81.0929 13.4044 1087 154.101 1271.55 470.076
1745 0 82.2754 13.3576 1099 157.597 1271.05 468.33
1746 0 84.3352 13.4108 1131 158.214 1270.94 468.254
1747 0 87.3383 13.2588 1158 166.317 1270.8 466.554
1748 0 90.3087 13.0774 1181 157.931 1270.22 464.69
1749 0 92.3334 13.3646 1234 156.058 1270.44 462.951
1750 1 50.0913 11.1197 557 163.16 1271.81 484.788
1751 0 52.0548 11.6992 609 152.092 1271.6 484.714
1752 0 52.0896 12.4593 649 157.481 1272.7 484.772
1753 0 54.0433 12.2309 661 156.374 1272.93 483.121
1754 0 56.0717 12.1273 680 155.331 1273.3 483.435
1755 0 57.0511 12.3749 706 153.677 1272.58 481.39
1756 0 59.0557 12.1241 716 156.342 1272.71 481.006
1757 0 60.0691 12.5023 751 150.246 1271.83 479.264
1758 0 61.0499 12.6618 773 148.197 1271.89 478.406
1759 0 63.1249 12.7366 804 151.377 1272.79 477.878
1760 0 66.046 12.673 837 153.25 1273.7 476.581
1761 0 69.08 12.8402 887 149.867 1273.19 475.379
1762 0 70.0821 12.785 896 154.544 1272.87 475.103
1763 0 73.1052 12.7488 932 140.207 1272.46 473.447
1764 0 76.107 12.3642 941 145.834 1272.36 471.812
1765 0 76.1898 12.7839 974 153.013 1272.39 471.221
1766 0 79.1915 13.36 1058 150.271 1271.36 469.115
1767 0 82.1916 12.9575 1065 145.479 1271.59 468.058
1768 0 86.2866 12.783 1103 152.83 1271.59 466.15
1769 0 89.1403 12.8449 1145 143.959 1271.77 464.327
1770 1 45.0379 10.9019 491 154.688 1271.11 486.136
1771 0 47.1127 11.2072 528 151.449 1271.4 485.282
1772 0 49.0828 11.8779 583 146.307 1270.4 483.079
1773 0 50.133 12.3671 620 145.632 1271.25 483.506
1774 0 52.1212 11.8378 617 147.627 1271.48 483.605
1775 0 53.2364 12.0782 643 146.244 1271.24 483.345
1776 0 54.1794 12.3848 671 141.453 1271.36 482.18
1777 0 55.11 12.6293 696 152.157 1271.01 481.767
1778 0 56.0887 12.4981 701 151.193 1271.58 481.11
1779 0 58.1094 12.8895 749 149.653 1270.98 480.443
1780 0 60.1351 12.6881 763 152.725 1270.91 479.026
1781 0 61.2153 12.9543 793 158.678 1270.9 478.212
1782 0 62.1048 12.8332 797 150.364 1271.33 476.959
1783 0 64.1193 12.6951 814 157.509 1271.29 475.184
1784 0 66.0845 12.8926 852 157.509 1272.03 475.445
1785 0 67.1392 13.0624 877 154.203 1272.74 475.777
1786 0 69.146 13.2763 918 159.241 1272.71 474.5
1787 0 72.1562 13.0689 943 147.3 1273.22 473.756
1788 0 71.0705 13.0715 929 159.513 1273.75 473.215
1789 0 77.148 13.001 1003 158.005 1273.25 470.514
1790 0 78.1004 13.1753 1029 160.43 1273.42 468.92
1791 0 80.1784 13.4201 1076 158.766 1273.59 467.308
1792 0 88.3412 15.4628 1366 135.701 1273.53 460.574
1793 0 88.3121 13.1352 1160 153.872 1273.36 463.635
1794 0 90.3572 12.9486 1170 157.52 1273.23 463.191
1795 0 93.5191 13.0775 1223 156.411 1272.66 462.758
1796 1 49.4545 12.2739 607 150.089 1273.65 482.331
1797 0 50.4016 11.825 596 145.861 1273.14 481.713
1798 0 53.321 12.3779 660 155.291 1273.54 475.491
1799 0 55.2948 12.0807 668 151.079 1273.55 476.895
1800 0 57.2091 12.4631 713 143.809 1273.73 478.969
1801 0 59.4371 12.6184 750 147.781 1273.59 478.643
1802 0 60.1629 12.8152 771 147.062 1272.94 477.458
1803 0 63.232 12.6202 798 147.519 1273.52 478.385
1804 0 64.243 12.6239 811 138.674 1273.19 476.751
1805 0 66.1529 12.6979 840 142.604 1272.73 475.12
1806 0 69.2011 12.6299 874 137.026 1271.99 473.53
1807 0 70.3089 12.8433 903 150.466 1272.8 472.938
1808 0 72.2319 12.5014 903 152.642 1273.62 472.659
1809 0 73.2028 13.0733 957 145.375 1273.74 471.626
1810 0 73.1677 13.1889 965 149.955 1272.9 471.181
1811 0 78.2051 13.2728 1038 147.12 1272.73 471.079
1812 0 79.2568 13.0336 1033 150.862 1272.08 469.627
1813 0 82.3509 13.5882 1119 150.311 1272.4 467.924
1814 0 85.5834 12.9815 1111 150.021 1272.61 466.4
1815 0 88.4255 13.1184 1160 144.917 1272.94 463.572
1816 0 90.6207 13.6062 1233 144.406 1273.8 462.238
1817 1 47.4847 10.8877 517 152.499 1273.28 484.737
1818 0 49.2885 11.4428 564 149.367 1272.2 483.863
1819 0 51.0677 11.9253 609 147.642 1272.09 484.099
1820 0 53.1967 12.3128 655 151.678 1271.69 483.252
1821 0 55.2614 12.3594 683 144.321 1270.55 481.695
1822 0 56.1991 12.7582 717 146.626 1271.09 482.106
1823 0 57.2962 12.8455 736 140.655 1271.41 481.311
1824 0 59.3573 12.6017 748 145.979 1270.3 480.745
1825 0 60.3777 12.9021 779 145.707 1269.38 479.044
1826 0 62.4058 12.7392 795 149.735 1269.39 478.379
1827 0 64.4097 12.8863 830 146.202 1270.37 478.271
1828 0 66.4676 13.0289 866 142.821 1270.36 477.237
1829 0 68.3381 13.3015 909 132.446 1270.62 476.23
1830 0 71.542 12.8456 919 144.099 1269.85 475.942
1831 0 73.4246 13.061 959 145.813 1270.56 473.636
1832 0 76.4235 13.0588 998 143.753 1270.35 472.559
1833 0 79.2141 13.4067 1062 141.121 1270.4 471.103
1834 0 81.2286 13.2835 1079 143.587 1270.15 470.815
1835 0 84.1571 13.3441 1123 141.42 1269.55 469.473
1836 0 86.4101 13.679 1182 139.528 1270.39 467.985
1837 0 89.2616 13.2868 1186 142.937 1268.86 467.009
1838 0 91.2257 13.3405 1217 141.709 1269.32 465.216
1839 0 95.2966 13.5997 1296 141.823 1268.8 461.334
1840 0 99.3672 13.6262 1354 143.237 1268.77 458.821
1841 1 51.4898 11.4392 589 139.396 1269.54 484.328
1842 0 53.0982 12.1285 644 139.043 1268.61 484.71
1843 0 55.3784 12.5139 693 137.271 1269.02 484.766
1844 0 56.385 12.9999 733 144.111 1268.89 484.259
1845 0 58.4982 12.9748 759 131.159 1269.08 481.412
1846 0 60.4031 13.3271 805 23.9205 1269.2 481.184
1847 0 63.2848 12.8783 815 137.593 1268.74 481.036
1848 0 62.4359 13.678 854 135.425 1269.81 479.734
1849 0 65.5184 13.3092 872 133.649 1269.42 479.219
1850 0 68.4025 12.9966 889 138.333 1268.9 479.036
1851 0 71.7096 13.206 947 131.32 1269.82 474.449
1852 0 72.6086 13.497 980 131.892 1269.25 474.733
1853 0 74.7806 13.5864 1016 134.523 1269.58 472.581
1854 0 76.9852 13.7559 1059 129.126 1269 470.577
1855 0 79.8267 13.6421 1089 130.475 1269.66 470.057
1856 0 83.7868 13.5702 1137 129.141 1269.42 468.931
1857 0 83.4764 14.0758 1175 130.209 1269.21 467.598
1858 0 87.7049 13.591 1192 132.084 1268.89 466.394
1859 0 87.572 14.0456 1230 136.172 1269.25 465.498
1860 0 92.6357 13.4829 1249 136.792 1269.7 464.962
1861 0 96.5683 13.9383 1346 130.431 1269.01 462.703
1862 0 99.6111 13.8137 1376 133.318 1269.35 461.413
1863 0 101.553 13.9434 1416 133.419 1269.88 459.489
1864 1 54.4234 12.0536 656 135.434 1269.12 483.889
1865 0 53.2678 13.1599 701 140.068 1268.76 482.342
1866 0 57.2403 12.7882 732 139.716 1268.75 480.992
1867 0 59.4025 12.6594 752 140.035 1269.33 480.371
1868 0 59.18 13.535 801 128.789 1269.1 479.336
1869 0 62.1097 13.2346 822 138.729 1268.94 479.321
1870 0 64.3795 13.2651 854 137.274 1269.08 478.342
1871 0 65.1929 13.5598 884 134.383 1269.47 477.256
1872 0 66.2448 13.5709 899 138.977 1269.96 475.726
1873 0 70.4897 13.2076 931 133.553 1269.68 474.627
1874 0 74.6769 13.1366 981 136.242 1270.11 471.977
1875 0 76.4753 13.5076 1033 135.747 1269.82 469.575
1876 0 78.4117 13.8245 1084 135.795 1269.76 468.7
1877 0 79.679 14.0187 1117 137.141 1270.49 468.17
1878 0 82.3892 13.6547 1125 137.983 1270.37 466.404
1879 0 86.5743 13.4797 1167 137.666 1270.5 465.682
1880 0 89.6013 13.415 1202 142.613 1270.98 465.509
1881 0 94.4619 13.6986 1294 138.956 1271.54 461.988
1882 0 95.4241 13.7282 1310 138.622 1271.1 460.371
1883 0 97.518 13.9154 1357 136.448 1271.36 457.884
1884 0 101.485 13.7656 1397 130.511 1270.45 457.92
1885 0 104.587 13.8066 1444 137.461 1271 456.198
1886 0 106.542 13.8818 1479 139.551 1271.7 454.548
1887 1 54.3637 12.3244 670 134.6 1272.97 479.143
1888 0 58.3389 12.4102 724 133.903 1272.6 478.993
1889 0 60.1642 12.4659 750 134.423 1272.47 478.681
1890 0 60.1181 13.2739 798 139.325 1272.24 477.693
1891 0 63.1094 13.025 822 136.451 1273.5 476.097
1892 0 65.1115 13.2388 862 129.428 1273.8 474.981
1893 0 67.1483 12.9117 867 135.345 1273.72 474.024
1894 0 68.1797 13.4351 916 136.596 1274.37 473.025
1895 0 72.1878 12.8831 930 137.732 1274.33 473.008
1896 0 74.0923 13.4427 996 137.602 1274.61 470.154
1897 0 74.0867 13.3087 986 136.049 1273.98 469.649
1898 0 76.1204 13.4524 1024 137.893 1274.42 469.436
1899 0 80.2033 12.9172 1036 142.407 1273.56 467.618
1900 0 82.1687 13.4479 1105 140.986 1273.25 467.935
1901 0 84.2204 13.2984 1120 140.68 1273.41 465.33
1902 0 87.1877 13.167 1148 141.67 1273.53 465.556
1903 0 90.1384 13.2241 1192 142.582 1273.16 463.015
1904 0 95.3514 14.2316 1357 136.347 1273.05 459.359
1905 0 96.3826 13.3115 1283 141.497 1272.97 459.267
1906 0 100.371 13.739 1379 136.355 1272.83 456.205
1907 0 102.208 13.3062 1360 139.138 1273.12 455.953
1908 0 104.296 13.6822 1427 136.437 1272.16 455.463
1909 1 57.3223 12.1768 698 137.004 1271.12 476.089
1910 0 60.4166 12.3807 748 131.052 1270.63 476.19
1911 0 62.3204 12.6925 791 135.588 1271.25 476.574
1912 0 65.0698 13.109 853 135.125 1273.33 475.641
1913 0 66.1156 13.3856 885 127.62 1273.18 473.979
1914 0 70.1417 12.931 907 133.89 1273.64 473.508
1915 0 68.0907 13.6142 927 132.721 1272.9 472.085
1916 0 73.0823 13.1769 963 129.289 1272.62 470.077
1917 0 74.0759 13.4187 994 126.014 1271.97 470.989
1918 0 74.2476 13.3742 993 128.253 1273.59 470.182
1919 0 76.2022 13.4904 1028 132.882 1272.55 468.737
1920 0 78.1491 13.8069 1079 129.387 1271.87 467.868
1921 0 81.079 14.0234 1137 132.522 1272.23 466.724
1922 0 83.3672 13.7944 1150 132.417 1272.18 465.557
1923 0 87.2289 14.0779 1228 132.77 1270.74 463.704
1924 0 88.2372 13.5997 1200 132.155 1270.36 461.797
1925 0 90.2737 14.0019 1264 137.926 1270.37 462.919
1926 0 93.2681 14.2064 1325 135.722 1269.79 459.761
1927 0 98.533 14.4926 1428 136.263 1270.59 459.2
1928 0 98.533 14.4926 1428 165.987 1270.59 459.2
1929 0 102.61 14.2189 1459 137.984 1271.29 457.008
1930 0 105.434 14.2364 1501 138.076 1269.66 454.769
1931 1 59.3815 11.6198 690 58.6058 1269.97 479.965
1932 0 60.5453 12.437 753 133.876 1269.66 478.977
1933 0 63.3969 13.0448 827 143.804 1271.18 477.586
1934 0 64.2858 12.9111 830 139.829 1271.04 477.148
1935 0 66.333 12.6935 842 140.108 1271.22 476.327
1936 0 67.4143 12.9498 873 146.455 1270.82 473.553
1937 0 69.2736 13.1507 911 146.562 1270.96 471.408
1938 0 71.1549 12.536 892 148.011 1269.47 471.507
1939 0 72.2627 13.0496 943 148.361 1269.17 469.525
1940 0 74.4042 13.01 968 146.535 1268.87 469.136
1941 0 75.325 13.0899 986 143.405 1270 467.486
1942 0 77.2946 13.1574 1017 148.115 1269.7 466.138
1943 0 82.4346 13.3803 1103 145.597 1269.52 465.198
1944 0 84.2668 13.1131 1105 148.83 1270 463.569
1945 0 85.4327 13.4141 1146 148.68 1270.08 462.962
1946 0 88.4417 13.5004 1194 145.186 1269.31 460.619
1947 0 91.4992 13.3553 1222 144.76 1268.59 460.297
1948 0 95.3145 13.0305 1242 149.613 1268.22 459.027
1949 0 98.4483 13.5604 1335 148.907 1267.49 457.177
1950 0 101.348 13.2809 1346 146.162 1268.69 455.88
1951 1 54.0318 11.5488 624 145.619 1267.37 480.413
1952 0 56.2231 11.7745 662 144.059 1268.66 481.282
1953 0 57.2067 12.079 691 139.282 1269.19 482.74
1954 0 59.0935 12.1671 719 139.234 1268.66 481.627
1955 0 61.1446 12.4132 759 141.497 1268.85 480.499
1956 0 64.0851 12.7955 820 143.739 1269.37 478.513
1957 0 65.125 12.7294 829 141.99 1268.76 478.306
1958 0 67.1964 12.8281 862 141.929 1269.27 477.303
1959 0 70.2438 12.5563 882 139.827 1268.91 477.219
1960 0 72.1633 12.541 905 142.68 1268.48 475.18
1961 0 73.1232 13.0055 951 142.475 1269.4 474.372
1962 0 75.1643 12.6257 949 139.044 1269.58 473.6
1963 0 79.1931 12.4253 984 139.736 1270.4 471.014
1964 0 82.1161 12.7381 1046 136.616 1270.8 469.501
1965 0 84.345 12.8757 1086 143.437 1269.12 469.082
1966 0 87.2556 12.6983 1108 140.75 1268.84 468.158
1967 0 89.2848 13.0145 1162 146.074 1270.34 466.893
1968 1 49.229 11.416 562 144.456 1269.56 485.42
1969 0 49.229 11.416 562 159.895 1268.56 485.42
1970 0 52.1217 12.1063 631 138.395 1269.63 484.526
1971 0 54.1125 11.9751 648 135.444 1269.53 483.221
1972 0 54.1237 12.4899 676 132.473 1269.67 482.92
1973 0 57.1733 11.9286 682 131.655 1268.86 482.314
1974 0 59.1303 12.464 737 134.974 1269.17 481.045
1975 0 60.1388 12.4379 748 132.664 1269.66 479.443
1976 0 62.1246 12.153 755 129.601 1269.46 477.861
1977 0 66.1422 11.9742 792 126.12 1270.55 477.268
1978 0 68.188 11.7176 799 130.552 1270.7 476.065
1979 0 71.271 11.9544 852 128.265 1270.54 474.288
1980 0 72.2386 12.1265 876 133.197 1270.8 472.971
1981 0 74.2235 12.2333 908 131.903 1270.62 471.566
1982 0 78.2461 12.384 969 131.793 1270.2 469.526
1983 0 80.1175 12.3194 987 131.783 1270.23 469.681
1984 0 84.2432 12.3452 1040 130.138 1270.71 468.256
1985 0 86.1769 12.6832 1093 133.618 1271.39 466.569
1986 0 90.1679 12.6763 1143 129.976 1270.76 464.281
1987 1 49.0719 11.636 571 131.166 1271.85 483.487
1988 0 52.1448 11.3914 594 136.108 1272.66 482.662
1989 0 54.2361 11.4315 620 134.563 1273.17 482.976
1990 0 53.1928 11.6181 618 134.052 1271.9 482.646
1991 0 55.129 11.4278 630 134.021 1272.13 481.579
1992 0 57.1982 11.5913 663 137.517 1272.48 481.825
1993 0 60.2646 11.9473 720 135.897 1272.26 480.217
1994 0 61.1478 11.7911 721 135.157 1272.49 480.542
1995 0 62.2003 11.9774 745 137.957 1272.85 478.715
1996 0 63.188 12.6132 797 137.533 1273.28 477.925
1997 0 66.2237 12.3521 818 136.099 1272.84 476.296
1998 0 68.147 13.2214 901 139.553 1273.27 475.361
1999 0 70.0617 13.2026 925 138.256 1273.92 473.284
2000 0 73.1735 12.5729 920 141.49 1273.25 473.453
2001 0 73.1462 13.3568 977 137.832 1273.39 472.281
2002 0 76.0969 13.1937 1004 134.134 1272.97 469.884
2003 0 77.1402 12.9375 998 145.214 1273.49 470.229
2004 0 82.0951 13.0093 1068 140.694 1273 467.467
2005 0 86.1358 12.6428 1089 139.139 1272.2 466.117
2006 0 87.2813 13.4508 1174 140.205 1272.15 465.412
2007 1 45.0341 11.5246 519 144.304 1272.54 486.345
2008 0 46.262 12.1266 561 135.59 1271.22 485.629
2009 0 48.1498 12.4403 599 141.292 1271.75 484.913
2010 0 50.2595 12.535 630 136.913 1272.35 483.349
2011 0 51.3628 12.9277 664 134.899 1272.81 483.971
2012 0 52.1446 12.8297 669 134.725 1271.94 483.214
2013 0 53.1295 12.9307 687 137.461 1271.5 482.782
2014 0 54.2792 13.0621 709 137.773 1271.24 482.591
2015 0 55.2618 13.1737 728 141.085 1271.88 480.196
2016 0 57.3215 13.8168 792 132.066 1271.36 479.16
2017 0 60.1684 15.4067 927 127.049 1271.74 476.653
2018 0 60.1414 14.1999 854 136.569 1271.63 478.628
2019 0 61.1105 13.8601 847 138.349 1270.95 477.754
2020 0 63.0847 14.1397 892 98.7141 1270.58 477.536
2021 0 63.14 14.7133 929 134.027 1271.06 475.743
2022 0 66.0812 14.2703 943 142.883 1271.33 474.864
2023 0 68.1307 14.1786 966 138.171 1271.44 475.463
2024 0 69.1807 14.3248 991 141.434 1271.13 474.845
2025 0 72.1413 14.1666 1022 142.912 1270.9 473.643
2026 0 73.1692 14.5006 1061 142.115 1270.33 473.285
2027 0 76.2109 14.2106 1083 141.95 1271.94 471.719
2028 0 78.1324 14.5394 1136 138.026 1271.47 470.849
2029 0 80.155 14.3098 1147 149.999 1271.24 469.153
2030 0 83.2725 14.4105 1200 149.228 1270.18 467.384
2031 0 86.1377 14.5697 1255 146.814 1270.74 465.902
2032 0 89.1803 14.8015 1320 148.131 1270.19 466.242
2033 0 91.1365 14.8349 1352 140.89 1270.12 463.039
2034 0 94.2103 14.2235 1340 150.516 1270.63 462.928
2035 0 97.1263 14.2598 1385 146.294 1270.15 460.942
2036 0 104.202 16.6503 1735 131.402 1270.12 456.252
2037 0 104.596 14.6372 1531 147.843 1269.33 458.247
2038 1 53.4862 12.7697 683 140.515 1270.31 482.249
2039 0 55.2101 13.4577 743 150.176 1269.88 481.197
2040 0 58.1766 13.2184 769 154.26 1269.76 480.776
2041 0 59.2475 13.9246 825 144.841 1269.35 479.559
2042 0 62.1577 13.4658 837 152.773 1269 479.296
2043 0 63.2572 13.864 877 144.285 1268.69 477.746
2044 0 66.1799 13.1309 869 143.374 1269.45 478.128
2045 0 67.0483 13.8855 931 144.846 1270.72 477.054
2046 0 71.0527 14.0881 1001 149.591 1270.51 475.393
2047 0 72.1393 14.0423 1013 145.359 1269.73 474.31
2048 0 74.1546 14.0247 1040 140.042 1269.96 473.155
2049 0 77.0629 14.2092 1095 144.541 1269.66 472.305
2050 0 79.0891 13.9463 1103 151.728 1269.79 471.456
2051 0 80.3738 13.6238 1095 144.669 1270.37 469.79
2052 0 85.1864 13.9694 1190 139.423 1270.15 469.414
2053 0 86.2483 14.0756 1214 146.343 1269.81 467.063
2054 0 90.2508 13.7173 1238 142.915 1269.52 466.439
2055 0 91.1838 13.8511 1263 145.773 1269.21 465.497
2056 0 94.4256 13.7569 1299 143.6 1269.45 464.992
2057 0 96.0898 13.9765 1343 143.768 1269 463.574
2058 0 100.178 14.055 1408 136.448 1269.09 462.107
2059 1 55.3022 13.164 728 145.775 1268.89 483.977
2060 0 55.2222 13.5815 750 142.601 1268.77 482.964
2061 0 58.1498 13.3964 779 142.813 1269.12 481.633
2062 0 60.0856 13.564 815 145.958 1269.32 479.991
2063 0 63.0516 13.4969 851 141.119 1269.35 479.284
2064 0 64.2568 13.3838 860 137.664 1269.59 477.867
2065 0 66.1511 13.5447 896 136.767 1270.01 476.567
2066 0 68.1237 13.6957 933 139.576 1269.41 475.258
2067 0 71.1341 13.6643 972 138.643 1268.82 474.376
2068 0 73.1778 13.9933 1024 127.873 1269.43 473.024
2069 0 76.2322 13.7999 1052 139.961 1269.76 471.325
2070 0 79.3288 13.7529 1091 137.295 1269 469.882
2071 0 79.2055 14.3803 1139 130.48 1269.06 468.867
2072 0 83.3834 13.7437 1146 135.543 1270.63 468.534
2073 0 85.6064 14.3914 1232 135.026 1269.22 465.887
2074 0 89.4101 13.5108 1208 139.873 1269.55 463.412
2075 0 91.3658 14.3051 1307 137.878 1270.21 462.041
2076 0 94.2209 14.1051 1329 137.455 1270.13 459.46
2077 0 98.4224 13.9704 1375 136.506 1270.4 458.185
2078 0 100.32 13.8956 1394 138.41 1269.77 456.366
2079 0 103.522 13.6589 1414 140.862 1270.01 455.515
2080 0 105.745 14.1473 1496 138.269 1270.64 452.548
2081 0 107.555 14.2439 1532 140.176 1270.77 450.662
2082 1 58.2215 12.023 700 132.477 1270.73 474.903
2083 0 62.2863 12.3783 771 135.462 1270.78 472.228
2084 0 64.4804 12.6395 815 136.623 1270.09 471.328
2085 0 66.2374 12.9987 861 132.146 1270.49 470.685
2086 0 68.4022 12.8505 879 133.827 1271.21 469.397
2087 0 70.5571 13.0249 919 137.763 1271.45 468.171
2088 0 74.3872 12.6635 942 137.364 1271.51 465.725
2089 0 75.3317 12.7436 960 137.986 1271.91 464.712
2090 0 78.6282 12.7817 1005 134.185 1271.71 462.728
2091 0 80.6009 12.9899 1047 135.042 1271.15 462.681
2092 0 84.3944 12.8445 1084 143.342 1271.52 461.293
2093 0 86.6011 13.5218 1171 137.921 1272.32 460.604
2094 0 87.3788 13.1382 1148 145.245 1271.12 458.526
2095 0 92.6484 13.0062 1205 140.33 1270.93 456.522
2096 0 94.3942 13.0305 1230 142.024 1270.8 455.596
2097 0 97.6981 12.9378 1264 138.397 1271.25 452.775
2098 0 98.4545 13.2955 1309 140.044 1272.41 452.328
2099 0 102.439 13.2665 1359 137.792 1272.6 450.904
2100 0 106.497 13.343 1421 143.588 1272.35 449.222
2101 0 109.368 13.6695 1495 143.744 1272.12 446.107
2102 0 113.684 13.5903 1545 141.783 1272.03 444.851
2103 0 121.767 13.8544 1687 141.876 1272.23 443.987
2104 0 125.706 13.6111 1711 146.611 1272.1 442.437
2105 0 129.597 13.8197 1791 147.387 1272.92 440.544
2106 1 68.4578 12.4748 854 147.412 1273.25 470.444
2107 0 72.4297 12.3844 897 140.091 1272.9 467.414
2108 0 75.2217 12.4033 933 139.03 1273.17 465.12
2109 0 77.1884 12.4112 958 144.197 1272.65 465.803
2110 0 81.4838 12.2847 1001 138.148 1272.41 462.461
2111 0 84.5934 12.4478 1053 142.56 1272.52 460.788
2112 0 86.7201 12.3385 1070 136.579 1272.73 460.032
2113 0 89.5994 12.6563 1134 134.051 1272.72 458.788
2114 0 92.7651 12.5802 1167 145.935 1273.44 457.655
2115 0 95.662 12.7219 1217 141.6 1273.44 456.368
2116 0 98.6503 12.4176 1225 147.167 1274.3 456.193
2117 0 100.592 12.3866 1246 143.832 1272.81 455.199
2118 0 105.572 12.5412 1324 144.751 1273.29 452.064
2119 0 106.507 12.4029 1321 152.784 1273.02 450.044
2120 0 109.575 12.5302 1373 145.194 1272.82 449.337
2121 0 114.518 12.2601 1404 142.82 1272.48 447.621
2122 1 60.2094 9.74931 587 141.247 1271.86 474.346
2123 0 61.256 9.97454 611 136.399 1271.47 473.751
2124 0 63.0909 10.7939 681 133.451 1273.19 472.495
2125 0 65.1101 11.4729 747 133.66 1274.69 471.762
2126 0 66.1019 12.0117 794 134.85 1275.02 470.918
2127 0 69.1251 10.4738 724 125.047 1274.5 469.645
2128 0 72.1448 11.6571 841 123.353 1274.4 468.112
2129 0 73.1588 11.4545 838 123.323 1274.56 468.132
2130 0 76.1035 11.6026 883 123.846 1274 467.304
2131 0 78.3441 12.1898 955 125.602 1274.42 463.971
2132 0 79.2069 11.8803 941 124.896 1274.78 464.823
2133 0 79.2393 12.2414 970 128.442 1274.52 464.001
2134 0 84.2346 12.5602 1058 125.874 1274.84 463.207
2135 0 86.1783 12.2305 1054 122.052 1274.39 463.447
2136 0 89.1814 12.2671 1094 122.477 1274.34 462.07
2137 0 91.2951 12.3665 1129 124.919 1273.89 461.421
2138 0 93.2119 12.8954 1202 125.299 1273.32 460.029
2139 0 95.221 13.2954 1266 122.568 1273.85 457.206
2140 0 100.223 12.7415 1277 124.745 1273.59 457.695
2141 0 101.197 13.0636 1322 120.644 1273.41 455.966
2142 0 104.208 12.7245 1326 126.266 1272.91 454.725
2143 0 106.159 12.7733 1356 120.734 1273.29 452.847
2144 0 109.201 13.5714 1482 121.576 1273.46 451.64
2145 0 114.205 12.9067 1474 122.625 1273.66 449.066
2146 0 119.092 12.9564 1543 120.345 1274.12 447.859
2147 1 62.0602 12.1817 756 115.946 1273.78 475.235
2148 0 66.0355 12.4933 825 121.833 1274.39 470.154
2149 0 67.0917 12.5351 841 116.193 1274.36 472.069
2150 0 70.169 12.3844 869 122.85 1273.87 472.52
2151 0 70.1653 12.7271 893 117.916 1273.35 471.946
2152 0 73.1032 12.7354 931 123.305 1273.64 471.332
2153 0 77.0923 12.3877 955 122.087 1273.14 470.348
2154 0 78.0717 12.655 988 123.11 1272.91 468.612
2155 0 79.091 12.7701 1010 117.158 1272.64 467.791
2156 0 83.0759 12.8437 1067 115.659 1272.81 467.331
2157 0 83.2795 13.1725 1097 119.61 1272.37 466.33
2158 0 88.3099 12.977 1146 118.867 1272.13 465.287
2159 0 89.2164 13.2038 1178 118.933 1272.54 464.026
2160 0 94.2579 13.7495 1296 118.504 1271.83 461.655
2161 0 96.2595 13.1519 1266 119.512 1272.07 462.359
2162 0 98.3728 13.1439 1293 121.494 1271.85 460.508
2163 0 102.378 13.1962 1351 115.575 1271.39 459.242
2164 0 103.456 13.4066 1387 119.861 1271.32 458.945
2165 0 107.444 13.4581 1446 122.654 1271.35 455.75
2166 0 109.656 13.3417 1463 114.129 1271.78 454.279
2167 1 60.4043 11.8535 716 122.196 1271.95 476.887
2168 0 62.2275 12.1811 758 117.682 1272.35 476.714
2169 0 63.361 13.0522 827 112.473 1271.86 475.519
2170 0 66.1578 12.5155 828 113.246 1270.81 477.33
2171 0 67.1329 12.9594 870 114.936 1270.78 476.518
2172 0 69.0556 12.8158 885 116.118 1270.81 475.868
2173 0 72.1876 13.3402 963 115.633 1269.78 474.999
2174 0 74.0816 13.3636 990 111.456 1269.31 473.063
2175 0 76.1385 12.9895 989 115.027 1269.8 472.781
2176 0 78.1429 13.3985 1047 114.707 1269.56 472.799
2177 0 80.0783 12.9873 1040 112.912 1269.4 470.178
2178 0 84.1926 13.2197 1113 110.289 1270.49 469.369
2179 0 86.1562 13.5568 1168 107.368 1271.96 467.604
2180 0 87.2424 13.388 1168 87.0103 1270.96 466.348
2181 0 92.1301 13.9368 1284 111.108 1270.49 466.171
2182 0 96.3209 13.6211 1312 109.484 1270.48 463.127
2183 0 98.0912 13.2224 1297 110.831 1270.35 463.345
2184 0 102.207 13.3748 1367 109.733 1270.11 461.323
2185 0 104.217 13.3472 1391 109.506 1270.83 459.563
2186 1 55.1449 12.5669 693 112.996 1271.65 484.088
2187 0 57.2239 12.6521 724 107.517 1271.27 483.642
2188 0 59.3549 12.4 736 103.192 1270.98 481.03
2189 0 59.1744 12.8603 761 103.653 1270.97 481.862
2190 0 62.2776 12.7012 791 102.819 1271.85 480.93
2191 0 63.3174 12.8243 812 103.294 1271.91 479.501
2192 0 66.1536 12.864 851 106.04 1270.76 477.105
2193 0 67.1948 13.1111 881 102.356 1271.57 475.919
2194 0 67.3037 13.3128 896 99.1094 1272.07 473.886
2195 0 71.2532 12.8836 918 99.8922 1272.19 473.623
2196 0 74.3982 13.038 970 101.706 1271.31 472.131
2197 0 75.2186 13.2946 1000 100.3 1271.58 470.796
2198 0 78.1725 13.4702 1053 102.276 1271.2 471.259
2199 0 80.2474 13.8572 1112 100.372 1271.72 469.766
2200 0 83.2631 13.6915 1140 96.6035 1271.83 468.626
2201 0 87.3119 13.7324 1199 98.2043 1270 467.074
2202 0 88.2455 13.5078 1192 96.979 1271.22 465.322
2203 0 95.4392 15.0462 1436 91.5077 1271.14 461.697
2204 0 96.425 13.4405 1296 99.0748 1271.16 456.569
2205 1 50.407 12.2007 615 102.085 1271.28 481.655
2206 0 53.5598 12.36 662 100.16 1271.33 480.935
2207 0 54.1567 12.6485 685 95.8847 1270.38 482.664
2208 0 56.3315 12.2489 690 101.891 1270.3 481.862
2209 0 58.2783 12.7149 741 95.7247 1270.41 480.132
2210 0 57.36 13.4066 769 97.8231 1272.2 479.135
2211 0 59.3399 12.8076 760 102.674 1272.6 478.666
2212 0 63.3217 13.0129 824 99.392 1272.46 476.343
2213 0 65.288 12.8201 837 102.137 1273.3 476.373
2214 0 67.2107 13.4949 907 97.4818 1273.39 474.08
2215 0 68.2456 13.7005 935 97.8449 1273.25 474.173
2216 0 69.2487 13.5887 941 97.3071 1273.2 474.332
2217 0 72.2758 13.5453 979 100.854 1273.45 473.13
2218 0 74.1104 13.237 981 101.992 1273.7 472.208
2219 0 79.1982 14.1417 1120 98.3982 1273.34 468.804
2220 0 79.1151 13.4867 1067 102.575 1273.48 467.52
2221 0 82.1745 13.3253 1095 100.303 1273.92 465.691
2222 0 85.1526 13.3995 1141 98.922 1274.37 464.521
2223 0 88.2025 13.7298 1211 97.4187 1274.63 463.404
2224 0 89.2509 13.7029 1223 98.0932 1274.4 460.12
2225 0 93.1418 13.5063 1258 95.1494 1274.63 450.631
2226 0 95.1832 13.0275 1240 96.8613 1274.53 454.619
2227 1 53.1759 11.2457 598 100.483 1275.04 481.192
2228 0 55.0706 11.2946 622 96.1334 1276.33 480.215
2229 0 54.2072 11.8988 645 94.8047 1275.98 479.549
2230 0 58.2029 12.4908 727 94.0894 1275.76 477.718
2231 0 63.104 13.7392 867 86.263 1275.62 474.835
2232 0 63.1751 12.7424 805 97.1925 1275.53 474.073
2233 0 64.1712 12.2952 789 96.0532 1274.79 473.729
2234 0 66.1678 12.7706 845 96.3254 1275.49 473.34
2235 0 68.163 13.1156 894 92.7841 1276.04 471.86
2236 0 71.2184 12.581 896 96.3471 1276.29 471.878
2237 0 72.099 12.9405 933 96.5852 1275.11 470.481
2238 0 75.0821 13.1856 990 94.4737 1275.34 469.763
2239 0 76.208 13.45 1025 95.2741 1274.95 468.309
2240 0 77.0938 13.4122 1034 97.1132 1275.05 467.494
2241 0 81.1481 13.0502 1059 98.2767 1274.55 465.692
2242 0 84.2453 13.247 1116 94.9615 1275.6 464.547
2243 0 87.1784 13.2716 1157 92.0493 1275.11 463.34
2244 0 92.2055 13.1012 1208 99.0877 1274.86 462.517
2245 0 94.179 13.262 1249 102.388 1274.61 460.283
2246 1 53.0349 11.8035 626 100.406 1274.75 480.593
2247 0 54.077 12.1863 659 102.223 1273.99 479.901
2248 0 54.1709 12.4421 674 98.1009 1273.99 479.387
2249 0 58.1339 12.3508 718 101.253 1273.47 478.599
2250 0 58.1339 12.3508 718 160.196 1272.47 478.599
2251 0 61.1716 12.7674 781 100.078 1273.19 477.012
2252 0 64.1403 12.4882 801 100.383 1273.77 475.591
2253 0 65.12 13.2985 866 98.7067 1274.19 474.308
2254 0 68.1592 12.9696 884 101.609 1274.35 473.619
2255 0 70.137 12.9603 909 97.6777 1274.27 471.89
2256 0 72.1497 13.0839 944 101.515 1274.83 469.249
2257 0 73.1825 13.2409 969 101.27 1274 468.385
2258 0 73.1825 13.2409 969 159.811 1273 468.385
2259 0 78.1924 13.454 1052 98.7804 1273.57 466.221
2260 0 81.1512 13.3948 1087 96.8703 1273.98 464.782
2261 0 85.1909 13.3934 1141 99.3856 1274.04 463.614
2262 0 88.1778 13.3934 1181 96.5157 1273.08 462.45
2263 0 90.1921 13.5489 1222 96.41 1273.15 461.116
2264 0 94.2536 13.2833 1252 95.4377 1272.91 459.903
2265 0 95.3166 13.6702 1303 95.9087 1273.16 459.305
2266 1 55.1093 11.4318 630 97.846 1272.7 481.39
2267 0 55.1531 12.3112 679 95.4256 1271.34 479.579
2268 0 58.0787 12.3109 715 96.5441 1272.41 478.589
2269 0 59.1362 12.226 723 97.0041 1272.26 478.31
2270 0 60.1015 12.5288 753 99.9774 1271.71 477.025
2271 0 62.1819 12.6403 786 114.611 1272.16 475.816
2272 0 64.1406 12.5194 803 114.181 1272.92 474.304
2273 0 66.2059 12.6575 838 121.755 1272.28 474.346
2274 0 69.1001 12.2721 848 120.249 1272.48 474.054
2275 0 72.2007 12.2021 881 112.218 1271.63 472.486
2276 0 75.2866 12.4856 940 116.654 1271.89 470.548
2277 0 76.3264 12.9444 988 115.828 1271.07 468.333
2278 0 78.2479 12.8949 1009 118.836 1271.15 467.504
2279 0 83.3479 12.4418 1037 116.032 1271.36 466.756
2280 0 84.3122 12.9519 1092 110.924 1270.6 464.809
2281 0 87.1532 12.8165 1117 115.267 1271.92 464.124
2282 0 92.223 12.8927 1189 113.521 1271.93 464.349
2283 0 92.223 12.8927 1189 166.076 1271.93 464.349
2284 0 97.2702 12.7686 1242 116.854 1270.78 460.44
2285 0 99.1883 12.935 1283 115.864 1271.04 459.916
2286 1 54.1662 11.6309 630 116.302 1269.77 479.932
2287 0 55.2526 11.7099 647 115.745 1270.77 479.913
2288 0 56.1794 11.9973 674 112.352 1271.27 478.767
2289 0 59.1632 11.8993 704 102.962 1271.77 478.804
2290 0 60.111 12.6433 760 112.543 1271.45 477.663
2291 0 61.1164 12.1735 744 112.755 1271.95 478.075
2292 0 65.0846 12.4146 808 109.821 1272.01 476.066
2293 0 66.1863 12.3893 820 114.349 1271.65 475.317
2294 0 68.1173 12.9483 882 115.734 1272.44 473.943
2295 0 69.101 13.256 916 106.418 1271.91 473.037
2296 0 73.3231 12.6563 928 115.553 1271.99 472.01
2297 0 74.1712 13.0644 969 115.046 1271.86 469.963
2298 0 77.1188 13.2393 1021 121.572 1272.43 468.417
2299 0 78.097 13.3424 1042 122.028 1272.36 468.087
2300 0 82.1807 12.8741 1058 121.819 1272.36 465.954
2301 0 81.1653 13.5896 1103 125.806 1271.88 464.004
2302 0 86.1442 12.9202 1113 122.24 1271.94 462.853
2303 0 88.1569 13.0789 1153 124.757 1272.1 461.96
2304 0 93.138 12.7982 1192 124.303 1272.28 461.148
2305 0 96.0975 13.1845 1267 125.614 1272.2 458.414
2306 0 99.1354 13.5976 1348 123.53 1272.19 457.181
2307 0 102.182 13.2312 1352 123.376 1272.16 454.133
2308 1 56.1035 11.3184 635 128.318 1272.74 476.57
2309 0 58.1506 11.5906 674 127.617 1271.98 475.429
2310 0 61.5996 12.354 761 122.811 1270.85 473.611
2311 0 63.4481 13.5386 859 117.906 1271.27 470.659
2312 0 64.4833 13.0576 842 123.495 1271.03 470.442
2313 0 66.3548 12.9154 857 124.851 1271.12 470.098
2314 0 68.4986 12.5988 863 123.045 1271.3 468.944
2315 0 69.4307 12.7609 886 126.907 1271.87 467.009
2316 0 73.2859 12.9493 949 126.65 1272.6 466.903
2317 0 73.1254 12.7589 933 123.672 1273.32 467.229
2318 0 79.1326 12.7507 1009 118.186 1273.4 465.282
2319 0 80.1816 12.9082 1035 125.929 1273.71 465.025
2320 0 82.33 13.3123 1096 123.696 1273.19 463.121
2321 0 86.1716 13.2062 1138 127.076 1273.52 461.828
2322 0 88.1547 12.9999 1146 131.038 1273.29 459.585
2323 0 89.2865 13.3951 1196 128.379 1273.8 457.918
2324 0 93.1768 13.3402 1243 132.121 1273.88 457.634
2325 0 96.3368 13.5981 1310 130.889 1274.31 455.009
2326 0 100.49 13.1854 1325 125.477 1274.38 452.506
2327 0 103.513 13.3027 1377 132.887 1274.54 449.831
2328 0 104.459 12.9811 1356 131.378 1274.2 446.032
2329 0 109.746 12.9755 1424 130.513 1274.71 444.975
2330 0 111.649 13.1753 1471 131.712 1274.74 444.206
2331 1 61.2715 12.0284 737 133.398 1273.53 471.506
2332 0 63.4048 11.671 740 130.139 1274.68 470.568
2333 0 66.4186 12.361 821 132.497 1274.53 468.922
2334 0 67.5243 12.4103 838 135.659 1274.88 468.494
2335 0 69.4038 12.6794 880 135.115 1274.64 467.632
2336 0 71.4081 12.4776 891 131.3 1274.58 466.085
2337 0 73.5428 12.6321 929 134.724 1275 465.812
2338 0 75.2982 12.9087 972 132.914 1275.13 465.582
2339 0 78.5053 12.6361 992 129.867 1273.86 463.566
2340 0 79.4342 12.1484 965 133.692 1273.84 462.932
2341 0 81.4991 12.7363 1038 135.472 1274.01 460.125
2342 0 85.6646 12.5956 1079 129.652 1274.17 459.256
2343 0 86.6108 12.5389 1086 136.628 1274.38 459.322
2344 0 90.6569 12.6742 1149 134.523 1275.16 457.293
2345 0 91.8291 12.3599 1135 132.3 1274.8 456.572
2346 0 96.602 12.5049 1208 133.685 1275.16 455.207
2347 0 99.5814 13.0245 1297 132.372 1274.99 452.967
2348 0 103.654 13.0627 1354 130.951 1274.56 451.318
2349 0 105.599 13.447 1420 124.801 1274.4 450.388
2350 0 109.923 12.5724 1382 128.103 1274.27 450.489
2351 0 113.482 13.1034 1487 119.993 1275.25 446.523
2352 0 117.318 13.229 1552 125.597 1274.77 446.223
2353 1 67.144 11.1998 752 120.114 1274.07 471.854
2354 0 68.0999 11.8649 808 121.937 1272.76 470.189
2355 0 68.0748 12.2659 835 119.352 1272.6 467.943
2356 0 72.0757 12.0706 870 118.41 1272.38 466.048
2357 0 74.089 12.0396 892 130.232 1273.3 466.747
2358 0 77.2403 12.0145 928 124.939 1274.72 466.237
2359 0 81.3157 12.6421 1028 123.803 1274.64 464.667
2360 0 82.2857 12.2865 1011 24.3848 1274.04 462.934
2361 0 84.2213 12.2178 1029 120.193 1274.25 462.185
2362 0 87.2132 12.4178 1083 127.191 1273.58 461.715
2363 0 89.2007 12.9932 1159 112.294 1273.4 461.312
2364 0 93.1946 12.5758 1172 109.613 1272.99 458.599
2365 0 96.2429 12.9464 1246 120.088 1272.84 458.571
2366 0 98.2791 12.6884 1247 126.496 1273.25 455.755
2367 0 102.254 12.733 1302 120.568 1273.45 455.735
2368 0 105.269 12.9478 1363 116.795 1273.11 453.325
2369 0 109.268 12.721 1390 109.081 1273.06 452.225
2370 0 112.221 12.5912 1413 106.318 1272.84 450.266
2371 0 116.369 12.5635 1462 116.627 1272.52 447.649
2372 0 117.417 12.6302 1483 114.659 1273.37 448.049
2373 1 67.1367 10.8287 727 111.388 1273.47 472.457
2374 0 68.156 11.8552 808 109.908 1273.38 472.045
2375 0 70.3191 12.3864 871 117.769 1273.09 469.749
2376 0 73.2621 12.1209 888 114.854 1272.61 469.334
2377 0 73.1489 11.8389 866 125.568 1272.35 470.013
2378 0 78.2211 12.2857 961 124.456 1272.43 467.579
2379 0 80.2431 12.5494 1007 127.438 1272.54 466.059
2380 0 83.2098 12.4024 1032 114.925 1272.47 466.91
2381 0 84.1623 12.7135 1070 121.534 1272.78 465.384
2382 0 88.1037 12.8371 1131 123.002 1272.63 463.423
2383 0 90.2945 12.3153 1112 126.545 1272.48 461.142
2384 0 92.1715 12.4767 1150 126.224 1272.73 460.76
2385 0 95.1791 12.6288 1202 122.373 1273.11 459.453
2386 0 98.1369 12.8698 1263 120.693 1272.91 459.21
2387 0 102.177 12.5567 1283 119.514 1272.5 456.77
2388 0 105.282 12.8417 1352 115.196 1272.05 454.137
2389 0 92.2785 7.81331 721 121.526 1272.24 464.067
2390 0 105.272 10.8766 1145 128.485 1272.59 455.024
2391 0 103.234 10.1033 1043 127.893 1271.85 457.625
2392 0 93.2979 9.43216 880 129.167 1272.16 462.951
2393 1 65.3323 10.9594 716 118.545 1271.22 472.703
2394 0 65.3494 12.2878 803 117.908 1271.53 471.076
2395 0 70.1398 11.7337 823 120.853 1272.37 472.61
2396 0 71.2015 11.7554 837 120.392 1271.99 470.105
2397 0 73.1803 12.0797 884 115.426 1272.29 470.601
2398 0 76.2975 12.3595 943 117.083 1271.86 469.341
2399 0 78.1567 12.2958 961 115.969 1272.26 468.147
2400 0 81.189 12.3662 1004 118.054 1272.58 466.945
2401 0 82.2118 12.9057 1061 111.758 1271.95 460.009
2402 0 83.1862 12.5141 1041 115.307 1272.09 463.999
2403 0 86.232 12.5128 1079 118.705 1272.84 461.206
2404 0 90.2688 12.6179 1139 118.002 1272.28 461.681
2405 0 95.2968 13.3373 1271 108.842 1273.03 460.994
2406 0 97.2676 13.5297 1316 113.521 1273.08 458.494
2407 0 101.324 13.4124 1359 106.263 1272.6 455.725
2408 0 106.572 13.146 1401 113.862 1271.54 453.222
2409 0 108.379 13.5728 1471 114.925 1272.44 453.644
2410 0 112.555 13.1758 1483 114.165 1272.06 450.771
2411 1 62.3809 10.5962 661 120.398 1271.57 473.729
2412 0 63.3252 10.6435 674 120.911 1271.3 472.868
2413 0 63.352 11.5229 730 120.437 1271.55 470.438
2414 0 66.1671 11.743 777 117.918 1271.46 470.432
2415 0 69.2305 11.96 828 119.599 1272.25 467.886
2416 0 71.4212 11.8032 843 117.062 1272.27 467.484
2417 0 72.2942 11.5777 837 117.695 1272.81 467.964
2418 0 75.1571 11.9483 898 114.546 1272.86 467.598
2419 0 76.2681 11.6563 889 123.452 1273.33 465.001
2420 1 116.275 8.07565 939 131.691 1273.51 454.249
2421 0 123.281 7.82766 965 122.518 1273.77 452.919
2422 1 88.1174 11.0648 975 114.537 1273.62 460.155
2423 0 87.1461 11.6356 1014 118.454 1274.03 459.195
2424 0 90.1948 11.9076 1074 123.35 1274.35 457.797
2425 0 94.181 12.1999 1149 123.005 1274.42 455.431
2426 0 97.304 12.1578 1183 123.669 1274.97 453.286
2427 0 100.269 12.1773 1221 123.947 1275.68 453.998
2428 0 103.254 12.29 1269 123.684 1275.22 451.575
2429 0 107.367 12.937 1389 124.521 1274.98 449.808
2430 0 109.249 12.4943 1365 121.845 1274.63 447.654
2431 0 111.218 12.7497 1418 123.829 1274.51 445.658
2432 0 117.356 12.9009 1514 121.048 1274.82 442.195
2433 0 120.5 13.0955 1578 119.011 1274.48 440.613
2434 0 123.566 12.5682 1553 117.071 1274.4 438.138
2435 1 70.3109 11.0083 774 124.649 1274.09 467.724
2436 0 73.1472 11.7298 858 119.112 1273.91 465.739
2437 0 74.2354 11.8407 879 116.069 1274.4 464.217
2438 0 78.3808 11.24 881 116.96 1274.86 462.64
2439 0 80.2353 11.4164 916 117.709 1274.65 461.3
2440 0 82.3032 11.5791 953 112.86 1274.68 460.689
2441 0 87.2992 11.535 1007 125.503 1274.41 460.06
2442 0 88.3622 11.8603 1048 119.786 1275.1 457.611
2443 0 92.5303 11.607 1074 123.099 1274.83 457.535
2444 0 93.4498 11.664 1090 116.177 1275.16 456.151
2445 0 97.5106 12.3371 1203 120.301 1275.18 454.484
2446 0 101.669 12.1079 1231 124.06 1274.4 453.173
2447 1 59.4032 8.95575 532 119.942 1275.17 474.652
2448 0 59.3274 7.65245 454 127.152 1275.14 473.667
2449 0 59.4855 8.00195 476 117.088 1274.02 473.889
2450 0 60.1601 9.10903 548 114.219 1273.71 474.29
2451 0 65.1741 8.77649 572 125.584 1274.54 472.531
2452 0 66.3002 8.67267 575 117.783 1273.83 467.021
2453 0 67.2216 9.69926 652 112.874 1273.99 467.319
2454 0 71.2546 7.94335 566 113.919 1273.85 465.654
2455 0 73.1739 10.2359 749 101.13 1274.61 465.343
2456 0 77.114 11.3987 879 98.2662 1275.28 464.355
2457 0 79.2289 11.2333 890 95.5011 1275.62 465.855
2458 0 81.321 11.4485 931 86.1923 1275.21 465.099
2459 0 85.2191 11.5819 987 89.7194 1275.51 462.251
2460 0 86.1905 11.5094 992 94.3327 1275.35 461.865
2461 0 88.2801 11.3729 1004 96.3317 1275.08 459.792
2462 0 93.2791 10.8813 1015 98.1951 1274.72 459.351
2463 0 93.2799 11.5566 1078 94.6447 1274 456.544
2464 0 95.2677 11.263 1073 96.6076 1274.25 455.693
2465 0 99.176 11.5754 1148 87 1274.12 454.476
2466 0 102.352 11.265 1153 88.7598 1273.99 452.67
2467 0 106.241 11.8128 1255 89.8311 1274.23 449.367
2468 0 107.217 11.5933 1243 92.8214 1273.97 449.144
2469 0 111.276 11.8355 1317 94.5725 1274.03 447.509
2470 1 60.09 7.10601 427 96.8407 1275.05 475.693
2471 0 66.0325 8.37467 553 100.837 1274.92 472.588
2472 0 64.0525 11.3969 730 101.527 1274.49 468.314
2473 0 64.1444 11.0844 711 88.3488 1273.36 467.685
2474 1 103.218 7.79901 805 99.6025 1274.66 457.317
2475 1 194.654 10.3003 2005 103.79 1274.01 407.28
2476 0 195.55 11.8691 2321 97.5575 1272.85 401.209
2477 1 257.566 6.60026 1700 117.013 1273.19 392.629
2478 1 143.329 11.1003 1591 105.415 1273.28 429.376
2479 1 92.2957 8.49444 784 106.796 1272.96 457.024
2480 0 93.2055 9.25911 863 107.547 1272.65 457.19
2481 0 94.2371 9.51854 897 105.787 1273.55 457.484
2482 0 79.1622 11.268 892 111.5 1272.93 372.796
2483 1 150.319 12.2806 1846 110.086 1272.77 327.252
2484 1 78.2875 12.1603 952 113.369 1273.64 364.669
2485 1 52.0979 8.9255 465 119.946 1272.98 379.338
2486 0 52.0979 8.9255 465 130.426 1272.98 379.338
2487 0 46.165 9.40105 434 124.387 1272.95 374.899
2488 0 111.254 11.5142 1281 109.197 1274.22 449.316
2489 0 116.304 11.6505 1355 114.813 1274.17 446.946
2490 0 117.259 11.7261 1375 106.415 1274.25 444.896
2491 0 122.191 11.8994 1454 112.642 1274.25 441.145
2492 0 125.228 12.9683 1624 106.357 1272.01 437.198
2493 0 130.415 11.3407 1479 110.972 1271.51 437.565
2494 1 38.1159 6.00799 229 112.895 1270.31 483.93
2495 0 38.2212 4.99723 191 119.162 1270.2 483.859
2496 0 48.0325 6.70379 322 118.898 1272.62 483.022
2497 0 47.068 9.77309 460 112.613 1273.6 479.376
2498 1 84.0841 11.6431 979 109.086 1271.18 463.134
2499 0 87.1556 12.208 1064 107.16 1271.36 463.662
2500 0 89.1071 12.3447 1100 110.654 1271.73 462.084
2501 0 91.0696 12.8693 1172 106.771 1271.59 459.668
2502 0 94.141 12.5663 1183 113.331 1271.96 458.352
2503 0 95.2827 12.9299 1232 111.837 1271.95 455.848
2504 0 99.1764 12.6744 1257 112.842 1272.71 456.002
2505 0 103.32 13.7824 1424 109.98 1274.35 452.19
2506 0 105.279 12.2341 1288 113.115 1274.12 453.21
2507 0 108.285 12.5502 1359 111.767 1273.54 450.631
2508 0 112.28 12.6291 1418 115.202 1273.51 449.689
2509 0 113.302 13.9715 1583 111.114 1272.99 446.25
2510 0 117.299 13.6233 1598 109.566 1272.99 444.3
2511 0 120.345 12.6968 1528 112.685 1272.91 444.003
2512 0 121.556 13.031 1584 118.181 1273.19 442.342
2513 0 125.344 13.4829 1690 93.2083 1273.1 437.574
2514 0 128.253 12.8028 1642 112.355 1273.05 437.37
2515 0 129.578 12.9728 1681 116.294 1273.08 433.691
2516 0 133.681 12.8141 1713 117.161 1274.22 431.358
2517 0 138.601 12.5973 1746 115.983 1274.17 428.683
2518 0 135.764 10.4004 1412 124.347 1274.27 429.843
2519 1 150.589 13.228 1992 111.982 1274.74 424.472
2520 0 156.766 13.198 2069 108.001 1273.25 422.828
2521 0 160.603 13.0508 2096 114.546 1274.1 423.524
2522 0 164.381 12.5075 2056 119.608 1273.92 420.634
2523 0 168.653 12.0365 2030 111.341 1274.45 416.278
2524 0 168.653 12.0365 2030 125.615 1277.45 416.278
2525 1 94.168 12.2228 1151 104.145 1275.54 457.98
2526 0 97.2177 12.5594 1221 116.907 1275.52 455.834
2527 0 99.2204 12.5781 1248 118.844 1276.06 455.456
2528 0 102.219 12.7178 1300 112.565 1275.76 453.245
2529 0 105.194 12.5197 1317 119.112 1274.77 451.587
2530 0 108.401 12.2046 1323 121.672 1274.81 449.076
2531 0 110.587 12.7772 1413 120.139 1274.27 448.247
2532 0 114.251 12.9451 1479 121.513 1274.4 447.252
2533 1 67.2207 10.7556 723 115.423 1274.29 471.102
2534 0 67.2728 11.0594 744 121.972 1274.93 466.999
2535 0 70.0957 11.8837 833 116.673 1274.49 466.78
2536 0 71.1175 11.7271 834 118.504 1274.36 467.447
2537 0 71.2453 11.7482 837 119.863 1274.61 467.299
2538 0 74.1573 11.3812 844 123.921 1274.59 466.462
2539 0 69.1577 9.52895 659 120.209 1273.89 464.716
2540 0 78.2761 12.0727 945 119.362 1274.46 463.557
2541 0 80.3996 11.6916 940 126.123 1274.72 460.504
2542 0 80.2937 11.9686 961 126.961 1275.13 460.252
2543 0 86.2774 11.3471 979 129.553 1274.59 457.077
2544 0 87.3632 11.9272 1042 126.106 1274.76 455.972
2545 0 89.4638 12.2396 1095 122.318 1274.57 456.444
2546 0 91.5022 11.803 1080 121.433 1274.67 454.643
2547 0 94.566 12.0233 1137 125.553 1275.07 453.869
2548 0 96.498 12.508 1207 119.679 1274.93 451.268
2549 0 98.7736 12.4831 1233 119.457 1275.47 448.44
2550 0 104.748 12.554 1315 116.597 1275.98 448.779
2551 0 107.708 12.4875 1345 120.187 1276.11 446.228
2552 0 111.772 12.3734 1383 114.222 1276.32 444.957
2553 0 113.541 12.4536 1414 110.633 1275.75 442.912
2554 1 66.5287 10.7623 716 126.774 1275.73 468.127
2555 0 68.6111 10.6834 733 127.385 1276.12 466.967
2556 0 71.4475 11.5469 825 124.596 1275.49 465.623
2557 0 71.329 11.7203 836 125.641 1275.11 466.039
2558 0 74.3994 12.1237 902 127.449 1275.18 465.723
2559 0 76.3776 12.0454 920 127.148 1275.14 464.765
2560 0 80.3644 12.8788 1035 121.715 1275.58 463.068
2561 0 83.3429 13.1745 1098 122.591 1275.64 460.704
2562 0 86.3025 13.0471 1126 123.316 1275.75 458.366
2563 0 87.523 13.0708 1144 128.922 1275.93 456.424
2564 0 91.6509 12.9077 1183 129.17 1276.03 455.55
2565 0 94.5749 12.6249 1194 126.274 1275.66 456.239
2566 0 97.655 12.8718 1257 128.094 1275.67 453.685
2567 0 100.57 13.2247 1330 125.596 1275.59 452.324
2568 0 102.438 13.0909 1341 123.468 1275.6 450.13
2569 0 103.458 13.1937 1365 126.544 1275.57 449.435
2570 0 108.857 13.4673 1466 128.549 1275.07 447.271
2571 0 111.519 13.1637 1468 126.497 1275.03 445.321
2572 0 114.398 13.2433 1515 129.31 1274.78 444.017
2573 0 116.432 12.8745 1499 131.846 1274.68 439.574
2574 0 119.649 13.431 1607 130.073 1274.85 440.572
2575 1 66.2852 9.80611 650 132.775 1275.13 468.566
2576 0 69.1328 10.4147 720 123.64 1276.4 466.112
2577 0 73.1148 11.4888 840 126.842 1275.78 467.79
2578 0 75.3074 12.1236 913 123.172 1274.83 465.863
2579 0 77.1044 12.6711 977 114.641 1276.04 466.166
2580 0 78.1519 12.5141 978 118.503 1276.02 464.83
2581 0 80.1639 12.5992 1010 121.902 1276.17 463.075
2582 0 85.0903 12.6924 1080 117.521 1275.68 462.119
2583 0 86.3282 12.4756 1077 125.88 1275.49 460.422
2584 0 86.1539 12.2455 1055 132.426 1276.24 458.599
2585 0 89.1542 12.2933 1096 139.734 1276.67 458.586
2586 0 89.1542 12.2933 1096 151.229 1276.67 458.586
2587 0 96.1816 12.7987 1231 133.534 1276.16 456.726
2588 0 99.1683 13.2704 1316 130.805 1275.66 453.886
2589 0 102.112 13.113 1339 127.642 1274.7 453.148
2590 0 104.222 13.2122 1377 133.216 1274.28 451.102
2591 0 108.227 13.6842 1481 124.002 1273.9 445.903
2592 0 110.207 12.8032 1411 125.683 1275.29 447.143
2593 0 110.225 12.2296 1348 128.562 1274.2 443.039
2594 0 118.242 12.8888 1524 116.889 1274.16 442.723
2595 0 120.319 13.0154 1566 113.934 1274.77 440.119
2596 0 123.228 13.1869 1625 130.917 1274.36 439.126
2597 0 127.279 12.6101 1605 134.942 1274.23 437.568
2598 0 131.428 13.0946 1721 135.619 1274.32 435.048
2599 1 73.044 11.8969 869 131.605 1274.61 467.781
2600 0 75.0329 11.9014 893 132.054 1275.5 464.654
2601 0 80.0762 11.2892 904 125.985 1276.02 464.978
2602 0 82.1301 12.395 1018 128.904 1275.37 464.784
2603 0 85.0789 12.5295 1066 126.791 1275.49 463.645
2604 0 85.0941 12.7388 1084 128.856 1275.19 462.948
2605 0 88.1372 13.0138 1147 128.313 1274.75 462.298
2606 0 92.08 12.891 1187 127.745 1275.19 459.823
2607 0 93.0468 13.2621 1234 124.831 1275.11 458.965
2608 0 94.2198 13.044 1229 125.678 1275.49 457.291
2609 0 97.1795 13.2538 1288 131.638 1274.59 455.853
2610 0 101.189 13.6576 1382 126.444 1273.61 455.598
2611 0 104.169 13.0749 1362 125.974 1274.19 453.789
2612 0 108.309 13.4245 1454 124.924 1274.14 451.68
2613 1 59.1317 10.4851 620 125.813 1273.97 476.852
2614 0 60.32 11.2566 679 123.882 1273.03 476.031
2615 0 63.3262 11.8434 750 118.943 1273.18 474.476
2616 0 65.1124 11.795 768 119.053 1275 474.113
2617 0 66.1117 12.252 810 122.08 1274.1 472.84
2618 0 67.0476 12.5433 841 117.675 1273.89 471.322
2619 0 69.3813 12.4385 863 122.513 1272.9 466.092
2620 0 69.3056 12.6252 875 115.11 1274.17 467.113
2621 0 74.0942 12.943 959 117.269 1274.41 467.95
2622 0 77.1654 12.1039 934 117.787 1274.56 467.245
2623 0 78.1476 12.9499 1012 114.614 1273.96 465.664
2624 0 80.1067 12.9327 1036 116.129 1273.85 464.661
2625 0 83.231 14.0332 1168 109.027 1273.7 461.467
2626 0 83.2909 12.7985 1066 109.978 1273.6 461.345
2627 0 86.1279 12.7833 1101 119.489 1273.58 460.019
2628 0 93.2108 12.9813 1210 118.221 1273.41 459.823
2629 0 94.3066 13.1698 1242 119.89 1273.34 458.44
2630 0 95.1283 13.6237 1296 119.45 1272.74 457.218
2631 0 98.4405 12.7387 1254 127.666 1273.03 456.203
2632 0 101.245 13.0476 1321 120.893 1272.67 454.861
2633 0 101.39 13.4432 1363 123.812 1272.55 453.689
2634 0 104.538 12.9714 1356 124.948 1272.18 449.631
2635 0 109.497 13.5894 1488 129.652 1272.29 448.577
2636 0 113.684 13.4935 1534 129.533 1272.58 446.709
2637 1 64.4342 11.2363 724 120.354 1271.83 470.637
2638 0 67.3945 11.8407 798 127.501 1272.18 471.416
2639 0 69.4767 11.7018 813 128.459 1272.2 469.776
2640 0 71.1207 12.0359 856 120.428 1272.49 471.849
2641 0 73.1531 11.7288 858 127.924 1272.52 470.159
2642 0 76.1089 12.6398 962 118.374 1272.62 470.133
2643 0 76.2792 12.2052 931 116.525 1271.86 468.066
2644 0 80.1408 11.9664 959 116.67 1272.35 466.811
2645 0 80.4913 11.9889 965 114.37 1271.85 456.85
2646 0 83.4945 12.2403 1022 113.806 1271.38 459.139
2647 0 85.6544 12.7256 1090 117.521 1271.66 458.05
2648 0 85.6544 12.7256 1090 146.691 1272.66 458.05
2649 0 93.6571 12.407 1162 122.031 1272.54 456.701
2650 0 96.8067 12.6541 1225 121.113 1272.44 456.904
2651 0 100.654 12.5081 1259 118.55 1272.6 455.735
2652 1 56.5174 10.687 604 119.828 1271.78 476.763
2653 0 57.1863 11.2964 646 112.528 1272.2 478.87
2654 0 57.068 11.8455 676 123.17 1274.52 479.059
2655 0 60.1521 12.0362 724 114.396 1273.31 478.188
2656 0 62.0907 12.063 749 121.877 1273.48 477.738
2657 0 64.0633 12.1286 777 116.502 1274.08 476.565
2658 0 66.1645 12.7259 842 115.957 1273.9 474.755
2659 0 68.0719 12.4133 845 119.961 1274.26 474.626
2660 0 69.1054 12.7197 879 119.787 1273.58 474.064
2661 0 71.026 12.601 895 121.165 1273.79 472.45
2662 0 73.049 12.3479 902 120.125 1274.57 470.606
2663 0 73.0786 11.9734 875 133.062 1273.93 468.67
2664 0 78.102 12.5733 982 132.219 1274.27 469.187
2665 0 79.1106 12.4889 988 138.278 1273.93 468.474
2666 0 81.0909 12.8991 1046 127.503 1274.1 467.002
2667 0 84.169 13.0214 1096 125.964 1274.45 465.034
2668 0 86.3563 12.4716 1077 130.386 1274.81 462.899
2669 0 88.1047 12.6213 1112 130.456 1274.54 459.997
2670 0 92.1249 12.8195 1181 130.771 1273.79 459.581
2671 0 95.1094 12.6907 1207 124.837 1273.73 459.57
2672 0 97.1484 12.7743 1241 129.79 1273.3 457.073
2673 0 101.15 14.0188 1418 131.812 1273.01 454.543
2674 0 105.241 13.2743 1397 128.216 1272.75 455.279
2675 1 62.0798 12.1296 753 127.165 1273.29 476.361
2676 0 63.1977 12.3264 779 128.801 1272.93 475.092
2677 0 65.1277 12.9438 843 114.829 1273.44 476.187
2678 0 67.1808 12.191 819 121.212 1273.45 474.929
2679 0 68.1612 12.7052 866 123.732 1273.14 474.745
2680 0 70.1926 12.7649 896 118.842 1272.88 473.213
2681 0 72.1703 12.997 938 117.369 1273.07 472.552
2682 0 73.3392 13.5535 994 113.144 1273.04 471.76
2683 0 76.3721 12.8057 978 118.02 1272.83 470.092
2684 0 79.2485 12.8835 1021 112.578 1273.06 469.935
2685 0 82.1325 12.4311 1021 114.503 1273.17 469.061
2686 0 84.3114 13.2248 1115 109.135 1272.65 466.115
2687 0 86.2838 13.2586 1144 113.038 1271.22 463.902
2688 0 89.4621 13.0446 1167 111.115 1272.07 463.06
2689 1 50.0936 9.60202 481 113.877 1272.49 483.811
2690 0 52.1131 10.4772 546 106.755 1272.6 481.799
2691 0 55.1273 10.8295 597 104.747 1272.44 479.045
2692 0 57.1262 11.5184 658 106.792 1272.73 479.286
2693 0 57.0551 11.6379 664 104.095 1272.65 478.446
2694 0 57.1634 12.1931 697 98.3888 1272.32 478.007
2695 0 60.2705 11.7802 710 101.155 1272.59 478.43
2696 0 63.2912 11.771 745 98.4872 1273 477.697
2697 0 64.1348 11.8656 761 97.5926 1272.69 475.58
2698 0 64.2043 12.3045 790 98.3975 1273.19 474.337
2699 0 69.2453 12.0875 837 98.9892 1272.93 474.45
2700 0 72.2423 12.2781 887 96.1646 1272.62 472.714
2701 0 73.255 12.1493 890 104.178 1273.16 472.407
2702 0 76.2636 12.2994 938 110.721 1273.4 471.19
2703 0 76.1642 12.6831 966 116.161 1273.18 468.685
2704 0 80.3122 12.5012 1004 113.036 1273.5 468.117
2705 0 83.3347 12.2758 1023 112.265 1273.71 467.37
2706 0 86.4273 12.6812 1096 106.835 1273.03 464.689
2707 0 89.4353 12.3553 1105 108.709 1273.16 463.737
2708 0 91.5554 13.216 1210 101.582 1272.99 461.645
2709 0 94.3648 13.2253 1248 105.322 1273.52 460.514
2710 1 54.1364 9.40218 509 109.073 1273.76 482.664
2711 0 56.1475 10.3477 581 109.971 1273.72 482.052
2712 0 59.1972 10.5073 622 111.077 1273.63 480.336
2713 0 58.1338 11.6455 677 112.836 1273.66 480.089
2714 0 60.1277 11.8914 715 105.982 1273.37 478.717
2715 0 63.2262 11.4351 723 105.025 1272.95 478.751
2716 0 64.1012 11.5286 739 104.899 1272.85 476.92
2717 0 65.0871 12.2451 797 104.676 1273.37 475.089
2718 0 66.2193 12.4586 825 103.937 1273.26 475.116
2719 0 71.1481 12.0594 858 101.862 1273.36 473.809
2720 0 73.1782 12.1484 889 107.591 1273.58 473.456
2721 0 74.1792 12.3889 919 102.792 1273.67 471.416
2722 0 77.123 12.3698 954 119.18 1273.73 470.839
2723 0 78.1847 12.6367 988 127.733 1273.52 469.969
2724 0 81.1778 12.1462 986 125.749 1273.25 467.033
2725 0 84.3499 11.891 1003 124.846 1272.96 464.893
2726 0 84.3499 11.891 1003 121.949 1272.96 464.893
2727 0 90.3656 13.0359 1178 121.437 1273.82 463.404
2728 0 92.3604 12.776 1180 125.203 1273.56 460.842
2729 0 95.3579 12.6681 1208 125.93 1272.87 460.267
2730 0 99.3625 13.0733 1299 115.476 1272.95 459.584
2731 0 102.34 13.2304 1354 116.909 1272.85 458.32
2732 0 103.528 13.1655 1363 113.786 1273.36 454.524
2733 0 106.257 13.185 1401 108.476 1273.92 454.538
2734 0 110.369 13.1287 1449 102.1 1273.09 450.654
2735 0 113.281 12.853 1456 108.501 1273.6 448.848
2736 0 114.38 12.9218 1478 106.032 1273.13 447.168
2737 1 65.1668 10.2353 667 113.585 1273.16 472.487
2738 0 67.2892 10.3285 695 121.695 1272.62 471.777
2739 0 73.1369 11.622 850 114.465 1272.34 473.32
2740 0 73.2017 12.0762 884 111.835 1272.4 471.966
2741 0 73.2017 12.0762 884 147.671 1272.4 471.966
2742 0 76.216 12.4252 947 120.159 1272.79 471.039
2743 0 79.3312 11.9373 947 118.209 1272.48 468.946
2744 0 83.1193 12.0911 1005 104.801 1272.62 467.513
2745 0 84.2848 12.4934 1053 112.951 1272.68 466.033
2746 0 86.1254 12.9346 1114 110.502 1272.59 464.83
2747 0 90.3523 12.7833 1155 107.376 1272.34 463.324
2748 0 92.4222 12.6377 1168 110.11 1272.77 462.143
2749 0 96.5421 12.5645 1213 108.977 1272.5 460.918
2750 0 98.4 12.4289 1223 103.236 1272.86 460.017
2751 0 101.364 12.4107 1258 105.215 1273.14 458.543
2752 0 104.49 12.8242 1340 103.801 1272.96 456.487
2753 0 108.596 12.855 1396 104.218 1272.67 455.175
2754 0 111.621 12.5067 1396 110.251 1272.71 453.639
2755 0 114.528 12.6432 1448 106.279 1273.18 451.56
2756 0 118.507 12.2355 1450 114.987 1272.91 448.862
2757 0 122.459 11.7182 1435 111.788 1272.97 447.831
2758 0 126.566 12.7523 1614 106.975 1272.63 445.968
2759 0 130.483 13.0592 1704 107.844 1273.18 444.237
2760 0 137.676 13.8441 1906 107.775 1272.39 436.299
2761 1 77.5342 11.324 878 114.919 1272.69 467.618
2762 0 81.2949 12.0426 979 111.634 1272.81 466.634
2763 0 84.111 12.4835 1050 105.345 1274.35 466.78
2764 0 87.1371 12.2106 1064 99.9962 1273.88 465.35
2765 0 89.0773 12.753 1136 107.087 1273.89 464.443
2766 0 92.0624 12.8608 1184 111.102 1274.2 463.515
2767 0 95.1033 12.8492 1222 104.999 1273.7 461.061
2768 0 97.1638 12.4738 1212 98.6287 1274.39 459.998
2769 0 101.214 12.3501 1250 103.486 1273.64 457.63
2770 0 104.121 12.6199 1314 109.151 1273.53 455.836
2771 0 108.143 13.0383 1410 107.283 1273.79 454.576
2772 0 109.091 12.6133 1376 108.721 1274.28 453.05
2773 0 115.092 12.6855 1460 106.138 1274.11 450.304
2774 0 117.241 12.9648 1520 97.6322 1273.73 448.186
2775 0 121.259 12.3867 1502 109.921 1273.76 446.368
2776 0 125.469 12.513 1570 102.781 1274.81 444.896
2777 0 128.258 12.8959 1654 101.985 1274.21 441.086
2778 0 132.444 12.8205 1698 102.605 1274.04 440.478
2779 1 72.2348 11.6287 840 105.169 1274.49 469.227
2780 0 73.1417 11.006 805 101.759 1273.92 465.513
2781 0 77.2656 11.5316 891 102.844 1273.96 463.776
2782 0 78.3581 11.9452 936 100.16 1274.17 461.465
2783 0 79.2425 12.4176 984 100.114 1274.5 460.559
2784 0 82.2792 12.0808 994 106.318 1273.91 460.21
2785 0 85.2469 12.282 1047 100.266 1274.33 458.713
2786 0 89.3119 12.3388 1102 103.279 1274.22 456.318
2787 0 92.1571 12.1532 1120 100.802 1274.22 456.359
2788 0 94.1451 12.3958 1167 98.9109 1274.62 454.446
2789 0 97.1649 11.887 1155 101.939 1275.08 451.623
2790 0 100.271 12.5261 1256 97.6154 1275.3 450.913
2791 0 104.279 12.409 1294 101.11 1275.26 449.524
2792 0 106.353 12.5337 1333 96.4029 1275.31 446.764
2793 0 105.248 12.2283 1287 101.166 1274.97 444.312
2794 0 111.281 13.0121 1448 95.1948 1274.55 445.541
2795 0 116.385 13.0429 1518 97.2754 1274.95 442.014
2796 0 117.431 13.0033 1527 105.507 1275.7 439.029
2797 0 120.401 13.0564 1572 103.515 1275.84 437.503
2798 0 125.436 13.2737 1665 102.434 1276.36 435.6
2799 0 127.347 13.2708 1690 102.938 1276.1 432.812
2800 0 131.46 12.985 1707 100.132 1275.94 431.604
2801 0 134.483 12.5815 1692 104.975 1276.18 427.302
2802 0 140.365 13.3652 1876 99.6407 1276.46 427.844
2803 0 146.363 13.5621 1985 101.711 1276.72 423.993
2804 0 151.516 13.3649 2025 99.7185 1276.66 419.751
2805 1 88.2593 10.9337 965 101.785 1276.01 455.174
2806 0 89.2586 11.2594 1005 100.658 1275.58 452.816
2807 0 94.1364 11.9826 1128 90.6135 1275.16 456.651
2808 0 99.2429 11.9807 1189 98.6072 1275.61 454.992
2809 0 100.191 12.007 1203 96.9676 1275.62 453.46
2810 0 105.379 13.2095 1392 91.2931 1275.9 451.562
2811 0 105.275 12.1681 1281 100.053 1276.12 450.553
2812 0 108.323 11.8996 1289 101.061 1276.1 446.805
2813 0 114.343 12.8911 1474 93.4179 1276.89 443.256
2814 0 114.361 12.8103 1465 91.4 1276.72 445.616
2815 0 120.29 12.6943 1527 99.2993 1277.08 442.161
2816 0 123.44 12.3947 1530 97.7954 1277.09 439.895
2817 0 127.393 12.4967 1592 97.505 1276.8 438.774
2818 0 127.393 12.4967 1592 156.236 1278.8 438.774
2819 0 132.454 12.2986 1629 94.9834 1276.97 434.308
2820 0 138.31 12.5949 1742 101.638 1277.13 432.715
2821 0 143.36 12.4233 1781 102.673 1277.56 430.612
2822 0 146.422 11.7537 1721 107.725 1277.66 427.131
2823 0 151.312 12.775 1933 99.5939 1277.33 426.399
2824 0 156.225 12.7764 1996 106.484 1277.01 423.935
2825 0 160.288 13.0203 2087 107.261 1276.56 421.485
2826 0 165.367 12.8502 2125 105.986 1276.55 418.507
2827 0 171.392 12.2643 2102 116.011 1276.96 416.83
2828 0 177.396 13.422 2381 100.657 1276.78 411.625
2829 0 184.591 13.1155 2421 96.9455 1275.99 408.47
2830 0 188.428 13.1403 2476 98.662 1274.96 406.618
2831 0 195.514 13.0988 2561 100.009 1274.43 404.32
2832 0 200.512 14.4679 2901 96.898 1274.21 398.529
2833 0 207.644 13.841 2874 92.0654 1274.36 398.454
2834 0 203.679 11.3856 2319 105.001 1273.7 400.016
2835 0 205.642 12.6239 2596 95.7485 1273.11 398.798
2836 0 204.621 12.8041 2620 98.0462 1272.73 398.045
2837 0 205.508 13.1236 2697 99.8721 1272.88 397.858
2838 1 239.649 13.912 3334 96.1365 1273.23 379.866
2839 0 247.626 14.1665 3508 95.9815 1273.49 377.381
2840 1 208.75 13.0156 2717 93.6202 1273.38 396.852
2841 0 210.677 12.588 2652 95.5023 1273.23 398.669
2842 0 207.771 12.5427 2606 88.2943 1273.06 399.167
2843 0 215.528 12.2629 2643 93.9607 1273.09 393.239
2844 0 221.393 12.8369 2842 93.8772 1273.66 388.414
2845 0 227.825 12.9486 2950 90.4498 1273.33 384.095
2846 0 237.53 13.1731 3129 91.4631 1273.58 383.325
2847 0 241.481 12.8292 3098 95.755 1274.22 379.309
2848 0 247.748 12.3109 3050 102.7 1273.54 371.692
2849 0 259.637 13.3378 3463 102.222 1273.4 372.347
2850 0 266.667 12.9225 3446 102.385 1274.07 363.603
2851 0 274.54 13.947 3829 98.5291 1274.06 355.742
2852 0 281.705 13.1165 3695 101.929 1274.22 356.073
2853 0 290.854 12.9618 3770 103.404 1273.67 349.9
2854 0 299.899 13.0377 3910 98.1079 1274.56 344.606
2855 0 308.612 12.5951 3887 97.4585 1275.25 340.684
2856 0 307.781 13.4739 4147 95.5681 1275.16 342.137
2857 0 331.947 15.6621 5199 86.3083 1275.22 325.178
2858 1 251.643 11.2064 2820 95.0855 1274.5 373.685
2859 0 255.422 12.1681 3108 108.181 1275.12 372.494
2860 0 266.702 12.7033 3388 106.495 1275.63 365.682
2861 0 274.773 12.6031 3463 113.443 1275.22 358.429
2862 0 282.931 12.1196 3429 118.177 1275.33 356.33
2863 0 290.918 12.0343 3501 110.484 1275.3 349.063
2864 0 300.768 12.1988 3669 109.951 1275.88 342.578
2865 1 117.348 12.2371 1436 89.5167 1275.33 442.476
2866 1 303.623 10.5229 3195 112.097 1275.55 346.197
2867 1 120.337 11.2185 1350 95.7837 1275.17 440.553
2868 0 123.35 11.3498 1400 92.2236 1275.67 436.946
2869 0 128.441 11.8109 1517 85.5715 1276.38 437.713
2870 0 134.44 11.6037 1560 92.7481 1276.43 433.994
2871 0 138.491 12.0152 1664 94.0559 1276.37 430.124
2872 1 293.886 7.51651 2209 109.228 1275.81 364.092
2873 1 217.078 10.8579 2357 90.1481 1275.25 382.434
2874 1 160.602 9.72593 1562 100.334 1275.1 413.738
2875 0 158.415 9.6834 1534 100.598 1274.93 412.393
2876 1 221.996 8.41456 1868 105.884 1275.75 384.206
2877 1 165.484 12.3214 2039 93.5782 1276.41 415.101
2878 0 165.484 12.3214 2039 139.232 1279.41 415.101
2879 1 113.322 7.88905 894 95.7774 1277.41 444.047
2880 0 106.277 7.53688 801 95.3233 1276.95 446.916
2881 0 113.379 7.95564 902 96.3681 1277.04 440.166
2882 0 115.26 8.40709 969 96.0433 1276.42 440.836
2883 0 119.223 8.33729 994 95.0926 1276.6 438.182
2884 0 119.141 7.77233 926 94.8423 1275.9 437.61
2885 0 117.171 6.92152 811 94.1048 1275.7 434.824
2886 0 124.295 8.10169 1007 95.1529 1275.32 431.51
2887 0 135.343 8.31958 1126 99.6741 1275.02 428.562
2888 0 134.362 7.93381 1066 99.4822 1275.22 428.961
2889 0 136.356 7.75178 1057 104.223 1275.6 426.032
2890 0 136.207 9.14051 1245 101.848 1274.94 422.117
2891 0 135.331 9.2957 1258 104.964 1275.22 422.228
2892 0 136.402 8.66558 1182 100.99 1274.75 421.755
2893 1 197.445 9.11139 1799 107.995 1275.3 399.595
2894 0 196.303 7.33052 1439 103.65 1275.15 403.077
2895 0 197.424 12.0249 2374 103.548 1275.02 400.984
2896 0 203.543 12.6361 2572 102.813 1275.61 396.229
2897 0 208.582 12.3884 2584 102.456 1275.07 393.47
2898 0 212.499 12.6589 2690 101.691 1275.44 386.054
2899 0 224.47 14.6077 3279 93.6969 1275.6 383.741
2900 0 231.577 14.6129 3384 90.4084 1275.42 377.704
2901 0 236.615 12.6323 2989 98.3894 1275.01 372.872
2902 0 241.552 12.0844 2919 104.617 1275.5 370.136
2903 0 248.612 12.7629 3173 98.2994 1275.99 367.112
2904 0 255.473 12.929 3303 99.0805 1275.74 358.88
2905 0 265.706 12.4875 3318 99.9756 1275.25 356.607
2906 0 274.593 13.4963 3706 96.9887 1275.5 357.021
2907 0 282.605 13.0536 3689 91.4402 1275.02 350.838
2908 0 289.507 12.6111 3651 94.4396 1275.73 346.308
2909 0 404.044 14.6989 5939 89.6552 1275.39 291.602
2910 1 225.552 12.4716 2813 93.2464 1276.01 383.974
2911 0 230.668 13.0924 3020 109.16 1276 382.084
2912 0 238.75 13.2775 3170 102.962 1276.29 375.801
2913 0 245.84 13.159 3235 105.849 1276.34 373.31
2914 0 254.737 13.7436 3501 103.951 1276.89 367.424
2915 0 258.489 13.0489 3373 106.393 1276.92 362.581
2916 0 267.715 13.3762 3581 99.573 1276.35 358.32
2917 0 275.701 13.5182 3727 102.989 1276.07 352.424
2918 0 279.628 12.7527 3566 105.14 1275.79 344.068
2919 0 289.82 14.8264 4297 101.46 1275.85 341.363
2920 0 300.127 15.0736 4524 96.5844 1276.57 337.564
2921 0 306.923 14.9028 4574 94.8 1276.39 332.074
2922 0 313.557 14.7724 4632 94.5667 1276.51 325.894
2923 0 319.689 14.6298 4677 95.0002 1276.77 321.141
2924 0 321.578 11.5928 3728 104.234 1276.83 327.718
2925 0 321.959 11.4083 3673 105.607 1276.52 324.655
2926 0 322.9 11.4958 3712 103.339 1276.41 325.031
2927 0 320.704 10.6952 3430 95.0143 1276.62 323.037
2928 1 134.241 2.68175 360 78.4361 1277.35 458.203
2929 0 127.118 1.55761 198 78.5455 1277.67 465.515
2930 0 132.156 1.46796 194 82.0876 1278.12 464.397
2931 0 132.17 5.65182 747 88.498 1277.27 444.973
2932 0 132.138 5.78181 764 82.3037 1277.18 444.563
2933 0 135.196 5.51793 746 84.6836 1277.05 446.552
2934 0 134.259 4.61795 620 80.971 1277.07 450.831
2935 0 118.475 4.16121 493 80.142 1275.53 456.176
2936 1 158.509 3.53922 561 82.4813 1275.86 440.779
2937 0 158.672 7.41152 1176 89.8946 1276.37 424.514
2938 0 157.649 5.70889 900 96.1122 1276.78 427.558
2939 0 158.487 10.3163 1635 89.0654 1276.62 412.443
2940 0 158.573 10.8026 1713 85.9276 1276.72 413.81
2941 0 157.479 10.2109 1608 83.6729 1275.8 414.756
2942 0 158.621 10.3517 1642 82.3581 1276.35 415.63
2943 0 1 38 38 53.4737 1261.53 134.421
2944 0 1 54 54 50.3519 1268 134.556
2945 0 29.2165 36.6916 1072 81.9729 1279.82 122.373
2946 0 37.2016 24.2194 901 89.7625 1285.27 123.125
2947 0 37.2302 26.8062 998 87.3407 1284.48 122.971
2948 0 39.4221 27.9792 1103 89.7452 1283.39 122.738
2949 0 40.5673 28.0028 1136 87.618 1282.79 123.86
2950 0 38.2611 35.9896 1377 89.4343 1278.83 123.604
2951 0 43.8723 35.0107 1536 88.4941 1278.5 122.201
2952 0 41.4232 35.7529 1481 96.2546 1277.36 123.404
2953 0 36.2645 37.8056 1371 100.82 1276.62 123.918
2954 0 52.1802 30.203 1576 104.459 1277.53 121.636
2955 0 59.9112 28.2919 1695 108.644 1277.3 121.222
2956 0 55.3002 33.9239 1876 119.106 1277.4 120.479
2957 0 56.0334 38.013 2130 114.102 1277.91 119.399
2958 0 55.9826 38.8871 2177 121.816 1278.09 119.238
2959 0 62.9772 35.4573 2233 123.799 1279.01 119.12
2960 0 61.8408 31.5164 1949 121.917 1277.56 118.682
2961 0 57.099 31.7519 1813 119.307 1274.1 117.844
2962 0 61.9683 30.8222 1910 124.652 1274.64 116.959
2963 0 59.6415 34.59 2063 116.7 1275.78 117.714
2964 0 47.9288 36.4082 1745 130.233 1278.01 117.782
2965 0 54.5281 35.7981 1952 133.655 1281.04 116.661
2966 0 56.6536 33.9078 1921 136.445 1281.98 118.134
2967 0 66.6804 33.0082 2201 134.326 1281.68 118.995
2968 0 45.7045 36.0577 1648 106.467 1282.66 124.129
2969 0 65.854 29.1706 1921 111.413 1281.66 124.388
2970 0 70.0059 33.0401 2313 109.701 1281.63 123.344
2971 0 70.494 32.4425 2287 124.203 1280.85 122.48
2972 0 64.5774 33.3089 2151 125.743 1277.35 123.708
2973 0 70.3282 33.2157 2336 127.092 1276.84 122.156
2974 0 71.577 32.3568 2316 126.893 1277.29 122.418
2975 0 72.2995 31.5631 2282 134.884 1277.1 122.923
2976 0 70.2355 33.7294 2369 130.667 1276.18 122.404
2977 0 50.8567 31.6182 1608 151.973 1274.45 127.659
2978 0 76.4918 34.7488 2658 137.69 1277.28 118.342
2979 0 76.7209 36.9912 2838 141.715 1278.7 116.504
2980 0 81.4748 35.5938 2900 144.898 1276.11 115.716
2981 0 81.268 36.4104 2959 145.873 1271.6 115.223
2982 0 79.9447 35.7872 2861 146.074 1268.52 115.679
2983 0 79.1963 37.2997 2954 146.498 1266.48 114.429
2984 0 86.5289 33.3415 2885 156.218 1265.67 115.065
2985 0 83.9654 34.2403 2875 151.745 1265.89 115.115
2986 0 86.802 32.6721 2836 158.911 1265.57 115.53
2987 0 82.9156 35.4095 2936 155.966 1264.89 114.085
2988 0 74.2947 37.755 2805 141.665 1266.5 116.925
2989 0 73.1531 34.7764 2544 157.73 1269.69 119.365
2990 0 75.3972 33.622 2535 154.683 1268.26 118.83
2991 0 87.0901 29.1996 2543 161.11 1268.16 118.668
2992 0 75.7984 35.9506 2725 151.454 1268.54 117.549
2993 0 77.5173 38.314 2970 149.066 1268.13 115.004
2994 0 67.823 39.6473 2689 143.704 1265.03 117.485
2995 0 70.0393 37.1934 2605 141.874 1266.38 117.941
2996 0 69.4223 39.7567 2760 138.014 1265.06 117.622
2997 0 68.2593 37.5773 2565 131.426 1262.24 118.813
2998 0 71.4776 36.2491 2591 143.179 1261.23 118.772
2999 0 67.2572 35.7583 2405 116.62 1262.03 120.87
3000 0 47.3961 35.256 1671 115.655 1262.82 125.387
3001 0 47.5869 34.001 1618 116.953 1261.03 126.106
3002 0 43.6424 29.3064 1279 119.011 1258.44 126.65
3003 0 43.3555 29.6848 1287 143.434 1258.17 126.668
3004 0 40.8962 29.3915 1202 138.321 1261.59 126.312
3005 0 32.2763 38.4492 1241 144.263 1263.26 123.073
3006 0 41.4952 34.751 1442 140.304 1264.18 122.109
3007 0 52.8838 29.9903 1586 158.363 1267.78 125.03
