index division length width area intensity CMx CMy
0 0 75.0931 16.686 1253 123.189 1295.62 226.237
1 0 81.1581 16.5849 1346 128.493 1296.27 225.702
2 0 80.1638 16.5162 1324 131.847 1297.21 223.443
3 0 82.1676 16.3812 1346 129.184 1296.28 221.959
4 0 85.1139 16.1313 1373 136.63 1295.78 219.328
5 0 88.0847 16.4387 1448 133.55 1295.48 217.234
6 0 91.1699 16.2554 1482 133.89 1295.18 215.793
7 0 95.1445 16.5117 1571 133.758 1295.16 214.136
8 0 98.2176 16.5653 1627 138.988 1295.3 213.5
9 0 102.183 16.3432 1670 135.003 1295.72 208.332
10 0 105.421 16.1638 1704 135.906 1295.69 207.631
11 0 110.2 16.2705 1793 135.744 1295.74 207.412
12 1 60.1223 13.6721 822 143.546 1296.5 234.639
13 0 61.2777 14.1161 865 144.712 1297.51 232.995
14 0 64.0973 13.9476 894 147.519 1298.23 232.912
15 0 66.2624 13.9295 923 144.781 1298.9 231.553
16 0 66.261 16.4803 1092 134.772 1299.6 229.451
17 0 68.1112 16.2382 1106 129.196 1300.85 228.92
18 0 71.0575 16.4937 1172 133.429 1301.74 228.11
19 0 74.1935 16.3087 1210 126.484 1302.47 226.093
20 0 78.0862 16.2897 1272 133.336 1303.16 224.825
21 0 80.135 16.285 1305 135.838 1303.6 224.011
22 0 82.0791 16.411 1347 135.238 1304.16 223.175
23 0 85.1485 16.3597 1393 138.866 1304.52 220.846
24 0 88.1766 16.8185 1483 137.638 1305.29 220.252
25 0 91.1806 16.6922 1522 138.176 1305.44 218.479
26 0 95.1504 16.6683 1586 135.364 1305.14 218.296
27 0 98.0768 16.5279 1621 142.217 1305.11 215.6
28 0 101.134 16.6116 1680 137.728 1305.27 214.349
29 0 104.148 16.8701 1757 141.18 1305.27 213.231
30 0 107.274 16.537 1774 142.904 1304.99 211.731
31 0 112.301 16.5983 1864 140.687 1304.96 210.882
32 1 59.0484 13.6668 807 144.104 1304.07 237.149
33 0 61.1764 13.4692 824 143.057 1303.22 235.853
34 0 63.0706 13.8733 875 141.877 1302.77 234.861
35 0 67.104 13.6058 913 138.68 1302.14 232.768
36 0 69.1935 13.903 962 132.649 1301.52 231.537
37 0 71.1262 14.2001 1010 134.362 1300.92 230.181
38 0 74.2932 13.7428 1021 141.614 1300.74 228.714
39 0 76.2301 15.9124 1213 124.588 1300.49 226.528
40 0 79.2309 15.8145 1253 129.429 1299.92 225.449
41 0 81.2742 16.5981 1349 129.898 1299.7 223.415
42 0 84.4457 16.1998 1368 123.712 1299.58 217.337
43 0 88.2717 16.3926 1447 129.719 1299.47 217.211
44 0 90.2841 16.3484 1476 131.959 1299.75 216.734
45 0 94.142 16.3264 1537 122.768 1299.31 216.214
46 0 98.4396 16.66 1640 123.942 1299.71 214.991
47 0 101.229 15.8749 1607 128.508 1299.36 214.679
48 0 106.212 16.0528 1705 128.394 1299.22 211.897
49 0 109.189 16.4211 1793 130.081 1298.77 209.511
50 0 113.187 16.1061 1823 128.575 1299.47 206.925
51 1 61.3588 13.1847 809 136.583 1299.23 234.077
52 0 63.1844 13.7217 867 129.208 1299.68 233.479
53 0 65.1044 16.7731 1092 119.521 1300.02 230.391
54 0 66.2041 15.7845 1045 122.822 1299.67 229.522
55 0 69.184 15.6828 1085 116.769 1300.43 225.787
56 0 71.2182 15.291 1089 127.516 1300.79 225.276
57 0 74.3019 15.0198 1116 124.211 1300.76 225.125
58 0 75.2854 15.78 1188 122.881 1300.94 224.137
59 0 78.3188 15.4624 1211 126.292 1300.3 223.838
60 0 79.2912 15.8404 1256 120.908 1300.98 223.501
61 0 83.2408 15.7014 1307 130.134 1301.63 222.761
62 0 85.15 15.8191 1347 124.392 1301.79 221.342
63 0 90.2012 15.5652 1404 127.571 1301.73 220.395
64 0 91.1502 16.1053 1468 128.652 1302.31 220.576
65 0 95.1265 16.2731 1548 126.95 1302.46 219.183
66 0 98.1577 16.0049 1571 125.902 1302.33 216.546
67 1 51.0563 12.3197 629 134.803 1302.42 236.809
68 0 54.0735 13.3522 722 125.641 1302.59 234.943
69 0 55.1268 13.0245 718 132.043 1302.33 235.357
70 0 55.116 13.1178 723 133.874 1302.73 237.615
71 0 58.1593 12.9644 754 136.237 1302.73 237.43
72 0 60.1236 12.9234 777 135.434 1302.88 237.305
73 0 61.1205 13.1216 802 135.007 1301.97 235.092
74 0 64.1839 13.0406 837 124.155 1301.9 232.949
75 0 65.1924 13.4832 879 126.7 1302.29 232.068
76 0 65.1246 13.4204 874 129.127 1301.88 232.479
77 0 68.2029 14.0317 957 127.202 1301.47 226.473
78 0 70.0842 15.9094 1115 112.342 1301.73 223.54
79 0 73.129 15.2607 1116 116.892 1301.28 221.419
80 0 76.1653 15.4007 1173 108.616 1300.78 221.948
81 0 78.1798 15.1318 1183 111.067 1300.79 220.543
82 0 81.153 15.6741 1272 110.396 1300.52 219.083
83 0 85.0794 15.4679 1316 112.065 1300.78 217.328
84 0 88.1051 15.6404 1378 113.577 1300.2 217.857
85 0 92.1942 15.9554 1471 105.092 1300.1 217.513
86 0 95.1794 15.7912 1503 113.738 1300.01 216.084
87 1 49.1916 12.4818 614 117.497 1299.84 241.819
88 0 50.3243 12.6182 635 116.92 1299.58 241.57
89 0 52.1823 12.7821 667 118.772 1299.18 240.495
90 0 55.1788 13.9184 768 102.142 1298.83 238.413
91 0 57.1498 13.7183 784 109.855 1298.92 237.269
92 0 58.1306 12.6267 734 113.969 1298.64 237.797
93 0 58.2254 13.4306 782 109.643 1299.33 236.51
94 0 62.1828 13.5729 844 108.812 1299.81 234.991
95 0 62.1339 13.149 817 107.759 1299.98 235.001
96 0 68.3271 14.9282 1020 96.6608 1299.64 231.749
97 0 66.1721 15.2783 1011 97.8131 1299.37 232.387
98 0 67.1148 15.7193 1055 99.9754 1299.24 230.732
99 0 70.163 15.407 1081 101.129 1299.65 230.012
100 0 70.1757 15.5039 1088 103.736 1299.42 228.904
101 0 75.1338 15.1463 1138 105.002 1299.6 228.417
102 0 77.2679 15.6598 1210 106.707 1299.43 227.526
103 0 78.135 15.5244 1213 106.53 1299.79 226.34
104 0 81.2447 15.5456 1263 106.911 1300.18 224.949
105 0 86.2241 15.9584 1376 100.521 1299.91 223.337
106 0 87.1551 15.6273 1362 105.496 1299.86 221.708
107 0 91.3016 15.8048 1443 105.114 1300.53 220.247
108 1 49.0752 12.2465 601 112.479 1300.63 241.253
109 0 49.273 12.1771 600 112.485 1300.22 243.588
110 0 52.0916 11.9981 625 116.198 1300.36 242.074
111 0 51.2508 13.0144 667 116.211 1299.88 240.817
112 0 53.2032 12.1985 649 114.248 1298.71 239.733
113 0 55.1482 12.5661 693 118.016 1298.95 238.821
114 0 56.2138 12.8438 722 112.389 1298.39 237.305
115 0 57.1503 12.9133 738 112.881 1298.86 237.367
116 0 59.1442 13.0529 772 110.821 1298.73 236.336
117 0 62.1495 12.8239 797 111.536 1298.42 235.885
118 0 63.1784 12.9475 818 120.119 1299.01 234.919
119 0 64.3129 13.2166 850 112.995 1298.98 233.249
120 0 65.0794 15.3351 998 106.253 1298.97 231.143
121 0 65.2254 15.3928 1004 108.219 1299 229.758
122 0 69.3078 16.1742 1121 104.097 1300.3 228.631
123 0 71.3252 15.5064 1106 108.394 1300.01 226.878
124 0 72.4174 16.1011 1166 110.99 1300.29 226.382
125 0 76.5802 15.5915 1194 109.576 1300.82 224.708
126 0 77.2135 15.9946 1235 107.028 1300.89 222.23
127 0 81.2686 15.6026 1268 102.291 1300.82 220.047
128 0 83.3927 16.2844 1358 106.526 1301.37 219.096
129 0 86.2851 15.7038 1355 113.026 1300.85 218.066
130 0 87.3036 15.4747 1351 113.216 1300.76 216.086
131 0 94.3268 16.1672 1525 108.05 1301.38 213.871
132 1 52.1668 12.6517 660 125.955 1301 235.142
133 0 53.1315 13.0431 693 125.304 1300.95 232.882
134 0 54.119 13.1747 713 122.648 1300.78 233.56
135 0 57.0885 13.6105 777 126.369 1301.14 232.024
136 0 57.0825 13.752 785 129.436 1301.08 231.703
137 0 59.0954 13.5882 803 126.936 1300.55 230.117
138 0 60.102 13.5104 812 125.495 1301.22 226.336
139 0 63.0688 13.9847 882 125.522 1301.47 224.022
140 0 66.1014 13.676 904 122.439 1301.91 223.715
141 0 66.0974 15.5528 1028 119.073 1301.65 220.356
142 0 67.186 15.7473 1058 116.047 1302.28 219.508
143 0 71.1833 15.9728 1137 117.79 1302.6 218.709
144 0 72.2486 16.0557 1160 113.527 1302.73 216.903
145 0 76.2508 15.9474 1216 117.345 1303.25 214.048
146 0 80.3938 16.1828 1301 117.854 1303.69 211.874
147 0 81.1228 16.2593 1319 113.35 1303.69 209.663
148 0 86.2656 16.0783 1387 114.21 1303.62 207.839
149 0 89.2253 15.8363 1413 108.215 1303.58 202.816
150 0 90.305 15.9792 1443 115.023 1303.92 196.644
151 1 45.2114 12.342 558 117.52 1303.49 223.608
152 0 52.2466 15.4843 809 104.569 1304.81 231.708
153 0 53.0575 16.3785 869 99.3556 1304.77 232.969
154 0 55.1435 14.4713 798 100.227 1304.73 233.397
155 0 53.0914 14.8612 789 112.058 1304.94 234.089
156 0 54.0673 13.8161 747 111.295 1305.44 233.697
157 0 54.0997 13.7524 744 119.957 1305.11 232.825
158 0 54.0585 13.3004 719 120.387 1306.27 232.186
159 0 55.0652 13.2752 731 122.186 1306.08 232.609
160 0 58.0822 12.9988 755 125.923 1305.48 232.665
161 0 59.05 13.2261 781 123.346 1305.3 227.77
162 0 61.1065 13.3701 817 128.991 1305.1 227.61
163 0 61.1342 13.3968 819 126.587 1305.59 228.455
164 0 65.1464 13.5848 885 124.458 1305.56 228.007
165 0 66.0583 13.8968 918 129.481 1305.4 223.222
166 0 68.0607 13.6496 929 129.046 1305.89 223.199
167 0 71.072 13.7326 976 122.087 1306.2 222.122
168 0 72.2152 16.1323 1165 119.916 1306.73 214.895
169 0 76.0493 15.8713 1207 118.446 1306.67 213.812
170 0 78.1212 15.4504 1207 121.845 1306.73 211.533
171 0 80.1107 16.3024 1306 119.887 1306.77 211.956
172 0 84.1468 16.2098 1364 119.284 1306.84 213.059
173 0 88.0951 15.9941 1409 122.43 1306.46 212.75
174 0 88.1412 16.3261 1439 119.547 1306.74 211.628
175 0 92.1846 15.9354 1469 122.826 1307.02 211.378
176 0 96.1435 16.0801 1546 124.938 1306.2 210.24
177 0 98.2163 16.3008 1601 127.519 1306.95 210.685
178 0 101.097 16.133 1631 124.593 1307.27 209.242
179 0 105.107 15.9837 1680 122.488 1306.91 210.047
180 0 110.177 16.1649 1781 121.937 1307.32 208.937
181 0 112.195 16.3822 1838 124.855 1307.27 200.608
182 1 61.1751 12.8157 784 129.52 1307.49 230.353
183 0 62.1379 12.8424 798 130.598 1307.83 228.827
184 0 64.2632 12.6822 815 131.521 1307.66 228.185
185 0 67.0841 13.6247 914 123.699 1307.8 226.407
186 0 68.0676 13.3838 911 126.025 1307.44 227.415
187 0 71.1492 12.9446 921 130.571 1307.03 226.731
188 0 72.0697 15.9152 1147 118.992 1306.79 224.731
189 0 74.2405 15.4094 1144 115.135 1307.03 222.842
190 0 78.0653 15.5383 1213 112.833 1306.83 221.922
191 0 79.115 15.9009 1258 111.979 1306.72 220.421
192 0 81.1443 15.6881 1273 116.521 1306.75 219.039
193 0 84.1728 15.7652 1327 113.038 1306.68 217.525
194 0 88.2053 15.6907 1384 108.971 1306.85 216.595
195 0 91.1009 15.9933 1457 109.428 1306.52 216.362
196 0 95.1179 16.0012 1522 111.565 1306.56 214.543
197 0 98.2666 15.9057 1563 112.646 1306.45 213.776
198 0 99.1995 15.8469 1572 114.392 1306.14 212.433
199 0 104.264 15.7677 1644 109.906 1306.61 211.867
200 0 108.365 15.8539 1718 114.013 1305.96 211.148
201 1 57.0959 12.5228 715 112.207 1305.87 241.288
202 0 58.1791 12.7881 744 113.41 1305.57 240.613
203 0 60.2608 12.8774 776 113.571 1306.19 239.902
204 0 60.1924 13.0415 785 118.775 1306.05 239.403
205 0 62.1905 13.2175 822 113.644 1306.25 240.791
206 0 65.1078 13.3625 870 113.08 1305.55 239.844
207 0 67.1953 12.9771 872 114.406 1305.79 238.323
208 0 68.2674 13.4032 915 117.99 1305.61 238.78
209 0 70.2087 13.8729 974 116.284 1305.06 231.8
210 0 73.1898 13.5538 992 114.534 1304.89 227.367
211 0 74.1226 15.7982 1171 109.791 1305.03 223.797
212 0 77.1224 16.1302 1244 104.497 1305.02 221.811
213 0 79.1548 15.1602 1200 114.838 1305.43 221.687
214 0 81.1629 15.5859 1265 110.074 1304.95 222.091
215 0 84.2324 15.7659 1328 113.478 1304.98 218.829
216 0 89.1065 15.7789 1406 111.89 1304.81 217.947
217 0 91.1038 15.7732 1437 111.82 1304.85 219.079
218 0 92.1546 16.1251 1486 110.106 1304.85 218.022
219 0 97.333 15.5959 1518 107.237 1305.25 217.206
220 0 98.1388 16.0487 1575 110.41 1304.77 215.305
221 0 104.159 15.9083 1657 109.034 1304.45 214.551
222 0 106.088 15.77 1673 112.431 1304.47 212.202
223 1 58.1222 12.4393 723 118.743 1304.84 238.472
224 0 61.184 12.7157 778 120.113 1304.82 235.736
225 0 63.1787 12.7258 804 117.489 1304.36 235.838
226 0 64.1063 12.7288 816 114.241 1304.5 234.504
227 0 66.1531 13.1967 873 111.395 1304.46 230.56
228 0 67.1576 13.4609 904 114.289 1304.41 228.573
229 0 70.2544 13.323 936 121.679 1304.62 226.823
230 0 71.1515 13.5485 964 115.214 1305.15 225.352
231 0 72.1122 15.0737 1087 112.869 1304.27 223.191
232 0 75.2164 15.5019 1166 110.225 1304.41 223.01
233 0 75.2164 15.5019 1166 163.925 1304.41 223.01
234 0 81.2043 15.578 1265 110.073 1304.92 221.429
235 0 83.115 15.2921 1271 115.446 1304.88 218.986
236 0 85.0806 15.4912 1318 110.03 1305.19 217.778
237 0 89.2308 15.5664 1389 106.46 1305.85 215.611
238 0 93.1522 15.5981 1453 112.641 1304.95 211.988
239 0 96.1306 15.8326 1522 110.45 1305.46 212.242
240 0 98.2815 15.4658 1520 110.74 1305.36 209.011
241 0 101.277 15.4823 1568 111.826 1305.62 208.202
242 1 53.09 11.5088 611 116.758 1305.36 236.139
243 0 55.1326 12.1162 668 119.644 1305.59 236.871
244 0 56.2808 12.2244 688 117.599 1305.33 238.549
245 0 56.3725 12.4706 703 122.033 1305.32 238.863
246 0 59.2099 12.7512 755 124.625 1305.36 239.566
247 0 60.155 12.6174 759 126.793 1305.25 239.328
248 0 63.1615 12.8243 810 124.531 1305.36 241.515
249 0 64.2088 12.8954 828 122.833 1305.35 242.803
250 0 66.1323 13.2613 877 120.446 1304.96 242.471
251 0 68.2681 13.0661 892 130.738 1305.38 243.176
252 0 70.1102 13.1935 925 128.117 1305.46 242.559
253 0 72.2672 13.1318 949 128.589 1305.72 242.805
254 0 74.2898 13.2993 988 132.159 1305.51 241.348
255 0 76.2226 13.3425 1017 130.299 1305.86 242.167
256 0 79.2089 13.2435 1049 131.133 1305.57 241.887
257 0 82.0674 13.3914 1099 128.528 1305.51 240.42
258 0 82.1434 13.6956 1125 132.104 1305.91 240.247
259 0 86.1551 13.5802 1170 133.332 1306 240.334
260 0 90.113 14.2599 1285 127.321 1306.36 238.29
261 0 91.2487 15.7482 1437 123.089 1307.05 237.976
262 0 94.2663 15.4456 1456 117.068 1306.98 237.136
263 0 96.1717 15.1916 1461 122.567 1307.48 236.695
264 0 99.2363 15.6394 1552 121.169 1307.12 236.771
265 0 105.291 15.9653 1681 123.605 1307.09 236.146
266 0 105.209 15.9493 1678 124.975 1307.03 234.478
267 0 109.301 16.1755 1768 115.508 1306.38 234.393
268 0 110.464 15.6975 1734 123.702 1307.02 233.83
269 0 115.35 15.8387 1827 124.691 1307.31 234.344
270 0 119.303 16.2779 1942 123.409 1307.96 235.561
271 0 124.37 16.1132 2004 121.326 1307.77 234.871
272 0 128.38 16.015 2056 118.817 1307.98 234.599
273 0 131.245 15.8634 2082 122.112 1307.96 233.197
274 0 138.32 16.0787 2224 116.152 1308.09 230.637
275 0 142.237 15.889 2260 122.888 1308.5 229.992
276 1 80.0915 12.4358 996 130.564 1307.62 265.733
277 0 82.155 12.7442 1047 128.899 1307.66 265.611
278 0 87.229 12.5876 1098 131.316 1307.35 267.735
279 0 89.2264 13.0118 1161 124.055 1307.51 269.885
280 0 91.2346 12.5939 1149 134.265 1307.19 271.346
281 0 94.1512 13.0641 1230 126.428 1307.14 273.712
282 0 97.274 13.1073 1275 129.534 1307.35 274.052
283 0 102.304 13.2253 1353 131.762 1307.66 276.115
284 0 106.117 13.2023 1401 132.363 1307.83 276.948
285 0 110.4 14.3931 1589 122.785 1307.38 277.462
286 0 114.183 13.7586 1571 126.845 1307.68 278.479
287 0 119.249 13.803 1646 128.501 1307.4 279.495
288 0 123.418 13.7338 1695 124.514 1307.59 279.187
289 0 126.436 13.5562 1714 132.806 1307.61 281.74
290 0 129.247 13.3698 1728 127.466 1306.37 284.604
291 0 135.349 13.2694 1796 135.078 1307.19 286.55
292 0 130.299 11.4659 1494 102.584 1306.06 422.661
293 1 168.046 8.72974 1467 104.429 1304.89 418.611
294 0 189.306 8.40968 1592 96.7387 1306.08 410.541
295 0 177.092 8.5323 1511 102.285 1305.18 421.462
296 0 181.954 8.69451 1582 103.233 1305.42 423.52
297 0 178.561 8.51248 1520 113.32 1305.03 431.706
298 0 182.85 9.48865 1735 105.56 1304.23 427.489
299 0 178.794 9.69829 1734 109.082 1304.62 427.43
300 0 173.109 11.0797 1918 108.738 1304.99 419.095
301 0 182.338 9.57563 1746 113.047 1304.89 429.092
302 0 180.636 9.87067 1783 117.05 1304.89 430.092
303 0 174.378 11.3661 1982 110.639 1305.36 422.553
304 0 169.512 11.9992 2034 112.678 1304.72 422.476
305 1 53.0203 11.3164 600 134.268 1304.12 463.502
306 0 56.028 12.0475 675 130.015 1303.88 462.956
307 0 57.0796 12.5614 717 129.131 1305.73 461.678
308 0 59.0799 12.4746 737 129.484 1305.24 461.024
309 0 60.0519 12.5558 754 133.272 1305.29 460.256
310 0 61.0777 12.7379 778 138.929 1305.09 460.231
311 0 62.1058 12.994 807 131.724 1304.53 459.921
312 0 64.0763 12.61 808 134.209 1304.23 459.415
313 0 65.1057 13.2246 861 131.785 1304.4 457.387
314 0 67.0312 12.9492 868 136.669 1304.23 457.654
315 0 70.0282 13.0947 917 129.371 1303.7 455.457
316 0 73.102 13.4196 981 124.441 1303.31 454.345
317 0 75.0708 12.8412 964 137.878 1303.38 453.246
318 0 77.2924 13.3648 1033 135.573 1304.12 452.064
319 0 80.1333 13.4276 1076 73.0455 1303.5 450.954
320 0 83.1715 13.0694 1087 138.772 1303.85 449.583
321 0 85.4385 13.5419 1157 128.845 1303.49 450.69
322 0 87.2646 13.5794 1185 129.351 1303.64 449.019
323 0 91.1459 13.3522 1217 136.422 1303.68 447.203
324 0 93.1714 13.5986 1267 136.213 1303.19 444.723
325 0 96.2663 13.9301 1341 145.691 1303.43 442.365
326 0 99.2277 13.3934 1329 148.342 1303.35 442.131
327 0 102.267 13.4941 1380 141.199 1303.62 441.241
328 0 106.276 13.4932 1434 151.828 1303.31 438.78
329 1 57.0948 11.6473 665 150.123 1303.45 463.427
330 0 57.0587 12.1454 693 143.462 1303.25 463.248
331 0 60.034 12.2264 734 144.774 1303.18 462.223
332 0 61.0584 12.4143 758 137.686 1302.97 461
333 0 64.0837 12.3432 791 142.343 1303.04 461.144
334 0 66.2143 11.9159 789 144.435 1303.36 459.97
335 0 67.0386 12.2019 818 147.423 1303.65 459.763
336 0 69.1894 11.9816 829 146.036 1303.48 458.79
337 0 70.1339 12.0912 848 147.178 1303.95 458.147
338 0 72.0558 12.2127 880 147.101 1303.76 458.334
339 0 74.0691 12.2588 908 151.996 1304.28 457.742
340 0 78.0949 12.7921 999 151.665 1303.94 454.977
341 0 77.0516 13.0562 1006 152.49 1303.55 455.155
342 0 82.1516 13.0856 1075 149.18 1303.73 453.328
343 0 84.1317 12.9915 1093 145.66 1304.43 452.797
344 0 87.0914 12.6075 1098 151.678 1303.02 450.974
345 0 91.0955 12.701 1157 153.067 1302.67 450.408
346 0 93.1266 13.0145 1212 146.918 1303.11 447.311
347 0 96.1662 13.0815 1258 149.806 1302.82 445.321
348 0 100.224 12.941 1297 153.174 1303.29 444.712
349 1 56.1359 11.4365 642 148.516 1302.97 466.438
350 0 59.0966 11.8281 699 150.356 1303.55 465.488
351 0 58.0803 12.6893 737 152.82 1302.86 464.78
352 0 59.1473 12.5281 741 139.383 1302.52 465.02
353 0 61.1208 12.2708 750 144.173 1302.46 464.852
354 0 63.079 12.3337 778 152.518 1302.1 462.981
355 0 65.111 11.9335 777 147.08 1302.38 461.99
356 0 68.1362 12.5484 855 148.551 1302.09 461.281
357 0 71.2562 12.2235 871 151.535 1302.23 460.325
358 0 71.1403 12.5386 892 147.593 1302.34 459.083
359 0 73.1817 12.7218 931 147.969 1302.44 457.905
360 0 75.1105 12.6747 952 149.485 1302.93 457.9
361 0 80.2361 12.4258 997 145.495 1302.65 455.299
362 0 83.195 12.5368 1043 152.958 1302.66 454.694
363 0 83.18 13.1282 1092 149.649 1302.75 452.386
364 0 87.2571 12.8242 1119 151.292 1302.92 451.946
365 0 90.2224 12.9015 1164 144.166 1302.7 449.571
366 0 93.3425 12.7595 1191 141.911 1302.28 448.016
367 0 97.1311 12.9927 1262 146.881 1303.01 446.626
368 0 100.315 12.9791 1302 142.972 1302.92 444.181
369 1 53.0644 11.3635 603 149.502 1303.9 468.144
370 0 56.0254 11.5483 647 143.621 1303.64 467.134
371 0 57.1514 11.9507 683 150.625 1303.43 467.227
372 0 58.1059 12.3223 716 147.307 1304.27 465.848
373 0 59.0889 12.5743 743 151.871 1304.66 465.106
374 0 62.1428 12.8897 801 147.332 1305.09 464.763
375 0 63.0941 12.6795 800 150.711 1305.28 462.781
376 0 65.033 12.7013 826 143.438 1305.25 461.516
377 0 67.227 12.9412 870 143.926 1304.64 460.61
378 0 69.0857 12.3904 856 149.239 1304.37 460.715
379 0 69.1886 12.9212 894 150.589 1303.99 460.256
380 0 71.1112 13.0922 931 145.479 1303.66 459.795
381 0 73.2878 13.4674 987 153.104 1303.92 457.654
382 0 76.4709 13.0899 1001 156.082 1304.37 455.945
383 0 77.5546 13.3841 1038 150.868 1304.52 453.963
384 0 82.4869 13.1778 1087 153.004 1304.54 452.207
385 0 83.3626 13.2194 1102 156.706 1304.43 451.412
386 0 86.4082 13.3668 1155 150.026 1304.41 450.329
387 0 88.3818 13.6906 1210 150.901 1304.49 447.7
388 0 92.2914 13.2298 1221 152.324 1304.2 446.455
389 1 46.1258 11.8155 545 155.459 1304.54 467.376
390 0 46.0629 12.1573 560 149.43 1305.41 465.396
391 0 49.1684 12.447 612 156.482 1304.26 467.446
392 0 48.1346 13.1714 634 157.647 1304.94 467.645
393 0 53.2427 12.4524 663 150.772 1305.04 466.649
394 0 53.1863 12.5784 669 151.898 1305.34 466.523
395 0 55.1555 12.8546 709 151.295 1305.15 466.109
396 0 57.1451 12.862 735 151.524 1305.51 465.129
397 0 59.1543 13.2366 783 158.075 1305.19 463.241
398 0 60.0734 13.1006 787 154.224 1304.63 463.426
399 0 62.1473 13.2588 824 153.353 1304.64 462.83
400 0 64.0749 13.1253 841 156.527 1304.41 462.124
401 0 65.0893 13.566 883 146.638 1304.89 461.627
402 0 66.2036 13.4434 890 160.574 1304.37 459.822
403 0 71.2512 13.291 947 157.326 1304.85 458.838
404 0 73.3031 13.4919 989 154.669 1304.58 456.281
405 0 75.2138 13.4018 1008 155.895 1303.85 456.334
406 0 77.3486 13.381 1035 159.959 1303.51 456.025
407 0 78.2589 13.3531 1045 156.32 1303.46 453.086
408 0 82.0957 12.9361 1062 161.258 1303.56 451.824
409 0 84.1915 13.2674 1117 154.21 1303.96 450.453
410 0 88.1094 13.4832 1188 156.457 1303.67 449.267
411 0 90.3687 13.2015 1193 152.203 1303.49 447.592
412 0 92.4876 13.072 1209 155.989 1303.08 446.527
413 0 51.1759 11.6266 595 153.472 1303.29 466.766
414 0 53.3298 11.5883 618 149.819 1303.06 466.856
415 0 54.1858 11.6636 632 148.011 1303.28 466.055
416 0 55.1988 12.2648 677 147.612 1303.41 464.545
417 0 57.1895 11.9952 686 144.577 1303.06 465.14
418 0 58.1429 12.1425 706 148.71 1303.42 463.616
419 0 58.201 12.3709 720 148.899 1303.82 463.346
420 0 63.2041 12.0878 764 147.86 1303.68 462.127
421 0 64.1691 12.7164 816 149.665 1303.82 461.072
422 0 66.1733 12.4824 826 145.404 1303.82 461.082
423 0 69.1587 12.4207 859 143.971 1303.49 460.555
424 0 70.1839 12.51 878 153.352 1303.47 458.816
425 0 72.1585 12.5003 902 148.591 1303.73 457.353
426 0 75.0834 12.626 948 144.726 1303.8 455.724
427 0 78.167 12.6012 985 152.276 1303.58 454.327
428 0 79.2605 12.869 1020 151.888 1304.09 454.041
429 0 82.1314 12.4191 1020 154.184 1302.86 453.456
430 0 85.2053 12.5227 1067 152.064 1303.27 451.976
431 0 87.2467 12.6308 1102 160.338 1303.14 451.134
432 0 89.163 13.1781 1175 154.04 1302.83 449.737
433 0 93.461 13.0857 1223 155.998 1302.73 447.759
434 0 98.2497 12.8245 1260 157.285 1302.27 445.968
435 0 99.3617 13.3351 1325 150.648 1302.5 444.052
436 0 104.235 13.0283 1358 151.895 1302.79 442.738
437 0 107.374 12.8895 1384 159.137 1302.25 441.222
438 0 111.315 13.0261 1450 150.317 1303.03 439.437
439 1 56.029 11.5833 649 154.472 1303.71 467.305
440 0 56.1436 12.3968 696 152.451 1301.25 466.826
441 0 60.0518 12.2561 736 146.529 1300.81 465.042
442 0 60.1164 12.5922 757 154.631 1300.77 464.137
443 0 62.202 12.7809 795 158.758 1301.25 463.821
444 0 64.1201 12.8041 821 155.75 1302.1 463.799
445 0 66.138 12.8519 850 152.465 1302.27 462.731
446 0 66.165 13.0432 863 163.094 1302.12 462.824
447 0 70.1186 12.8924 904 161.786 1301.92 460.836
448 0 72.1791 13.0232 940 158.956 1301.88 459.994
449 0 72.294 13.5419 979 162.731 1301.52 458.376
450 0 77.1719 13.4894 1041 159.587 1301.58 456.565
451 0 76.1313 13.7131 1044 164.247 1301.83 456.34
452 0 81.0989 13.2184 1072 159.008 1301.44 454.368
453 0 84.2561 13.008 1096 164.723 1301.19 452.956
454 0 87.1547 13.39 1167 163.652 1301.16 452.229
455 0 92.1913 12.9839 1197 159.759 1301.03 451.466
456 0 92.2514 13.474 1243 159.011 1301.2 449.942
457 0 96.1739 13.2676 1276 161.761 1301.37 448.326
458 0 100.392 12.8397 1289 156.704 1301.84 447.567
459 0 102.564 12.87 1320 162.179 1301.95 445.117
460 0 106.165 12.8856 1368 155.335 1301.28 443.359
461 0 107.286 13.4686 1445 160.554 1301.74 440.591
462 0 111.43 13.3806 1491 158.278 1302.53 441.408
463 0 113.414 13.4022 1520 166.828 1302.64 439.786
464 0 118.653 13.3078 1579 157.377 1302.26 439.113
465 1 59.1603 12.407 734 155.211 1302.62 465.982
466 0 62.1922 12.188 758 151.174 1302.71 465.199
467 0 61.249 12.6696 776 160.512 1302.03 464.9
468 0 65.4057 12.5524 821 159.759 1302.19 462.694
469 0 65.2354 13.183 860 156.5 1302.52 461.38
470 0 69.2404 12.926 895 157.321 1302.35 460.142
471 0 69.4672 12.8982 896 160.009 1302.77 459.512
472 0 71.3027 12.9308 922 161.905 1303.16 457.174
473 0 76.556 12.8533 984 159.698 1302.64 456.201
474 0 79.4668 12.7097 1010 158.196 1303.02 453.473
475 0 82.3357 12.7041 1046 159.888 1303.61 451.843
476 0 86.4243 12.832 1109 161.656 1303.5 450.682
477 0 87.4322 12.7756 1117 158.852 1303.94 448.501
478 0 92.4125 12.3252 1139 156.205 1302.68 445.917
479 1 48.1345 11.6548 561 158.681 1302.54 466.508
480 0 50.1577 11.085 556 147.658 1303.44 463.275
481 0 52.2996 12.1033 633 144.921 1304.48 466.058
482 0 54.1051 11.9397 646 150.562 1304.25 465.505
483 0 56.2384 12.1981 686 150.49 1304.35 463.879
484 0 56.1355 12.4164 697 140.146 1304.45 463.686
485 0 57.1642 12.7527 729 144.885 1304.25 462.421
486 0 59.1504 12.2738 726 144.106 1305.32 462.949
487 0 59.2073 12.8531 761 143.06 1305.3 462.229
488 0 64.3871 12.5646 809 143.728 1305.08 460.295
489 0 64.2122 12.4587 800 142.718 1305.22 460.635
490 0 67.1884 12.7403 856 139.822 1305.11 458.49
491 0 69.2193 12.8432 889 135.962 1304.99 457.586
492 0 71.3829 12.1598 868 147.198 1305.72 457.719
493 0 72.3219 12.4444 900 148.682 1306.05 455.591
494 0 75.1834 12.5427 943 141.014 1305.97 454.456
495 0 78.1852 12.5983 985 145.642 1305.95 453.536
496 0 80.1388 12.7778 1024 143.363 1306.45 451.251
497 0 85.248 12.7862 1090 149.03 1306.05 449.123
498 0 86.4607 12.5953 1089 148.483 1307.09 448.608
499 0 91.2085 12.751 1163 145.765 1307.35 447.263
500 1 49.0488 11.2337 551 148.056 1305.99 467.82
501 0 49.0488 11.2337 551 165.058 1304.99 467.82
502 0 53.3339 11.7749 628 143.352 1305.31 465.975
503 0 53.2101 12.0278 640 137.345 1305.49 464.878
504 0 54.1804 12.3292 668 146.81 1305.33 464.075
505 0 55.1857 12.9744 716 141.71 1305.54 462.809
506 0 61.2718 12.3548 757 140.579 1305.52 462.659
507 0 61.1872 12.3392 755 135.793 1306.24 461.057
508 0 63.2083 12.261 775 140.453 1306.08 459.773
509 0 64.1454 12.612 809 135.265 1306.44 458.178
510 0 66.1363 12.5952 833 135.665 1306.42 458.902
511 0 68.1222 12.6537 862 134.198 1304.61 457.442
512 0 70.2242 12.5598 882 134.296 1305.76 456.986
513 0 73.1163 12.1724 890 134.817 1305.68 456.549
514 0 75.2656 12.8213 965 134.411 1305.7 454.41
515 0 77.1707 12.9194 997 131.556 1305.79 453.274
516 0 77.1368 13.0677 1008 127.018 1305.96 451.076
517 0 81.222 12.7429 1035 133.439 1305.58 451.849
518 0 83.1494 13.0247 1083 131.935 1305.67 450.557
519 0 85.2999 12.7198 1085 132.947 1305.39 448.292
520 0 89.1775 12.5032 1115 134.373 1304.82 446.747
521 0 93.2339 12.5598 1171 134.658 1304.42 444.977
522 0 94.1483 13.0539 1229 130.921 1304.57 443.461
523 0 99.2317 12.7278 1263 132.685 1304.44 441.795
524 0 102.23 12.5892 1287 134.112 1304.28 440.226
525 0 104.266 12.7559 1330 130.041 1304.22 437.436
526 0 106.197 13.0136 1382 135.273 1303.86 436.481
527 0 110.1 12.1617 1339 140.753 1303.34 436.761
528 1 54.2641 12.218 663 139.64 1302.08 462.561
529 0 56.0923 12.8538 721 134.365 1303.23 460.566
530 0 56.0294 12.7433 714 137.41 1304.02 458.304
531 0 60.0503 12.2897 738 131.215 1304.07 457.447
532 0 62.0885 13.3197 827 132.752 1304.08 461.022
533 0 64.0911 12.9503 830 138.254 1304.46 459.551
534 0 66.0981 13.2379 875 138.275 1303.87 458.44
535 0 69.0705 12.8709 889 135.647 1304.21 459.137
536 0 69.1042 12.908 892 143.966 1304.28 456.862
537 0 74.0545 13.436 995 136.469 1304.11 454.999
538 0 75.0934 13.2635 996 136.101 1304.02 453.515
539 0 79.0854 13.2768 1050 139.893 1304.23 453.377
540 0 82.1256 13.3819 1099 136.508 1304.63 451.855
541 0 85.1103 13.1829 1122 137.155 1304.49 450.211
542 0 89.1166 13.3533 1190 129.521 1304.4 446.983
543 0 92.2065 13.5782 1252 124.163 1303.98 446.611
544 0 95.2934 13.4427 1281 134.824 1303.67 446.189
545 1 50.0891 12.2382 613 131.956 1302.74 468.062
546 0 52.2963 12.2571 641 133.151 1303.48 466.443
547 0 50.2883 12.6471 636 129.876 1302.93 466.975
548 0 54.3502 12.1619 661 129.567 1303.82 465.672
549 0 55.1218 12.9168 712 125.174 1303.03 464.838
550 0 56.2336 12.5548 706 129.115 1302.41 463.778
551 0 59.2525 12.3033 729 129.325 1302.85 464.321
552 0 61.3278 12.7022 779 125.103 1302.76 462.142
553 0 61.1491 12.5595 768 130.122 1302.53 461.734
554 0 63.1327 13.3687 844 125.584 1302.95 460.495
555 0 65.1692 12.8895 840 126.252 1303.71 460.439
556 0 67.1403 12.9877 872 130.83 1302.54 459.329
557 0 67.1092 13.3067 893 124.936 1301.58 457.348
558 0 71.0804 13.1682 936 127.672 1302.36 456.178
559 0 73.1086 12.7618 933 126.793 1302.1 455.558
560 0 77.1773 13.0997 1011 124.661 1302.53 454.431
561 0 79.1776 12.794 1013 125.938 1302.43 454.502
562 0 80.1246 13.2419 1061 129.934 1302.05 452.83
563 0 85.2708 12.818 1093 127.855 1301.74 451.696
564 0 87.4409 12.7057 1111 126.753 1301.85 449.476
565 0 91.2973 12.9358 1181 125.389 1301.82 448.587
566 1 48.0876 11.7702 566 133.495 1302.19 468.161
567 0 49.118 11.8083 580 125.812 1301.9 467.966
568 0 52.2445 12.3267 644 120.488 1300.99 465.422
569 0 55.2592 12.1609 672 126.905 1301.17 465.1
570 0 56.0645 12.4678 699 120.644 1302.68 465.315
571 0 59.119 12.4664 737 125.582 1303.17 464.459
572 0 60.1415 12.6202 759 128 1303.12 463.888
573 0 60.0372 12.9586 778 123.739 1303.22 463.289
574 0 63.144 12.3844 782 124.766 1301.83 463.174
575 0 63.1435 12.7962 808 116.196 1302.16 462.729
576 0 67.1858 11.9073 800 116.35 1302.15 461.775
577 0 69.2199 12.6553 876 119.611 1302.38 459.606
578 0 71.1086 11.9536 850 123.135 1302.03 459.681
579 0 72.2228 12.4891 902 121.315 1302 457.519
580 0 77.1111 12.5793 970 108.123 1301.99 456.639
581 0 79.2137 12.4978 990 113.168 1302.16 454.602
582 0 82.0897 12.4132 1019 113.891 1301.95 454.058
583 0 85.1066 12.9485 1102 116.545 1301.77 452.122
584 0 87.1362 12.7502 1111 112.555 1301.91 450.331
585 0 91.1891 12.5563 1145 117.327 1301.82 448.849
586 0 94.0822 12.808 1205 111.724 1301.9 447.39
587 1 46.0471 11.8791 547 116.885 1302.91 469.751
588 0 49.0576 11.619 570 116.853 1304.21 468.019
589 0 52.1149 11.6857 609 116.236 1304.29 467.251
590 0 52.0527 12.7563 664 114.843 1304.59 466.55
591 0 55.1145 12.6827 699 115.112 1304.12 464.951
592 0 58.1006 12.2718 713 110.393 1303.98 464.443
593 0 57.1947 13.183 754 112.306 1304.05 463.997
594 0 60.1671 12.7811 769 107.316 1303.5 462.342
595 0 60.0934 13.0297 783 119.315 1303.63 462.139
596 0 64.2287 12.9537 832 108.642 1303.32 460.397
597 0 66.1304 12.7929 846 115.35 1303.6 459.992
598 0 68.2288 13.572 926 116.075 1303.63 457.908
599 0 70.3571 13.133 924 107.422 1303.44 457.003
600 0 74.2763 13.019 967 116.496 1303.42 455.86
601 0 73.3691 13.5207 992 119.622 1303.54 454.986
602 0 76.2629 13.7682 1050 114.504 1303.67 454.06
603 0 79.3974 13.149 1044 119.539 1303.95 452.214
604 0 80.3472 14.0142 1126 118.295 1303.7 450.479
605 0 84.2572 13.6606 1151 120.127 1304.61 449.476
606 0 86.4309 13.2244 1143 124.85 1304.57 448.903
607 0 88.3166 13.6215 1203 123.574 1304.37 447.426
608 0 91.4261 13.2457 1211 143.998 1304.41 446.408
609 1 49.2113 12.741 627 139.818 1303.99 467.129
610 0 49.2204 12.7996 630 141.981 1304.53 468.39
611 0 49.1103 13.1541 646 143.486 1304.55 466.584
612 0 51.1632 13.1931 675 147.039 1304.23 466.36
613 0 54.2121 13.1705 714 144.721 1304.68 465.671
614 0 54.155 13.092 709 149.585 1304.99 463.151
615 0 56.3012 13.41 755 145.707 1304.19 463.372
616 0 58.0971 12.9955 755 152.298 1305.21 462.856
617 0 58.4432 13.5345 791 144.506 1305.59 461.266
618 0 62.2741 13.2158 823 146.797 1306.07 460.186
619 0 63.1565 13.1736 832 149.31 1305.84 460.182
620 0 62.123 13.9079 864 151.416 1305.61 460.105
621 0 66.2448 13.4803 893 154.607 1305.18 459.581
622 0 68.2166 13.2666 905 150.06 1304.6 458.055
623 0 69.2398 13.9082 963 152.584 1305.51 457.034
624 0 72.3386 13.7133 992 156.205 1305.43 455.381
625 0 74.2582 13.5877 1009 151.027 1305.47 455.097
626 0 77.2777 13.6262 1053 156.665 1305.3 452.4
627 0 79.1622 13.4408 1064 160.914 1305.52 452.273
628 0 80.1436 13.7004 1098 160.172 1305.1 451.53
629 0 84.3772 13.5582 1144 156.764 1305.59 448.705
630 0 86.2786 13.6419 1177 158.54 1305.18 446.293
631 0 90.3095 13.8191 1248 157.179 1305.02 445.712
632 0 92.2506 13.6584 1260 155.42 1305.31 444.483
633 0 94.2688 14.1298 1332 151.341 1304.84 442.654
634 1 49.0492 12.62 619 157.267 1304.14 464.976
635 0 51.0774 13.039 666 154.434 1304.6 463.536
636 0 52.101 13.6658 712 153.59 1304.05 464.091
637 0 56.1974 13.1501 739 143.775 1304.16 462.148
638 0 58.3002 12.9502 755 147.009 1303.84 461.78
639 0 58.3962 13.6139 795 149.323 1303.76 461.873
640 0 60.2132 13.2197 796 146.466 1303.29 460.113
641 0 63.2414 13.6303 862 149.821 1302.75 458.747
642 0 67.1858 13.5148 908 146.789 1302.96 458.559
643 0 68.3902 13.2329 905 152.759 1302.86 457.999
644 0 70.096 13.6527 957 145.158 1303.59 456.496
645 0 72.1297 13.656 985 148.616 1303.65 455.588
646 0 76.2104 13.4627 1026 151.665 1303.74 455.409
647 0 77.192 14.1984 1096 143.003 1303.75 452.731
648 0 81.3565 13.9509 1135 148.933 1303.86 451.09
649 0 84.3286 13.8269 1166 141.437 1303.5 450.575
650 0 86.3296 13.6917 1182 144.774 1302.91 449.042
651 0 87.4806 13.9459 1220 144.801 1303.02 449.123
652 0 91.4413 13.8996 1271 141.507 1302.75 447.291
653 0 96.2312 13.7585 1324 148.597 1302.16 445.595
654 0 98.3118 14.1082 1387 141.337 1302.48 443.697
655 1 50.1972 12.3314 619 148.191 1302.63 467.194
656 0 51.1172 13.0289 666 140.071 1302.77 467.272
657 0 52.0519 13.4673 701 141.84 1303.8 466.218
658 0 52.0523 13.4288 699 140.876 1303.03 467.069
659 0 56.1025 12.9406 726 139.548 1302.96 465.89
660 0 56.1109 13.8832 779 136.471 1303.05 464.721
661 0 58.1087 13.4059 779 132.424 1302.53 463.824
662 0 62.1401 13.4535 836 134.206 1302.31 462.072
663 0 64.1276 13.7226 880 132.467 1302.63 461.189
664 0 65.0987 13.7791 897 134.475 1302.71 460.164
665 0 67.0975 13.2494 889 132.323 1302.04 459.735
666 0 70.1947 13.4626 945 128.786 1301.96 458.397
667 0 71.3041 13.9263 993 127.146 1301.58 456.892
668 0 75.1921 13.5254 1017 133.346 1301.81 454.922
669 0 78.1709 13.7903 1078 128.511 1302.72 454.507
670 0 79.1756 14.1331 1119 129.564 1303 453.313
671 0 82.4061 13.7854 1136 136.132 1302.3 451.467
672 0 85.1812 13.348 1137 137.846 1302.63 451.334
673 0 87.3795 13.5844 1187 134.024 1302.2 449.881
674 0 91.3616 13.8242 1263 137.199 1302.19 448.181
675 0 94.3325 13.5584 1279 135.378 1302.74 446.392
676 0 97.4011 13.3058 1296 135.684 1302.98 445.478
677 0 99.2676 13.3981 1330 135.635 1302.71 444.259
678 0 104.306 13.47 1405 133.818 1302.3 442.74
679 1 56.0929 12.8715 722 135.425 1304.31 465.881
680 0 56.1936 13.2577 745 127.172 1303.59 466.816
681 0 58.1003 12.7882 743 135.264 1303.32 466.004
682 0 61.1796 12.9292 791 130.056 1303.57 464.421
683 0 64.2001 13.1776 846 130.331 1303.05 464.16
684 0 65.2066 13.1735 859 125.806 1303.13 462.637
685 0 68.2798 12.976 886 131.038 1303.44 460.885
686 0 70.0791 12.8141 898 131.931 1303.42 460.067
687 0 74.1962 12.8848 956 130.676 1303.28 458.952
688 0 77.1658 13.1276 1013 127.278 1302.68 456.847
689 0 79.1777 13.3245 1055 125.237 1302.06 455.577
690 0 83.1606 12.9027 1073 125.287 1302.12 454.425
691 0 85.1952 12.9115 1100 128.631 1302.29 452.875
692 0 87.1498 13.058 1138 128.037 1302.07 451.398
693 1 46.0382 12.0335 554 118.002 1302.13 472.542
694 0 48.1317 12.071 581 121.713 1300.61 472.22
695 0 47.2069 12.3711 584 119.01 1301.18 471.967
696 0 50.0928 12.2373 613 115.155 1300.87 471.648
697 0 52.0402 12.7017 661 114.11 1301.02 470.464
698 0 54.0933 12.8297 694 116.461 1300.45 469.357
699 0 55.1107 12.5565 692 111.058 1300.94 469.327
700 0 55.154 12.4016 684 115.431 1301.52 468.692
701 0 57.1072 12.5028 714 111.542 1301.17 468.385
702 0 59.1322 12.3452 730 113.419 1301.09 467.448
703 0 59.1655 13.2172 782 109.423 1300.83 466.673
704 0 63.0831 12.4756 787 114.449 1300.47 466.14
705 0 65.1048 12.9944 846 106.706 1300.77 464.082
706 0 67.082 12.7009 852 111.534 1300.91 463.635
707 0 67.1508 13.2091 887 110.621 1300.94 463.134
708 0 70.2367 12.586 884 110.117 1300.8 461.895
709 0 73.2753 13.0057 953 107.357 1300.41 460.262
710 0 75.2186 12.4969 940 107.176 1300.65 460.126
711 0 75.3504 13.0324 982 106.912 1300.79 458.15
712 0 78.4833 12.6396 992 102.934 1301.09 457.221
713 1 40.2367 10.9104 439 100.335 1301.4 476.312
714 0 41.2365 11.1309 459 101.181 1300.81 475.512
715 0 42.289 11.7525 497 96.7907 1300.87 475.928
716 0 43.2345 12.3744 535 101.841 1301.94 475.006
717 0 45.1572 12.3568 558 104.03 1301.03 475.26
718 0 47.1924 12.1418 573 101.037 1300.87 473.461
719 0 49.2333 12.0447 593 96.0202 1300.88 474.223
720 0 49.159 12.0019 590 99.339 1300.79 472.61
721 0 52.134 12.2761 640 98.8469 1300.6 471.831
722 0 52.1725 12.4778 651 96.5392 1301.18 471.416
723 0 54.1265 12.2121 661 95.8926 1301.08 471.778
724 0 55.2361 12.6005 696 95.0704 1300.43 469.901
725 0 55.2229 13.201 729 93.1866 1301.53 469.636
726 0 57.195 13.1655 753 93.5724 1300.88 468.315
727 0 59.1667 13.3183 788 90.6954 1301.41 467.147
728 0 62.1263 12.9736 806 90.6973 1301.42 466.086
729 0 65.2396 12.615 823 94.1531 1301.98 465.48
730 0 67.218 12.3925 833 91.7431 1302.67 464.108
731 0 70.1259 12.9339 907 91.2558 1302.18 462.291
732 0 73.1882 12.9939 951 88.2723 1302.2 461.182
733 1 36.0098 11.1636 402 91.7612 1303.73 477.863
734 0 38.1268 11.7503 448 94.9598 1303.27 477.283
735 0 38.0496 12.0632 459 93.3072 1303.49 476.741
736 0 39.1289 12.1649 476 99.9937 1303.74 475.603
737 0 41.1505 12.5393 516 96.6919 1303.2 474.599
738 0 45.0906 11.8872 536 99.5317 1303.86 473.924
739 0 45.0797 12.6886 572 96.9301 1303.94 472.783
740 0 48.0801 12.5624 604 95.6838 1303.24 470.682
741 0 48.1669 12.602 607 99.799 1303.89 469.914
742 0 51.1817 12.6022 645 95.6899 1302.84 469.276
743 0 51.1055 12.5818 643 101.907 1303.57 468.516
744 0 53.3045 12.907 688 96.5523 1303.8 468.234
745 0 52.1205 13.3729 697 97.1291 1303.91 467.281
746 0 55.3336 12.9036 714 95.2997 1303.88 465.514
747 0 57.2977 12.9848 744 101.473 1303.38 464.638
748 0 59.1976 13.362 791 100.147 1303.45 463.415
749 0 62.3654 12.9559 808 96.8218 1304.09 462.863
750 0 63.1938 13.1025 828 98.622 1304.55 462.425
751 0 65.2353 13.1064 855 99.9485 1304.97 460.827
752 0 68.5044 12.8605 881 102.65 1305.05 459.974
753 0 72.3206 13.1913 954 100.435 1305.21 458.768
754 0 72.2355 13.6221 984 100.138 1304.89 457.633
755 0 75.4954 13.1266 991 98.3663 1305.24 455.517
756 1 41.171 12.9946 535 97.7234 1305 471.878
757 0 41.2268 12.6132 520 101.815 1304.92 473.258
758 0 43.276 12.5012 541 96.8207 1305.69 471.492
759 0 44.2071 12.6224 558 99.4892 1304.7 469.796
760 0 46.0717 12.8061 590 102.261 1304.65 468.764
761 0 47.3836 12.9792 615 99.1659 1304.74 469.128
762 0 48.2364 13.1643 635 99.6945 1304.6 468.386
763 0 50.0892 13.1166 657 97.9878 1304.85 466.769
764 0 51.4975 13.0686 673 98.8648 1304.84 466.629
765 0 53.4012 13.3705 714 96.9902 1305.46 466.151
766 0 53.1863 13.951 742 98.783 1304.82 462.105
767 0 56.4106 13.4726 760 97.4434 1305.24 461.095
768 0 58.4346 13.6221 796 93.7802 1304.84 460.345
769 0 60.6755 13.5145 820 97.2951 1305.48 459.287
770 0 62.6563 14.0768 882 95.1088 1305.37 457.1
771 0 67.6717 13.6689 925 96.1405 1305.3 456.423
772 0 68.5887 13.734 942 91.241 1305.57 456.234
773 0 70.8117 13.9666 989 95.5248 1305.11 453.379
774 0 73.707 13.5265 997 93.9508 1304.87 453.595
775 0 76.437 13.6191 1041 100.711 1305.55 453.533
776 0 82.619 13.2536 1095 61.8448 1304.85 450.773
777 1 40.5873 13.4278 545 102.631 1304.87 467.123
778 0 43.3922 13.2051 573 101.342 1304.51 466.314
779 0 44.3844 13.5859 603 99.6434 1303.86 466.017
780 0 46.4176 13.4001 622 104.029 1303.86 465.328
781 0 47.1188 13.4978 636 104.267 1303.4 463.686
782 0 48.4842 14.1489 686 103.111 1303.6 462.714
783 0 51.5273 13.6627 704 100.784 1302.91 462.645
784 0 52.4721 13.6263 715 105.564 1303.6 461.347
785 0 53.3653 14.0541 750 101.156 1303.63 461.845
786 0 55.3984 13.8091 765 106.603 1302.76 461.756
787 0 56.4517 13.6577 771 105.006 1302.32 459.624
788 0 0 0 0 -nan -nan -nan
789 0 59.4339 14.0997 838 102.832 1302.32 458.106
790 0 63.4447 14.2802 906 98.8366 1302.14 457.779
791 0 63.3655 14.1875 899 98.5072 1302.49 456.765
792 0 68.6644 13.7772 946 101.316 1302.91 456.44
793 0 69.5432 14.1063 981 100.652 1303.01 455.758
794 0 72.4335 13.8058 1000 103.86 1303.05 454.788
795 0 76.437 13.5929 1039 104.906 1303.55 453.93
796 0 78.7884 13.8726 1093 102.342 1303.08 451.574
797 0 80.6846 13.844 1117 102.068 1303.44 449.778
798 0 84.501 14.0708 1189 101.759 1303.96 449.485
799 0 85.518 13.845 1184 99.3649 1303.98 449.535
800 0 91.3511 13.6835 1250 102.08 1304.01 445.966
801 0 93.6706 13.8464 1297 105.466 1304.55 443.907
802 0 95.541 13.9521 1333 98.7712 1305.19 442.482
803 1 49.1872 13.2961 654 101.674 1304.28 463.558
804 0 51.0442 12.6557 646 104.169 1305.16 462.921
805 0 53.1133 12.8028 680 104.057 1304.83 461.816
806 0 54.2957 13.2055 717 105.897 1304.62 459.77
807 0 55.0863 13.0341 718 107.864 1303.82 458.976
808 0 58.3526 12.9043 753 107.473 1304.52 457.469
809 0 59.1704 13.064 773 108.915 1304.55 456.01
810 0 62.1259 13.1024 814 108.715 1304.86 454.22
811 0 64.0923 12.9345 829 108.467 1304.39 453.946
812 0 65.1492 13.2772 865 110.946 1304.48 453.548
813 0 68.2731 13.0505 891 111.7 1304.53 451.6
814 0 70.1145 13.1784 924 109.295 1304.57 450.895
815 0 72.1593 13.4979 974 110.165 1304.62 448.027
816 0 75.1026 12.889 968 117.778 1304.55 446.872
817 0 78.1362 13.5661 1060 105.544 1304.4 446.671
818 0 83.0572 13.2319 1099 112.071 1304.05 445.063
819 0 83.1673 13.058 1086 114.765 1304.65 443.9
820 0 88.1896 13.1535 1160 114.8 1304.84 442.411
821 0 92.1815 13.3649 1232 114.117 1304.23 440.622
822 0 95.3766 13.5882 1296 122.285 1305.01 440.27
823 0 97.2189 14.3491 1395 122.194 1305.62 438.642
824 0 100.293 14.1187 1416 129.011 1305.52 438.006
825 0 104.179 13.5345 1410 134.155 1305.2 435.851
826 0 107.209 13.9541 1496 124.064 1306.57 434.973
827 0 112.243 13.4886 1514 131.986 1306.12 433.19
828 0 115.223 13.8253 1593 131.456 1306.11 431.782
829 0 120.278 13.8596 1667 130.989 1306.26 428.229
830 0 127.244 13.4701 1714 133.537 1306.93 426.788
831 1 67.1598 11.7481 789 125.877 1306.81 456.228
832 0 68.2203 11.8147 806 128.19 1306.54 455.572
833 0 70.1213 11.7511 824 127.121 1306.92 454.762
834 0 73.1599 11.9738 876 127.405 1306.78 453.517
835 0 76.1142 12.0871 920 127.276 1306.26 452.392
836 0 78.0959 12.267 958 128.841 1306.82 450.575
837 0 81.1418 11.7449 953 132.196 1307.16 450.102
838 0 85.0724 12.2249 1040 133.542 1306.4 449.003
839 0 85.0955 12.7504 1085 133.763 1306.79 446.821
840 0 88.1695 12.4193 1095 127.132 1307.45 445.977
841 0 92.0814 12.098 1114 130.742 1307.53 443.911
842 0 95.0768 11.517 1095 125.344 1307.08 442.939
843 0 97.1392 12.6725 1231 125.965 1307.28 439.779
844 0 100.131 11.7845 1180 129.93 1308.14 441.02
845 0 103.174 12.0864 1247 121.228 1307.94 439.577
846 0 105.193 12.4914 1314 125.861 1308.16 436.477
847 0 109.088 11.8436 1292 131.101 1307.96 436.303
848 0 114.259 12.0515 1377 130.406 1308.78 433.995
849 0 116.44 12.427 1447 128.838 1307.55 431.886
850 0 122.461 12.4366 1523 129.961 1307.68 430.085
851 0 125.386 11.3888 1428 129.226 1307.7 429.675
852 1 71.045 11.5279 819 130.021 1306.66 456.717
853 0 71.2143 11.7252 835 121.859 1307.48 454.899
854 0 74.0867 11.905 882 121.706 1307.51 453.644
855 0 77.2034 12.2663 947 121.225 1307.18 451.638
856 0 78.1734 12.2676 959 115.126 1306.95 451.672
857 0 82.1953 11.935 981 125.819 1306.92 451.44
858 0 85.2043 11.9595 1019 124.807 1306.92 448.983
859 0 87.128 12.189 1062 123.771 1306.46 446.483
860 0 88.1113 12.2345 1078 121.178 1306.42 445.51
861 0 93.2018 12.3603 1152 123.296 1305.81 444.377
862 0 95.3121 11.7928 1124 123.761 1305.84 444.34
863 0 99.1489 12.4964 1239 121.53 1305.65 441.608
864 0 102.185 12.9178 1320 118.852 1306.54 439.018
865 0 106.216 11.7497 1248 124.945 1307.37 437.425
866 0 110.268 12.3154 1358 127.191 1307.61 434.542
867 0 112.323 12.5976 1415 124.683 1306.9 434.781
868 1 64.0423 12.4605 798 120.797 1306.75 458.107
869 0 64.2236 12.6745 814 122.104 1306.93 458.241
870 0 68.1181 12.3462 841 121.801 1306.85 456.628
871 0 69.2412 12.8681 891 127.258 1306.11 454.809
872 0 71.2793 12.5562 895 114.907 1306.37 454.558
873 0 74.08 12.7835 947 115.811 1305.37 453.05
874 0 75.1359 12.5373 942 121.547 1305.25 452.714
875 0 76.2515 13.1801 1005 124.494 1305.43 450.849
876 0 79.1988 13.2073 1046 128.096 1306.2 450.746
877 0 82.1567 12.4762 1025 117.62 1304.68 448.954
878 0 82.185 13.1776 1083 123.626 1305.52 448.755
879 0 86.2411 12.8245 1106 129.913 1305.36 447.06
880 0 90.1754 12.8084 1155 124.019 1305.69 445.109
881 0 91.2122 13.0904 1194 126.289 1305.72 443.71
882 0 94.3855 13.0528 1232 127.328 1306.37 445.156
883 0 95.2323 13.3358 1270 126.211 1306.44 442.622
884 0 98.1631 13.6915 1344 124.453 1306.41 439.942
885 0 106.395 14.3991 1532 130.519 1306.13 436.86
886 0 106.24 13.2907 1412 125.826 1306.15 436.113
887 0 107.254 13.4074 1438 125.312 1306.43 434.756
888 0 113.186 13.5264 1531 135.035 1306.86 435.349
889 1 60.1355 12.2889 739 133.402 1305.61 460.812
890 0 62.0752 12.6782 787 129.614 1306.82 460.319
891 0 62.1554 12.7262 791 131.239 1308.11 460.81
892 0 66.0583 12.8977 852 128.178 1307.87 460.405
893 0 67.2002 13.1101 881 124.915 1308.15 458.689
894 0 70.1102 12.8797 903 124.92 1308.19 457.296
895 0 73.1245 12.8001 936 124.025 1308.06 456.135
896 0 76.1436 12.6472 963 124.382 1308.39 454.739
897 0 78.2666 13.0452 1021 118.294 1307.88 453.674
898 0 80.0956 13.1468 1053 117.791 1307.93 452
899 0 84.0669 12.6804 1066 124.847 1308.72 450.543
900 0 86.1735 12.8926 1111 118.898 1308.72 449.346
901 0 88.1458 13.1146 1156 116.163 1308.32 448.439
902 0 91.233 13.2079 1205 114.747 1308.41 447.472
903 0 95.0805 13.3992 1274 116.747 1308.18 445.14
904 0 95.0805 13.3992 1274 160.604 1308.18 445.14
905 0 101.11 13.3815 1353 115.219 1307.86 442.414
906 0 102.199 13.6106 1391 118.485 1307.81 440.776
907 0 105.061 13.3351 1401 122.853 1307.81 440.251
908 0 108.236 13.5537 1467 112.166 1307.63 437.147
909 0 109.158 14.108 1540 138.488 1307.79 435.481
910 0 117.233 13.2301 1551 125.28 1307.58 434.278
911 1 59.139 11.0587 654 128.188 1306.98 461.37
912 0 62.073 11.116 690 118.196 1307.07 460.18
913 0 65.1454 11.8504 772 119.446 1307.81 458.942
914 0 68.1005 12.3494 841 120.231 1307.21 457.193
915 0 67.0349 12.1877 817 117.618 1309.08 458.318
916 0 69.0839 12.5789 869 115.377 1308.52 456.761
917 0 71.0895 12.2944 874 117.711 1308.95 456.071
918 0 73.0538 12.1828 890 116.044 1308.92 455.716
919 0 76.0933 12.1036 921 114.725 1308.41 453.852
920 0 77.0727 12.4039 956 114.327 1308.09 451.888
921 0 82.2945 12.8441 1057 115.076 1307.47 449.555
922 0 83.1436 12.749 1060 106.736 1307.7 449.081
923 0 85.1645 12.4465 1060 119.108 1308.27 449.235
924 0 87.105 12.2381 1066 120.139 1308.66 448.657
925 0 92.332 12.7475 1177 117.264 1308.4 446.259
926 0 96.0793 12.6666 1217 121.979 1307.39 442.862
927 1 51.0257 10.1713 519 124.347 1307.17 464.929
928 0 52.0299 10.4171 542 119.448 1306.85 464.862
929 0 52.0602 10.9104 568 126.019 1307.95 464.505
930 0 53.0445 11.0473 586 126.846 1308.5 464.449
931 0 56.1468 11.3987 640 120.506 1309.4 463.153
932 0 59.1758 11.7109 693 124.159 1309.07 461.434
933 0 60.0585 12.1881 732 121.842 1309.34 460.529
934 0 61.122 12.3033 752 120.843 1308.9 459.888
935 0 64.2628 12.1843 783 122.073 1309.32 459.383
936 0 65.1216 13.1293 855 119.319 1308.74 458.6
937 0 70.0758 13.1001 918 117.537 1308.78 457.083
938 0 72.0953 13.5099 974 117.445 1309.07 457.16
939 0 73.1356 13.14 961 123.083 1309.66 454.758
940 0 76.2822 13.0437 995 117.111 1308.29 453.618
941 0 77.1341 12.9904 1002 123.012 1308.77 452.715
942 0 79.179 12.7938 1013 125.938 1308.89 451.408
943 0 83.1983 13.0532 1086 130.907 1309.37 450.577
944 0 83.243 13.1423 1094 123.521 1308.95 449.517
945 0 87.0733 13.1843 1148 128.71 1308.93 447.886
946 0 90.2114 12.9917 1172 130.706 1308.4 446.699
947 0 94.1823 13.3358 1256 122.473 1308.04 443.639
948 0 98.3043 13.3463 1312 130.309 1307.62 442.125
949 0 99.204 12.7414 1264 128.854 1307.89 441.692
950 1 55.1711 12.4341 686 128.949 1306.94 462.742
951 0 55.1354 12.6235 696 127.907 1307.41 462.226
952 0 56.2289 12.2713 690 124.733 1307.28 461.557
953 0 60.2739 12.3768 746 122.342 1309.59 461.351
954 0 59.1585 12.9652 767 116.048 1309.48 459.638
955 0 62.1768 12.9148 803 126.592 1309.14 458.73
956 0 65.237 12.3703 807 124.616 1309.06 458.736
957 0 66.155 12.894 853 121.812 1309.06 457.352
958 0 68.1279 12.9756 884 121 1309.29 456.566
959 0 71.3688 12.8488 917 124.01 1309.85 456.071
960 0 71.1974 12.9218 920 122.066 1309.76 455.289
961 0 76.2888 12.7542 973 118.219 1309.18 452.931
962 0 77.3451 12.7481 986 120.13 1309.37 451.948
963 0 81.3076 13.0615 1062 118.847 1309.47 449.951
964 1 41.2275 10.5755 436 122.115 1310.03 470.378
965 0 41.1679 10.9308 450 119.567 1309.99 469.118
966 0 44.2604 11.3646 503 120.213 1311.07 468.932
967 0 46.1896 11.4744 530 123.67 1309.59 468.868
968 0 46.1198 11.6219 536 126.405 1309.71 467.507
969 0 48.082 11.7508 565 121.664 1309.67 466.209
970 0 50.093 11.2591 564 123.571 1309.38 465.489
971 0 50.232 12.064 606 128.835 1310.27 465.467
972 0 53.1716 11.6039 617 121.248 1309.91 464.554
973 0 53.2446 11.9073 634 128.465 1311.08 462.834
974 0 56.2325 11.8437 666 127.923 1310.14 462.23
975 0 57.3084 11.9005 682 127.761 1312.88 462.85
976 0 58.211 12.0252 700 119.887 1310.97 462.026
977 0 59.1464 12.4944 739 126.852 1310.23 461.092
978 0 62.131 12.9082 802 125.161 1310.11 459.949
979 0 62.3141 13.0789 815 123.595 1309.38 457.833
980 0 64.309 12.6421 813 120.079 1308.88 457.153
981 0 68.1145 12.6698 863 128.253 1309.63 456.148
982 0 70.1402 12.532 879 126.556 1310.15 455.497
983 0 72.2012 12.3821 894 127.209 1310.46 455.594
984 0 75.1343 13.1365 987 121.783 1310.85 453.678
985 0 76.1231 13.3862 1019 123.694 1310.61 452.48
986 0 79.2543 13.1475 1042 127.952 1310 451.558
987 0 82.4448 12.8813 1062 125.739 1310.31 449.45
988 0 84.4045 13.3287 1125 125.62 1311.53 447.484
989 0 86.3135 12.9412 1117 123.071 1310.42 446.098
990 0 89.1735 13.0083 1160 124.015 1310.05 445.197
991 0 93.2881 13.0349 1216 126.044 1309.49 445.171
992 1 49.0823 10.2277 502 127.038 1308.66 466.153
993 0 50.0426 11.77 589 121.8 1309.81 465.267
994 0 53.0511 12.1958 647 123.311 1309.16 464.39
995 0 55.1081 11.8857 655 118.892 1313.65 465.647
996 0 54.0451 12.6191 682 122.094 1312.42 463.129
997 0 57.0532 11.8135 674 120.398 1312.8 463.999
998 0 57.0532 11.8135 674 160.737 1312.8 463.999
999 0 59.1332 12.3281 729 122.837 1312.16 462.582
1000 0 60.2336 12.3021 741 121.769 1312.04 459.996
1001 0 63.189 12.3756 782 117.742 1310.8 460.155
1002 0 65.0564 12.712 827 114.49 1310.51 457.975
1003 0 65.1071 13.1783 858 121.958 1310.34 457.227
1004 0 67.0601 12.6603 849 121.034 1311.18 457.214
1005 0 69.0935 13.5179 934 122.187 1310.34 454.544
1006 0 71.1897 13.2042 940 123.303 1309.53 454.192
1007 0 73.157 12.9311 946 123.521 1310.25 454.457
1008 0 77.0494 13.1604 1014 124.768 1310.09 453.878
1009 0 79.1466 13.355 1057 123.893 1312.37 452.167
1010 0 80.1616 13.3106 1067 117.093 1311.78 450.7
1011 0 84.1598 13.3437 1123 122.347 1312.13 448.826
1012 0 87.3365 12.7095 1110 123.534 1312.33 449.347
1013 0 88.348 12.9148 1141 126.33 1311.95 447.599
1014 0 91.447 13.0786 1196 125.678 1311.7 447.35
1015 0 96.3196 13.1957 1271 120.44 1311.92 444.827
1016 0 100.447 13.3902 1345 128.359 1311.43 442.833
1017 0 102.354 13.0626 1337 123.2 1312.24 442.064
1018 0 105.188 13.262 1395 126.495 1311.32 440.692
1019 0 109.112 13.4633 1469 132.728 1311.86 438.494
1020 1 59.09 12.4894 738 131.35 1312.89 464.039
1021 0 60.0939 12.0312 723 131.826 1313.62 463.173
1022 0 62.1845 12.2378 761 130.959 1312.7 461.402
1023 0 63.1395 12.3694 781 134.626 1312.98 459.092
1024 0 66.0989 12.4359 822 135.319 1313.48 459.634
1025 0 68.0967 12.2767 836 128.623 1313.41 457.384
1026 0 70.1563 12.8 898 137.258 1313.2 457.314
1027 0 74.1682 12.4447 923 140.176 1313.51 455.02
1028 0 76.1033 13.0218 991 141.673 1314.23 454.046
1029 0 79.1602 12.86 1018 138.312 1314.68 452.742
1030 0 81.1039 12.7737 1036 136.191 1314.05 452.128
1031 0 82.1787 12.8987 1060 136.931 1314.7 450.635
1032 0 87.207 12.7169 1109 138.069 1312.61 448.044
1033 0 89.1638 13.021 1161 137.187 1313.8 447.835
1034 0 92.1836 13.1802 1215 136.226 1312.26 445.433
1035 0 95.0774 12.5582 1194 131.326 1312.16 445.24
1036 1 51.108 11.055 565 127.177 1312.16 467.018
1037 0 52.1616 11.0234 575 126.706 1312.25 467.033
1038 0 54.2872 11.9734 650 125.086 1313.35 465.674
1039 0 53.116 12.0303 639 120.626 1312.57 465.488
1040 0 55.2431 11.6214 642 133.243 1312.22 465.458
1041 0 58.3739 11.649 680 125.963 1315.66 464.21
1042 0 60.1196 11.4272 687 128.892 1314 463.488
1043 0 61.2422 11.5607 708 24.2726 1313.24 461.681
1044 0 64.3044 12.2542 788 128.322 1311.85 460.402
1045 0 65.2667 11.7058 764 125.95 1311.79 459.258
1046 0 68.2609 12.1739 831 129.972 1311.73 459.047
1047 0 70.3047 11.4217 803 131.296 1310.29 458.222
1048 0 72.3842 11.66 844 126.94 1310.92 456.979
1049 0 75.4974 12.0401 909 128.573 1311.31 454.855
1050 0 76.3969 11.7282 896 125.773 1310.79 454.857
1051 0 78.431 12.0488 945 128.532 1310.33 452.335
1052 0 80.2348 12.1269 973 130.342 1312.11 451.828
1053 0 83.4166 12.06 1006 127.412 1312.89 448.699
1054 0 85.48 12.8451 1098 127.454 1310.96 447.699
1055 0 89.4932 12.068 1080 135.177 1310.53 445.426
1056 0 92.4523 12.0927 1118 131.711 1310.11 445.17
1057 0 95.3105 12.4331 1185 131.078 1310 442.438
1058 1 50.3958 10.8144 545 131.646 1310.71 464.385
1059 0 51.44 11.0031 566 132.767 1309.52 463.481
1060 0 51.44 11.0031 566 146.832 1307.52 463.481
1061 0 54.2785 11.7174 636 115.819 1310.99 459.605
1062 0 54.2495 11.9632 649 123.667 1310.25 457.716
1063 0 56.0924 11.8376 664 116.697 1311.46 457.992
1064 0 56.1224 12.3658 694 122.705 1311.55 458.477
1065 0 56.1438 12.2543 688 130.868 1310.06 457.07
1066 0 60.1688 12.2156 735 127.103 1310.47 455.85
1067 0 62.2151 12.4407 774 124.415 1310.17 454.687
1068 0 67.2798 12.6338 850 121.864 1310.91 456.604
1069 0 70.2824 12.3075 865 124.316 1310.39 455.654
1070 0 72.2386 12.6664 915 121.181 1310.19 455.292
1071 0 72.2027 12.1602 878 126.612 1309.71 453.882
1072 0 77.1555 12.6109 973 123.16 1309.46 452.229
1073 0 78.2449 12.4481 974 123.919 1309.52 451.48
1074 0 80.2912 12.6415 1015 127.345 1309.44 450.177
1075 0 85.1534 12.7887 1089 114.882 1308.9 447.858
1076 0 87.1642 12.5051 1090 130.719 1309.1 447.835
1077 1 48.1067 10.7885 519 129.021 1309.53 467.753
1078 0 48.258 11.4592 553 122.557 1309.59 467.729
1079 0 51.0702 12.2381 625 125.606 1308.77 465.13
1080 0 53.4103 11.9265 637 129.545 1309.59 464.73
1081 0 53.3482 12.3716 660 131.992 1309.07 463.78
1082 0 54.2832 12.6559 687 132.948 1309.08 463.217
1083 0 57.2498 12.262 702 130.02 1308.85 462.14
1084 0 59.4477 12.4311 739 130.395 1309.18 461.284
1085 0 62.2325 12.3408 768 129.216 1308.96 460.508
1086 0 61.117 12.6315 772 131.644 1309.46 460.405
1087 0 64.2785 12.228 786 127.775 1309.21 460.085
1088 0 65.3394 12.6264 825 130.52 1309.39 459.382
1089 0 69.2801 12.8753 892 122.132 1309.83 457.951
1090 0 71.2265 12.5094 891 123.572 1310.06 457.165
1091 0 73.2197 12.6332 925 125.345 1310.43 455.612
1092 0 76.1205 13.1239 999 127.447 1310.25 454.252
1093 0 79.2969 13.3423 1058 122.933 1310.34 452.918
1094 0 80.1876 13.3312 1069 129.188 1310.52 451.346
1095 0 82.5364 13.5213 1116 124.078 1310.09 449.53
1096 0 85.648 13.427 1150 130.403 1309.79 447.293
1097 0 88.5492 13.3485 1182 135.905 1309.53 446.245
1098 1 48.5447 12.195 592 134.584 1309.09 467.046
1099 0 49.2415 12.4489 613 132.212 1309 466.746
1100 0 50.2584 12.5153 629 135.865 1309.29 465.851
1101 0 53.1923 12.5206 666 136.667 1308.73 465.845
1102 0 55.253 13.0129 719 129.773 1309.34 462.919
1103 0 54.2083 12.9685 703 132.494 1308.64 464.198
1104 0 55.2764 13.2244 731 132.581 1307.94 462.902
1105 0 60.1557 13.2822 799 133.697 1308.18 460.917
1106 0 61.2968 13.0676 801 130.622 1308.05 460.41
1107 0 63.233 13.2526 838 127.307 1307.82 459.671
1108 0 65.4022 12.9506 847 125.233 1307.76 457.418
1109 0 67.3849 13.0445 879 123.799 1308.78 457.3
1110 0 69.494 13.3968 931 131.78 1308.58 455.492
1111 0 70.6378 13.4347 949 126.313 1308.72 453.803
1112 0 73.7453 13.3975 988 130.887 1308.46 446.359
1113 0 75.4535 14.2074 1072 131.399 1308.6 449.066
1114 0 78.808 13.5392 1067 125.888 1308.57 447.574
1115 0 80.6343 13.9147 1122 133.159 1308.56 447.453
1116 0 83.7836 13.6423 1143 132.96 1308.52 446.695
1117 0 83.6553 13.8066 1155 137.692 1308.18 445.627
1118 0 86.8363 13.3469 1159 136.906 1308.53 445.488
1119 0 93.7965 14.702 1379 134.349 1308.2 442.596
1120 0 95.6329 14.0328 1342 136.25 1307.94 442.313
1121 0 98.5481 14.7644 1455 133.492 1307.47 439.5
1122 0 101.444 13.9978 1420 133.389 1307.68 438.325
1123 1 55.4155 12.9025 715 131.785 1307.46 463.041
1124 0 55.2677 13.5703 750 133.067 1307.08 462.852
1125 0 58.0566 13.2112 767 134.226 1308.93 462
1126 0 62.0359 13.1698 817 128.401 1308.99 459.815
1127 0 62.0356 12.9764 805 137.694 1309.02 459.282
1128 0 64.1329 13.2693 851 125.919 1309.47 459.052
1129 0 66.0297 13.1608 869 128.036 1309.8 458.588
1130 0 69.0257 13.169 909 127.251 1309.3 456.513
1131 0 69.059 13.5536 936 128.354 1309.6 455.147
1132 0 73.0501 13.4839 985 131.163 1309.49 454.724
1133 0 75.1484 13.4268 1009 131.286 1308.81 453.288
1134 0 77.0645 13.6898 1055 127.987 1309.39 451.846
1135 0 80.1226 13.7789 1104 142.733 1308.92 451.051
1136 0 81.1077 13.9321 1130 149.462 1308.66 448.673
1137 0 84.1335 14.0134 1179 145.42 1307.08 448.397
1138 0 86.2135 14.0233 1209 142.64 1307.43 446.645
1139 0 89.1713 13.7376 1225 138.115 1306.94 445.49
1140 0 92.244 13.963 1288 138.332 1307.23 444.749
1141 0 94.1292 13.5665 1277 139.541 1306.86 442.433
1142 0 97.3519 13.8569 1349 140.889 1306.83 440.448
1143 0 102.274 13.7572 1407 139.036 1307.27 439.656
1144 0 104.208 13.7033 1428 145.055 1306.46 438.174
1145 0 106.189 14.1164 1499 140.713 1306.54 436.441
1146 0 110.173 13.9326 1535 139.679 1306.36 434.178
1147 0 114.211 14.053 1605 143.221 1306.68 432.953
1148 1 63.0881 12.5856 794 142.904 1307.31 458.008
1149 0 65.127 13.3432 869 140.844 1307.75 456.156
1150 0 70.057 13.646 956 141.176 1306.85 455.948
1151 0 70.073 13.329 934 135.61 1307.65 454.244
1152 0 73.0702 13.5486 990 134.262 1307.92 452.83
1153 0 76.2979 13.2114 1008 127.768 1308.03 452.381
1154 0 78.1572 13.0122 1017 136.406 1307.62 450.616
1155 0 80.1058 13.3823 1072 137.656 1307.58 448.214
1156 0 82.2202 13.1841 1084 143.019 1307.46 449.089
1157 0 86.158 13.3592 1151 145.126 1306.43 447.422
1158 0 90.2457 13.4522 1214 136.677 1306.68 444.846
1159 0 92.292 13.2839 1226 131.436 1306.08 443.811
1160 0 94.2603 13.6537 1287 141.179 1306.31 442.27
1161 0 98.4557 13.8133 1360 137.649 1308.52 439.404
1162 0 101.362 13.8908 1408 132.49 1307.92 437.03
1163 0 106.614 13.9287 1485 141.652 1307.11 435.269
1164 1 55.2093 13.2586 732 134.582 1307.13 460.579
1165 0 58.1008 13.1151 762 131.108 1308.08 459.832
1166 0 61.1047 13.1414 803 137.391 1307.9 459.308
1167 0 62.0747 13.0488 810 145.337 1307.98 458.756
1168 0 65.1407 13.1101 854 146.063 1308.4 456.967
1169 0 68.0841 13.1014 892 131.667 1308.57 455.772
1170 0 69.0509 13.2221 913 143.566 1308.34 456.311
1171 0 70.0421 13.5633 950 137.443 1308.45 454.857
1172 0 74.0535 13.5308 1002 140.977 1308.28 453.679
1173 0 74.1819 13.5882 1008 145.233 1307.69 451.737
1174 0 77.1533 13.7259 1059 134.463 1307.71 451.077
1175 0 81.3048 13.4801 1096 143.896 1308.22 449.356
1176 0 83.321 13.1419 1095 143.909 1308.38 447.789
1177 0 85.3084 13.6446 1164 142.298 1308.02 446.528
1178 0 88.2034 13.4462 1186 142.054 1308.6 445.287
1179 0 90.1888 13.6824 1234 145.642 1308.56 444.091
1180 0 93.1799 13.1681 1227 145.746 1308.82 443.037
1181 0 96.2119 13.2104 1271 141.359 1309.05 440.792
1182 0 101.242 12.7517 1291 135.833 1309.17 440.524
1183 0 103.322 13.1724 1361 143.707 1308.66 438.474
1184 0 106.152 13.0944 1390 137.596 1308.54 436.545
1185 0 111.163 13.4308 1493 138.692 1308.61 434.816
1186 1 58.1683 12.1372 706 140.272 1308.89 460.479
1187 0 61.1089 12.5023 764 133.493 1309.02 459.457
1188 0 63.2566 12.2991 778 135.03 1308.65 458.716
1189 0 64.1994 12.5235 804 131.65 1308.69 457.575
1190 0 65.1271 12.8211 835 133.909 1308.99 456.392
1191 0 68.2039 12.5946 859 128.657 1309.79 455.554
1192 0 71.1653 12.4218 884 132.277 1309.65 453.68
1193 0 73.2213 12.6193 924 127.264 1310.18 452.771
1194 0 75.2376 12.2545 922 128.869 1309.05 451.693
1195 0 76.3376 12.7853 976 134.183 1308.64 451.03
1196 0 79.3422 12.4398 987 135.927 1308.73 449.74
1197 0 82.3349 12.8742 1060 128.784 1308.89 447.227
1198 0 83.2467 12.8293 1068 137.706 1308.37 447.091
1199 0 88.3776 12.605 1114 132.663 1308.44 445.331
1200 0 91.2037 12.4666 1137 134.15 1308.92 443.635
1201 0 94.3274 12.7216 1200 137.977 1309.27 442.785
1202 0 95.4226 12.5232 1195 129.693 1309.35 441.512
1203 1 52.3786 11.2642 590 141.188 1309.39 462.219
1204 0 54.0938 11.5725 626 138.099 1309.07 460.73
1205 0 56.099 12.264 688 139.112 1308.77 459.888
1206 0 57.1876 12.2579 701 139.511 1308.74 459.706
1207 0 59.2441 12.1025 717 134.53 1308.61 459.201
1208 0 60.1851 12.2123 735 138.381 1308.34 457.868
1209 0 61.2895 12.6286 774 132.434 1309.33 456.87
1210 0 65.2551 12.2289 798 134.996 1309.36 455.194
1211 0 65.2845 12.928 844 130.557 1308.47 455.007
1212 0 66.2152 12.7312 843 131.605 1308.26 454.95
1213 0 70.2029 12.8342 901 132.378 1307.7 452.893
1214 0 74.2442 12.405 921 135.043 1308.23 451.605
1215 0 74.1284 12.9505 960 134.006 1308.99 450.259
1216 0 76.3344 13.1789 1006 133.328 1309.48 450.473
1217 0 81.1933 13.1168 1065 136.611 1309.64 448.271
1218 0 83.2706 13.258 1104 134.418 1309.76 446.383
1219 0 84.256 12.8893 1086 126.124 1309.03 445.445
1220 0 87.2391 12.8727 1123 138.622 1308.34 443.57
1221 0 92.4761 12.4789 1154 138.296 1308.41 443.803
1222 1 49.5098 11.735 581 139.33 1308.03 462.229
1223 0 52.57 12.2313 643 133.849 1307.83 461.813
1224 0 53.4604 12.4391 665 136.884 1308.59 460.961
1225 0 55.1569 12.7455 703 136.762 1309.06 461.597
1226 0 57.132 12.6374 722 137.087 1308.73 461.42
1227 0 59.0852 12.9136 763 125.87 1309.74 460.777
1228 0 59.1164 12.8391 759 140.527 1308.81 459.841
1229 0 61.196 13.2198 809 139.791 1309.53 459.627
1230 0 63.137 13.0035 821 132.957 1309.18 458.077
1231 0 64.193 13.3971 860 144.966 1309.86 457.699
1232 0 66.1107 13.3715 884 139.853 1309.84 456.34
1233 0 70.0816 13.2417 928 143.976 1310.26 454.805
1234 0 71.2526 13.7118 977 144.697 1310.4 453.238
1235 0 73.1168 13.3485 976 141.537 1310.26 453.346
1236 0 76.3501 13.4119 1024 147.16 1309.09 452.276
1237 0 78.2377 13.6635 1069 144.585 1308.38 450.834
1238 0 80.2864 13.813 1109 144.344 1308.65 449.833
1239 0 83.1861 13.6321 1134 148.568 1308.6 447.6
1240 0 85.2476 13.4667 1148 149.887 1308.44 446.74
1241 0 88.258 13.7325 1212 148.71 1308.58 444.888
1242 0 90.344 13.515 1221 142.937 1308.73 444.543
1243 0 93.3442 13.7448 1283 138.966 1309.7 441.744
1244 0 97.4624 13.4411 1310 142.757 1308.75 440.805
1245 0 100.402 13.5954 1365 140.492 1308.26 439.864
1246 0 103.277 13.8172 1427 139.289 1308.25 437.725
1247 1 56.2844 12.0104 676 136.661 1308.58 461.604
1248 0 58.4534 12.557 734 141.309 1309.15 460.071
1249 0 59.1028 12.7236 752 139.339 1308.48 460.039
1250 0 61.3809 13.3592 820 141.138 1308.64 458.806
1251 0 62.2592 13.2832 827 139.734 1308.96 458.503
1252 0 65.4 12.8593 841 139.878 1309.16 457.735
1253 0 68.3298 12.9812 887 140.938 1309.04 456.166
1254 0 69.2629 13.0084 901 138.553 1308.71 454.241
1255 0 74.3697 13.0564 971 143.28 1310.64 452.404
1256 0 76.235 13.078 997 142.406 1311.02 450.124
1257 0 78.3354 13.289 1041 140.611 1310.09 449.734
1258 0 80.3053 13.1747 1058 138.212 1309.79 449.001
1259 0 83.4121 12.9478 1080 140.257 1309.29 448.382
1260 0 86.5123 13.1542 1138 139.888 1310.26 446.518
1261 0 89.8323 13.5363 1216 129.52 1310.1 444.836
1262 0 91.2815 13.5296 1235 139.604 1309.98 443.845
1263 0 94.3038 13.0536 1231 138.287 1310.1 443.434
1264 0 97.2823 13.1884 1283 143.506 1309.52 441.578
1265 0 106.441 15.8585 1688 125.935 1310.13 434.591
1266 0 105.418 13.5461 1428 136.388 1309.92 436.84
1267 0 107.351 13.5443 1454 145.492 1309.24 436.4
1268 1 54.2546 12.7731 693 143.189 1309.61 460.838
1269 0 56.3325 13.1895 743 139.816 1309.96 460.073
1270 0 58.2675 12.8373 748 140.722 1309.54 459.312
1271 0 58.2675 12.8373 748 167.881 1308.54 459.312
1272 0 62.1505 13.226 822 137.142 1310.14 457.669
1273 0 65.1444 12.4646 812 144.573 1310.22 456.174
1274 0 67.2009 13.2736 892 140.93 1309.91 455.015
1275 0 70.0905 13.1544 922 136.679 1309.84 454.535
1276 0 71.099 13.2632 943 138.99 1309.24 453.647
1277 0 74.0772 13.5669 1005 138.106 1309.5 451.839
1278 0 75.1241 13.471 1012 137.387 1308.45 450.113
1279 0 76.1702 13.8506 1055 139.826 1308.83 448.962
1280 0 81.1382 13.3353 1082 141.445 1308.54 446.527
1281 0 83.3145 13.8391 1153 134.329 1308.89 445.83
1282 0 85.2077 13.5316 1153 141.197 1309.9 445.269
1283 0 89.2831 13.642 1218 144.292 1309.35 442.727
1284 0 92.1999 13.2863 1225 138.368 1309.18 442.273
1285 0 95.2051 13.3291 1269 134.01 1309.6 440.171
1286 0 98.1399 13.5521 1330 142.282 1309.56 438.64
1287 0 101.181 13.8959 1406 133.122 1309.8 437.351
1288 0 105.204 13.8303 1455 147.275 1309.86 436.602
1289 0 108.596 13.6837 1486 142.155 1309.6 434.515
1290 0 112.275 13.9211 1563 143.523 1309.76 431.405
1291 1 60.0988 12.7956 769 139.735 1309.91 457.567
1292 0 61.1258 12.9732 793 138.595 1310.02 457.402
1293 0 61.1104 13.1892 806 139.12 1309.13 456.865
1294 0 65.1624 12.6453 824 134.462 1309.38 455.669
1295 0 68.1778 12.9221 881 136.778 1309.36 454.238
1296 0 69.1338 12.6566 875 130.825 1309.68 454.355
1297 0 72.1964 13.1862 952 132.569 1309.53 452.583
1298 0 73.2322 13.2046 967 132.246 1309.74 451.602
1299 0 76.173 13.1805 1004 137.466 1309.17 449.555
1300 0 76.1176 13.5711 1033 131.878 1309.63 448.076
1301 0 80.3008 12.9887 1043 134.747 1309.76 448.006
1302 0 84.1631 13.2362 1114 143.151 1311.13 445.072
1303 0 87.3031 12.7143 1110 136.415 1311.46 444.096
1304 0 88.1789 13.0984 1155 134.087 1310.49 443.527
1305 0 91.2937 13.2539 1210 144.11 1310.17 442.092
1306 0 95.1708 12.9557 1233 139.18 1310.22 440.128
1307 0 97.316 13.2558 1290 144.533 1310.21 439.219
1308 0 100.229 13.0601 1309 140.454 1309.67 437.542
1309 0 104.195 12.9853 1353 144.477 1309.86 435.591
1310 1 58.1914 11.3075 658 146.22 1310.17 459.217
1311 0 59.206 11.8907 704 143.881 1310.07 456.922
1312 0 61.0977 12.3409 754 141.158 1311.31 455.877
1313 0 61.1521 13.0821 800 140.231 1309.4 455.484
1314 0 62.2041 13.1503 818 147.254 1309.45 454.864
1315 0 66.1198 12.7496 843 144.603 1309.6 453.957
1316 0 68.1957 12.6401 862 144.117 1309.71 452.51
1317 0 70.224 12.7165 893 139.906 1309.84 451.629
1318 0 73.3065 12.6865 930 140.548 1309.67 450.333
1319 0 76.392 12.5144 956 135.442 1309.6 449.598
1320 0 79.2215 12.7617 1011 138.299 1310.26 448.269
1321 0 82.3112 13.7405 1131 131.146 1309.9 445.333
1322 0 83.4964 12.8389 1072 138.535 1310.54 444.617
1323 0 86.4319 13.1202 1134 134.954 1310.5 442.919
1324 0 86.3228 13.1367 1134 142.467 1310.48 443.722
1325 0 92.4199 13.1249 1213 137.582 1310.3 440.545
1326 0 95.3602 12.909 1231 133.126 1310.38 439.447
1327 0 99.3355 13.0668 1298 139.863 1310.25 437.827
1328 0 102.227 13.1766 1347 141.454 1310.33 435.831
1329 0 105.308 13.5127 1423 137.36 1309.85 435.59
1330 0 108.394 13.5893 1473 141.976 1309.67 432.459
1331 0 112.387 13.2311 1487 142.681 1309.9 431.083
1332 0 117.366 13.1214 1540 139.918 1310.21 428.884
1333 1 61.2921 11.8449 726 138.66 1310.27 453.204
1334 0 64.2362 12.3295 792 135.883 1309.12 454.899
1335 0 65.2634 12.6258 824 141.767 1309.17 453.873
1336 0 67.3251 12.7887 861 140.985 1309.05 451.89
1337 0 69.5736 12.5047 870 134.277 1309.37 451.449
1338 0 71.3015 12.9871 926 137.78 1309.65 450.133
1339 0 75.5103 12.5413 947 138.062 1309.22 449.101
1340 0 77.2813 12.7198 983 134.948 1309.59 448.498
1341 0 80.2663 12.8074 1028 132.268 1309.84 446.942
1342 0 82.635 12.5371 1036 133.239 1309.49 445.682
1343 0 86.4006 12.6967 1097 131.294 1309.2 444.611
1344 0 88.4403 12.6187 1116 128.358 1309.67 443.378
1345 0 92.637 12.7703 1183 125.202 1309.78 440.78
1346 0 95.5311 12.3625 1181 130.041 1310.14 440.79
1347 0 97.2266 12.4349 1209 130.357 1310.48 438.592
1348 0 99.3994 12.485 1241 129.381 1310.21 438.078
1349 0 103.445 12.7797 1322 136.784 1310.2 435.979
1350 0 105.472 12.7712 1347 131.367 1310.7 434.716
1351 0 109.796 12.751 1400 131.669 1311.34 432.829
1352 1 57.3863 11.6578 669 140.036 1310.82 457.951
1353 0 59.2917 12.0927 717 136.11 1310.55 457.112
1354 0 60.3679 12.1588 734 134.659 1310.77 456.01
1355 0 61.3808 12.8053 786 136.752 1311.28 451.212
1356 0 63.3906 12.5728 797 128.635 1310.95 454.609
1357 0 65.2621 12.5034 816 132.288 1310.82 453.029
1358 0 68.5748 12.5119 858 129.219 1311.14 452.012
1359 0 70.3461 12.4954 879 132.121 1311.41 451.553
1360 0 70.7088 12.7424 901 132.29 1311.47 449.534
1361 0 73.588 12.8282 944 136.019 1310.68 447.615
1362 0 75.4714 13.0115 982 136.078 1312.51 444.945
1363 0 77.4828 13.1384 1018 129.66 1313.05 442.817
1364 0 81.6289 12.7283 1039 134.503 1312.17 442.38
1365 0 82.723 13.249 1096 134.197 1311.73 441.396
1366 0 85.68 13.0952 1122 138.045 1311.46 440.616
1367 0 88.9122 14.0701 1251 132.069 1311 437.638
1368 0 91.7624 13.426 1232 135.801 1311.48 437.189
1369 0 94.6824 13.0964 1240 135.459 1311.1 436.973
1370 0 97.7837 12.9469 1266 135.322 1311.29 435.588
1371 0 99.568 13.3979 1334 138.679 1311.58 434.486
1372 1 54.4235 10.9695 597 126.687 1311.45 453.276
1373 0 55.398 11.5167 638 132.21 1311.53 452.301
1374 0 56.4624 11.9017 672 129.93 1311.01 452.496
1375 0 57.281 11.6967 670 128.406 1311.26 451.593
1376 0 60.3631 11.3977 688 138.041 1312.22 449.85
1377 0 60.3631 11.3977 688 155.315 1313.22 449.85
1378 0 62.3245 12.098 754 136.426 1312.02 450.122
1379 0 64.3409 11.9053 766 129.08 1312.19 449.995
1380 0 67.3715 12.0823 814 135.607 1310.88 448.258
1381 0 67.269 12.5764 846 130.848 1311.41 447.652
1382 0 69.3188 12.1035 839 142.576 1311.08 448.597
1383 0 71.1424 12.9037 918 140.671 1310.77 446.598
1384 0 76.3567 12.6381 965 140.695 1311.44 445.126
1385 0 77.4245 12.6704 981 130.898 1312.21 443.688
1386 0 82.5979 12.47 1030 132.508 1311.64 442.477
1387 0 84.7464 12.1421 1029 136.179 1312.78 441.814
1388 0 86.5025 12.5661 1087 131.604 1312.64 441.75
1389 0 88.4772 12.8847 1140 134.373 1312.33 438.949
1390 0 90.4027 13.2076 1194 135.289 1312.85 437.147
1391 0 96.3217 12.9047 1243 138.788 1312.88 439.383
1392 1 54.1707 11.593 628 131.919 1313.6 460.14
1393 0 53.0518 12.5161 664 138.8 1312.24 460.145
1394 0 55.154 12.0934 667 134.945 1312.69 459.895
1395 0 56.2305 12.3421 694 138.153 1312.77 459.063
1396 0 59.1997 12.2129 723 138.071 1312.8 457.573
1397 0 61.2073 12.4332 761 136.624 1312.92 455.578
1398 0 62.2522 12.7064 791 136.893 1312.45 455.453
1399 0 65.1966 12.5007 815 130.952 1313.04 453.449
1400 0 67.1491 12.7775 858 137.379 1313.82 453.284
1401 0 67.1029 12.6075 846 138.156 1313.24 452.369
1402 0 71.1719 12.5892 896 139.732 1312.45 450.345
1403 0 74.161 12.8234 951 131.536 1312.78 450.015
1404 0 75.2727 12.9131 972 133.158 1312.2 449.528
1405 0 79.144 12.4962 989 139.701 1311.18 448.23
1406 0 80.2504 13.271 1065 142.64 1310.27 447.06
1407 0 83.1073 13.0674 1086 140.302 1309.93 445.695
1408 0 86.1065 12.7517 1098 130.832 1309.51 443.955
1409 0 89.0999 12.9181 1151 134.698 1308.93 444.169
1410 0 92.1734 12.6718 1168 136.122 1309.98 442.216
1411 0 95.2363 12.7367 1213 144.117 1309.61 441.682
1412 0 99.2392 12.7671 1267 131.809 1309.3 440.672
1413 0 101.224 13.317 1348 136.717 1310.21 438.297
1414 1 56.0759 11.1991 628 134.65 1309.19 461.073
1415 0 59.1371 11.82 699 128.526 1308.64 460.335
1416 0 60.1181 12.4422 748 129.12 1308.13 459.513
1417 0 62.2515 12.2085 760 130.086 1309.2 458.491
1418 0 65.3325 12.3369 806 136.581 1309.53 457.28
1419 0 65.3141 12.3557 807 133.812 1309.89 457.135
1420 0 67.273 12.9175 869 128.545 1309.1 455.778
1421 0 69.1916 12.675 877 130.482 1309.7 455.477
1422 0 72.3478 12.7163 920 132.717 1308.51 453.489
1423 0 74.2401 12.2845 912 134.616 1308.93 453.913
1424 0 77.293 12.5238 968 126.326 1309.54 452.85
1425 0 77.2555 12.6722 979 133.909 1309.95 452.072
1426 0 81.2646 12.8715 1046 129.004 1309.42 450.962
1427 0 84.2293 12.834 1081 128.132 1310.1 449.413
1428 0 87.2705 12.7878 1116 132.934 1309.54 447.41
1429 0 90.248 12.51 1129 128.719 1308.64 446.016
1430 0 94.3682 12.7691 1205 126.254 1309.3 444.773
1431 0 96.264 12.8916 1241 127.415 1309.54 442.987
1432 0 98.2537 12.6102 1239 125.824 1309.38 441.588
1433 0 104.237 12.4237 1295 123.533 1309.25 440.943
1434 1 58.1487 11.247 654 133.006 1308.26 462.216
1435 0 60.1405 11.4066 686 137.009 1308.52 460.226
1436 0 61.0803 12.4754 762 125.663 1308.39 461.219
1437 0 64.0984 11.7476 753 130.138 1309.09 459.595
1438 0 65.1822 12.5494 818 133.699 1308.83 457.905
1439 0 67.0704 12.4347 834 133.351 1308.8 455.918
1440 0 70.0757 12.4151 870 133.42 1308.78 455.17
1441 0 71.1545 12.3675 880 137.064 1309.48 453.547
1442 0 71.0465 12.7804 908 134.506 1309.34 453.924
1443 0 76.2328 12.6455 964 131.495 1308.86 452.126
1444 0 77.3124 12.8569 994 129.676 1307.45 451.893
1445 0 81.2417 12.7644 1037 130.503 1307.92 449.859
1446 0 82.3032 12.7577 1050 131.138 1307.99 449.004
1447 0 84.211 12.8012 1078 133.793 1307.75 449.457
1448 0 85.4118 13.0778 1117 129.768 1307.13 447.825
1449 0 89.3836 12.9442 1157 131.655 1307.35 446.371
1450 0 89.3537 12.9038 1153 125.098 1307.08 443.127
1451 0 92.5049 12.8534 1189 134.918 1307.12 440.43
1452 0 95.3692 13.086 1248 135.144 1306.77 439.235
1453 0 96.7049 13.1017 1267 136.049 1306.58 439.474
1454 0 101.36 13.0131 1319 135.235 1306.88 437.489
1455 0 101.36 13.0131 1319 166.325 1306.88 437.489
1456 0 107.49 13.0338 1401 125.25 1307.5 432.949
1457 1 59.1907 11.9107 705 136.031 1307.18 456.773
1458 0 62.2521 12.2245 761 129.026 1307.62 455.181
1459 0 63.3567 12.4691 790 126.406 1307.85 453.977
1460 0 65.2669 13.3912 874 123.634 1308.22 453.303
1461 0 68.3453 12.7295 870 127.816 1307.57 451.607
1462 0 70.3216 13.0827 920 126.261 1307.83 450.873
1463 0 74.3559 12.9109 960 124.601 1307.63 449.512
1464 0 74.2215 13.1498 976 129.218 1307.88 448.458
1465 0 75.2368 13.2249 995 128.862 1308.49 447.538
1466 0 80.1474 13.3504 1070 128.57 1309.11 449.608
1467 0 82.0471 13.7848 1131 131.545 1310.07 447.864
1468 0 84.1768 13.4954 1136 127.523 1309.97 446.761
1469 0 89.1356 13.1485 1172 120.577 1309.84 445.279
1470 0 90.122 13.515 1218 116.92 1310.97 444.512
1471 0 93.1325 13.2822 1237 124.179 1310.5 442.409
1472 0 96.1134 13.7858 1325 132.524 1310.65 440.903
1473 0 99.1032 13.3901 1327 131.8 1310.63 438.94
1474 0 103.128 13.7208 1415 118.507 1310.7 437.183
1475 0 106.122 13.7671 1461 127.263 1311.19 435.518
1476 0 109.217 13.8348 1511 134.363 1311.46 433.242
1477 0 111.184 13.1493 1462 132.705 1312.23 432.539
1478 0 116.397 13.4368 1564 134.238 1311.99 429.648
1479 1 62.0714 12.2279 759 133.119 1312.48 456.054
1480 0 63.0407 12.8806 812 131.741 1312.22 455.66
1481 0 66.0823 12.9535 856 132.582 1311.85 454.611
1482 0 67.0879 12.8637 863 130.896 1311.18 452.868
1483 0 70.1287 13.0332 914 123.084 1311.14 452.091
1484 0 72.0853 13.2621 956 130.409 1311.32 451.371
1485 0 73.3608 13.4813 989 127.771 1310.83 449.637
1486 0 77.1844 13.3965 1034 132.954 1311.14 447.852
1487 0 77.2455 13.2694 1025 130.619 1311.12 448.813
1488 0 80.3957 13.1848 1060 134 1311.41 446.727
1489 0 82.1992 13.5159 1111 132.174 1310.35 445.16
1490 0 86.1722 13.8096 1190 133.45 1310.94 443.939
1491 0 88.1706 13.179 1162 129.128 1310.14 443.543
1492 0 92.2913 13.219 1220 136.97 1310.61 441.758
1493 0 94.2338 13.5514 1277 126.187 1311.01 439.818
1494 0 97.3092 13.5856 1322 133.582 1310.65 438.246
1495 0 101.26 13.7665 1394 131.201 1309.97 436.25
1496 0 104.408 13.7058 1431 128.391 1309.66 435.299
1497 0 107.441 13.7006 1472 125.264 1309.78 433.819
1498 1 60.3115 11.6396 702 123.125 1309.34 457.754
1499 0 63.13 12.5931 795 99.0101 1309.6 456.683
1500 0 63.2662 12.8189 811 124.401 1309.48 455.582
1501 0 66.2106 12.9586 858 125.626 1308.74 454.97
1502 0 67.1635 13.2215 888 123.695 1309.43 453.762
1503 0 69.2161 13.3639 925 122.954 1309.27 452.966
1504 0 71.0703 13.8736 986 117.45 1309.68 452.33
1505 0 75.0722 13.2406 994 121.474 1309.5 452.232
1506 0 77.205 13.3541 1031 117.918 1309.76 450.824
1507 0 78.1219 13.6325 1065 121.463 1309.42 450.755
1508 0 79.196 13.4224 1063 121.443 1308.79 449.321
1509 0 84.1301 13.907 1170 117.295 1308.91 447.59
1510 0 86.1152 14.0974 1214 123.571 1309.03 446.941
1511 0 90.2686 13.7811 1244 126.629 1309.11 446.055
1512 0 93.324 13.9621 1303 122.481 1309.27 444.604
1513 0 95.5832 13.925 1331 121.47 1309.38 443.789
1514 0 98.5759 14.0298 1383 119.403 1309.08 442.434
1515 0 99.2631 14.4565 1435 119.079 1309.11 440.343
1516 0 105.441 14.814 1562 113.111 1308.87 438.535
1517 0 108.348 14.7211 1595 118.561 1308.77 436.935
1518 0 113.384 14.1025 1599 117.475 1308.37 435.75
1519 0 116.423 14.5074 1689 119.442 1307.86 433.073
1520 0 119.752 14.2711 1709 117.266 1307.73 432.262
1521 1 69.5442 13.229 920 121.752 1307.42 455.572
1522 0 71.3139 13.5598 967 123.873 1307.65 455.207
1523 0 75.1198 13.6715 1027 117.167 1308.37 454.754
1524 0 77.0617 13.5865 1047 118.837 1308.41 453.966
1525 0 80.2235 14.0358 1126 115.762 1307.96 451.532
1526 0 81.1749 13.7234 1114 118.466 1307.26 450.95
1527 0 85.1147 13.7697 1172 114.005 1307.2 449.937
1528 0 87.3491 13.5891 1187 118.962 1307.73 449.439
1529 0 90.1976 13.9915 1262 114.498 1306.75 448.828
1530 0 93.1196 13.8639 1291 112.501 1307.88 447.264
1531 0 97.1138 13.5305 1314 116.785 1307.45 445.01
1532 0 99.2672 13.7205 1362 111.131 1307.41 443.386
1533 0 104.206 13.2142 1377 111.384 1307.1 442.56
1534 0 106.246 13.431 1427 111.057 1306.7 440.687
1535 1 56.1514 12.5553 705 112.582 1306.69 463.254
1536 0 59.0816 13.1175 775 109.023 1307.44 462.151
1537 0 61.0613 12.7249 777 109.199 1308.33 462.544
1538 0 62.1595 13.3688 831 106.077 1308.44 460.984
1539 0 64.1939 13.2567 851 109.808 1308.49 459.788
1540 0 66.2315 13.3773 886 108.119 1308.25 459.421
1541 0 68.1374 13.0912 892 104.02 1308.95 457.973
1542 0 70.1428 13.5295 949 103.157 1309.03 456.211
1543 0 73.1407 13.2348 968 108.589 1308.79 454.612
1544 0 74.2928 13.5141 1004 109.395 1308.43 453.65
1545 0 77.2576 13.4356 1038 107.645 1308.38 451.896
1546 0 78.2515 13.6355 1067 109.618 1308.7 450.734
1547 0 81.3183 13.2443 1077 114.053 1308.8 449.777
1548 0 85.3664 13.4596 1149 110.595 1308.48 447.271
1549 0 86.3835 13.4053 1158 106.507 1308.44 445.037
1550 0 92.3141 13.1941 1218 113.577 1308.68 444.014
1551 0 94.3118 13.4872 1272 115.215 1309.4 442.934
1552 1 48.1803 12.1211 584 114.664 1308.58 465.096
1553 0 51.0483 12.165 621 113.395 1309.51 465.14
1554 0 53.0709 12.0593 640 113.272 1309.71 464.278
1555 0 54.1949 12.3259 668 110.334 1309.2 464.37
1556 0 55.1283 12.8791 710 108.001 1308.93 463.072
1557 0 55.0909 12.6881 699 115.668 1307.68 462.107
1558 0 57.1076 12.9755 741 113.688 1308.6 461.332
1559 0 59.0921 12.8951 762 110.596 1309.18 460.468
1560 0 62.3042 13.097 816 113.766 1308.97 459.196
1561 0 62.2731 13.2641 826 117.035 1309.37 458.33
1562 0 64.0971 13.5732 870 115.479 1308.58 457.416
1563 0 66.059 13.8967 918 113.857 1309.82 456.635
1564 0 69.1399 13.4076 927 119.653 1309.98 456.201
1565 0 69.2275 13.9251 964 116.221 1309.89 456.12
1566 0 72.2007 13.6287 984 118.061 1309.78 454.382
1567 0 74.1174 14.0453 1041 119.788 1310.63 452.649
1568 0 75.184 14.0721 1058 121.559 1310.53 451.186
1569 0 78.2125 13.7318 1074 119.341 1310.22 450.194
1570 0 81.1517 13.752 1116 122.382 1310.4 449.025
1571 0 81.3463 13.7683 1120 114.629 1310.28 448.031
1572 0 86.1993 13.9096 1199 120.754 1310.18 446.58
1573 0 89.4707 13.7587 1231 128.188 1310.43 445.191
1574 0 91.19 13.8173 1260 123.619 1310.1 443.497
1575 0 93.244 14.1028 1315 124.167 1310.56 442.212
1576 0 96.3646 14.1131 1360 119.01 1310.7 440.276
1577 0 100.564 13.8916 1397 130.791 1310.97 438.389
1578 0 100.302 14.1672 1421 126.163 1310.09 435.602
1579 0 105.216 13.8287 1455 135.455 1310.05 434.682
1580 0 110.307 14.3327 1581 136.84 1310.42 431.273
1581 0 114.298 14.0423 1605 136.804 1310.11 429.54
1582 0 119.268 14.1111 1683 124.757 1310.21 428.446
1583 1 63.0397 13.3408 841 134.308 1310.8 455.867
1584 0 67.0752 12.9407 868 134.878 1310.98 454.586
1585 0 67.1237 12.9909 872 129.373 1311.48 453.925
1586 0 71.0683 13.3674 950 132.932 1311.38 452.596
1587 0 73.1787 13.4329 983 125.951 1311.01 451.842
1588 0 76.2015 12.9656 988 135.149 1311.18 450.683
1589 0 78.216 13.3988 1048 136.963 1311.09 449.046
1590 0 79.2393 13.5539 1074 136.507 1310.91 448.142
1591 0 82.1766 13.5683 1115 139.522 1310.69 447.843
1592 0 84.157 13.1777 1109 140.752 1310.75 446.392
1593 0 86.2781 13.4565 1161 136.935 1310.6 445.522
1594 0 90.3761 13.2447 1197 139.811 1311.48 444.264
1595 0 91.4083 13.8937 1270 133.183 1310.15 442.954
1596 0 94.4087 14.2889 1349 9.60934 1309.91 441.884
1597 0 97.5076 13.8041 1346 136.689 1309.71 440.717
1598 0 98.5571 14.3267 1412 133.86 1309.68 438.705
1599 0 102.554 14.1096 1447 142.849 1310.68 437.865
1600 0 103.516 14.2007 1470 137.389 1310.64 435.863
1601 0 109.441 13.8431 1515 140.733 1310.56 432.901
1602 0 112.34 13.8865 1560 138.751 1310.27 431.899
1603 0 115.312 14.335 1653 138.754 1310.33 429.932
1604 0 119.334 14.1284 1686 135.001 1310.32 427.938
1605 1 69.5224 12.327 857 141.581 1310.18 452.525
1606 0 69.4182 13.3827 929 143.195 1310.43 452.047
1607 0 73.2616 13.5678 994 143.903 1310.11 451.373
1608 0 76.2845 12.9646 989 146.89 1310.09 451.24
1609 0 78.266 13.2625 1038 145.473 1310.22 450.724
1610 0 81.2535 13.2794 1079 141.864 1310.21 448.934
1611 0 81.2493 13.5016 1097 146.102 1310.32 448.67
1612 0 84.2064 13.5619 1142 138.427 1309.42 448.152
1613 0 87.2286 13.585 1185 152.326 1309.43 446.221
1614 0 91.1813 13.8954 1267 157.934 1309.64 444.513
1615 0 92.4186 14.0664 1300 157.747 1308.74 444.014
1616 0 95.3208 13.764 1312 168.496 1308.76 443.401
1617 0 97.2778 13.7955 1342 172.066 1308.67 441.411
1618 0 98.3885 13.9752 1375 157.899 1308.53 439.525
1619 0 105.649 14.2168 1502 167.142 1307.78 435.741
1620 0 107.328 14.302 1535 163.711 1307.1 436.563
1621 0 109.53 14.6079 1600 164.341 1307.66 433.706
1622 0 111.475 14.3351 1598 164.917 1306.83 432.026
1623 0 117.529 14.371 1689 168.776 1307.22 431.041
1624 0 120.573 14.4477 1742 162.959 1308.1 429.697
1625 0 123.491 14.4464 1784 166.152 1307.8 427.082
1626 0 129.615 14.2191 1843 170.315 1307.65 426.129
1627 0 133.233 14.1857 1890 163.059 1307.73 424.614
1628 1 72.1301 12.727 918 165.429 1307.5 455.115
1629 0 74.2174 13.0697 970 165.486 1308.08 454.239
1630 0 77.1468 12.8068 988 160.544 1307.63 453.601
1631 0 79.3889 13.1379 1043 163.684 1307.16 452.253
1632 0 82.286 12.9427 1065 171.424 1307.72 451.669
1633 0 85.1745 13.3021 1133 163.816 1308 449.251
1634 0 87.2602 13.4655 1175 164.937 1307.24 447.884
1635 0 90.2301 13.6096 1228 163.736 1307.42 444.992
1636 0 93.213 13.2278 1233 167.51 1307.28 444.716
1637 0 95.4005 13.501 1288 162.633 1306.39 443.369
1638 0 98.5054 13.5526 1335 154.681 1306.44 442.148
1639 0 102.269 13.7383 1405 158.753 1306.78 437.832
1640 0 106.291 13.1714 1400 160.512 1307.68 435.156
1641 0 108.582 13.2711 1441 165.155 1308.44 433.289
1642 0 111.405 13.3118 1483 155.488 1308.84 431.16
1643 0 115.463 13.0691 1509 158.419 1309.02 429.767
1644 1 62.3134 11.8434 738 157.306 1308.91 454.247
1645 0 64.2811 12.5231 805 159.822 1308.53 452.677
1646 0 68.2084 12.5351 855 154.447 1308.98 453.554
1647 0 70.7344 12.8368 908 151.905 1308.14 453.02
1648 0 74.177 12.4702 925 152.172 1308.12 453.783
1649 0 77.2088 12.6022 973 156.06 1307.57 453.617
1650 0 79.177 12.592 997 156.072 1308.35 452.376
1651 0 82.3239 12.6087 1038 152.543 1308.76 450.606
1652 0 83.358 13.0641 1089 148.111 1308.53 447.668
1653 0 87.3972 13.0553 1141 155.646 1307.99 447.307
1654 0 89.3457 13.1959 1179 150.807 1307.73 445.447
1655 0 93.5682 12.8569 1203 149.201 1307.73 444.631
1656 0 94.3592 13.1201 1238 151.603 1308.06 441.78
1657 0 97.3312 12.9147 1257 156.428 1307.93 441.425
1658 0 101.485 12.8787 1307 153.183 1308.31 439.004
1659 0 104.423 13.407 1400 151.857 1308.63 436.516
1660 0 109.465 13.1458 1439 154.104 1308.23 435.772
1661 0 112.416 13.2543 1490 156.49 1308.29 434.413
1662 0 115.402 13.4919 1557 156.787 1308.36 431.753
1663 0 119.493 13.5657 1621 144.771 1308.43 430.131
1664 0 120.359 13.817 1663 160.344 1308.36 427.713
1665 0 126.459 13.6645 1728 159.288 1308.47 424.272
1666 1 68.423 12.1158 829 151.004 1309.7 453.58
1667 0 72.3068 12.3225 891 144.098 1309.37 453.8
1668 0 74.4029 12.3786 921 150.801 1309.29 451.75
1669 0 75.3148 12.2685 924 150.002 1309.7 451.347
1670 0 78.2859 12.6076 987 149.585 1309.98 449.868
1671 0 80.6177 12.826 1034 150.081 1309.91 447.565
1672 0 82.7779 12.9866 1075 146.363 1309.15 444.162
1673 0 84.5212 13.2984 1124 152.351 1309.99 442.662
1674 0 86.5581 13.0779 1132 156.351 1309.93 442.42
1675 0 88.5593 13.4825 1194 154.901 1310.46 439.668
1676 0 90.6257 13.4509 1219 151.591 1310.58 439.787
1677 0 94.482 13.3888 1265 148.127 1311.04 439.258
1678 0 97.6625 13.5569 1324 161.795 1311.13 435.869
1679 0 100.608 13.5874 1367 144.595 1311.01 434.614
1680 0 101.504 13.8517 1406 152.046 1310.95 432.859
1681 0 105.742 13.4857 1426 151.68 1310.64 433.154
1682 0 107.535 13.5212 1454 149.154 1311.05 430.309
1683 0 110.5 13.819 1527 158.588 1311.03 430.077
1684 0 112.577 13.5462 1525 155.401 1310.59 427.818
1685 0 117.949 13.4126 1582 154.572 1310.61 424.405
1686 0 119.322 13.3923 1598 156.288 1310.45 422.215
1687 0 124.391 13.3852 1665 155.732 1310.41 419.912
1688 0 127.278 13.9615 1777 148.993 1310.27 423.281
1689 1 71.1744 12.4483 886 150.129 1310.4 452.594
1690 0 71.3123 12.9992 927 146.497 1309.27 453.778
1691 0 75.0956 12.4774 937 145.737 1308.76 450.967
1692 0 77.1038 12.5675 969 145.872 1309.3 450.139
1693 0 79.1128 12.7666 1010 145.702 1310.26 448.861
1694 0 82.1024 12.7524 1047 142.798 1310.14 447.31
1695 0 84.0941 12.819 1078 145.452 1309.7 446.715
1696 0 85.2041 13.1097 1117 146.55 1309.84 446.201
1697 0 89.192 13.2187 1179 137.955 1309.59 444.27
1698 0 91.2986 12.7713 1166 140.065 1309.76 443.411
1699 0 98.6879 14.1963 1401 132.232 1310.33 438.37
1700 0 97.4002 13.2238 1288 140.967 1310.22 438.585
1701 0 102.615 12.7564 1309 141.722 1310.33 437.726
1702 0 104.725 12.6522 1325 145.211 1310.33 436.998
1703 0 107.822 13.1327 1416 144.649 1310.19 435.69
1704 0 110.588 12.8495 1421 140.061 1309.61 433.215
1705 1 64.4982 10.9305 705 133.916 1309.04 457.82
1706 0 65.5527 12.3717 811 137.778 1309.57 453.099
1707 0 67.4578 12.4374 839 140.959 1309.55 455.759
1708 0 71.3689 12.8627 918 139.198 1309.27 453.735
1709 0 73.5642 12.778 940 132.098 1308.37 451.019
1710 0 74.3953 12.9713 965 137.136 1308.62 451.746
1711 0 76.3989 13.0238 995 124.95 1308.66 452.09
1712 0 79.5821 12.8421 1022 132.286 1308.58 449.534
1713 0 80.4469 13.4872 1085 135.658 1308.41 449.222
1714 0 82.5495 13.18 1088 133.92 1308.54 449.473
1715 0 84.4078 13.6362 1151 136.652 1308.91 448.503
1716 0 87.7165 13.4638 1181 135.794 1308.02 445.854
1717 0 89.8261 13.3814 1202 133.918 1308.22 446.151
1718 0 92.9234 12.9784 1206 135.608 1308.58 444.902
1719 0 93.4935 13.4662 1259 133.829 1308.35 443.238
1720 0 98.4925 13.6152 1341 127.346 1307.27 442.015
1721 0 101.506 13.5558 1376 127.866 1308.01 439.75
1722 0 105.623 13.1789 1392 133.489 1307.98 437.636
1723 0 108.384 13.3692 1449 138.403 1307.29 436.611
1724 0 111.43 13.2639 1478 125.327 1307.49 436.022
1725 0 113.621 13.5978 1545 140.743 1307.47 433.565
1726 0 117.569 13.2178 1554 139.791 1307.5 432.37
1727 0 119.782 13.7249 1644 142.268 1306.99 429.481
1728 1 67.588 11.2742 762 140.621 1307.73 455.974
1729 0 70.7594 12.0267 851 146.458 1307.36 454.502
1730 0 72.3802 12.6692 917 142.164 1306.46 452.495
1731 0 75.6255 12.4958 945 138.145 1305.84 451.181
1732 0 77.83 12.2703 955 137.126 1305.9 449.771
1733 0 80.5926 12.4453 1003 135.861 1305.81 449.761
1734 0 82.6394 12.7421 1053 137.817 1305.45 449.025
1735 0 83.6234 12.9748 1085 133.942 1305.11 447.68
1736 0 87.6104 12.567 1101 136.205 1305.44 446.447
1737 0 88.8368 13.0351 1158 132.633 1305.06 445.427
1738 0 93.6872 13.0968 1227 136.387 1305.4 442.792
1739 0 95.5896 12.7838 1222 136.973 1305.72 441.333
1740 0 99.6086 13.041 1299 131.175 1306.14 439.356
1741 0 102.484 13.1143 1344 137.103 1305.84 439.211
1742 0 102.684 13.2152 1357 139.499 1304.86 437.938
1743 0 105.415 13.3188 1404 142.138 1305.02 436.508
1744 0 109.754 13.02 1429 144.425 1305.39 436.442
1745 0 113.534 13.5379 1537 140.465 1305.06 432.487
1746 0 117.621 13.5264 1591 132.784 1304.84 432.552
1747 0 119.428 13.6735 1633 140.193 1305.25 430.949
1748 0 122.774 13.4719 1654 138.536 1305.11 428.59
1749 1 68.3918 11.7412 803 141.626 1304.98 455.756
1750 0 72.3563 12.5628 909 130.317 1305.59 454.657
1751 0 73.3387 12.9263 948 136.082 1305.04 453.77
1752 0 77.428 12.5665 973 136.415 1306.73 453.409
1753 0 79.273 12.93 1025 125.15 1307.03 451.915
1754 0 81.3632 12.3274 1003 133.783 1307.67 450.636
1755 0 85.3067 12.332 1052 131.336 1307.34 449.487
1756 0 86.3875 12.3976 1071 131.107 1307.49 448.531
1757 0 89.5346 12.5538 1124 130.255 1305.6 445.112
1758 0 91.3802 12.9021 1179 114.197 1305.56 444.383
1759 0 95.2737 12.1335 1156 129.004 1306.58 443.33
1760 0 96.437 12.5263 1208 131.281 1307.28 442.219
1761 0 100.421 12.826 1288 130.445 1306.71 439.67
1762 0 102.459 12.5709 1288 131.299 1307.02 439.637
1763 0 105.536 12.8487 1356 133.271 1306.62 437.412
1764 0 108.568 12.3332 1339 130.673 1306.38 436.087
1765 0 112.462 13.0178 1464 129.625 1306.81 434.072
1766 0 116.185 13.3322 1549 130.227 1307.01 431.651
1767 0 120.438 12.3466 1487 136.089 1307.2 431.324
1768 1 65.1974 11.3962 743 133.681 1306.99 458.092
1769 0 68.2232 11.6089 792 135.429 1306.62 456.271
1770 0 70.185 12.4243 872 133.628 1306.41 454.226
1771 0 71.5351 12.2457 876 127.029 1306.77 453.292
1772 0 74.3504 12.6832 943 124.246 1307.81 455.078
1773 0 78.3895 13.0375 1022 126.568 1308.06 453.699
1774 0 80.3544 12.9675 1042 131.087 1308.11 453.122
1775 0 82.3523 12.9565 1067 131.652 1307.73 452.375
1776 0 84.3009 12.8943 1087 124.296 1307.67 450.658
1777 0 86.2632 13.111 1131 126.178 1307.83 449.532
1778 0 90.3717 13.1568 1189 124.938 1308.23 447.454
1779 0 93.4853 12.8897 1205 125.891 1307.78 446.874
1780 0 95.3815 13.1682 1256 119.83 1308.23 445.007
1781 0 97.4892 13.5194 1318 125.538 1308.21 443.398
1782 0 101.646 13.183 1340 120.026 1308.08 442.119
1783 0 104.617 13.2579 1387 129.308 1308.2 439.434
1784 0 106.597 13.6776 1458 126.528 1308.5 440.348
1785 0 110.467 13.4791 1489 123.289 1309.02 437.995
1786 0 114.619 13.7761 1579 126.088 1308.83 434.541
1787 0 116.811 13.4234 1568 127.62 1309.27 434.088
1788 0 122.652 13.2 1619 129.805 1309.77 431.172
1789 1 65.6106 12.6047 827 125.48 1308.62 457.054
1790 0 70.6644 12.4108 877 127.268 1308.92 455.065
1791 0 70.4032 13.3233 938 128.197 1308.71 451.049
1792 0 72.4806 13.0104 943 131.434 1308.63 450.394
1793 0 75.5728 13.3646 1010 123.494 1308.7 450.309
1794 0 77.7118 13.8589 1077 136.128 1309.19 450.669
1795 0 79.6297 13.613 1084 137.432 1308.83 451.351
1796 0 79.6297 13.613 1084 169.638 1308.83 451.351
1797 0 85.7167 13.8013 1183 129.5 1307.69 447.181
1798 0 87.7553 13.5376 1188 135.648 1308.55 447.508
1799 0 90.8055 13.3802 1215 131.874 1308.71 446.235
1800 0 92.5881 14.0083 1297 137.756 1309.26 444.923
1801 0 95.7743 13.5945 1302 141.006 1308.89 444.926
1802 0 100.661 14.3154 1441 134.341 1308.81 441.463
1803 0 103.81 13.8041 1433 135.857 1308.85 441.379
1804 0 105.732 14.3476 1517 132.307 1308.52 439.142
1805 0 109.55 14.0575 1540 142.29 1308.05 436.839
1806 1 62.4994 12.8801 805 140.394 1307.73 460.155
1807 0 62.4326 13.6627 853 140.122 1308.89 460.492
1808 0 64.471 13.634 879 137.572 1308.28 459.562
1809 0 66.6197 13.9899 932 138.835 1308.61 457.587
1810 0 68.7082 13.7975 948 136.564 1308.04 455.482
1811 0 71.7266 13.9558 1001 137.667 1308 455.193
1812 0 72.839 14.2643 1039 139.321 1307.72 454.368
1813 0 75.8719 13.8787 1053 136.778 1307.96 453.448
1814 0 76.8459 14.5486 1118 135.879 1308.05 451.965
1815 0 79.7533 14.2815 1139 140.632 1307.93 451.234
1816 0 80.9892 14.6069 1183 123.423 1308.17 451.626
1817 0 84.4969 14.9591 1264 138.958 1307.66 450.465
1818 0 85.5542 14.8561 1271 130.861 1307.4 448.686
1819 0 89.7397 14.6201 1312 137.229 1306.74 447.843
1820 0 89.5767 15.2495 1366 137.368 1306.92 447.774
1821 0 93.5751 14.63 1369 136.514 1306.98 445.423
1822 0 94.4539 15.2667 1442 134.055 1306.84 444.256
1823 0 99.502 15.1756 1510 138.276 1307.35 442.707
1824 0 100.293 15.0958 1514 133.654 1306.46 441.736
1825 0 105.395 15.181 1600 126.59 1306 440.782
1826 0 108.365 15.0787 1634 137.112 1306.03 440.468
1827 0 110.587 15.4358 1707 137.681 1307.11 438.598
1828 0 114.4 15.2273 1742 136.906 1306.72 437.932
1829 0 117.595 15.1452 1781 49.4559 1307.07 436.427
1830 0 121.619 14.9648 1820 140.702 1306.65 435.356
1831 0 126.557 15.3053 1937 140.267 1306.45 432.534
1832 0 129.203 15.3015 1977 138.808 1306.19 430.573
1833 1 68.3896 14.666 1003 138.866 1306.35 459.602
1834 0 70.7114 14.7784 1045 148.92 1306.18 459.183
1835 0 72.2971 15.3118 1107 145.117 1305.27 458.836
1836 0 74.2654 15.2022 1129 149.056 1306.39 457.36
1837 0 76.3907 15.316 1170 149.914 1305.19 456.302
1838 0 80.2052 15.5227 1245 138.883 1305.3 454.62
1839 0 80.2898 15.4939 1244 149.087 1305.14 454.179
1840 0 84.2915 15.3871 1297 147.74 1305.31 452.056
1841 0 85.1788 15.4381 1315 150.94 1305.85 451.21
1842 0 89.2813 15.5128 1385 151.18 1305.19 451.028
1843 0 93.3082 15.3899 1436 154.214 1306.19 450.23
1844 0 95.2915 15.5208 1479 155.588 1305.6 448.871
1845 0 97.3952 15.8427 1543 149.415 1305.82 446.888
1846 0 101.314 15.7629 1597 159.149 1306.24 445.649
1847 0 104.319 15.213 1587 164.686 1305.6 445.557
1848 0 106.301 15.87 1687 158.27 1305.86 443.268
1849 0 112.283 15.2917 1717 160.296 1306.34 441.935
1850 0 117.371 15.3785 1805 159.211 1305.35 440.137
1851 0 122.548 15.4715 1896 154.846 1305.82 436.919
1852 0 125.727 15.5496 1955 162.331 1305.79 435.051
1853 1 68.2121 15.5104 1058 171.449 1306 460.223
1854 0 72.6231 15.5185 1127 159.893 1305.07 459.084
1855 0 74.3413 16.0073 1190 163.913 1305.99 457.776
1856 0 78.4294 15.5427 1219 165.546 1305.23 456.163
1857 0 82.2706 15.2181 1252 166.153 1305.41 454.409
1858 0 83.1858 15.9162 1324 154.742 1305.13 452.574
1859 0 86.4693 15.6009 1349 166.115 1305.29 450.265
1860 0 89.4903 15.6442 1400 167.066 1305.78 450.626
1861 0 92.4309 15.6982 1451 163.492 1305.53 449.158
1862 0 95.3883 15.6728 1495 165.743 1305.54 447.627
1863 0 98.4835 15.5153 1528 164.618 1306.3 445.527
1864 0 102.272 15.8206 1618 165.695 1305.53 443
1865 0 104.291 15.3609 1602 161.483 1305.05 440.674
1866 0 109.437 15.5523 1702 164.601 1304.97 438.699
1867 0 114.443 15.4225 1765 163.523 1306.2 436.699
1868 0 119.561 15.741 1882 159.351 1305.5 433.242
1869 1 64.2989 15.0391 967 160.87 1305.5 459.836
1870 0 65.1886 15.4168 1005 161.756 1306.11 458.436
1871 0 69.4695 15.2009 1056 161.705 1306.22 456.607
1872 0 71.1831 15.4812 1102 163.62 1306.49 455.133
1873 0 76.2059 15.5237 1183 154.214 1306.69 453.898
1874 0 77.2538 15.8309 1223 158.06 1306.91 451.493
1875 0 80.4221 15.3316 1233 153.911 1306.43 450.746
1876 0 83.1778 15.4969 1289 163.197 1306.26 449.596
1877 0 86.3173 15.4778 1336 165.29 1306.47 448.29
1878 0 89.4323 15.453 1382 167.532 1306.71 447.103
1879 0 92.5381 15.6476 1448 160.131 1306.88 444.77
1880 0 95.4037 14.947 1426 169.634 1307.25 444.366
1881 0 99.2976 15.378 1527 161.243 1307.78 442.534
1882 0 103.708 15.1289 1569 166.848 1307.62 440.307
1883 0 108.481 15.0442 1632 166.963 1307.48 437.224
1884 1 59.431 14.2182 845 162.226 1306.91 460.257
1885 0 60.5557 14.5651 882 156.2 1307.54 459.925
1886 0 61.4116 14.8343 911 166.573 1308.34 458.573
1887 0 66.2473 14.144 937 167.072 1308.83 457.169
1888 0 68.1914 14.43 984 162.78 1308.84 456.577
1889 0 70.3669 14.5239 1022 160.3 1308.96 454.668
1890 0 73.4588 14.4026 1058 161.42 1309.34 454.088
1891 0 74.2722 14.972 1112 165.191 1309.44 452.677
1892 0 77.4747 14.8048 1147 41.6199 1309.85 450.722
1893 0 80.1816 14.5919 1170 166.205 1309.57 449.011
1894 0 84.2189 14.6879 1237 170.257 1310.54 448.314
1895 0 84.2189 14.6879 1237 180.655 1311.54 448.314
1896 0 88.2184 15.0195 1325 166.928 1310.21 446.638
1897 0 90.2411 14.8269 1338 169.478 1310.11 444.759
1898 0 94.2734 14.6807 1384 158.494 1310.36 443.169
1899 0 95.412 14.6627 1399 169.067 1309.7 441.613
1900 0 98.2735 14.5716 1432 161.589 1309.6 440.955
1901 0 103.473 14.6801 1519 167.969 1309.87 439.641
1902 0 105.428 14.5787 1537 162.508 1309.67 438.473
1903 0 110.737 14.4487 1600 166.481 1309.4 436.431
1904 1 61.0534 12.8248 783 157.434 1308.46 458.962
1905 0 62.0623 13.0675 811 156.097 1308.56 457.92
1906 0 65.1097 12.8092 834 146.414 1308.45 456.754
1907 0 68.175 12.8493 876 151.329 1308.89 455.266
1908 0 70.1493 13.3002 933 146.627 1308.62 454.715
1909 0 70.2113 13.4451 944 144.637 1308.43 453.252
1910 0 75.1003 13.2623 996 145.264 1309.02 452.316
1911 0 76.0726 13.4214 1021 152.22 1309.1 451.786
1912 0 79.2467 12.9469 1026 142.53 1309.11 450.314
1913 0 82.4258 13.1755 1086 147.13 1308.34 448.097
1914 0 84.3456 13.3854 1129 150.993 1308.32 447.166
1915 0 87.6446 13.5319 1186 147.156 1307.6 444.907
1916 0 90.7219 13.4477 1220 149.072 1307.58 443.749
1917 0 92.7294 13.8575 1285 145.558 1307.04 443.221
1918 0 96.4523 13.3848 1291 149.262 1308.25 442.115
1919 0 97.594 14.0377 1370 141.204 1307.89 439.638
1920 0 102.495 13.5909 1393 149.413 1307.59 438.927
1921 0 105.459 13.7683 1452 150.545 1308.07 438.005
1922 0 108.674 13.6556 1484 150.213 1308.06 435.976
1923 0 114.716 13.3024 1526 148.836 1306.53 433.919
1924 1 64.6187 12.0708 780 144.049 1306.64 458.483
1925 0 67.5193 12.0854 816 144.912 1306.26 457.46
1926 0 69.5818 12.6039 877 88.7697 1305.57 455.325
1927 0 72.3504 12.5086 905 143.941 1305.96 454.53
1928 0 75.7292 12.373 937 140.59 1306.9 453.354
1929 0 75.3345 12.7033 957 139.071 1306.68 451.907
1930 0 79.3036 12.8367 1018 143.304 1305.56 450.962
1931 0 82.6479 12.5956 1041 140.262 1305.85 450.146
1932 0 85.5493 13.1269 1123 138.224 1305.74 447.102
1933 0 90.5982 12.8038 1160 139.887 1306.85 445.999
1934 0 90.7084 12.689 1151 144.341 1306.68 445.666
1935 0 94.5616 12.8382 1214 137.726 1306.66 443.755
1936 0 96.8894 12.5814 1219 144.485 1306.85 441.941
1937 0 100.77 12.7518 1285 140.937 1307.01 440.73
1938 0 103.572 12.2716 1271 150.308 1305.44 440.592
1939 1 58.699 11.2779 662 142.458 1305.4 462.242
1940 0 60.4852 11.3747 688 138.363 1305.21 462.756
1941 0 60.4986 11.7358 710 148.508 1306.34 462.194
1942 0 64.5398 12.2095 788 145.352 1305.98 459.782
1943 0 67.32 12.2846 827 143.92 1305.59 458.927
1944 0 68.6116 12.4323 853 144.574 1305.8 457.917
1945 0 71.515 11.9695 856 146.105 1305.89 457.006
1946 0 71.7812 12.2177 877 146.636 1305.63 455.901
1947 0 75.6381 12.4144 939 144.721 1304.57 454.641
1948 0 78.6702 12.4571 980 148.039 1304.58 453.185
1949 0 80.7327 12.3866 1000 145.465 1303.56 452.163
1950 0 83.6416 12.2308 1023 150.459 1304.73 450.419
1951 0 85.9745 12.5851 1082 149.14 1303.79 449.229
1952 0 86.5569 12.6391 1094 150.039 1304.37 448.589
1953 0 89.6362 12.5619 1126 153.946 1304.37 446.53
1954 0 92.6605 12.5188 1160 148.945 1304.28 445.362
1955 0 97.8684 12.6905 1242 152.866 1304.2 443.523
1956 0 100.775 12.1657 1226 152.62 1305.04 441.716
1957 0 103.617 12.7296 1319 155.16 1304.39 440.127
1958 1 57.3356 11.0926 636 151.887 1304.68 463.258
1959 0 58.2178 11.1993 652 153.873 1304.13 463.791
1960 0 59.1939 11.7242 694 152.058 1305 464.14
1961 0 57.1786 12.3997 709 156.276 1305.31 465.024
1962 0 59.211 12.447 737 147.623 1305.47 463.744
1963 0 61.3188 12.5899 772 153.411 1306.22 461.874
1964 0 64.2399 12.5623 807 153.131 1306.25 460.237
1965 0 66.3093 12.0043 796 155.408 1305.09 460.33
1966 0 68.3454 12.9197 883 149.008 1304.64 457.959
1967 0 68.396 12.8224 877 152.218 1306.02 456.838
1968 0 72.4935 12.4839 905 146.764 1305.67 456.076
1969 0 73.3336 13.2 968 150.98 1305.66 454.337
1970 0 78.3729 12.5171 981 152.668 1304.86 453.574
1971 0 80.3824 12.9879 1044 143.696 1304.64 452.383
1972 0 81.231 12.6676 1029 148.212 1304.94 451.299
1973 0 83.4569 13.0486 1089 149.735 1304.08 449.516
1974 0 86.4256 13.0748 1130 151.575 1304.51 448.734
1975 0 89.2699 12.9047 1152 146.089 1304.53 447.391
1976 0 90.3969 12.8434 1161 152.463 1304.48 445.363
1977 0 93.4533 13.0011 1215 154.829 1305.21 443.688
1978 0 96.3391 13.3694 1288 153.866 1305.6 442.349
1979 0 99.2787 13.3765 1328 150.215 1305.58 441.677
1980 0 101.304 13.1387 1331 155.046 1306.07 440.101
1981 0 103.215 13.2248 1365 154.022 1305.56 439.116
1982 0 106.296 13.1614 1399 152.987 1305.5 437.705
1983 0 108.279 13.2343 1433 153.381 1305.26 436.753
1984 0 111.254 13.7164 1526 149.936 1306.3 434.935
1985 0 116.313 13.5324 1574 143.183 1306.12 432.378
1986 0 119.179 13.5427 1614 148.6 1305.9 429.623
1987 0 124.269 13.2052 1641 143.897 1305.77 427.359
1988 0 127.325 13.3281 1697 142.95 1306.83 425.229
1989 0 134.176 13.1692 1767 143.586 1307.47 423.402
1990 0 136.482 13.6721 1866 142.102 1308.14 420.274
1991 0 141.399 13.3876 1893 137.484 1308.68 419.889
1992 0 145.601 13.4821 1963 147.273 1308.62 416.924
1993 1 76.3921 11.3755 869 141.125 1308.74 452.396
1994 0 80.2312 11.1179 892 135.242 1308.83 452.015
1995 0 82.3665 12.0437 992 136.823 1308.89 448.4
1996 0 86.3849 11.9465 1032 139.922 1308.38 447.314
1997 0 88.3507 12.0429 1064 139.196 1308.25 444.704
1998 0 89.59 11.9321 1069 140.355 1308.34 444.169
1999 0 92.5823 12.497 1157 137.701 1308.86 442.042
2000 0 95.4981 12.4296 1187 136.952 1308.6 441.469
2001 0 98.8951 12.488 1235 128.494 1308.52 439.44
2002 0 100.501 12.6367 1270 132.25 1308.43 436.946
2003 0 103.481 12.4177 1285 134.298 1308.42 436.056
2004 0 105.494 12.304 1298 137.722 1308.19 434.089
2005 0 110.399 12.5726 1388 135.208 1307.69 433.206
2006 0 113.59 12.4306 1412 136.098 1307.86 431.958
2007 0 118.566 12.3054 1459 130.914 1308.43 430.21
2008 0 122.608 12.438 1525 133.276 1307.72 424.539
2009 1 72.4602 10.2677 744 129.495 1307.81 453.769
2010 0 73.1783 11.3285 829 126.648 1308.45 452.72
2011 0 75.1516 11.55 868 124.823 1307.85 452.524
2012 0 77.3028 11.8107 913 125.965 1307.13 450.225
2013 0 78.3143 11.6581 913 127.356 1307.03 450.495
2014 0 82.3967 11.0805 913 128.356 1306.64 448.642
2015 0 84.3875 11.4353 965 124.721 1307.27 447.505
2016 0 86.2956 11.8778 1025 126.899 1306.77 445.364
2017 0 89.4017 11.7895 1054 120.986 1307.12 444.41
2018 0 93.3546 11.8259 1104 122.953 1306.67 443.408
2019 0 94.6589 11.9799 1134 127.458 1306.11 442.08
2020 0 97.519 12.1515 1185 122.089 1305.86 441.298
2021 0 100.328 12.2398 1228 119.7 1306.35 438.702
2022 0 104.759 12.1899 1277 120.068 1306.71 436.245
2023 0 106.76 13.1042 1399 127.622 1306.77 431.908
2024 0 111.657 12.6817 1416 125.165 1305.76 432.947
2025 0 113.612 12.6308 1435 127.468 1305.81 432.297
2026 1 60.4244 11.3861 688 126.554 1305.8 460.151
2027 0 62.3998 11.9231 744 126.797 1306.77 459.446
2028 0 63.2123 12.3235 779 125.567 1307.65 459.136
2029 0 65.256 12.1675 794 129.9 1307.29 457.885
2030 0 66.5137 12.7192 846 129.475 1306.18 456.518
2031 0 69.1978 12.6449 875 129.496 1306.6 454.993
2032 0 71.2425 12.675 903 132.982 1306.05 454.059
2033 0 70.6494 13.0079 919 134.523 1305.11 451.473
2034 0 74.4918 12.8739 959 134.076 1305.67 452.009
2035 0 78.5635 13.0722 1027 133.119 1305.79 449.376
2036 0 79.7244 12.8819 1027 133.833 1305.78 448.478
2037 0 82.5447 13.0354 1076 123.677 1304.73 448.017
2038 0 85.6937 13.1398 1126 132.188 1305 446.807
2039 0 87.6072 12.9556 1135 134.527 1305.18 445.351
2040 0 91.5495 13.9924 1281 125.961 1305.01 442.764
2041 0 90.4907 13.3384 1207 132.249 1304.65 442.657
2042 0 95.4917 13.2472 1265 130.27 1304.83 441.095
2043 0 97.3881 13.3384 1299 130.959 1304.21 439.885
2044 0 100.345 13.1547 1320 134.934 1305.21 439.44
2045 0 103.219 13.0984 1352 140.457 1305.73 437.359
2046 0 105.27 13.4321 1414 135.794 1305.98 435.127
2047 1 58.1751 11.9467 695 133.167 1304.2 462.344
2048 0 57.0269 11.854 676 133.414 1304.33 457.932
2049 0 59.0657 11.5126 680 135.925 1303.35 457.556
2050 0 61.0817 12.0003 733 133.599 1303.77 457.302
2051 0 62.0554 11.6186 721 130.304 1304.81 457.055
2052 0 66.1411 12.3826 819 134.046 1307.82 459.824
2053 0 65.1187 12.4235 809 135.109 1306.32 459.054
2054 0 70.1125 12.3088 863 135.048 1306.34 457.831
2055 0 72.0795 12.1671 877 144.886 1306.08 456.457
2056 0 73.1281 12.567 919 138.688 1306.3 456.35
2057 0 76.2018 12.8606 980 140.048 1306.24 455.465
2058 0 78.1167 12.5837 983 138.982 1306.13 453.648
2059 0 79.093 12.9341 1023 131.2 1305.9 452.311
2060 0 81.1081 13.1429 1066 136.364 1305.32 451.268
2061 0 83.1383 13.3152 1107 138.024 1305.85 450.286
2062 0 87.1917 12.4668 1087 136.072 1306.19 448.909
2063 0 89.1121 13.0959 1167 128.159 1305.88 447.148
2064 0 91.1256 13.1028 1194 132.328 1305.82 446.106
2065 0 96.1377 12.7109 1222 133.455 1306.51 444.069
2066 0 98.2556 13.6684 1343 133.101 1305.92 441.596
2067 0 101.085 13.2958 1344 130.656 1305.66 441.092
2068 0 104.091 13.2864 1383 132.046 1306.24 439.402
2069 0 109.244 13.09 1430 118.51 1305.76 437.725
2070 0 110.325 12.9526 1429 123.299 1305.11 436.589
2071 0 115.19 13.2217 1523 129.049 1305.24 433.923
2072 1 67.1486 12.0628 810 126.628 1306.25 459.056
2073 0 68.1294 11.9478 814 127.193 1305.35 457.658
2074 0 70.1557 12.1159 850 122.071 1305.08 456.016
2075 0 71.0967 12.6869 902 123.962 1305.66 456.054
2076 0 73.0543 12.7029 928 119.683 1305.98 454.568
2077 0 75.2347 12.667 953 126.069 1306.37 452.85
2078 0 77.1913 12.4366 960 120.584 1306.06 451.438
2079 0 79.1809 12.7303 1008 120.303 1306.17 450.594
2080 0 83.1398 12.6895 1055 116.774 1306.79 449.342
2081 0 84.1804 12.7583 1074 114.392 1307.19 448.823
2082 0 89.1906 12.6471 1128 113.034 1307.4 447.457
2083 0 91.3263 12.7236 1162 115.446 1307.62 446.596
2084 0 93.2453 12.5476 1170 115.172 1307.56 445.272
2085 0 96.2182 12.8874 1240 116.193 1307.89 441.526
2086 0 101.483 13.017 1321 106.569 1308.34 440.02
2087 0 102.34 13.1522 1346 117.377 1308.11 438.677
2088 0 105.183 12.6446 1330 117.003 1308.33 436.826
2089 0 107.246 13.4551 1443 118.348 1308.56 437.01
2090 0 112.388 12.8039 1439 114.07 1308.63 434.17
2091 0 113.106 13.032 1474 119.621 1308.55 432.783
2092 0 118.244 13.2522 1567 113.094 1308.43 430.334
2093 0 121.228 13.454 1631 117.486 1308.5 428.837
2094 1 64.1594 11.5338 740 116.236 1307.89 458.469
2095 0 65.2248 12.2346 798 110.362 1308.72 455.977
2096 0 67.1932 12.5013 840 109.94 1306.85 456.083
2097 0 70.2778 12.4791 877 115.421 1307.05 454.133
2098 0 71.1969 12.2618 873 115.961 1307.84 452.716
2099 0 76.2005 12.1784 928 110.293 1308 452.456
2100 0 77.0838 12.3372 951 110.483 1308.84 451.412
2101 0 79.1927 12.2486 970 113.445 1308.34 449.314
2102 0 83.1345 12.6542 1052 111.876 1308.42 447.863
2103 0 85.2394 12.3182 1050 112.284 1308.63 445.715
2104 0 89.3507 12.4677 1114 111.103 1308.5 443.971
2105 0 91.1768 12.4922 1139 108.714 1309.13 443.452
2106 0 93.316 12.7309 1188 108.168 1309.81 441.398
2107 0 95.1988 12.6157 1201 108.798 1309.15 439.153
2108 1 51.1005 10.9001 557 103.562 1308.76 460.639
2109 0 53.3673 10.943 584 104.534 1310.36 459.229
2110 0 54.262 11.4998 624 99.5208 1310.36 458.657
2111 0 57.1348 11.8492 677 100.616 1309.58 458.199
2112 0 58.0879 11.6892 679 101.566 1308.4 458.885
2113 0 59.115 11.9936 709 99.6855 1310.35 457.983
2114 0 61.0842 12.3109 752 101.064 1310.61 456.412
2115 0 63.0746 11.9541 754 99.8156 1311.3 455.534
2116 0 64.0494 12.3811 793 101.551 1311.57 455.55
2117 0 67.1085 12.0402 808 104.443 1311.14 455.417
2118 0 69.17 11.8549 820 103.917 1310.94 453.861
2119 0 70.145 12.5027 877 101.893 1310.61 452.426
2120 0 73.112 12.2415 895 104.013 1311.21 453.252
2121 0 75.0734 12.4678 936 104.74 1310.5 451.006
2122 0 77.0523 12.3812 954 105.248 1310.58 449.85
2123 0 82.0673 12.1486 997 103.398 1310.42 447.466
2124 0 85.1015 12.1972 1038 104.359 1310.8 446.529
2125 0 85.1015 12.1972 1038 154.395 1310.8 446.529
2126 0 91.0619 12.4531 1134 101.742 1310.85 443.492
2127 0 92.0816 12.2066 1124 105.648 1310.65 442.757
2128 0 97.0957 12.431 1207 105.287 1310.93 440.924
2129 1 50.0511 11.4283 572 106.185 1310.32 464.087
2130 0 53.2891 11.3344 604 111.189 1311.63 462.043
2131 0 55.0912 11.49 633 103.488 1310.82 463.005
2132 0 55.1748 11.5451 637 100.232 1310.25 461.903
2133 0 55.0601 12.3683 681 103.399 1310.37 461.038
2134 0 58.1331 12.1273 705 102.699 1311.01 460.504
2135 0 58.2039 12.5249 729 100.52 1310.15 459.82
2136 0 61.0445 11.9257 728 100.816 1309.91 458.923
2137 0 63.1215 12.2462 773 107.706 1308.35 458.591
2138 0 65.2584 12.2896 802 101.945 1308.78 456.281
2139 0 66.1059 12.5556 830 104.57 1309.99 456.269
2140 0 69.1445 12.6547 875 98.7463 1309.25 454.673
2141 0 71.0757 12.5219 890 102.724 1308.29 453.752
2142 0 73.1326 12.2654 897 108.476 1307.88 452.304
2143 0 74.2408 12.877 956 100.26 1308.48 451.55
2144 0 76.1672 12.7614 972 132.652 1308.47 450.592
2145 0 80.3013 12.615 1013 136.028 1308.58 448.58
2146 0 83.1877 12.9586 1078 133.951 1308.26 447.718
2147 0 85.2471 12.8567 1096 134.78 1308.79 446.558
2148 0 88.1911 12.9378 1141 136.178 1308.29 446.89
2149 0 90.1533 12.7228 1147 148.917 1308.29 444.618
2150 0 91.2153 13.1338 1198 148.614 1307.8 443.149
2151 0 96.2349 13.1345 1264 144.635 1308.39 441.551
2152 1 49.1314 11.8661 583 141.158 1309.48 464.813
2153 0 51.1713 11.5104 589 153.402 1309.66 464.666
2154 0 52.0363 12.1838 634 147.203 1310.2 463.849
2155 0 54.0163 12.3296 666 148.216 1309.8 462.958
2156 0 55.0239 12.5036 688 143.388 1309.7 463.706
2157 0 56.0508 12.5779 705 146.892 1309.69 462.122
2158 0 57.0731 13.1586 751 147.438 1309.65 461.879
2159 0 60.0668 12.5527 754 153.243 1309.66 461.188
2160 0 62.1139 12.6703 787 153.351 1309.92 459.887
2161 0 64.062 13.0186 834 144.391 1310.08 459.522
2162 0 66.0311 12.6001 832 156.413 1309.38 458.662
2163 0 68.0356 12.3759 842 157.017 1308.82 457.222
2164 0 69.0497 13.1065 905 154.684 1308.93 457.244
2165 0 70.2421 12.9694 911 147.808 1308.36 456.435
2166 0 73.1941 12.6513 926 157.039 1308.21 455.46
2167 0 74.2079 12.8962 957 161.068 1307.62 453.532
2168 0 76.3024 13.1451 1003 158.876 1308.03 452.491
2169 0 79.1981 13.3463 1057 155.07 1308.39 451.11
2170 0 81.1894 13.253 1076 154.168 1308.48 450.464
2171 0 82.146 13.4638 1106 158.558 1308.3 449.608
2172 0 86.1244 13.2483 1141 155.114 1307.85 449.182
2173 0 89.1444 13.237 1180 155.106 1306.94 447.458
2174 0 92.2694 13.9049 1283 157.381 1307.03 445.571
2175 0 94.3257 13.8562 1307 144.551 1307.59 444.568
2176 0 97.1313 13.7031 1331 162.922 1306.9 444.036
2177 0 101.325 13.9156 1410 154.677 1305.43 439.471
2178 0 104.42 13.8479 1446 153.201 1305.82 438.741
2179 0 106.409 13.5515 1442 160.528 1306.82 436.75
2180 1 57.1171 11.9579 683 153.079 1305.74 461.801
2181 0 60.1321 12.3728 744 157.172 1305.13 462.759
2182 0 62.1618 12.3709 769 156.057 1304.38 461.913
2183 0 62.0962 12.6578 786 151.912 1304.39 461.497
2184 0 64.2279 12.8293 824 153.125 1304.93 460.296
2185 0 67.1014 12.6525 849 155.172 1306.63 460.412
2186 0 68.1265 12.5795 857 151.343 1306.02 459.421
2187 0 69.0573 13.0471 901 159.696 1306.09 458.464
2188 0 72.1451 12.9184 932 157.668 1305.93 457.691
2189 0 72.2281 12.9866 938 162.64 1306.96 456.33
2190 0 77.1606 13.1285 1013 157.228 1307.08 455.054
2191 0 79.1603 13.2137 1046 159.989 1307.22 453.62
2192 0 81.3959 12.9736 1056 160.077 1306.28 451.884
2193 0 83.1409 13.2787 1104 160.148 1306.82 449.983
2194 0 87.1651 13.0442 1137 159.012 1307.94 448.57
2195 0 88.2777 13.4915 1191 164.036 1307.56 447.92
2196 0 92.1543 13.0433 1202 154.88 1306.62 446.611
2197 0 94.2339 13.2012 1244 152.639 1306.6 444.748
2198 0 99.3674 13.0526 1297 152.025 1306.79 443.832
2199 1 54.0703 12.3173 666 156.486 1307.52 465.231
2200 0 54.1843 12.4944 677 152.838 1307.3 464.176
2201 0 56.1444 12.9131 725 154.694 1305.95 462.537
2202 0 58.0188 12.5304 727 157.011 1307.85 461.043
2203 0 61.0561 12.6932 775 155.326 1307.95 460.95
2204 0 63.0441 12.4516 785 151.778 1307.71 460.069
2205 0 64.0935 12.6846 813 156.621 1307.56 459.399
2206 0 65.1575 13.03 849 157.82 1307.4 457.678
2207 0 67.2682 12.8441 864 159.447 1308.04 457.061
2208 0 68.1839 12.9943 886 160.201 1307.69 455.609
2209 0 71.2015 12.907 919 155.723 1307.74 454.411
2210 0 75.1883 12.6881 954 157.074 1308.17 452.946
2211 0 77.3458 12.6704 980 155.854 1307.78 451.938
2212 0 79.3501 12.9426 1027 154.169 1307.4 448.774
2213 0 82.4345 12.798 1055 149.36 1307.76 447.438
2214 0 87.3482 12.5475 1096 145.392 1307.77 446.07
2215 1 46.0932 11.4334 527 142.391 1308.17 466.679
2216 0 47.0446 11.4785 540 147.92 1309.61 467.615
2217 0 48.0901 11.728 564 140.023 1310.63 467.298
2218 0 51.0827 11.315 578 145.631 1310.63 466.415
2219 0 51.0819 11.5501 590 149.841 1308.38 465.032
2220 0 53.1182 11.5591 614 146.98 1308.04 463.889
2221 0 53.0727 11.5125 611 151.648 1308.55 462.525
2222 0 57.0568 12.1458 693 144.439 1307.98 460.895
2223 0 56.0218 11.9775 671 145.927 1308.6 460.925
2224 0 59.0747 12.0525 712 146.33 1308.67 459.389
2225 0 58.1378 12.8488 747 150.364 1308.57 459.613
2226 0 63.0542 12.6082 795 150.065 1308.38 457.897
2227 0 64.1368 12.6448 811 152.486 1309.34 457.919
2228 0 65.0561 12.4047 807 153.523 1309.53 456.767
2229 0 67.0514 12.6321 847 157.923 1309.42 456.033
2230 0 70.1261 12.4633 874 147.05 1309.24 454.743
2231 0 71.0847 13.0971 931 158.549 1309.42 453.63
2232 0 74.0894 12.6469 937 155.234 1309.44 451.696
2233 0 75.1017 12.4098 932 153.442 1309.43 451.538
2234 0 76.1147 11.8637 903 162.099 1309.42 450.569
2235 1 40.2456 10.6099 427 157.318 1309.68 468.913
2236 0 41.2992 10.9445 452 155.296 1310.21 469.131
2237 0 44.179 11.0912 490 156.641 1309.76 468.306
2238 0 46.283 11.3001 523 152.14 1309.43 467.579
2239 0 45.1699 11.6449 526 154.432 1309.31 466.958
2240 0 46.1682 12.1512 561 154.223 1309.33 465.827
2241 0 48.1427 11.819 569 149.814 1309.29 465.482
2242 0 51.2538 11.5894 594 151.7 1309.46 465.177
2243 0 51.269 12.0736 619 144.837 1309.71 464.171
2244 0 52.2389 12.1174 633 142.392 1309.49 463.772
2245 0 54.2322 12.3543 670 144.263 1310.22 462.404
2246 0 55.2236 12.2593 677 149.095 1310.14 461.151
2247 0 57.2115 12.2703 702 146.06 1309.8 460.343
2248 0 56.1585 12.4647 700 142.763 1310.13 460.289
2249 0 59.1603 12.4408 736 151.03 1309.13 459.823
2250 0 61.273 12.5014 766 137.121 1309.08 458.021
2251 0 63.2212 12.48 789 140.062 1309.01 457.725
2252 0 66.2156 12.5801 833 135.043 1309.44 456.561
2253 0 68.2392 12.4122 847 132.863 1309.59 455.031
2254 0 70.2523 12.1419 853 129.981 1309.33 454.081
2255 0 72.1515 12.3767 893 137.542 1308.21 452.824
2256 0 74.353 12.5214 931 139.686 1308.92 451.183
2257 0 76.1732 12.1959 929 129.566 1308.76 450.1
2258 0 78.1702 12.4856 976 113.582 1309.1 448.698
2259 0 82.2638 12.0466 991 109.632 1309.36 448.383
2260 0 85.3391 11.9172 1017 111.604 1309.53 446.883
2261 1 46.0709 10.4621 482 112.234 1310.23 465.988
2262 0 46.0448 9.72967 448 129.915 1309.49 466.134
2263 0 47.0706 10.07 474 121.361 1308.4 465.07
2264 0 50.1525 11.3653 570 118.467 1307.25 463.988
2265 0 51.1262 11.5792 592 121.579 1308.75 464.326
2266 0 53.0746 11.5498 613 113.982 1307.78 464.121
2267 0 53.2718 11.5446 615 118.169 1306.55 463.486
2268 0 55.1323 12.1163 668 112.012 1307.44 462.1
2269 0 56.1929 11.7809 662 112.008 1307.5 461.807
2270 0 59.1473 12.1223 717 112.644 1306.48 460.621
2271 0 61.1152 11.7974 721 106.857 1305.52 458.956
2272 0 63.1777 12.0137 759 111.607 1306.96 457.58
2273 0 65.1432 12.3727 806 118.643 1306.28 456.978
2274 0 68.2762 12.0393 822 124.543 1306.64 456.218
2275 0 69.27 12.5162 867 115.839 1306.38 454.196
2276 0 73.2152 12.2925 900 122.158 1306.84 453.698
2277 0 75.2465 12.4524 937 122.142 1306.24 452.494
2278 0 78.2531 12.2423 958 119.956 1306.27 451.511
2279 0 81.3456 12.5145 1018 120.472 1306.06 449.4
2280 0 83.2328 12.3389 1027 123.824 1305.11 448.468
2281 0 86.189 12.519 1079 124.707 1305.94 447.058
2282 0 89.2682 12.4008 1107 129.2 1306.24 447.425
2283 0 91.2806 12.2808 1121 129.531 1305.94 445.83
2284 1 49.1067 10.7317 527 130.681 1307.48 466.702
2285 0 51.1769 11.0597 566 132.067 1308.43 465.477
2286 0 52.1559 12.0408 628 139.584 1308.06 463.965
2287 0 53.2529 11.1731 595 143.921 1306.48 464.808
2288 0 54.3128 11.8204 642 135.47 1307.04 463.316
2289 0 57.3159 11.6896 670 141.212 1306.71 462.018
2290 0 58.1779 11.8602 690 141.019 1306.71 461.188
2291 0 61.1823 11.6864 715 136.33 1307.35 460.515
2292 0 61.2359 11.9864 734 138.292 1306.84 460.977
2293 0 62.3504 12.4779 778 138.883 1306.88 458.992
2294 0 67.2444 12.0902 813 143.528 1307.28 457.114
2295 0 69.1619 12.2032 844 137.808 1306.93 455.707
2296 0 72.2445 12.2777 887 139.496 1306.46 455.326
2297 0 73.12 12.1444 888 143.64 1306.92 453.877
2298 0 73.0675 12.509 914 137.605 1308.25 452.354
2299 0 76.1912 12.5474 956 142.782 1307.29 451.642
2300 0 79.1774 12.3268 976 137.176 1307.54 451.085
2301 0 82.2236 12.3201 1013 143.065 1307.32 447.46
2302 0 85.2642 12.4906 1065 133.929 1307.27 446.1
2303 0 88.23 12.0367 1062 138.401 1307.31 446.368
2304 1 46.0262 11.3197 521 134.313 1307.21 466.388
2305 0 47.0671 11.7067 551 139.508 1307.53 465.655
2306 0 49.0326 12.1348 595 139.103 1307.19 464.998
2307 0 50.1139 12.0924 606 147.018 1308.12 464.581
2308 0 52.0607 12.2933 640 146.084 1308.5 461.728
2309 0 54.0709 12.2617 663 149.205 1308.15 461.471
2310 0 56.0533 12.0064 673 143.37 1308.56 461.878
2311 0 55.063 12.4585 686 146.251 1308.71 459.07
2312 0 57.1114 12.5369 716 143.039 1308.38 458.901
2313 0 60.0367 12.6922 762 141.756 1308.68 458.117
2314 0 61.076 12.378 756 144.198 1309.08 457.745
2315 0 61.0438 12.6958 775 148.048 1309.52 456.025
2316 0 65.0726 12.7704 831 134.105 1309.31 455.566
2317 0 66.0936 12.104 800 139.869 1308.83 454.899
2318 0 66.0705 12.6986 839 139.17 1309.13 454.468
2319 0 71.0365 12.388 880 138.8 1309.44 452.791
2320 0 71.0299 12.5581 892 146.537 1307.64 451.818
2321 0 73.1157 12.9931 950 140.534 1308.73 450.573
2322 0 73.1443 12.988 950 145.383 1309.13 448.564
2323 0 78.2135 12.6704 991 142.954 1308.92 447.511
2324 0 79.1637 12.9226 1023 146.807 1309.74 447.47
2325 0 82.2503 12.7294 1047 147.152 1310.1 445.153
2326 0 85.1883 12.6426 1077 147.249 1310.54 443.524
2327 0 88.1469 12.7401 1123 138.427 1310.33 442.836
2328 0 90.242 12.81 1156 144.822 1309.8 441.397
2329 0 92.176 12.7257 1173 141.932 1310 441.721
2330 0 93.1537 12.3989 1155 138.736 1311.4 439.879
2331 0 97.3195 12.2278 1190 146.209 1310.67 439.625
2332 1 52.2216 11.3172 591 146.037 1310.36 461.904
2333 0 52.3151 11.5263 603 140.259 1310.92 459.733
2334 0 53.1577 12.1337 645 136.893 1310.6 460.13
2335 0 54.0756 12.0202 650 142.515 1310.61 459.752
2336 0 55.1176 12.174 671 144.419 1310.33 458.692
2337 0 55.0934 12.5242 690 134.577 1310.88 458.759
2338 0 57.2378 12.7014 727 137.926 1310.35 456.996
2339 0 58.1254 12.6279 734 140.441 1310.07 456.263
2340 0 61.03 12.3382 753 140.406 1310.22 454.758
2341 0 64.1623 12.858 825 138.424 1310.51 453.775
2342 0 64.1116 12.6966 814 135.744 1310.06 452.783
2343 0 67.1085 12.7555 856 138.777 1310.04 452.389
2344 0 70.1807 12.9095 906 141.606 1310.56 451.051
2345 0 71.1454 12.622 898 133.388 1310.58 450.616
2346 0 74.2239 12.7048 943 150.394 1310.42 449.885
2347 0 76.0596 12.9767 987 151.975 1310.62 449.025
2348 0 78.1553 13.3836 1046 154.828 1310.57 447.384
2349 0 83.108 13.2478 1101 153.008 1310.02 445.68
2350 0 83.108 13.2478 1101 160.037 1311.02 445.68
2351 0 88.2405 13.4972 1191 146.602 1310.92 443.587
2352 0 91.2575 13.4345 1226 145.415 1311.38 443.197
2353 0 95.3966 13.7321 1310 147.563 1311.28 439.158
2354 0 97.3497 13.6005 1324 150.263 1310.51 437.252
2355 0 100.356 13.2727 1332 144.604 1310.5 436.58
2356 1 51.284 11.6606 598 142.637 1311.03 460.988
2357 0 53.42 11.7559 628 146.548 1310.72 460.016
2358 0 53.3717 12.5909 672 140.744 1310.63 459.448
2359 0 56.1108 12.3506 693 141.267 1309.67 461.514
2360 0 58.0971 12.3242 716 136.626 1309.53 459.503
2361 0 61.0624 12.9048 788 138.019 1308.45 459.181
2362 0 62.0257 12.9301 802 140.638 1308.57 459.779
2363 0 64.1058 13.1033 840 136.399 1308.47 458.532
2364 0 66.1711 12.7699 845 137.574 1308.29 455.748
2365 0 67.3674 13.0775 881 137.241 1308.05 455.619
2366 0 70.2026 12.7346 894 138.508 1308.14 454.914
2367 0 72.2624 12.8974 932 132.036 1308.3 453.833
2368 0 75.1268 12.8316 964 141.389 1308.14 453.338
2369 0 78.2616 12.816 1003 135.063 1308.02 451.24
2370 0 79.2905 13.192 1046 127.206 1308.2 450.219
2371 0 81.1851 12.7979 1039 128.93 1307.96 450.823
2372 0 82.0909 13.1074 1076 132.116 1308.1 449.73
2373 0 86.1353 12.8751 1109 134.174 1308.02 448.464
2374 1 46.3343 11.7623 545 131.339 1307.54 467.976
2375 0 47.1289 11.7338 553 132.04 1307.27 468.277
2376 0 47.1206 11.9905 565 141.494 1309.32 466.618
2377 0 50.1038 11.4562 574 143.493 1306.99 464.716
2378 0 51.1259 12.3225 630 143.111 1307.18 466.267
2379 0 51.2177 12.1247 621 147.853 1307.46 465.296
2380 0 52.048 12.4116 646 148.014 1307.94 465.077
2381 0 54.105 12.217 661 146.581 1307.64 465.803
2382 0 54.1603 12.8323 695 146.081 1307.96 464.494
2383 0 56.1811 13.0471 733 145.108 1307.15 462.909
2384 0 59.183 13.2977 787 143.526 1307.64 462.107
2385 0 61.1585 12.999 795 142.886 1307.65 462.084
2386 0 62.323 12.9968 810 147.423 1307.56 462.168
2387 0 63.1246 13.2912 839 145.371 1307.28 461.155
2388 0 66.1563 13.0297 862 149.401 1307.6 459.976
2389 0 69.1852 13.0375 902 149.806 1307.46 458.48
2390 0 70.3684 13.4862 949 147.176 1307.65 457.728
2391 0 73.1303 13.4007 980 151.389 1307.74 457.309
2392 0 75.222 13.2674 998 145.11 1308.21 456.367
2393 0 77.3214 13.5409 1047 155.579 1308.27 454.504
2394 0 80.2952 13.4255 1078 152.058 1308.72 453.869
2395 0 82.4423 13.4882 1112 150.832 1308.52 452.38
2396 0 84.4174 13.5162 1141 153.445 1307.98 450.976
2397 0 87.2091 13.244 1155 150.637 1308.43 449.627
2398 1 47.0634 12.1963 574 154.965 1307.99 469.284
2399 0 49.1205 12.6627 622 148.346 1308.16 468.288
2400 0 50.1575 12.6203 633 152.058 1308.1 468.343
2401 0 50.1508 12.8213 643 142.067 1308.49 467.314
2402 0 52.1762 12.3236 643 146.168 1309.03 467.398
2403 0 52.115 12.9713 676 146.843 1308.92 465.482
2404 0 56.1118 12.5998 707 145.894 1308.66 465.075
2405 0 56.0855 12.7306 714 151.482 1308.79 464.566
2406 0 58.0651 12.6582 735 152.297 1309.5 463.332
2407 0 59.0644 13.2059 780 146.11 1309.23 462.813
2408 0 62.0654 13.1635 817 147.958 1309.3 460.639
2409 0 62.0661 13.0184 808 148.512 1310.03 459.95
2410 0 65.0862 13.3054 866 143.038 1309.77 458.704
2411 0 66.2016 13.0359 863 143.441 1310.21 457.658
2412 0 67.0666 13.4195 900 143.026 1310.13 457.229
2413 0 71.067 12.9315 919 136.486 1309.64 456.26
2414 0 72.0713 13.6531 984 136 1310 455.255
2415 0 72.0713 13.6531 984 170.329 1311 455.255
2416 0 76.0678 13.1462 1000 144.304 1309.05 452.942
2417 0 78.0599 13.4 1046 132.942 1309.15 451.456
2418 0 80.2126 13.0528 1047 142.194 1309.47 451.076
2419 0 82.0842 13.2181 1085 142.593 1309.54 448.884
2420 0 85.0953 12.7387 1084 144.595 1309.69 447.177
2421 0 87.221 13.1505 1147 142.066 1309.77 446.371
2422 0 91.1573 12.8898 1175 133.193 1310.95 445.047
2423 0 94.1632 12.85 1210 135.75 1311.06 442.812
2424 0 95.1854 13.2793 1264 137.665 1310.83 440.74
2425 1 55.2468 11.4034 630 138.024 1310.23 460.395
2426 0 57.1923 11.7848 674 130.371 1310.67 459.92
2427 0 58.1974 12.2686 714 142.161 1311.3 460.043
2428 0 61.1741 12.3091 753 133.271 1311.29 458.432
2429 0 62.0548 12.2634 761 141.192 1309.65 456.869
2430 0 65.1212 12.3769 806 136.347 1309.59 456.047
2431 0 67.2901 12.2009 821 128.666 1310.35 454.415
2432 0 67.2213 12.3473 830 133.117 1310.71 454.525
2433 0 70.1935 12.5938 884 136.742 1310.76 453.828
2434 0 71.1926 13.007 926 133.429 1311.11 452.222
2435 0 74.1587 12.4328 922 133.83 1310.83 451.108
2436 0 77.2298 12.9743 1002 124.433 1310.89 449.581
2437 0 79.1402 13.1033 1037 136.532 1311.18 449.849
2438 0 81.2107 12.8431 1043 135.6 1311.51 448.383
2439 0 84.3266 13.1275 1107 136.141 1311.05 446.159
2440 0 87.3399 12.9265 1129 136.738 1310.81 445.319
2441 1 46.2061 10.3666 479 137.315 1311.49 466.812
2442 0 48.1114 11.4734 552 140.915 1312.24 465.067
2443 0 50.0502 11.5684 579 137.884 1311.59 464.945
2444 0 52.0883 11.8453 617 136.412 1311.87 464.407
2445 0 54.2266 12.3371 669 135.595 1311.57 462.508
2446 0 56.209 12.3824 696 143.591 1310.23 462.003
2447 0 56.2667 12.9384 728 148.279 1310.34 461.474
2448 0 58.2191 12.7965 745 151.342 1310.21 460.654
2449 0 61.1928 12.7629 781 146.122 1310.35 460.512
2450 0 62.1255 13.2474 823 144.677 1310.09 458.999
2451 0 65.1294 12.621 822 148.387 1310.37 458.154
2452 0 66.3457 13.3694 887 146.911 1310.28 456.711
2453 0 69.1303 13.5975 940 143.404 1310.29 455.567
2454 0 71.143 13.5221 962 136.561 1310.07 454.573
2455 0 72.1669 13.6905 988 135.514 1310.4 454.212
2456 0 73.1481 13.876 1015 140.878 1310.85 453.031
2457 0 78.1198 13.7737 1076 139.25 1310.64 452.162
2458 0 81.1112 13.6109 1104 142.493 1310.5 451.135
2459 0 84.2322 13.8071 1163 130.527 1310.28 450.198
2460 0 85.1547 13.9276 1186 141.352 1310.16 448.876
2461 0 88.1316 14.5464 1282 135.095 1310.15 447.171
2462 0 91.2139 13.9781 1275 134.424 1309.86 446.108
2463 0 94.0898 13.8804 1306 137.096 1309.52 444.201
2464 0 97.1748 13.7073 1332 138.203 1309.95 442.914
2465 0 101.3 13.7118 1389 143.282 1309.5 441.243
2466 0 102.116 14.2975 1460 141.263 1309.58 439.674
2467 0 107.17 13.4272 1439 145.003 1309.4 438.9
2468 1 57.1265 12.5861 719 143.745 1308.83 464.278
2469 0 58.0869 12.619 733 147.09 1308.89 462.274
2470 0 58.0721 12.8461 746 144.399 1308.4 462.365
2471 0 61.1815 13.1903 807 147.361 1309.04 460.178
2472 0 63.1907 13.2298 836 144.291 1309 459.291
2473 0 66.1352 13.1549 870 139.472 1309.08 457.995
2474 0 68.2216 13.5148 922 141.054 1308.87 456.803
2475 0 71.1276 13.3282 948 144.558 1308.75 456.078
2476 0 72.2019 13.1853 952 144.856 1308.22 455.178
2477 0 75.2353 13.3315 1003 142.043 1308.38 454.808
2478 0 77.1307 13.1984 1018 143.051 1308.04 453.391
2479 0 81.0826 13.3197 1080 145.329 1308.66 451.994
2480 0 83.2495 13.1773 1097 139.507 1308.48 450.539
2481 0 86.1337 13.2817 1144 146.722 1308.78 450.372
2482 0 89.2246 13.3932 1195 143.658 1308.51 448.811
2483 0 94.2754 13.3439 1258 144.847 1308.62 446.414
2484 0 97.2496 13.5528 1318 144.725 1308.93 444.486
2485 1 53.1164 12.162 646 143.296 1309.48 466.522
2486 0 53.0692 12.7946 679 143.577 1309.34 467.211
2487 0 55.176 12.7592 704 146.112 1308.32 465.714
2488 0 58.153 12.7422 741 144.246 1309.04 464.661
2489 0 60.2047 12.7233 766 143.924 1309.2 462.984
2490 0 61.2201 12.3815 758 152.789 1309.13 461.776
2491 0 63.2367 12.9039 816 145.278 1309.26 458.538
2492 0 64.3801 13.265 854 143.959 1309.75 459.204
2493 0 67.3558 13.3619 900 140.194 1309.6 456.73
2494 0 70.2421 13.0976 920 140.526 1309.49 456.651
2495 0 70.1866 13.0509 916 143.412 1310.35 457.11
2496 0 72.1877 13.3541 964 146.393 1310.29 455.101
2497 0 78.1595 12.8327 1003 144.777 1310.42 453.755
2498 0 78.2142 12.7343 996 144.593 1310.24 452.164
2499 0 83.1493 12.7722 1062 143.163 1310.53 451.125
2500 0 86.1488 12.8731 1109 144.188 1310.25 449.432
2501 0 87.2177 13.0822 1141 144.998 1309.96 447.028
2502 0 92.1755 12.921 1191 144.572 1309.19 445.571
2503 1 48.0398 12.1149 582 142.179 1309.77 465.505
2504 0 49.109 11.729 576 141.181 1308.64 467.311
2505 0 50.2034 11.9315 599 143.893 1310.17 465.209
2506 0 52.346 12.2263 640 145.978 1309.82 465.905
2507 0 54.0606 12.079 653 139.772 1309.34 464.979
2508 0 56.138 12.4871 701 138.631 1309.5 463.506
2509 0 57.1219 12.202 697 141.278 1309.39 463.142
2510 0 59.1093 12.3838 732 141.146 1310.43 461.794
2511 0 60.066 12.453 748 142.477 1310.62 460.39
2512 0 63.2026 12.4204 785 138.833 1310.78 459.132
2513 0 67.1397 12.8538 863 135.895 1310.75 458.388
2514 0 69.1181 12.6595 875 135.711 1310.68 456.789
2515 0 70.241 12.6849 891 138.992 1309.91 455.389
2516 0 72.0908 12.6507 912 133.831 1311.06 454.34
2517 0 73.1416 12.7834 935 139.583 1311.01 452.935
2518 0 76.1958 12.5729 958 123.474 1310.89 451.51
2519 0 77.1617 12.7913 987 132.966 1310.71 450.524
2520 0 81.1154 12.9199 1048 131.773 1311.02 447.958
2521 0 84.2194 12.6455 1065 131.412 1310.83 447.133
2522 0 87.3167 12.8498 1122 127.822 1311.04 444.537
2523 0 89.2565 12.4473 1111 132.552 1311.46 444.465
2524 0 93.3766 12.3371 1152 128.621 1311.47 442.472
2525 0 96.1689 12.3013 1183 124.555 1311.7 441.138
2526 1 52.1158 10.7069 558 125.176 1312.19 462.858
2527 0 54.1372 11.9326 646 126.791 1309.69 461.825
2528 0 55.2014 11.6664 644 124.219 1310.71 462.449
2529 0 55.1134 11.8302 652 133.847 1310.52 460.406
2530 0 57.3594 12.1166 695 130.914 1310.28 459.73
2531 0 59.1874 12.0634 714 131.296 1309.93 458.542
2532 0 59.2462 12.4227 736 134.204 1309.82 457.53
2533 0 62.2345 12.5815 783 131.395 1309.14 455.796
2534 0 64.1797 12.9948 834 129.963 1309.16 454.992
2535 0 65.2076 12.9893 847 133.437 1309.22 453.274
2536 0 69.2225 12.6404 875 128.662 1309.67 453.685
2537 0 70.2729 12.7645 897 132.06 1309.71 452.122
2538 0 70.1076 12.8659 902 136.661 1310.37 450.889
2539 0 73.1725 12.8054 937 133.097 1310.43 449.574
2540 0 75.3544 12.6204 951 135.012 1310.89 447.463
2541 0 78.1781 12.8553 1005 126.957 1311 445.961
2542 0 81.2673 13.1049 1065 128.855 1311.2 445.71
2543 0 84.3431 12.8878 1087 123.81 1311.21 442.856
2544 1 44.1266 10.1526 448 132.163 1310.7 463.368
2545 0 44.1223 11.0602 488 123.164 1310.61 463.406
2546 0 47.2752 11.4859 543 118.457 1310.86 461.904
2547 0 50.2856 11.7131 589 115.553 1311.11 460.542
2548 0 51.1287 11.696 598 116.244 1311.27 460.824
2549 0 53.5266 11.8072 632 118.184 1311.65 460.112
2550 0 53.2912 11.8969 634 120.207 1311.92 460.524
2551 0 52.2266 12.2734 641 121.647 1312.39 459.12
2552 0 55.3592 12.0486 667 116.745 1312.43 457.343
2553 0 58.367 12.0445 703 118.741 1312.3 456.669
2554 0 60.3943 11.9382 721 119.28 1312.64 456.417
2555 0 62.5284 12.0265 752 119.017 1312.63 455.366
2556 0 64.2075 12.7088 816 117.132 1311.94 454.871
2557 0 66.3422 12.5561 833 112.226 1312.01 453.963
2558 0 68.2855 12.5795 859 119.957 1311.97 452.545
2559 0 71.2034 13.1314 935 112.697 1312.53 451.389
2560 0 72.1286 13.0877 944 116.76 1312.53 450.267
2561 0 76.1034 13.1926 1004 116.686 1312.77 449.667
2562 0 78.083 13.5113 1055 117.078 1312.08 447.711
2563 0 81.3391 12.8597 1046 119.323 1311.54 446.84
2564 0 83.3107 13.0355 1086 116.731 1311.32 444.8
2565 0 84.1431 13.3107 1120 117.732 1311.78 444.597
2566 0 89.1576 13.3135 1187 119.045 1312.1 443.45
2567 0 91.1763 13.3807 1220 120.754 1312.15 441.555
2568 0 94.2709 13.1536 1240 120.21 1310.08 441.137
2569 0 95.2492 13.6904 1304 117.71 1310.7 439.068
2570 0 99.3131 13.3114 1322 117.738 1310.39 437.301
2571 0 101.245 13.4525 1362 110.38 1310.73 435.983
2572 0 107.514 13.189 1418 116.829 1311 432.516
2573 1 57.3524 11.6647 669 119.106 1310.4 458.082
2574 0 56.4105 11.9127 672 119.507 1310.6 456.625
2575 0 60.2957 12.8533 775 121.205 1310.45 454.621
2576 0 60.5275 13.118 794 118.846 1310.8 455.219
2577 0 62.252 12.61 785 120.344 1309.79 455.485
2578 0 65.128 13.1894 859 127.157 1310.22 454.971
2579 0 64.4469 12.9564 835 132.344 1310.05 454.843
2580 0 68.3021 12.9718 886 120.312 1310.15 453.149
2581 0 68.4921 13.1694 902 132.185 1310.58 453.079
2582 0 72.2326 12.8612 929 127.454 1310.55 452.384
2583 0 74.2889 13.1783 979 127.315 1310.48 450.329
2584 0 75.4929 13.0078 982 132.538 1310.77 449.775
2585 0 79.5655 12.8699 1024 133.444 1311.32 447.925
2586 0 81.3855 13.2947 1082 135.378 1310.97 446.556
2587 0 84.3843 13.2489 1118 135.512 1310.58 445.31
2588 0 88.5671 13.549 1200 131.603 1310.55 443.819
2589 0 91.776 13.0753 1200 134.448 1310.46 441.738
2590 0 93.615 13.0214 1219 136.143 1310.71 439.564
2591 0 97.829 13.6156 1332 137.643 1311.03 437.702
2592 0 99.7493 13.6242 1359 136.418 1311.4 436.159
2593 0 104.748 13.7951 1445 134.296 1311.1 433.809
2594 0 106.684 13.5541 1446 136.503 1311.02 432.49
2595 1 59.4914 11.6487 693 134.44 1311.57 457.545
2596 0 61.1593 12.0832 739 134.459 1310.45 457.781
2597 0 63.3772 12.3388 782 134.074 1310.51 456.921
2598 0 64.1874 12.4168 797 133.925 1310.5 455.645
2599 0 66.3545 12.5086 830 125.082 1310.96 455.452
2600 0 69.2655 12.3871 858 127.781 1311.48 453.846
2601 0 73.339 12.8308 941 127.999 1310.54 453.006
2602 0 73.3571 13.0185 955 133.257 1310.04 451.337
2603 0 75.3886 12.8534 969 127.012 1310.53 449.814
2604 0 79.1709 12.8204 1015 129.945 1310.68 448.527
2605 0 82.3859 12.223 1007 128.767 1310.3 448.176
2606 0 85.4964 12.7491 1090 124.861 1311.01 445.125
2607 0 86.3804 13.1511 1136 124.312 1310.65 443.892
2608 0 90.3608 12.605 1139 128.629 1310.65 442.524
2609 0 92.3929 13.0313 1204 126.9 1310.79 441.423
2610 0 97.5242 13.0942 1277 123.052 1310.78 439.44
2611 0 102.525 13.2065 1354 123.018 1311.25 437.637
2612 0 105.392 13.094 1380 118.564 1310.96 436.972
2613 1 57.1947 12.1515 695 121.699 1311.3 459.984
2614 0 59.2341 12.5772 745 121.952 1311.23 459.797
2615 0 61.1214 12.3361 754 126.584 1311.49 458.744
2616 0 63.1482 12.7478 805 126.205 1311.56 457.004
2617 0 64.2086 12.5996 809 124.765 1311.19 456.093
2618 0 65.0617 12.7725 831 124.964 1311.12 456.107
2619 0 68.0615 12.3859 843 121.832 1311.07 454.52
2620 0 70.1141 12.7364 893 128.476 1311.75 453.554
2621 0 71.1024 13.0094 925 123.494 1311.52 451.978
2622 0 75.0472 12.5255 940 122.812 1311.32 451.515
2623 0 77.0746 12.6371 974 132.328 1311.23 451.456
2624 0 80.0691 12.8514 1029 133.792 1310.55 449.39
2625 0 81.1387 13.4954 1095 133.122 1310.52 447.354
2626 0 86.0706 13.1288 1130 130.615 1310.78 446.051
2627 0 86.0885 13.277 1143 132.468 1311.44 445.149
2628 0 93.1022 12.9105 1202 121.757 1311.06 442.693
2629 0 95.1532 13.0736 1244 124.939 1310.34 441.772
2630 0 95.1532 13.0736 1244 171.427 1310.34 441.772
2631 0 100.111 12.8458 1286 135.067 1310.42 440.161
2632 1 57.1339 11.6043 663 132.012 1309.87 461.208
2633 0 57.1254 11.7286 670 129.042 1310 459.991
2634 0 60.1066 12.4113 746 128.198 1310.44 461.505
2635 0 59.0303 12.5868 743 140.717 1310.5 460.49
2636 0 61.068 12.6416 772 134.911 1310.91 460.496
2637 0 62.04 13.1044 813 137.647 1310.26 458.341
2638 0 65.1026 13.041 849 133.898 1310.88 457.466
2639 0 65.0481 13.2056 859 134.696 1310.34 457.052
2640 0 69.0759 12.812 885 134.435 1310.12 455.581
2641 0 71.1018 13.108 932 141.33 1310.02 453.6
2642 0 72.0938 13.4686 971 140.311 1309.74 454.428
2643 0 75.0594 13.2162 992 147.012 1309.73 452.638
2644 0 76.2443 13.6666 1042 145.645 1309.85 452.226
2645 0 79.0675 13.7983 1091 148.906 1309.77 450.754
2646 0 79.1342 13.6856 1083 150.864 1308.29 449.461
2647 0 83.2026 13.4852 1122 147.34 1309.06 448.456
2648 0 86.1513 13.604 1172 149.278 1309.48 448.355
2649 0 88.1682 13.5763 1197 152.659 1309.44 446.885
2650 0 89.1764 13.4004 1195 153.131 1309.33 445.729
2651 0 91.2738 13.947 1273 149.842 1309.59 444.793
2652 0 93.3254 13.3297 1244 153.48 1309.81 443.905
2653 0 96.265 13.5044 1300 152.768 1310.2 443.825
2654 0 99.0791 13.7567 1363 153.224 1309.89 441.826
2655 0 102.214 13.4815 1378 157.424 1310.11 440.458
2656 0 104.224 13.4134 1398 160.728 1310.52 438.928
2657 0 108.146 13.7407 1486 157.739 1310.19 437.864
2658 0 110.122 13.7847 1518 149.495 1310.3 436.498
2659 0 114.161 13.7876 1574 154.422 1308.07 433.633
2660 0 118.188 13.817 1633 154.141 1307.93 431.605
2661 0 122.225 13.9742 1708 154.225 1307.73 429.412
2662 0 125.307 14.1493 1773 148.249 1308.32 427.959
2663 0 130.239 14.0587 1831 155.47 1308.42 426.523
2664 0 133.346 14.2637 1902 151.405 1308.59 423.207
2665 0 137.308 14.0924 1935 157.392 1308.16 420.922
2666 0 142.257 14.0239 1995 151.681 1308.25 419.266
2667 0 148.367 14.0126 2079 150.243 1308.28 416.253
2668 0 153.271 14.2623 2186 145.35 1308.74 413.302
2669 0 157.321 14.2829 2247 154.497 1308.01 411.024
2670 0 163.274 14.5155 2370 148.358 1308.38 407.751
2671 0 168.429 14.4928 2441 141.798 1308.12 406.731
2672 0 174.336 14.6613 2556 150.179 1308.26 403.437
2673 0 178.342 14.5451 2594 148.304 1308.2 401.505
2674 0 182.45 14.5738 2659 148.502 1308.03 399.25
2675 0 188.386 14.826 2793 144.098 1308.27 396.008
2676 0 196.595 14.741 2898 146.337 1308.65 393.594
2677 0 201.757 14.6909 2964 143.84 1308.64 388.959
2678 0 201.757 14.6909 2964 169.299 1308.64 388.959
2679 1 156.328 13.3182 2082 152.936 1308.37 412.693
2680 0 161.399 13.6742 2207 151.336 1308.08 409.32
2681 0 168.361 13.3463 2247 149.558 1308.04 406.717
2682 0 173.349 13.8218 2396 149.423 1307.84 403.176
2683 0 178.514 13.8196 2467 138.109 1308.24 399.912
2684 0 184.412 13.9254 2568 147.883 1308.12 397.337
2685 0 192.358 13.6048 2617 145.46 1309.25 394.378
2686 0 197.235 13.4865 2660 148.373 1308.89 390.622
2687 0 206.432 13.7866 2846 146.379 1308.06 385.913
2688 0 211.32 14.0214 2963 140.113 1308.57 382.699
2689 0 223.589 13.7082 3065 138.938 1308.59 381.061
2690 0 228.72 13.8772 3174 146.277 1308.9 374.493
2691 0 237.372 13.9865 3320 137.098 1309.49 370.983
2692 1 182.461 12.6493 2308 142.973 1309.31 401.954
2693 0 188.42 12.6473 2383 140.821 1309.19 397.492
2694 0 195.628 13.1729 2577 144.639 1308.57 394.578
2695 1 56.1196 10.9587 615 130.514 1309.02 464.364
2696 0 59.2069 11.806 699 126.993 1309.79 462.967
2697 0 61.1141 11.8631 725 126.006 1310.42 463.778
2698 0 62.0385 11.7991 732 126.128 1310.11 462.699
2699 0 64.0859 11.6406 746 130.369 1310.14 461.11
2700 0 66.0959 12.9357 855 125.605 1305.96 457.243
2701 0 66.1986 12.6891 840 125.41 1308.8 458.807
2702 0 69.1812 12.0119 831 121.947 1308.9 458.053
2703 0 72.1654 11.7508 848 128.239 1308.8 457.603
2704 0 72.1978 12.355 892 120.545 1309.16 456.541
2705 0 75.3498 11.8912 896 123.224 1309.37 455.556
2706 0 79.1902 12.3248 976 119.643 1309.07 453.131
2707 0 81.2537 12.0241 977 121.975 1309.43 451.628
2708 0 84.2375 12.2511 1032 126.764 1309.32 450.674
2709 0 86.2012 12.3664 1066 123.773 1309.17 449.07
2710 0 91.1626 12.3077 1122 125.904 1309.18 445.958
2711 1 50.0344 10.5727 529 127.212 1310.1 467.376
2712 0 52.1939 11.2082 585 120.48 1309.27 467.06
2713 0 53.2554 11.6045 618 122.463 1308.61 466.214
2714 0 55.331 11.7836 652 132.043 1308.23 466.071
2715 0 54.187 12.0509 653 129.161 1308.34 465.317
2716 0 57.3086 12.2669 703 125.405 1308.43 464.936
2717 0 56.2223 12.4506 700 127.764 1308.16 462.984
2718 0 60.2307 11.7216 706 128.018 1308.45 463.034
2719 0 60.2643 12.1631 733 132.467 1308.53 462.623
2720 0 62.2071 12.2012 759 132.912 1308.71 462.128
2721 0 63.316 12.4613 789 127.559 1308.78 461.004
2722 0 67.555 12.1827 823 129.543 1308.87 459.492
2723 0 68.2239 12.459 850 129.655 1308.5 459.262
2724 0 71.3177 12.6476 902 134.15 1308.02 458.165
2725 0 71.5215 12.9332 925 71.36 1307.65 456.542
2726 0 74.562 12.9959 969 125.306 1307.92 454.83
2727 0 76.4483 13.617 1041 127.986 1308.17 452.906
2728 0 80.7863 13.381 1081 130.792 1307.59 452.13
2729 0 80.6743 13.1888 1064 132.657 1307.96 452.024
2730 0 84.5986 13.3099 1126 133.853 1308.75 451
2731 0 87.6415 13.0874 1147 131.854 1308.56 449.474
2732 1 46.1455 12.2222 564 129.587 1308.71 468.938
2733 0 50.1712 11.8395 594 135.256 1308.49 468.278
2734 0 50.3652 12.7072 640 127.273 1307.91 466.909
2735 0 52.1857 12.4172 648 131.568 1308.44 466.238
2736 0 54.1308 12.1373 657 140.24 1308.72 465.855
2737 0 53.0811 13.3004 706 138.867 1308.91 465.406
2738 0 56.1856 12.6723 712 134.813 1309.17 464.441
2739 0 57.2232 12.9144 739 139.85 1309.03 463.599
2740 0 59.1207 13.1257 776 139.506 1308.69 462.46
2741 0 60.1205 13.2401 796 132.808 1308.54 461.766
2742 0 62.2535 13.3326 830 145.526 1308.78 460.843
2743 0 63.3535 13.4326 851 151.341 1308.25 459.385
2744 0 64.3058 13.4825 867 150.225 1308.75 458.11
2745 0 67.2895 13.2116 889 149.477 1308.05 457.894
2746 0 68.5022 13.62 933 150.942 1308.29 457.353
2747 0 71.4272 13.1883 942 156.817 1308.99 456.036
2748 0 74.5983 13.2577 989 153.82 1309.22 455.624
2749 0 75.5597 13.8963 1050 154.08 1309.27 454.164
2750 0 77.6635 13.919 1081 151.272 1308.56 452.147
2751 0 79.7145 13.8118 1101 149.944 1308.43 451.556
2752 0 84.675 13.5223 1145 150.53 1308.62 449.972
2753 0 86.6116 13.6933 1186 151.099 1308.9 449.902
2754 0 87.5805 13.9072 1218 154.7 1309.01 449.085
2755 0 90.6576 13.9646 1266 148.242 1309.08 445.088
2756 0 95.7686 13.2403 1268 157.285 1308.8 444.614
2757 0 98.5866 13.6631 1347 153.29 1309.48 443.857
2758 0 101.017 13.8987 1404 154.613 1309.42 442.271
2759 0 103.691 13.6174 1412 150.561 1308.91 441.761
2760 0 108.367 13.8142 1497 153.993 1308.29 438.743
2761 1 59.3238 12.6256 749 161.312 1308.66 461.932
2762 0 62.2798 12.6526 788 154.626 1307.9 460.666
2763 0 64.3498 12.4631 802 157.713 1308.02 458.551
2764 0 65.5798 12.8088 840 159.37 1308.55 457.639
2765 0 66.5519 13.3129 886 161.633 1308.59 456.651
2766 0 69.7328 13.4083 935 154.602 1308.86 453.94
2767 0 72.6064 12.9878 943 158.817 1308.84 452.087
2768 0 73.4713 13.3113 978 154.868 1309.05 450.984
2769 0 76.7537 13.1199 1007 155.301 1309.16 449.593
2770 0 77.7017 13.4875 1048 151.536 1309.01 447.809
2771 0 82.7754 13.0594 1081 156.658 1309.78 446.657
2772 0 85.7036 13.08 1121 157.909 1310.04 445.056
2773 0 87.901 13.3104 1170 152.482 1309.44 444.191
2774 0 88.8354 13.5081 1200 155.328 1309.6 442.488
2775 0 91.8546 13.7935 1267 155.813 1309.19 440.975
2776 0 93.7972 13.5612 1272 156.774 1309.81 440.053
2777 0 97.897 13.3406 1306 154.292 1310.3 438.186
2778 0 101.785 13.44 1368 158.238 1310.78 436.499
2779 0 104.779 13.5428 1419 150.86 1310.93 435.666
2780 0 109.952 14.0698 1547 145.589 1310.37 431.712
2781 0 110.765 13.804 1529 154.588 1309.92 431.169
2782 0 114.667 13.6308 1563 152.259 1310.29 428.877
2783 0 117.612 13.8591 1630 151.736 1310.49 426.19
2784 0 122.573 13.5185 1657 152.608 1310.78 425.011
2785 0 125.191 13.9387 1745 145.466 1310.6 422.845
2786 0 131.886 13.7391 1812 148.384 1310.85 419.629
2787 1 74.8429 11.2636 843 136.27 1310.55 449.643
2788 0 75.6272 12.4426 941 143.166 1309.87 448.231
2789 0 77.6006 12.487 969 140.608 1310.77 446.134
2790 0 77.6986 13.1791 1024 141.853 1310.57 445.871
2791 0 82.7444 13.2819 1099 140.412 1310.97 444.026
2792 0 84.7585 13.037 1105 135.026 1311.12 443.325
2793 0 86.8796 13.1907 1146 140.051 1311.26 441.627
2794 0 87.8008 13.2573 1164 136.347 1311.21 440.131
2795 0 92.8491 13.2688 1232 139.787 1311.4 438.124
2796 0 94.6802 13.3185 1261 134.345 1311.39 436.984
2797 0 98.6847 13.4165 1324 138.229 1311.8 435.26
2798 0 101.562 13.0462 1325 138.919 1311.79 434.565
2799 0 104.747 12.8978 1351 134.779 1311.81 432.693
2800 0 108.476 13.1827 1430 137.007 1311.43 430.369
2801 0 110.651 13.3393 1476 134.024 1311.56 429.719
2802 0 113.492 13.2696 1506 136.809 1311.64 428.199
2803 0 118.828 13.2713 1577 133.899 1312.18 424.995
2804 1 66.7143 11.257 751 134.598 1311.58 450.622
2805 0 68.4428 11.8347 810 132.065 1311.64 451.272
2806 0 71.5042 12.0552 862 134.495 1311.45 449.485
2807 0 74.4402 12.2111 909 128.493 1311.97 447.836
2808 0 77.5958 11.9465 927 123.025 1311.94 446.996
2809 0 78.826 12.3944 977 127.046 1311.84 445.56
2810 0 82.8377 12.3012 1019 127.775 1312.08 444.509
2811 0 84.6938 11.9489 1012 121.88 1311.38 443.501
2812 0 88.6482 12.5778 1115 121.397 1311.75 442.093
2813 0 89.9813 13.0916 1178 121.23 1311.62 440.404
2814 0 92.6997 12.5675 1165 123.827 1311.61 439.399
2815 0 93.6779 12.543 1175 124.121 1311.8 438.612
2816 0 96.6729 12.9716 1254 117.967 1312.22 436.43
2817 0 96.6729 12.9716 1254 155.931 1313.22 436.43
2818 0 102.599 12.9533 1329 122.685 1311.98 433.045
2819 0 105.465 12.5159 1320 122.783 1311.49 430.512
2820 0 110.621 13.1892 1459 125.822 1311.58 430.674
2821 0 114.629 12.9723 1487 123.88 1311.19 429.378
2822 0 119.683 14.7556 1766 118.131 1311.55 423.007
2823 0 120.713 13.1137 1583 118.289 1311.07 424.764
2824 1 67.5172 10.6788 721 115.743 1310.86 452.541
2825 0 70.3481 11.3152 796 121.55 1311.13 452.34
2826 0 73.2999 12.2238 896 119.381 1311.52 450.243
2827 0 76.449 12.2696 938 121.958 1310.88 449.504
2828 0 76.4402 12.8074 979 119.249 1310.7 447.078
2829 0 78.3717 12.4662 977 121.854 1310.93 446.193
2830 0 81.2593 12.5155 1017 120.367 1308.83 447.92
2831 0 83.4655 13.0593 1090 119.142 1310.01 447.984
2832 0 86.2663 13.2613 1144 122.807 1309.75 446.419
2833 0 88.2547 13.0758 1154 122.519 1309.79 443.684
2834 0 92.4309 13.2423 1224 127.994 1309.44 442.892
2835 0 94.551 13.5271 1279 123.745 1309.3 441.824
2836 0 97.3966 13.2551 1291 129.373 1308.83 439.689
2837 0 100.417 12.8763 1293 131.548 1309.28 437.451
2838 1 57.4717 11.3273 651 134.226 1309.33 457.515
2839 0 57.4603 12.1649 699 129.046 1308.97 457.403
2840 0 58.8094 12.651 744 127.336 1309.24 455.417
2841 0 60.529 12.6221 764 133.838 1309.25 458.056
2842 0 62.5462 13.0144 814 125.468 1309.07 456.48
2843 0 63.3804 12.8273 813 133.406 1309.23 454.45
2844 0 66.5239 12.7623 849 129.83 1309.73 453.382
2845 0 66.4026 12.4694 828 131.659 1309.13 452.043
2846 0 67.3098 13.0887 881 131.419 1309.05 450.529
2847 0 69.3604 12.918 896 125.855 1309.05 449.135
2848 0 71.4682 13.6424 975 125.051 1308.81 447.966
2849 0 74.4305 13.0726 973 131.338 1309.49 447.022
2850 0 75.3791 13.4785 1016 125.792 1309.89 445.705
2851 0 78.3508 13.146 1030 127.686 1310.29 444.651
2852 0 81.4811 13.5369 1103 130.042 1310.22 443.441
2853 0 84.335 13.4582 1135 125.463 1310.47 443.444
2854 0 87.5285 14.0754 1232 120.834 1310.18 439.933
2855 0 89.5071 13.5743 1215 122.983 1310.61 439.721
2856 0 92.5426 13.6694 1265 126.19 1310.7 438.73
2857 0 94.6475 14.0204 1327 123.584 1310.57 437.04
2858 0 97.4786 14.3416 1398 121.888 1310.41 435.609
2859 0 101.59 14.1156 1434 125.063 1310.56 434.511
2860 0 102.662 14.572 1496 112.52 1310.83 432.434
2861 0 107.242 14.2667 1530 124.822 1309.97 430.631
2862 0 109.535 13.8769 1520 126.657 1309.97 430.28
2863 0 113.627 14.3627 1632 117.432 1310.3 427.795
2864 0 118.436 14.0498 1664 115.639 1310.96 426.32
2865 0 118.436 14.0498 1664 165.349 1311.96 426.32
2866 1 65.1392 12.9108 841 117.819 1309.18 453.849
2867 0 68.2252 13.5141 922 119.714 1309.7 451.06
2868 0 70.1445 13.3296 935 113.796 1309.47 450.641
2869 0 73.1804 13.5419 991 118.574 1309.43 450.394
2870 0 74.2294 13.2966 987 120.297 1309.7 448.609
2871 0 77.2337 13.5951 1050 122.701 1310.75 445.148
2872 0 80.336 13.4933 1084 128.911 1310.02 445.058
2873 0 84.4507 13.7003 1157 125.022 1310.01 440.576
2874 0 87.29 13.7015 1196 132.383 1309.86 440.719
2875 0 90.4287 13.8673 1254 129.88 1309.25 440.42
2876 0 93.2948 13.8593 1293 126.873 1309.5 438.771
2877 0 96.3617 13.5012 1301 132.105 1310.08 437.204
2878 0 99.5053 13.7983 1373 126.897 1310.13 433.677
2879 0 102.272 13.9921 1431 127.602 1310.74 433.551
2880 0 105.598 14.2806 1508 129.893 1310.16 430.734
2881 0 109.461 14.0873 1542 126.872 1310.38 430.648
2882 0 113.574 13.8764 1576 125.596 1309.95 429.048
2883 0 118.421 14.1867 1680 134.128 1310.08 428.301
2884 1 65.2675 13.2378 864 137.571 1309.38 454.376
2885 0 68.2529 13.3914 914 131.577 1309.96 453.922
2886 0 67.1609 14.2494 957 130.543 1310.08 453.687
2887 0 70.0538 13.8465 970 134.338 1309.94 452.654
2888 0 73.3231 13.761 1009 132.217 1310.2 451.85
2889 0 76.3177 13.5617 1035 133.408 1310.01 450.625
2890 0 78.3953 14.057 1102 132.892 1309.94 449.414
2891 0 80.3325 13.8923 1116 130.337 1310.14 447.738
2892 0 83.1656 13.8038 1148 133.717 1310.44 448.124
2893 0 85.3596 14.2573 1217 131.321 1310.02 446.076
2894 0 88.3231 13.8016 1219 131.301 1310.01 444.059
2895 0 92.2521 13.7449 1268 130.838 1310.13 443.53
2896 0 93.3632 14.0955 1316 128.593 1310.54 441.552
2897 0 98.2432 14.118 1387 131 1309.7 440.18
2898 0 102.389 13.7026 1403 132.379 1310.28 438.702
2899 0 106.447 13.6876 1457 126.553 1310.29 437.466
2900 0 107.239 13.8476 1485 129.775 1309.87 435.63
2901 1 60.2342 12.8831 776 133.242 1309.87 458.397
2902 0 61.2977 13.3447 818 135.457 1310 456.985
2903 0 63.3589 13.3841 848 138.238 1310.69 456.084
2904 0 64.2367 13.8706 891 134.462 1310.61 454.47
2905 0 67.3253 13.6353 918 131.673 1310.73 452.325
2906 0 69.3105 14.1537 981 133.457 1311.51 450.618
2907 0 71.3522 13.8048 985 135.733 1311.49 449.506
2908 0 75.4496 14.0756 1062 132.421 1311.31 449.118
2909 0 75.4793 14.1098 1065 136.554 1311.43 448.481
2910 0 79.7014 14.0023 1116 132.721 1311.04 446.358
2911 0 82.5783 14.5074 1198 129.275 1311.18 444.795
2912 0 84.5672 14.249 1205 132.906 1311.06 444.119
2913 0 88.4862 14.0474 1243 135.085 1311.36 442.779
2914 0 89.5635 13.9454 1249 134.673 1311.12 442.09
2915 0 92.8153 14.0925 1308 135.722 1311.17 440.16
2916 0 96.5917 14.2662 1378 131.786 1312.05 438.639
2917 0 98.4515 14.2608 1404 128.893 1311.59 437.818
2918 0 103.566 14.3097 1482 127.975 1311.52 435.215
2919 0 104.46 14.3883 1503 125.643 1311.63 434.41
2920 0 108.453 14.3103 1552 136.136 1312.04 432.33
2921 1 56.4629 13.655 771 135.324 1311.36 456.189
2922 0 59.5349 13.4207 799 141.179 1311.55 454.877
2923 0 59.7553 13.89 830 134.374 1311.87 454.87
2924 0 62.6725 14.0572 881 143.897 1311.63 454.167
2925 0 64.5667 14.032 906 141.582 1311.49 453.4
2926 0 67.549 14.0195 947 140.49 1311.8 452.771
2927 0 68.4204 14.0017 958 140.472 1311.86 451.5
2928 0 70.6297 14.3707 1015 133.287 1312.08 450.772
2929 0 71.7287 14.276 1024 143.314 1312.29 449.675
2930 0 73.6774 14.3192 1055 142.914 1311.98 449.418
2931 0 77.533 14.381 1115 141.667 1312.08 447.229
2932 0 80.6471 14.1481 1141 139.415 1311.96 446.581
2933 0 80.7324 14.4428 1166 141.373 1312.04 445.332
2934 0 84.5648 14.2967 1209 136.538 1311.81 443.706
2935 0 86.7187 14.6105 1267 129.719 1311.7 442.765
2936 0 86.4272 14.9721 1294 136.619 1311.87 441.636
2937 0 92.512 14.1603 1310 134.907 1311.91 439.784
2938 0 92.8114 14.3086 1328 132.702 1311.96 438.041
2939 0 96.9021 14.1999 1376 11.9876 1311.86 436.638
2940 0 100.756 13.9048 1401 130.358 1311.93 435.408
2941 0 104.732 14.2459 1492 136.001 1311.46 433.508
2942 0 106.667 14.3718 1533 134.468 1311.26 432.549
2943 1 57.4903 12.6804 729 135.616 1311.38 455.562
2944 0 60.5556 13.855 839 131.749 1311.54 454.778
2945 0 61.6143 13.7144 845 135.157 1311.01 453.362
2946 0 64.6987 13.5861 879 133.456 1310.75 453.38
2947 0 66.8243 13.7525 919 130.641 1310.8 452.029
2948 0 68.43 13.9559 955 129.809 1310.94 450.909
2949 0 71.7839 13.5685 974 134.106 1310.96 449.306
2950 0 74.5878 13.7288 1024 135.201 1310.92 449.173
2951 0 77.7009 13.8222 1074 133.21 1310.7 447.7
2952 0 80.8958 13.9191 1126 126.624 1310.99 446.216
2953 0 83.0735 13.7348 1141 135.919 1310.99 444.934
2954 0 84.6164 13.8744 1174 136.264 1311.19 443.138
2955 0 87.6352 14.1382 1239 130.471 1311.61 442.296
2956 0 90.7422 13.8304 1255 129.087 1311.22 440.571
2957 0 93.7513 14.0265 1315 128.66 1310.78 439.313
2958 0 96.8295 14.1279 1368 139.152 1310.83 437.604
2959 0 99.5785 14.0191 1396 135.323 1311.18 436.895
2960 1 55.6009 11.8703 660 131.164 1310.02 458.503
2961 0 54.442 13.0047 708 133.754 1310.65 456.821
2962 0 58.6552 12.8889 756 131.804 1310.84 455.812
2963 0 60.7268 12.8609 781 127.307 1310.54 455.117
2964 0 60.8819 13.4687 820 124.828 1309.84 455.28
2965 0 61.9518 13.6881 848 132.486 1310.73 453.035
2966 0 65.673 13.2931 873 128.493 1310.02 453.345
2967 0 67.9368 12.7913 869 131.465 1310 452.906
2968 0 68.7669 13.6257 937 126.539 1310.42 451.775
2969 0 71.6212 13.0408 934 129.935 1310.1 450.746
2970 0 74.8408 13.3617 1000 124.921 1310.18 449.647
2971 0 76.4217 13.4255 1026 128.602 1310.33 448.311
2972 0 76.8812 13.2282 1017 127.181 1310.15 448.722
2973 0 78.888 13.7917 1088 136.731 1309.97 445.943
2974 0 80.7133 13.9011 1122 138.854 1309.89 445.353
2975 0 82.8908 14.0788 1167 135.248 1308.86 445.232
2976 0 87.0131 13.768 1198 136.193 1309.76 443.539
2977 0 91.1135 13.4887 1229 126.672 1309.1 441.531
2978 0 91.9147 13.5669 1247 139.039 1309.35 440.703
2979 0 95.75 13.5875 1301 130.311 1308.83 439.301
2980 0 98.6502 13.8874 1370 137.309 1309.08 438.504
2981 0 100.843 14.1209 1424 133.239 1308.49 436.85
2982 0 103.096 14.4234 1487 136.035 1308.35 434.81
2983 0 107.731 14.0907 1518 135.935 1308.52 433.502
2984 0 111.028 13.7532 1527 135.044 1308.63 431.263
2985 0 115.048 14.2028 1634 136.971 1308.58 429.685
2986 0 121.073 13.9998 1695 131.554 1308.67 428.558
2987 1 65.8466 12.8025 843 137.916 1308.7 454.744
2988 0 69.0303 12.5887 869 140.467 1308.94 454.663
2989 0 71.1382 13.284 945 139.277 1309.82 452.976
2990 0 73.9751 13.5586 1003 139.372 1309.9 451.198
2991 0 75.821 13.5055 1024 134.132 1310.23 450.904
2992 0 77.7016 14.1052 1096 128.631 1309.85 448.625
2993 0 80.7538 13.8446 1118 133.725 1309.87 448.018
2994 0 84.8555 13.7764 1169 133.225 1310.03 447.174
2995 0 85.7024 14.0486 1204 137.269 1310.15 446.149
2996 0 89.8727 13.597 1222 134.606 1309.29 444.874
2997 0 91.2069 14.1766 1293 96.4524 1309.55 443.056
2998 0 96.1389 13.7405 1321 130.528 1309.68 442.658
2999 0 97.8846 14.3128 1401 130.99 1309.25 438.784
3000 0 99.8492 13.7507 1373 131.65 1309.72 438.966
3001 0 105.01 14.3701 1509 127.381 1309.88 436.77
3002 0 108.284 13.7509 1489 131.054 1309.46 434.632
3003 0 110.088 14.3613 1581 131.914 1309.39 433.275
3004 0 113.932 14.0522 1601 133.209 1309.38 431.643
3005 0 117.784 13.9577 1644 128.792 1308.88 430.151
3006 1 63.4314 13.0062 825 134.222 1308.98 455.282
3007 0 66.7868 13.0115 869 127.284 1309.12 454.585
3008 0 68.8077 13.4142 923 123.463 1309.77 452.913
3009 0 69.6239 13.458 937 128.45 1309.86 450.87
3010 0 72.8509 13.7679 1003 125.749 1309.96 452.367
3011 0 75.7111 13.6968 1037 129.952 1309.64 451.107
3012 0 77.716 13.6909 1064 133.449 1310.44 449.521
3013 0 79.9802 14.016 1121 127.09 1310.23 447.958
3014 0 85.1346 13.6137 1159 134.439 1310.54 446.607
3015 0 84.9187 14.1783 1204 137.789 1310.26 444.159
3016 0 86.7796 14.2545 1237 152.509 1310.25 443.635
3017 0 89.9121 14.2584 1282 140.914 1310.51 441.221
3018 0 96.2919 14.0199 1350 139.945 1310.63 440.974
3019 0 99.894 15.126 1511 142.283 1311.3 438.177
3020 0 100.936 14.4447 1458 140.196 1310.97 436.042
3021 0 103.921 14.6169 1519 140.148 1310.94 435.246
3022 0 106.778 14.3944 1537 147.33 1311.02 433.172
3023 0 111.987 14.1712 1587 148.805 1310.84 430.807
3024 0 115.35 14.1223 1629 145.756 1310.7 428.8
3025 1 63.7592 13.1432 838 150.78 1310.52 452.945
3026 0 66.7674 13.7792 920 152.757 1310.87 451.793
3027 0 68.7914 13.7808 948 154.852 1310.68 450.651
3028 0 68.7416 14.0235 964 148.329 1311.51 449.781
3029 0 68.7416 14.0235 964 173.741 1312.51 449.781
3030 0 75.1009 13.9146 1045 148.3 1311.11 447.589
3031 0 77.9277 14.2696 1112 152.469 1311.31 446.689
3032 0 80.9455 14.1577 1146 137.163 1312.23 445.638
3033 0 82.9464 14.0332 1164 148.471 1312.23 444.089
3034 0 85.0286 14.0659 1196 151.017 1312.26 443.069
3035 0 86.8681 14.0558 1221 144.247 1312.29 441.012
3036 0 91.0215 14.1285 1286 145.992 1311.57 438.487
3037 0 93.7475 14.1017 1322 149.045 1311.72 436.467
3038 0 97.9944 14.1131 1383 146.603 1311.79 434.939
3039 0 100.224 14.318 1435 152.313 1311.62 432.914
3040 0 105.254 14.0042 1474 151.691 1311.96 432.566
3041 1 57.5043 12.9208 743 154.38 1312.41 453.953
3042 0 58.5489 13.4076 785 147.403 1312.53 454.036
3043 0 60.9282 13.7046 835 150.086 1312.72 451.446
3044 0 62.791 14.3014 898 151.492 1313.02 451.454
3045 0 64.8103 13.9021 901 145.317 1312.49 450.65
3046 0 66.8587 14.0745 941 137.963 1313.14 449.647
3047 0 68.5959 14.097 967 139.45 1312.53 448.576
3048 0 69.611 14.3799 1001 142.601 1312.7 446.528
3049 0 71.683 14.3409 1028 146.218 1312.52 445.877
3050 0 74.693 14.1646 1058 142.953 1312.25 444.475
3051 0 76.5996 14.269 1093 151.806 1311.72 442.971
3052 0 78.8141 14.5406 1146 145.019 1312.18 442.59
3053 0 81.8422 14.589 1194 143.272 1312.21 441.486
3054 0 82.7734 14.2558 1180 152.246 1312.47 440.354
3055 0 85.5849 14.5119 1242 145.837 1312.79 438.816
3056 0 90.6547 13.943 1264 146.597 1312.44 437.05
3057 0 92.6689 14.1579 1312 144.535 1312.49 436.082
3058 0 95.9992 14.1251 1356 146.285 1312.55 434.402
3059 0 97.7785 13.8681 1356 145.53 1312.38 433.237
3060 0 104.008 14.1624 1473 147.684 1312.03 431.214
3061 0 107.006 13.6534 1461 144.773 1312.38 430.611
3062 1 52.6787 12.7756 673 142.415 1312.13 455.192
3063 0 52.548 13.0547 686 155.638 1311.59 453.854
3064 0 55.5592 13.2291 735 152.042 1311.62 452.634
3065 0 57.7057 13.4649 777 143.905 1311.74 451.58
3066 0 60.5971 13.631 826 149.62 1311.46 451.667
3067 0 62.8562 13.2684 834 153.385 1311.7 450.725
3068 0 63.6123 14.2583 907 148.701 1311.3 449.785
3069 0 65.462 13.7179 898 154.703 1312.45 449.412
3070 0 66.4597 13.858 921 150.771 1312.44 448.959
3071 0 69.3203 13.8632 961 157.597 1312.2 447.075
3072 0 70.49 14.3992 1015 155.712 1312.25 446.196
3073 0 74.3154 13.9002 1033 160.474 1312.65 445.858
3074 0 75.4411 13.9844 1055 158.873 1312.55 444.64
3075 0 78.4606 14.1345 1109 161.626 1312.42 443.545
3076 0 80.4872 14.0768 1133 155.878 1311.28 441.875
3077 0 82.3762 13.9846 1152 163.877 1311.77 441.247
3078 0 84.4973 14.6514 1238 159.783 1311.11 439.928
3079 0 87.4885 14.4247 1262 165.17 1311.07 439.517
3080 0 91.284 14.4275 1317 168.63 1310.74 438.26
3081 0 93.3923 14.2838 1334 163.584 1310.65 436.713
3082 0 95.3107 14.6049 1392 165.8 1311.05 435.675
3083 0 98.558 14.1744 1397 166.849 1311.4 434.368
3084 0 101.394 14.5472 1475 160.729 1311.19 433.489
3085 0 104.235 14.9566 1559 163.508 1310.06 431.037
3086 0 110.546 14.9711 1655 158.476 1310.51 429.369
3087 0 113.418 14.5215 1647 163.326 1310.09 426.866
3088 0 116.327 14.743 1715 161.969 1310.56 426.12
3089 0 122.407 14.4191 1765 159.912 1310.09 424.207
3090 0 124.189 14.8162 1840 166.151 1309.81 422.17
3091 0 128.375 14.8004 1900 163.384 1309.49 420.258
3092 0 132.218 14.7332 1948 162.703 1309.64 419.588
3093 1 57.185 10.9469 626 141.158 1309.23 457.259
3094 0 60.1609 11.0537 665 147.426 1309.22 455.373
3095 0 58.0797 11.5531 671 146.894 1307.55 454.525
3096 0 63.1278 11.0411 697 150.149 1307.35 453.859
3097 0 64.2145 11.6796 750 142.144 1307.65 451.969
3098 0 66.1721 11.6514 771 140.179 1307.7 451.838
3099 0 70.2367 11.2904 793 151.874 1308.89 451.161
3100 0 70.2718 11.5551 812 147.514 1309.11 449.232
3101 0 72.3108 11.5059 832 142.859 1309.19 449.433
3102 0 73.3547 11.383 835 149 1309.32 448.83
3103 0 76.2906 11.6397 888 148.98 1309.51 446.395
3104 0 79.2256 11.7891 934 149.184 1309.55 446.069
3105 0 80.2296 12.0529 967 146.261 1309.96 444.397
3106 0 82.1828 11.7908 969 144.28 1310.35 442.433
3107 0 87.3288 11.8518 1035 91.6676 1310.04 441.941
3108 0 89.183 12.323 1099 143.749 1310.52 440.211
3109 1 54.1386 9.16167 496 136.119 1310.35 459.544
3110 0 55.1314 9.64968 532 125.135 1310.43 457.852
3111 0 57.2734 9.89989 567 128.113 1311.24 457.838
3112 0 57.3496 10.0611 577 126.818 1310.81 456.811
3113 0 59.0789 10.1898 602 131.095 1310.81 455.894
3114 0 61.0671 10.0054 611 134.236 1311.08 454.831
3115 0 63.1946 10.3332 653 129.734 1310.95 453.727
3116 0 64.4007 11.2111 722 71.7424 1310.71 453.197
3117 0 66.3403 10.3557 687 129.739 1309.58 451.469
3118 0 66.225 10.4794 694 130.308 1309.84 449.445
3119 0 68.3164 10.4367 713 130.494 1309.41 449.407
3120 0 71.4056 10.7835 770 130.114 1309.01 449.482
3121 0 72.369 10.5985 767 136.844 1308.82 448.07
3122 0 74.1853 10.8512 805 137.357 1309.18 447.23
3123 0 76.2839 10.9197 833 131.72 1309.22 446.635
3124 0 78.3998 10.9311 857 127.684 1309.34 444.553
3125 0 81.3307 10.8446 882 131.642 1309.01 444.035
3126 0 83.3667 11.3235 944 132.617 1309.15 441.181
3127 0 84.3049 11.3991 961 130.793 1309.49 440.377
3128 0 87.4464 10.8752 951 131.657 1309.4 439.476
3129 0 90.6177 11.6534 1056 130.435 1309.65 436.887
3130 0 91.2913 11.655 1064 133.156 1310.06 435.867
3131 0 95.3617 11.2729 1075 133.627 1310.5 435.596
3132 0 98.7173 11.3557 1121 134.618 1310.7 434.059
3133 0 101.611 11.7409 1193 136.042 1310.59 431.486
3134 0 105.681 11.9605 1264 130.55 1310.91 428.516
3135 1 62.5773 8.51747 533 122.968 1311.67 453.991
3136 0 63.7429 9.06768 578 125.208 1312.12 453.151
3137 0 65.5442 9.48978 622 126.653 1311.95 451.302
3138 0 67.4284 10.3221 696 127.958 1312.19 450.918
3139 0 69.6335 10.3542 721 125.87 1312.05 450.409
3140 0 71.2727 10.5791 754 129.495 1313.19 447.695
3141 0 72.3339 10.4792 758 129.894 1313.47 447.429
3142 0 74.1937 10.54 782 128.497 1313.27 447.18
3143 0 76.2906 10.1979 778 131.328 1313.63 445.315
3144 0 78.2997 11.1495 873 126.724 1313.49 444.987
3145 0 83.5514 10.8197 904 130.496 1313.41 443.643
3146 0 82.3177 11.3827 937 130.371 1313.43 442.472
3147 0 87.4358 11.2311 982 128.771 1312.9 440.759
3148 0 87.3095 11.2359 981 132.207 1312.81 440.976
3149 0 90.4078 11.5587 1045 123.955 1312.53 438.741
3150 0 93.4884 11.2527 1052 126.333 1312.76 438.177
3151 0 94.4244 11.6919 1104 131.885 1312.28 436.899
3152 0 98.5353 11.4172 1125 133.845 1312.15 435.598
3153 0 100.645 11.6251 1170 131.339 1311.3 434.702
3154 0 103.681 11.5739 1200 132.579 1311.88 431.408
3155 0 106.816 11.4028 1218 136.19 1311.69 431.404
3156 0 111.674 11.4888 1283 139.533 1311.9 430.434
3157 1 63.4147 9.49306 602 125.053 1312.37 455.228
3158 0 63.3296 10.0585 637 129.091 1312.21 454.364
3159 0 65.2617 10.8793 710 130.742 1311.7 452.12
3160 0 67.0499 11.3199 759 131.924 1313.44 451.605
3161 0 68.3196 11.4169 780 128.941 1312.34 452.486
3162 0 70.3633 11.4406 805 125.561 1311.6 451.265
3163 0 71.4026 11.8063 843 128.157 1311.28 449.749
3164 0 74.2442 11.5834 860 134.359 1311.4 449.906
3165 0 76.2657 11.5124 878 132.366 1311.82 449.148
3166 0 77.3891 11.9655 926 139.338 1311.53 448.563
3167 0 79.3141 12.0281 954 134.754 1311.04 447.273
3168 0 82.433 11.7186 966 137.961 1311.16 447.795
3169 0 85.3523 11.8685 1013 137.982 1311.27 445.239
3170 0 87.4158 12.1031 1058 138.809 1311.12 445.163
3171 0 86.2549 12.2544 1057 139.148 1311.39 444.532
3172 0 89.4551 12.1737 1089 136.048 1311.03 443.52
3173 0 93.3497 12.5442 1171 132.243 1310.44 441.71
3174 0 93.3795 12.4438 1162 132.559 1310.81 441.105
3175 0 97.3018 12.5383 1220 130.909 1310.74 440.259
3176 0 97.527 12.7144 1240 137.9 1311.42 438.847
3177 0 102.548 12.9306 1326 130.672 1310.55 436.873
3178 0 104.469 12.9033 1348 133.407 1310.64 436.024
3179 0 106.41 12.9875 1382 131.637 1310.6 434.988
3180 0 109.683 12.919 1417 133.475 1309.74 429.823
3181 0 112.49 13.299 1496 130.158 1310.1 428.453
3182 0 117.586 12.9012 1517 125.299 1310.18 427.44
3183 1 65.4491 11.7343 768 127.885 1308.55 455.741
3184 0 68.3556 11.8205 808 122.694 1308.62 454.021
3185 0 70.1751 11.7706 826 125.425 1307.62 453.579
3186 0 71.1268 12.1333 863 126.728 1307.78 452.991
3187 0 73.0621 12.3183 900 123.472 1307.72 451.026
3188 0 77.0784 12.5067 964 124.114 1307.6 450.073
3189 0 77.0644 12.6777 977 127.279 1307.73 450.606
3190 0 82.1556 12.5737 1033 123.303 1306.81 448.596
3191 0 84.1663 12.6298 1063 125.979 1307.06 447.344
3192 0 84.0438 12.7791 1074 124.71 1306.8 446.879
3193 0 89.0845 12.5274 1116 123.595 1306.53 445.062
3194 0 94.1068 12.4008 1167 125.935 1306.83 444.96
3195 0 95.1343 12.845 1222 126.374 1307.02 442.102
3196 0 98.1119 12.9138 1267 131.895 1307.46 440.866
3197 0 102.194 12.8873 1317 131.09 1307.55 439.315
3198 1 55.0445 11.3544 625 131.856 1307.21 461.402
3199 0 59.0571 11.9207 704 127.983 1306.56 460.599
3200 0 60.3458 11.8318 714 127.85 1309.17 458.994
3201 0 62.1064 12.4947 776 126.719 1309.78 459.158
3202 0 63.1181 12.8172 809 131.721 1309.76 458.717
3203 0 65.0623 12.8492 836 131.92 1309.55 458.757
3204 0 68.0799 13.2638 903 129.079 1309.42 456.888
3205 0 68.1673 12.4987 852 132.525 1309.92 457.062
3206 0 69.1248 13.1791 911 130.787 1310.15 456.021
3207 0 72.0654 13.2657 956 129.55 1309.99 455.529
3208 0 75.2471 13.2763 999 126.146 1309.64 452.92
3209 0 76.1576 13.1044 998 134.745 1310.13 451.464
3210 0 77.1408 13.7411 1060 122.663 1309.62 451.469
3211 0 79.115 13.4361 1063 137.375 1309.17 451.422
3212 0 80.2895 13.14 1055 139.671 1308.82 449.984
3213 0 84.1828 14.1715 1193 136.038 1309.69 448.15
3214 0 87.287 13.4613 1175 140.432 1309.53 447.491
3215 0 89.1752 13.6809 1220 137.025 1309.44 446.702
3216 0 91.2536 13.0077 1187 144.955 1309.32 444.548
3217 0 90.1226 13.5815 1224 138.625 1309.1 442.422
3218 0 93.1021 13.2757 1236 145.82 1309.69 440.664
3219 0 97.1443 13.6395 1325 148.46 1309.53 438.669
3220 0 101.352 13.5765 1376 143.757 1308.95 436.363
3221 0 105.358 13.7816 1452 146.81 1308.89 433.358
3222 0 108.212 13.6121 1473 147.136 1309.34 432.398
3223 0 110.285 13.8913 1532 146.307 1309.76 430.847
3224 1 62.2449 12.1456 756 141.198 1309.92 453.688
3225 0 65.2146 12.2058 796 144.251 1310.08 455.196
3226 0 66.1966 12.5535 831 136.071 1309.58 455.354
3227 0 67.2164 13.464 905 140.386 1310.09 454.366
3228 0 69.2792 12.9476 897 140.184 1310.31 453.876
3229 0 72.1322 12.8237 925 142.912 1310.37 452.64
3230 0 74.2435 12.7284 945 137.571 1309.91 451.624
3231 0 77.2474 12.4535 962 133.638 1310.31 450.177
3232 0 78.4443 13.0283 1022 134.245 1310.04 449.019
3233 0 79.166 13.2254 1047 140.01 1309.93 448.674
3234 0 83.26 13.2116 1100 139.222 1310.03 447.078
3235 0 85.2552 13.3834 1141 143.33 1309.79 445.149
3236 0 87.1734 13.3412 1163 145.937 1310.26 443.732
3237 0 90.2359 12.8552 1160 149.335 1309.89 442.668
3238 0 93.2832 13.3786 1248 149.728 1309.78 440.238
3239 0 95.3016 13.3891 1276 148.556 1310.79 438.306
3240 0 100.362 13.3119 1336 150.424 1310.89 437.4
3241 0 104.322 13.0174 1358 157.172 1311.12 436.016
3242 0 106.462 13.2911 1415 156.288 1311.46 434.309
3243 0 108.343 13.4757 1460 158.089 1311.63 432.093
3244 0 113.302 13.186 1494 152.076 1311.75 430.943
3245 1 62.2734 12.3969 772 150.545 1312.74 455.778
3246 0 63.1769 12.6312 798 149.761 1313.04 455.648
3247 0 67.1766 12.8021 860 155.53 1312.97 453.301
3248 0 70.2264 12.4027 871 153.332 1312.93 452.034
3249 0 70.3697 12.747 897 146.726 1312.62 450.045
3250 0 73.1823 12.8583 941 145.283 1312.51 450.071
3251 0 75.2776 12.6997 956 152.369 1312.25 448.817
3252 0 78.1972 12.737 996 151.978 1312.99 447.46
3253 0 81.3955 12.8017 1042 140.203 1312.13 445.307
3254 0 81.271 13.2889 1080 147.7 1312.28 444.281
3255 0 85.2913 13.448 1147 147.252 1311.91 443.589
3256 0 88.1993 13.6849 1207 144.993 1311.96 441.182
3257 0 91.2399 13.6344 1244 138.614 1312.14 440.203
3258 0 94.4337 13.2686 1253 146.388 1311.75 438.578
3259 0 96.3935 13.0714 1260 150.674 1311.77 438.729
3260 0 99.3107 13.0701 1298 150.687 1311.65 437.67
3261 0 102.334 13.7785 1410 141.793 1312.4 434.179
3262 0 104.452 13.681 1429 146.918 1311.57 432.591
3263 0 108.39 13.7189 1487 147.023 1311.2 432.184
3264 0 110.239 13.761 1517 148.192 1311.53 431.422
3265 0 113.141 13.7705 1558 151.53 1312.02 430.621
3266 0 115.334 13.7514 1586 142.424 1311.7 425.595
3267 0 120.417 13.7273 1653 147.174 1311.05 423.703
3268 0 122.487 14.0505 1721 141.321 1311.38 422.628
3269 0 128.389 13.3812 1718 146.96 1311.11 420.929
3270 1 70.1668 12.0285 844 142.314 1311.48 449.284
3271 0 72.2401 12.8322 927 140.279 1311.56 447.406
3272 0 75.0889 12.7449 957 137.056 1312.14 445.149
3273 0 76.0436 12.7295 968 140.358 1311.5 445.435
3274 0 80.2535 13.258 1064 138.464 1311.54 444.262
3275 0 83.2447 13.3222 1109 142.559 1310.67 446.173
3276 0 85.2533 13.5948 1159 147.86 1310.43 445.175
3277 0 87.3986 13.1581 1150 153.033 1310.88 444.003
3278 0 89.3838 13.9958 1251 149.33 1310.08 442.447
3279 0 93.3697 13.634 1273 146.647 1310.11 441.72
3280 0 95.3811 14.0594 1341 148.583 1310.39 440.506
3281 0 97.4712 14.1991 1384 139.759 1310.52 438.54
3282 0 100.612 14.2528 1434 141.411 1311.27 435.158
3283 0 104.496 14.2589 1490 153.287 1310.49 432.39
3284 0 108.507 14.0267 1522 150.426 1310.22 432.458
3285 0 112.479 14.2426 1602 152.275 1310.22 429.61
3286 0 115.537 13.8137 1596 146.669 1309.91 427.964
3287 0 119.444 13.9898 1671 146.725 1309.53 425.653
3288 0 125.373 14.0701 1764 153.171 1309.55 424.055
3289 1 72.1909 11.9544 863 143.644 1308.89 452.458
3290 0 76.1624 12.6966 967 144.468 1309.19 451.055
3291 0 78.1451 12.5408 980 138.363 1309.09 450.904
3292 0 80.2188 12.3786 993 146.997 1308.98 450.705
3293 0 83.1866 12.5501 1044 141.836 1309.06 449.337
3294 0 86.1946 13.2027 1138 133.634 1308.91 446.077
3295 0 89.2377 13.1671 1175 145.593 1308.83 446.031
3296 0 93.1667 12.6118 1175 138.415 1308.87 444.684
3297 0 94.1633 13.2323 1246 140.368 1309.09 443.607
3298 0 97.3783 13.3603 1301 159.323 1308.7 442.862
3299 0 101.329 13.3033 1348 150.843 1308.81 441.304
3300 0 106.34 12.9114 1373 150.25 1309.1 439.926
3301 0 108.535 13.6269 1479 151.707 1309.12 437.226
3302 0 113.387 13.4583 1526 150.182 1309.53 435.835
3303 0 115.331 13.561 1564 147.27 1309.23 434.391
3304 1 64.1136 11.7136 751 149.498 1309.11 459.778
3305 0 67.3645 12.3062 829 154.544 1309.26 458.72
3306 0 70.0756 13.2714 930 146.82 1308.96 457.886
3307 0 71.0452 12.851 913 148.993 1309.7 456.365
3308 0 74.0485 13.1265 972 148.097 1309.84 456.225
3309 0 77.0311 13.1765 1015 146.442 1309.86 454.58
3310 0 79.0267 13.4258 1061 149.074 1309.61 452.192
3311 0 80.1451 13.4506 1078 145.518 1309.87 452.935
3312 0 83.0597 13.2194 1098 147.164 1309.45 451.092
3313 0 87.1461 13.1389 1145 148.592 1309.46 449.331
3314 0 89.1068 13.366 1191 145.15 1309.6 448.726
3315 0 91.1579 13.4602 1227 146.062 1310.19 447.72
3316 0 93.1126 13.5857 1265 153.793 1309.41 446.3
3317 0 96.1374 13.7303 1320 147.864 1309.32 444.211
3318 0 99.1011 13.5115 1339 147.238 1309.55 443.795
3319 0 101.222 13.3271 1349 149.365 1309.27 442.99
3320 0 105.101 13.7487 1445 150.152 1309.61 441.983
3321 0 108.157 13.804 1493 148.672 1309.3 439.768
3322 0 111.158 13.9261 1548 146.96 1309.65 439.448
3323 0 114.224 13.7362 1569 144.063 1309.78 436.915
3324 0 119.175 13.9291 1660 141.775 1309.77 434.563
3325 0 122.112 13.938 1702 141.209 1309.68 431.767
3326 0 125.233 13.3431 1671 150.803 1309.83 431.495
3327 0 131.207 13.6197 1787 144.717 1309.92 428.926
3328 1 72.0436 12.7145 916 147.322 1309.81 456.547
3329 0 75.0363 13.3269 1000 147.698 1310.03 456.088
3330 0 79.0607 13.7236 1085 142.412 1310.14 454.748
3331 0 81.1246 13.7689 1117 144.453 1309.84 453.879
3332 0 84.1617 13.6048 1145 138.661 1309.43 451.199
3333 0 86.1233 13.5155 1164 144.101 1309.76 449.302
3334 0 87.0503 13.5898 1183 146.593 1309.16 448.446
3335 0 90.0918 13.9524 1257 137.259 1308.77 445.936
3336 0 94.236 13.6784 1289 145.237 1309.96 444.201
3337 0 96.1406 14.1356 1359 145.673 1309.61 444.007
3338 0 99.2785 14.0514 1395 145.426 1310.03 443.163
3339 0 103.342 13.6827 1414 143.895 1309.81 442.362
3340 0 105.47 13.767 1452 144.579 1310.02 440.192
3341 0 108.515 13.8414 1502 152.925 1310.51 437.756
3342 1 60.2168 12.9698 781 151.51 1310.49 461.734
3343 0 62.2185 13.3079 828 146.105 1310.4 460.784
3344 0 64.4546 13.7461 886 146.96 1310.15 457.717
3345 0 65.2097 13.6176 888 146.766 1310.05 456.886
3346 0 68.3639 13.4281 918 142.054 1310.45 455.777
3347 0 70.2267 14.1826 996 140.725 1310.8 453.904
3348 0 70.2071 14.329 1006 139.199 1310.86 452.722
3349 0 74.1676 14.292 1060 142.413 1310.83 451.745
3350 0 75.0756 14.1857 1065 140.238 1310.35 449.47
3351 0 77.2097 14.234 1099 144.893 1310.77 449.621
3352 0 82.1839 14.5406 1195 142.028 1310.64 449.158
3353 0 84.1846 14.5395 1224 140.975 1310.66 447.592
3354 0 87.244 14.958 1305 143.643 1310.93 445.419
3355 0 90.1399 15.4316 1391 143.229 1310.71 443.399
3356 0 92.2343 14.68 1354 147.908 1311.06 442.023
3357 0 94.2298 15.2075 1433 143.743 1311.51 441.458
3358 0 97.1857 14.9508 1453 144.431 1310.68 440.536
3359 0 100.339 14.6803 1473 144.049 1311.3 437.94
3360 0 101.234 15.3802 1557 142.609 1311.29 435.538
3361 0 106.213 15.0546 1599 145.92 1310.67 434.082
3362 0 109.136 14.7065 1605 147.412 1311.14 432.469
3363 0 114.219 14.7437 1684 148.39 1311.1 429.353
3364 0 119.226 14.8709 1773 144.876 1311.06 426.322
3365 0 121.176 15.0112 1819 148.194 1311.53 424.088
3366 0 127.44 14.9953 1911 146.552 1311.74 420.362
3367 1 66.0457 13.9298 920 145.385 1311.86 450.583
3368 0 68.059 14.5903 993 139.409 1311.95 450.072
3369 0 68.113 14.4906 987 150.267 1311.78 450.685
3370 0 72.1086 14.492 1045 139.299 1311.07 450.055
3371 0 74.1061 14.5062 1075 145.466 1311.04 448.566
3372 0 77.2355 14.3069 1105 143.619 1311.25 446.518
3373 0 80.1259 14.5895 1169 148.332 1311.33 445.331
3374 0 82.0702 14.4876 1189 144.709 1311.56 442.161
3375 0 85.2272 14.6432 1248 145.756 1311.64 441.132
3376 0 88.1693 14.3928 1269 142.747 1311.16 440.563
3377 0 90.1721 14.9048 1344 135.04 1311.03 439.34
3378 0 92.3182 14.6233 1350 144.21 1311.22 438.363
3379 0 95.1669 14.7635 1405 145.44 1311.21 438.251
3380 0 96.282 14.8834 1433 143.857 1311.16 436.466
3381 0 101.2 15.1186 1530 12.032 1311.51 435.028
3382 0 104.364 15.2063 1587 131.439 1311.35 434.032
3383 0 107.274 14.4211 1547 149.166 1311.11 432.474
3384 0 112.232 14.6571 1645 144.985 1311.59 429.364
3385 0 116.47 14.7763 1721 142.403 1311.37 427.847
3386 0 120.47 14.734 1775 135.021 1311.8 424.926
3387 1 63.2007 14.1296 893 144.428 1311.13 452.828
3388 0 64.2109 14.6704 942 144.956 1311.06 451.161
3389 0 67.1474 14.5352 976 146.041 1311.48 450.602
3390 0 69.1973 14.9717 1036 146.989 1310.96 449.222
3391 0 72.1333 14.4593 1043 144.347 1310.86 449.519
3392 0 75.2868 14.5045 1092 144.882 1310.19 448.244
3393 0 77.3289 14.7164 1138 149.953 1310.86 445.631
3394 0 80.5116 14.8674 1197 145.625 1310.49 444.612
3395 0 82.4746 15.1683 1251 150.982 1310.2 443.366
3396 0 85.1393 15.1399 1289 149.652 1310.05 443.33
3397 0 87.4475 15.3006 1338 61.7407 1310.58 442.008
3398 0 91.4263 14.6019 1335 151.572 1310.47 441.59
3399 0 94.4569 14.9486 1412 148.778 1309.98 438.548
3400 0 97.3465 14.9466 1455 149.283 1310.38 437.611
3401 0 99.2905 15.0568 1495 148.33 1310.43 436.637
3402 0 103.273 14.5537 1503 149.299 1310.71 435.017
3403 1 55.2667 13.6972 757 156.337 1310.15 457.272
3404 0 55.2873 15.2657 844 145.723 1309.64 456.775
3405 0 59.2923 14.6056 866 146.094 1310.26 455.202
3406 0 60.2766 14.9477 901 142.238 1309.34 454.124
3407 0 63.346 14.5234 920 146.135 1309.59 453.461
3408 0 64.1817 15.1912 975 144.724 1309.13 452.78
3409 0 65.1055 15.16 987 146.703 1309.18 451.829
3410 0 68.4713 15.218 1042 143.735 1308.56 450.577
3411 0 70.332 15.0572 1059 143.526 1308.66 450.238
3412 0 74.977 14.3777 1078 145.469 1308.35 449.558
3413 0 75.4165 15.063 1136 141.428 1308.83 449.171
3414 0 77.7654 14.8909 1158 138.388 1308.87 447.985
3415 0 79.5186 14.9902 1192 138.324 1308.26 447.68
3416 0 81.4246 15.0323 1224 136.9 1308.24 445.822
3417 0 85.4371 14.6892 1255 138.024 1308.31 444.946
3418 0 88.3777 14.7435 1303 140.727 1308.3 443.67
3419 0 91.5274 14.4656 1324 135.728 1308.13 442.973
3420 0 93.468 14.3258 1339 134.155 1308.01 441.771
3421 1 49.3717 14.2187 702 142.427 1308.08 461.853
3422 0 51.4902 14.9737 771 133.979 1308 461.088
3423 0 52.4904 15.0694 791 138.283 1307.73 460.092
3424 0 54.4476 15.3726 837 133.671 1307.95 459.415
3425 0 57.6412 15.2322 878 131.212 1307.72 458.727
3426 0 60.2549 14.8038 892 131.018 1308.03 457.517
3427 0 61.8057 14.9177 922 131.946 1308.07 457.343
3428 0 63.3378 14.92 945 130.076 1307.89 456.794
3429 0 64.4785 15.1678 978 131.818 1307.75 454.913
3430 0 69.4975 14.8495 1032 130.572 1307.92 453.537
3431 0 71.8132 14.858 1067 126.5 1307.54 452.662
3432 0 73.5339 15.2719 1123 129.646 1307.62 451.001
3433 0 74.6055 15.1731 1132 133.364 1307.56 450.44
3434 0 79.391 15.3166 1216 127.354 1307.78 449.239
3435 0 81.843 14.9799 1226 124.424 1307.96 447.254
3436 0 82.6045 15.774 1303 123.535 1308.23 445.754
3437 0 86.7258 15.6816 1360 125.542 1308 444.574
3438 0 89.4837 15.3771 1376 131.304 1308.06 442.729
3439 0 93.9504 15.4018 1447 127.689 1308.21 441.609
3440 0 97.4779 15.6446 1525 124.085 1307.75 439.54
3441 0 100.759 16.0979 1622 123.114 1307.31 438.475
3442 0 105.546 15.3488 1620 127.585 1307.38 437.244
3443 1 52.4458 14.4149 756 135.09 1306.78 459.664
3444 0 56.5387 14.6095 826 135.389 1306.38 458.973
3445 0 58.3888 14.3521 838 132.473 1306.51 458.191
3446 0 61.4166 14.7517 906 132.214 1306.36 458.107
3447 0 62.2415 14.6526 912 133.581 1306.5 457.395
3448 0 65.6541 15.0486 988 131.128 1306.59 456.599
3449 0 67.3434 14.8493 1000 136.688 1306.52 455.828
3450 0 68.3505 15.084 1031 137.197 1306.8 455.082
3451 0 70.3779 14.8342 1044 140.533 1306.6 454.615
3452 0 73.2272 15.4997 1135 137.701 1306.23 453.044
3453 0 75.372 15.125 1140 141.447 1306.38 452.998
3454 0 77.6828 14.7652 1147 146.568 1306.09 451.943
3455 0 78.2008 15.23 1191 142.068 1306.43 451.465
3456 0 81.7662 14.9084 1219 146.695 1306.47 451.635
3457 0 83.4669 15.2515 1273 148.049 1307.01 450.374
3458 0 83.2882 15.5244 1293 146.251 1306.98 449.429
3459 0 86.4827 15.6794 1356 149.917 1306.3 447.912
3460 0 91.4498 15.3527 1404 150.773 1306.72 447.593
3461 0 92.526 15.6605 1449 151.438 1306.55 445.883
3462 0 93.1576 15.6187 1455 147.756 1306.41 444.901
3463 0 98.3212 15.5816 1532 156.647 1306.69 442.362
3464 0 101.544 15.737 1598 154.184 1307 439.676
3465 0 106.176 15.8417 1682 151.821 1307.23 437.427
3466 0 110.33 15.2814 1686 156.485 1307.54 435.668
3467 0 113.218 15.6689 1774 154.674 1307.41 433.16
3468 0 118.291 15.8254 1872 149.066 1307.53 431.06
3469 0 122.371 15.5838 1907 156.974 1307.32 428.736
3470 0 127.492 15.4363 1968 153.465 1307.56 428.598
3471 0 131.303 15.6661 2057 144.123 1307.52 425.474
3472 1 66.2376 13.4969 894 159.515 1307.58 454.073
3473 0 69.2718 13.3676 926 160.532 1307.83 453.083
3474 0 72.1959 13.588 981 155.171 1307.56 451.205
3475 0 74.1208 13.8558 1027 158 1307.72 450.187
3476 0 77.2853 13.7672 1064 160.932 1307.98 449.021
3477 0 79.2716 13.5484 1074 163.152 1307.88 448.323
3478 0 80.1497 13.7992 1106 159.056 1307.93 446.888
3479 0 84.2288 13.4277 1131 155.272 1308.13 445.507
3480 0 85.1644 14.1608 1206 164.085 1308.28 443.972
3481 0 88.0711 13.5232 1191 154.871 1308.42 442.046
3482 0 91.1079 13.5554 1235 168.05 1308.29 440.853
3483 0 93.1495 13.8165 1287 161.572 1308.13 439.443
3484 0 96.2955 13.8324 1332 161.304 1309.16 436.806
3485 0 100.178 13.4661 1349 161.277 1309.49 436.272
3486 0 102.158 13.5966 1389 156.593 1309.11 433.414
3487 0 105.246 13.5206 1423 161.574 1309.45 432.649
3488 0 110.182 13.3778 1474 157.748 1309.31 430.106
3489 0 113.152 13.61 1540 158.974 1308.26 428.428
3490 0 118.321 13.7592 1628 163.985 1308.81 427.014
3491 1 67.1575 12.1357 815 146.202 1308.78 452.988
3492 0 70.1653 11.6867 820 151.585 1308.97 451.424
3493 0 72.2084 11.7576 849 147.584 1309.16 449.807
3494 0 75.1581 11.722 881 149.319 1309.2 448.652
3495 0 77.2377 12.1832 941 146.318 1309.18 444.899
3496 0 82.2914 11.8846 978 144.437 1308.88 443.913
3497 0 84.1525 11.8238 995 144.89 1309.27 443.367
3498 0 85.22 11.7813 1004 135.62 1309.18 443.057
3499 0 87.2721 11.8824 1037 153.967 1309.81 441.773
3500 0 90.6048 12.1627 1102 144.472 1309.9 440.956
3501 0 90.4671 12.5681 1137 150.261 1310.33 439.682
3502 0 93.3528 12.1903 1138 148.236 1310.43 439.353
3503 0 97.6655 11.8773 1160 150.963 1310.71 438.072
3504 0 100.455 12.5131 1257 151.853 1310.34 435.246
3505 0 103.407 13.0165 1346 150.426 1310.68 432.866
3506 0 105.458 12.9435 1365 153.295 1310.83 431.442
3507 0 109.299 12.6808 1386 154.807 1310.41 430.53
3508 0 114.541 12.6331 1447 151.597 1310.5 427.651
3509 0 118.441 12.884 1526 156.87 1310.58 426.48
3510 0 120.286 13.1686 1584 150.068 1310.46 424.85
3511 0 123.414 12.9807 1602 158.537 1310.26 422.079
3512 0 125.336 12.5423 1572 158.525 1310.2 421.763
3513 0 131.468 13.2352 1740 153.824 1310.81 418.406
3514 0 134.393 12.523 1683 155.256 1310.71 417.481
3515 0 137.511 12.8935 1773 158.707 1311.13 415.071
3516 0 144.295 13.1467 1897 154.683 1310.54 411.742
3517 1 87.13 11.1098 968 152.773 1310.85 441.744
3518 0 91.2961 11.2929 1031 143.216 1310.88 440.258
3519 0 94.265 11.5525 1089 143.37 1310.88 437.027
3520 0 97.2268 11.7766 1145 144.024 1310.66 436.548
3521 0 99.1306 11.9035 1180 142.414 1310.42 434.617
3522 0 103.313 11.5087 1189 136.105 1310.08 433.452
3523 0 104.189 11.9782 1248 145.878 1310.44 431.344
3524 0 109.507 11.8805 1301 143.674 1310.04 430.172
3525 0 114.243 12.1933 1393 143.916 1309.75 427.294
3526 0 118.308 12.1209 1434 146.502 1309.92 424.793
3527 0 119.241 12.4035 1479 151.542 1310.06 424.101
3528 0 123.519 12.3625 1527 152.793 1310.17 421.392
3529 0 129.351 12.4004 1604 153.662 1309.67 419.226
3530 0 132.407 12.7788 1692 149.024 1309.69 418.242
3531 0 134.538 12.4723 1678 145.839 1309.66 415.529
3532 0 139.399 12.6543 1764 152.611 1309.58 413.107
3533 0 145.362 12.72 1849 159.474 1309.25 410.725
3534 0 150.509 12.677 1908 154.682 1309.75 410.277
3535 0 155.336 13.0427 2026 161.595 1310.11 409.775
3536 1 87.3391 11.3466 991 154.02 1310.19 442.086
3537 0 90.4782 11.4724 1038 154.165 1309.12 440.583
3538 0 92.5955 12.1928 1129 155.912 1308.87 438.492
3539 0 94.5397 12.2382 1157 157.631 1308.94 439.148
3540 0 96.4479 12.0894 1166 159.836 1309.23 433.234
3541 0 99.5089 12.4612 1240 156.49 1309.19 432.394
3542 0 103.301 12.0328 1243 159.903 1308.3 430.381
3543 0 105.569 12.2953 1298 155.163 1308.42 429.601
3544 0 109.496 12.4844 1367 163.002 1308.13 427.849
3545 0 112.412 12.3652 1390 160.014 1307.95 426.412
3546 0 115.383 12.6795 1463 161.151 1308.24 424.126
3547 0 119.556 13.0148 1556 161.828 1308.08 423.191
3548 0 120.542 12.8835 1553 164.036 1308.48 422.09
3549 0 126.455 13.0561 1651 163.125 1308.31 419.784
3550 0 127.443 13.1981 1682 159.704 1308.66 418.456
3551 0 132.449 13.1447 1741 149.366 1308.53 416.416
3552 0 137.547 12.9628 1783 161.658 1307.73 414.918
3553 0 140.501 12.8682 1808 161.374 1308.24 413.131
3554 1 82.2767 11.2669 927 156.406 1308.55 443.703
3555 0 82.13 11.6644 958 151.124 1309.46 442.426
3556 0 90.061 15.2674 1375 137.448 1310.24 437.595
3557 0 92.2094 14.4888 1336 139.204 1309.93 437.403
3558 0 92.1178 13.993 1289 149.435 1310.07 437.59
3559 0 94.0922 13.0935 1232 151.517 1309.75 437.437
3560 0 95.1547 12.4744 1187 152.003 1309.41 437.519
3561 0 97.1933 12.0276 1169 129.29 1309.81 435.985
3562 0 101.389 12.0427 1221 154.289 1308.95 436.138
3563 0 104.403 11.8962 1242 156.126 1309.05 433.824
3564 0 105.41 12.3992 1307 153.006 1308.77 431.826
3565 0 109.49 12.2112 1337 152.928 1308.24 429.747
3566 0 112.418 12.5069 1406 149.501 1307.9 427.564
3567 0 115.324 12.157 1402 152.233 1308.89 427.387
3568 0 117.317 12.5386 1471 148.126 1309.64 424.938
3569 1 69.2255 9.7363 674 147.736 1309.2 451.288
3570 0 72.0529 11.4638 826 135.663 1309.97 453.436
3571 0 74.2639 11.5265 856 137.028 1307.66 451.117
3572 0 77.3086 12.8705 995 135.65 1307.53 448.672
3573 0 80.2145 12.7408 1022 133.404 1307.1 446.884
3574 0 78.2013 11.5855 906 138.436 1308.21 448.947
3575 0 82.1324 11.4571 941 141.886 1308.79 447.171
3576 0 84.1766 11.2739 949 135.26 1308.46 446.08
3577 0 86.1718 13.682 1179 127.12 1309.23 442.356
3578 0 94.2258 15.0596 1419 117.268 1309.57 439.831
3579 0 96.1094 14.6292 1406 125.206 1309.86 438.467
3580 0 96.0749 14.7593 1418 125.91 1309.58 437.731
3581 0 96.1601 12.4064 1193 133.707 1309.53 439.515
3582 0 99.1365 12.276 1217 139.251 1309.43 438.568
3583 0 101.365 13.0913 1327 138.726 1308.79 437.782
3584 0 107.23 14.6228 1568 126.901 1309.65 432.362
3585 0 109.296 14.2914 1562 137.887 1308.34 432.192
3586 0 109.428 13.1228 1436 142.533 1308.16 432.419
3587 0 112.54 13.1775 1483 141.702 1308.63 430.327
3588 0 115.657 13.0559 1510 145.081 1308.58 427.408
3589 0 119.554 13.1823 1576 137.74 1308.95 425.867
3590 0 121.44 12.9612 1574 139.453 1308.92 424.056
3591 0 128.401 14.517 1864 131.699 1309.5 420.384
3592 0 134.397 16.2503 2184 124.321 1310.4 413.054
3593 0 134.216 13.5378 1817 147.604 1310.1 414.43
3594 1 79.2358 11.4216 905 135.877 1308.66 447.096
3595 0 80.0714 11.9768 959 141.982 1309.45 448.032
3596 0 82.1484 12.4166 1020 138.422 1309.81 446.519
3597 0 86.1989 12.5756 1084 137.184 1309.6 443.556
3598 0 87.3119 12.8734 1124 137.998 1309.54 442.303
3599 0 91.36 12.7408 1164 142.995 1309.74 440.936
3600 0 93.2927 12.8092 1195 137.801 1310.63 440.388
3601 0 96.3848 13.1452 1267 138.762 1310.7 437.335
3602 0 98.4554 12.8992 1270 132.981 1310.11 437.217
3603 0 101.435 12.9738 1316 140.634 1309.85 436.251
3604 0 105.427 12.8241 1352 139.702 1310.58 433.51
3605 0 107.376 13.0011 1396 131.629 1310.99 430.536
3606 0 110.392 12.6458 1396 129.871 1311.2 429.307
3607 0 112.349 13.1466 1477 132.796 1311.32 425.818
3608 0 115.457 14.1351 1632 130.54 1312.17 422.188
3609 0 118.38 14.124 1672 135.472 1312.5 419.443
3610 0 120.437 13.0027 1566 141.512 1312.52 421.089
3611 0 128.25 14.7836 1896 127.441 1311.9 416.714
3612 0 127.376 12.8989 1643 138.61 1311.87 416.407
3613 0 133.264 13.0793 1743 134.224 1312 413.867
3614 0 138.318 13.2087 1827 137.319 1311.95 409.435
3615 0 143.504 12.8498 1844 139.402 1312.47 409.809
3616 1 82.0753 11.1848 918 131.215 1312.83 443.719
3617 0 85.2531 11.9292 1017 134.156 1311.91 438.658
3618 0 87.2501 12.573 1097 133.397 1312.93 438.049
3619 0 89.0727 12.6189 1124 134.749 1312.88 436.709
3620 0 93.0321 12.6408 1176 132.693 1312.76 435.725
3621 0 96.2529 12.436 1197 136.536 1312.76 435.055
3622 0 98.1648 12.5503 1232 140.291 1312.55 434.009
3623 0 102.108 12.7316 1300 140.917 1312.1 435.732
3624 0 102.108 12.7316 1300 162.545 1311.1 435.732
3625 0 107.24 13.0082 1395 136.077 1312.36 430.586
3626 0 114.232 16.0025 1828 120.51 1312.42 424.771
3627 0 116.101 15.7277 1826 124.961 1312.54 423.166
3628 0 117.296 14.3654 1685 135.331 1311.62 426.915
3629 0 119.169 13.3004 1585 138.885 1311.63 426.174
3630 1 66.1336 11.1592 738 130.82 1310.37 452.415
3631 0 66.236 11.7912 781 133.904 1310.28 450.125
3632 0 70.1499 11.8746 833 128.066 1310.29 450.369
3633 0 71.11 12.4174 883 140.418 1309.87 450.521
3634 0 72.0978 11.9699 863 140.384 1309.41 450.159
3635 0 75.1664 12.4391 935 129.242 1309.35 449.865
3636 0 76.3955 12.6709 968 141.847 1309.17 449.113
3637 0 78.5008 12.5731 987 135.363 1309.09 448.831
3638 0 80.2532 12.9216 1037 140.302 1308.97 448.469
3639 0 81.3089 12.926 1051 145.091 1308.87 446.578
3640 0 83.3191 13.0942 1091 137.615 1309.36 446.037
3641 0 86.3227 13.2758 1146 140.374 1309.28 445.868
3642 0 86.3208 13.5657 1171 141.701 1309.16 443.968
3643 0 90.5228 13.7976 1249 136.879 1309.49 443.849
3644 0 93.4064 13.7678 1286 140.883 1309.42 442.634
3645 0 96.3793 13.1564 1268 139.282 1309.51 441.609
3646 0 98.203 13.7776 1353 140.938 1309.73 440.817
3647 0 103.398 13.4819 1394 140.322 1310.3 439.775
3648 0 104.235 14.0356 1463 146.038 1309.99 438.226
3649 0 108.26 14.0495 1521 145.842 1309.8 437.947
3650 0 109.37 13.9801 1529 137.528 1309.79 436.744
3651 0 112.331 14.0567 1579 145.29 1310.12 435.519
3652 0 116.381 14.2635 1660 142.85 1310.11 434.058
3653 0 118.329 14.1639 1676 146.207 1310.24 432.453
3654 0 121.554 14.545 1768 145.59 1309.82 429.836
3655 0 124.613 14.3163 1784 138.984 1310.02 428.826
3656 0 129.523 14.0593 1821 145.563 1309.38 425.795
3657 0 132.516 14.4436 1914 144.419 1309.55 423.474
3658 0 138.508 14.4757 2005 138.598 1309.56 421.598
3659 0 143.277 14.4894 2076 141.387 1309.24 419.983
3660 1 79.2654 12.7925 1014 134.074 1309.42 452.699
3661 0 80.5322 13.299 1071 133.64 1309.29 451.868
3662 0 82.2976 13.196 1086 135.899 1309.7 450.356
3663 0 84.3414 13.5165 1140 139.716 1309.56 449.505
3664 0 87.5467 13.4785 1180 140.339 1309.28 447.845
3665 0 89.471 13.6022 1217 139.162 1309.7 446.326
3666 0 92.4161 13.3851 1237 135.831 1309.79 445.456
3667 0 94.4761 13.7918 1303 136.807 1309.01 444.009
3668 0 98.5378 13.406 1321 137.845 1308.77 443.076
3669 0 100.352 13.9708 1402 137.704 1308.99 441.471
3670 0 102.511 13.7156 1406 136.615 1308.87 440.041
3671 0 105.271 13.9449 1468 136.833 1308.41 438.298
3672 0 107.409 13.6487 1466 141.062 1309.03 437.205
3673 0 112.364 13.5453 1522 141.771 1308.44 435.293
3674 0 114.499 13.9477 1597 135.185 1308.12 433.751
3675 0 119.563 13.3904 1601 147.221 1307.99 431.1
3676 0 124.354 13.5661 1687 140.384 1308.28 430.627
3677 0 127.29 13.811 1758 142.282 1307.89 426.699
3678 0 132.419 13.2307 1752 141.607 1308.62 424.995
3679 0 135.307 13.5839 1838 136.189 1307.94 421.976
3680 1 77.0829 12.2336 943 139.76 1307.98 451.183
3681 0 82.1077 12.6176 1036 131.289 1307.93 449.301
3682 0 81.0851 13.0234 1056 130.054 1308.35 448.142
3683 0 83.1289 13.3648 1111 133.591 1308.3 446.446
3684 0 86.1862 13.1808 1136 138.599 1308.89 445.528
3685 0 89.2158 12.722 1135 140.566 1308.69 443.731
3686 0 91.2554 12.6677 1156 142.446 1309.01 443.393
3687 0 93.2888 13.0777 1220 139.158 1308.83 442.394
3688 0 95.2317 13.0734 1245 145.663 1309.22 439.603
3689 0 100.324 12.8982 1294 142.178 1309.6 438.2
3690 0 103.392 12.6606 1309 138.716 1309.5 436.413
3691 0 106.245 12.9982 1381 143.797 1309.73 436.068
3692 0 110.495 13.349 1475 136.779 1309.18 432.378
3693 0 112.781 12.9809 1464 138.749 1309.24 431.65
3694 0 115.75 13.0021 1505 136.184 1309.46 429.577
3695 0 119.5 13.138 1570 142.031 1309.56 427.287
3696 0 123.447 13.0583 1612 141.213 1309.76 425.423
3697 0 127.453 13.0794 1667 135.674 1310.42 421.725
3698 1 79.3018 13.1145 1040 130.221 1310.72 446.038
3699 0 77.3307 12.7634 987 135.316 1310.84 445.874
3700 0 77.618 12.0977 939 139.481 1310.84 446.502
3701 0 77.333 12.1423 939 136.211 1310.27 444.524
3702 0 80.4546 12.0316 968 54.3058 1310.14 442.504
3703 0 86.4284 11.9174 1030 133.701 1310.38 440.18
3704 0 86.2898 11.5889 1000 134.405 1310.59 438.893
3705 0 88.5798 12.2263 1083 132.006 1310.74 438.198
3706 0 91.4423 12.1607 1112 129.956 1310.78 436.009
3707 1 173.866 11.9805 2083 127.131 1311.36 396.503
3708 0 174.66 13.1799 2302 129.576 1310.88 394.077
3709 1 100.784 12.76 1286 132.574 1310.95 431.93
3710 0 104.456 12.6656 1323 136.403 1310.95 428.998
3711 0 109.474 12.5052 1369 137.309 1311.26 427.492
3712 0 111.482 12.6926 1415 129.153 1311.74 428.37
3713 0 115.408 13.4132 1548 135.614 1311.54 426.828
3714 0 117.329 13.2449 1554 127.271 1311.7 423.007
3715 0 129.502 12.8183 1660 128.11 1311.91 420.27
3716 0 130.391 13.4135 1749 121.141 1311.79 419.372
3717 0 128.395 13.295 1707 128.265 1312.36 418.192
3718 0 135.431 12.8922 1746 122.606 1311.64 414.215
3719 0 139.52 13.2454 1848 130.944 1311.26 413.727
3720 0 142.383 12.9159 1839 126.928 1311.57 409.279
3721 0 135.469 9.69964 1314 133.46 1312.24 416.244
3722 0 141.47 9.6628 1367 131.97 1312.45 414.119
3723 1 146.524 10.1076 1481 131.178 1312.35 409.773
3724 0 153.489 10.2353 1571 135.735 1312.67 407.116
3725 0 155.381 10.3294 1605 134.254 1312.72 405.849
3726 0 152.467 9.62177 1467 125.871 1312.65 405.86
3727 0 154.369 10.5397 1627 127.104 1312.46 402.561
3728 0 154.518 10.7172 1656 128.991 1312.9 403.545
3729 0 152.344 8.95341 1364 133.081 1312.42 408.842
3730 0 146.606 9.38567 1376 125.294 1312.64 411.676
3731 0 156.435 12.0626 1887 129.675 1311.9 404.125
3732 0 155.409 11.4343 1777 116.379 1312.27 404.218
3733 0 161.692 11.6147 1878 116.984 1312.13 400.224
3734 0 168.447 12.829 2161 114.519 1311.92 398.534
3735 0 171.332 13.2608 2272 113.206 1311.4 395.612
3736 0 176.426 13.388 2362 114.249 1311.01 392.671
3737 0 184.388 14.1224 2604 131.497 1311.02 391.263
3738 0 192.394 13.6283 2622 132.167 1311.01 388.295
3739 0 198.658 13.6868 2719 130.307 1310.83 385.701
3740 0 203.528 14.401 2931 124.993 1310.41 380.824
3741 0 212.758 14.0488 2989 135.642 1310.15 377.947
3742 0 219.577 14.0406 3083 127.139 1310.49 374.6
3743 0 226.738 14.1794 3215 122.429 1310.72 371.539
3744 0 233.598 13.6431 3187 131.178 1310.83 365.912
3745 0 243.763 13.7716 3357 128.721 1309.91 363.817
3746 0 251.589 14.1659 3564 116.672 1310.15 360.213
3747 1 187.58 13.5515 2542 117.269 1309.14 392.172
3748 0 193.489 13.5098 2614 113.857 1309.49 390.243
3749 0 199.593 13.4624 2687 110.448 1309.32 388.099
3750 0 204.58 12.9142 2642 111.999 1309.23 383.89
3751 0 211.786 13.1501 2785 103.969 1308.77 380.865
3752 0 222.516 16.619 3698 98.1777 1309.26 372.832
3753 0 225.79 13.92 3143 110.573 1309.14 375.851
3754 0 231.782 14.0045 3246 111.427 1309.13 372.329
3755 0 240.731 14.078 3389 114.843 1309.27 370.708
3756 0 247.609 14.3613 3556 105.306 1308.1 364.983
3757 0 256.687 14.3053 3672 118.115 1309.19 360.492
3758 0 267.902 14.5501 3898 115.223 1308.96 354.6
3759 0 275.815 14.3284 3952 120.483 1309.2 352.044
3760 0 284.765 14.2503 4058 118.42 1309.71 348.283
3761 0 292.801 14.1905 4155 111.607 1309.69 342.421
3762 0 301.68 16.1894 4884 112.075 1310.32 333.034
3763 0 312.803 15.9653 4994 107.689 1309.93 328.3
3764 0 323.599 16.0816 5204 111.733 1309.22 322.358
3765 1 323.77 13.8864 4496 114.084 1309.64 328.596
3766 0 324.863 13.4703 4376 114.333 1310.04 327.581
3767 1 61.2755 9.9224 608 105.47 1309.96 460.179
3768 0 63.2825 10.7613 681 99.3289 1310.03 459.884
3769 0 64.2811 11.543 742 98.0296 1309.69 458.872
3770 0 66.5102 11.4569 762 101.794 1309.46 457.352
3771 0 69.4163 11.9857 832 100.776 1309.24 455.829
3772 0 70.459 12.1347 855 113.628 1309.27 455.779
3773 0 71.3298 11.8464 845 110.507 1308.6 454.524
3774 0 72.2333 11.7813 851 109.578 1308.77 452.913
3775 0 75.4439 11.9161 899 108.873 1308.72 451.805
3776 0 76.2802 11.7593 897 106.386 1308.63 450.317
3777 0 79.398 11.8643 942 106.882 1308.85 448.706
3778 0 82.4046 11.7105 965 101.574 1308.83 447.303
3779 0 83.4506 12.3306 1029 106.917 1308.37 448.324
3780 0 86.3875 12.4092 1072 108.14 1307.78 446.402
3781 0 90.4158 12.1328 1097 105.988 1307.36 445.519
3782 0 93.3918 12.5065 1168 103.196 1307.12 444.242
3783 0 96.455 12.3063 1187 98.9671 1307.38 442.596
3784 0 99.3758 12.8301 1275 102.474 1307.49 439.622
3785 0 103.594 12.6551 1311 107.604 1307.53 436.619
3786 1 61.3201 10.9426 671 105.355 1307.68 458.243
3787 0 62.2647 11.7563 732 100.806 1308.45 459.516
3788 0 65.4173 11.8317 774 99.009 1308.31 459.041
3789 0 65.3579 12.3015 804 95.4266 1308.74 457.988
3790 0 68.2612 11.9834 818 98.269 1308.53 457.298
3791 0 69.2604 12.0993 838 94.1599 1308.7 456.568
3792 0 71.211 12.3717 881 96.8343 1308.69 455.527
3793 0 73.2666 12.3521 905 88.8376 1307.66 453.833
3794 0 74.3322 12.2289 909 93.4224 1307.44 452.322
3795 0 78.4584 12.6436 992 92.1573 1307.65 451.371
3796 0 82.43 12.8473 1059 95.0453 1307.69 449.843
3797 0 83.5147 12.9199 1079 92.9388 1307.75 449.086
3798 0 85.4933 12.9016 1103 89.9719 1308.18 447.38
3799 0 86.3034 12.8268 1107 97.3135 1308.42 446.612
3800 0 90.7056 13.0973 1188 92.0875 1308.11 441.813
3801 0 91.6206 12.7046 1164 98.6065 1308.38 440.6
3802 0 94.9551 12.9008 1225 96.2539 1308.28 439.316
3803 0 97.8245 13.0744 1279 97.2494 1308.1 439.171
3804 0 101.728 12.9954 1322 97.8805 1308.17 437.518
3805 0 102.758 13.3323 1370 91.9299 1308.52 435.745
3806 0 107.786 13.3042 1434 92.4463 1308.49 434.234
3807 0 109.784 13.2806 1458 95.3855 1308.26 431.674
3808 0 111.789 13.2839 1485 97.4141 1308.35 429.884
3809 0 117.789 13.6091 1603 93.7399 1308.48 427.296
3810 0 119.868 13.59 1629 93.4156 1308.66 425.744
3811 0 124.128 13.615 1690 91.7385 1308.97 424.828
3812 0 128.92 13.5899 1752 93.8396 1309.26 422.707
3813 0 130.77 13.4741 1762 91.6879 1309.51 419.525
3814 0 136.848 14.3956 1970 93.8264 1310 416.937
3815 0 139.818 14.3401 2005 99.9751 1309.83 415.252
3816 0 142.785 13.7479 1963 91.3581 1309.74 412.74
3817 0 147.897 13.7393 2032 99.5753 1309.66 410.3
3818 0 152.756 13.9635 2133 96.5495 1309.64 408.927
3819 0 156.578 14.7658 2312 93.0151 1309.29 406.114
3820 0 159.77 13.9012 2221 105.739 1309.6 403.832
3821 0 165.898 13.659 2266 95.3756 1309.34 401.188
3822 0 172.282 14.2151 2449 97.0555 1309.7 396.902
3823 0 177.14 14.0849 2495 100.158 1310.51 396.369
3824 0 182.873 14.3269 2620 98.771 1310.39 393.452
3825 0 190.054 14.1433 2688 103.86 1310.55 390.479
3826 0 194.778 14.8066 2884 99.9428 1310.94 385.803
3827 0 201.435 14.0591 2832 109.094 1310.71 384.875
3828 0 206.024 14.3478 2956 105.187 1310.07 381.291
3829 0 210.138 14.2906 3003 106.535 1310.73 378.854
3830 0 216.11 13.0581 2822 106.955 1311.63 373.486
3831 0 224.916 13.7829 3100 104.266 1311.32 374.065
3832 1 174.84 12.4285 2173 109.719 1311.35 397.77
3833 0 184.237 13.1461 2422 103.35 1311.02 394.103
3834 0 189.837 13.3852 2541 97.7607 1311.23 392.039
3835 0 195.625 13.3112 2604 100.446 1311.57 387.202
3836 0 201.742 13.6313 2750 102.127 1311.92 384.445
3837 0 207.629 13.1436 2729 103.214 1311.79 380.731
3838 0 202.912 9.69877 1968 112.066 1312.29 392.223
3839 0 206.72 12.7902 2644 101.496 1311.89 386.371
3840 0 204.463 12.7163 2600 102.782 1312.24 387.076
3841 0 205.938 13.3778 2755 104.779 1312.37 387.203
3842 1 247.714 13.7941 3417 102.941 1312.25 365.551
3843 0 254.719 14.4316 3676 96.9415 1312.41 359.957
3844 0 264.841 13.8725 3674 100.83 1312.87 357.956
3845 0 273.054 13.6493 3727 100.39 1312.99 352.431
3846 1 64.4665 12.5802 811 91.9864 1312 450.358
3847 0 68.3381 12.5406 857 93.252 1311.84 449.236
3848 0 69.193 12.429 860 98.8256 1313.07 448.894
3849 0 71.3221 12.3244 879 103.47 1312.79 448.32
3850 0 73.1994 12.4045 908 100.634 1312.42 446.357
3851 0 75.4503 13.0549 985 103.321 1312.24 444.712
3852 0 78.4003 12.3086 965 97.856 1311.42 443.491
3853 0 81.5574 12.6782 1034 105.594 1311.79 442.185
3854 0 84.403 12.4759 1053 104.095 1311.8 441.222
3855 0 85.3568 12.8637 1098 105.113 1311.69 439.286
3856 0 87.5127 12.7182 1113 100.901 1311.86 437.069
3857 0 89.3543 12.6015 1126 104.233 1311.37 435.122
3858 0 92.3317 12.3035 1136 101.358 1310.99 433.911
3859 0 96.4143 12.187 1175 105.314 1310.67 432.502
3860 0 98.2734 12.5161 1230 101.062 1310.53 429.32
3861 0 102.231 12.2565 1253 111.022 1310.02 426.807
3862 0 104.308 12.1467 1267 112.815 1309.68 424.946
3863 0 109.176 11.6784 1275 118.261 1309.97 424.132
3864 1 65.1541 9.73078 634 111.968 1310.18 449.896
3865 0 68.2683 10.4441 713 101.875 1309.6 450.059
3866 0 70.3319 11.7159 824 100.967 1309.74 449.209
3867 0 70.1134 11.5955 813 98.8007 1310.67 448.28
3868 0 73.3801 12.2922 902 100.033 1310.18 446.943
3869 0 76.4175 12.4317 950 103.688 1310.28 446.012
3870 0 76.3659 11.1699 853 106.3 1310.38 443.904
3871 1 30.0102 3.76538 113 124.115 1311.1 451.053
3872 0 48.1442 6.25205 301 108.877 1310.71 456.515
3873 0 45.1004 5.27711 238 105.739 1311.06 456.025
3874 0 48.3655 5.29303 256 103.707 1310.3 456.199
3875 1 89.2883 11.5357 1030 103.473 1309.87 434.115
3876 0 82.413 7.65656 631 105.458 1310.17 436.623
3877 0 83.3091 7.23811 603 99.0846 1310.19 437.925
3878 0 83.2989 6.92686 577 98.8284 1310.91 436.73
3879 0 82.2221 7.80812 642 102.489 1310.79 436.044
3880 0 85.3405 7.96808 680 106.266 1311.24 434.887
3881 0 87.4205 7.89288 690 103.096 1310.5 435.825
3882 0 97.3653 9.26408 902 105.927 1310.61 434.191
