index division length width area intensity CMx CMy
0 0 74.2725 14.2583 1059 144.917 1065.48 469.789
1 0 76.1172 14.5696 1109 151.197 1066.22 469.196
2 0 80.1949 14.1405 1134 152.456 1067.11 466.409
3 0 82.308 14.3607 1182 147.16 1066.17 464.994
4 0 85.3822 14.0779 1202 156.065 1065.77 462.686
5 0 89.221 14.0662 1255 153.077 1065.44 460.317
6 0 91.227 14.2721 1302 152.87 1065.19 459.033
7 0 95.1941 14.024 1335 156.073 1065.2 458.053
8 0 98.1576 14.273 1401 160.06 1065.4 457.058
9 1 52.1567 13.191 688 158.512 1065.92 477.929
10 0 53.0827 13.187 700 159.639 1065.78 477.387
11 0 55.0837 13.6157 750 159.108 1065.67 477.685
12 0 56.1496 13.7312 771 159.313 1066.46 476.15
13 0 60.1165 13.4406 808 160.578 1067.38 474.056
14 0 62.0765 13.5961 844 160.927 1068.2 472.777
15 0 62.0565 13.9067 863 157.968 1068.94 471.1
16 0 66.164 13.4212 888 156.423 1069.45 469.307
17 0 67.0854 13.9077 933 148.144 1070.76 468.815
18 0 70.1025 13.9225 976 151.728 1071.58 467.503
19 0 72.0989 13.7173 989 144.025 1072.36 465.008
20 0 76.2431 13.4963 1029 151.805 1073 463.634
21 0 76.1537 13.9323 1061 151.767 1073.34 462.363
22 0 80.1489 13.6246 1092 148.766 1073.96 461.08
23 0 85.1783 13.2311 1127 152.5 1074.32 458.784
24 0 86.1057 13.8434 1192 150.617 1075.08 457.471
25 0 89.2256 13.4491 1200 151.188 1075.2 456.511
26 0 93.0846 13.5038 1257 146.55 1074.87 454.949
27 0 95.0811 13.8303 1315 152.662 1075 452.536
28 1 51.1558 12.4326 636 147.398 1075.01 473.788
29 0 53.083 12.9985 690 149.509 1074.9 473.197
30 0 55.1105 12.6473 697 150.402 1074.72 472.321
31 0 56.0495 12.6852 711 149.298 1074.64 471.954
32 0 58.3692 13.0034 759 146.735 1073.73 470.008
33 0 60.0601 13.0869 786 145.655 1073.01 469.355
34 0 64.1667 12.9351 830 145.475 1072.61 468.605
35 0 66.0786 13.3629 883 140.719 1072.06 466.625
36 0 68.1053 13.4791 918 137.587 1071.55 465.389
37 0 71.2148 13.4382 957 139.446 1070.99 464.127
38 0 72.2325 13.7473 993 147.496 1070.89 462.17
39 0 75.1063 13.6606 1026 141.137 1070.6 459.848
40 0 78.0981 13.6495 1066 145.402 1069.87 458.726
41 0 82.176 14.043 1154 146.242 1069.42 456.962
42 0 85.0772 13.952 1187 139.077 1069.2 454.897
43 0 88.1621 13.4638 1187 148.905 1069.13 453.615
44 0 91.1659 13.5906 1239 149.361 1069.45 451.988
45 0 94.1453 13.203 1243 140.122 1069.09 450.677
46 0 97.1142 13.6437 1325 142.639 1069.79 448.123
47 1 53.0759 11.964 635 140.835 1069.88 471.995
48 0 54.1384 12.7636 691 143.245 1069.3 470.564
49 0 57.1465 12.3892 708 146.634 1068.54 470.571
50 0 57.1757 12.6277 722 145.109 1069.23 469.92
51 0 57.3325 12.8548 737 145.251 1069.3 469.526
52 0 59.2643 13.5495 803 138.762 1069.7 468.573
53 0 62.4029 13.4609 840 141.724 1069.94 467.604
54 0 64.1799 13.1661 845 143.124 1069.67 466.449
55 0 66.1769 13.3128 881 135.706 1070.27 465.894
56 0 68.1502 13.4409 916 145.894 1070.62 464.925
57 0 70.1907 13.4206 942 142.908 1070.61 463.688
58 0 73.1712 13.1199 960 143.181 1070.64 463.643
59 0 74.1934 13.6131 1010 146.395 1070.06 462.272
60 0 77.1868 13.6552 1054 140.861 1070.66 460.647
61 0 79.1823 13.6268 1079 152.221 1071.41 459.14
62 0 82.1503 13.6335 1120 147.143 1071.5 456.996
63 0 85.3133 13.6907 1168 150.765 1071.38 454.598
64 0 87.0989 13.7774 1200 153.161 1072 453.955
65 0 91.2932 13.5607 1238 151.471 1072.04 452.863
66 0 94.17 13.6243 1283 149.874 1071.92 450.344
67 0 98.2779 13.5432 1331 151.693 1071.96 448.712
68 1 50.1313 11.3103 567 143.942 1072.67 473.887
69 0 51.1764 11.9586 612 150.941 1072.67 472.209
70 0 53.2192 12.1948 649 149.564 1072.87 472.294
71 0 54.1791 12.0711 654 153.353 1072.52 471.869
72 0 58.3256 12.1388 708 150.825 1072.69 470.897
73 0 57.2476 12.7516 730 152.953 1071.63 469.329
74 0 60.251 12.5807 758 140.289 1071.68 467.743
75 0 62.2971 12.5527 782 143.014 1071.96 466.907
76 0 66.2121 12.1579 805 143.576 1071.57 466.409
77 0 67.145 12.7336 855 144.118 1071.2 464.508
78 0 68.1781 12.6727 864 140.381 1071.46 463.645
79 0 71.1209 12.4858 888 146.922 1071 462.416
80 0 74.1257 12.8026 949 138.06 1070.7 462.018
81 0 75.2871 12.9371 974 143.068 1070.43 460.147
82 0 76.2644 13.0205 993 146.515 1069.91 458.684
83 0 81.343 12.9944 1057 147.958 1070.34 457.096
84 0 84.2323 12.7742 1076 150.994 1069.83 456.74
85 1 44.1629 11.2764 498 142.938 1069.67 475.141
86 0 45.0913 11.9535 539 150.455 1069.62 474.327
87 0 47.2367 12.5538 593 153.099 1069.32 474.648
88 0 48.186 12.5763 606 155.609 1069.52 473.601
89 0 50.1713 12.6168 633 158.21 1069.15 472.537
90 0 50.1442 13.4412 674 144.631 1068.89 472.408
91 0 51.1568 13.2338 677 154.823 1068.89 471.561
92 0 54.2299 12.6314 685 156.939 1068.58 470.55
93 0 54.4514 13.6819 745 151.138 1069.57 469.875
94 0 58.4589 12.7953 748 153.824 1069.89 469.469
95 0 58.2463 13.6146 793 146.286 1070.09 468.816
96 0 60.4669 13.2304 800 143.32 1069.84 467.311
97 0 61.5298 13.7494 846 143.278 1069.62 466.636
98 0 64.4552 13.3581 861 149.087 1069.42 465.61
99 0 65.2349 13.7196 895 150.028 1069.94 465.074
100 0 67.5847 13.6125 920 149.876 1069.59 464.273
101 0 70.5807 13.4598 950 150.895 1069.96 463.395
102 0 73.1496 13.9577 1021 150.716 1069.62 462.38
103 0 74.381 13.9014 1034 148.98 1069.78 460.914
104 0 76.6302 13.9893 1072 148.639 1070 457.994
105 0 80.5852 13.6626 1101 143.207 1069.89 457.664
106 0 81.3994 13.5013 1099 147.443 1069.85 456.731
107 0 84.4284 14 1182 147.651 1070.49 455.958
108 0 88.4606 13.8819 1228 145.483 1070.39 454.104
109 1 47.2713 11.635 550 147.136 1070.17 475.942
110 0 50.1798 12.0567 605 149.223 1070.24 474.112
111 0 51.158 12.5103 640 151.375 1069.61 472.748
112 0 51.1028 12.9934 664 145.258 1069.3 472.038
113 0 52.1249 13.0072 678 147.633 1069.42 471.134
114 0 55.0708 13.2738 731 140.369 1068.78 469.728
115 0 56.1349 13.2182 742 140.795 1069.2 469.615
116 0 58.0767 12.8451 746 140.885 1068.97 469.267
117 0 60.1033 12.6782 762 138.82 1068.67 468.377
118 0 62.1563 13.1604 818 144.746 1069.4 467.601
119 0 63.0824 13.3476 842 137.765 1069.27 466.018
120 0 66.248 13.1023 868 139.781 1069.19 465.437
121 0 67.0549 13.3175 893 139.288 1069.27 464.506
122 0 70.1496 13.2859 932 138.45 1070.4 462.406
123 0 72.0657 13.3906 965 139.473 1070.17 460.984
124 0 76.1265 13.2937 1012 143.895 1070.42 460.465
125 0 77.132 13.4445 1037 140.959 1071.07 459.454
126 0 79.1363 13.6726 1082 136.117 1070.99 457.357
127 0 82.0972 13.4718 1106 132.142 1071.03 455.614
128 0 84.197 13.7535 1158 138.611 1071.34 454.1
129 0 88.141 13.7393 1211 143.494 1070.54 452.893
130 1 47.1586 11.6628 550 143.705 1070.28 473.013
131 0 47.2363 11.8976 562 143.667 1070.82 472.568
132 0 50.216 12.4064 623 149.411 1071.01 472.029
133 0 51.3302 13.1696 676 145.692 1070.92 470.343
134 0 50.1754 13.8713 696 147.667 1070.76 469.898
135 0 54.1976 13.2663 719 154.519 1070.99 469.47
136 0 57.2792 13.216 757 154.725 1070.96 469.25
137 0 57.3398 13.6554 783 151.865 1070.54 467.762
138 0 59.2181 13.5769 804 147.257 1071.02 466.637
139 0 60.3484 14.118 852 149.119 1071.4 465.147
140 0 64.3574 13.5027 869 145.703 1071.83 464.161
141 0 65.1619 13.8731 904 152.185 1071.68 462.49
142 0 68.3111 13.702 936 147.012 1072.23 461.739
143 0 71.2829 13.4254 957 155.253 1072.75 461.917
144 0 72.3321 13.5625 981 146.677 1072.65 460.576
145 0 75.4756 13.9913 1056 150.437 1073.11 458.456
146 0 78.3832 13.9443 1093 155.193 1073.61 457.124
147 0 79.3768 14.0343 1114 149.232 1073.62 455.553
148 0 83.4968 14.0724 1175 150.006 1073.48 453.681
149 0 86.3181 14.1222 1219 143.278 1073.5 451.082
150 0 89.1692 13.8613 1236 150.865 1073.72 449.657
151 0 92.2674 14.0786 1299 148.498 1073.92 447.965
152 1 45.1533 12.5794 568 149.754 1074.02 471.912
153 0 46.3018 12.2673 568 147.257 1074.18 470.636
154 0 49.1045 13.0945 643 136.966 1074.38 469.488
155 0 50.218 13.6007 683 149.627 1074.7 468.958
156 0 51.1953 13.7903 706 142.972 1075.17 468.152
157 0 53.2295 13.47 717 151.925 1074.92 467.439
158 0 55.2892 13.3299 737 149.559 1076.17 465.848
159 0 55.1558 13.8698 765 148.515 1076.1 464.587
160 0 56.1987 14.0217 788 151.78 1075.54 463.138
161 0 61.1991 14.1342 865 145.187 1075.3 462.369
162 0 61.3929 14.2525 875 153.499 1075.37 460.352
163 0 64.4679 14.0225 904 149.046 1075.78 459.132
164 0 65.2783 14.262 931 146.74 1075.71 459.638
165 0 68.4622 14.0077 959 154.011 1075.53 457.602
166 0 71.4384 14.306 1022 150.309 1076.07 456.709
167 0 71.4351 14.2787 1020 145.942 1076.32 455.658
168 0 73.3811 14.2952 1049 157.15 1076.86 453.483
169 0 77.3796 14.4095 1115 154.374 1076.79 452.616
170 0 78.5239 14.5433 1142 156.609 1076.89 450.115
171 0 84.3992 14.1115 1191 155.99 1077.02 448.238
172 0 86.5337 14.1448 1224 155.362 1077.14 447.834
173 0 90.6452 14.1431 1282 158.657 1076.72 446.58
174 0 93.4953 14.4927 1355 152.854 1077.02 444.808
175 0 96.3816 14.0898 1358 156.967 1077.3 443.846
176 1 48.3674 13.232 640 166.2 1076.36 466.728
177 0 49.3123 13.8505 683 168.801 1077.13 467.057
178 0 50.3254 13.9691 703 164.257 1077.37 464.943
179 0 52.3095 13.9172 728 161.468 1077.06 464.402
180 0 54.2881 13.981 759 163.339 1077.27 463.231
181 0 57.3941 14.0258 805 168.198 1077.2 461.842
182 0 57.2883 14.2961 819 167.665 1077.63 460.871
183 0 61.4828 13.825 850 167.335 1077.91 459.804
184 0 62.461 14.0568 878 168.714 1077.73 458.899
185 0 66.4402 13.7718 915 164.138 1078.06 457.205
186 0 67.3756 13.8329 932 166.469 1077.65 457.137
187 0 69.5076 13.9697 971 170.738 1077.41 455.492
188 0 72.2174 14.2348 1028 171.879 1077.14 454.489
189 0 75.2446 13.8747 1044 165.301 1077.38 452.72
190 0 77.5621 13.8856 1077 166.09 1077.24 451.987
191 0 80.4019 13.8927 1117 164.201 1077.09 450.324
192 0 83.3705 13.6859 1141 168.59 1076.93 448.773
193 0 87.4889 13.5903 1189 162.887 1076.91 445.993
194 1 40.365 11.8419 478 162.808 1077.26 468.211
195 0 41.3084 12.7577 527 162.228 1076.91 468.184
196 0 43.2413 12.7887 553 165.512 1076.97 466.866
197 0 44.1621 13.2467 585 164.689 1076.51 466.904
198 0 45.3031 12.9792 588 167.76 1076.29 466.129
199 0 46.2572 12.8413 594 161.958 1076.71 465.547
200 0 48.2678 12.9279 624 167.167 1076.17 464.582
201 0 49.424 13.455 665 161.089 1076.08 463.626
202 0 50.5263 13.6365 689 159.524 1076.11 461.028
203 0 53.4386 13.5857 726 159.211 1076.84 459.285
204 0 55.291 13.3837 740 167.18 1076.76 458.12
205 0 55.4759 14.1323 784 158.622 1076.94 457.967
206 0 57.5783 13.6857 788 160.76 1076.3 457.439
207 0 60.4733 13.6093 823 159.622 1076.48 455.196
208 0 63.4856 13.4834 856 165.463 1076.34 455.238
209 0 65.5589 13.5603 889 163.623 1075.58 453.362
210 0 67.434 13.8061 931 159.618 1075.38 452.531
211 0 70.3859 13.7528 968 162.712 1075.41 450.491
212 0 73.6154 13.4347 989 159.74 1075.34 450.319
213 0 75.6366 13.6178 1030 168.066 1075.81 449.303
214 0 75.6088 13.8608 1048 165.331 1075.26 448.961
215 0 79.5357 13.8554 1102 169.353 1075.27 447.331
216 0 83.6008 13.7678 1151 167.236 1074.93 445.745
217 0 86.3885 13.9602 1206 166.304 1074.61 446.725
218 1 44.1435 11.961 528 166.915 1074.29 467.633
219 0 47.1567 12.3206 581 158.997 1074.55 466.923
220 0 49.1487 12.3096 605 162.706 1074.2 465.745
221 0 51.2177 12.0076 615 160.899 1073.98 465.38
222 0 51.1497 12.4341 636 165.314 1074.26 464.739
223 0 54.2044 12.5082 678 160.906 1074.4 463.566
224 0 55.224 12.5489 693 168.046 1074.66 463.137
225 0 57.2066 12.3412 706 163.125 1074.3 462.378
226 0 59.3378 12.4036 736 160.443 1074.73 462.152
227 0 60.2309 12.6181 760 156.9 1074.72 461.271
228 0 62.1666 12.6756 788 160.187 1074.7 460.378
229 0 64.1484 12.627 810 171.168 1074.87 460.02
230 0 66.155 12.7277 842 160.082 1075.4 458.637
231 0 68.1345 12.6808 864 167.347 1074.62 457.522
232 0 68.228 12.9272 882 166.254 1074.63 456.481
233 0 68.228 12.9272 882 168.32 1074.63 456.481
234 0 73.2414 12.6295 925 165.542 1074.97 454.837
235 0 78.2277 12.8727 1007 168.872 1075.08 452.765
236 0 79.2432 12.7077 1007 161.585 1075.24 451.311
237 0 83.151 12.4112 1032 156.957 1076.04 449.762
238 0 85.1922 12.4307 1059 168.331 1075.23 448.257
239 1 45.1409 10.9435 494 159.626 1075.85 469.613
240 0 45.0983 11.9517 539 157.84 1075.66 468.427
241 0 45.0825 11.9337 538 150.636 1075.23 468.037
242 0 47.0817 11.7031 551 151.358 1075.11 467.51
243 0 48.0934 11.8935 572 155.629 1075.39 466.374
244 0 49.0927 12.2421 601 151.694 1075.04 466.151
245 0 50.1488 11.9644 600 154.66 1075 465.202
246 0 53.1076 12.3146 654 153.235 1075.03 464.35
247 0 56.0513 11.6857 655 154.962 1074.84 463.053
248 0 56.1146 12.1181 680 152.918 1075.01 463.541
249 0 57.0778 12.2464 699 150.391 1074.87 462.888
250 0 58.1383 12.7799 743 146.086 1074.48 461.573
251 0 60.2148 12.4222 748 156.574 1075.02 460.968
252 0 64.2793 12.1034 778 152.405 1075.19 459.434
253 0 65.2276 12.4947 815 150.859 1075.31 458.389
254 0 66.0705 12.6683 837 153.95 1075.09 456.515
255 0 68.1202 12.5367 854 152.966 1075.49 456.773
256 0 73.138 12.4969 914 152.298 1075.3 455.067
257 0 75.1748 12.4776 938 149.829 1075.24 452.978
258 0 78.2178 12.4652 975 153.31 1075.75 452.298
259 0 79.1572 12.6584 1002 156.337 1075.98 450.741
260 0 83.2628 12.8028 1066 153.158 1076.45 448.207
261 0 85.2344 12.9877 1107 155.893 1077.01 448.115
262 0 88.2075 13.0261 1149 146.62 1077.11 445.772
263 0 93.2398 12.2802 1145 152.23 1077.48 444.783
264 0 95.1768 12.6501 1204 151.229 1077.25 443.559
265 1 53.0338 11.4078 605 155.01 1076.47 464.648
266 0 56.0791 11.7691 660 153.294 1076.5 462.206
267 0 58.114 11.5979 674 146.282 1075.87 462.031
268 0 59.205 11.7895 698 154.861 1077.36 460.513
269 0 61.2488 12.0982 741 154.777 1077.71 459.788
270 0 62.1417 12.3106 765 153.118 1078.5 459.451
271 0 65.1531 12.0332 784 151.126 1078.42 457.767
272 0 70.197 11.8524 832 145.168 1078.42 456.43
273 0 72.1596 12.2922 887 146.179 1078.43 453.732
274 0 72.3319 12.3459 893 141.719 1078.39 451.394
275 0 76.1145 12.2579 933 147.746 1078.7 451.361
276 0 78.1709 12.639 988 150.777 1077.95 449.496
277 0 81.354 12.4886 1016 148.96 1077.58 447.208
278 0 83.2689 12.6818 1056 152.299 1077.44 446.458
279 0 85.2325 12.8003 1091 146.689 1077.82 444.573
280 0 90.4223 12.4527 1126 158.863 1077.85 442.368
281 0 94.2196 12.11 1141 153.188 1078.56 441.684
282 1 49.0228 11.5252 565 155.66 1079.17 462.434
283 0 53.0879 11.7918 626 155.324 1079.14 461.021
284 0 56.1044 11.7994 662 157.039 1078.35 460.76
285 0 57.238 11.8977 681 150.088 1078.06 461.031
286 0 58.3053 11.9372 696 153.057 1078.3 459.397
287 0 60.1378 11.8561 713 156.832 1077.84 458.464
288 0 61.2617 12.0793 740 152.377 1078.07 457.469
289 0 64.4507 12.0557 777 160.546 1078.03 456.203
290 0 65.2256 12.5871 821 148.421 1077.24 455.343
291 0 68.3751 12.1974 834 156.811 1077.72 454.938
292 0 69.415 12.4181 862 163.582 1077.99 453.204
293 0 72.4559 12.2419 887 162.965 1077.38 452.005
294 0 73.4379 13.0042 955 156.123 1077.82 450.503
295 0 77.4931 12.7495 988 156.61 1077.74 449.593
296 0 79.4606 12.4842 992 161.556 1077.54 447.823
297 0 81.5062 13.0665 1065 162.346 1077.2 446.609
298 0 86.5458 13.022 1127 158.848 1076.9 443.699
299 0 89.3595 13.0484 1166 161.413 1076.57 441.781
300 1 46.4566 11.6022 539 163.831 1076.63 461.234
301 0 48.3046 11.945 577 158.101 1077.82 464.137
302 0 50.1089 12.5527 629 159.024 1077.54 463.693
303 0 53.1753 12.2989 654 162.355 1077.41 461.829
304 0 53.3653 12.6674 676 160.703 1077.32 460.476
305 0 55.1624 12.5267 691 158.216 1077.33 460.508
306 0 57.1418 12.5652 718 152.401 1076.9 459.969
307 0 58.2478 12.67 738 151.94 1076.76 459.47
308 0 60.1284 12.5731 756 151.648 1076.59 458.521
309 0 62.4126 12.4815 779 151.444 1075.97 456.7
310 0 63.2756 12.9434 819 155.433 1075.7 456.332
311 0 64.1338 12.6454 811 148.414 1075.79 457.122
312 0 67.2869 12.8108 862 148.965 1075.75 456.123
313 0 70.2551 12.9386 909 146.637 1075.9 453.87
314 0 70.4669 13.3254 939 150.898 1075.84 453.633
315 0 75.4441 12.7379 961 143.139 1075.19 451.916
316 0 75.739 12.9128 978 139.959 1075.04 452.033
317 0 79.4619 12.9748 1031 150.747 1074.94 449.885
318 0 81.4423 12.8434 1046 149.567 1075.54 448.271
319 0 82.4877 13.3717 1103 80.8024 1075.06 447.23
320 0 85.7027 13.3485 1144 151.715 1075.64 445.792
321 0 88.7406 13.162 1168 142.066 1075.5 446.637
322 0 93.5255 13.0125 1217 141.736 1075.61 445.259
323 0 96.3582 13.0866 1261 149.285 1075.65 443.81
324 0 99.7749 13.1396 1311 150.042 1075.02 440.927
325 0 103.598 13.2049 1368 162.271 1075.2 438.372
326 0 106.276 13.5119 1436 161.383 1075.13 437.124
327 1 57.1493 12.1611 695 157.21 1075.05 461.878
328 0 59.3289 12.6583 751 165.228 1074.53 460.714
329 0 59.1036 12.808 757 162.35 1074.38 459.773
330 0 59.2868 12.8359 761 157.35 1074.22 459.259
331 0 64.1874 12.9309 830 159.541 1074.2 458.633
332 0 65.3087 12.7395 832 155.288 1074.06 456.47
333 0 68.1459 12.8988 879 157.83 1074.16 456.53
334 0 69.1421 13.3059 920 158.364 1074.66 455.538
335 0 72.3034 13.1667 952 161.264 1074.97 453.967
336 0 75.4034 13.0498 984 157.644 1074.93 452.866
337 0 78.3301 12.9069 1011 157.084 1075.61 451.683
338 0 79.2398 13.1121 1039 156.556 1075.55 451.544
339 0 82.2163 13.3915 1101 158.097 1075.64 449.705
340 0 86.5411 12.7916 1107 161.371 1075.51 447.893
341 0 90.6012 12.5826 1140 163.2 1075.01 447.248
342 0 91.4113 12.7884 1169 161.354 1075.26 445.432
343 0 95.4553 13.0218 1243 154.903 1075.55 444.447
344 0 98.4003 13.1199 1291 159.328 1074.23 442.486
345 1 50.4005 11.4483 577 158.562 1073.65 467.062
346 0 53.4563 11.9537 639 152.188 1074.15 465.546
347 0 55.3867 12.0606 668 152.153 1073.95 464.377
348 0 57.2969 11.868 680 156.728 1074.58 463.775
349 0 57.4171 12.4876 717 150.106 1074.38 462.379
350 0 60.2204 12.2716 739 153.095 1074.97 461.927
351 0 61.4771 11.9394 734 158.692 1074.76 461.214
352 0 62.5546 12.1973 763 144.096 1074.84 460.284
353 0 63.3626 12.9256 819 146.315 1074.71 458.971
354 0 66.4847 12.6345 840 153.901 1074.27 457.83
355 0 69.2917 12.7865 886 144.966 1074.46 456.227
356 0 71.5902 12.4738 893 149.013 1074.35 455.274
357 0 74.4266 12.7239 947 150.746 1074.33 454.288
358 0 77.6118 12.7944 993 145.661 1074.62 451.428
359 0 78.2608 12.4583 975 147.348 1074.55 451.442
360 0 82.5751 12.7278 1051 146.08 1074.88 450.837
361 1 42.4563 10.2929 437 144.426 1074.85 469.243
362 0 44.2817 10.7042 474 150.73 1074.73 470.07
363 0 43.265 11.7185 507 146.495 1075 468.836
364 0 47.3562 11.6352 551 150.508 1075.07 468.918
365 0 49.3139 11.6803 576 141.427 1075.17 466.578
366 0 51.4089 11.5933 596 131.794 1074.58 465.428
367 0 51.2994 11.4231 586 139.85 1075.2 465.404
368 0 53.3066 11.3494 605 136.319 1075.09 465.38
369 0 55.343 11.6726 646 144.073 1075.58 464.138
370 0 56.2285 11.5778 651 141.02 1076.07 462.708
371 0 58.2153 11.9213 694 146.916 1075.54 461.981
372 0 60.2759 12.3101 742 139.092 1075.85 460.923
373 0 61.2117 11.8115 723 146.325 1076.38 460.75
374 0 62.2486 12.5465 781 144.223 1076.75 460.146
375 0 64.2181 12.4108 797 147.27 1076.97 458.606
376 0 67.2899 12.5576 845 140.401 1076.94 457.692
377 0 69.1329 12.7436 881 143.087 1076.68 456.597
378 0 69.1913 13.2965 920 143.11 1075.81 456.353
379 0 73.13 12.553 918 146.643 1075.96 455.413
380 0 74.2938 12.8947 958 141.711 1075.97 454.663
381 0 76.2088 12.9513 987 151.713 1076.2 453.197
382 0 80.2264 12.5644 1008 155.13 1076.72 452.185
383 0 83.1832 12.767 1062 151.528 1076.89 450.24
384 0 87.3741 12.7612 1115 152.775 1077.35 448.241
385 1 46.3829 12.0087 557 152.632 1077.76 467.124
386 0 47.261 12.0184 568 149.637 1077.36 467.076
387 0 48.1292 11.6977 563 155.089 1076.8 466.526
388 0 48.1825 12.3489 595 156.474 1076.57 466.487
389 0 50.1755 12.5559 630 163.611 1076.73 465.111
390 0 51.1385 12.9648 663 161.805 1076.95 464.753
391 0 52.1359 13.3114 694 165.527 1076.62 462.432
392 0 53.1181 13.4418 714 168.367 1076.97 462.567
393 0 54.1119 13.1949 714 164.992 1077.26 460.976
394 0 57.1415 13.6328 779 160.866 1077.7 461.202
395 0 57.13 13.6356 779 164.226 1077.55 461.489
396 0 60.0832 13.3149 800 165.685 1077.54 460.675
397 0 60.1445 13.3013 800 173.415 1077.2 458.655
398 0 63.0885 13.6316 860 164.088 1076.98 458.3
399 0 64.1651 13.6679 877 161.669 1076.78 456.465
400 0 66.1772 13.7056 907 166.658 1076.76 456.053
401 0 67.1064 13.6947 919 156.718 1077.11 456.635
402 0 69.1061 14.0074 968 169.744 1076.83 455.476
403 0 72.1243 13.657 985 168.687 1077.29 454.194
404 0 75.0729 13.5069 1014 166.809 1077.06 452.446
405 0 75.0864 14.3568 1078 166.408 1076.64 451.887
406 0 79.1382 14.2156 1125 170.135 1076.45 451.045
407 0 81.1379 14.6048 1185 164.492 1076.16 447.771
408 0 85.1478 14.1988 1209 170.769 1076.34 446.364
409 0 87.302 14.9252 1303 161.421 1076.63 444.835
410 0 91.1933 14.387 1312 165.583 1075.88 444.075
411 0 92.227 14.4318 1331 161.948 1075.57 442.294
412 0 95.2074 14.3791 1369 164.397 1075.72 441.633
413 0 99.1165 14.034 1391 167.042 1075.6 439.916
414 1 51.0261 12.229 624 166.099 1075 463.569
415 0 53.1368 13.2488 704 161.381 1074.75 462.659
416 0 55.0401 13.0087 716 161.932 1074.78 461.764
417 0 58.1225 12.8522 747 155.515 1075.5 461.325
418 0 60.1649 12.715 765 159.188 1075.85 459.732
419 0 62.1782 13.1397 817 157.262 1075.96 458.878
420 0 63.0975 13.4712 850 157.539 1075.89 458.025
421 0 67.2318 13.0147 875 158.744 1076.17 457.32
422 0 67.1001 13.3085 893 153.905 1076.11 456.834
423 0 70.1516 13.143 922 151.684 1075.89 455.855
424 0 72.3289 13.1206 949 160.697 1075.88 454.529
425 0 76.1189 12.9534 986 156.367 1075.91 452.314
426 0 78.2294 13.6522 1068 148.82 1076.12 450.036
427 0 82.1491 13.4268 1103 157.558 1075.66 448.358
428 0 84.3118 13.367 1127 156.798 1075.75 448.539
429 0 87.2514 13.1688 1149 158.627 1074.5 446.37
430 0 89.4565 13.2467 1185 156.24 1074.98 445.154
431 0 93.3784 13.3114 1243 162.755 1074.9 443.516
432 1 47.1574 11.9175 562 154.242 1074.63 466.633
433 0 49.2099 11.9488 588 151.541 1074.97 465.81
434 0 51.1975 12.0514 617 154.793 1074.76 464.342
435 0 53.2811 11.8241 630 150.986 1075.18 463.852
436 0 54.1109 12.2896 665 149.299 1075.23 462.965
437 0 57.1842 12.1887 697 154.887 1074.72 461.976
438 0 58.1095 12.1151 704 147.706 1075.01 461.366
439 0 59.2211 12.6982 752 155.778 1074.74 460.136
440 0 61.2248 12.3969 759 155.42 1074.17 460.121
441 0 63.1474 12.5104 790 143.796 1074.5 457.78
442 0 65.182 12.35 805 151.876 1074.64 457.612
443 0 68.1734 12.1162 826 157.483 1075.15 456.611
444 0 70.2192 12.4467 874 152.857 1074.93 455.906
445 0 72.0644 12.5582 905 150.421 1075.22 454.89
446 0 75.3463 12.7013 957 158.831 1074.98 453.99
447 0 78.2482 12.4859 977 158.833 1074.79 451.981
448 0 81.1442 12.2252 992 156.979 1074.67 451.585
449 0 83.311 12.5554 1046 160.517 1074.52 448.989
450 0 86.4735 12.7438 1102 157.952 1074.59 447.482
451 0 88.3585 12.5511 1109 162.578 1074.69 446.494
452 1 46.4108 11.5275 535 155.004 1073.39 466.432
453 0 49.2901 11.3005 557 158.655 1073.59 466.226
454 0 51.0532 11.7525 600 156 1074.3 466.115
455 0 52.0833 11.2896 588 154.102 1074.28 467.066
456 0 54.1661 12.2217 662 150.86 1074.15 465.267
457 0 54.0386 12.232 661 155.387 1074.45 464.761
458 0 56.0832 12.3388 692 150.676 1074.17 464.416
459 0 58.1175 12.578 731 154.58 1074.62 463.275
460 0 59.031 12.6035 744 149.476 1074.18 462.069
461 0 61.0327 12.1902 744 155.075 1074.15 460.44
462 0 63.0615 12.7494 804 151.147 1074.94 460.313
463 0 65.1114 12.8549 837 157.62 1075.16 459.789
464 0 66.0845 12.5597 830 153.077 1074.68 458.449
465 0 68.0505 12.476 849 151.673 1075.1 457.66
466 0 70.0508 12.5766 881 147.956 1075.14 455.902
467 0 74.0766 13.108 971 153.142 1074.54 454.833
468 0 75.1872 13.2203 994 154.546 1074.71 452.826
469 0 78.1153 13.0448 1019 152.467 1074.97 451.754
470 0 81.1407 13.0761 1061 152.384 1074.44 450.827
471 0 84.0904 12.5579 1056 157.082 1074.78 449.545
472 0 87.1143 12.9485 1128 155.034 1075.11 447.426
473 0 89.1803 12.7943 1141 154.069 1074.32 447.281
474 0 93.2877 12.7884 1193 153.329 1074.73 443.951
475 1 49.094 11.5696 568 149.567 1075.79 465.423
476 0 51.2576 11.8812 609 152.414 1076.03 464.379
477 0 51.253 11.8237 606 150.875 1076.43 463.29
478 0 53.2668 12.2215 651 146.104 1075.83 462.495
479 0 55.1017 12.0142 662 149.48 1076.1 462.704
480 0 56.2402 12.2688 690 145.01 1076.19 460.588
481 0 58.1134 12.6821 737 142.319 1076.4 459.24
482 0 61.1957 12.3865 758 144.819 1076.59 458.434
483 0 64.2264 12.3937 796 147.947 1076.67 456.438
484 0 63.1249 13.0535 824 139.334 1076.59 455.795
485 0 68.1736 12.6295 861 141.884 1076.43 454.541
486 0 69.2203 12.5541 869 144.472 1076.94 454.163
487 0 73.1986 12.3363 903 142.567 1077.43 453.839
488 0 75.2196 12.7227 957 145.445 1077.09 452.192
489 0 76.3552 12.455 951 143.863 1077.03 450.644
490 1 39.056 11.2659 440 143.991 1077.22 468.505
491 0 42.0474 11.4157 480 140.675 1077.03 467.804
492 0 44.2908 11.6729 517 147.478 1077.38 466.952
493 0 43.2582 12.1133 524 149.811 1077.55 466.29
494 0 45.3166 12.0265 545 143.993 1077.71 465.385
495 0 47.3168 11.6026 549 150.678 1077.88 465.417
496 0 48.2465 12.3947 598 146.467 1078.32 464.02
497 0 50.2005 11.8126 593 155.185 1077.81 462.786
498 0 51.2688 11.9956 615 150.813 1079.36 461.607
499 0 52.2754 11.8411 619 147.963 1079.47 462.011
500 0 53.2894 12.2163 651 146.409 1077.95 461.518
501 0 53.2319 12.4737 664 146.869 1078.04 460.056
502 0 56.3014 12.2732 691 146.606 1078.15 460.36
503 0 59.2467 12.1357 719 141.236 1077.88 458.562
504 0 59.1758 12.5051 740 149.731 1077.83 457.919
505 0 61.2915 12.4324 762 150.756 1077.88 457.484
506 0 63.1398 12.6069 796 149.592 1077.83 456.225
507 0 65.197 12.3012 802 142.05 1078.47 454.41
508 0 67.1342 12.6761 851 148.208 1077.83 454.564
509 0 68.1364 12.2548 835 143.165 1078.13 453.084
510 0 71.2114 12.5542 894 142.575 1078.24 452.194
511 0 73.2676 12.5294 918 143.389 1076.48 450.521
512 0 76.1426 12.4109 945 145.94 1077.85 449.425
513 0 78.2548 12.3699 968 145.521 1077.73 448.806
514 1 42.045 10.4412 439 146.672 1077.35 466.667
515 0 41.0159 10.8251 444 145.836 1077.69 466.277
516 0 45.035 11.2801 508 142.222 1077.87 463.618
517 0 46.0902 11.9765 552 146.873 1078.03 462.978
518 0 48.058 11.9023 572 144.491 1078.07 463.04
519 0 48.1397 12.0483 580 143.784 1077.54 462.964
520 0 51.0606 11.9466 610 144.428 1076.94 461.203
521 0 52.0561 12.2752 639 145.408 1076.54 461.736
522 0 53.0528 12.5535 666 142.784 1076.35 460.527
523 0 53.1212 12.9139 686 143.529 1076.18 459.918
524 0 55.1032 12.8849 710 144.404 1075.92 459.365
525 0 58.1064 12.632 734 140.922 1075.57 456.864
526 0 59.1177 12.6189 746 146.597 1075.27 456.769
527 0 61.151 12.5264 766 149.843 1075.03 456.658
528 0 62.1658 13.0458 811 150.234 1075.22 455.75
529 0 64.1553 12.9062 828 148.312 1075.1 453.896
530 0 67.1671 13.0272 875 153.454 1074.9 453.659
531 0 69.1969 12.9341 895 147.646 1074.86 453.361
532 0 69.187 13.5141 935 145.67 1074.79 453.273
533 0 72.0794 13.0273 939 153.67 1075.83 452.016
534 0 76.1936 13.4263 1023 150.788 1075.4 450.895
535 0 77.219 13.2221 1021 151.902 1075.81 450.599
536 0 78.2239 13.5892 1063 160.277 1075.7 449.022
537 0 82.1262 12.9313 1062 158.23 1075.64 447.567
538 0 84.2041 13.2298 1114 157.277 1075.79 446.174
539 0 88.3301 12.9288 1142 164.38 1075.66 445.673
540 0 90.273 13.2376 1195 160.886 1075.92 444.775
541 0 94.3304 13.5799 1281 160.908 1076.12 442.201
542 0 97.1602 13.2976 1292 153.793 1075.74 440.036
543 0 99.2279 13.726 1362 151.382 1075.28 439.369
544 1 55.2462 12.0008 663 162.276 1075.52 461.718
545 0 55.1702 12.6518 698 161.474 1075.91 461.106
546 0 58.2314 13.2918 774 158.612 1075.74 458.932
547 0 59.0798 12.9147 763 163.592 1075.1 458.917
548 0 62.2473 13.1893 821 163.978 1075.51 458.136
549 0 64.1541 13.1558 844 162.57 1074.96 457.893
550 0 66.1193 13.2337 875 163.821 1074.59 456.51
551 0 65.1202 13.6824 891 165.047 1074.73 455.699
552 0 68.2202 13.5297 923 163.372 1074.95 453.6
553 0 70.1582 13.4696 945 166.55 1074.89 452.764
554 0 73.3861 13.4767 989 163.117 1075.67 451.376
555 0 76.1471 13.684 1042 161.653 1075.9 451.159
556 0 78.3793 13.6005 1066 167.253 1075.34 449.502
557 0 82.3225 13.6779 1126 158.135 1074.37 447.873
558 0 85.2134 13.6363 1162 162.915 1074.98 446.367
559 0 87.3239 13.5358 1182 160.81 1074.82 445.9
560 0 89.3213 13.5018 1206 160.691 1074.98 445.029
561 0 93.1454 13.6453 1271 159.375 1074.53 443.402
562 0 96.3081 13.3841 1289 165.836 1074.28 442.05
563 0 100.24 13.7569 1379 161.01 1074.05 439.847
564 1 49.172 12.3851 609 157.742 1074.43 464.637
565 0 50.0907 12.7369 638 156.011 1073.76 463.63
566 0 53.0919 12.6196 670 163.287 1073.91 463.031
567 0 55.1015 12.5949 694 151.71 1073.38 462.843
568 0 56.0484 13.0244 730 147.449 1072.89 460.768
569 0 57.0579 13.0744 746 155.343 1072.98 460.798
570 0 60.1127 12.8259 771 144.949 1073.86 459.987
571 0 63.1695 12.8385 811 150.941 1073.89 459.51
572 0 65.1234 12.5915 820 154.528 1074.14 458.645
573 0 66.2349 13.2407 877 146.366 1074.24 457.173
574 0 70.1847 13.094 919 148.432 1074.36 455.976
575 0 72.1871 12.9109 932 139.245 1074.79 455.192
576 0 75.1114 12.9141 970 136.949 1074.99 453.146
577 0 77.3199 12.5453 970 143.786 1075.23 450.738
578 0 78.1898 13.1219 1026 141.9 1075.09 451.166
579 0 82.444 12.8936 1063 143.008 1075.25 448.126
580 1 41.1096 9.04898 372 131.269 1076.19 470.196
581 0 41.0536 9.62156 395 134.425 1076.39 469.316
582 0 42.1146 10.0915 425 134.88 1076.11 468.734
583 0 43.1363 10.2234 441 135.426 1075.9 467.961
584 0 44.0587 10.6903 471 128.314 1075.86 466.488
585 0 46.0741 11.2862 520 130.263 1075.5 465.792
586 0 46.0594 11.42 526 124.209 1075.25 464.901
587 0 47.0535 11.7313 552 127.784 1075.43 465.264
588 0 49.1821 11.6303 572 127.295 1075.84 463.935
589 0 52.0648 10.6598 555 129.476 1075.7 463.631
590 0 52.1378 11.4888 599 129.419 1076.08 462.394
591 0 55.1291 11.1738 616 128.774 1075.99 460.727
592 0 56.1353 11.3119 635 122.118 1075.73 459.811
593 0 56.0412 11.8127 662 125.166 1076.17 459.551
594 0 58.0705 11.6582 677 119.968 1075.44 458.183
595 0 60.1751 11.6161 699 133.837 1075.79 458.283
596 0 61.1815 11.7683 720 124.726 1075.72 457.05
597 0 64.1381 11.6935 750 128.088 1075.83 456.487
598 0 66.2688 11.7853 781 129.635 1075.79 455.33
599 1 36.0674 7.45826 269 126.279 1075.35 470.502
600 0 37.0787 7.98301 296 137.034 1075.47 470.422
601 0 38.0783 8.50878 324 136.204 1076.13 469.639
602 0 39.1826 9.5961 376 128.984 1076.18 469.311
603 0 38.059 10.3786 395 130.658 1076.04 468.157
604 0 41.0437 10.0868 414 128.944 1075.86 467.225
605 0 43.0568 10.7997 465 124.232 1076.73 466.032
606 0 44.0204 10.7677 474 125.238 1078.05 466.129
607 0 45.0594 11.0743 499 123.154 1077.7 464.756
608 0 47.1572 11.3026 533 139.835 1076.68 464.49
609 0 48.1699 11.148 537 135.985 1076.78 464.091
610 0 49.0764 11.6349 571 138.419 1076.85 463.982
611 0 51.1124 11.2889 577 136.213 1076.89 461.797
612 0 52.1019 11.823 616 138.028 1076.57 462.026
613 0 52.1194 11.819 616 138.429 1077 461.695
614 0 54.1532 12.0215 651 140.144 1077.48 458.796
615 0 56.1769 12.0512 677 138.015 1076.66 459.303
616 0 56.083 12.5885 706 142.337 1077.55 459.656
617 0 58.186 12.4429 724 136.769 1077.6 458.952
618 0 61.181 12.4058 759 138.328 1078.2 457.365
619 0 62.0924 12.8357 797 137.048 1077.96 456.379
620 0 65.1644 12.6296 823 139.101 1077.81 455.354
621 0 68.2069 13.503 921 136.951 1077.68 453.781
622 0 69.2159 12.4682 863 137.683 1076.83 453.644
623 0 71.1978 12.8094 912 137.854 1077.88 451.24
624 0 72.1565 12.4313 897 145.33 1077.65 449.959
625 0 77.2165 12.7952 988 132.498 1077.71 448.553
626 0 80.1641 12.5867 1009 140.411 1077.51 445.969
627 0 82.2082 12.6751 1042 146.004 1078.28 446.218
628 0 84.0658 12.5973 1059 146.72 1077.74 445.577
629 1 46.1574 11.3091 522 145.632 1078.49 463.843
630 0 48.338 12.1023 585 143.638 1077.88 462.496
631 0 50.2053 12.2099 613 145.861 1077.58 462.101
632 0 52.2645 12.2454 640 144.083 1077.72 461.953
633 0 52.1353 12.1415 633 144.235 1077.27 461.021
634 0 55.2187 12.2785 678 147.071 1076.72 460.645
635 0 57.1754 12.6453 723 146.647 1076.95 459.284
636 0 58.1628 12.5682 731 145.773 1076.75 458.837
637 0 58.1962 12.8187 746 140.28 1076.73 456.721
638 0 62.2058 12.6355 786 142.233 1076.36 456.599
639 0 63.1872 12.3285 779 147.816 1076.25 456.956
640 0 65.2725 12.7772 834 143.558 1075.82 454.616
641 0 69.1587 12.9412 895 145.283 1075.36 454.035
642 0 72.1725 12.6502 913 144.131 1075.56 452.518
643 0 74.1524 12.2451 908 149.284 1075.48 451.811
644 0 77.1927 12.4753 963 140.638 1076.25 450.41
645 0 79.1169 12.6016 997 145.315 1076.3 448.964
646 0 81.156 12.5807 1021 151.362 1076.34 448.8
647 1 42.0221 10.6135 446 146.67 1077.24 468.094
648 0 44.0903 10.3878 458 153.419 1077.11 467.725
649 0 45.0538 10.8981 491 148.269 1076.9 467.625
650 0 45.0318 11.6584 525 146.623 1076.21 467.24
651 0 48.0588 12.235 588 148.9 1076.29 465.716
652 0 49.1056 12.6055 619 144.974 1076.12 464.561
653 0 51.1428 12.4358 636 155.481 1075.43 464.083
654 0 53.126 12.5739 668 147.278 1075.86 463.311
655 0 54.1916 12.6403 685 152.542 1076.02 462.521
656 0 55.0956 12.8504 708 147.997 1075.43 462.071
657 0 56.0886 12.7833 717 153.12 1075.68 461.247
658 0 57.0814 13.0866 747 152.471 1075.42 461.25
659 0 59.1811 12.8419 760 152.328 1075.48 460.728
660 0 61.1724 12.947 792 150.139 1075.36 459.611
661 0 63.1834 13.0572 825 142.545 1075.2 458.709
662 0 64.1324 13.4409 862 147.428 1074.99 457.343
663 0 67.0951 13.1306 881 139.035 1075.39 456.062
664 0 68.1208 14.0486 957 137.577 1075.67 454.191
665 0 71.0608 13.0452 927 138.042 1074.03 453.725
666 0 73.1187 13.3345 975 134.043 1074.05 453.191
667 0 77.2664 13.2529 1024 132.51 1073.06 449.278
668 0 78.0935 13.3942 1046 141.903 1074.29 449.508
669 0 82.3285 12.8753 1060 137.336 1075.19 449.155
670 0 84.1025 13.1625 1107 137.666 1075.74 447.754
671 1 43.016 11.1819 481 142.16 1075.02 467.667
672 0 45.0284 11.5705 521 139.881 1075.2 467.284
673 0 46.074 12.0241 554 134.87 1074.7 466.926
674 0 48.0571 12.3395 593 141.777 1075.09 464.604
675 0 49.1492 12.7164 625 138.104 1075.68 463.475
676 0 51.0147 12.4866 637 139.298 1075.97 463.418
677 0 51.0702 13.0409 666 137.701 1075.49 462.384
678 0 53.121 12.9892 690 137.097 1074.42 463.416
679 0 54.1098 13.1215 710 140.599 1076.35 462.234
680 0 56.1225 12.8291 720 131.931 1075.92 461.311
681 0 56.0857 13.0693 733 134.667 1075.41 459.711
682 0 57.1386 13.2135 755 129.95 1075.52 458.942
683 0 58.1895 13.6107 792 130.283 1075.17 458.119
684 0 60.1129 13.3915 805 126.601 1075.04 457.209
685 0 64.2333 13.1552 845 133.047 1074.98 456.936
686 0 66.1699 12.7702 845 131.266 1075.12 455.135
687 0 68.3261 13.1136 896 130.04 1074.81 454.161
688 0 70.3303 13.5077 950 128.273 1074.54 454.077
689 0 71.3008 13.0293 929 127.715 1073.86 452.449
690 0 74.478 13.1045 976 127.417 1074.28 450.542
691 0 77.4466 13.08 1013 130.954 1074.63 449.907
692 0 79.6331 13.2483 1055 129.874 1074.42 448.675
693 0 82.3761 12.9771 1069 125.676 1074.06 448.419
694 0 85.3265 13.419 1145 126.267 1074.04 446.765
695 0 88.2064 13.5478 1195 126.917 1074.43 445.049
696 1 47.0287 11.6525 548 125.723 1074.75 466.4
697 0 48.0763 12.3554 594 122.987 1074.87 465.604
698 0 50.0386 12.4504 623 125.173 1074.3 464.096
699 0 53.0875 12.7714 678 119.572 1073.67 464.298
700 0 55.1351 12.5873 694 123.813 1074.28 463.432
701 0 57.115 12.6061 720 119.342 1073.92 463.6
702 0 58.1218 12.8351 746 121.029 1073.86 462.479
703 0 59.1569 13.236 783 117.139 1073.67 462.253
704 0 63.2161 12.655 800 119.501 1073.39 461.414
705 0 64.1513 13.2343 849 112.153 1073.75 459.004
706 0 65.2873 13.2032 862 115.262 1073.71 458.783
707 0 66.3373 13.5369 898 114.676 1073.78 457.302
708 0 68.1875 13.1842 899 109.928 1073.16 453.959
709 0 71.1945 12.824 913 111.145 1072.72 453.07
710 0 72.1512 13.7628 993 107.867 1073.14 454.095
711 0 77.2193 13.2609 1024 110.216 1074.11 453.02
712 0 78.1146 13.4674 1052 104.179 1074.2 450.807
713 0 81.14 13.6061 1104 104.659 1074.09 449.938
714 0 84.2466 13.1994 1112 109.062 1073.26 448.99
715 0 85.1152 13.8753 1181 101.841 1073.77 446.383
716 1 45.0475 11.2326 506 106.551 1075 467.275
717 0 46.0768 12.0234 554 106.103 1074.18 467.273
718 0 49.0278 12.2991 603 102.536 1073.11 469.08
719 0 51.1609 12.0209 615 99.1756 1073.02 469.647
720 0 51.1478 12.6105 645 99.8713 1073.01 468.059
721 0 53.2483 12.8267 683 100.444 1072.76 466.984
722 0 54.0807 12.8512 695 97.8993 1073.45 466.909
723 0 57.1959 12.6408 723 96.8409 1073.39 466.545
724 0 56.1355 13.2715 745 95.9423 1072.71 465.081
725 0 59.2749 12.9566 768 95.3151 1073.7 464.514
726 0 62.26 12.7048 791 95.4576 1073 463.379
727 0 63.1653 12.8552 812 93.0123 1073.65 461.817
728 0 65.1542 12.6316 823 93.3001 1073.86 461.323
729 0 67.1403 12.8984 866 95.9238 1074.4 459.568
730 0 69.1838 12.8354 888 92.6903 1075.1 458.538
731 0 72.1777 12.5385 905 92.5293 1074.66 457.351
732 0 75.2181 12.7363 958 89.4144 1074.74 455.994
733 0 76.2629 12.8634 981 89.0499 1075.07 454.245
734 0 79.4509 12.7626 1014 93.1223 1074.54 452.924
735 0 82.338 12.8009 1054 88.8824 1074.84 451.176
736 0 87.2495 12.5961 1099 95.5487 1074.95 449.044
737 1 42.1692 10.3867 438 92.4795 1075.03 471.048
738 0 45.2199 10.6369 481 95.1497 1075.31 469.416
739 0 45.1192 11.1926 505 94.6574 1075.67 468.917
740 0 48.1676 11.3354 546 91.837 1075.13 467.513
741 0 50.1385 11.6477 584 95.4658 1075.46 465.026
742 0 52.1337 11.3554 592 91.9527 1075.35 465.541
743 0 52.0608 11.5634 602 98.1312 1075.91 463.686
744 0 54.2224 11.9508 648 93.8025 1076.16 462.934
745 0 54.2927 11.9722 650 95.4031 1076.24 462.029
746 0 59.2408 11.7149 694 95.8602 1076.1 459.797
747 0 59.3103 12.3419 732 101.469 1075.73 459.201
748 0 62.2199 12.2469 762 101.946 1075.79 457.891
749 0 64.2926 12.0543 775 99.8645 1076.53 456.923
750 0 65.2226 12.1737 794 101.675 1077.14 456.929
751 0 69.2535 11.6673 808 105.318 1077.59 454.866
752 0 69.1909 12.4727 863 107.61 1077.7 454.125
753 0 71.1634 12.394 882 107.274 1077.92 453.077
754 0 74.1307 12.9366 959 106.323 1077.7 451.374
755 0 78.3089 12.2336 958 106.153 1078.09 450.591
756 0 79.1908 12.653 1002 105.707 1077.44 449.581
757 0 82.2087 12.3831 1018 112.073 1077.72 449.251
758 0 84.2857 12.4932 1053 107.45 1078.68 447.964
759 0 86.27 12.8086 1105 108.425 1077.5 444.578
760 0 89.2262 12.4851 1114 113.238 1077.79 443.65
761 0 92.1639 12.4886 1151 109.634 1077.86 443.078
762 0 96.1123 12.579 1209 112.263 1077.84 441.204
763 0 98.1137 12.4957 1226 111.338 1078.05 439.704
764 1 55.1872 11.76 649 110.455 1078.16 460.171
765 0 58.2387 11.9336 695 107.715 1078.47 460.561
766 0 59.2132 12.1426 719 111.503 1077.91 458.925
767 0 61.2522 11.9343 731 109.78 1078.39 457.988
768 0 63.2016 12.2782 776 104.302 1078.04 457.357
769 0 65.2362 12.2478 799 108.971 1078.85 455.198
770 0 67.1731 12.5646 844 106.557 1078.85 453.684
771 0 70.1663 12.0856 848 108.67 1078.65 453.565
772 0 72.178 12.4276 897 102.76 1079.02 452.181
773 0 74.1058 12.914 957 106.271 1078.52 449.925
774 0 77.2785 12.2544 947 105.513 1078.24 450.054
775 0 79.1572 12.7468 1009 111.961 1078.95 449.703
776 0 82.226 12.5386 1031 69.1494 1078.23 448.029
777 0 85.1936 12.3718 1054 110.88 1078.61 446.12
778 0 86.146 12.7342 1097 109.046 1078.34 444.201
779 0 90.1979 12.4726 1125 108.258 1077.95 443.329
780 0 93.1134 12.5653 1170 111.803 1077.86 442.305
781 0 95.1598 12.6629 1205 111.876 1077.49 439.724
782 0 100.133 12.3936 1241 113.083 1077.57 438.501
783 0 101.193 12.5207 1267 110.175 1076.85 437.405
784 1 56.061 11.2199 629 110.612 1078.12 460.013
785 0 56.0426 11.3128 634 105.29 1078.11 460.732
786 0 58.072 12.2262 710 108.4 1077.32 459.676
787 0 59.1489 12.1727 720 105.601 1075.74 457.979
788 0 63.1037 11.9644 755 10.3404 1076.24 458.294
789 0 63.1526 12.1293 766 104.415 1075.66 456.952
790 0 64.2089 12.0077 771 103.125 1075.54 456.167
791 0 67.0972 11.8932 798 101.222 1075.96 454.984
792 0 71.1176 12.1629 865 102.803 1076.27 453.912
793 0 72.3059 12.3088 890 102.543 1076.43 453.408
794 0 74.1796 12.0249 892 105.962 1076.44 453.057
795 0 75.1245 12.6457 950 107.72 1076.88 451.509
796 0 77.1695 12.6345 975 106.778 1076.4 450.894
797 0 81.2597 12.7369 1035 104.281 1077.06 448.081
798 0 82.1506 12.7692 1049 106.632 1077.56 447.786
799 0 86.133 12.6897 1093 103.615 1077.54 446.844
800 0 89.1737 12.8177 1143 108.364 1077.52 444.351
801 0 93.2153 12.734 1187 113.126 1077.53 443.207
802 0 95.2474 12.5778 1198 109.829 1077.99 442.947
803 0 98.2184 13.0118 1278 111.538 1077.68 440.405
804 1 53.3472 11.8469 632 117.546 1077.62 461.832
805 0 54.3265 12.4801 678 119.69 1076.96 458.165
806 0 56.0435 12.2048 684 118.618 1076.25 460.471
807 0 57.1076 12.0124 686 123.057 1075.83 460.45
808 0 59.035 12.4503 735 122.799 1076.59 459.176
809 0 61.0221 12.6184 770 125.592 1076.74 458.326
810 0 64.0455 12.9595 830 124.008 1077.08 456.013
811 0 65.1002 13.2411 862 123.354 1076.87 455.506
812 0 68.03 12.9796 883 127.396 1077.2 454.847
813 0 69.0454 13.1073 905 130.621 1076.59 452.612
814 0 72.2129 13.391 967 124.362 1076.68 450.446
815 0 74.2967 13.0423 969 129.263 1077.99 451.4
816 0 74.3648 13.6893 1018 136.444 1077.99 449.556
817 0 75.2834 14.1067 1062 121.902 1077.95 448.865
818 0 82.4115 13.5175 1114 127.026 1077.5 445.722
819 0 85.4726 13.5482 1158 129.56 1078.23 445.103
820 0 86.5207 13.962 1208 128.825 1077.96 442.538
821 0 90.3487 13.5032 1220 131.034 1077.25 441.118
822 0 93.5371 13.5882 1271 138.611 1077.73 439.106
823 0 95.6028 13.9849 1337 138.396 1078.52 437.349
824 0 99.3838 13.6642 1358 145.578 1078.61 437.991
825 0 103.61 13.8018 1430 149.134 1078.34 435.02
826 1 56.1303 12.2038 685 139.997 1079.89 460.683
827 0 57.1928 12.7813 731 146.394 1078.84 459.999
828 0 58.1209 13.1966 767 146.194 1078.6 459.525
829 0 61.2079 12.8742 788 147.221 1078.83 457.179
830 0 61.3031 13.1804 808 150.778 1079.48 457.329
831 0 63.2127 13.3359 843 148.214 1079.39 455.553
832 0 66.1552 13.1509 870 151.998 1078.97 454.186
833 0 67.149 13.4477 903 148.54 1080.09 453.006
834 0 71.2764 13.5388 965 146.728 1079.93 452.111
835 0 72.1686 13.7456 992 147.341 1079.52 451.347
836 0 75.134 13.5092 1015 150.249 1080.14 449.628
837 0 78.2252 13.3716 1046 151.03 1080.65 449.801
838 0 80.2986 13.2879 1067 155.12 1079.77 448.791
839 0 82.1838 13.3238 1095 155.826 1080.17 446.52
840 0 84.2939 13.4173 1131 147 1080.92 445.472
841 0 87.4032 13.3405 1166 150.03 1080.69 443.488
842 0 91.2066 13.146 1199 141.76 1080.19 441.96
843 0 95.2798 13.5706 1293 142.412 1080.28 439.611
844 1 53.1301 11.8012 627 149.01 1080.7 461.075
845 0 52.1736 12.3817 646 139.107 1080.33 460.711
846 0 53.2001 12.8383 683 142.779 1080.91 459.587
847 0 56.0769 13.1962 740 146.346 1081.19 459.057
848 0 57.1498 13.1409 751 146.823 1081.32 458.282
849 0 60.2715 12.6428 762 144.741 1079.88 457.161
850 0 61.1126 12.7961 782 146.174 1079.92 456.561
851 0 62.1233 13.3122 827 141.092 1080.03 455.763
852 0 64.144 13.4073 860 148.202 1079.63 455.007
853 0 67.1569 13.0143 874 139.186 1080.56 454.009
854 0 68.0539 13.4158 913 137.852 1080.56 452.681
855 0 72.139 12.9611 935 140.169 1080.26 451.092
856 0 74.2259 13.0817 971 132.127 1079.99 450.661
857 0 76.2536 13.6518 1041 142.55 1079.9 450.102
858 0 80.1849 13.5686 1088 141.943 1079.82 447.676
859 0 82.1601 13.778 1132 140.663 1079.57 444.939
860 0 83.1313 13.8937 1155 137.205 1079.49 445.329
861 0 88.2328 13.6117 1201 140.933 1078.89 443.427
862 0 91.2454 13.6116 1242 140.236 1078.81 441.664
863 0 94.2245 13.8287 1303 139.84 1078.69 440.055
864 0 97.3445 14.1251 1375 135.103 1079.44 438.328
865 0 100.22 13.9792 1401 140.561 1079.88 436.374
866 0 104.215 13.952 1454 141.53 1078.98 433.336
867 1 54.122 12.0653 653 137.191 1079.39 460.715
868 0 55.2377 12.7268 703 136.024 1078.74 459.351
869 0 56.2938 13.0743 736 136.304 1078.68 459.082
870 0 57.2562 12.6624 725 137.182 1078.86 459.277
871 0 59.2477 13.1482 779 140.019 1078.85 457.533
872 0 63.1248 12.4515 786 129.001 1078.81 456.894
873 0 63.2014 13.3541 844 132.162 1079.08 455.787
874 0 64.2859 13.7355 883 135.168 1078.99 455.172
875 0 68.2342 13.2192 902 134.717 1078.62 453.685
876 0 70.2672 12.9648 911 140.169 1079.15 453.322
877 0 73.2162 13.0162 953 128.999 1078.13 451.692
878 0 74.2243 13.3918 994 132.531 1078.26 450.696
879 0 78.2209 13.1806 1031 137.954 1079.05 449.7
880 0 80.3788 13.3493 1073 132.842 1079.23 448.536
881 0 84.1955 13.2549 1116 134.415 1079.06 447.405
882 0 87.244 13.1929 1151 133.967 1079.69 446.99
883 0 88.2799 12.9928 1147 132.783 1079.7 445.549
884 0 92.4219 12.9298 1195 129.875 1079.58 443.248
885 0 93.3178 12.8914 1203 142.08 1079.2 443.107
886 0 98.3353 12.8845 1267 135.354 1079.15 439.944
887 1 51.1377 11.0291 564 133.927 1079.95 464.457
888 0 54.437 11.1138 605 139.448 1079.79 463.354
889 0 54.0616 11.7828 637 133.995 1079.58 462.195
890 0 57.0587 12.1629 694 131.833 1079.61 461.154
891 0 58.1439 12.2799 714 136.172 1079.51 460.443
892 0 60.1215 12.8739 774 132.527 1079.34 459.767
893 0 61.1091 12.8459 785 129.823 1079.57 458.95
894 0 64.1693 12.6852 814 131.654 1079.42 456.684
895 0 66.1152 12.7353 842 131.715 1079.37 455.7
896 0 67.1483 12.733 855 134.147 1080.06 454.577
897 0 71.0905 12.8006 910 127.644 1079.59 454.01
898 0 75.1207 12.5798 945 126.672 1079.93 452.596
899 0 77.0848 12.7652 984 135.767 1080.09 451.298
900 0 79.1444 12.572 995 130.863 1080.81 449.126
901 0 81.1444 12.755 1035 128.171 1080.33 449.1
902 0 84.6477 12.4162 1051 128.222 1080.21 447.143
903 0 88.1394 12.2079 1076 132.322 1080.59 444.582
904 0 88.1394 12.2079 1076 159.31 1080.59 444.582
905 1 48.3073 10.6195 513 129.671 1079.98 464.577
906 0 51.2078 10.7601 551 132.757 1080.23 464.04
907 0 53.4487 11.8244 632 133.578 1079.96 462.255
908 0 54.1876 11.9769 649 125.872 1080.11 461.071
909 0 56.3281 12.1786 686 147.627 1079.73 460.596
910 0 58.1707 11.8273 688 136.908 1079.82 461.42
911 0 58.3079 11.9709 698 137.509 1079.46 459.311
912 0 60.2716 12.145 732 129.792 1079.49 458.745
913 0 62.387 12.1981 761 132.878 1079.8 458.569
914 0 64.1938 12.1507 780 136.538 1079.85 457.169
915 0 64.163 12.3436 792 135.277 1080.72 457.003
916 0 66.4333 12.9604 861 131.999 1080.19 455.361
917 0 69.3548 12.6307 876 132.945 1080.44 455.856
918 0 71.322 12.6609 903 131.118 1080.52 454.867
919 0 72.2831 12.9629 937 128.562 1080.28 453.697
920 0 75.3938 12.7597 962 128.413 1080.08 451.465
921 0 77.2921 12.7827 988 131.536 1080.03 450.644
922 0 80.2951 12.7156 1021 120.467 1080.29 449.581
923 0 82.2165 12.6374 1039 132.413 1080.27 448.405
924 0 85.3026 12.6139 1076 133.562 1080.43 447.025
925 0 88.293 12.6171 1114 130.188 1080.4 446.605
926 0 90.3795 12.9122 1167 133.626 1079.96 443.409
927 0 94.2154 12.6943 1196 132.83 1079.76 441.714
928 1 48.3605 11.1455 539 130.874 1079.82 463.106
929 0 52.4269 11.0821 581 138.222 1079.69 461.58
930 0 54.3869 11.8963 647 135.294 1079.69 459.972
931 0 56.0382 12.081 677 131.027 1081.55 461.384
932 0 56.2826 12.8281 722 137.537 1081.3 460.201
933 0 60.1346 12.2226 735 140.664 1081.12 458.193
934 0 61.2031 12.8915 789 137.174 1081.46 457.66
935 0 64.312 12.3461 794 139.46 1081.96 457.297
936 0 64.2285 12.7514 819 138.866 1081.87 456.127
937 0 67.1644 12.8342 862 135.429 1081.69 454.662
938 0 71.1699 13.0392 928 134.695 1082.09 453.325
939 0 72.1098 12.8138 924 140.892 1082.39 452.109
940 0 74.3135 12.5818 935 134.572 1081.47 450.536
941 0 75.2714 13.0328 981 138.828 1081.43 449.299
942 0 78.2485 13.0865 1024 139.554 1081.22 448.07
943 0 81.1911 13.1788 1070 146.736 1081.53 446.819
944 0 83.2856 13.2556 1104 136.006 1081.06 445.928
945 0 86.3935 13.3575 1154 141.582 1080.63 443.996
946 0 89.2257 12.9447 1155 144.931 1080.21 442.526
947 0 91.178 12.8101 1168 138.655 1079.79 441.534
948 0 93.3858 12.9998 1214 149.168 1079.16 439.488
949 0 96.2793 12.7649 1229 144.787 1079.51 439.693
950 1 51.0938 11.5278 589 153.501 1079.14 461.764
951 0 52.0807 11.7126 610 148.626 1079.15 460.551
952 0 55.0879 12.2531 675 142.612 1079.53 459.668
953 0 57.1857 12.4681 713 140.588 1082.3 459.638
954 0 57.1955 12.8157 733 134.083 1082.09 457.906
955 0 59.1872 12.9251 765 146.627 1082 458.324
956 0 60.0191 13.2458 795 143.8 1082.27 458.455
957 0 63.07 13.2076 833 141.333 1082.42 456.066
958 0 64.0725 13.3599 856 141.564 1082.75 455.383
959 0 68.0565 12.9304 880 146.916 1083.39 454.52
960 0 70.1149 13.4494 943 143.62 1083.17 453.429
961 0 73.0757 13.4655 984 140.172 1082.64 452.554
962 0 76.1069 13.1131 998 146.269 1082.76 450.917
963 0 76.1209 13.6756 1041 146.363 1082.73 450.237
964 0 78.1325 13.5795 1061 149.303 1082.67 449.188
965 0 81.1317 13.398 1087 148.676 1082.59 447.435
966 0 84.1921 13.3742 1126 150.624 1083.34 446.886
967 0 88.2698 13.3115 1175 155.505 1082.47 445.737
968 1 47.0497 10.9884 517 162.265 1084.15 465.321
969 0 49.1302 11.6629 573 153.358 1083.91 464.613
970 0 50.2088 11.8107 593 154.189 1083.54 462.975
971 0 49.0969 11.8541 582 159.534 1084.15 465.175
972 0 51.0356 12.1484 620 148.877 1083.31 463.49
973 0 53.0574 12.2886 652 155.446 1084.45 461.661
974 0 54.13 12.2852 665 155.588 1083.45 460.986
975 0 57.128 12.2882 702 152.771 1086.22 461.593
976 0 59.1227 12.5671 743 143.758 1084.3 460.739
977 0 60.071 12.3687 743 152.902 1083.14 460.012
978 0 62.0557 12.2148 758 151.27 1083.05 459.116
979 0 63.0826 12.5708 793 146.917 1082.37 456.47
980 0 65.0449 12.5452 816 140.408 1082.15 455.76
981 0 68.1132 12.5526 855 149.109 1082.66 454.367
982 0 71.0686 12.4809 887 148.038 1083.21 453.904
983 0 74.1804 12.874 955 149.462 1083.57 452.2
984 0 76.1045 12.8245 976 147.431 1083.85 450.776
985 0 78.0881 12.8957 1007 148.212 1083.8 449.677
986 0 81.1915 12.6984 1031 151.205 1082.9 448.358
987 0 84.1373 12.1825 1025 149.159 1083.04 446.932
988 0 85.1274 12.9923 1106 148.324 1084.28 443.82
989 0 90.2449 12.8096 1156 142.778 1083.12 442.833
990 1 49.044 10.7658 528 142.837 1081.66 463.907
991 0 49.0265 10.8105 530 144.111 1081.25 464.46
992 0 52.1778 11.6141 606 145.8 1081.53 461.299
993 0 53.1885 11.9387 635 137.879 1083.16 460.526
994 0 55.3488 11.816 654 140.745 1082.47 460.388
995 0 55.2859 12.1188 670 140.097 1085.21 460.307
996 0 59.2833 12.0607 715 142.564 1084.01 458.136
997 0 60.2881 11.727 707 140.996 1084.39 458.255
998 0 61.2297 11.9386 731 137.925 1084.25 456.577
999 0 63.2248 12.1313 767 141.704 1083.71 457
1000 0 66.2245 12.1707 806 138.261 1083.78 454.958
1001 0 65.1833 12.3805 807 136.859 1082.42 454.128
1002 0 68.144 12.2241 833 131.491 1081.97 452.643
1003 0 71.3187 12.6054 899 138.192 1082.09 450.984
1004 0 72.1515 12.5292 904 138.042 1082.88 450.077
1005 1 40.0954 9.62705 386 141.067 1082.69 466.668
1006 0 39.1028 9.8714 386 142.824 1081.96 467.321
1007 0 39.0577 10.6509 416 139.392 1081.94 467.077
1008 0 42.0786 10.3616 436 144.658 1081.39 467.498
1009 0 43.1138 11.1101 479 141.789 1084.58 465.956
1010 0 45.0235 10.8832 490 130.773 1084.92 466.212
1011 0 47.0412 11.6069 546 138.392 1085.45 464.394
1012 0 49.197 11.7284 577 136.357 1083.69 462.31
1013 0 51.1268 12.1854 623 139.438 1083.23 462.218
1014 0 51.1279 12.635 646 139.068 1083.04 462.364
1015 0 53.1193 11.8789 631 136.583 1083.62 461.688
1016 0 55.3644 12.3003 681 145.833 1082.96 461.524
1017 0 55.1846 13.174 727 135.11 1083.74 460.74
1018 0 57.1261 12.2886 702 142.489 1082.91 460.061
1019 0 58.0735 13.1385 763 146.092 1083.85 458.507
1020 0 61.2792 13.1203 804 143.025 1085.48 458.698
1021 0 63.1802 12.7888 808 147.825 1084.73 457.918
1022 0 64.1826 13.2435 850 144.619 1083.93 455.515
1023 0 66.2098 13.1552 871 149.161 1084.19 454.691
1024 0 68.226 13.1475 897 151.526 1084.72 455.244
1025 0 71.1176 13.3441 949 141.086 1084.7 453.062
1026 0 72.249 13.758 994 150.184 1084.44 452.554
1027 0 73.2483 13.5703 994 150.883 1084.53 450.965
1028 0 78.3759 13.2056 1035 153.443 1085.27 450.673
1029 0 81.452 13.1734 1073 150.592 1085.85 448.207
1030 0 83.54 13.1674 1100 148.073 1085.49 446.36
1031 0 83.6153 13.6578 1142 151.144 1086.2 444.949
1032 0 88.8664 13.6272 1211 154.082 1084.24 442.528
1033 0 90.5932 13.6876 1240 152.127 1085.32 442.411
1034 0 93.4496 13.8898 1298 148.912 1083.79 440.517
1035 0 97.6246 12.9578 1265 145.696 1083.62 440.029
1036 0 101.43 13.1716 1336 143.001 1083.54 438.229
1037 0 102.38 13.4401 1376 143.879 1083.9 437.505
1038 1 56.3383 12.5314 706 144.007 1085.07 459.177
1039 0 61.2963 12.8556 788 135.042 1084.22 457.014
1040 0 61.1785 12.7986 783 149.65 1083.64 457.345
1041 0 64.0896 12.8414 823 141.536 1086.73 457.374
1042 0 68.1475 12.561 856 139.322 1085.24 455.46
1043 0 67.1902 12.7846 859 26.766 1084.34 454.847
1044 0 70.1446 13.3581 937 140.216 1082.98 453.964
1045 0 73.0744 12.6173 922 136.271 1082.8 452.636
1046 0 76.2076 13.2795 1012 139.483 1082.95 452.109
1047 0 78.0567 13.2083 1031 138.689 1081.42 450.867
1048 0 82.2941 12.8442 1057 139.125 1082.05 449.168
1049 0 85.3128 13.3626 1140 140.246 1082.48 446.483
1050 0 87.2497 12.8596 1122 138.111 1081.94 446.371
1051 0 91.3257 13.1726 1203 139.269 1081.78 443.762
1052 0 95.3636 12.4786 1190 144.965 1084.16 443.034
1053 1 49.2574 11.714 577 140.383 1085.22 460.844
1054 0 50.316 12.2625 617 140.856 1083.61 458.977
1055 0 52.3615 12.9102 676 147.478 1082.72 457.172
1056 0 55.1836 12.4675 688 143.468 1081.93 460.278
1057 0 56.2099 12.2932 691 143.842 1081.96 459.162
1058 0 59.1998 12.4494 737 141.764 1082.4 458.483
1059 0 58.1712 13.3399 776 144.496 1081.92 458.267
1060 0 61.1819 13.2392 810 136.691 1082.66 455.117
1061 0 64.1096 12.541 804 131.215 1083.14 456.004
1062 0 66.1253 12.9451 856 138.47 1082.16 454.343
1063 0 68.1103 12.6559 862 134.194 1082.34 453.217
1064 0 70.1415 12.5888 883 141.82 1082.32 452.531
1065 0 71.3644 13.0738 933 145.158 1081.83 451.487
1066 0 72.1059 13.4386 969 143.333 1082.16 449.777
1067 0 77.3148 12.8177 991 140.14 1081.88 447.665
1068 0 81.2414 12.789 1039 137.383 1082.41 446.91
1069 0 83.3343 13.4758 1123 136.263 1082 444.72
1070 1 43.1271 11.4777 495 135.83 1081.69 465.836
1071 0 45.1715 12.0209 543 139.777 1080.95 464.374
1072 0 46.1322 12.5292 578 135.471 1080.69 464.611
1073 0 48.1741 11.7283 565 140.232 1080.68 463.165
1074 0 49.1234 12.1938 599 142.743 1080.55 463.351
1075 0 51.1025 12.563 642 130.72 1080.32 461.308
1076 0 51.1851 13.1679 674 145.472 1080.58 461.022
1077 0 54.098 12.8101 693 142.913 1080.26 460.304
1078 0 54.1803 13.3074 721 134.616 1080.66 460.074
1079 0 56.0809 13.3022 746 143.759 1081.71 458.483
1080 0 60.4203 12.6448 764 141.679 1081.49 457.979
1081 0 61.0754 13.2951 812 146.642 1081.05 456.637
1082 0 62.1918 13.2815 826 148.902 1081.27 456.212
1083 0 63.2385 13.71 867 145.07 1081.09 454.775
1084 0 67.2354 13.0437 877 149.644 1081.39 454.593
1085 0 69.2916 13.5081 936 148.363 1081.28 452.651
1086 0 72.3554 13.1296 950 149.855 1081.75 452.753
1087 0 74.2964 13.4596 1000 145.76 1081.5 451.496
1088 0 78.2785 13.4647 1054 149.719 1081.83 449.788
1089 0 79.4284 13.1439 1044 144.252 1082.26 448.101
1090 0 81.3463 13.6822 1113 143.945 1082.71 446.075
1091 0 84.5895 13.3468 1129 145.894 1083.12 443.15
1092 0 88.4178 13.2892 1175 149.211 1082.86 441.632
1093 0 91.7727 13.1847 1210 146.652 1083.1 440.112
1094 0 94.6962 12.9783 1229 151.617 1082.55 438.494
1095 0 98.552 13.4244 1323 144.372 1082.22 435.833
1096 0 100.598 13.3502 1343 151.275 1082.1 435.25
1097 0 103.475 13.3172 1378 155.225 1082.22 432.761
1098 1 55.2331 12.4563 688 152.634 1080.83 460.775
1099 0 57.1791 12.6795 725 151.48 1080.28 459.57
1100 0 57.1385 12.811 732 155.751 1080.59 458.445
1101 0 62.1901 11.9633 744 156.169 1080.03 458.985
1102 0 62.076 12.7908 794 148.822 1080.81 457.737
1103 0 63.1193 12.6269 797 152.393 1080.13 456.565
1104 0 67.2763 12.3075 828 150.814 1079.5 454.825
1105 0 67.1657 12.3724 831 154.947 1079.84 454.592
1106 0 69.2483 12.6068 873 148.51 1079.89 453.435
1107 0 71.1865 12.095 861 145.628 1079.53 453.084
1108 0 74.0783 12.5813 932 140.856 1079.43 450.22
1109 0 77.5295 13.0273 1010 135.451 1080.68 449.603
1110 0 79.5374 12.5476 998 147.235 1080.47 448.795
1111 0 80.1563 13.0495 1046 140.178 1080.76 446.776
1112 0 83.433 13.2082 1102 143.166 1080.63 444.677
1113 0 87.4201 12.7774 1117 146.585 1080.78 444.939
1114 0 87.2424 13.2275 1154 138.319 1080.67 443.701
1115 0 91.2639 13.9266 1271 142.583 1080.75 440.861
1116 0 95.4646 13.0205 1243 143.578 1081.04 440.432
1117 0 98.4199 13.1986 1299 144.235 1080.76 438.635
1118 0 102.374 12.5422 1284 143.246 1081.48 435.179
1119 1 49.1071 10.6502 523 145.161 1081.54 464.363
1120 0 50.1732 11.54 579 145.907 1081.2 463.292
1121 0 53.133 11.33 602 146.98 1080.49 462.181
1122 0 54.1792 12.5325 679 141.803 1080.88 459.909
1123 0 57.187 12.0657 690 132.81 1081.04 459.446
1124 0 58.0884 12.0162 698 138.189 1080.59 458.201
1125 0 59.1636 12.457 737 137.714 1080.63 457.43
1126 0 63.2517 11.9839 758 131.241 1080.72 456.234
1127 0 65.1104 11.8107 769 137.86 1080.83 455.255
1128 0 66.1911 12.192 807 125.867 1081.21 454.408
1129 0 68.0675 12.3701 842 127.374 1081.66 454.185
1130 0 70.1167 12.3223 864 127.535 1080.56 452.093
1131 0 73.1002 12.3392 902 127.793 1080.79 451.379
1132 0 75.2167 12.1914 917 132.754 1080.66 449.32
1133 0 77.274 12.1516 939 132.776 1080.28 448.838
1134 0 77.1658 12.5315 967 130.326 1080.75 447.635
1135 0 83.1131 12.2002 1014 145.111 1080.37 446.502
1136 0 85.2841 12.2414 1044 151.534 1080.13 444.542
1137 0 86.4566 12.6075 1090 146.997 1079.55 443.421
1138 0 90.2372 12.2787 1108 146.183 1079.91 442.59
1139 0 94.3388 12.5293 1182 140.86 1079.39 437.956
1140 0 96.3569 12.8066 1234 143.927 1079.62 439.383
1141 0 98.3479 12.9032 1269 144.25 1079.23 436.591
1142 0 101.406 12.9776 1316 145.737 1078.87 432.916
1143 0 104.342 12.9382 1350 145.803 1079.42 433.209
1144 0 108.369 13.1865 1429 148.067 1078.75 430.388
1145 0 113.627 13.5531 1540 141.579 1078.71 426.892
1146 0 116.443 12.6671 1475 144.406 1078.41 425.683
1147 1 60.3013 11.0943 669 149.158 1078.4 454.324
1148 0 63.3917 11.2949 716 144.254 1077.79 453.209
1149 0 66.4354 11.7407 780 141.579 1078.66 448.622
1150 0 67.2951 13.0173 876 141.862 1078.25 448.624
1151 0 70.3127 12.2595 862 138.027 1079.56 450.367
1152 0 73.2896 12.7985 938 134.021 1079.74 448.714
1153 0 75.2962 11.8465 892 132.524 1079.91 448.617
1154 0 77.1261 12.6027 972 140.823 1079.91 447.601
1155 0 81.2901 12.3016 1000 145.168 1080.12 444.479
1156 0 82.3758 12.9528 1067 149.788 1079.92 443.101
1157 0 86.2729 12.785 1103 154.657 1078.75 442.777
1158 0 91.1928 14.5954 1331 138.164 1078.96 437.479
1159 0 98.2303 15.6164 1534 124.432 1078.68 434.36
1160 0 95.3899 12.6953 1211 152.446 1079.05 432.813
1161 0 97.3319 12.9762 1263 150.503 1081.1 436.496
1162 0 101.363 13.0817 1326 146.181 1080.6 434.769
1163 0 103.417 13.286 1374 156.139 1079.88 433.331
1164 0 107.258 12.9874 1393 149.276 1079.73 431.082
1165 0 109.486 13.5542 1484 144.582 1079.33 428.424
1166 0 115.353 13.0208 1502 153.385 1079.48 427.897
1167 0 116.295 13.3712 1555 161.294 1079.44 427.017
1168 0 120.264 13.2292 1591 163.915 1080.35 425.492
1169 0 124.307 13.1771 1638 149.172 1080.9 424.311
1170 0 126.172 13.7036 1729 160.547 1080.7 422.708
1171 0 134.226 13.2835 1783 156.829 1080.72 419.741
1172 0 138.261 13.2141 1827 159.309 1080.71 418.157
1173 1 78.0691 11.9125 930 157.586 1080.04 447.027
1174 0 80.0429 12.0061 961 145.746 1080.5 446.558
1175 0 81.1562 12.4575 1011 153.101 1081.05 445.803
1176 0 82.1735 12.0355 989 155.995 1081.23 444.88
1177 0 86.2247 12.5022 1078 152.919 1080.74 443.687
1178 0 88.1348 12.2086 1076 153.52 1081.27 442.82
1179 0 91.1847 12.4582 1136 157.577 1081.1 440.799
1180 0 96.2064 12.1614 1170 158.705 1081.37 439.478
1181 0 99.2406 12.8073 1271 151.752 1081.42 437.057
1182 0 101.165 12.5044 1265 148.217 1081.45 435.833
1183 0 105.12 13.0232 1369 154.793 1080.89 435.469
1184 0 107.255 13.0437 1399 149.014 1080.87 433.306
1185 0 112.172 12.9979 1458 152.374 1080.95 431.627
1186 0 114.188 12.9348 1477 154.386 1081.35 429.938
1187 0 119.155 12.832 1529 151.212 1081.25 427.25
1188 0 122.393 12.6397 1547 154.869 1080.88 425.404
1189 1 67.2276 11.7214 788 152.869 1079.98 451.264
1190 0 69.1888 11.8372 819 146.578 1079.58 448.761
1191 0 71.2212 12.4261 885 136.608 1080.47 448.21
1192 0 74.2324 12.4339 923 139.84 1080.25 446.231
1193 0 76.157 12.5268 954 135.236 1080.94 445.651
1194 0 78.2954 12.3507 967 136.062 1079.81 444.732
1195 0 81.2765 12.3406 1003 146.127 1079.45 443.199
1196 0 86.2933 12.8283 1107 150.007 1079.34 443.631
1197 0 85.2336 13.1286 1119 143.183 1079.66 442.015
1198 0 90.2113 13.1137 1183 151.368 1079.3 440.35
1199 0 93.2788 12.8754 1201 148.484 1079.59 439.167
1200 0 94.2023 13.0676 1231 148.377 1080.05 437.322
1201 0 98.2198 12.9913 1276 152.87 1080.4 436.485
1202 0 101.143 13.2683 1342 143.103 1081.02 433.515
1203 0 104.121 13.417 1397 152.807 1081.46 432.253
1204 0 107.225 13.2245 1418 146.883 1080.74 430.637
1205 1 60.0806 11.7342 705 151.674 1081.25 455.261
1206 0 61.1058 12.0447 736 148.863 1081.23 454.793
1207 0 63.1521 12.4936 789 142.567 1080.71 454.327
1208 0 62.2712 12.4777 777 146.532 1080.71 453.134
1209 0 66.2179 12.0511 798 143.325 1081.66 452.867
1210 0 66.1328 12.369 818 145.205 1081.74 451.973
1211 0 69.1336 12.3529 854 141.093 1080.76 450.924
1212 0 71.3716 12.5961 899 138.833 1080.63 448.74
1213 0 73.3736 12.5931 924 141.215 1080.12 448.403
1214 0 75.2597 12.7293 958 145.342 1080.62 447.244
1215 0 78.2223 12.8096 1002 143.912 1081.17 445.874
1216 0 80.2254 13.0507 1047 143.713 1081.96 445.897
1217 0 81.2062 12.7453 1035 151.838 1081.94 445.591
1218 0 84.2125 13.1691 1109 148.631 1082 443.844
1219 0 85.1689 13.3852 1140 138.618 1081.41 442.38
1220 0 89.1483 13.113 1169 153.227 1080.8 440.801
1221 0 91.1352 12.9697 1182 154.297 1080.73 440.542
1222 0 95.2289 13.1683 1254 154.25 1080.68 437.992
1223 0 98.103 13.2514 1300 150.065 1080.84 437.213
1224 1 52.0765 12.136 632 153.424 1082.28 458.693
1225 0 56.0382 12.2416 686 152.65 1081.49 457.939
1226 0 58.0669 12.83 745 152.137 1080.66 457.165
1227 0 60.1106 12.1609 731 141.077 1081.9 456.985
1228 0 59.2433 13.0479 773 154.044 1080.82 455.437
1229 0 61.1768 13.0278 797 153.907 1081.62 455.433
1230 0 65.1285 12.6059 821 145.547 1081.54 453.652
1231 0 65.2577 12.9487 845 156.675 1082.22 453.471
1232 0 67.1575 13.0886 879 148.612 1082.28 452.04
1233 0 69.2048 13.0338 902 152.82 1081.81 450.665
1234 0 72.1246 12.7973 923 152.248 1081.91 449.035
1235 0 75.261 12.5696 946 146.641 1081.95 448.232
1236 0 77.1683 13.0235 1005 151.512 1081.47 447.053
1237 0 79.3015 13.228 1049 146.613 1081.29 445.436
1238 0 81.1334 12.9909 1054 146.106 1081.62 444.139
1239 0 84.135 13.205 1111 148.146 1081.6 442.309
1240 0 87.156 12.7702 1113 152.722 1081.48 441.225
1241 0 88.094 13.338 1175 149.816 1081.66 440.006
1242 0 92.1651 12.7489 1175 144.089 1081.83 438.46
1243 0 95.1764 13.0389 1241 138.667 1082.92 435.487
1244 0 98.113 12.6589 1242 140.673 1081.97 434.66
1245 1 54.1005 10.0739 545 138.949 1081.96 458.141
1246 0 54.078 10.6698 577 137.83 1081.63 456.983
1247 0 57.1719 11.1593 638 134.694 1081.71 456.113
1248 0 58.1601 11.795 686 139.698 1082.28 454.577
1249 0 61.0906 11.7858 720 131.296 1081.98 454.218
1250 0 64.0644 11.9723 767 135.634 1081.97 452.505
1251 0 66.0905 12.0744 798 130.053 1082.58 452.208
1252 0 68.0736 12.2808 836 127.531 1082.71 451.914
1253 0 70.1149 12.1372 851 129.596 1082.69 449.612
1254 0 73.0813 11.9319 872 128.233 1082.2 447.641
1255 0 74.1126 12.454 923 130.284 1083.83 446.103
1256 0 79.0876 12.4419 984 127.657 1084.29 443.794
1257 0 82.0829 12.2072 1002 126.573 1083.68 442.935
1258 0 85.1974 12.4182 1058 123.253 1083.29 442.354
1259 0 87.2312 11.6931 1020 127.176 1082.55 441.028
1260 0 89.1237 13.0381 1162 124.463 1083.34 438.941
1261 0 92.1219 12.3315 1136 118.496 1083.05 437.552
1262 0 95.1876 12.7748 1216 132.533 1081.87 436.666
1263 1 49.0955 10.2861 505 131.307 1080.9 459.98
1264 0 52.1194 10.6103 553 134.579 1080.32 458.94
1265 0 54.0705 10.8192 585 130.403 1080.62 457.268
1266 0 55.1715 11.2014 618 127.011 1080.44 456.206
1267 0 56.0851 11.857 665 132.15 1081.09 456.614
1268 0 59.0769 12.3229 728 137.077 1081.71 453.628
1269 0 62.0991 12.2063 758 133.265 1082 453.619
1270 0 62.1268 11.9755 744 136.961 1081.62 453.073
1271 0 62.105 12.7204 790 141.381 1082.44 452.889
1272 0 64.2303 12.3151 791 134.961 1082.26 451.886
1273 0 67.1099 12.6211 847 140.132 1082.37 450.333
1274 0 70.075 12.8291 899 135.953 1082.09 450.853
1275 0 71.1988 13.1182 934 131.672 1082.15 450.015
1276 0 70.1041 13.3658 937 134.792 1081.55 449.043
1277 0 75.2319 13.1194 987 134.4 1081.59 447.79
1278 0 75.1263 13.0846 983 134.396 1080.43 446.479
1279 0 77.2177 13.1188 1013 138.316 1080.77 445.557
1280 0 82.1828 12.9589 1065 136.7 1080.38 443.429
1281 0 84.2303 13.2138 1113 131.73 1080.62 442.425
1282 0 87.2429 13.0097 1135 138.291 1081.36 441.344
1283 0 89.2561 13.4893 1204 139.553 1080.87 438.664
1284 0 93.3834 12.9466 1209 134.194 1081.65 437.269
1285 0 94.2905 13.066 1232 131.6 1081.83 436.572
1286 1 51.1121 11.152 570 133.644 1082.49 458.947
1287 0 53.0669 12.0226 638 124.837 1082.93 457.776
1288 0 55.0573 12.3508 680 135.584 1082.55 456.719
1289 0 58.1519 12.1922 709 135.293 1082.25 455.499
1290 0 59.1051 12.2155 722 137.468 1082.29 454.95
1291 0 58.1288 12.6443 735 135.467 1082.48 454.693
1292 0 60.04 12.575 755 137.478 1082.59 453.943
1293 0 63.143 12.4796 788 138.751 1081.77 453.09
1294 0 65.1429 12.7566 831 137.901 1082.04 451.424
1295 0 67.0705 13.1205 880 138.839 1081.94 449.719
1296 0 70.1245 12.6632 888 135.935 1082.51 449.724
1297 0 72.168 12.6372 912 140.529 1082.21 447.863
1298 0 74.1039 13.0088 964 133.81 1082.57 447.261
1299 0 77.236 12.6366 976 140.266 1081.9 445.428
1300 0 79.3323 12.8699 1021 133.441 1081.3 443.067
1301 0 82.4079 12.8143 1056 138.505 1081.65 443.049
1302 0 84.3807 12.7873 1079 147.639 1083.13 439.892
1303 0 85.4391 12.9449 1106 140.891 1083.5 438.906
1304 0 92.5054 15.5883 1442 120.935 1082.37 433.334
1305 1 49.0374 11.8277 580 148.331 1081.67 458.021
1306 0 48.2996 12.733 615 144.818 1081.8 454.642
1307 0 51.2257 12.318 631 153.864 1081.82 455.428
1308 0 51.2019 12.7925 655 146.737 1082.26 455.458
1309 0 53.0647 12.3623 656 152.57 1082.25 454.627
1310 0 55.3783 13.0557 723 161.054 1081.29 450.978
1311 0 57.2824 12.8312 735 164.317 1081.44 450.503
1312 0 58.4149 13.0788 764 162.611 1081.79 449.381
1313 0 60.3175 12.9316 780 156.355 1081.49 448.972
1314 0 61.1318 12.8902 788 163.873 1081.75 450.241
1315 0 62.0939 12.8676 799 162.116 1081.82 449.539
1316 0 64.1696 13.3396 856 161.107 1082.79 448.06
1317 0 65.222 13.1551 858 158.2 1082.44 447.747
1318 0 68.2481 13.0553 891 160.329 1082.01 446.101
1319 0 69.3799 13.2171 917 159.481 1081.86 444.76
1320 0 73.4198 13.0619 959 163.579 1082.46 443.339
1321 0 75.2755 13.0188 980 160.873 1081.99 441.681
1322 0 76.3291 13.468 1028 161.636 1082.55 440.586
1323 0 80.265 13.2312 1062 157.501 1082.62 439.705
1324 0 82.1317 13.0644 1073 164.733 1082.76 439.179
1325 0 86.2258 13.3487 1151 158.051 1082.32 437.233
1326 0 87.2869 13.5645 1184 151.905 1082.44 435.458
1327 0 90.2745 13.1599 1188 160.359 1082.35 434.935
1328 0 94.3517 13.5769 1281 158.087 1082.48 433.278
1329 0 98.2051 13.2783 1304 155.512 1082.16 431.347
1330 0 100.178 13.9651 1399 157.392 1081.99 429.402
1331 0 105.393 13.4259 1415 156.098 1082.37 427.67
1332 0 109.371 13.4313 1469 152.382 1082.8 424.749
1333 0 112.3 13.5262 1519 149.564 1082.61 422.4
1334 0 116.307 13.2408 1540 146.875 1082.14 421.602
1335 0 119.307 13.218 1577 155.824 1082.04 420.193
1336 1 64.2952 12.1004 778 154.207 1082.21 445.67
1337 0 65.1445 12.1269 790 146.227 1082.23 444.582
1338 0 67.0826 12.7753 857 146.676 1082.8 443.809
1339 0 71.1596 12.9287 920 145.078 1082.22 444.028
1340 0 73.3009 12.8784 944 139.907 1082.52 442.998
1341 0 76.3463 12.5743 960 141.261 1082.77 440.951
1342 0 78.2526 13.0219 1019 136.147 1082.63 439.261
1343 0 81.526 12.217 996 136.925 1082.26 437.352
1344 0 82.3052 12.4172 1022 137.024 1082.64 435.474
1345 0 85.6052 12.5226 1072 132.633 1082.74 433.738
1346 0 88.2011 12.6869 1119 135.342 1083.02 432.192
1347 0 91.4576 12.5085 1144 136.233 1083.12 430.778
1348 0 92.2925 13.0672 1206 134.378 1082.91 429.26
1349 0 95.3459 12.764 1217 142.327 1082.84 428.257
1350 0 99.3449 12.7535 1267 135.8 1083.24 426.289
1351 1 55.1842 9.87602 545 136.516 1083.98 450.024
1352 0 56.2628 9.93552 559 138.084 1083.67 448.258
1353 0 58.0615 10.9711 637 132.65 1083.21 448.915
1354 0 59.1978 11.2335 665 132.362 1082.94 448.368
1355 0 62.2327 12.0676 751 134.24 1083.39 449.232
1356 0 66.1632 12.0157 795 128.468 1083.05 448.522
1357 0 67.2159 11.7383 789 132.603 1083.07 447.468
1358 0 68.1893 12.2747 837 128.237 1083.52 446.364
1359 0 72.402 11.8919 861 129.732 1084.29 441.641
1360 0 75.3162 12.0293 906 127.889 1084.19 438.956
1361 0 77.3381 12.2708 949 134.048 1082.83 442.497
1362 0 80.3695 12.3305 991 126.709 1084.92 438.655
1363 0 82.3276 12.2073 1005 122.423 1085.02 438.694
1364 0 86.4007 12.5115 1081 123.854 1084.27 436.066
1365 0 89.5047 12.5357 1122 124.361 1083.7 432.518
1366 0 92.6611 12.3029 1140 127.496 1083.54 432.454
1367 1 51.4238 10.5399 542 123.251 1083.08 454.221
1368 0 51.1701 11.2957 578 123.564 1083.51 452.988
1369 0 55.2636 11.2913 624 119.22 1082.99 454.157
1370 0 56.1191 11.5647 649 119.444 1082.07 454.017
1371 0 58.3362 12.2737 716 123.739 1082.39 454.493
1372 0 58.0854 11.8791 690 116.288 1082.17 452.823
1373 0 61.1678 12.2286 748 115.939 1082.89 451.04
1374 0 63.1057 12.0591 761 120.23 1082.32 450.547
1375 0 67.1727 11.731 788 118.306 1082.54 449.034
1376 0 66.1656 11.834 783 127.526 1083.49 447.917
1377 0 70.0588 13.2603 929 116.52 1083.11 445.817
1378 0 73.0879 12.095 884 124.753 1083.17 446.34
1379 0 76.33 12.1053 924 116.219 1083.28 445.445
1380 0 78.4701 12.3996 973 123.221 1082.08 444.242
1381 0 79.2481 12.177 965 122.131 1082.42 442.513
1382 0 83.2249 12.4602 1037 126.324 1082.65 442.22
1383 0 84.233 12.5367 1056 126.507 1082.81 440.036
1384 0 89.105 12.6592 1128 127.366 1082.7 438.698
1385 0 91.1215 13.1144 1195 120.92 1083.05 437.605
1386 0 95.1428 12.9384 1231 123.205 1082.55 436.076
1387 0 98.0889 13.3144 1306 123.619 1083.69 433.884
1388 0 100.18 12.7172 1274 123.249 1084.4 434.56
1389 1 56.1313 11.099 623 124.265 1083.15 455.535
1390 0 60.1742 11.583 697 126.172 1083.62 454.581
1391 0 60.197 12.2099 735 122.537 1085.53 448.521
1392 0 62.2154 11.7334 730 116.737 1085.06 444.642
1393 0 64.0448 12.0228 770 122.944 1086.29 446.949
1394 0 65.0686 11.7876 767 118.807 1086.08 446.271
1395 0 65.1983 12.4543 812 122.473 1084.95 447.334
1396 0 69.2068 12.1664 842 122.3 1084.62 446.346
1397 0 70.1948 12.4226 872 122.007 1084.24 444.242
1398 0 73.2022 12.7592 934 120.275 1083.69 441.936
1399 0 75.168 12.5053 940 115.4 1084.56 439.8
1400 0 76.1426 12.8837 981 121.801 1084.26 440.649
1401 0 80.2442 12.3373 990 121.493 1083.8 439.271
1402 0 83.2401 12.6982 1057 123.923 1083.11 438.18
1403 0 85.21 12.522 1067 117.857 1082.97 436.715
1404 0 88.1044 12.6441 1114 119.032 1082.5 435.534
1405 0 90.1539 13 1172 124.988 1081.99 435.736
1406 0 93.1292 13.143 1224 127.949 1082.53 435.803
1407 0 96.1927 13.2754 1277 127.005 1082.82 434.724
1408 0 100.307 13.3091 1335 122.06 1082.78 432.858
1409 0 101.538 13.1675 1337 125.089 1082.66 428.585
1410 0 105.436 13.8093 1456 125.681 1083.34 427.069
1411 0 107.605 13.4287 1445 130.317 1082.75 427.595
1412 0 111.536 13.332 1487 120.924 1082.34 427.757
1413 0 115.528 13.5551 1566 127.518 1083.4 426.066
1414 0 118.518 13.4072 1589 127.145 1083.28 423.468
1415 0 122.398 13.5624 1660 122.242 1082.14 422.632
1416 0 125.596 13.7903 1732 123.009 1081.38 419.467
1417 1 68.6681 10.9658 753 118.459 1081.87 450.616
1418 0 70.4973 11.2628 794 124.966 1082.28 449.733
1419 0 72.3348 12.3177 891 121.661 1082.63 448.697
1420 0 74.5187 12.2251 911 118.952 1081.76 448.115
1421 0 76.5556 12.6313 967 122.939 1082.16 446.289
1422 0 80.4287 13.1172 1055 125.136 1081.04 445.504
1423 0 83.4938 13.0788 1092 127.305 1081.46 445.263
1424 0 85.2464 13.244 1129 121.426 1082.06 442.36
1425 0 89.3823 13.1793 1178 128.873 1082.34 443.547
1426 0 91.6339 13.0847 1199 127.694 1081.57 441.012
1427 0 95.2945 13.1382 1252 128.646 1082.1 440.577
1428 0 98.3795 13.0007 1279 134.333 1081.38 439.312
1429 0 100.548 13.3468 1342 129.608 1080.59 437.044
1430 0 104.237 13.1143 1367 127.127 1081.51 435.446
1431 0 106.366 13.1997 1404 128.724 1082.03 431.699
1432 0 111.365 13.2627 1477 124.674 1081.75 431.316
1433 0 114.419 12.8824 1474 124.864 1081.51 431.258
1434 0 118.573 13.089 1552 133.3 1080.92 428.094
1435 0 122.506 13.0606 1600 135.241 1080.58 425.503
1436 1 68.1052 11.541 786 129.639 1079.32 453.64
1437 0 71.2322 12.0732 860 128.317 1079.13 451.464
1438 0 73.0839 12.7935 935 135.523 1079.6 449.978
1439 0 76.21 12.7411 971 133.312 1080.02 448.494
1440 0 77.2638 13.085 1011 134.47 1079.82 446.848
1441 0 81.2555 12.553 1020 139.814 1080.52 445.652
1442 0 83.3105 12.7715 1064 136.728 1080.52 444.889
1443 0 85.111 13.1358 1118 134.898 1080.02 443.57
1444 0 88.1538 12.7051 1120 135.739 1078.9 442.912
1445 0 91.1819 12.5902 1148 138.426 1079.56 441.04
1446 0 94.4255 13.0367 1231 136.735 1079.57 439.443
1447 0 95.2213 13.1168 1249 138.784 1079.79 440.049
1448 0 99.3217 13.3606 1327 135.1 1079.17 437.206
1449 0 102.263 13.5142 1382 137.44 1079.33 436.235
1450 0 105.245 13.3783 1408 133.585 1078.96 434.77
1451 0 108.266 13.4945 1461 141.383 1079.1 432.806
1452 0 110.285 13.5377 1493 142.908 1078.61 430.066
1453 0 114.355 13.4843 1542 143.949 1078.36 429.548
1454 0 116.376 13.7399 1599 143.481 1078.79 426.811
1455 0 116.376 13.7399 1599 170.983 1079.79 426.811
1456 1 65.3386 12.397 810 132.746 1079.04 453.138
1457 0 67.2624 12.8006 861 142.668 1079.47 453.666
1458 0 70.2682 13.05 917 134.82 1079.78 451.926
1459 0 73.2105 13.3861 980 132.138 1080.05 449.568
1460 0 72.3106 13.3175 963 134.167 1080.38 449.873
1461 0 76.3841 13.3667 1021 136.533 1079.57 448.293
1462 0 77.2927 13.0413 1008 136.362 1080 445.189
1463 0 80.2852 13.1282 1054 135.134 1079.77 445.116
1464 0 81.4208 13.3627 1088 139.858 1079.94 442.944
1465 0 83.2121 13.5197 1125 135.723 1080.92 439.944
1466 0 86.3758 13.2213 1142 136.757 1080.22 437.319
1467 0 86.2732 13.3066 1148 142.669 1081.2 436.55
1468 0 91.2223 13.2205 1206 137.142 1081.23 435.256
1469 0 95.154 12.979 1235 132.714 1081.13 434.175
1470 0 97.222 13.2686 1290 129.476 1082.2 432.219
1471 0 102.37 13.0995 1341 135.748 1082.32 429.763
1472 0 104.245 13.2956 1386 141.051 1082.43 427.633
1473 0 107.362 13.2076 1418 140.654 1082.37 425.241
1474 0 111.564 13.2391 1477 125.666 1082.61 423.871
1475 1 61.1945 11.488 703 131.58 1083.39 450.795
1476 0 66.1592 12.0013 794 139.99 1082.85 449.054
1477 0 68.2142 12.5634 857 133.102 1083.44 447.406
1478 0 72.3107 11.8516 857 131.265 1083.29 441.658
1479 0 73.3406 12.5851 923 130.943 1083.46 440.483
1480 0 75.2659 12.3695 931 130.024 1083.55 440.029
1481 0 78.3755 12.1339 951 131.728 1083.14 440.181
1482 0 78.2292 12.7063 994 130.111 1084.38 438.757
1483 0 81.1051 12.305 998 124.288 1084.43 439.044
1484 0 84.2352 12.0733 1017 133.939 1084.47 437.291
1485 0 87.2131 12.5096 1091 128.632 1084 435.174
1486 0 91.2339 12.7803 1166 139.903 1084.05 435.079
1487 0 95.1864 12.901 1228 136.086 1082.95 436.641
1488 0 98.2033 12.9731 1274 138.056 1082.74 434.892
1489 0 101.179 13.0659 1322 137.12 1081.73 432.858
1490 1 53.2619 11.3402 604 136.513 1082.3 456.21
1491 0 55.2817 11.3238 626 128.783 1081.75 456.308
1492 0 59.3643 11.9095 707 139.385 1082.78 453.758
1493 0 62.1805 12.3511 768 127.146 1082.5 453.385
1494 0 64.3624 12.0567 776 136.174 1082.04 452.691
1495 0 65.3006 12.4961 816 134.186 1081.16 451.243
1496 0 68.4483 12.5204 857 130.131 1080.76 450.468
1497 0 69.2006 12.6733 877 127.379 1080.99 450.04
1498 0 73.2562 12.6815 929 123.84 1081.21 448.466
1499 0 76.3548 12.4419 950 102.066 1081.65 447.366
1500 0 77.5415 12.7674 990 126.986 1081.41 446.292
1501 0 80.4032 12.6487 1017 128.989 1080.84 445.502
1502 0 83.3157 12.7107 1059 127.424 1081.5 443.952
1503 0 86.4858 12.6032 1090 127.91 1081.34 442.159
1504 0 88.5045 12.9485 1146 123.387 1081.59 442.153
1505 0 91.5745 13.0495 1195 128.643 1081.38 440.183
1506 0 94.5699 12.4881 1181 121.284 1081.66 438.532
1507 0 99.3458 12.5219 1244 125.358 1081.62 437.398
1508 0 101.396 12.5745 1275 124.162 1081.24 435.448
1509 0 104.339 12.6223 1317 119.62 1081.49 433.792
1510 0 109.745 12.684 1392 124.991 1081.6 431.489
1511 1 59.563 11.5172 686 126.34 1081.39 455.937
1512 0 59.2202 11.9554 708 121.942 1081.05 456.395
1513 0 61.1058 12.9284 790 122.046 1080.48 454.919
1514 0 63.3033 12.606 798 121.756 1080.53 454.485
1515 0 66.3265 12.8154 850 121.094 1080.41 452.936
1516 0 67.3486 12.6654 853 117.393 1080.09 453.227
1517 0 69.1407 13.3062 920 120.65 1080.02 451.01
1518 0 72.3595 12.894 933 119.035 1079.83 450.068
1519 0 74.4695 13.2403 986 119.997 1079.49 449.42
1520 0 75.6207 13.0784 989 119.659 1079.77 449.243
1521 0 81.4173 14.3704 1170 115.745 1080.11 445.827
1522 0 81.4502 13.0509 1063 125.242 1080.11 447.432
1523 0 84.4995 13.148 1111 120.51 1079.95 445.782
1524 0 86.4602 12.9539 1120 123.257 1080.19 446.014
1525 0 88.5457 13.1796 1167 120.967 1079.87 442.247
1526 0 92.7833 13.3537 1239 120.393 1079.53 439.828
1527 0 94.6362 13.4198 1270 117.392 1079.59 438.815
1528 0 95.7001 13.2393 1267 117.919 1079.78 435.977
1529 0 99.5521 13.2694 1321 114.706 1078.78 435.47
1530 0 105.585 13.6004 1436 110.923 1080.03 432.818
1531 0 108.493 12.858 1395 120.378 1079.72 434.324
1532 1 59.2351 11.6147 688 110.215 1078.88 459.403
1533 0 62.0866 12.3376 766 107.202 1078.25 458.316
1534 0 64.2522 12.2642 788 108.298 1079.35 456.154
1535 0 63.1052 12.3603 780 112.982 1079.22 456.46
1536 0 67.0659 12.6741 850 110.162 1079.99 454.534
1537 0 68.1234 12.6242 860 111.074 1080.87 455.126
1538 0 70.1272 12.4916 876 108.854 1081.38 453.709
1539 0 72.1194 12.5348 904 111.685 1081.46 452.213
1540 0 75.0839 12.4794 937 110.277 1081.08 451.665
1541 0 76.1612 12.6442 963 106.736 1081.95 450.866
1542 0 79.092 12.6561 1001 107.314 1081.94 448.607
1543 0 82.2054 13.0648 1074 110.547 1081.72 445.534
1544 0 81.3129 13.0361 1060 112.914 1080.99 447.093
1545 0 87.2872 12.625 1102 112.565 1081.12 444.057
1546 0 89.2188 12.8785 1149 113.272 1081.38 442.236
1547 0 92.285 12.9165 1192 117.128 1081.2 442.076
1548 0 94.2558 13.039 1229 114.977 1081.43 441.07
1549 0 97.2384 13.1121 1275 109.612 1081.07 439.644
1550 0 98.2966 13.5407 1331 117.139 1080.8 437.086
1551 0 102.415 13.1036 1342 119.795 1081 436.2
1552 0 105.42 12.7395 1343 119.876 1080.11 434.871
1553 0 110.478 12.5998 1392 119.591 1080.39 434.175
1554 1 61.3094 11.2055 687 118.549 1079.53 457.94
1555 0 60.1513 12.0197 723 115.828 1080.52 457.328
1556 0 63.0697 12.4148 783 112.571 1080.67 455.59
1557 0 62.287 12.2979 766 116.684 1079.05 454.533
1558 0 65.1528 12.0486 785 113.476 1080.29 453.748
1559 0 66.3094 12.7584 846 107.103 1080.31 451.624
1560 0 72.2673 13.7268 992 105.684 1080.39 448.316
1561 0 71.2225 13.0998 933 110.585 1080.86 449.003
1562 0 71.0818 13.0132 925 112.084 1081.38 450.092
1563 0 75.0721 12.7611 958 113.457 1083.17 448.676
1564 0 75.0525 13.1241 985 117.949 1083.26 447.723
1565 0 80.0451 12.6928 1016 114.178 1083.05 447.725
1566 0 82.108 12.6175 1036 115.148 1082.53 446.299
1567 0 82.2404 12.8526 1057 117.994 1083.41 445.208
1568 0 86.0611 12.77 1099 119.409 1083.18 443.277
1569 0 87.255 13.3517 1165 115.789 1082.81 441.567
1570 0 91.1603 13.3062 1213 118.511 1082.85 441.087
1571 0 94.1462 13.0329 1227 110.961 1082.65 439.622
1572 0 96.1013 13.4129 1289 117.933 1082.55 437.781
1573 0 99.2364 12.959 1286 125.537 1082.54 436.084
1574 0 101.239 13.2755 1344 119.892 1082.01 434.316
1575 0 106.152 13.6691 1451 119.564 1082.41 432.694
1576 0 109.396 13.4557 1472 114.59 1082.62 429.931
1577 0 112.483 13.3709 1504 126.567 1082.88 428.997
1578 1 60.0996 11.847 712 124.732 1082.38 453.931
1579 0 64.1618 12.2347 785 128.651 1082.14 452.18
1580 0 63.0788 12.9203 815 127.27 1082.92 451.075
1581 0 67.0982 12.3401 828 129.813 1082.69 449.928
1582 0 70.2038 12.5349 880 116.331 1082.76 449.074
1583 0 72.1295 12.6162 910 131.059 1082.77 448.562
1584 0 75.2326 12.3749 931 131.68 1082.84 446.842
1585 0 77.2266 12.4698 963 124.686 1083.23 445.968
1586 0 80.1725 12.6103 1011 128.417 1083.35 444.131
1587 0 84.2463 12.416 1046 121.816 1082.89 443.226
1588 0 85.3315 12.5276 1069 130.535 1082.99 441.428
1589 0 91.2019 12.2366 1116 135.976 1082.98 439.298
1590 0 92.2647 12.6159 1164 133.48 1083.23 439.084
1591 1 51.1033 10.3907 531 137.672 1083.44 460.54
1592 0 51.2256 11.3029 579 136.373 1082.88 457.677
1593 0 53.0931 10.9619 582 133.373 1082.87 458.015
1594 0 54.1342 11.453 620 134.3 1083.69 457.382
1595 0 57.2149 11.9549 684 126.058 1081.89 455.832
1596 0 58.1044 12.4087 721 9.07767 1082.96 455.362
1597 0 59.1085 12.587 744 128.581 1083.09 454.543
1598 0 62.0904 12.1758 756 127.106 1083.14 452.978
1599 0 64.1056 13.119 841 131.954 1084.02 452.719
1600 0 66.0761 12.4856 825 128.167 1084.13 451.325
1601 0 66.1608 12.6056 834 131.133 1084.01 449.464
1602 0 70.3156 12.9416 910 125.868 1083.22 448.804
1603 0 72.2663 13.1735 952 125.023 1083.3 448.392
1604 0 75.2019 13.0183 979 122.291 1083.34 447.985
1605 0 75.2096 13.2031 993 129.028 1083.24 446.563
1606 0 79.3918 13.0492 1036 132.099 1083.28 446.514
1607 0 81.2878 12.8925 1048 134.598 1083.14 444.985
1608 0 85.2026 14.1545 1206 129.187 1082.46 442.537
1609 0 86.3905 13.138 1135 134.633 1081.43 435.227
1610 0 90.3248 13.54 1223 130.325 1081.49 431.23
1611 0 91.3147 13.0976 1196 136.177 1081.55 433.496
1612 0 94.3582 13.3852 1263 127.745 1080.78 434.751
1613 1 52.1832 11.4596 598 142.542 1079.98 457.473
1614 0 55.0652 11.2957 622 143.842 1080.43 451.651
1615 0 56.1244 12.1694 683 142.548 1079.87 454.136
1616 0 56.4648 12.4857 705 147.769 1081.13 458.668
1617 0 57.2638 12.3114 705 153.472 1081.03 457.502
1618 0 60.4895 12.2005 738 141.095 1080.86 455.705
1619 0 60.2852 13.0048 784 149.013 1080.37 454.031
1620 0 61.082 13.0972 800 146.845 1079.71 455.84
1621 0 65.2782 12.6076 823 144.662 1080.16 451.949
1622 0 67.1624 12.9239 868 141.301 1079.46 450.126
1623 0 69.1511 12.8993 892 145.413 1079.9 450.605
1624 0 71.2103 12.8633 916 139.773 1080.7 449.962
1625 0 74.2453 12.8762 956 142.708 1080.44 448.958
1626 0 75.141 12.9091 970 148.225 1080.43 446.61
1627 0 79.1635 12.8468 1017 141.856 1079.81 445.821
1628 0 83.1549 12.6391 1051 142.686 1079.42 445.495
1629 0 86.1676 13.1488 1133 139.68 1079.85 444.492
1630 0 88.1281 13.4123 1182 136.391 1079.81 441.56
1631 0 91.1446 13.6377 1243 140.607 1079.29 438.946
1632 0 95.1935 13.0366 1241 148.737 1079.91 440.741
1633 1 51.1459 11.9658 612 147.219 1080.65 461.247
1634 0 52.1705 12.3441 644 150.025 1079.73 460.854
1635 0 52.2431 13.0735 683 146.31 1080.12 455.772
1636 0 54.0337 12.9179 698 150.609 1080.39 457.447
1637 0 56.0433 13.3825 750 145.133 1079.7 457.291
1638 0 57.0482 13.9005 793 137.363 1079.7 457.487
1639 0 58.2243 14.1178 822 146.741 1079.05 458.127
1640 0 61.2506 13.1101 803 145.28 1079.66 450.701
1641 0 62.306 13.2411 825 149.142 1080.16 454.85
1642 0 64.1229 13.1934 846 139.918 1081.07 448.773
1643 0 67.0469 13.1699 883 140.901 1081.5 449.032
1644 0 68.3138 13.6283 931 142.843 1081.51 447.244
1645 0 72.263 13.1603 951 148.222 1081.17 446.71
1646 0 74.1474 13.5001 1001 143.572 1080.87 446.419
1647 0 75.2781 13.9084 1047 145.075 1080.1 447.414
1648 0 79.1796 13.7914 1092 144.889 1080.01 446.579
1649 0 80.181 13.931 1117 149 1079.44 445.859
1650 0 84.4515 13.6765 1155 150.964 1080.18 444.129
1651 0 86.3171 13.74 1186 148.605 1080.42 442.734
1652 0 90.2306 13.5652 1224 144.538 1080.32 440.028
1653 1 48.1989 12.0542 581 155.563 1079.88 458.055
1654 0 50.4304 12.3933 625 149.704 1079.43 458.491
1655 0 51.1499 13.0401 667 147.486 1079.38 456.223
1656 0 53.134 13.0801 695 146.868 1080.2 456.927
1657 0 55.3427 13.1183 726 149.225 1080.33 454.417
1658 0 56.3293 13.3856 754 148.703 1080.86 453.214
1659 0 59.3959 13.1491 781 148.417 1081.24 451.736
1660 0 60.1896 13.1418 791 152.004 1080.75 451.516
1661 0 61.3803 13.5874 834 152.435 1080.73 450.508
1662 0 63.2916 13.8881 879 151.823 1080.83 448.975
1663 0 66.4789 13.7036 911 139.602 1081.04 447.996
1664 0 70.3486 13.4758 948 154.897 1080.89 446.42
1665 0 69.1878 13.9475 965 156.499 1081.15 445.555
1666 0 73.4577 13.5452 995 150.339 1082.16 444.122
1667 0 77.3188 13.5025 1044 146.129 1081.9 443.914
1668 0 78.2093 13.694 1071 152.639 1081.9 442.509
1669 0 82.4642 13.7514 1134 149.741 1082.6 441.38
1670 0 84.3958 13.7566 1161 150.722 1082.91 439.258
1671 0 87.3444 13.7502 1201 151.514 1082.98 438.43
1672 0 89.4561 13.8727 1241 147.637 1082.59 436.459
1673 0 93.4192 13.798 1289 153.464 1083.5 435.07
1674 0 94.1991 13.7156 1292 157.98 1083.55 434.313
1675 0 99.141 13.385 1327 158.799 1083.98 432.514
1676 1 52.318 12.8063 670 152.384 1083.81 453.555
1677 0 55.211 12.5881 695 148.892 1084.03 452.945
1678 0 55.3025 13.1097 725 158.366 1084.21 452.777
1679 0 57.1713 13.2409 757 140.733 1083.99 451.462
1680 0 58.4267 13.2131 772 148.742 1084.08 450.815
1681 0 61.131 13.0376 797 146.161 1083.74 450.871
1682 0 63.106 13.4377 848 141.367 1084.03 449.361
1683 0 66.1925 13.7024 907 147.071 1083.87 448.164
1684 0 67.3128 13.2813 894 144.601 1083.28 446.787
1685 0 68.2563 13.5812 927 145.978 1083.33 446.45
1686 0 73.1441 13.5213 989 144.235 1083.07 445.279
1687 0 75.2487 13.5152 1017 145.9 1083.08 444.482
1688 0 78.4418 13.5132 1060 137.105 1082.93 444.424
1689 0 80.4156 13.6914 1101 138.937 1082.54 443.431
1690 0 83.3256 14.0653 1172 137.085 1082.49 441.875
1691 0 87.2719 13.4866 1177 137.607 1082.35 439.81
1692 0 89.2797 13.7769 1230 135.798 1082.37 438.298
1693 0 92.2956 14.0093 1293 137.458 1082.81 436.848
1694 0 95.3205 13.4704 1284 136.661 1082.63 435.084
1695 0 99.2297 13.8164 1371 137.562 1082.11 434.077
1696 0 102.389 13.9565 1429 137.537 1082.38 432.88
1697 0 106.199 13.9738 1484 129.756 1081.97 430.65
1698 0 108.437 13.7499 1491 131.946 1082.13 430.334
1699 0 112.349 14.179 1593 133.506 1082.5 426.688
1700 0 117.38 14.0995 1655 132.487 1082.48 424.761
1701 0 121.33 13.7476 1668 135.54 1082.31 423.049
1702 1 66.2058 11.8268 783 139.239 1081.86 449.388
1703 0 68.3192 12.749 871 136.696 1082.31 450.04
1704 0 70.3049 12.6449 889 128.969 1081.61 450.099
1705 0 74.1237 12.4791 925 125.514 1080.94 448.579
1706 0 76.2125 12.2683 935 132.819 1081.68 447.209
1707 0 78.17 12.8822 1007 133.978 1081.13 446.273
1708 0 80.2496 13.1589 1056 133.724 1080.79 444.079
1709 0 85.1798 13.0078 1108 125.188 1080.07 443.271
1710 0 86.3322 12.7762 1103 132.503 1080.03 441.795
1711 0 89.3328 13.4553 1202 122.19 1079.94 441.204
1712 0 92.4812 12.8891 1192 129.31 1079.95 440.201
1713 0 95.3937 13.785 1315 135.302 1080.34 438.059
1714 0 98.6092 13.5383 1335 133.439 1080.5 437.642
1715 0 100.534 13.4979 1357 137.203 1080.89 436.685
1716 0 103.43 13.3424 1380 135.904 1079.94 434.472
1717 0 107.458 13.5495 1456 133.889 1080.35 434.026
1718 0 111.326 13.0967 1458 132.99 1080.68 432.377
1719 0 114.437 13.0901 1498 130.599 1080.34 430.874
1720 1 62.3335 11.4706 715 122.86 1079.11 457.771
1721 0 64.1661 11.9534 767 123.403 1079.99 456.858
1722 0 67.2529 12.3117 828 127.092 1080.64 455.882
1723 0 68.196 12.1268 827 134.302 1080.66 455.508
1724 0 69.037 12.4716 861 122.199 1080.8 454.624
1725 0 72.1076 12.3288 889 137.083 1080.68 452.736
1726 0 74.1428 12.422 921 136.488 1080.85 452.226
1727 0 76.1901 12.5476 956 140.785 1080.05 450.722
1728 0 80.3527 12.5945 1012 138.826 1080.82 448.435
1729 0 80.2125 12.9656 1040 146.931 1080.32 447.679
1730 0 85.1931 12.6771 1080 145.548 1079.56 446.609
1731 0 89.312 12.4283 1110 142.518 1078.74 444.776
1732 0 89.4015 12.9528 1158 139.934 1078.57 440.855
1733 0 93.3404 12.2455 1143 140.114 1078.43 441
1734 0 97.3282 12.3191 1199 143.455 1078 439.961
1735 0 101.314 12.5056 1267 137.211 1077.55 437.414
1736 0 104.409 12.5181 1307 138.674 1077.95 435.889
1737 1 57.2516 10.7071 613 134.444 1076.71 459.636
1738 0 59.147 11.0741 655 139.093 1076.97 458.823
1739 0 60.0663 11.8036 709 135.98 1077.05 456.797
1740 0 62.0669 11.7454 729 130.339 1077.81 456.377
1741 0 64.2035 12.476 801 136.488 1079.34 456.441
1742 0 66.2104 12.2337 810 137.909 1078.36 455.62
1743 0 67.149 12.4201 834 138.613 1078.27 455.078
1744 0 69.1994 12.0377 833 138.962 1078.71 454.718
1745 0 71.0987 12.6022 896 135.818 1078.99 452.401
1746 0 78.1069 14.9795 1170 114.474 1078.97 448.047
1747 0 79.1156 14.523 1149 123.951 1079.37 448.395
1748 0 79.1156 14.523 1149 140.167 1080.37 448.395
1749 0 80.2287 12.8508 1031 139.402 1078.89 447.092
1750 0 83.1157 12.9097 1073 131.08 1079.47 446.171
1751 0 84.144 12.3479 1039 137.791 1078.28 444.593
1752 0 87.2744 13.2112 1153 139.83 1077.51 445.199
1753 0 91.1467 12.8035 1167 129.428 1077.83 443.455
1754 0 92.162 12.6082 1162 137.219 1078.85 442.639
1755 0 96.4114 12.1044 1167 134.792 1078.76 441.924
1756 0 98.2596 12.4568 1224 134.652 1079.27 439.561
1757 1 57.0793 11.0548 631 134.103 1078.32 460.569
1758 0 58.1311 11.1472 648 117.963 1077.11 460.275
1759 0 59.04 11.5007 679 129.074 1079 459.406
1760 0 60.2132 11.6254 700 128.899 1080.14 456.786
1761 0 61.1977 11.7161 717 126.912 1079.52 454.319
1762 0 62.1933 11.9949 746 125.186 1079.6 453.382
1763 0 65.1644 11.5554 753 131.416 1079.13 452.131
1764 0 66.3284 11.7748 781 127.047 1079.04 449.978
1765 0 68.2582 12.2769 838 126.467 1079.37 449.981
1766 0 71.2388 11.8615 845 129.819 1079.49 448.362
1767 0 74.2388 12.2847 912 131.481 1079.7 446.91
1768 0 76.174 12.012 915 130.923 1080.12 447.152
1769 0 76.1655 12.7354 970 131.057 1079.73 444.886
1770 0 81.1082 12.3785 1004 135.906 1079.62 445.303
1771 0 84.1107 12.6857 1067 138.023 1080.95 447.373
1772 0 86.1122 12.7508 1098 129.599 1081.27 445.463
1773 0 88.0641 12.8997 1136 135.391 1081.28 443.895
1774 0 91.1366 12.8488 1171 139.133 1081.17 443.006
1775 0 93.244 13.0732 1219 138.549 1080.65 441.253
1776 0 94.2286 12.8093 1207 139.529 1080.38 439.316
1777 0 100.294 13.1114 1315 139.627 1080.48 437.938
1778 0 104.267 13.4271 1400 137.608 1080.37 434.572
1779 0 107.37 13.5233 1452 138.955 1079.9 434.048
1780 1 57.2687 11.0881 635 137.263 1080.55 459.028
1781 0 56.2085 11.5819 651 135.903 1080.61 457.51
1782 0 57.2095 12.2008 698 129.466 1080.75 455.658
1783 0 59.1124 12.5016 739 134.402 1081.09 453.529
1784 0 61.2056 12.0904 740 135.207 1081.62 453.882
1785 0 62.0977 13.0923 813 129.815 1082.08 453.268
1786 0 65.1503 12.5556 818 135.344 1081.78 452.205
1787 0 66.1521 13.3934 886 134.489 1082.19 450.194
1788 0 69.0589 12.8007 884 140.173 1082.59 449.686
1789 0 73.0804 13.2046 965 133.868 1081.96 447.431
1790 0 73.136 13.3313 975 139.191 1081.92 445.187
1791 0 76.1084 12.9946 989 141.567 1082.21 444.259
1792 0 78.1893 13.3906 1047 145.16 1081.74 442.738
1793 0 79.3114 13.4533 1067 137.385 1080.85 444.87
1794 0 83.1812 13.0318 1084 151.815 1081.09 442.77
1795 0 84.2446 13.354 1125 152.364 1080.71 442.474
1796 0 84.2446 13.354 1125 166.03 1080.71 442.474
1797 0 90.2126 13.0026 1173 147.732 1079.72 439.431
1798 0 93.3442 13.0592 1219 152.724 1080.53 439.106
1799 0 96.234 13.2074 1271 146.889 1080.66 437.255
1800 0 98.2354 13.3251 1309 154.764 1081.22 435.782
1801 0 104.366 14.0947 1471 152.087 1081.08 432.648
1802 0 105.339 13.3853 1410 153.789 1080.92 432.262
1803 0 108.323 13.9306 1509 156.119 1081.12 432.871
1804 1 58.4272 12.2203 714 154.3 1081.08 456.836
1805 0 60.4319 12.6754 766 160.496 1080.39 454.775
1806 0 62.6004 12.8274 803 155.859 1080.21 454.22
1807 0 65.6057 12.758 837 156.725 1081.27 454.111
1808 0 65.7319 13.4181 882 151.932 1080.53 452.041
1809 0 71.7216 14.6818 1053 145.323 1080.81 448.755
1810 0 73.5432 14.862 1093 142.909 1080.49 448.522
1811 0 71.5756 14.2507 1020 154.929 1080.48 449.831
1812 0 72.595 13.3618 970 163.114 1080.05 449.734
1813 0 73.6926 13.5427 998 159.719 1080.25 448.718
1814 0 76.8617 13.3486 1026 161.967 1080.55 447.396
1815 0 79.6324 13.4744 1073 164.665 1080.39 447.341
1816 0 82.6443 13.4311 1110 145.598 1080.58 446.908
1817 0 84.7182 13.4092 1136 165.656 1080.1 446.373
1818 0 86.5141 13.5007 1168 155.562 1079.72 443.991
1819 0 87.4754 13.6153 1191 161.922 1079 443.118
1820 0 90.7046 13.4613 1221 163.708 1079.1 442.421
1821 0 94.4672 13.645 1289 157.507 1079.07 440.213
1822 0 97.6107 13.4514 1313 157.134 1078.9 438.418
1823 0 99.6878 13.6025 1356 161.407 1079.37 437.71
1824 0 101.625 13.8253 1405 154.238 1078.53 436.016
1825 0 105.586 13.4014 1415 149.205 1077.98 434.273
1826 0 109.408 13.637 1492 157.686 1078.04 432.405
1827 0 112.416 13.6814 1538 158.708 1079.03 432.039
1828 0 114.338 13.775 1575 156.04 1078.66 430.663
1829 0 119.463 13.7029 1637 55.9273 1079.06 428.421
1830 1 65.1722 12.0297 784 154.316 1078.55 456.276
1831 0 67.0714 12.4196 833 155.185 1077.61 454.742
1832 0 69.1931 12.8047 886 151.903 1078.1 453.265
1833 0 71.2207 13.1282 935 141.921 1078.37 452.78
1834 0 73.1994 13.3608 978 150.176 1078.15 451.955
1835 0 76.239 13.0511 995 151.294 1077.34 450.914
1836 0 78.2426 13.177 1031 154.469 1078.7 449.484
1837 0 80.2674 13.4177 1077 154.127 1077.34 449.29
1838 0 81.2519 13.1074 1065 145.574 1077.58 447.936
1839 0 83.2512 13.5373 1127 154.12 1077.24 446.732
1840 0 87.3936 13.4106 1172 151.313 1077.39 444.646
1841 0 89.4303 13.5189 1209 154.238 1077.78 443.606
1842 0 93.3298 13.2326 1235 155.927 1077.06 443.908
1843 0 95.3891 13.6074 1298 157.548 1078 443.431
1844 0 98.2558 13.8312 1359 157.57 1077.28 441.676
1845 0 100.324 13.566 1361 153.658 1077.45 440.291
1846 0 105.183 13.8045 1452 161.725 1077.85 438.897
1847 1 59.1016 12.4701 737 166.08 1077.26 462.113
1848 0 60.0665 13.1355 789 160.052 1077.79 460.458
1849 0 62.0931 12.8517 798 158.906 1077.83 460.897
1850 0 65.1351 12.666 825 160.869 1076.96 460.21
1851 0 65.0988 13.4718 877 157.195 1077.6 458.048
1852 0 67.1163 13.4095 900 165.333 1077.5 457.972
1853 0 69.1369 13.278 918 166.4 1077.44 456.459
1854 0 72.189 13.3538 964 156.37 1076.43 455.993
1855 0 74.1999 13.3154 988 162.166 1077.5 455.116
1856 0 75.1602 13.4779 1013 162.52 1076.76 453.565
1857 0 78.0808 13.2555 1035 161.863 1077.1 452.752
1858 0 79.1937 13.1197 1039 153.177 1076.81 451.834
1859 0 84.3769 13.0604 1102 160.687 1077.02 449.897
1860 0 86.2349 13.44 1159 160.664 1077.28 449.716
1861 0 87.2435 13.2159 1153 159.399 1077.09 447.892
1862 0 93.305 13.054 1218 160.304 1077.02 446.71
1863 0 94.2187 13.3307 1256 158.456 1077.56 444.303
1864 0 99.1848 13.5101 1340 159.47 1076.86 442.204
1865 1 53.1473 12.4748 663 151.225 1076.44 463.042
1866 0 56.2075 12.0625 678 158.86 1076.42 461.546
1867 0 57.0951 12.3828 707 153.505 1077.91 461.177
1868 0 57.0906 12.9443 739 151.913 1077.46 460.089
1869 0 60.2378 12.6665 763 148.275 1077.27 460.469
1870 0 62.1732 12.8994 802 150.193 1077.38 459.092
1871 0 64.1274 12.8338 823 152.697 1077.54 457.416
1872 0 67.1446 12.9869 872 153.807 1077.84 455.69
1873 0 69.2132 13.3789 926 145.191 1078.07 454.332
1874 0 69.3004 13.997 970 147.742 1078.34 452.932
1875 0 73.1455 12.9741 949 147.883 1077.91 451.142
1876 0 74.1445 13.4602 998 156.357 1077.84 450.628
1877 0 78.3704 13.6276 1068 155.59 1078.19 449.708
1878 0 79.3295 13.488 1070 161.607 1078.48 448.954
1879 0 82.4254 13.2969 1096 155.983 1078.81 446.868
1880 0 87.2702 13.2806 1159 160.203 1079.49 445.691
1881 0 89.3332 13.3769 1195 155.526 1080.09 444.49
1882 0 92.1865 13.5595 1250 159.846 1079.83 442.253
1883 0 95.5598 13.4157 1282 161.961 1079.72 440.186
1884 0 96.4026 13.7652 1327 156.013 1079.07 439.748
1885 1 54.2021 12.2873 666 153.17 1079.29 460.925
1886 0 57.1067 12.6255 721 163.175 1079.72 459.202
1887 0 58.1666 12.7736 743 162.026 1080.69 458.532
1888 0 63.1894 12.6603 800 157.365 1080.78 457.6
1889 0 64.2138 12.6608 813 159.336 1081 455.742
1890 0 66.1929 12.5089 828 161.263 1081.34 455.63
1891 0 69.1836 12.5319 867 164.223 1081.47 454.452
1892 0 70.2127 13.2455 930 40.8151 1081.74 452.739
1893 0 72.314 13.1371 950 162.482 1081.46 450.737
1894 0 74.2487 13.0911 972 168.146 1082.47 450.264
1895 0 77.2696 13.6147 1052 161.917 1082.21 449.618
1896 0 77.1489 13.4027 1034 168.976 1082 449.071
1897 0 81.3152 13.3062 1082 170.915 1081.86 446.787
1898 0 84.1188 13.683 1151 158.308 1082.17 445.341
1899 0 86.1277 13.5032 1163 170.94 1081.6 444.034
1900 0 89.1033 13.8266 1232 160.795 1082.01 443.016
1901 0 90.0739 13.8442 1247 171.543 1082.19 442.196
1902 0 93.1553 13.923 1297 165.538 1082.03 441.463
1903 0 96.2447 13.9021 1338 170.926 1081.84 440.165
1904 0 98.127 13.9921 1373 168.002 1080.83 436.704
1905 0 102.182 14.0534 1436 167.753 1080.79 435.242
1906 0 105.121 14.06 1478 158.388 1080.54 432.44
1907 0 107.409 14.1515 1520 166.363 1081.06 431.967
1908 0 110.269 13.975 1541 163.113 1080.77 430.934
1909 0 116.45 13.8858 1617 158.432 1080.47 428.774
1910 0 118.747 13.693 1626 162.252 1080.65 426.192
1911 1 66.2254 12.6085 835 165.57 1080.69 453.138
1912 0 67.1203 12.6489 849 154.583 1081.22 452.61
1913 0 70.0653 12.4741 874 159.733 1080.82 451.975
1914 0 73.0873 12.6287 923 164.551 1080.85 451.08
1915 0 75.2444 12.8249 965 159.264 1080.1 449.114
1916 0 76.2117 12.8064 976 163.383 1080.11 448.045
1917 0 77.2265 13.1173 1013 161.498 1079.73 447.092
1918 0 81.2843 13.0037 1057 163.189 1080.51 445.202
1919 0 83.2284 13.2287 1101 156.017 1080.21 444.167
1920 0 87.3958 13.0441 1140 163.665 1080.08 443.673
1921 0 88.2117 13.2976 1173 164.874 1080.54 442.501
1922 0 91.3066 13.1644 1202 166.358 1080.58 441.978
1923 0 94.1568 13.1483 1238 164.935 1079.09 441.393
1924 0 96.233 13.5297 1302 163.084 1079.29 439.179
1925 0 100.272 13.214 1325 169.184 1078.93 438.444
1926 0 102.201 13.1798 1347 103.105 1078.61 437.226
1927 0 105.269 13.2327 1393 166.821 1078.98 436.689
1928 1 59.1398 11.532 682 162.642 1079.57 459.65
1929 0 59.0547 12.4969 738 156.557 1079.12 459.791
1930 0 63.0522 12.4659 786 162.441 1077.47 457.35
1931 0 64.1472 12.939 830 156.241 1078.25 457.251
1932 0 66.3817 13.1211 871 156.231 1078.14 455.452
1933 0 69.163 12.8682 890 158.155 1079.22 454.562
1934 0 71.1511 13.2394 942 160.23 1078.99 454.745
1935 0 75.4226 12.6222 952 154.706 1079 452.949
1936 0 76.324 12.9972 992 159.945 1079 450.869
1937 0 77.1745 13.0743 1009 156.809 1078.98 450.083
1938 0 80.2773 13.4285 1078 164.393 1077.44 449.285
1939 0 82.2169 13.1846 1084 164.152 1077.39 447.807
1940 0 86.3767 13.5453 1170 157.935 1077.1 444.274
1941 0 90.7686 13.2755 1205 166.064 1078.33 442.017
1942 0 93.3723 13.6979 1279 164.184 1077.88 439.998
1943 0 96.4045 13.5056 1302 164.842 1077.64 439.72
1944 0 98.2819 13.5223 1329 166.362 1077.84 438.766
1945 0 103.42 13.4597 1392 166.3 1078.2 438.278
1946 0 105.248 13.3969 1410 163.924 1078.19 437.438
1947 1 57.1764 12.0504 689 163.155 1077.22 461.479
1948 0 60.0726 12.3684 743 164.563 1077.62 460.557
1949 0 62.0459 12.3296 765 160.966 1077.16 459.74
1950 0 63.1584 12.6824 801 164.777 1078.07 458.002
1951 0 66.1515 12.7737 845 163.028 1077.05 457.147
1952 0 68.1383 12.8122 873 160.306 1077.29 456.518
1953 0 71.173 12.589 896 161.199 1077.33 454.099
1954 0 74.3153 12.5815 935 154.648 1077.17 452.499
1955 0 74.2972 12.9345 961 159.994 1077.03 451.3
1956 0 78.3911 13.0244 1021 154.897 1077.94 448.84
1957 0 79.2135 12.8135 1015 160.76 1077.35 448.902
1958 0 84.3895 12.7386 1075 157.107 1077.92 447.633
1959 0 86.3227 12.9398 1117 157.474 1077.34 447.057
1960 0 89.5528 13.0426 1168 155.61 1076.56 442.598
1961 0 91.4654 13.1525 1203 162.355 1077.56 443.169
1962 0 94.5481 12.7554 1206 154.037 1078.01 443.172
1963 0 98.3321 12.6103 1240 164.577 1078.61 441.651
1964 1 52.1195 11.3585 592 163.39 1078.95 463.89
1965 0 54.1207 12.2689 664 164.023 1077.75 462.56
1966 0 56.1016 12.9943 729 150.154 1076.42 461.191
1967 0 56.2244 12.6457 711 158.256 1077.74 461.799
1968 0 56.0437 12.9899 728 153.975 1077.53 461.353
1969 0 60.1359 13.7522 827 155.873 1077.94 458.593
1970 0 60.2167 12.8702 775 160.094 1077.45 458.863
1971 0 63.1439 12.9704 819 154.311 1077.44 459.02
1972 0 63.1645 13.0611 825 158.719 1077.51 458.302
1973 0 63.1497 13.3176 841 161.816 1076.79 456.942
1974 0 67.2064 13.0642 878 164.41 1077.29 455.917
1975 0 70.3488 12.8218 902 153.735 1077.52 453.159
1976 0 72.2092 13.2116 954 160.478 1077.29 452.916
1977 0 74.2588 13.0624 970 162.995 1078 451.615
1978 0 77.1857 13.1501 1015 166.691 1078.2 450.901
1979 0 78.2042 13.388 1047 159.008 1078.51 449.42
1980 0 81.1932 13.4371 1091 163.023 1078.84 447.841
1981 0 85.1759 13.3488 1137 161.159 1078.34 446.564
1982 0 87.1071 13.4088 1168 161.9 1078.2 445.04
1983 0 90.1761 13.2408 1194 160.853 1078.07 443.88
1984 0 92.26 13.592 1254 160.686 1078.81 442.623
1985 1 49.188 12.1574 598 156.455 1079.1 462.12
1986 0 53.1233 12.5369 666 161.206 1079.04 460.538
1987 0 55.2875 12.4983 691 153.899 1078.95 459.538
1988 0 56.2974 12.6827 714 154.496 1079.81 458.838
1989 0 57.2789 13.0589 748 154.303 1079.99 458.143
1990 0 60.3196 12.8482 775 154.16 1080.12 457.679
1991 0 61.1655 13.0302 797 148.314 1080.79 456.735
1992 0 64.3546 12.9905 836 158.379 1080.93 455.1
1993 0 66.1847 13.2206 875 157.722 1080.62 454.481
1994 0 68.2696 13.1977 901 152.836 1080.91 453.625
1995 0 69.1835 13.4136 928 154.497 1081.03 451.495
1996 0 73.2088 13.1678 964 156.881 1080.7 452.415
1997 0 74.0884 13.4029 993 156.898 1080.64 449.684
1998 0 76.2002 13.517 1030 156.682 1080.77 448.901
1999 0 78.207 13.5282 1058 157.31 1081.38 447.546
2000 0 80.3498 13.4537 1081 156.62 1081.21 446.905
2001 0 84.1318 13.6571 1149 144.966 1081.15 445.137
2002 0 86.3569 13.7221 1185 150.284 1080.76 442.264
2003 0 88.3952 13.7677 1217 153.28 1080.86 441.209
2004 0 92.2715 13.5686 1252 156.32 1080.71 440.012
2005 0 93.2308 14.1048 1315 154.553 1079.97 438.363
2006 0 98.164 13.6506 1340 154.807 1080.29 438.358
2007 0 100.306 13.7081 1375 151.626 1080.44 436.335
2008 0 104.347 13.8 1440 153.957 1079.95 431.967
2009 1 57.177 12.6275 722 153.997 1079.19 455.641
2010 0 60.1517 13.0836 787 149.685 1079.34 457.005
2011 0 61.2851 13.1516 806 146.002 1080.64 457.479
2012 0 63.2662 13.0876 828 148.737 1080.09 455.408
2013 0 63.3561 13.6845 867 146.648 1079.81 455.248
2014 0 66.1679 13.2542 877 148.576 1079.19 454.103
2015 0 67.2659 13.4243 903 144.511 1079.9 453.063
2016 0 70.1727 13.481 946 144.448 1079.21 451.485
2017 0 73.1621 13.6273 997 136.951 1079.55 449.543
2018 0 74.4185 13.545 1008 137.684 1079.28 449.807
2019 0 77.159 13.8156 1066 141.245 1078.64 448.475
2020 0 79.1677 13.4651 1066 135.8 1078.47 447.932
2021 0 80.1834 13.6188 1092 134.621 1078.99 446.181
2022 0 82.2074 14.0377 1154 134.222 1079.24 445.029
2023 0 86.158 14.102 1215 142.978 1079.6 443.899
2024 0 89.0937 13.873 1236 139.055 1078.65 443.934
2025 0 89.1389 14.1352 1260 141.56 1078.95 441.956
2026 0 92.0598 13.8714 1277 140.095 1078.64 441.527
2027 0 94.3014 13.8598 1307 139.769 1079.39 440.269
2028 0 97.1743 14.1087 1371 136.892 1079.63 438.623
2029 0 102.242 13.781 1409 139.794 1079.27 436.813
2030 0 105.255 13.8141 1454 142.927 1078.04 434.961
2031 0 110.237 13.8519 1527 141.166 1079.15 433.128
2032 0 114.218 13.7806 1574 145.201 1078.77 431.344
2033 1 60.1306 12.5227 753 143.712 1079.02 457.06
2034 0 64.2155 12.5359 805 142.06 1079.53 455.615
2035 0 64.1643 12.7329 817 140.348 1079.45 454.255
2036 0 68.2759 12.9768 886 137.043 1079.44 453.157
2037 0 70.2783 13.2046 928 126.806 1078.36 452.012
2038 0 72.1043 13.4389 969 134.837 1078.67 450.65
2039 0 76.2622 12.8897 983 136.059 1078.75 449.345
2040 0 79.2811 13.0674 1036 130.187 1078.59 448.063
2041 0 81.3252 13.071 1063 131.771 1078.24 445.743
2042 0 84.1815 13.0432 1098 130.823 1078.48 444.442
2043 0 87.2422 13.0212 1136 130.362 1077.72 444.157
2044 0 88.2789 13.5366 1195 132.674 1078.76 443.309
2045 0 92.191 13.1792 1215 138.374 1079.17 441.35
2046 0 95.3425 13.1736 1256 132.99 1079.39 440.648
2047 0 97.2224 13.104 1274 135.639 1078.22 439.044
2048 0 100.254 13.3161 1335 137.691 1078.68 437.172
2049 0 102.171 13.3893 1368 138.385 1077.66 436.424
2050 0 106.261 13.5798 1443 137.841 1078.04 434.84
2051 0 110.125 13.5574 1493 131.145 1078.91 433.873
2052 0 114.325 13.5928 1554 135.607 1078.94 432.125
2053 0 118.201 13.5362 1600 136.651 1078.1 429.929
2054 1 66.0958 11.68 772 134.749 1078.31 455.892
2055 0 68.0961 12.2474 834 138.902 1078 454.92
2056 0 72.1015 12.6488 912 130.283 1078.42 454.018
2057 0 73.1017 13.0777 956 137.18 1078.32 452.903
2058 0 76.1135 13.3616 1017 132.024 1078.17 450.504
2059 0 80.1473 12.9761 1040 125.335 1077.46 449.906
2060 0 82.1492 13.1468 1080 130.852 1076.91 449.04
2061 0 83.1874 13.3794 1113 134.412 1077.46 447.871
2062 0 86.3853 13.3588 1154 130.582 1077.87 446.501
2063 0 86.1448 13.7095 1181 125.53 1077.66 444.576
2064 0 91.2992 13.5598 1238 128.863 1077.51 443.726
2065 0 95.2442 13.2292 1260 129.844 1078.02 442.176
2066 0 97.3164 13.5332 1317 131.176 1077.49 439.854
2067 0 98.2617 13.9322 1369 128.785 1077.11 436.863
2068 0 102.313 13.6346 1395 130.134 1077.75 436.685
2069 0 105.255 13.6431 1436 118.427 1078.35 434.966
2070 0 109.196 13.4895 1473 122.401 1077.76 433.318
2071 0 113.246 13.528 1532 128.696 1077.84 430.603
2072 0 116.467 13.5404 1577 125.539 1078.9 427.805
2073 0 119.413 13.4576 1607 126.56 1078.19 426.105
2074 0 124.397 13.5694 1688 121.461 1078.03 423.201
2075 1 68.1261 12.0512 821 123.197 1078.75 453.211
2076 0 72.1836 12.6206 911 116.997 1078.98 451.451
2077 0 74.0773 12.9594 960 123.541 1078.93 449.472
2078 0 76.1567 12.9601 987 118.16 1078.39 448.575
2079 0 78.1503 12.6807 991 118.872 1078.39 447.814
2080 0 82.2207 12.5151 1029 117.096 1079.09 446.153
2081 0 85.1794 12.4913 1064 117.905 1079.3 444.78
2082 0 88.3035 13.0006 1148 115.132 1079.21 442.373
2083 0 91.375 12.7387 1164 119.158 1079.21 440.078
2084 0 91.5343 13.1208 1201 118.328 1078.9 438.07
2085 0 96.5103 13.0452 1259 117.631 1079.39 435.976
2086 0 98.417 13.0567 1285 110.887 1079.65 434.971
2087 0 103.549 12.8925 1335 122.205 1079.44 432.057
2088 0 105.345 13.432 1415 118.635 1079.82 430.088
2089 0 105.559 13.5659 1432 124.374 1080.2 429.411
2090 0 109.835 13.4384 1476 118.18 1080.32 427.635
2091 0 113.475 13.069 1483 124.675 1080.16 426.732
2092 0 116.572 13.3994 1562 119.153 1080.26 424.243
2093 0 121.814 13.5535 1651 123.774 1080.66 422.507
2094 0 124.653 13.3089 1659 127.336 1079.92 420.785
2095 0 128.565 13.4485 1729 122.261 1080.07 418.516
2096 1 70.333 12.1422 854 122.451 1079.63 447.468
2097 0 71.2829 12.0927 862 125.479 1079.91 446.762
2098 0 74.3758 12.9209 961 124.665 1080.93 443.712
2099 0 76.4094 12.9958 993 119.821 1080.88 442.746
2100 0 78.4695 12.7311 999 120.158 1080.89 442.089
2101 0 79.6732 12.9529 1032 123.848 1080.68 440.807
2102 0 82.6609 13.1985 1091 124.125 1080.74 439.78
2103 0 84.5584 13.5055 1142 124.431 1081.12 438.371
2104 0 84.5422 13.5199 1143 126.927 1081.27 437.326
2105 0 87.5896 13.8373 1212 122.777 1081.86 436.623
2106 0 92.62 13.7119 1270 123.254 1082.21 434.331
2107 0 94.5039 13.5973 1285 126.136 1081.73 432.466
2108 0 95.5875 13.6838 1308 124.046 1081.71 430.717
2109 0 100.586 13.6897 1377 124.393 1081.82 429.312
2110 0 102.848 13.5442 1393 121.907 1081.9 428.653
2111 0 104.735 14.2359 1491 123.414 1082.02 426.584
2112 0 108.427 13.8803 1505 124.323 1081.85 426.46
2113 0 111.263 13.8771 1544 122.812 1081.82 424.595
2114 0 114.471 13.9162 1593 125.637 1082.25 423.524
2115 0 118.437 14.2523 1688 120.099 1082.54 421.183
2116 0 124.465 14.2208 1770 121.633 1082.89 420.188
2117 0 125.278 14.1605 1774 126.061 1082.45 419.177
2118 0 131.284 14.1753 1861 123.595 1082.44 416.898
2119 0 136.382 14.0854 1921 122.44 1082.33 414.853
2120 1 74.3127 12.9857 965 124.338 1082.59 446.133
2121 0 77.2086 13.3146 1028 123.883 1082.29 444.136
2122 0 79.2204 13.3551 1058 122.595 1082.4 443.243
2123 0 82.2094 13.1858 1084 121.549 1082.34 441.203
2124 0 86.2027 13.155 1134 120.895 1082.52 439.494
2125 0 86.2027 13.155 1134 170.39 1082.52 439.494
2126 0 90.2129 13.6012 1227 118.286 1082.75 437.087
2127 0 92.2199 13.9775 1289 119.14 1082.61 436.098
2128 0 96.2032 13.7521 1323 121.903 1082.57 434.379
2129 0 98.1779 14.0663 1381 121.463 1082.5 434.243
2130 0 101.186 13.9248 1409 125.2 1082.49 431.798
2131 0 102.181 14.1122 1442 118.898 1083 431.039
2132 0 106.211 14.3017 1519 113.934 1082.39 429.277
2133 0 110.133 13.865 1527 120.166 1082.32 427.223
2134 0 114.213 14.8407 1695 115.358 1083.2 423.464
2135 0 116.288 13.7159 1595 116.566 1082.07 424.775
2136 1 63.1042 11.7266 740 111.743 1082.06 453.072
2137 0 64.1946 12.7892 821 117.892 1080.95 452.706
2138 0 64.1661 12.9352 830 112.237 1081.71 452.333
2139 0 68.3204 12.6902 867 115.13 1082.18 451.361
2140 0 71.1843 12.7837 910 107.188 1081.49 450.168
2141 0 71.2506 13.0104 927 111.183 1081.65 449.132
2142 0 75.1281 13.1109 985 114.258 1081.3 446.77
2143 0 78.3266 12.8437 1006 106.978 1081.91 445.967
2144 0 80.1505 12.9132 1035 140.532 1081.94 445.356
2145 0 80.3133 13.2855 1067 142.245 1081.97 443.394
2146 0 84.3234 13.0806 1103 143.202 1081.75 443.579
2147 0 86.3074 13.0927 1130 141.562 1082.09 442.219
2148 0 89.3172 13.5248 1208 143.094 1081.66 441.937
2149 0 91.3769 12.9683 1185 156.635 1081.54 440.068
2150 0 95.4099 13.1852 1258 154.801 1080.96 438.731
2151 0 96.3488 13.2435 1276 149.995 1080.88 436.988
2152 0 99.1574 13.3727 1326 146.762 1080.88 436.278
2153 0 102.273 13.4346 1374 155.893 1080.83 435.48
2154 0 105.493 13.2141 1394 150.395 1080.96 433.872
2155 0 105.437 13.648 1439 150.314 1080.65 432.689
2156 0 111.385 13.1077 1460 150.047 1080.58 431.475
2157 0 114.201 13.1873 1506 149.31 1080.66 429.434
2158 1 61.2907 11.6168 712 147.487 1080.54 456.233
2159 0 64.129 12.085 775 153.454 1080.82 454.172
2160 0 68.285 12.0817 825 144.305 1080.86 454.259
2161 0 68.256 12.1455 829 140.989 1080.98 453.267
2162 0 71.3243 12.1137 864 146.388 1080.86 452.612
2163 0 74.2419 12.1764 904 147.102 1079.82 451.294
2164 0 76.1778 12.4446 948 148.216 1079.94 450.004
2165 0 78.2976 12.4142 972 141.517 1079.84 448.951
2166 0 81.2344 12.1993 991 149.848 1079.72 446.898
2167 0 83.4385 12.7399 1063 148.696 1079.04 444.817
2168 0 86.2971 12.3295 1064 148.802 1079.52 444.283
2169 0 89.424 12.491 1117 147.157 1079.75 441.783
2170 0 93.3452 12.7698 1192 142.857 1079.6 439.646
2171 0 95.3812 13.0319 1243 144.208 1079.56 437.526
2172 0 97.3325 13.0686 1272 141.469 1079.52 436.933
2173 0 101.516 12.7764 1297 143.045 1078.07 436.243
2174 0 105.523 12.7839 1349 147.62 1078.49 434.655
2175 0 106.474 13.0173 1386 134.5 1079.23 433.25
2176 0 110.565 13.0512 1443 150.389 1078.82 431.72
2177 0 114.353 13.1173 1500 143.255 1078.26 429.075
2178 1 63.2766 10.9519 693 144.341 1077.95 454.629
2179 0 64.3412 11.7343 755 146.94 1078.83 453.335
2180 0 65.1968 12.5466 818 144.649 1078.49 451.454
2181 0 70.1304 12.6336 886 144.66 1078.28 452.619
2182 0 71.33 12.4772 890 142.496 1078.54 453.999
2183 0 72.1562 12.8194 925 139.72 1078.67 452.957
2184 0 75.2809 12.4866 940 143.237 1079.1 452.355
2185 0 76.1577 13.262 1010 142.698 1080.02 451.073
2186 0 80.2577 13.0579 1048 140.861 1079.84 449.411
2187 0 82.2739 12.6772 1043 149.303 1079.09 448.014
2188 0 85.2117 12.6274 1076 149.994 1078.9 446.994
2189 0 86.268 12.9248 1115 154.122 1079.02 445.348
2190 0 87.1337 13.4735 1174 151.662 1079.13 443.845
2191 0 93.2921 13.0665 1219 153.886 1079.47 442.589
2192 0 95.1919 12.9843 1236 153.047 1078.54 439.235
2193 0 98.3928 12.9075 1270 154.907 1079.22 437.191
2194 0 101.397 13.1463 1333 154.042 1080.2 436.152
2195 0 104.417 13.3024 1389 159.361 1080.04 434.916
2196 0 105.344 13.4417 1416 154.785 1079.09 433.285
2197 0 109.433 13.7161 1501 152.004 1079.06 430.187
2198 0 113.292 13.3372 1511 152.819 1079.29 430.252
2199 0 116.437 13.3549 1555 159.687 1079.61 427.882
2200 0 119.299 13.2692 1583 151.839 1079.09 424.368
2201 0 122.437 13.9337 1706 155.332 1077.75 422.641
2202 0 126.467 13.5213 1710 158.622 1078.68 420.137
2203 0 130.575 13.8005 1802 157.966 1079.03 419.323
2204 0 135.519 13.8357 1875 155.137 1078.78 416.236
2205 0 141.688 13.7626 1950 161.106 1078.72 414.098
2206 0 145.74 13.7917 2010 159.54 1078.96 411.545
2207 0 151.446 13.6616 2069 160.4 1079.85 409.449
2208 1 86.0898 12.336 1062 160.295 1079.25 441.034
2209 0 89.2412 12.7295 1136 155.948 1079.4 438.392
2210 0 92.2994 12.7086 1173 154.646 1080.31 436.746
2211 0 96.3226 12.7073 1224 157.725 1080.38 435.776
2212 0 99.1437 12.7996 1269 155.692 1080.39 433.352
2213 0 103.253 12.9875 1341 149.837 1080.59 431.678
2214 0 105.263 12.958 1364 148.052 1080.9 428.782
2215 0 107.273 12.8271 1376 149.899 1080.98 427.85
2216 0 112.268 13.0847 1469 156.845 1081.13 426.968
2217 0 115.416 13.2651 1531 148.178 1081.93 424.905
2218 0 118.293 13.2637 1569 153.552 1081.84 424.249
2219 0 121.324 13.4516 1632 155.722 1081.9 421.79
2220 0 124.38 13.708 1705 151.982 1081.5 417.887
2221 0 131.325 13.478 1770 153.625 1082.14 414.86
2222 0 135.37 13.4594 1822 149.711 1081.89 412.251
2223 0 141.462 13.827 1956 145.793 1082.33 410.042
2224 0 143.444 13.7824 1977 148.666 1082.31 408.093
2225 1 80.2502 12.2617 984 149.663 1082.14 440.65
2226 0 85.4418 12.6987 1085 142.485 1081.95 439.747
2227 0 86.2175 13.0484 1125 144.988 1082.81 438.409
2228 0 89.2868 13.2606 1184 144.525 1082.92 436.316
2229 0 92.3795 13.2064 1220 149.445 1082.96 435.23
2230 0 96.3387 13.3487 1286 139.47 1082.6 431.429
2231 0 98.3505 13.1875 1297 152.98 1082.92 432.128
2232 0 100.346 13.1944 1324 150.483 1082.93 429.257
2233 0 105.189 13.2618 1395 149.067 1082.62 428.351
2234 0 105.326 13.8807 1462 153.06 1082.59 427.181
2235 0 111.279 13.4976 1502 154.766 1082.49 424.066
2236 0 112.256 13.879 1558 153.97 1082.87 423.691
2237 0 117.246 13.9023 1630 155.945 1082.51 422.16
2238 0 120.303 14.023 1687 153.809 1082.47 421.633
2239 0 123.406 13.7594 1698 157.711 1082.08 418.138
2240 0 129.237 13.8893 1795 156.962 1081.86 416.987
2241 0 133.244 13.7417 1831 152.698 1081.8 414.494
2242 1 77.2463 12.1171 936 154.166 1082.08 444.107
2243 0 80.2508 12.598 1011 147.264 1082.15 443.441
2244 0 81.2592 13.0447 1060 146.142 1082.17 442.226
2245 0 83.1953 12.9935 1081 148.599 1082.5 440.536
2246 0 85.2592 13.5 1151 150.842 1082.19 439.228
2247 0 90.1864 13.2171 1192 150.013 1081.72 437.156
2248 0 93.2552 13.3505 1245 145.801 1081.73 434.461
2249 0 95.3056 13.3151 1269 150.931 1081.06 432.762
2250 0 97.3822 13.7397 1338 137.809 1080.83 430.564
2251 0 101.29 13.5847 1376 143.343 1080.92 430.022
2252 0 104.29 13.5871 1417 145.955 1081.24 428.613
2253 0 107.409 13.7604 1478 142.637 1081.42 426.117
2254 0 111.276 13.3721 1488 137.599 1081.44 426.951
2255 0 113.263 13.8086 1564 147.769 1080.42 424.572
2256 0 115.336 14.1499 1632 151.14 1081.01 421.771
2257 0 120.278 13.5935 1635 140.93 1080.66 419.256
2258 0 124.339 14.179 1763 121.872 1080.9 415.896
2259 0 129.347 13.6532 1766 117.972 1080.97 415.474
2260 0 134.252 13.5864 1824 119.816 1080.99 413.55
2261 1 74.134 12.5449 930 121.344 1081.47 446.819
2262 0 78.2027 12.7873 1000 136.307 1080.96 445.707
2263 0 80.3191 12.7242 1022 128.269 1079.89 445.333
2264 0 82.1553 13.0241 1070 126.397 1079.74 444.808
2265 0 84.3002 12.9774 1094 129.961 1080.44 444.588
2266 0 85.1898 13.2997 1133 123.622 1080.3 443.591
2267 0 88.1191 13.1867 1162 127.298 1079.25 441.818
2268 0 90.2077 13.48 1216 122.203 1080.28 441.84
2269 0 95.2996 12.8962 1229 121.658 1080.53 439.452
2270 0 98.4719 13.5876 1338 122.285 1079.51 437.51
2271 0 101.16 13.5429 1370 114.469 1078.61 435.752
2272 0 103.171 13.686 1412 120.331 1079.43 434.657
2273 0 108.273 13.2904 1439 128.854 1079.27 433.222
2274 0 111.345 13.4177 1494 131.695 1079.62 431.086
2275 0 114.422 13.555 1551 121.652 1079.37 430.21
2276 0 120.122 14.5602 1749 122.198 1079.48 425.595
2277 0 120.293 13.6749 1645 128.072 1078.97 424.939
2278 0 126.365 13.6985 1731 123.132 1079.08 419.889
2279 0 128.406 13.6598 1754 124.012 1078.44 419.718
2280 0 134.298 13.9168 1869 125.028 1077.74 417.376
2281 0 138.357 13.6676 1891 126.547 1078.48 416.345
2282 0 141.313 14.337 2026 130.289 1078.81 414.145
2283 0 146.409 13.8721 2031 131.715 1078.57 412.663
2284 0 150.34 14.0747 2116 132.043 1078.86 410.578
2285 0 155.335 14.0471 2182 134.338 1079.67 408.31
2286 0 160.389 14.3962 2309 142.569 1079.64 404.941
2287 0 165.5 14.435 2389 145.154 1079.83 403.481
2288 0 173.28 14.2198 2464 139.169 1079 397.466
2289 1 96.1461 13.0531 1255 142.662 1078.54 435.833
2290 0 101.237 13.2067 1337 140.713 1078.08 433.553
2291 0 105.399 12.6757 1336 136.834 1078.49 432.524
2292 0 107.349 12.9391 1389 137.963 1077.8 431.471
2293 0 112.209 13.1451 1475 141.342 1077.91 430.983
2294 0 115.21 13.1325 1513 147.542 1078.71 429.369
2295 0 117.206 13.054 1530 142.558 1078.22 427.462
2296 0 123.228 12.9435 1595 144.894 1077.84 425.9
2297 0 127.299 12.993 1654 147.244 1078.65 423.129
2298 0 129.19 13.2905 1717 139.682 1079.25 421.095
2299 0 136.328 12.9834 1770 144.298 1078.95 419.228
2300 0 140.239 12.9564 1817 141.449 1079.49 416.14
2301 0 144.24 13.1309 1894 147.64 1079.45 412.773
2302 1 81.1576 12.4203 1008 136.626 1079.61 444.53
2303 0 84.1639 12.9509 1090 136.275 1079.32 442.983
2304 0 85.1506 12.5307 1067 134.516 1079.19 443.448
2305 0 88.157 12.9882 1145 139.084 1079.18 440.89
2306 0 91.1028 12.5463 1143 141.181 1079.07 440.576
2307 0 94.3276 12.7746 1205 143.971 1079.44 438.654
2308 0 97.1275 13.1683 1279 143.283 1080.01 435.427
2309 0 100.268 12.9852 1302 145.367 1079.52 435.143
2310 0 103.155 12.932 1334 138.477 1079.93 434.714
2311 0 105.22 12.9443 1362 141.977 1080.37 430.51
2312 0 109.243 12.9802 1418 139.752 1079.88 429.357
2313 0 113.402 12.6718 1437 141.507 1080.06 428.447
2314 0 115.291 12.6723 1461 144.154 1080.41 426.585
2315 0 121.125 12.7307 1542 147.227 1080.96 424.562
2316 0 125.35 13.3945 1679 134.43 1080.89 421.326
2317 1 72.0893 12.0822 871 143.07 1080.45 447.906
2318 0 75.1298 12.3919 931 143.56 1080.51 446.139
2319 0 77.3064 12.9097 998 140.696 1080.93 444.736
2320 0 78.161 13.4978 1055 145.027 1081.04 442.965
2321 0 84.4 13.2701 1120 137.588 1081.4 441.221
2322 0 85.2296 13.0823 1115 141.859 1081.57 439.923
2323 0 88.2333 13.4416 1186 139.475 1081.29 432.879
2324 0 91.442 13.1559 1203 143.761 1082.25 434.683
2325 0 93.2916 13.3238 1243 141.514 1082.54 432.936
2326 0 95.3407 13.2158 1260 143.921 1082.87 432.263
2327 0 98.1742 13.364 1312 136.968 1082.94 431.838
2328 0 102.339 14.1197 1445 139.246 1082.94 430.484
2329 0 104.201 13.7619 1434 139.743 1083.01 431.855
2330 0 106.279 13.6245 1448 137.45 1083.41 428.961
2331 0 108.367 13.7773 1493 145.181 1083.09 428.98
2332 0 111.659 14.0069 1564 144.48 1083.32 427.152
2333 0 113.388 13.908 1577 142.58 1083.28 424
2334 0 117.524 13.5291 1590 144.799 1083.39 423.547
2335 0 120.514 13.6498 1645 148.753 1083.16 421.424
2336 0 125.482 13.8824 1742 149.157 1082.85 420.115
2337 0 128.481 14.111 1813 137.347 1083.42 417.41
2338 0 133.723 14.3057 1913 140.409 1083.12 413.453
2339 0 136.636 13.6713 1868 144.794 1083.07 412.158
2340 0 140.694 14.002 1970 143.262 1083.34 410.371
2341 0 146.611 14.1121 2069 142.053 1083.74 407.797
2342 1 82.6904 11.9482 988 139.073 1082.75 439.508
2343 0 83.4777 12.4345 1038 142.141 1083.04 439.642
2344 0 86.6048 12.8977 1117 144.662 1083.41 436.961
2345 0 90.5442 13.0765 1184 133.503 1083.69 435.399
2346 0 92.4263 13.5568 1253 150.449 1083.67 434.386
2347 0 95.5103 13.276 1268 152.344 1083.49 433.424
2348 0 98.5281 13.4987 1330 152.056 1083.44 431.948
2349 0 102.406 13.7199 1405 149.653 1082.73 430.557
2350 0 102.406 13.7199 1405 165.858 1081.73 430.557
2351 0 108.41 13.7165 1487 144.451 1083.35 427.152
2352 0 110.6 13.6167 1506 146.074 1083.61 427.808
2353 0 113.414 14.0194 1590 148.855 1083.08 426.236
2354 0 116.515 13.9468 1625 151.161 1082.47 424.538
2355 0 122.621 15.1361 1856 137.32 1082.65 420.152
2356 0 124.629 13.7528 1714 144.468 1082.69 419.63
2357 0 130.589 13.6458 1782 147.749 1082.69 416.895
2358 0 133.488 14.286 1907 142.669 1082.82 414.108
2359 0 137.252 13.967 1917 144.72 1082.73 412.447
2360 0 144.285 14.0971 2034 138.722 1082.78 409.199
2361 0 149.454 13.9574 2086 144.88 1081.98 405.801
2362 1 83.3458 12.2622 1022 146.25 1081.78 441.011
2363 0 86.2257 12.7224 1097 142.12 1081.77 439.298
2364 0 87.1523 13.2412 1154 139.076 1081.5 437.978
2365 0 89.1992 13.2288 1180 140.031 1081.72 438.795
2366 0 91.2319 12.9779 1184 139.95 1081.84 437.427
2367 0 95.1825 12.9751 1235 131.515 1081.54 435.619
2368 0 99.1969 12.7927 1269 140.932 1081.45 435.017
2369 0 102.119 13.1122 1339 135.373 1081.51 432.026
2370 0 102.471 12.5011 1281 127.013 1081.57 426.438
2371 0 106.259 12.6201 1341 129.746 1081.24 428.109
2372 0 110.288 12.4583 1374 131.591 1081.31 424.394
2373 0 112.248 12.6239 1417 132.866 1081.26 422.812
2374 0 116.234 12.4146 1443 128.394 1080.82 421.952
2375 0 117.188 12.6976 1488 127.614 1080.33 421.135
2376 0 127.337 13.8844 1768 132.423 1080.16 418.609
2377 0 129.342 13.6924 1771 138.708 1080.29 418.015
2378 0 131.34 13.4688 1769 138.298 1080.42 414.382
2379 1 73.1257 11.5965 848 139.459 1080.15 446.869
2380 0 75.2245 12.0705 908 138.997 1080.63 446.632
2381 0 78.2802 12.7874 1001 137.152 1080.79 446.551
2382 0 79.2684 13.1074 1039 134.378 1080.52 443.21
2383 0 82.173 13.1065 1077 135.415 1080.4 442.394
2384 0 85.2442 13.1622 1122 136.558 1081.1 440.629
2385 0 88.2767 12.7667 1127 136.799 1081.02 440.491
2386 0 90.1659 13.1203 1183 139.248 1080.63 439.629
2387 0 93.2282 13.172 1228 136.98 1080.23 438.617
2388 0 96.36 13.0345 1256 141.753 1080.76 437.002
2389 0 98.4689 13.4357 1323 142.431 1080.6 434.128
2390 0 102.404 13.4663 1379 138.334 1080.77 433.383
2391 0 104.352 13.6845 1428 143.369 1080.85 432.784
2392 0 107.323 13.7715 1478 135.894 1081.23 431.355
2393 0 110.368 13.6543 1507 146.257 1081.02 429.587
2394 0 112.782 13.4064 1512 144.974 1081.18 428.021
2395 0 117.708 13.6269 1604 140.875 1080.81 425.864
2396 0 120.367 13.6998 1649 142.731 1080.68 424.241
2397 0 122.529 13.8253 1694 140.239 1080.59 422.27
2398 0 128.466 13.708 1761 148.205 1080.63 419.987
2399 0 132.418 13.7519 1821 140.104 1080.93 417.744
2400 0 135.404 13.7293 1859 140.886 1081.21 416.722
2401 0 139.442 13.9055 1939 134.487 1080.85 413.812
2402 0 147.325 13.9351 2053 137.022 1081.42 411.219
2403 0 151.422 13.7761 2086 138.771 1081.3 407.942
2404 0 156.292 13.6411 2132 140.172 1081.05 405.062
2405 0 160.465 13.9781 2243 143.103 1081.26 403.167
2406 0 165.259 13.6815 2261 142.204 1081.41 399.025
2407 0 172.419 14.0588 2424 136.744 1081.32 396.085
2408 0 179.409 13.8845 2491 141.082 1081.29 391.629
2409 1 106.18 12.1021 1285 143.756 1081.06 431.337
2410 0 109.196 12.2806 1341 140.001 1080.69 427.611
2411 0 110.275 13.2034 1456 136.667 1081.05 424.568
2412 0 115.176 13.31 1533 136.569 1081.03 425.333
2413 0 118.247 13.3787 1582 130.074 1080.82 421.94
2414 0 122.276 13.4204 1641 132.439 1081.26 419.58
2415 0 126.357 13.628 1722 129.613 1080.9 416.466
2416 0 130.154 13.2919 1730 139.192 1080.94 414.986
2417 0 135.236 13.628 1843 127.711 1080.82 412.818
2418 0 140.144 13.529 1896 134.753 1081.11 412.101
2419 0 145.248 13.3496 1939 136.993 1081.34 408.825
2420 0 151.273 13.6508 2065 137.159 1081.54 406.792
2421 0 155.272 14.0335 2179 135.296 1081.83 406.801
2422 0 158.256 13.9142 2202 129.423 1082.94 405.461
2423 0 164.225 14.0904 2314 132.623 1082.96 403.557
2424 0 167.148 14.2927 2389 136.46 1082.99 400.572
2425 0 173.408 14.1516 2454 138.922 1083.01 397.582
2426 0 178.253 14.2045 2532 133.586 1083.24 394.854
2427 0 184.319 14.3175 2639 146.746 1083.44 392.028
2428 0 190.496 14.0265 2672 140.488 1083.02 388.291
2429 0 199.671 14.3987 2875 145.237 1083.14 383.519
2430 0 198.559 13.8145 2743 146.165 1083.02 383.843
2431 1 51.133 10.5998 542 120.343 1081.93 459.29
2432 1 18.0076 7.99661 144 113.333 1083.57 475.09
2433 0 16.0027 8.12365 130 118.1 1084.27 474.392
2434 0 17.0043 8.52724 145 117.772 1083.22 473.959
2435 0 17.0102 7.40733 126 113.04 1083.13 475.365
2436 0 13.0374 7.51686 98 106.714 1082.53 476.612
2437 1 59.2203 11.8709 703 132.151 1082.89 454.853
2438 0 61.2217 12.2996 753 127.644 1083.25 454.551
2439 0 63.4317 11.8395 751 131.617 1083.06 453.94
2440 0 65.284 12.2848 802 129.317 1083.07 452.978
2441 0 66.421 12.5111 831 128.866 1083.31 452.076
2442 0 66.5743 12.993 865 133.615 1083.61 450.68
2443 0 70.3733 12.32 867 133.807 1083.21 449.314
2444 0 71.3663 12.625 901 132.229 1083.68 448.454
2445 0 74.3613 12.8292 954 131.71 1083.64 446.269
2446 0 77.2782 12.4744 964 142.463 1082.65 445.234
2447 0 78.4418 12.5061 981 144.812 1082.93 444.886
2448 0 81.3781 12.8659 1047 146.008 1082.99 442.854
2449 0 85.4358 12.6177 1078 140.918 1082.7 442.645
2450 0 88.4123 12.9054 1141 141.129 1082.48 439.486
2451 0 91.5967 14.4765 1326 138.214 1082.74 436.278
2452 0 91.4095 12.9746 1186 146.471 1082.54 437.523
2453 0 89.3592 11.7056 1046 148.132 1082.51 438.274
2454 0 90.7391 11.7039 1062 140.115 1082.43 437.056
2455 0 91.616 11.9957 1099 138.811 1082.67 436.657
2456 0 91.532 11.7336 1074 141.623 1083.27 436.845
2457 1 59.4276 10.1131 601 134.278 1083.04 455.261
2458 0 62.1806 10.8876 677 135.176 1082.83 452.629
2459 0 64.2078 11.8521 761 122.549 1082.12 453.486
2460 0 65.2145 12.0679 787 133.731 1081.92 452.982
2461 0 67.138 12.452 836 134.2 1081.21 452.282
2462 0 70.0322 12.6085 883 130.366 1081.05 452.323
2463 1 13.005 12.1492 158 97.5633 1082.68 478.544
2464 0 13.015 12.2167 159 97.6792 1083.68 478.874
2465 0 58.1367 14.3283 833 126.269 1080.9 443.923
2466 0 76.2067 13.2272 1008 132.546 1081.45 418.498
2467 0 79.2584 12.8819 1021 133.921 1081.25 419.715
2468 0 80.576 13.3042 1072 131.784 1081.28 424.279
2469 0 83.2636 13.3191 1109 136.858 1080.93 421.785
2470 0 86.3961 12.6973 1097 133.797 1080.76 421.458
2471 0 87.2743 13.2685 1158 138.411 1080.71 420.958
2472 0 91.2379 13.0538 1191 138.495 1080.76 421.333
2473 0 92.2883 13.3278 1230 133.405 1080.79 422.086
2474 0 94.2605 13.3884 1262 135.872 1080.6 420.897
2475 0 95.5578 13.3322 1274 141.348 1080.61 420.035
2476 0 99.4252 13.5278 1345 140.114 1080.06 419.99
2477 0 101.245 13.5414 1371 138.559 1080.23 418.632
2478 0 104.295 13.3851 1396 139.443 1079.88 418.24
2479 0 105.555 13.3959 1414 144.476 1080.49 419.31
2480 0 109.324 13.9859 1529 135.712 1080.33 418.264
2481 0 112.12 13.7264 1539 144.841 1080.62 419.212
2482 0 115.4 13.7088 1582 142.095 1080.63 420.768
2483 0 120.434 13.4762 1623 145.144 1080.7 420.888
2484 0 123.395 13.785 1701 143.821 1081.26 423.56
2485 0 126.37 13.8403 1749 144.443 1081.39 424.852
2486 1 75.2737 11.7172 882 140.776 1081.27 453.982
2487 0 76.2239 12.6732 966 139.239 1081.76 451.195
2488 0 77.2845 12.991 1004 138.855 1081.55 449.271
2489 0 81.3154 12.8635 1046 141.237 1081.61 448.001
2490 0 84.1471 12.8466 1081 147.814 1081.43 446.453
2491 0 86.2169 13.1065 1130 142.057 1081.48 442.801
2492 0 89.263 13.1858 1177 139.382 1081.78 443.378
2493 0 93.3156 12.806 1195 137.465 1081.63 441.031
2494 0 94.472 13.1362 1241 136.616 1081.49 440.522
2495 0 98.4638 12.9185 1272 138.296 1082.31 439.669
2496 0 102.333 12.9479 1325 140.901 1082.42 438.027
2497 0 103.291 13.4958 1394 138.113 1082.74 435.967
2498 0 105.374 13.4189 1414 135.999 1082.38 434.864
2499 0 110.371 13.5815 1499 135.376 1082.68 432.83
2500 0 113.302 13.3096 1508 136.462 1082.41 431.216
2501 0 116.431 13.6217 1586 135.843 1082.37 429.053
2502 0 119.317 13.1918 1574 135.301 1081.98 427.284
2503 0 123.376 13.471 1662 132.064 1081.93 424.182
2504 0 127.274 13.6241 1734 131.413 1081.61 422.972
2505 0 130.415 13.6717 1783 136.311 1082.27 419.589
2506 0 135.218 13.4302 1816 137.802 1082.33 418.158
2507 1 77.4056 11.3687 880 134.6 1082.18 446.836
2508 0 79.1938 11.8191 936 132.887 1082.27 445.876
2509 0 82.4045 12.0989 997 134.986 1082.13 444.095
2510 0 83.3131 13.0472 1087 134.068 1082.83 441.893
2511 0 86.1164 12.9824 1118 133.77 1083.36 441.153
2512 0 90.2219 13.234 1194 132.44 1083.19 439.524
2513 0 90.3571 13.17 1190 134.339 1083.08 439.087
2514 0 95.2651 13.1318 1251 132.099 1082.62 437.055
2515 0 97.4231 13.0462 1271 134.885 1081.76 433.61
2516 0 102.328 13.2514 1356 129.313 1082.83 431.364
2517 0 103.119 13.2274 1364 135.65 1082.79 430.845
2518 0 107.304 13.0843 1404 119.795 1082.77 427.928
2519 0 111.216 13.8739 1543 128.369 1082.65 425.395
2520 0 114.341 13.2237 1512 130.849 1082.97 425.477
2521 0 115.376 13.4777 1555 131.354 1082.91 424.515
2522 0 120.422 13.6686 1646 128.818 1083.39 422.168
2523 0 122.379 13.6135 1666 133.601 1083.42 420.987
2524 0 127.328 13.8383 1762 129.169 1083.45 419.671
2525 0 132.279 14.8928 1970 121.514 1083.78 414.481
2526 0 135.301 14.0427 1900 122.867 1083.73 414.008
2527 0 141.346 14.1002 1993 127.386 1083.61 414.683
2528 0 145.206 14.297 2076 129.07 1083.62 411.268
2529 1 81.1329 12.6582 1027 134.534 1083.91 443.557
2530 0 83.2323 13.0478 1086 134.036 1083.54 441.835
2531 0 88.1445 13.1375 1158 133.474 1083.56 439.633
2532 0 90.3287 13.3402 1205 136.511 1083.41 438.276
2533 0 93.1455 12.6361 1177 133.615 1083.33 435.491
2534 0 96.1822 12.4555 1198 135.774 1083.48 433.083
2535 0 98.2619 12.8025 1258 139.014 1083.28 431.062
2536 0 100.218 12.7722 1280 136.821 1083.61 430.988
2537 0 104.159 13.0762 1362 136.822 1083.69 428.513
2538 0 109.156 13.522 1476 137.76 1083.73 426.402
2539 0 111.193 13.3642 1486 138.178 1083.1 423.002
2540 0 114.232 13.6915 1564 140.886 1083.46 423.091
2541 0 118.302 13.6177 1611 134.436 1083.55 421.36
2542 0 121.373 13.8169 1677 139.267 1083.77 420.342
2543 0 124.322 13.465 1674 135.595 1083.42 418.481
2544 0 130.277 13.241 1725 141.439 1083.38 415.805
2545 0 135.272 13.6836 1851 139.361 1082.74 413.39
2546 0 139.297 13.9486 1943 135.976 1082.67 411.615
2547 0 144.341 13.6413 1969 134.046 1082.82 409.536
2548 0 148.29 13.9523 2069 133.019 1082.91 407.75
2549 1 83.1061 12.2494 1018 134.904 1082.71 440.386
2550 0 86.11 12.6118 1086 134.217 1082.82 439.406
2551 0 88.0919 12.6913 1118 133.401 1083.32 436.326
2552 0 92.4318 12.7986 1183 127.124 1084.06 435.462
2553 0 95.4162 13.3101 1270 132.441 1083.66 434.876
2554 0 99.2741 14.3844 1428 129.069 1083.91 431.872
2555 0 101.303 12.892 1306 131.063 1084.07 432.345
2556 0 103.318 13.3762 1382 134.259 1083.37 430.834
2557 0 108.233 12.9535 1402 128.204 1083.69 429.03
2558 0 111.237 13.0981 1457 136.286 1083.77 426.577
2559 0 115.476 13.6825 1580 128.202 1083.65 424.83
2560 0 117.339 13.167 1545 132.419 1083.94 423.258
2561 0 119.309 13.3352 1591 134.492 1083.99 421.807
2562 0 125.393 12.8077 1606 134.747 1083.2 418.865
2563 0 131.445 12.994 1708 132.807 1083.79 415.673
2564 0 134.363 13.4263 1804 129.65 1084.02 413.034
2565 1 77.1893 11.6597 900 130.107 1083.48 442.387
2566 0 82.1846 11.8392 973 130.965 1083.5 441.681
2567 0 84.1437 12.2885 1034 128.849 1083.52 438.931
2568 0 85.2106 12.9092 1100 128.073 1082.22 437.887
2569 0 89.3162 12.6293 1128 125.316 1082.94 436.627
2570 0 92.2717 12.4524 1149 123.817 1082.36 434.131
2571 0 95.2172 12.8443 1223 115.087 1082.65 433.3
2572 0 98.1607 12.8055 1257 121.823 1082.45 430.711
2573 0 102.267 12.4771 1276 125.597 1082.53 427.229
2574 0 103.226 12.5162 1292 123.351 1083.27 426.111
2575 0 107.285 12.7791 1371 127.889 1083.04 423.112
2576 0 111.294 12.6152 1404 124.839 1083.27 421.108
2577 0 114.305 13.6565 1561 123.664 1083.12 421.205
2578 0 115.511 12.9598 1497 136.061 1083.15 420.687
2579 0 121.398 12.875 1563 137.082 1083.09 417.829
2580 1 65.2989 11.1334 727 127.116 1083.74 443.186
2581 0 66.1426 12.1707 805 135.584 1084.26 444.878
2582 0 70.1916 12.124 851 128.165 1083.2 444.207
2583 0 71.2518 12.112 863 126.809 1082.85 443.258
2584 0 73.2691 12.6656 928 128.679 1083.09 442.918
2585 0 77.417 12.2841 951 128.167 1083.78 441.103
2586 0 79.2048 12.1079 959 131.334 1083.38 439.572
2587 0 82.2735 12.5071 1029 128.33 1082.89 438.414
2588 0 85.1946 12.5947 1073 125.165 1082.65 438.598
2589 0 88.3561 12.4157 1097 126.902 1082.52 436.441
2590 0 89.3316 12.7055 1135 126.35 1082.9 435.556
2591 0 91.2422 12.5161 1142 132.355 1083.1 433.947
2592 0 95.4137 12.7235 1214 131.785 1083.7 432.19
2593 0 99.2242 12.8295 1273 129.558 1083.5 431.085
2594 0 103.18 12.7931 1320 130.233 1083.24 428.796
2595 0 106.575 12.6671 1350 125.157 1084.03 427.981
2596 0 106.293 13.03 1385 124.864 1083.64 426.725
2597 0 109.223 13.6967 1496 124.547 1083.32 424.951
2598 0 112.268 13.1828 1480 128.249 1083.19 424.07
2599 0 116.334 13.169 1532 121.012 1083.57 423.514
2600 0 120.533 13.0504 1573 123.524 1083.83 421.88
2601 0 121.299 13.4049 1626 124.465 1083.02 420.174
2602 0 126.433 13.0108 1645 129.516 1082.71 417.919
2603 0 130.39 13.2679 1730 120.907 1083.13 415.743
2604 0 133.285 13.5874 1811 123.922 1083.27 413.83
2605 0 138.505 13.3497 1849 121.796 1082.63 412.316
2606 0 143.469 13.4872 1935 119.435 1082.82 410.245
2607 0 147.47 13.3044 1962 119.303 1082.49 408.792
2608 0 152.633 13.4702 2056 122.683 1082.49 405.455
2609 0 157.392 13.9016 2188 121.333 1082.46 404.263
2610 0 162.254 13.8363 2245 119.391 1082.43 401.14
2611 0 165.427 13.9397 2306 122.61 1082.93 398.266
2612 0 173.43 13.7116 2378 116.99 1082.65 396.995
2613 0 176.393 14.513 2560 119.436 1082.43 392.425
2614 0 183.335 14.2199 2607 122.04 1082.3 391.06
2615 0 189.464 13.9287 2639 128.426 1082.27 387.724
2616 0 197.628 14.6892 2903 128.945 1082.59 383.111
2617 0 202.574 13.8616 2808 129.608 1082.16 381.908
2618 0 207.738 14.3642 2984 130.244 1082.11 379.28
2619 0 215.755 13.761 2969 127.461 1082.04 376.846
2620 0 221.606 14.1196 3129 134.647 1082.82 372.944
2621 1 175.4 13.2383 2322 135.327 1082.17 396.664
2622 0 180.513 13.7829 2488 133.1 1082.33 393.007
2623 0 185.52 13.9176 2582 143.036 1082.5 390.068
2624 0 192.442 14.0094 2696 141.618 1082.01 385.55
2625 0 199.41 14.0214 2796 141.934 1081.96 383.043
2626 0 207.448 13.507 2802 141.915 1082.18 380.115
2627 0 213.72 14.2055 3036 140.699 1082.44 377.262
2628 0 221.742 13.9351 3090 133.459 1082.27 372.427
2629 0 228.665 13.9855 3198 134.835 1082.14 367.171
2630 0 236.728 14.1639 3353 142.359 1081.37 363.684
2631 0 243.812 13.7975 3364 144.5 1081.93 360.508
2632 0 251.705 13.9966 3523 142.131 1082.25 354.632
2633 1 67.2369 11.8982 800 127.708 1080.86 446.182
2634 0 72.2179 12.1853 880 128.843 1080.71 446.801
2635 0 74.3536 12.8978 959 134.299 1081.67 448.364
2636 0 77.2184 12.3287 952 130.166 1081.97 447.9
2637 0 79.5213 12.4872 993 133.589 1081.6 445.686
2638 0 81.3412 12.4906 1016 130.767 1082.28 444.474
2639 0 84.5773 12.592 1065 128.262 1081.65 442.466
2640 0 87.3901 12.8047 1119 126.798 1081.3 441.127
2641 0 89.3875 12.2388 1094 136.242 1081.1 439.373
2642 0 91.3774 12.3991 1133 134.309 1080.83 437.818
2643 0 95.5188 12.1023 1156 137.631 1080.74 436.194
2644 0 98.6849 12.1498 1199 136.721 1080.87 433.957
2645 0 102.611 12.601 1293 139.732 1080.86 430.875
2646 0 104.739 12.5646 1316 140.394 1080.33 429.039
2647 0 108.528 12.992 1410 133.184 1080.52 428.289
2648 0 110.642 12.7077 1406 137.147 1080.88 428.134
2649 0 113.736 13.5049 1536 137.23 1080.93 425.594
2650 0 121.478 16.431 1996 119.97 1081.32 419.177
2651 0 119.68 14.1126 1689 130.683 1081.67 421.673
2652 0 123.22 13.2933 1638 134.803 1081.62 421.928
2653 0 127.678 13.6907 1748 133.363 1081.92 420.884
2654 0 131.576 13.3079 1751 136.241 1081.72 419.368
2655 0 134.49 13.3393 1794 136.525 1081.97 418.57
2656 0 136.404 13.5919 1854 140.777 1082.38 416.896
2657 0 140.341 13.346 1873 140.438 1082.36 415.003
2658 0 143.52 13.4267 1927 133.511 1082.53 414.169
2659 0 148.627 14.0149 2083 136.748 1081.72 411.168
2660 0 149.595 13.7705 2060 139.99 1081.39 410.64
2661 0 154.259 14.0802 2172 141.583 1081.29 408.831
2662 0 158.682 14.0659 2232 137.075 1081.67 406.664
2663 0 165.387 13.9129 2301 143.201 1081.55 403.625
2664 0 171.517 14.261 2446 139.954 1081.79 399.087
2665 0 176.427 14.686 2591 143.446 1081.34 396.015
2666 0 180.557 15.1753 2740 138.439 1081.44 391.611
2667 0 185.498 14.2589 2645 143.34 1081.45 390.64
2668 0 193.516 14.7792 2860 138.519 1081.86 387.337
2669 1 31.1028 8.84165 275 132.367 1082.69 468.418
2670 0 33.0577 8.95405 296 118.051 1082.79 467.166
2671 0 35.204 9.48756 334 113.473 1082.57 467.734
2672 0 34.1281 9.78666 334 121.922 1082.49 466.686
2673 0 35.0076 10.3121 361 120.449 1082.3 466.501
2674 0 36.0244 10.2986 371 122.846 1082.2 467.9
2675 0 37.0791 10.2753 381 124.21 1082.17 467.055
2676 0 37.0089 10.3218 382 125.914 1082.45 466.955
2677 0 38.0207 10.1787 387 124.24 1082.24 466.38
2678 0 37.0396 10.3673 384 126.846 1082.01 466.557
2679 0 39.021 10.0971 394 128.066 1081.73 466.18
2680 0 40.0049 9.82379 393 125.898 1081.66 465.644
2681 0 40.0377 9.74082 390 123.89 1081.69 464.518
2682 0 42.0828 9.81399 413 124.666 1081.45 465.015
2683 0 40.0423 9.63979 386 118.806 1081.71 464.153
2684 0 42.0158 9.99623 420 124.714 1081.55 463.695
2685 0 43.0371 9.94491 428 123.981 1082.8 464.867
2686 0 43.0528 10.2665 442 125.081 1082.31 463.38
2687 0 43.0417 10.5247 453 125.967 1081.43 462.607
2688 0 44.0678 10.7335 473 118.696 1082.03 462.983
2689 0 44.0639 10.3259 455 118.352 1081.95 463.609
2690 0 44.0668 10.1437 447 123.772 1082.3 462.289
2691 0 46.1264 10.1677 469 115.714 1082.69 462.023
2692 0 47.0479 10.1173 476 120.574 1082.7 461.908
2693 0 47.0723 9.9634 469 119.667 1082.43 461.97
2694 0 48.0824 9.96206 479 123.413 1081.91 461.056
2695 1 37.1625 8.18028 304 123.658 1081.48 466.977
2696 0 36.1045 8.97395 324 120.917 1081.07 466.025
2697 0 38.0666 9.61473 366 115.481 1081.84 467.713
2698 0 39.164 10.2901 403 114.231 1081.63 467.367
2699 0 37.3511 9.98632 373 114.365 1081.47 467.737
2700 0 37.255 10.0926 376 113.75 1081.16 468.25
2701 0 37.3127 10.2914 384 114.617 1081.7 468.529
2702 0 38.2771 10.5807 405 109.583 1081.78 468.474
2703 0 38.2377 10.4347 399 118.622 1081.8 468.88
2704 0 38.119 10.8345 413 112.639 1082.19 469.14
2705 0 39.1464 10.3969 407 118.541 1081.84 468.894
2706 0 39.1429 10.7555 421 116.888 1081.49 467.518
2707 0 40.2676 11.1007 447 119.51 1081.71 467.848
2708 0 41.1738 10.8078 445 125.025 1081.56 468.36
2709 0 40.3672 11.1477 450 122.373 1081.48 467.931
2710 0 43.1331 12.0093 518 115.471 1081.78 466.336
2711 0 39.3502 11.9695 471 125.223 1081.75 465.055
2712 0 41.1611 11.4185 470 125.034 1081.83 465.966
2713 0 41.2513 11.2239 463 131.222 1081.7 466.942
2714 0 42.2636 11.6176 491 130.513 1081.41 467.809
2715 0 41.2117 11.6472 480 126.654 1081.67 467.652
2716 0 40.1307 11.637 467 126.76 1081.69 468.009
2717 0 38.2615 11.4737 439 127.116 1081.79 468.212
2718 0 48.6148 14.7692 718 105.837 1080.94 464.572
2719 0 49.2577 15.226 750 103.432 1080.88 464.151
2720 0 48.568 14.2893 694 107.677 1081.35 464.837
2721 0 49.2807 14.7928 729 102.333 1081.02 464.476
2722 0 41.3473 18.5986 769 100.723 1082.42 463.88
2723 0 42.2635 19.4021 820 97.0793 1082.18 463.567
2724 0 41.1298 18.1863 748 108.031 1081.78 463.984
2725 1 127.534 5.48091 699 68.103 1081.63 447.904
2726 0 127.498 5.38831 687 120.705 1081.7 446.951
2727 0 126.374 5.42043 685 121.622 1081.95 447.442
2728 0 122.394 5.69471 697 123.822 1081.1 446.535
2729 0 122.512 5.96678 731 121.016 1081.24 446.412
2730 0 121.465 5.81236 706 125.322 1081.97 447.337
2731 0 119.477 6.05136 723 121.487 1081.57 446.79
2732 0 118.453 5.97707 708 120.744 1081.69 450.254
2733 0 116.595 6.37246 743 125.869 1081.98 446.871
2734 0 115.623 6.28769 727 118.161 1081.5 447.158
2735 0 113.605 6.4962 738 121.702 1082.06 445.967
2736 0 111.473 6.55761 731 127.528 1081.58 447.659
2737 0 107.339 7.10832 763 127.132 1081.66 447.552
2738 0 106.648 7.07933 755 126.424 1081.46 449.072
2739 0 103.559 7.12637 738 129.527 1081.23 450.07
2740 0 104.332 7.55279 788 126.527 1080.88 447.723
2741 0 103.487 7.29559 755 121.16 1080.73 449.556
2742 0 99.3111 7.48154 743 132.779 1081.03 449.848
2743 0 97.3991 7.66948 747 137.23 1080.54 449.897
2744 0 94.4249 8.16522 771 134.376 1081.21 448.623
2745 0 93.2268 8.42032 785 133.687 1080.36 450.248
2746 0 91.3888 8.74287 799 136.404 1080.56 449.911
2747 0 87.5237 8.59196 752 140.71 1081.29 452.775
2748 0 84.5192 9.29966 786 136.504 1081.41 451.873
2749 1 49.3562 14.0003 691 130.418 1081.16 462.632
2750 0 47.1708 12.8681 607 135.906 1080.65 464.01
2751 0 47.1234 12.3718 583 142.592 1080.55 464.943
2752 0 46.1403 12.8304 592 141.51 1080.68 464.932
2753 0 46.2006 12.7488 589 142.803 1080.92 465.39
2754 0 46.3319 12.8421 595 144.731 1080.96 465.802
2755 0 48.2892 13.1706 636 133.962 1080.93 464.203
2756 0 48.1613 12.7073 612 144.131 1080.7 464.755
2757 0 48.2928 12.4035 599 144.159 1081.2 464.93
2758 0 47.2244 12.7265 601 145.371 1081.12 465.055
2759 0 48.2192 12.9409 624 137.554 1081.09 464.298
2760 0 48.1539 14.7029 708 127.045 1081.01 462.196
2761 0 49.1888 15.3287 754 125.09 1081.45 462.279
2762 0 50.2992 15.209 765 120.076 1080.94 461.116
2763 0 50.2414 14.2114 714 126.032 1080.99 461.964
2764 0 49.1635 13.2009 649 133.413 1081.28 462.619
2765 0 48.1717 12.58 606 141.054 1081.25 463.508
2766 0 48.127 12.7995 616 142.209 1081.41 463.687
2767 0 47.1678 12.9538 611 146.219 1080.97 463.332
2768 0 48.29 12.7149 614 142.622 1081.37 463.772
2769 0 47.1445 12.9177 609 143.741 1081.54 463.287
2770 0 45.287 12.8514 582 141.369 1081.35 461.909
2771 0 48.217 12.7134 613 145.259 1082.06 462.222
2772 0 48.2747 12.5946 608 146.5 1082.3 462.237
2773 0 48.2884 12.7981 618 140.155 1081.74 462.104
2774 0 47.5066 13.2403 629 142.099 1081.93 461.523
2775 0 48.3226 13.0167 629 144.523 1081.48 462.407
2776 0 48.2307 12.378 597 146.101 1082.13 462.28
2777 0 49.1015 12.3621 607 143.171 1082.68 462.191
2778 0 49.1765 12.7297 626 146.134 1083.08 462.24
2779 0 49.2951 12.9019 636 140.247 1083.13 461.895
2780 0 49.2034 12.9869 639 138.271 1082.59 461.228
2781 0 49.1527 12.8579 632 146.465 1082.22 460.665
2782 0 49.2905 13.3494 658 141.065 1082.62 460.508
2783 0 48.2918 14.2881 690 137.73 1082.75 458.361
2784 0 48.1392 14.7073 708 128.105 1083.41 440.742
2785 0 47.1226 14.8973 702 122.346 1082.98 440.437
2786 0 48.0342 14.9269 717 125.766 1083.41 441.847
2787 0 48.0889 14.5356 699 123.207 1082.16 443.89
2788 0 48.1053 14.7593 710 127.954 1082.76 442.735
2789 0 48.0743 14.332 689 125.956 1081.95 441.852
2790 0 49.1379 14.5102 713 123.714 1083.16 445.628
2791 0 49.0813 14.7918 726 125.262 1083.11 445.399
2792 0 46.0618 14.0464 647 133.09 1084.37 445.227
2793 0 44.0616 14.3436 632 142.627 1084.2 445.805
2794 0 45.0574 14.1597 638 138.555 1084.2 445.433
2795 0 46.0307 14.0558 647 142.389 1084.37 444.705
2796 0 46.027 14.3829 662 135.464 1084.29 444.56
2797 0 45.1116 14.2092 641 143.028 1084.71 444.133
