index division length width area intensity CMx CMy
0 0 70.0526 14.2036 995 169.225 1266.32 499.096
1 0 72.191 14.4062 1040 174.715 1266.8 498.158
2 0 73.0632 14.3164 1046 158.593 1266.97 495.143
3 0 77.2594 14.5484 1124 170.98 1266.5 492.735
4 0 80.2146 14.7355 1182 172.401 1265.7 490.256
5 0 81.0641 14.8401 1203 171.155 1265.62 489.225
6 0 86.1617 14.7049 1267 165.515 1265.03 486.177
7 0 90.1627 14.4295 1301 171.297 1264.16 485.247
8 0 91.2782 14.6804 1340 173.135 1264.94 484.124
9 0 94.1402 14.8396 1397 173.974 1265.29 482.287
10 0 99.169 14.3997 1428 173.721 1265.07 480.237
11 0 103.099 14.4812 1493 168.468 1265.66 479.23
12 0 108.101 14.2738 1543 170.381 1265.99 476.182
13 0 111.276 14.5854 1623 170.508 1266.93 473.714
14 0 116.25 14.6753 1706 163.184 1267.69 471.672
15 0 120.188 14.5522 1749 174.026 1268.51 468.981
16 1 64.0629 13.9863 896 175.656 1268.52 495.559
17 0 66.1482 14.3919 952 170.721 1271.21 493.914
18 0 68.0533 14.2682 971 178.137 1271.73 493.4
19 0 71.1171 14.2582 1014 169.67 1272.5 490.608
20 0 74.1555 13.9976 1038 176.104 1272.86 487.956
21 0 77.137 13.677 1055 172.812 1273.02 487.658
22 0 79.087 14.2628 1128 168.214 1273.8 485.852
23 0 81.094 14.2551 1156 172.206 1274.14 483.533
24 0 85.1848 13.7466 1171 156.919 1274.79 482.49
25 0 86.2022 14.234 1227 168.896 1274.8 481.411
26 0 91.2445 13.9734 1275 167.56 1274.86 480.014
27 0 95.1861 13.5209 1287 172.499 1275.43 478.293
28 1 49.1438 12.616 620 164.969 1275.1 500.777
29 0 52.1439 12.8874 672 171.414 1275.39 500.018
30 0 54.092 12.9779 702 104.356 1275.38 499.395
31 0 56.075 12.9826 728 161.022 1274.77 498.808
32 0 58.1361 12.8664 748 159.675 1274.12 497.376
33 0 59.1603 12.9479 766 164.718 1273.58 495.692
34 0 63.0668 13.0497 823 157.458 1272.91 494.834
35 0 65.1724 13.4413 876 153.348 1272.48 493.588
36 0 68.087 13.0862 891 152.376 1271.86 491.864
37 0 70.1114 13.3217 934 150.431 1271.31 490.487
38 0 72.0671 13.5291 975 157.929 1271.18 489.262
39 0 74.09 13.4026 993 151.024 1270.65 487.084
40 0 77.1011 12.8532 991 147.574 1269.87 485.451
41 0 80.0854 13.0735 1047 148.277 1269.27 483.668
42 0 83.0839 13.372 1111 150.95 1268.58 482.806
43 0 85.0435 13.0992 1114 155.171 1268.74 481.844
44 0 89.094 13.1434 1171 155.219 1269.07 479.808
45 0 91.2004 13.5416 1235 154.943 1268.7 478.799
46 0 95.1304 13.3501 1270 158.92 1269.68 476.677
47 1 47.0893 11.8711 559 155.968 1268.83 500.131
48 0 51.0504 11.5964 592 158.895 1268.41 499.62
49 0 51.0241 12.4255 634 159.375 1268.18 498.286
50 0 51.1575 13.0968 670 155.552 1268.69 498.045
51 0 55.052 12.3883 682 152.714 1268.96 496.977
52 0 57.2099 12.1482 695 159.971 1269.26 497.732
53 0 59.1817 13.0277 771 154.794 1269.25 494.778
54 0 62.1295 13.0051 808 156.853 1269.4 494.369
55 0 63.117 13.2928 839 162.026 1270.27 493.512
56 0 66.5476 13.2386 881 166.97 1270.18 491.997
57 0 69.3847 12.827 890 169.294 1270.32 492.652
58 0 71.1686 13.2081 940 168.615 1270.72 491.834
59 0 73.173 13.0786 957 169.454 1270.37 490.943
60 0 76.1267 13.425 1022 171.501 1270.6 489.048
61 0 77.343 13.3302 1031 169.641 1271.37 487.973
62 0 81.3051 13.3079 1082 170.233 1271.68 485.788
63 0 85.318 13.2328 1129 173.285 1271.73 483.401
64 0 86.1538 13.2089 1138 159.496 1271.77 482.039
65 0 90.2048 13.6246 1229 169.219 1271.86 480.909
66 0 93.4044 13.115 1225 166.037 1272.47 479.531
67 0 96.2356 13.6644 1315 166.674 1272.24 478.323
68 0 99.2023 13.4977 1339 170.303 1272.22 476.858
69 1 50.1533 12.8606 645 168.941 1271.99 500.375
70 0 51.1487 12.5712 643 164.187 1272.29 500.526
71 0 52.1022 12.4563 649 167.872 1272.83 500.2
72 0 54.1338 12.3213 667 166.576 1272.61 499.852
73 0 57.2451 12.4552 713 166.92 1272.2 497.726
74 0 58.0698 12.7777 742 169.686 1272.14 496.325
75 0 60.1514 12.8675 774 165.384 1273.05 494.934
76 0 60.1514 12.8675 774 170.311 1274.05 494.934
77 0 65.0922 12.8587 837 163.56 1272.28 492.768
78 0 66.1297 13.1862 872 160.805 1271.72 491.854
79 0 67.1537 13.0745 878 170.376 1271.61 490.957
80 0 71.1369 13.1858 938 163.897 1271.43 490.751
81 0 72.2295 13.1525 950 160.571 1271.05 489.034
82 0 75.2683 13.1928 993 170.556 1270.69 487.02
83 0 78.0998 13.4828 1053 158.158 1270.7 485.889
84 0 79.0775 13.7713 1089 166.318 1270.41 485.374
85 0 83.2012 13.257 1103 165.146 1270.63 483.26
86 0 85.2341 13.5392 1154 170.639 1270.6 482.711
87 0 88.3254 13.3823 1182 169.094 1270.08 480.923
88 0 91.1616 13.1634 1200 169.383 1269.53 480.071
89 1 46.032 12.4044 571 169.462 1268.7 501.138
90 0 47.0975 12.1875 574 168.589 1269.29 501.93
91 0 47.119 12.67 597 168.7 1269.41 501.214
92 0 50.1536 12.0629 605 167.745 1267.77 500.306
93 0 52.1883 12.3591 645 163.133 1268.6 499.405
94 0 51.1737 12.5651 643 169.317 1269.04 499.042
95 0 54.12 12.269 664 169.241 1269.7 499.268
96 0 56.1775 12.6029 708 157.999 1269.59 497.267
97 0 57.1178 12.5355 716 166.318 1269.46 497.309
98 0 59.2307 12.8312 760 163.146 1269.24 496.107
99 0 62.1624 12.4673 775 164.684 1269.78 496.237
100 0 62.2607 12.6243 786 161.823 1269.61 494.665
101 0 66.1822 12.3447 817 154.863 1269.87 494.066
102 0 70.2773 12.5361 881 159.114 1269.59 492.602
103 0 69.1838 12.2572 848 155.054 1269.8 492.264
104 0 72.2357 12.4454 899 151.006 1270.18 490.034
105 0 75.2033 12.5128 941 157.681 1270.13 488.818
106 0 76.2033 12.3748 943 163.239 1270.17 489.404
107 0 79.1847 12.7929 1013 157.646 1270.76 487.415
108 0 82.1368 12.7592 1048 164.124 1270.47 485.375
109 0 85.2609 12.9602 1105 160.674 1270.53 484.457
110 0 87.3921 12.9417 1131 152.126 1270.94 482.475
111 0 90.2854 13.0475 1178 149.808 1271.03 480.598
112 0 93.1962 12.8439 1197 154.688 1270.5 479.829
113 1 49.1156 11.4424 562 157.998 1270.53 501.56
114 0 50.0603 11.8257 592 158.819 1269.91 500.069
115 0 51.1848 12.0934 619 162.829 1269.46 498.876
116 0 51.1125 12.5018 639 155.844 1269.92 498.674
117 0 55.1566 12.2379 675 161.483 1269.73 498.145
118 0 55.1941 12.2296 675 159.967 1270.06 498.301
119 0 57.1249 12.3764 707 157.959 1270.25 496.697
120 0 61.1433 12.348 755 161.343 1270.28 494.748
121 0 63.1992 12.5634 794 157.322 1270.92 493.961
122 0 64.1164 12.2745 787 161.968 1271.11 493.269
123 0 68.2728 12.0692 824 155.53 1271.38 491.972
124 0 69.111 12.5306 866 152.158 1271.2 490.984
125 0 73.3825 12.4553 914 155.99 1272.01 489.019
126 1 36.0849 11.1404 402 157.376 1271.43 507.221
127 0 36.1243 11.322 409 148.78 1271.23 506.002
128 0 37.0128 10.9692 406 160.19 1271.9 505.946
129 0 39.0046 11.3576 443 157.801 1271.34 505.357
130 0 40.0595 11.3331 454 155.189 1271.21 503.936
131 0 41.0708 11.4436 470 157.117 1271.54 502.804
132 0 42.1757 11.5943 489 156.92 1271.14 503.121
133 0 43.1772 11.8813 513 152.082 1271.56 501.955
134 0 46.0876 11.3696 524 156.758 1271.48 501.532
135 0 47.1819 11.4027 538 153.572 1271.9 500.362
136 0 46.2036 11.8173 546 153.958 1272.18 500.714
137 0 49.1197 12.1743 598 151.821 1272.31 498.58
138 0 50.1427 12.1653 610 154.066 1272.57 497.73
139 0 51.1819 12.2309 626 151.534 1272.42 497.455
140 0 51.0997 12.5832 643 151.048 1272.79 496.498
141 0 55.2291 11.9321 659 157.015 1272.66 495.66
142 0 55.2343 12.2388 676 156.154 1273.3 494.72
143 0 57.2048 12.6388 723 151.292 1272.91 494.126
144 0 60.3456 12.2627 740 153.191 1273.56 493.418
145 0 62.1652 12.3381 767 152.761 1274.32 491.734
146 0 64.1167 12.758 818 146.399 1274.6 490.927
147 0 66.2473 12.8005 848 147.384 1274.17 488.933
148 0 68.1338 12.813 873 156.282 1274.27 488.598
149 0 68.1587 13.0284 888 154.327 1274.13 486.645
150 0 73.1324 12.4022 907 161.214 1274.9 485.915
151 0 74.3277 12.7409 947 154.102 1275.06 484.416
152 0 76.209 12.5313 955 157.829 1275.36 484.059
153 0 79.4189 12.667 1006 153.756 1275.2 481.79
154 0 82.335 12.7892 1053 160.915 1275.19 480.272
155 0 84.2102 12.4807 1051 164.222 1275.85 480.188
156 1 47.1192 11.5027 542 167.919 1276.28 497.472
157 0 47.0484 12.3277 580 163.967 1275.58 496.328
158 0 48.1575 12.3553 595 165.645 1276.82 496.313
159 0 50.076 11.882 595 169.671 1277.36 494.943
160 0 50.0938 12.0374 603 153.992 1275.98 494.139
161 0 53.092 12.2806 652 164.851 1276.14 493.541
162 0 54.1323 12.0076 650 155.489 1276.1 492.36
163 0 54.1256 12.6927 687 163.087 1276.34 491.758
164 0 57.1338 12.1644 695 161.889 1276.65 491.178
165 0 59.1971 12.4499 737 165.388 1276.74 490.391
166 0 59.1022 12.5376 741 163.692 1277.14 490.264
167 0 60.0836 12.9153 776 160.951 1277.37 488.744
168 0 61.103 12.9126 789 158.484 1277.71 487.29
169 0 64.1119 13.2113 847 155.648 1277.41 487.333
170 0 67.1618 12.9538 870 152.795 1276.92 484.379
171 0 69.0861 12.9693 896 157.415 1277.24 484.355
172 0 71.0515 12.6809 901 158.049 1277.38 483.049
173 0 75.1947 12.8201 964 146.245 1277.19 481.802
174 0 77.1329 12.7183 981 158.01 1276.77 480.842
175 0 78.1705 12.5367 980 152.324 1277.46 479.55
176 0 81.2904 12.3139 1001 63.4875 1276.67 478.244
177 0 84.3102 12.4896 1053 162.194 1277.26 477.275
178 1 44.1882 11.4284 505 157.614 1278.3 495.418
179 0 45.137 11.5648 522 166.251 1277.61 495.128
180 0 47.1352 12.008 566 158.125 1278.07 494.528
181 0 47.0488 12.2214 575 166.45 1278.09 493.591
182 0 49.0727 11.8396 581 162.291 1278.4 493.582
183 0 48.0633 12.7956 615 166.041 1279.38 492.372
184 0 50.041 12.5697 629 166.555 1278.99 492.215
185 0 52.061 12.5046 651 167.625 1278.74 490.72
186 0 54.067 12.2811 664 166.154 1277.47 491.021
187 0 54.044 13.1559 711 162.56 1278.39 489.439
188 0 58.1473 12.4511 724 165.041 1277.79 488.982
189 0 58.1403 12.6418 735 168.626 1277.94 487.378
190 0 61.17 12.8658 787 164.895 1278.22 487.175
191 0 62.1685 12.6431 786 170.013 1277.9 486.543
192 0 65.1907 13.0847 853 160.546 1278.2 484.302
193 0 66.1223 13.5053 893 160.363 1277.79 482.876
194 0 68.1654 13.5406 923 163.774 1277.86 481.842
195 0 71.1081 13.0927 931 169.919 1277.91 481.428
196 0 74.1602 13.0124 965 167.949 1277.46 480.57
197 0 75.23 13.1065 986 167.347 1277.4 479.58
198 0 79.0885 13.1372 1039 165.675 1276.89 477.453
199 0 81.1784 12.9468 1051 166.471 1277.31 476.643
200 1 44.0864 11.7043 516 167.05 1276.71 493.845
201 0 45.0457 12.0544 543 157.672 1276.49 492.182
202 0 46.1771 12.2139 564 166.686 1275.8 493.262
203 0 47.0805 12.553 591 162.743 1276.63 492.633
204 0 48.1627 12.2294 589 169.27 1277.15 492.368
205 0 49.0896 12.854 631 163.361 1277.45 491.756
206 0 52.12 12.9317 674 163.353 1276.81 491.135
207 0 54.0744 12.7417 689 159.254 1276.91 490.03
208 0 56.0476 12.9176 724 166.331 1276.81 489.645
209 0 58.1198 12.6291 734 162.537 1276.28 488.247
210 0 59.093 12.5395 741 166.07 1276.29 487.24
211 0 60.0988 13.3114 800 164.898 1276.89 485.735
212 0 62.188 12.6391 786 162.018 1276.89 486.062
213 0 63.0597 13.1938 832 162.246 1276.94 484.665
214 0 63.1563 13.3637 844 159.417 1276.04 483.868
215 0 68.1538 12.9853 885 160.319 1276.07 481.864
216 0 70.1217 12.7778 896 154.385 1275.91 480.482
217 0 72.1086 13.0498 941 158.008 1275.68 480.618
218 0 73.2763 13.0056 953 157.443 1275.6 479.641
219 0 77.1556 12.7664 985 157.934 1275.58 478.908
220 0 79.2348 12.7848 1013 150.121 1275.53 477.123
221 0 83.1432 13.2422 1101 158.551 1275.4 475.226
222 0 85.2785 13.2859 1133 160.578 1275.51 474.59
223 1 45.1295 11.1457 503 153.92 1275.46 495.594
224 0 47.1159 11.546 544 152.101 1275.65 494.528
225 0 47.1804 12.1025 571 154.364 1275.49 493.776
226 0 50.1115 11.6939 586 150.266 1275.61 492.985
227 0 50.0652 11.8845 595 152.311 1275.35 492.992
228 0 50.062 12.3447 618 150.872 1275.68 491.668
229 0 53.0588 12.1752 646 146.898 1275.44 490.909
230 0 56.0833 12.2496 687 152.713 1275.71 490.886
231 0 57.0889 12.0514 688 150.286 1274.98 489.501
232 0 56.0922 12.7112 713 148.415 1275.31 489.356
233 0 61.07 12.3629 755 147.224 1275.13 488.18
234 0 62.1739 11.8217 735 144.37 1275.32 487.282
235 0 63.1871 12.4234 785 147.082 1275.31 485.921
236 0 65.1481 12.7095 828 150.349 1275.45 484.237
237 0 68.1037 12.4369 847 148.705 1276.18 483.973
238 0 70.2778 12.0664 848 151.37 1275.55 482.671
239 0 70.1905 12.8365 901 149.576 1275.93 482.529
240 0 75.1276 12.6052 947 148.99 1275.86 481.948
241 0 78.143 12.4387 972 146.693 1275.49 479.465
242 0 79.2476 12.5682 996 150.098 1275.82 478.571
243 0 84.2461 12.3092 1037 149.929 1276.21 475.886
244 0 86.4375 12.7491 1102 142.444 1275.93 474.959
245 0 89.2871 12.5326 1119 151.403 1275.93 472.677
246 0 91.2315 12.4847 1139 148.316 1276.13 471.491
247 0 95.3256 12.7353 1214 142.809 1276 470.306
248 0 98.3398 12.3653 1216 150.256 1276.08 470.527
249 1 52.1109 10.8423 565 150.917 1275.82 493.616
250 0 54.1144 10.7919 584 151.786 1275.54 492.056
251 0 54.0857 11.2599 609 143.639 1275.69 491.342
252 0 57.1611 11.5463 660 152.803 1276.55 489.526
253 0 59.1729 11.6945 692 147.03 1276.59 488.854
254 0 59.1756 12.2855 727 144.545 1276.28 487.077
255 0 62.0595 11.8596 736 154.027 1276.62 486.929
256 0 64.1098 12.3226 790 152.06 1276.19 486.015
257 0 66.1021 12.3899 819 151.471 1275.54 484.177
258 0 70.0655 12.4027 869 154.491 1276.35 482.734
259 0 72.0868 12.4017 894 153.068 1276.89 480.909
260 0 74.2399 12.4731 926 153.94 1277.1 480.497
261 0 77.2348 12.4037 958 149.435 1277.82 479.133
262 0 80.2206 12.7149 1020 150.538 1278.12 477.47
263 0 81.212 13.1015 1064 149.904 1278.65 477.369
264 0 85.1961 13.287 1132 149.115 1278.22 475.369
265 0 89.4062 13.0528 1167 151.008 1278.58 472.199
266 0 91.3597 13.1677 1203 148.239 1278.88 470.908
267 0 94.3889 12.9676 1224 151.601 1279.14 468.627
268 0 98.2125 13.0737 1284 154.712 1279.08 467.255
269 0 100.203 13.4028 1343 148.296 1279.18 465.395
270 0 106.414 13.4005 1426 149.623 1279.46 464.17
271 0 109.413 13.0789 1431 150.463 1279.58 462.085
272 1 57.1506 10.7785 616 154.289 1279.96 488.153
273 0 59.2136 11.4163 676 147.864 1279.98 486.565
274 0 60.1479 12.037 724 151.768 1279.36 485.04
275 0 62.1239 12.5234 778 145.261 1279.16 485.261
276 0 65.2811 12.4692 814 152.154 1278.28 483.607
277 0 66.0699 12.6835 838 148.054 1278.25 482.618
278 0 69.1085 12.6757 876 148.442 1277.99 480.985
279 0 71.071 12.2554 871 158.75 1278.93 481.311
280 0 73.3366 12.4222 911 150.359 1278.86 479.762
281 0 76.1425 12.3059 937 148.274 1278.88 478.871
282 0 78.2277 12.8727 1007 157.214 1278.98 476.278
283 0 82.1934 12.5679 1033 156.938 1278.98 475.578
284 0 83.2122 12.5102 1041 158.143 1279.21 473.844
285 0 86.1696 12.8003 1103 158.127 1279.44 473.241
286 0 87.2298 13.0689 1140 156.761 1279.27 470.718
287 0 90.1621 12.7548 1150 155.43 1279.05 469.435
288 0 95.1634 12.694 1208 152.189 1279.29 468.759
289 0 97.3953 12.5981 1227 151.975 1279.07 466.896
290 0 98.34 12.9042 1269 151.82 1278.82 465.069
291 0 102.139 12.904 1318 152.812 1278.77 463.417
292 0 105.363 13.2969 1401 150.224 1279.59 461.295
293 0 109.273 13.0224 1423 146.415 1279.29 459.959
294 0 113.39 13.2111 1498 144.718 1279.48 457.694
295 0 118.445 13.2298 1567 148.899 1279.42 456.433
296 0 120.457 12.9507 1560 152.947 1279.53 453.969
297 0 124.198 12.9552 1609 148.454 1279.11 452.978
298 1 68.1786 11.9099 812 148.759 1278.44 480.16
299 0 70.1584 12.0299 844 147.464 1278.28 479.184
300 0 73.0842 12.2598 896 142.974 1278.63 477.764
301 0 75.2071 12.1531 914 139.686 1278.44 477.678
302 0 77.2707 11.6862 903 143.342 1277.96 477.808
303 0 80.2139 12.2672 984 143.928 1278.09 475.269
304 0 81.1335 12.5226 1016 141.92 1277.92 474.178
305 0 83.112 12.6095 1048 151.753 1278.55 473.338
306 0 87.3399 12.7891 1117 155.666 1277.52 472.414
307 0 89.2831 13.1716 1176 146.943 1277.32 469.696
308 0 92.4696 12.9664 1199 152.629 1277.31 468.204
309 0 95.2532 12.661 1206 156.503 1276.84 467.062
310 0 99.433 13.0238 1295 151.487 1276.96 465.883
311 0 101.404 12.9383 1312 154.47 1276.73 464.924
312 1 53.1361 11.1788 594 153.007 1276.84 488.614
313 0 55.1684 11.619 641 151.222 1277.46 487.195
314 0 58.0231 12.0297 698 147.218 1276.15 487.779
315 0 58.0868 12.137 705 150.27 1275.12 486.938
316 0 60.0728 11.7857 708 157.233 1275.6 486.907
317 0 62.0294 11.9782 743 150.993 1275.32 485.261
318 0 63.1297 12.5614 793 148.156 1276.39 484.6
319 0 64.1836 12.4798 801 152.506 1276.33 484.593
320 0 64.2433 12.4993 803 144.604 1276.73 482.991
321 0 69.2932 11.8049 818 146.678 1276.4 484.143
322 0 71.1333 12.4133 883 145.882 1276.56 482.224
323 0 71.2218 12.4681 888 142.902 1276.3 480.818
324 0 74.0876 12.2693 909 151.136 1276.02 479.879
325 0 77.2157 12.5752 971 148.771 1275.73 479.261
326 0 78.117 12.7117 993 152.691 1275.79 476.8
327 0 81.1918 12.6121 1024 152.632 1275.92 477.664
328 0 83.1187 12.4641 1036 154.014 1275.3 475.723
329 0 86.1303 12.7597 1099 149.246 1274.77 474.058
330 0 87.2506 13.0085 1135 146.99 1274.3 471.501
331 0 92.2782 12.7441 1176 147.446 1274.57 471.196
332 0 95.3047 12.5177 1193 152.481 1274.25 469.448
333 0 99.3617 12.5602 1248 146.424 1274.35 468.159
334 1 51.1977 10.6645 546 150.668 1274.62 491.608
335 0 55.2999 11.1031 614 148.275 1275.35 490.326
336 0 56.2507 11.7687 662 144.624 1275.45 488.875
337 0 56.228 12.3782 696 139.086 1275.62 488.249
338 0 58.0712 12.5191 727 147.33 1275.66 488.437
339 0 61.1333 12.3828 757 140.967 1275.8 487.407
340 0 64.0524 12.3649 792 146.838 1276.03 485.847
341 0 65.0623 12.8953 839 147.321 1275 485.219
342 0 67.1077 12.8748 864 140.385 1274.87 485.059
343 0 70.1122 12.7795 896 153.938 1275.57 484.338
344 0 70.1571 12.7143 892 155.186 1274.5 482.965
345 0 73.0658 12.8241 937 163.095 1274.29 482.121
346 0 75.051 12.818 962 154.927 1274.78 481.691
347 0 77.1739 13.2558 1023 158.796 1274.95 479.914
348 0 79.1196 13.1194 1038 158.825 1275.6 480.192
349 0 82.1484 12.9765 1066 154.961 1275.33 477.735
350 0 83.155 13.4688 1120 160.119 1275.75 476.562
351 0 88.1194 13.3569 1177 161.968 1275.34 474.19
352 0 89.18 13.4335 1198 159.028 1275.37 474.289
353 0 93.1426 12.9908 1210 161.356 1275.32 473.085
354 0 96.1369 13.5328 1301 157.228 1274.76 471.616
355 0 97.1724 13.3577 1298 161.106 1274.36 470.059
356 0 101.154 13.5635 1372 164.616 1274.14 468.11
357 0 100.261 13.6744 1371 156.519 1274.96 466.818
358 0 104.278 13.6653 1425 169.288 1275.28 465.531
359 0 110.311 13.5435 1494 163.784 1275.11 463.797
360 0 111.223 13.5673 1509 160.881 1275.24 463.456
361 0 115.17 13.3629 1539 157.824 1275.11 461.327
362 0 119.302 13.3861 1597 167.709 1275.1 460.053
363 0 123.246 13.826 1704 167.484 1274.81 456.341
364 0 128.249 13.5362 1736 168.008 1275.65 455.013
365 0 134.327 13.6532 1834 162.756 1275.62 453.096
366 1 69.0594 12.3951 856 164.16 1274.71 484.28
367 0 70.0797 12.0434 844 163.704 1275.41 484.483
368 0 74.1277 12.384 918 166.341 1275.73 482.519
369 0 75.0729 12.308 924 164.43 1276.73 482.062
370 0 78.1502 12.284 960 151.142 1277.23 480.901
371 0 79.0946 12.4787 987 156.658 1276.86 479.766
372 0 82.0555 12.3941 1017 163.795 1276.45 477.958
373 0 85.0731 12.4481 1059 157.432 1277 476.75
374 0 88.0971 12.5316 1104 159.72 1277.08 474.288
375 0 91.1223 12.0936 1102 156.398 1277.26 473.381
376 0 92.1719 12.672 1168 160.086 1277.44 470.825
377 0 95.0932 12.6507 1203 163.257 1277.03 470.819
378 0 98.0561 12.6152 1237 166.872 1276.99 468.596
379 0 101.126 12.6179 1276 163.483 1277.22 468.448
380 0 105.155 12.9333 1360 160.149 1277.28 464.912
381 0 107.321 12.7934 1373 167.713 1277.55 463.873
382 0 112.212 12.2981 1380 165.542 1277.59 463.491
383 0 115.276 12.5351 1445 164.042 1277.52 461.345
384 0 119.202 13.0199 1552 165.444 1276.99 458.082
385 0 123.267 12.9232 1593 167.267 1276.86 455.852
386 0 127.241 12.8811 1639 157.148 1276.89 454.132
387 0 130.268 12.8735 1677 156.946 1277.48 452.493
388 0 137.174 12.8377 1761 162.509 1277.37 449.283
389 1 78.0414 10.9942 858 164.763 1277.64 479.033
390 0 80.1607 11.6766 936 164.426 1277.12 477.464
391 0 82.1543 12.1114 995 157.84 1277.5 475.653
392 0 84.11 11.7941 992 160.493 1277 474.704
393 0 87.2148 12.2915 1072 154.607 1277.77 472.886
394 0 89.0781 12.2926 1095 164.568 1277.91 472.458
395 0 91.0481 12.7076 1157 165.248 1277.65 471.354
396 0 93.0837 12.4941 1163 159.525 1278.2 469.615
397 0 98.2278 12.7866 1256 157.685 1278 466.844
398 0 102.105 12.9082 1318 166.244 1277.88 465.3
399 0 105.074 12.6006 1324 166.515 1278.04 464.495
400 0 108.072 12.7878 1382 163.171 1277.97 462.729
401 0 112.156 13.1513 1475 164.852 1278.12 461.71
402 1 62.0586 11.1185 690 163.225 1278.12 486.013
403 0 62.0797 11.3403 704 163.688 1277.29 486.348
404 0 65.0867 11.7382 764 158.791 1277.48 483.954
405 0 66.0936 11.9376 789 152.508 1276.89 482.773
406 0 68.2416 11.811 806 158.952 1276.76 482.766
407 0 69.1108 12.2123 844 157.29 1275.74 481.184
408 0 72.0814 12.1807 878 158.809 1276.82 480.712
409 0 74.1536 12.555 931 149.594 1277.25 479.054
410 0 76.2752 12.468 951 158.883 1276.96 478.399
411 0 77.2303 12.4951 965 151.67 1277.06 476.955
412 0 79.1356 12.6618 1002 153.859 1276.64 476.759
413 0 81.3276 12.8984 1049 153.225 1276.37 474.936
414 0 84.2665 13.0657 1101 156.009 1276.12 474.566
415 0 87.3385 12.8008 1118 154.469 1275.97 471.757
416 0 89.1993 12.7916 1141 157.403 1275.78 471.071
417 0 90.4307 12.5953 1139 150.759 1275.63 470.749
418 0 94.2283 13.0216 1227 151.965 1275.55 468.319
419 0 97.3954 12.7521 1242 152.006 1275.23 466.571
420 0 100.359 12.9236 1297 146.528 1275.38 465.211
421 0 102.311 12.9507 1325 155.842 1275.53 464.627
422 0 105.403 13.0262 1373 150.194 1276.04 463.024
423 0 108.343 12.765 1383 152.753 1275.93 464.465
424 0 110.263 13.3499 1472 152.704 1275.66 461.452
425 0 114.159 12.9469 1478 151.372 1276.22 459.371
426 0 117.391 13.076 1535 153.651 1276.02 457.724
427 0 121.413 13.2935 1614 153.19 1275.36 455.856
428 0 124.206 13.5098 1678 156.243 1276.49 454.515
429 0 129.446 13.0634 1691 153.767 1274.53 452.989
430 1 71.0873 11.3241 805 149.042 1275.48 483.057
431 0 74.0954 12.214 905 147.196 1275.01 481.124
432 0 76.1438 12.24 932 146.536 1274.76 480.776
433 0 78.2357 12.3345 965 143.176 1275.22 480.319
434 0 80.2106 12.2054 979 144.365 1275.49 478.954
435 0 83.2046 12.5834 1047 140.266 1275.3 475.909
436 0 85.2068 12.4051 1057 149.697 1275.62 475.988
437 0 89.0849 12.6284 1125 135.491 1275.25 473.777
438 0 91.2116 12.3559 1127 143.54 1274.99 472.476
439 0 94.2059 12.5364 1181 144.914 1275.04 470.482
440 0 98.2951 12.6558 1244 145.694 1273.93 468.408
441 0 101.291 12.3703 1253 143.445 1274.07 467.053
442 0 104.279 12.3228 1285 145.551 1274.39 466.107
443 0 108.193 12.6348 1367 143.017 1275.42 463.703
444 1 60.2015 9.83365 592 142.159 1274.74 488.318
445 0 63.2429 9.80347 620 142.708 1274.86 488.123
446 0 65.1402 10.3469 674 133.088 1274.88 487.237
447 0 68.1424 10.346 705 142.399 1274.71 485.966
448 0 67.0913 12.0582 809 141.057 1274.23 484.677
449 0 71.2159 12.4972 890 132.928 1274.52 482.219
450 0 75.3288 12.2397 922 136.936 1275.23 479.698
451 0 76.2319 12.239 933 136.94 1275.17 479.849
452 0 78.196 12.4687 975 131.306 1275.02 479.803
453 0 81.2326 12.1749 989 138.083 1274.01 477.332
454 0 81.3326 12.369 1006 141.395 1273.88 476.782
455 0 86.1837 11.8352 1020 142.19 1274.2 477.248
456 0 90.299 12.5361 1132 139.563 1274.15 474.5
457 0 91.3598 12.6095 1152 138.574 1273.95 473.484
458 0 93.4246 12.8767 1203 136.512 1273.68 472.525
459 0 96.2961 12.9496 1247 137.339 1273.97 469.644
460 0 101.211 13.0421 1320 135.493 1273.61 467.242
461 0 103.285 12.2186 1262 135.707 1273.98 465.582
462 0 107.385 12.1805 1308 134.752 1274.47 464.972
463 0 111.292 12.6245 1405 130.747 1274.92 463.285
464 0 114.372 12.984 1485 131.461 1274.4 461.56
465 0 117.394 13.0245 1529 136.77 1274.49 460.078
466 1 62.2625 10.4557 651 137.934 1273.59 489.12
467 0 65.3284 10.8222 707 130.33 1274.37 488.163
468 0 68.0969 11.8067 804 129.45 1274.65 484.611
469 0 68.2349 12.369 844 125.276 1275.02 482.707
470 0 72.4831 12.3477 895 128.533 1274.7 481.66
471 0 73.2042 12.7452 933 134.285 1275.11 479.397
472 0 75.3973 12.4142 936 125.84 1274.88 478.906
473 0 77.2903 12.5889 973 129.452 1275.28 477.998
474 0 80.2178 12.5783 1009 131.526 1275.75 474.891
475 0 82.3517 12.4223 1023 135.38 1276.85 473.522
476 0 82.3807 12.4665 1027 133.591 1277.12 469.632
477 0 85.3574 12.5121 1068 136.347 1277.51 468.265
478 0 89.3191 12.3266 1101 129.079 1276.77 466.65
479 0 91.2702 12.5561 1146 136.777 1277.16 465.169
480 0 95.2369 12.7367 1213 134.948 1277.32 462.885
481 1 54.087 10.2243 553 133.354 1277.22 485.647
482 0 54.0405 11.0843 599 138.813 1276.56 485.828
483 0 56.2244 11.1517 627 136.841 1277.25 483.968
484 0 58.1243 11.8367 688 133.222 1276.61 482.731
485 0 61.2044 12.5808 770 138.569 1276.32 484.579
486 0 62.3184 12.7731 796 140.941 1277.24 484.06
487 0 65.1638 12.7525 831 145.525 1277.69 483.259
488 0 66.1763 12.8747 852 148.663 1276.93 482.884
489 0 69.2738 12.8187 888 143.86 1277.22 482.464
490 0 71.138 12.8623 915 143.756 1277.64 480.734
491 0 72.5392 13.2618 962 138.471 1277.56 480.101
492 0 75.3748 13.0946 987 143.473 1278.15 478.161
493 0 78.2982 12.9888 1017 140.896 1278.45 476.264
494 0 80.398 13.0351 1048 137.997 1278.82 474.963
495 0 81.2892 13.2736 1079 142.761 1278.66 474.299
496 0 83.3679 13.5184 1127 142.433 1279.7 472.638
497 0 87.3691 13.6318 1191 139.012 1279.3 470.131
498 0 93.3904 13.5346 1264 137.203 1280.35 468.594
499 0 93.4505 13.5687 1268 144.304 1280.04 467.395
500 0 98.4225 13.3912 1318 133.778 1278.3 466.399
501 0 102.265 13.1228 1342 143.935 1278.5 465.06
502 1 52.0904 11.1153 579 151.181 1279.15 489.523
503 0 52.0904 11.1153 579 160.58 1280.15 489.523
504 0 54.0609 11.5795 626 144.511 1278.65 487.241
505 0 57.088 12.4545 711 137.904 1277.85 487.518
506 0 57.1369 12.5313 716 146.33 1278.03 486.923
507 0 59.118 12.8049 757 145.532 1279.17 486.088
508 0 60.1299 12.7723 768 148.727 1278.67 486.204
509 0 62.1311 12.8438 798 147.915 1278.62 484.518
510 0 62.1037 13.4936 838 147.766 1278 483.171
511 0 66.2841 12.8236 850 150.921 1276.91 483.161
512 0 67.2381 12.9837 873 146.812 1277.48 481.832
513 0 68.1623 12.9544 883 152.901 1277.7 481.652
514 0 69.1127 13.5142 934 147.409 1278.21 479.395
515 0 72.1602 13.3176 961 152.739 1277.3 477.707
516 0 76.2083 13.1088 999 145.18 1277.83 477.329
517 0 78.1746 13.5978 1063 149.268 1277.85 476.769
518 0 81.0805 13.1721 1068 153.154 1277.75 474.387
519 0 82.1982 13.2363 1088 152.328 1277.39 472.659
520 0 86.1112 13.6916 1179 149.416 1277.13 472.327
521 0 88.1872 13.6074 1200 157.956 1277.43 470.255
522 0 92.2146 13.4903 1244 156.743 1276.79 469.096
523 0 94.2123 13.2254 1246 158.07 1276.47 467.578
524 0 98.2523 13.4552 1322 152.554 1275.95 466.008
525 1 52.1091 11.1689 582 155.268 1275.55 488.32
526 0 55.0664 12.0037 661 149.419 1275.43 488.545
527 0 56.0459 12.347 692 153.221 1275.11 487.585
528 0 57.0466 12.2006 696 145.671 1274.77 487.447
529 0 59.0396 12.6525 747 143.285 1274.76 485.774
530 0 60.0629 12.1872 732 145.671 1274.73 486.893
531 0 63.0494 12.4506 785 139.499 1274.66 484.28
532 0 66.059 12.3526 816 138.537 1275.1 484.078
533 0 67.0785 12.2245 820 139.691 1276.19 483.534
534 0 68.115 12.5229 853 139.359 1276.15 482.285
535 0 70.2152 12.718 893 144.217 1275.75 481.507
536 0 72.0636 12.9608 934 142.502 1276.48 480.32
537 0 74.0837 13.0663 968 67.0702 1275.42 479.682
538 0 76.0507 13.136 999 151.2 1275.81 478.703
539 0 79.1641 13.1373 1040 140.88 1275.3 478.273
540 0 81.0785 12.8641 1043 151.669 1275.39 477.406
541 0 84.0723 13.0721 1099 148.429 1275.59 475.205
542 0 87.0595 13.1979 1149 146.287 1275.76 473.167
543 0 88.087 13.4299 1183 139.567 1275.58 473.671
544 0 90.1462 13.6778 1233 144.912 1275.83 471.434
545 0 94.1999 13.2378 1247 141.467 1275.65 469.707
546 1 51.0226 11.3479 579 149.024 1275.64 492.045
547 0 52.1605 11.5029 600 145.097 1275.72 491.538
548 0 55.0814 12.0549 664 141.327 1275.47 490.755
549 0 57.1298 12.4629 712 141.733 1275.07 490.562
550 0 58.0577 13.0904 760 151.246 1274.19 489.029
551 0 58.1381 13.1583 765 142.49 1274.61 488.561
552 0 61.1654 13.0466 798 145.538 1275.21 487.272
553 0 61.0844 13.7187 838 146.368 1275.37 486.259
554 0 65.1235 13.7124 893 146.636 1276.62 485.036
555 0 67.128 13.2434 889 45.9764 1276.65 485.364
556 0 66.0634 13.6233 900 145.507 1276.54 483.982
557 0 68.0645 13.4578 916 146.517 1276.08 482.724
558 0 73.0949 13.503 987 141.27 1275.48 482.695
559 0 74.0614 13.8939 1029 148.161 1275.12 481.446
560 0 77.2044 12.9656 1001 148.113 1275.58 479.652
561 0 80.1103 13.444 1077 151.222 1275.58 478.969
562 0 82.1603 12.7434 1047 150.088 1275.1 478.526
563 0 84.1989 13.0881 1102 141.221 1274.49 477.334
564 0 87.1476 13.7353 1197 143.154 1274.89 474.606
565 0 91.1424 13.3747 1219 140.26 1274.42 472.644
566 0 93.2908 13.4204 1252 144.222 1274.05 472.095
567 1 49.0619 11.7607 577 139.879 1274.05 493.983
568 0 50.128 12.7075 637 143.771 1272.88 493.75
569 0 51.0734 13.6079 695 147.24 1274.72 493.683
570 0 53.0453 13.3471 708 141.983 1274.91 492.917
571 0 57.1529 13.2802 759 141.223 1275.32 491.883
572 0 55.0518 13.7507 757 141.042 1275.83 491.828
573 0 59.3164 13.0992 777 145.865 1275.2 490.874
574 0 61.1554 13.5066 826 141.255 1275.76 488.308
575 0 65.1051 13.2094 860 141.545 1275.48 487.367
576 0 68.1842 13.3755 912 141.819 1275.45 485.962
577 0 69.2976 13.5358 938 144.349 1275.25 484.836
578 0 72.0411 13.3118 959 139.523 1275.16 484.506
579 0 74.1034 13.4677 998 139.874 1274.98 482.337
580 0 76.337 13.1522 1004 139.648 1275.15 480.882
581 0 79.4153 13.0957 1040 137.765 1275.03 480.628
582 0 83.1374 13.1349 1092 139.316 1275.17 479.506
583 1 42.0987 12.732 536 142.325 1275.21 497.961
584 0 45.2532 12.6179 571 135.982 1275.07 497.228
585 0 48.2568 12.4542 601 141.08 1274.68 495.175
586 0 50.1907 13.0502 655 135.64 1275.14 493.821
587 0 52.27 12.7798 668 134.395 1274.78 493.602
588 0 53.5008 13.1213 702 144.521 1275.97 491.868
589 0 54.284 13.1162 712 146.121 1276 491.072
590 0 55.2753 13.2971 735 139.853 1276.28 491.129
591 0 56.4673 13.1935 745 141.638 1276.76 489.984
592 0 57.4274 13.8262 794 143.825 1275.98 484.899
593 0 60.287 13.3528 805 148.727 1276.58 486.242
594 0 62.1139 13.5718 843 138.941 1276.65 485.394
595 0 64.1867 13.5075 867 143.465 1276.76 484.804
596 0 67.2543 13.9322 937 145.915 1276.73 481.647
597 0 69.5033 13.726 954 140.813 1276.9 480.037
598 0 70.4058 14.2318 1002 149.124 1276.79 479.05
599 0 73.388 14.144 1038 150.794 1276.47 478.434
600 0 76.362 13.7241 1048 148.548 1276.45 477.129
601 0 80.74 13.6116 1099 150.664 1276.67 475.672
602 0 81.5505 13.9178 1135 155.11 1276.59 475.345
603 0 85.4307 13.707 1171 157.736 1276.76 474.205
604 0 88.5622 13.9789 1238 146.347 1276.88 473.766
605 1 44.6793 12.4219 555 158.559 1276.94 493.993
606 0 46.4587 13.2376 615 164.062 1276.73 493.296
607 0 49.6542 13.4128 666 163.461 1277.14 491.398
608 0 49.7099 13.4178 667 163.252 1277.1 491.309
609 0 52.6667 13.3101 701 164.536 1276.46 489.645
610 0 53.5818 13.1948 707 20.0891 1277.43 489.035
611 0 55.5094 13.3671 742 171.962 1277.32 488.361
612 0 57.6688 13.9937 807 167.316 1276.33 487.219
613 0 59.6248 13.8701 827 168.591 1276.86 485.96
614 0 61.6629 13.5252 834 168.362 1277.07 484.778
615 0 62.8325 13.6235 856 170.183 1277.16 483.741
616 0 66.5365 13.6016 905 167.877 1277.68 482.493
617 0 66.6385 13.8208 921 158.921 1278.12 481.869
618 0 71.8908 13.757 989 171.521 1277.89 480.813
619 0 73.6334 13.7709 1014 169.648 1277.04 478.478
620 0 76.59 13.2393 1014 160.139 1277.14 476.735
621 0 78.669 13.2581 1043 172.662 1277.24 475.962
622 1 43.4267 12.596 547 169.141 1276.66 490.686
623 0 43.3676 13.2357 574 160.545 1277.21 489.969
624 0 46.6372 13.1226 612 173.356 1277.22 489.062
625 0 47.4014 12.8899 611 178.411 1277.15 489.152
626 0 48.5152 13.4597 653 173.832 1277.19 487.342
627 0 51.6966 13.1343 679 171.741 1277.45 486.642
628 0 53.0363 13.4059 711 168.817 1277.25 486.689
629 0 54.6416 13.3598 730 173.836 1277.41 485.097
630 0 56.8035 13.221 751 171.796 1276.71 483.751
631 0 57.5834 13.7019 789 174.474 1276.75 483.712
632 0 59.0499 13.8188 816 177.1 1276.66 484.08
633 0 61.3166 13.5852 833 172.921 1276.27 482.622
634 0 63.674 13.522 861 176.491 1276.32 482.21
635 0 64.5127 13.6407 880 177.983 1276.38 481.849
636 0 67.6663 14.1282 956 172.135 1276.15 479.533
637 0 69.4752 13.9186 967 169.565 1275.92 478.223
638 0 71.3957 14.5107 1036 165.047 1276.11 478.184
639 0 73.8801 13.7791 1018 166.041 1275.51 476.994
640 0 77.546 14.0562 1090 172.315 1275.18 475.494
641 0 80.5722 13.7144 1105 174.722 1274.68 474.089
642 0 80.3571 14.0747 1131 172.225 1274.71 473.052
643 0 83.3947 14.1616 1181 167.275 1274.27 471.301
644 0 87.3725 14.0319 1226 170.975 1275.9 470.119
645 0 90.2367 14.2847 1289 166.455 1276.26 468.903
646 0 93.298 13.698 1278 165.629 1276.51 469.071
647 1 51.2355 12.6475 648 172.048 1276.31 488.543
648 0 54.214 12.4507 675 167.225 1276.29 486.373
649 0 55.3236 12.8155 709 173.188 1275.69 486.777
650 0 56.3521 13.1495 741 168.638 1275.94 485.749
651 0 59.4863 12.7424 758 168.669 1275.5 485.189
652 0 60.4544 13.0677 790 166.944 1275.64 483.38
653 0 62.4541 12.7614 797 166.59 1275.03 482.379
654 0 64.33 12.8556 827 165.75 1275.14 481.414
655 0 65.3823 12.8475 840 169.593 1275.43 481.086
656 0 68.3082 13.322 910 159.686 1275.43 479.544
657 0 71.2654 13.7093 977 171.685 1275.82 479.347
658 0 74.2562 13.8305 1027 162.981 1275.26 477.777
659 0 75.4293 13.284 1002 171.535 1275.1 477.139
660 0 79.4053 13.6893 1087 167.374 1275.48 475.385
661 0 82.3319 13.2391 1090 153.561 1275.21 474.09
662 0 85.2288 13.4579 1147 167.211 1275.42 472.716
663 0 88.3223 13.2696 1172 168.329 1275.54 471.437
664 0 90.133 13.1361 1184 172.15 1275.51 470.424
665 0 93.1257 13.1543 1225 164.731 1275.15 468.773
666 1 50.041 11.0909 555 157.459 1274.68 491.283
667 0 52.0658 11.6391 606 153.533 1274.89 490.274
668 0 54.0524 11.3408 613 154.772 1274.1 489.263
669 0 55.0508 11.3895 627 151.778 1274.94 489.429
670 0 56.0313 11.6185 651 158.178 1275.86 488.525
671 0 57.0952 11.98 684 155.737 1275.74 487.152
672 0 59.0953 12.1668 719 150.643 1275.27 486.312
673 0 61.1855 11.8819 727 149.26 1274.96 485.678
674 0 64.117 11.7442 753 152.567 1274.89 484.489
675 0 65.0985 11.905 775 149.655 1275.7 483.615
676 0 67.141 11.5876 778 149.015 1275.89 483.082
677 0 69.1843 12.1559 841 150.27 1274.91 481.725
678 0 72.1556 11.8217 853 141.23 1274.6 480.074
679 0 74.2915 11.7645 874 149.015 1275.57 479.475
680 0 77.0675 12.1841 939 158.022 1275.52 479.083
681 0 78.2762 12.111 948 155.824 1275.01 477.756
682 0 82.215 11.9808 985 151.404 1275.24 476.674
683 0 84.0723 12.1324 1020 158.188 1274.64 475.632
684 0 85.2465 12.0826 1030 156.55 1274.74 474.651
685 0 88.1356 12.651 1115 155.754 1274.85 472.007
686 0 91.1357 12.0699 1100 156.542 1274.52 472.097
687 0 94.2768 12.3997 1169 157.673 1274.5 469.729
688 0 97.1247 12.7053 1234 153.062 1274.49 468.869
689 1 56.0586 10.1858 571 147.356 1273.83 490.447
690 0 58.0527 10.6627 619 145.321 1273.9 489.898
691 0 58.0766 11.5193 669 135.084 1273.85 490.045
692 0 60.1072 11.0303 663 147.309 1274.16 488.002
693 0 63.086 11.6191 733 151.757 1273.89 486.611
694 0 65.0766 11.1407 725 148.95 1274.46 486.759
695 0 65.0512 11.5909 754 148.922 1274.27 485.718
696 0 70.1022 11.3263 794 144.81 1273.69 485.29
697 0 72.0756 11.4324 824 142.587 1274.34 483.017
698 0 76.0453 11.4931 874 142.596 1273.66 481.001
699 0 76.1788 11.2367 856 146.986 1274.92 481.923
700 0 77.238 12.1313 937 140.351 1275.83 480.082
701 0 81.2392 11.46 931 146.745 1275.3 480.012
702 0 86.2878 11.8788 1025 145.566 1275.51 477.4
703 0 88.3966 11.324 1001 147.628 1275.31 476.117
704 0 90.4731 11.5172 1042 142.745 1275 475.405
705 0 94.5612 12.1614 1150 147.987 1274.78 472.197
706 1 53.133 10.2196 543 149.223 1274.77 494.37
707 0 55.2404 10.3185 570 148.574 1274.85 492.695
708 0 56.1816 10.4839 589 148.956 1274.92 492.873
709 0 57.0717 11.0913 633 142.733 1274.53 491.744
710 0 60.0623 11.1218 668 139.707 1274.63 491.478
711 0 61.0278 11.716 715 142.117 1274.59 489.859
712 0 61.0584 11.0386 674 147.09 1273.34 489.73
713 0 64.0484 11.1166 712 142.229 1273.93 488.598
714 0 65.1173 11.5023 749 146.067 1273.16 488.089
715 0 67.0758 11.2112 752 146.027 1273.7 487.654
716 0 69.0451 11.659 805 140.52 1274.04 485.682
717 0 71.0496 11.8086 839 154.522 1272.92 485.915
718 0 74.0983 11.7951 874 147.159 1272.59 483.41
719 0 76.0466 11.7954 897 148.968 1272.76 483.589
720 0 78.1009 11.7156 915 144.53 1273.53 481.924
721 0 80.0997 11.7978 945 146.947 1272.78 480.068
722 1 45.192 9.75837 441 154.336 1274.22 498.696
723 0 44.1111 10.0655 444 149.491 1273.82 498.651
724 0 46.0699 10.419 480 149.698 1274.05 496.783
725 0 47.0327 10.8435 510 154.245 1274.95 496.359
726 0 48.0472 11.343 545 142.018 1274.58 495.798
727 0 47.0599 12.0272 566 147.087 1274.44 495.074
728 0 51.0773 11.0421 564 146.69 1275.34 494.638
729 0 51.1307 11.6173 594 145.697 1275.19 494.519
730 0 54.1202 11.1419 603 145.968 1275.68 493.284
731 0 53.117 11.6535 619 143.761 1275.14 493.205
732 0 56.0875 11.9991 673 146.719 1275.57 491.233
733 0 59.2472 11.9162 706 143.041 1274.34 488.39
734 0 62.0889 11.8057 733 145.162 1275.54 489.037
735 0 62.1308 11.7172 728 143.183 1275.85 488.742
736 0 63.1007 12.3612 780 144.553 1276.24 486.564
737 0 64.1367 12.2551 786 146.029 1275.55 485.555
738 0 68.2752 12.2739 838 146.714 1275.18 483.758
739 0 70.2221 12.5459 881 143.381 1275.18 483.583
740 0 72.2702 12.7992 925 146.075 1275.18 481.772
741 0 73.235 12.3575 905 147.454 1275.35 480.371
742 0 76.1742 12.8259 977 142.454 1275.09 480.156
743 0 77.1656 13.0369 1006 154.159 1275.75 478.196
744 0 81.1774 12.7252 1033 148.43 1275.66 476.037
745 0 82.1691 12.7177 1045 144.485 1276.1 475.511
746 0 86.1172 12.9591 1116 150.7 1275.87 473.589
747 1 46.023 10.6903 492 156.181 1275.51 492.557
748 0 48.2365 11.3607 548 149.958 1277.71 491.985
749 0 46.0292 11.2103 516 144.153 1279.25 488.62
750 0 48.0304 12.9085 620 139.802 1279.14 487.724
751 0 51.0781 11.4335 584 148.104 1279.69 487.216
752 0 51.025 11.4846 586 144.981 1279.53 486.469
753 0 52.0687 11.6385 606 145.625 1279.89 485.475
754 0 52.0997 12.6104 657 144.298 1279.98 484.83
755 0 56.2015 11.6723 656 142.463 1279.79 484.854
756 0 58.0743 11.7952 685 144.799 1279.91 483.508
757 0 58.096 11.963 695 146.462 1279.51 483.783
758 0 59.0416 12.6352 746 140.525 1279.78 482.153
759 0 62.032 12.3968 769 144.385 1279.16 481.351
760 0 65.1002 11.9815 780 138.588 1279.75 480.045
761 0 65.0946 12.0287 783 145.364 1279.54 478.36
762 0 69.1016 12.1994 843 139.569 1279.62 478.605
763 0 71.0765 12.8031 910 138.848 1279.04 479.654
764 0 73.0958 12.7367 931 137.502 1278.66 478.323
765 0 74.1322 12.5452 930 135.159 1278.48 477.808
766 0 76.1618 13.0249 992 141.935 1279.03 476.441
767 0 80.0686 12.889 1032 142.229 1279 475.747
768 0 81.1702 12.8619 1044 142.972 1279.38 474.752
769 0 84.167 13.093 1102 142.54 1279.27 472.501
770 0 87.1771 12.9851 1132 139.491 1279.11 470.579
771 0 89.2339 12.9211 1153 138.609 1278.88 469.587
772 0 92.1681 12.8352 1183 134.374 1279.06 468.822
773 0 95.1151 13.0263 1239 138.009 1279.13 467.453
774 0 97.1195 12.8296 1246 146.043 1279.46 466.511
775 0 101.151 13.0894 1324 136.82 1280.4 465.249
776 0 105.262 13.5281 1424 130.655 1279.69 460.866
777 0 107.161 13.3724 1433 136.124 1279.82 458.535
778 0 110.39 12.9087 1425 134.065 1279.39 455.983
779 0 114.448 13.0628 1495 136.029 1279.01 452.965
780 0 118.236 12.771 1510 130.972 1279.14 453.432
781 1 65.2574 11.0486 721 140.942 1278.23 481.148
782 0 67.219 12.2138 821 133.576 1278.08 478.926
783 0 68.0437 12.0805 822 131.28 1277.11 480.28
784 0 71.0837 12.211 868 129.431 1277.41 478.925
785 0 74.1755 12.2682 910 127.263 1276.69 477.952
786 0 76.1004 12.1024 921 133.503 1276.3 476.785
787 0 79.1187 12.1463 961 132.214 1276.3 474.363
788 0 80.0709 12.4889 1000 130.938 1276.71 474.328
789 0 83.1405 12.2804 1021 128.83 1275.95 473.066
790 0 86.0469 12.2491 1054 130.605 1275.84 471.637
791 0 89.1004 12.1099 1079 127.954 1276.22 471.014
792 0 92.095 12.2374 1127 133.705 1276.98 469.62
793 0 93.0785 12.3229 1147 131.053 1276.66 466.955
794 0 99.184 12.1391 1204 135.518 1276.9 467.746
795 1 54.0259 10.0878 545 137.226 1277.16 489.117
796 0 56.0366 9.8864 554 137.379 1276.96 488.336
797 0 58.0692 10.5736 614 126.805 1277.44 487.541
798 0 58.071 10.9177 634 128.812 1277.18 485.314
799 0 63.1036 11.4573 723 136.863 1276.81 483.956
800 0 64.0547 12.1927 781 125.376 1277.22 483.446
801 0 69.0502 10.4851 724 130.427 1277.59 484.34
802 0 70.088 10.9291 766 130.641 1277.92 483.375
803 0 70.0388 12.0219 842 133.443 1277.38 482.007
804 0 72.0811 12.3333 889 132.343 1278.05 479.487
805 0 74.1178 12.2508 908 134.208 1278 478.517
806 0 77.1101 12.5405 967 126.036 1277.85 476.276
807 0 79.062 12.0918 956 132.694 1277.86 476.515
808 0 82.1509 12.477 1025 129.009 1278.75 474.619
809 0 85.1813 12.3971 1056 126.897 1278.71 473.532
810 0 87.3143 12.3233 1076 130.914 1278.74 471.295
811 0 90.2256 12.6017 1137 135.207 1278.77 471.484
812 0 94.2009 12.2398 1153 133.916 1278.7 470.836
813 0 96.3157 12.6667 1220 133.653 1278.26 466.243
814 0 100.199 12.7945 1282 135.584 1278.34 465.653
815 1 53.1179 11.0509 587 137.373 1277.73 487.847
816 0 54.1709 11.7406 636 133.616 1278.05 486.78
817 0 57.0753 11.6338 664 139.434 1277.65 485.857
818 0 56.0912 11.0713 621 137.111 1277.83 485.879
819 0 59.1483 11.9699 708 139.919 1279.26 485.904
820 0 60.0663 12.7359 765 144.204 1278.89 485.271
821 0 62.125 12.6036 783 144.904 1279.63 483.545
822 0 61.1383 13.0033 795 146.108 1279.84 482.56
823 0 67.09 12.118 813 147.841 1279.67 481.102
824 0 66.1203 12.5378 829 144.093 1279.52 480.6
825 0 69.0726 12.7258 879 145.569 1279.51 479.728
826 0 70.1134 12.6224 885 152.829 1280.92 480.134
827 0 71.0914 13.0677 929 146.464 1280.72 479.128
828 0 73.0645 13.0433 953 144.693 1281.02 478.443
829 0 76.0711 13.3033 1012 142.697 1280.74 475.63
830 0 80.183 12.6336 1013 156.087 1280.88 476.143
831 0 81.1475 13.5186 1097 141.702 1280.72 474.332
832 0 83.1389 13.4474 1118 154.466 1280.8 473.646
833 0 84.1616 13.0226 1096 158.626 1281.19 472.838
834 0 88.18 13.223 1166 153.168 1280.68 471.484
835 0 92.1341 12.7966 1179 151.468 1280.92 470.114
836 0 94.1143 13.5367 1274 154.188 1281 467.334
837 0 97.3282 12.9973 1265 152.356 1281.36 466.034
838 1 54.0405 12.1391 656 152.494 1281.57 488.355
839 0 58.0989 12.5476 729 153.908 1281.56 485.383
840 0 58.0711 12.7258 739 149.429 1281.84 483.804
841 0 58.0965 12.7202 739 147.79 1281.86 483.466
842 0 61.0622 12.7411 778 154.138 1281.47 482.973
843 0 63.1157 13.1346 829 149.613 1281.61 482.06
844 0 65.0989 13.0263 848 146.736 1281.81 481.493
845 0 68.1546 12.5303 854 147.712 1282.11 481.327
846 0 69.0624 12.9014 891 149.935 1282.4 480.339
847 0 70.0729 13.2862 931 142.099 1282.25 479.58
848 0 72.1309 13.1289 947 146.162 1282.32 478.711
849 0 74.1457 13.0419 967 146.181 1281.81 476.282
850 0 78.0544 12.8372 1002 146.244 1281.82 476.555
851 0 79.1671 13.2505 1049 145.261 1281.97 475.27
852 0 82.1015 12.8987 1059 143.603 1281.51 473.308
853 0 84.1507 13.4639 1133 146.017 1282.37 472.161
854 0 88.1937 13.1302 1158 140.754 1282.22 469.418
855 0 88.229 13.1929 1164 142.633 1281.41 467.991
856 0 91.2321 13.8328 1262 144.844 1280.92 465.624
857 0 95.177 13.8269 1316 141.619 1280.98 465.692
858 0 99.1782 13.259 1315 146.863 1279.91 463.857
859 0 100.356 13.3924 1344 148.333 1280.21 461.154
860 0 104.375 13.3557 1394 144.022 1279.96 460.771
861 1 58.1875 11.7551 684 143.632 1279.07 485.699
862 0 60.214 11.974 721 135.645 1278.88 483.947
863 0 63.092 12.5214 790 146.773 1279.17 482.539
864 0 63.3877 12.6681 803 138.666 1280.05 481.582
865 0 64.2103 12.6615 813 134.166 1280.17 480.458
866 0 68.2012 12.5804 858 138.946 1279.37 478.866
867 0 73.2121 12.7848 936 137.847 1279.32 477.817
868 0 74.2854 12.9635 963 141.142 1278.56 477.01
869 0 76.199 12.966 988 140.738 1279.14 475.086
870 0 78.3568 13.1705 1032 142.695 1279.25 473.684
871 0 80.2461 13.2841 1066 142.415 1279.02 472.074
872 0 83.2352 12.9513 1078 146.031 1279.17 471.483
873 0 87.4015 13.3751 1169 140.418 1279.03 469.769
874 0 88.3793 13.3402 1179 150.477 1278.54 468.835
875 0 94.2781 13.2586 1250 145.82 1278.81 467.022
876 1 51.1918 10.6658 546 148.634 1279.56 487.247
877 0 52.1457 11.5638 603 148.62 1278.99 487.519
878 0 55.1537 10.9331 603 143.376 1279.03 486.741
879 0 55.1777 11.6351 642 150.93 1279.53 485.615
880 0 57.0503 12.1121 691 142.534 1280.48 487.834
881 0 60.0942 11.4321 687 149.869 1280.04 487.852
882 0 61.0293 11.9123 727 151.754 1280.45 486.136
883 0 64.174 12.2324 785 146.701 1280.73 485.115
884 0 64.0404 12.7888 819 150.139 1280.15 484.493
885 0 66.1474 12.457 824 142.461 1280.38 484.121
886 0 69.0775 12.942 894 147.436 1279.82 482.042
887 0 70.1008 12.696 890 147.713 1279.63 481.28
888 0 73.0554 12.5247 915 147.518 1279.29 480.837
889 0 76.0372 12.9279 983 147.656 1279.05 478.85
890 0 78.1537 13.3839 1046 143.376 1278.94 477.745
891 0 81.1231 13.0789 1061 151.361 1279.12 476.539
892 0 83.0936 12.8891 1071 156.268 1279.23 476.486
893 0 86.0559 13.4796 1160 149.159 1279.42 475.68
894 0 87.0863 13.0101 1133 157.326 1279.3 473.97
895 0 90.1109 13.7608 1240 152.223 1278.99 471.891
896 0 93.1717 12.8687 1199 156.652 1279.85 470.649
897 0 94.173 13.3372 1256 160.689 1279.66 469.623
898 0 99.1376 13.2745 1316 151.122 1279.8 467.907
899 0 101.103 13.0758 1322 162.881 1280.08 466.451
900 1 56.0436 11.1342 624 163.082 1279.5 489.623
901 0 57.0655 11.2853 644 159.516 1278.92 488.422
902 0 59.0626 12.2582 724 152.387 1279.75 487.242
903 0 59.1434 12.1231 717 155.604 1280.82 487.697
904 0 60.0794 12.084 726 161.781 1280.99 487.028
905 0 68.2447 14.2868 975 143.758 1280.44 482.133
906 0 70.2285 14.9939 1053 140.509 1280.71 480.676
907 0 68.21 13.7223 936 151.912 1280.02 481.747
908 0 68.3013 13.0891 894 157.375 1279.69 481.991
909 0 70.1158 12.7361 893 163.075 1280.11 480.895
910 0 73.1787 12.7086 930 156.965 1279.85 481.146
911 0 74.1144 12.9125 957 153.27 1279.85 479.067
912 0 78.2709 12.6995 994 149.547 1279.69 478.677
913 0 80.2308 12.8754 1033 158.28 1280.65 476.864
914 0 82.2185 12.6371 1039 152.476 1280.47 475.475
915 0 84.226 12.882 1085 153.63 1281.01 474.774
916 0 87.0738 12.9316 1126 151.201 1280.72 472.075
917 0 89.1295 13.1606 1173 147.155 1281.16 471.703
918 0 93.1481 12.8612 1198 152.219 1281.67 471.114
919 0 94.1414 12.9699 1221 147.295 1280.86 469.551
920 0 99.1108 13.3991 1328 146.98 1280.35 465.363
921 0 102.126 13.121 1340 152.109 1280.1 465.731
922 0 106.117 13.4003 1422 146.665 1280.64 463.552
923 1 57.0348 11.3615 648 147.958 1280.54 485.91
924 0 57.1024 12.0485 688 143.669 1281.14 484.419
925 0 62.1228 12.1533 755 144.162 1279.79 486.918
926 0 65.0708 13.8004 898 129.422 1280 484.13
927 0 66.026 12.8434 848 135.65 1279.69 484.202
928 0 68.1201 12.5807 857 141.145 1279.85 483.568
929 0 68.0427 13.0947 891 132.529 1279.46 483.309
930 0 74.147 12.4887 926 133.784 1280.1 481.9
931 0 73.0993 12.6814 927 139.213 1280.93 481.546
932 0 76.0753 13.0923 996 144.15 1280.54 479.39
933 0 77.0809 13.4274 1035 149.96 1281.21 477.388
934 0 80.1694 13.696 1098 144.862 1281.24 475.965
935 0 84.1232 13.0285 1096 144.128 1281.14 474.672
936 0 86.2137 13.1418 1133 142.021 1282.08 475.21
937 0 89.1535 12.8094 1142 142.666 1281.59 473.19
938 0 91.2135 13.145 1199 138.384 1281.68 471.575
939 0 94.1726 13.3372 1256 149.493 1282.78 469.527
940 0 96.2897 13.3971 1290 139.495 1281.69 468.942
941 0 100.382 13.3092 1336 139.969 1281.25 467.186
942 0 104.34 13.4081 1399 146.51 1281.86 464.981
943 0 106.255 13.4488 1429 162.358 1282.37 464.434
944 1 60.0648 12.4699 749 164.455 1281.78 485.729
945 0 62.0211 12.8827 799 156.701 1282.19 485.243
946 0 64.1393 12.5508 805 162.635 1281.89 484.988
947 0 68.1179 13.183 898 157.722 1281.29 481.871
948 0 69.0799 12.7968 884 159.503 1281.28 481.56
949 0 72.1262 13.0882 944 155.463 1280.58 480.464
950 0 74.071 12.9335 958 155.307 1280.76 479.562
951 0 77.0863 13.0244 1004 157.809 1281.09 477.959
952 0 80.0446 13.0177 1042 157.259 1280.63 475.655
953 0 83.0937 13.1899 1096 149.649 1282.66 474.979
954 0 85.2031 13.3563 1138 157.014 1282.09 472.787
955 0 88.1798 13.5972 1199 153.456 1282.96 472.786
956 0 92.1241 13.1779 1214 156.43 1282.81 471.357
957 0 96.1562 13.2805 1277 153.624 1281.78 469.006
958 0 98.1519 13.4485 1320 153.307 1282.03 467.406
959 0 100.165 13.318 1334 145.292 1282.7 465.677
960 0 104.194 13.3981 1396 151.18 1282.84 464.496
961 1 56.0895 11.7491 659 150.228 1282.39 489.241
962 0 55.176 12.5779 694 154.127 1282.59 488.375
963 0 57.1683 12.3145 704 155 1282.25 488.16
964 0 60.1879 12.7933 770 154.284 1282.04 486.426
965 0 63.1292 12.8308 810 152.68 1282.25 485.315
966 0 63.1032 13.0263 822 152.248 1283.46 484.541
967 0 64.1023 13.1197 841 155.698 1282.88 484.741
968 0 69.2128 14.7805 1023 139.768 1283.85 480.474
969 0 72.1182 14.7674 1065 136.695 1283.85 478.441
970 0 72.1414 12.5725 907 141.006 1282.89 480.49
971 0 74.1188 13.4244 995 151.897 1283.77 479.065
972 0 75.2565 13.5404 1019 159.193 1283.12 478.462
973 0 78.3037 13.1922 1033 144.398 1284.18 476.601
974 0 79.229 13.5809 1076 145.742 1283.04 476.27
975 0 80.1711 13.8703 1112 156.064 1286.38 474.953
976 0 84.1354 13.6566 1149 152.27 1284.89 475.433
977 0 86.1735 13.7165 1182 149.049 1283.75 474.632
978 0 89.1166 13.746 1225 147.944 1283.04 472.923
979 0 93.2448 14.8855 1388 146.572 1282.8 467.386
980 0 94.1985 13.9493 1314 161.804 1283.45 468.567
981 0 98.2728 13.6559 1342 160.425 1283.01 465.999
982 0 101.365 13.2196 1340 158.993 1283.57 465.803
983 0 106.344 13.9077 1479 156.684 1284.22 463.45
984 0 109.206 14.0377 1533 154.109 1283.65 461.862
985 1 57.0912 12.156 694 168.153 1283.17 488.009
986 0 59.0851 12.7105 751 169.776 1282.66 484.688
987 0 63.1738 13.1225 829 171.546 1282.84 483.2
988 0 65.2065 13.4496 877 161.108 1284.32 480.957
989 0 66.192 13.6724 905 161.638 1283.08 480.399
990 0 69.1484 13.7241 949 162.661 1282.74 480.587
991 0 70.1247 13.6043 954 161.679 1281.58 479.585
992 0 72.1671 13.7043 989 171.419 1281.68 478.65
993 0 75.161 13.797 1037 161.057 1282.32 477.531
994 0 76.2714 13.9502 1064 162.086 1282.69 475.256
995 0 79.2328 13.2016 1046 160.259 1286.75 475.766
996 0 81.127 13.8918 1127 168.204 1286.45 473.679
997 0 83.192 13.8956 1156 165.768 1285.26 471.802
998 0 87.4106 13.8313 1209 162.161 1285.29 470.794
999 0 90.2834 14.2108 1283 166.019 1284.71 469.401
1000 0 93.2271 13.7835 1285 167.134 1284.58 467.63
1001 0 93.3337 14.3464 1339 168.438 1283.31 465.441
1002 0 98.3309 14.1359 1390 170.603 1283.29 464.734
1003 0 102.248 14.3083 1463 159.157 1283.16 461.413
1004 0 104.155 14.1136 1470 160.277 1283.57 461.776
1005 0 107.309 13.9224 1494 175.466 1283.41 459.768
1006 0 112.25 14.1737 1591 165.75 1283.05 458.248
1007 0 115.337 14.3406 1654 165.26 1283.28 457.209
1008 1 63.1749 12.6949 802 171.718 1283.39 483.355
1009 0 65.2978 12.9867 848 165.034 1285.66 481.766
1010 0 68.2648 13.0375 890 163.569 1284.38 480.748
1011 0 70.3209 12.9122 908 168.131 1285.32 480.294
1012 0 72.169 13.3021 960 161.555 1284.44 477.428
1013 0 74.0627 13.4211 994 160.572 1284.26 476.12
1014 0 77.2086 12.9519 1000 168.145 1284.14 474.874
1015 0 79.3392 13.436 1066 161.895 1284.65 475.034
1016 0 82.2708 13.6257 1121 169.804 1284.08 473.685
1017 0 84.2076 13.2767 1118 169.267 1284.93 472.356
1018 0 86.3524 13.3638 1154 168.183 1283.99 470.336
1019 0 91.3421 13.3454 1219 158.702 1284.01 468.964
1020 0 94.3813 13.5196 1276 167.275 1285.32 467.934
1021 0 97.4048 13.4901 1314 170.418 1284.89 467.052
1022 0 100.257 13.7447 1378 167.253 1284.42 463.799
1023 0 104.243 13.411 1398 163.259 1284.28 462.658
1024 1 58.1566 12.1568 707 162.936 1285.5 486.39
1025 0 58.0718 12.5018 726 160.03 1284.68 485.311
1026 0 60.1614 13.1147 789 158.25 1284.65 485.269
1027 0 62.3061 13.2732 827 161.105 1284.64 483.664
1028 0 63.2447 13.3134 842 161.223 1285.59 483.475
1029 0 66.1186 13.2489 876 157.892 1286.08 481.245
1030 0 68.1404 13.3841 912 160.371 1285.32 480.061
1031 0 71.1401 12.8198 912 165.979 1285.82 478.832
1032 0 72.2513 13.3285 963 161.747 1283.76 477.168
1033 0 75.2336 13.5046 1016 164.366 1283.93 476.933
1034 0 79.1648 13.2508 1049 164.013 1283.67 475.496
1035 0 81.3206 13.3423 1085 167.962 1283.72 474.054
1036 0 82.2191 12.9654 1066 158.362 1283.72 473.007
1037 0 85.0929 13.4676 1146 95.8072 1283.84 472.509
1038 0 88.1473 13.8518 1221 161.954 1285.79 470.139
1039 0 91.1821 13.5114 1232 163.698 1286.29 469.34
1040 0 94.1857 13.7919 1299 166.854 1285.63 467.064
1041 0 96.3929 13.6317 1314 162.343 1287.2 466.022
1042 0 100.421 13.6227 1368 166.746 1285.43 464.826
1043 0 103.247 13.6275 1407 165.898 1284.53 463.711
1044 0 105.576 13.5921 1435 170.183 1283.37 461.872
1045 0 108.307 13.9511 1511 170.597 1284.26 459.495
1046 0 113.221 13.8402 1567 169.706 1284.09 458.633
1047 0 115.309 14.0926 1625 162.433 1282.35 456.97
1048 0 121.42 14.2975 1736 149.096 1283.2 454.532
1049 0 126.432 14.3318 1812 167.752 1283.08 451.093
1050 0 130.451 13.9209 1816 160.399 1282.62 449.377
1051 0 134.592 14.0647 1893 165.769 1282.05 445.878
1052 1 71.3968 12.9418 924 160.755 1283.85 476.955
1053 0 74.4029 13.0506 971 165.582 1284.72 474.171
1054 0 76.3426 13.3477 1019 163.48 1283.49 472.568
1055 0 79.4038 12.9843 1031 168.681 1282.63 471.761
1056 0 81.2922 12.9287 1051 165.039 1282.33 470.409
1057 0 82.2885 13.3554 1099 165.124 1282.59 468.977
1058 0 84.1886 13.8023 1162 168.79 1282.67 467.533
1059 0 87.214 13.4267 1171 167.54 1282.63 465.848
1060 0 92.2484 13.3769 1234 163.572 1282.63 463.895
1061 0 93.2815 13.2073 1232 163.344 1283.73 463.28
1062 0 97.2382 13.5852 1321 166.634 1283.06 461.182
1063 0 99.3567 13.4666 1338 157.628 1282.66 459.336
1064 0 101.223 13.8605 1403 170.039 1282.35 458.354
1065 0 104.141 14.0003 1458 164.263 1282.37 457.196
1066 0 109.139 14.0554 1534 162.4 1282.39 454.638
1067 0 113.222 13.7341 1555 168.291 1281.96 453.081
1068 0 116.137 13.863 1610 162.493 1282.18 451.298
1069 1 65.1141 11.2264 731 160.231 1281.68 478.278
1070 0 67.0856 12.1486 815 152.611 1281.5 476.747
1071 0 70.1118 11.824 829 157.929 1281.33 478.978
1072 0 72.0938 12.1092 873 151.139 1281.89 478.054
1073 0 74.1561 12.5816 933 151.2 1280.9 476.219
1074 0 77.0576 12.3025 948 155.786 1281.02 476.15
1075 0 79.1779 12.6045 998 160.531 1281.11 474.297
1076 0 81.1 12.4291 1008 154.579 1281.43 474.244
1077 0 83.1501 12.5556 1044 159.502 1280.7 471.951
1078 0 86.1043 12.45 1072 159.835 1280.77 472.243
1079 0 88.0964 13.0312 1148 156.192 1281.55 469.609
1080 0 92.1166 12.9835 1196 153.553 1281.39 469.127
1081 0 93.2827 12.8105 1195 152.954 1281.41 466.933
1082 0 96.0973 13.2782 1276 153.804 1280.94 464.372
1083 0 96.143 13.0119 1251 150.827 1281.25 464.716
1084 0 101.063 12.9721 1311 151.426 1280.95 462.121
1085 0 104.127 12.8785 1341 159.691 1280.82 460.999
1086 0 106.172 13.2332 1405 154.907 1281.15 459.479
1087 0 112.074 13.036 1461 152.242 1281.22 458.203
1088 0 114.098 12.8223 1463 154.264 1281.54 457.275
1089 0 119.114 12.7105 1514 149.944 1282.39 454.092
1090 0 124.247 12.8534 1597 151.073 1282.72 451.514
1091 0 125.157 13.2233 1655 152.618 1282.83 449.755
1092 0 129.306 13.4255 1736 147.372 1283.04 446.846
1093 1 76.1095 11.3126 861 144.65 1283.45 476.452
1094 0 78.1409 11.4921 898 142.251 1282.83 475.796
1095 0 81.2951 11.6858 950 144.745 1282.37 474.276
1096 0 83.1552 11.6649 970 143.475 1282.63 473.072
1097 0 84.2023 11.8524 998 148.736 1282.3 471.886
1098 0 89.1734 12.257 1093 146.481 1282.07 469.511
1099 0 91.2018 11.4471 1044 148.088 1281.89 470.066
1100 0 93.2111 12.5414 1169 151.831 1282.04 467.119
1101 0 95.1638 12.5468 1194 149.165 1282.21 466.907
1102 0 99.3378 12.0699 1199 147.004 1282.02 465.125
1103 0 101.194 12.3031 1245 144.451 1281.49 463.218
1104 0 103.279 12.655 1307 147.656 1281.47 461.61
1105 0 107.391 12.4033 1332 149.259 1282.12 459.72
1106 0 110.296 12.7022 1401 150.343 1281.84 459.025
1107 0 112.486 12.5438 1411 148.622 1281.84 457.741
1108 0 117.476 12.8878 1514 153.414 1281.75 455.534
1109 0 120.386 13.1327 1581 145.193 1282.18 452.577
1110 0 122.281 12.872 1574 157.799 1281.97 452.321
1111 0 126.434 13.0661 1652 153.464 1282.15 449.99
1112 0 131.374 13.0467 1714 152.307 1281.82 448.002
1113 0 134.48 13.08 1759 154.138 1282.18 446.779
1114 0 139.736 13.0818 1828 156.625 1281.95 446.146
1115 0 143.629 13.2355 1901 160.87 1281.78 443.286
1116 0 146.629 13.5921 1993 156.968 1281.39 440.528
1117 0 152.404 13.3789 2039 162.239 1281.42 439.114
1118 0 156.376 13.6594 2136 155.182 1282.54 436.79
1119 0 163.404 13.2861 2171 157.397 1281.38 434.285
1120 0 168.387 13.7244 2311 155.909 1280.74 431.019
1121 0 172.481 14.1117 2434 158.864 1280.57 428.712
1122 0 179.429 13.7993 2476 159.624 1280.35 425.965
1123 0 186.511 13.967 2605 165.666 1280.15 421.385
1124 0 189.591 13.9405 2643 159.527 1280.1 416.204
1125 0 194.602 14.0749 2739 165.428 1279.87 412.39
1126 0 200.637 13.9904 2807 163.867 1280.59 410.394
1127 0 203.583 14.6181 2976 164.199 1281.58 407.164
1128 0 212.655 14.4412 3071 163.838 1281.69 404.142
1129 0 219.661 15.0232 3300 158.07 1281.9 398.672
1130 1 163.592 13.1425 2150 167.933 1281.28 428.3
1131 0 167.427 13.152 2202 167.466 1281.4 425.184
1132 0 172.39 13.4114 2312 172.488 1281.37 424.155
1133 0 174.479 13.4858 2353 165.91 1281.7 419.702
1134 0 183.441 13.552 2486 166.544 1281.87 418.185
1135 0 189.67 13.1808 2500 172.871 1281.17 415.083
1136 0 196.535 13.5345 2660 164.798 1281.1 411.581
1137 0 202.609 13.642 2764 168.504 1280.64 409.066
1138 0 208.665 13.6151 2841 159.604 1281.25 406.18
1139 0 214.694 13.3539 2867 167.478 1281.04 403.939
1140 1 161.398 12.7015 2050 164.784 1280.67 429.941
1141 0 165.598 12.935 2142 162.496 1280.53 426.944
1142 0 168.511 12.919 2177 161.755 1280.09 422.298
1143 0 174.754 13.1156 2292 163.501 1280.34 420.184
1144 0 181.415 13.6042 2468 166.269 1280.3 416.699
1145 0 185.689 13.4688 2501 161.124 1280.18 414.191
1146 0 191.576 13.3576 2559 163.799 1279.57 412.949
1147 0 197.523 13.4668 2660 164.665 1279.93 410.558
1148 0 205.624 13.7241 2822 161.729 1280.02 408.322
1149 0 209.867 13.7373 2883 158.603 1280.09 405.323
1150 1 47.1583 8.77895 414 144.046 1278.97 491.534
1151 0 47.1748 8.73347 412 143.852 1279.17 489.738
1152 0 52.2982 9.56056 500 142.868 1278.96 489.018
1153 0 54.0962 10.1486 549 140.368 1279.02 488.029
1154 0 53.142 11.3469 603 140.861 1279.99 487.104
1155 0 56.1609 11.1644 627 140.59 1280.37 485.561
1156 0 59.1412 11.0414 653 140.397 1279.56 485.028
1157 0 61.2472 11.0209 675 142.527 1278.96 483.993
1158 0 61.1199 10.9293 668 141.897 1279.58 483.949
1159 0 65.2824 10.5235 687 138.421 1279.29 483.814
1160 0 66.1033 10.5441 697 138.496 1278.97 482.148
1161 0 69.1829 10.9565 758 140.694 1281.9 481.144
1162 0 68.1762 10.8102 737 140.016 1280.78 479.966
1163 0 72.2745 11.0136 796 140.496 1280.32 478.426
1164 0 76.4356 11.2905 863 137.857 1280.48 476.758
1165 0 77.223 11.02 851 141.24 1280.87 475.94
1166 0 80.2468 11.3649 912 133.917 1281.1 474.714
1167 0 82.216 11.0441 908 144.889 1280.97 473.471
1168 0 86.3075 11.2852 974 142.446 1280.87 472.106
1169 0 87.3468 11.5288 1007 135.102 1280.9 470.131
1170 0 92.3102 11.5805 1069 137.792 1280.37 467.989
1171 0 94.6098 11.0559 1046 134.578 1280.47 468.87
1172 0 92.4506 10.0811 932 138.447 1280.49 470.874
1173 1 56.2193 10.0321 564 145.385 1279.14 487.27
1174 0 57.1813 11.5422 660 134.179 1279.6 487.239
1175 0 56.2359 11.2206 631 136.022 1280.01 486.372
1176 0 58.0937 11.5159 669 134.112 1279.96 485.576
1177 0 59.3467 11.5423 685 133.19 1280.41 483.242
1178 0 60.3022 11.6414 702 134.226 1281.02 485.756
1179 0 61.683 12.3697 763 142.397 1280.59 481.877
1180 0 64.5983 12.1675 786 145.623 1280.9 481.668
1181 0 65.5034 12.6711 830 147.192 1281.17 481.669
1182 0 66.5615 12.7101 846 150.809 1281.15 481.832
1183 0 68.3192 12.5441 857 153.552 1280.91 480.935
1184 0 68.3594 12.7854 874 154.125 1280.98 480.045
1185 0 71.1714 12.3224 877 160.666 1280.85 480.586
1186 0 74.2226 12.8802 956 155.786 1281.09 479.471
1187 0 74.1272 13.3419 989 153.308 1281.68 478.814
1188 0 76.2287 12.9216 985 160.709 1281.02 478.058
1189 0 78.1581 12.8713 1006 158.39 1281.15 476.419
1190 0 81.1809 13.1928 1071 159.774 1281.24 475.268
1191 0 84.1597 13.0941 1102 162.072 1280.6 471.878
1192 0 85.1569 12.976 1105 161.876 1280.84 472.535
1193 0 87.1437 13.449 1172 162.188 1282.24 472.103
1194 0 92.1596 12.8798 1187 165.288 1280.95 471.312
1195 1 47.1562 11.7482 554 168.872 1280.11 491.365
1196 0 49.09 12.4465 611 168.354 1280.07 489.845
1197 0 50.102 13.0334 653 160.043 1280.07 489.047
1198 0 52.2488 13.2634 693 154.144 1279.44 487.975
1199 0 54.1719 13.1803 714 162.443 1279.4 487.329
1200 0 54.1738 13.309 721 167.681 1280.59 486.816
1201 0 54.2368 13.6254 739 165.633 1280.65 486.714
1202 0 57.0928 13.5394 773 164.661 1280.47 484.768
1203 0 59.1392 13.3076 787 165.122 1280.75 483.773
1204 0 61.3024 13.6699 838 161.797 1280.21 481.979
1205 0 62.254 13.5895 846 166.191 1279.97 481.726
1206 0 64.3623 13.5172 870 166.445 1280.45 481.16
1207 0 67.0803 13.5211 907 158.271 1280.64 479.776
1208 0 69.0657 13.5378 935 155.881 1280.31 479.511
1209 0 70.1377 13.8157 969 154.822 1280.76 478.522
1210 0 72.228 13.6789 988 163.702 1281.35 477.093
1211 0 73.2121 13.5906 995 163.492 1280.83 477.293
1212 0 74.0977 14.049 1041 164.793 1280.93 476.668
1213 0 78.13 14.2967 1117 163.231 1280.5 474.735
1214 0 79.2694 14.0912 1117 162.406 1280.24 473.751
1215 0 81.1904 14.0411 1140 166.501 1281.26 472.882
1216 0 84.1618 14.0681 1184 169.647 1281.76 473.11
1217 0 87.1912 13.7973 1203 167.565 1282.02 471.53
1218 0 89.1419 14.1796 1264 164.835 1281.61 469.643
1219 0 90.0539 14.5024 1306 170.718 1281.97 467.992
1220 0 95.2499 14.2887 1361 27.6943 1281.37 466.564
1221 0 98.2194 13.9993 1375 162.799 1281.85 465.458
1222 0 101.104 14.2329 1439 170.584 1281.81 463.418
1223 1 51.053 12.5164 639 161.017 1281.68 489.92
1224 0 51.0542 13.3192 680 159.626 1282.19 488.909
1225 0 53.0936 13.3161 707 168.321 1281.6 487.829
1226 0 55.1353 13.3127 734 172.51 1281.06 486.781
1227 0 56.0917 13.9415 782 166.68 1281.21 486.092
1228 0 59.1094 13.4327 794 160.136 1280.63 484.616
1229 0 60.1391 13.4189 807 163.882 1280.91 484.936
1230 0 61.1082 12.9933 794 165.545 1281.82 483.037
1231 0 62.0638 13.76 854 166.335 1282.09 483.249
1232 0 64.0269 13.8379 886 164.856 1282.38 481.852
1233 0 67.1552 13.6549 917 164.057 1281.73 480.868
1234 0 68.1004 13.7004 933 167.219 1281.78 479.932
1235 0 70.1098 14.1207 990 165.95 1281.46 478.13
1236 0 72.1264 14.2805 1030 167.887 1281.42 476.951
1237 0 75.0459 13.9515 1047 155.995 1282.68 476.216
1238 0 77.097 14.2159 1096 167.612 1282.39 474.32
1239 0 81.3183 14.2772 1161 163.627 1281.73 472.364
1240 0 85.1645 13.926 1186 161.484 1281.61 470.512
1241 0 87.216 13.9883 1220 167.894 1281.34 469.649
1242 0 91.2196 13.9334 1271 159.4 1281.08 467.338
1243 0 94.4623 13.7833 1302 101.381 1282.79 464.792
1244 1 47.171 12.4441 587 170.221 1281.39 487.988
1245 0 48.1302 13.0064 626 161.244 1281.22 487.963
1246 0 49.145 13.6942 673 161.106 1280.63 485.92
1247 0 53.0606 12.8155 680 164.524 1280.78 486.021
1248 0 53.0454 13.8938 737 163.497 1281.21 485.003
1249 0 55.0647 13.5295 745 166.521 1281.23 484.803
1250 0 57.0454 13.3402 761 163.719 1281.38 484.02
1251 0 60.1597 13.5473 815 165.707 1281.32 482.75
1252 0 62.1339 13.6318 847 160.874 1281.54 482.298
1253 0 63.0452 13.8472 873 159.987 1282.01 480.876
1254 0 65.1251 13.6967 892 161.519 1281.37 479.823
1255 0 65.2874 13.678 893 165.514 1282.29 477.881
1256 0 69.2699 13.8155 957 164.767 1282.94 476.692
1257 0 71.2429 13.6575 973 162.443 1282.42 476.563
1258 0 72.2258 13.6239 984 157.03 1282.7 476.112
1259 0 75.1619 13.7171 1031 161.069 1281.87 474.07
1260 0 78.146 13.3468 1043 162.778 1282.58 472.209
1261 0 80.2344 13.5478 1087 165.626 1282.43 470.142
1262 0 81.1634 13.824 1122 163.099 1282.13 469.687
1263 0 86.1587 13.0689 1126 165.115 1282.59 468.978
1264 0 89.1929 13.1849 1176 161.671 1282.06 466.453
1265 1 43.1545 12.2351 528 163.248 1282 487.116
1266 0 48.0916 11.9148 573 159.414 1282.41 485.675
1267 0 48.1653 12.9554 624 159.013 1281.77 484.614
1268 0 49.1644 12.9158 635 152.534 1282.32 484.032
1269 0 50.12 13.2482 664 156.806 1282.56 484.142
1270 0 52.1372 13.2535 691 154.781 1281.92 483.363
1271 0 53.0724 13.4533 714 155.564 1282.54 482.29
1272 0 54.1754 13.4748 730 151.14 1282.35 481.041
1273 0 55.1359 14.165 781 150.077 1282.25 479.771
1274 0 60.0972 13.0955 787 150.677 1282.39 478.917
1275 0 61.1334 13.7241 839 133.719 1282.17 478.024
1276 0 61.1334 13.7241 839 147.603 1282.17 478.024
1277 0 65.3317 13.485 881 150.179 1282.27 477.47
1278 0 68.235 13.3656 912 149.95 1281.63 475.011
1279 0 71.3885 13.3355 952 151.776 1281.4 474.058
1280 0 71.2267 14.1239 1006 147.379 1281.68 472.076
1281 0 75.2019 13.4305 1010 144.454 1281.87 472.068
1282 0 80.2126 13.2897 1066 147.871 1281.96 471.212
1283 1 40.1517 11.4565 460 150.167 1281.4 488.543
1284 0 39.2345 11.8518 465 150.628 1282.39 488.856
1285 0 41.1611 12.4146 511 145.593 1281.97 487.46
1286 0 42.0538 12.9596 545 152.163 1282.57 488.062
1287 0 44.0908 12.633 557 157.092 1282.74 488.409
1288 0 45.0338 12.857 579 155.893 1282.48 487.687
1289 0 46.163 12.9758 599 157.91 1282.08 486.92
1290 0 47.1917 13.3074 628 156.524 1281.92 484.93
1291 0 50.1079 13.2913 666 150.782 1282.15 484.706
1292 0 52.2002 13.1226 685 156.496 1282.36 483.673
1293 0 54.119 12.7866 692 115.38 1282.05 483.436
1294 0 56.1141 13.4726 756 148.763 1281.88 482.542
1295 0 56.1141 13.4726 756 158.61 1280.88 482.542
1296 0 60.3765 13.7471 830 159.126 1282.12 480.063
1297 0 64.1213 13.069 838 157.798 1282.3 478.804
1298 0 66.1289 13.6854 905 156.539 1282.39 477.581
1299 0 67.1575 13.4013 900 168.818 1282.22 477.428
1300 0 70.1179 13.4345 942 169.02 1282.1 475.889
1301 0 73.2258 14.0797 1031 163.719 1282.63 474.031
1302 0 76.0885 13.7997 1050 170.29 1284.56 472.806
1303 0 79.1201 13.865 1097 169.179 1284.36 471.394
1304 0 81.2972 14.1579 1151 167.45 1283.33 470.817
1305 0 84.246 13.9591 1176 171.294 1282.87 468.754
1306 1 40.1412 12.9792 521 170.768 1282.46 492.892
1307 0 40.1474 13.027 523 161.424 1282.07 493.073
1308 0 42.161 12.4285 524 173.437 1282.61 492.185
1309 0 43.0542 13.2391 570 164.977 1282.39 490.946
1310 0 45.0687 13.2908 599 171.833 1282.55 490.461
1311 0 46.2687 13.0758 605 166.24 1282.67 489.744
1312 0 47.1265 13.7078 646 169.308 1282.25 488.752
1313 0 48.1189 13.2381 637 173.374 1282.48 488.311
1314 0 50.2129 13.9207 699 169.32 1282.42 487.312
1315 0 52.023 13.7247 714 170.415 1282.54 487.328
1316 0 53.1269 13.8913 738 167.4 1282.59 486.075
1317 0 55.3954 13.8098 765 172.99 1283.11 485.357
1318 0 57.1624 14.1876 811 167.842 1283.11 484.175
1319 0 58.2313 14.5455 847 168.237 1282.95 483.57
1320 0 61.3048 14.0283 860 168.094 1283.56 482.65
1321 0 63.1952 14.4315 912 167.818 1283.21 480.809
1322 0 65.37 14.4868 947 160.563 1283.88 478.978
1323 0 67.45 14.3069 965 161.072 1283.52 477.965
1324 0 69.6714 14.2096 990 165.852 1283.68 477.46
1325 0 72.5907 13.9687 1014 173.832 1283.09 476.651
1326 0 72.6687 14.4767 1052 171.672 1283.43 474.74
1327 0 76.523 14.1134 1080 175.115 1282.6 473.465
1328 0 80.6245 13.7179 1106 169.061 1282.7 471.446
1329 0 82.6204 13.9675 1154 170.488 1282.71 470.675
1330 1 37.1844 13.9037 517 177.114 1282.22 491.002
1331 0 39.3089 14.2207 559 173.483 1282.8 490.394
1332 0 41.1564 14.1655 583 170.702 1284.05 490.525
1333 0 42.1246 13.9586 588 16.3486 1283.35 488.337
1334 0 44.4129 14.2526 633 175.635 1282.19 488.531
1335 0 44.2726 14.5011 642 172.701 1282.57 487.731
1336 0 47.2794 14.4249 682 169.613 1282.31 486.044
1337 0 48.3748 14.9458 723 170.611 1282.91 485.329
1338 0 49.4059 14.897 736 169.818 1282.98 485.265
1339 0 52.3901 14.2012 744 169.375 1282.35 484.5
1340 0 52.3954 14.8296 777 168.425 1283.73 483.793
1341 0 54.4662 14.5411 792 173.23 1283.58 483.264
1342 0 55.6391 14.5401 809 173.268 1283.47 482.11
1343 0 56.5538 14.8001 837 166.706 1283.5 481.384
1344 0 59.5169 14.3993 857 168.809 1283.4 480.595
1345 0 62.5041 14.1751 886 169.437 1284.06 479.115
1346 0 63.4845 14.1767 900 158.053 1284.13 477.904
1347 0 66.5688 13.9405 928 169.699 1283.89 476.719
1348 0 69.4272 14.0579 976 169.888 1283.73 476.418
1349 1 33.5496 13.0553 438 170.911 1284.44 492.151
1350 0 36.4019 12.8839 469 175.797 1284.36 491.565
1351 0 36.3076 13.6886 497 170.525 1285.47 491.161
1352 0 37.4983 13.814 518 171.635 1284.86 491.039
1353 0 38.8353 13.8019 536 171.513 1284.68 490.554
1354 0 39.5595 13.8273 547 169.629 1284.46 489.801
1355 0 39.689 14.2105 564 171.112 1284.28 489.044
1356 0 41.655 13.9719 582 168.983 1284.22 488.983
1357 0 43.4445 13.3504 580 163.948 1284.31 488.119
1358 0 43.4282 14.0922 612 162.235 1284.37 487.531
1359 0 44.6117 14.3012 638 176.364 1284.78 487.983
1360 0 46.5539 14.1986 661 171.481 1284.48 486.821
1361 0 48.4455 14.0983 683 167.622 1284.01 486.536
1362 0 49.4219 14.2852 706 172.724 1285.36 485.251
1363 0 51.5263 14.2452 734 171.399 1285.66 483.884
1364 0 53.3937 13.9155 743 170.847 1284.83 484.242
1365 0 54.416 14.2605 776 171.706 1284.5 483.621
1366 0 54.7029 14.789 809 173.565 1283.89 483.731
1367 0 57.4683 14.4775 832 161.935 1283.74 481.787
1368 0 59.2697 14.3243 849 170.926 1283.8 481.179
1369 0 61.3508 14.1971 871 171.369 1283.66 481.025
1370 0 62.4474 14.5723 910 169.02 1283.75 480.449
1371 0 66.3647 14.6765 974 173.227 1283.42 479.411
1372 0 66.3523 14.7244 977 173.337 1284.1 478.144
1373 0 68.5849 14.9596 1026 166.174 1284.23 477.131
1374 0 70.3625 14.4395 1016 166.076 1283.84 475.872
1375 1 37.3651 13.3815 500 175.594 1284.13 491.126
1376 0 35.3221 13.9007 491 172.283 1285.5 491.126
1377 0 38.431 13.5828 522 174.851 1285.62 491.51
1378 0 38.339 13.9023 533 173.591 1285.37 491.754
1379 0 40.215 13.5273 544 176.206 1285.29 490.858
1380 0 42.2485 13.6573 577 169.418 1285.19 490.471
1381 0 42.3408 13.8165 585 178.682 1285.02 490.822
1382 0 43.3236 14.1263 612 171.73 1285.4 490.699
1383 0 44.3637 14.2008 630 171.629 1285.54 490.078
1384 0 45.415 14.2464 647 170.654 1285.2 489.298
1385 0 47.2498 14.053 664 167.637 1284.98 489.622
1386 0 46.3758 14.9216 692 170.744 1284.88 488.65
1387 0 47.3764 14.0576 666 162.982 1285.83 488.411
1388 0 49.3338 14.635 722 169.335 1285.48 488.442
1389 0 51.2853 14.7411 756 173.81 1284.62 487.456
1390 0 51.3245 15.0221 771 171.868 1285.3 487.778
1391 0 53.2256 15.3685 818 173.543 1285.07 486.334
1392 0 54.449 15.0416 819 172.208 1284.96 485.869
1393 0 56.2699 15.3368 863 169.465 1285.28 486.295
1394 0 54.4383 15.7426 857 168.946 1285.57 485.593
1395 0 58.5124 15.3301 897 165.517 1285.29 484.641
1396 0 59.639 15.5435 927 173.368 1284.88 483.978
1397 0 61.5165 15.4593 951 176.217 1283.78 482.897
1398 0 63.4252 16.1608 1025 170.97 1283.92 482.313
1399 0 65.6546 15.1094 992 170.065 1284.66 481.634
1400 0 66.4947 16.3472 1087 163.57 1284.83 480.098
1401 0 70.7757 15.6268 1106 173.891 1283.8 479.867
1402 0 71.5879 15.4076 1103 168.587 1283.45 479.045
1403 0 72.8028 16.6752 1214 168.92 1284.06 477.258
1404 0 74.5426 16.7689 1250 167.319 1282.81 476.879
1405 0 77.3826 16.3344 1264 165.23 1282.41 474.133
1406 1 36.352 13.9745 508 159.118 1283.32 493.4
1407 0 40.4343 14.0227 567 161.358 1283.35 492.892
1408 0 38.2299 15.616 597 163.451 1283.2 492.797
1409 0 42.2976 15.6273 661 155.944 1282.89 492.138
1410 0 44.3969 15.9921 710 161.384 1283.39 490.762
1411 0 46.7665 15.7591 737 156.512 1283.36 490.232
1412 0 46.4072 15.1054 701 158.776 1282.89 490.338
1413 0 47.3262 15.8052 748 160.313 1283.7 490.283
1414 0 49.4792 15.3802 761 162.497 1283.37 488.49
1415 0 49.6758 15.6414 777 166.647 1282.07 488.268
1416 0 50.5376 16.7796 848 158.017 1281.84 486.79
1417 0 52.2458 16.8435 880 155.716 1281.8 486.58
1418 0 53.441 17.1591 917 154.468 1282.35 486.348
1419 0 52.3978 16.7373 877 158.497 1282.47 484.995
1420 0 52.4999 15.6762 823 168.044 1281.11 485.011
1421 0 55.2861 16.9482 937 153.72 1281.71 479.466
1422 0 54.7788 16.594 909 162.636 1280.74 475.547
1423 0 54.4561 15.8109 861 161.761 1280.76 475.265
1424 0 53.4115 15.3712 821 150.267 1281.52 475.993
1425 0 48.0843 15.1609 729 160.082 1281.89 405.211
1426 0 51.1049 15.6345 799 149.129 1281.63 402.526
1427 0 50.1691 15.8863 797 157.784 1281.47 402.099
1428 0 53.107 15.8925 844 155.935 1281.4 400.334
1429 0 54.0847 15.9749 864 153.087 1281.04 400.037
1430 0 56.1139 16.1101 904 153.768 1281 399.841
1431 0 56.1054 16.0769 902 154.244 1281.31 398.622
1432 0 56.0834 15.9049 892 153.313 1280.67 399.685
1433 0 57.0924 15.9391 910 165.902 1280.96 399.873
1434 0 59.1924 15.2384 902 167.328 1280.45 399.887
1435 0 60.1607 15.4253 928 163.454 1280.48 399.427
1436 0 61.1894 14.6594 897 175.788 1279.91 397.809
1437 0 60.0887 14.5285 873 176.588 1279.39 399.044
1438 0 64.139 14.7492 946 173.724 1279.89 398.612
1439 0 66.1552 14.6776 971 174.46 1280.01 397.384
1440 0 65.1279 15.032 979 169.948 1279.95 397.362
1441 0 71.0907 14.3197 1018 168.725 1281.3 397.215
1442 0 74.2595 14.382 1068 172.885 1280.68 398.44
1443 0 74.0798 14.7004 1089 167.893 1280.31 397.657
1444 0 80.1742 14.5807 1169 173.479 1279.37 397.113
1445 0 81.294 14.4045 1171 175.775 1280 396.636
1446 0 84.1461 14.7125 1238 170.167 1280.55 395.666
1447 0 87.1603 14.8003 1290 171.093 1280.45 395.746
1448 0 90.1328 14.5452 1311 176.584 1279.7 396.998
1449 0 94.1855 14.5351 1369 165.869 1279.87 395.589
1450 0 99.1574 14.5123 1439 170.698 1279.8 395.096
1451 0 102.292 14.6248 1496 162.458 1280.29 394.008
1452 1 52.166 13.6104 710 177 1279.79 417.096
1453 0 54.1312 13.8368 749 176.668 1279.52 418.701
1454 0 57.1965 13.4449 769 175.687 1279.88 420.098
1455 0 58.1543 13.5846 790 176.88 1280.58 423.006
1456 0 61.211 13.6413 835 172.308 1280.1 422.562
1457 0 62.115 14.119 877 183.854 1279.82 423.611
1458 0 64.23 13.9966 899 171.247 1279.81 424.516
1459 0 66.1625 14.0714 931 172.155 1280.49 424.869
1460 0 69.1592 13.8955 961 173.377 1280.56 424.515
1461 0 72.2325 13.858 1001 174.188 1279.71 426.273
1462 0 73.3689 13.6161 999 178.89 1279.83 430.451
1463 0 76.31 14.0611 1073 172.782 1279.88 427.432
1464 0 78.1587 14.1123 1103 168.888 1280.16 428.494
1465 0 81.1606 14.0216 1138 168.801 1280.6 429.664
1466 0 85.1122 14.0168 1193 174.314 1280.16 424.532
1467 0 87.3107 14.0304 1225 173.639 1280.74 425.612
1468 0 90.1928 14.0477 1267 176.91 1280.97 431.063
1469 0 93.3157 13.6097 1270 171.646 1281.01 434.643
1470 0 97.3368 13.3762 1302 175.231 1281.45 436.736
1471 0 90.1766 14.0502 1267 172.906 1281.67 431.3
1472 0 90.318 13.5189 1221 175.523 1281.48 431.792
1473 0 94.2294 13.8173 1302 170.851 1281.78 433.398
1474 0 58.1455 13.0363 758 167.141 1281.73 414.993
1475 0 59.0264 12.4182 733 167.858 1282.54 411.293
1476 0 60.1362 13.4029 806 164.266 1283.15 409.733
1477 0 63.0794 13.0153 821 168.35 1283.61 412.283
1478 0 64.1834 12.7136 816 161.582 1283.49 399.183
1479 0 65.1346 13.2188 861 153.816 1283.45 390.311
1480 0 69.1946 13.238 916 165.318 1283.6 394.278
1481 0 71.0617 13.1716 936 163.097 1283.44 398.487
1482 0 72.1126 13.368 964 171.314 1283.84 402.691
1483 0 75.0798 13.7986 1036 163.879 1283.74 406.319
1484 0 78.1721 13.1889 1031 170.744 1283.67 410.265
1485 0 78.0971 13.9314 1088 163.884 1283.1 412.87
1486 0 83.088 13.576 1128 167.753 1282.84 415.857
1487 1 16.0022 11.9984 192 140.005 1282.1 440.734
1488 0 21.0176 13.1319 276 148.297 1282.8 443.42
1489 0 25.0059 13.4768 337 151.083 1282.45 445.178
1490 0 29.0164 14.0265 407 151.713 1282.05 447.295
1491 0 99.31 13.4931 1340 168.222 1283.47 385.996
1492 0 102.155 13.3718 1366 164.442 1283.36 387.773
1493 1 51.1127 11.7192 599 161.093 1283.33 414.452
1494 0 52.0704 12.0222 626 160.934 1283.01 415.519
1495 0 53.0741 12.605 669 159.241 1282.75 410.439
1496 0 54.1479 12.4659 675 156.973 1282.63 413.939
1497 0 56.0948 12.7998 718 159.822 1282.71 418.178
1498 0 58.0512 13.0747 759 164.93 1282.29 421.528
1499 0 60.1098 12.7766 768 158.669 1281.87 424.124
1500 0 61.1517 13.213 808 163.955 1282.49 406.4
1501 0 64.0577 13.082 838 176.865 1282.33 407.84
1502 0 65.1093 12.9167 841 166.161 1282.15 409.492
1503 0 67.1288 12.975 871 170.177 1281.83 412.02
1504 0 70.1461 13.2438 929 170.724 1281.98 415.495
1505 0 72.1901 13.3259 962 166.955 1281.16 421.42
1506 0 74.2206 13.2578 984 161.124 1281.45 426.493
1507 0 74.1693 13.5905 1008 162.302 1281.28 431.009
1508 0 79.3234 13.4891 1070 164.589 1281.01 436.83
1509 0 81.1313 13.6445 1107 162.336 1281.55 441.393
1510 0 82.2197 13.4518 1106 162.472 1281.17 443.764
1511 0 70.1045 15.6053 1094 161.087 1281.18 435.074
1512 0 74.1592 15.7769 1170 158.997 1281.86 436.524
1513 0 76.2457 15.5943 1189 159.128 1281.08 437.931
1514 0 80.2225 15.7562 1264 157.941 1281.63 439.502
1515 0 62.257 13.6852 852 163.691 1282.36 432.435
1516 1 103.313 13.551 1400 168.91 1281.84 405.709
1517 0 105.41 13.8127 1456 166.45 1282.09 402.003
1518 0 109.211 14.2294 1554 166.856 1281.33 401.638
1519 1 59.4247 12.234 727 163.974 1280.07 429.549
1520 0 61.3083 12.6084 773 157.388 1280.46 426.442
1521 0 63.2201 13.0655 826 158.127 1280.77 424.686
1522 0 66.1745 12.9204 855 159.673 1280.65 417.778
1523 0 68.1027 12.672 863 157.803 1280 422.625
1524 0 70.2963 13.0448 917 161.053 1280.56 424.404
1525 0 73.1269 12.7586 933 162.882 1280.02 425.293
1526 0 74.1478 13.5405 1004 162.386 1279.44 428.073
1527 0 77.1594 13.3879 1033 156.594 1279.3 430.407
1528 0 80.1582 13.3611 1071 159.304 1280.19 435.331
1529 0 83.3714 13.086 1091 163.872 1279.07 439.902
1530 0 84.2273 12.9174 1088 161.438 1280.23 443.926
1531 0 88.1949 12.9713 1144 162.048 1279.55 446.316
1532 0 91.2018 13.1467 1199 152.45 1279.4 447.206
1533 0 95.4094 13.0909 1249 157.979 1279.09 450.548
1534 0 31.1017 12.9575 403 145.434 1278.78 461.965
1535 0 35.1791 13.3886 471 141.467 1278.37 463.977
1536 0 39.2056 13.3909 525 149.053 1278.47 465.598
1537 0 59.1928 11.2007 663 158.738 1280.58 419.689
1538 0 58.1274 11.2167 652 153.397 1281.17 418.758
1539 0 60.3644 11.5797 699 151.286 1281.36 422.213
1540 0 61.3586 12.6959 779 148.228 1280.66 426.779
1541 0 62.1995 12.3474 768 149.286 1280.9 430.85
1542 0 63.2637 12.8352 812 151.702 1280.83 433.68
1543 0 66.3332 12.2714 814 163.725 1280.52 433.272
1544 0 68.4865 12.236 838 159.903 1280.25 439.104
1545 0 70.3188 12.5855 885 145.364 1279.86 444.325
1546 0 70.2129 12.8751 904 158.535 1280.18 447.238
1547 0 73.2037 12.7043 930 162.499 1281.1 447.848
1548 0 75.2737 13.3513 1005 156.867 1281.4 418.675
1549 0 79.367 12.6627 1005 156.092 1281.68 420.872
1550 0 80.3486 12.4707 1002 158.517 1281.69 423.336
1551 0 83.3672 12.331 1028 155.718 1281.63 426.519
1552 0 87.5119 12.8897 1128 155.927 1281.06 427.235
1553 0 89.4058 12.8962 1153 159.872 1281.04 428.137
1554 0 92.1613 12.3371 1137 155.157 1280.98 422.118
1555 0 95.1326 13.087 1245 148.084 1280.56 421.937
1556 0 51.0817 11.0803 566 145.56 1280.1 415.447
1557 0 52.0972 11.8049 615 145.498 1280.88 413.044
1558 0 53.1878 11.826 629 148.893 1281.02 414.262
1559 0 54.2112 12.0455 653 143.674 1281.8 416.369
1560 0 55.2389 11.7128 647 151.776 1281.82 417.954
1561 0 57.1513 12.0207 687 141.713 1281.82 419.118
1562 0 58.4905 12.2584 717 139.423 1280.95 421.409
1563 0 59.4242 12.5033 743 151.144 1282.17 422.464
1564 0 61.3535 12.7621 783 151.658 1282.28 423.257
1565 0 62.3146 12.6295 787 148.278 1282.13 425.219
1566 0 64.3858 12.8444 827 144.368 1281.69 426.184
1567 0 66.3897 12.999 863 146.498 1282.45 425.454
1568 0 67.2839 12.7074 855 144.433 1282.73 426.904
1569 0 70.4202 13.0502 919 145.871 1282.81 426.573
1570 0 71.3543 13.2578 946 147.571 1282.91 428.871
1571 0 74.5531 12.9974 969 149.889 1282.4 429.699
1572 0 76.4549 13.5243 1034 141.635 1282.49 424.459
1573 0 78.1684 13.4325 1050 147.492 1282.47 426.205
1574 0 82.3218 12.9249 1064 147.149 1282.05 428.084
1575 0 82.3628 13.3677 1101 148.55 1282.48 429.673
1576 1 86.247 13.3338 1150 145.007 1282.18 420.421
1577 0 88.2201 13.1263 1158 141.981 1282.84 422.458
1578 0 89.538 13.391 1199 144.402 1281.97 422.948
1579 0 95.374 13.3894 1277 146.662 1282.06 422.477
1580 0 98.1281 13.1359 1289 150.815 1282.12 421.248
1581 0 100.407 12.9672 1302 154.147 1282.27 421.057
1582 0 103.242 13.2988 1373 148.333 1282.08 422.044
1583 0 107.445 13.5046 1451 149.198 1282.42 420.026
1584 1 54.2849 12.0476 654 155.705 1282.44 445.824
1585 0 58.1833 12.4262 723 146.34 1282.89 447.289
1586 0 60.3765 12.4055 749 155.31 1282.85 449.945
1587 0 61.2016 12.5323 767 156.186 1282.47 453.356
1588 0 61.2459 13.0294 798 157.35 1282.71 453.595
1589 0 66.1818 12.7679 845 157.196 1283.13 455.495
1590 0 67.324 12.5067 842 161.406 1283.33 458.059
1591 0 70.3601 12.635 889 158.21 1282.86 460.155
1592 0 71.3323 13.1778 940 158.295 1282.57 456.116
1593 0 74.3302 13.1171 975 156.526 1282.55 447.65
1594 0 76.404 13.1668 1006 153.135 1284.04 439.561
1595 0 79.3161 13.276 1053 155.573 1282.41 435.256
1596 0 82.3442 12.8485 1058 155.755 1282.13 440.118
1597 0 86.3491 12.8548 1110 154.577 1282.04 444.385
1598 0 88.3148 13.3613 1180 149.312 1282.4 443.873
1599 0 89.3462 13.1511 1175 159.169 1283.18 445.248
1600 0 93.2386 13.4386 1253 156.69 1283.54 443.9
1601 0 71.3571 13.1311 937 149.295 1282.98 440.601
1602 0 75.2691 13.299 1001 149.925 1282.8 442.242
1603 0 81.3007 13.3701 1087 153.915 1282.47 444.864
1604 0 54.2252 11.8211 641 149.702 1282.46 433.643
1605 0 53.1621 12.2079 649 149.874 1282.1 431.017
1606 0 57.1234 12.0266 687 147.806 1282.11 432.384
1607 0 59.2024 12.3137 729 145.11 1281.51 433.923
1608 0 60.1731 12.3311 742 145.772 1281.92 435.713
1609 0 61.1364 12.8238 784 146.81 1281.69 436.906
1610 0 64.1535 12.7351 817 147.639 1281.93 437.621
1611 0 65.1752 12.9804 846 141.189 1281.34 440.125
1612 0 66.1421 12.9418 856 145.982 1281.33 441.308
1613 0 70.1528 12.8434 901 142.023 1280.87 443.656
1614 0 72.2302 13.0416 942 141.257 1280.56 440.794
1615 0 74.2779 12.7763 949 151.132 1280.39 442.614
1616 0 75.1806 13.3944 1007 149.038 1280.23 444.214
1617 0 78.2893 13.1308 1028 148.982 1280.43 436.764
1618 0 80.3344 13.1699 1058 137.664 1279.75 438.675
1619 0 83.2265 13.1328 1093 137.985 1279.54 441.954
1620 0 84.174 13.5196 1138 151.854 1278.85 446.003
1621 0 87.3443 12.9373 1130 152.012 1279.61 447.504
1622 0 91.501 12.896 1180 159.036 1279.46 447.48
1623 0 95.2013 13.2141 1258 151.855 1279.54 430.702
1624 1 50.3037 11.3709 572 156.517 1280.11 457.4
1625 0 53.3848 11.6512 622 159.5 1279.55 460.691
1626 0 53.4347 12.1082 647 154.498 1279.53 456.25
1627 0 56.2478 12.0538 678 150.578 1278.78 446.715
1628 0 58.2345 11.9688 697 151.31 1278.2 449.683
1629 0 60.2401 12.2344 737 142.088 1279.1 450.558
1630 0 60.3119 12.2364 738 150.988 1278.37 451.44
1631 0 62.218 11.9419 743 148.704 1277.99 450.604
1632 0 65.1897 12.5327 817 148.364 1278.48 451.84
1633 0 66.2643 12.3898 821 144.587 1278.77 455.752
1634 0 68.2211 12.137 828 152.1 1277.86 457.998
1635 0 70.2036 12.3925 870 144.118 1278.38 458.184
1636 0 73.2324 12.6583 927 148.23 1278.09 457.018
1637 0 73.2265 12.7686 935 139.911 1277.8 457.81
1638 0 75.3512 13.1385 990 133.3 1277.92 456.173
1639 0 80.1475 12.7265 1020 142.704 1279.89 441.098
1640 0 81.1078 13.0937 1062 148.966 1279.13 444.587
1641 0 84.161 13.1177 1104 135.498 1280.43 445.476
1642 0 86.1907 13.1917 1137 145.215 1280.18 445.006
1643 0 90.2934 13.2457 1196 147.126 1280.38 442.051
1644 0 92.1524 13.0328 1201 149.158 1280.41 444.543
1645 0 15.0042 11.5967 174 116.937 1281.36 468.667
1646 0 21.0037 11.9979 252 122.889 1280.72 471.294
1647 0 25.0563 12.2125 306 124.536 1280.24 472.801
1648 0 112.372 17.1751 1930 120.256 1281.01 403.484
1649 0 115.293 16.315 1881 124.795 1280.23 404.432
1650 0 116.246 16.9726 1973 124.571 1280.95 403.908
1651 0 118.343 16.2494 1923 124.419 1280.86 405.761
1652 0 120.262 15.8488 1906 137.199 1281.07 406.877
1653 0 122.296 15.7732 1929 133.983 1280.52 406.839
1654 0 122.147 13.8358 1690 139.176 1280.12 403.578
1655 0 127.153 13.9438 1773 149.722 1279.82 402.904
1656 0 131.159 13.8001 1810 144.06 1280.95 402.649
1657 0 133.231 14.3585 1913 139.427 1280.67 404.294
1658 0 139.224 13.7189 1910 145.635 1280.99 404.515
1659 0 140.538 14.3235 2013 138.279 1280.92 407.741
1660 0 145.664 13.9636 2034 144.213 1280.54 410.778
1661 0 150.532 14.0966 2122 140.934 1280.54 412.878
1662 0 154.366 14.5369 2244 141.292 1281.1 397.076
1663 0 161.433 14.0244 2264 142.313 1281.2 394.979
1664 0 165.667 14.6378 2425 134.469 1280.68 393.484
1665 0 170.392 14.1673 2414 144.286 1281.38 393.574
1666 0 177.412 14.61 2592 140.498 1282 397.047
1667 0 182.518 14.3438 2618 144.006 1281.64 397.885
1668 0 91.421 13.0714 1195 136.664 1280.67 424.065
1669 0 96.2106 12.5454 1207 148.326 1280.97 426.884
1670 0 96.2815 12.5258 1206 148.292 1281.57 427.537
1671 0 98.1753 12.4675 1224 147.164 1281.81 427.414
1672 0 102.306 12.707 1300 144.808 1281.72 425.932
1673 0 103.138 13.2831 1370 148.172 1282.06 423.946
1674 0 106.22 13.4249 1426 145.431 1283.11 423.268
1675 0 110.334 13.2416 1461 147.711 1282.73 408.446
1676 0 111.345 13.1842 1468 140.422 1283.34 408.758
1677 0 117.284 13.3436 1565 145.58 1283.63 410.066
1678 1 67.2708 11.4314 769 150.999 1283.07 441.373
1679 0 68.2014 12.4484 849 140.971 1283.2 443.612
1680 0 70.1292 12.4199 871 141.169 1282.59 446.509
1681 0 72.1884 12.0379 869 142.597 1282.4 448.343
1682 0 75.1853 12.7286 957 141.809 1282.81 448.155
1683 0 78.4133 12.804 1004 144.239 1283.13 431.597
1684 0 80.4176 12.7211 1023 143.507 1283.21 432.164
1685 0 81.5144 12.8689 1049 146.276 1283.02 426.579
1686 0 84.4884 13.1734 1113 144.3 1282.56 430.566
1687 0 88.4962 13.0401 1154 139.93 1282.39 434.648
1688 0 91.4739 12.9108 1181 143.298 1282.53 432.119
1689 0 92.3175 13.042 1204 141.937 1282.27 437.364
1690 0 95.31 13.1885 1257 151.727 1282.54 439.529
1691 0 101.227 13.0993 1326 147.677 1281.97 437.759
1692 0 102.497 13.3467 1368 145.707 1282.25 430.936
1693 0 106.438 13.4162 1428 142.476 1282.41 423.774
1694 0 109.248 13.1078 1432 142.586 1281.65 423.299
1695 0 59.1364 11.7018 692 133.629 1282.28 426.776
1696 0 51.102 13.9133 711 126.428 1282.27 420.39
1697 0 52.1037 13.4923 703 123.528 1281.86 419.832
1698 0 54.064 14.0019 757 124.362 1282.13 421.423
1699 0 57.0781 14.0334 801 125.561 1281.91 422.449
1700 0 70.2108 12.9325 908 129.722 1282.04 406.803
1701 0 70.2534 12.8819 905 123.066 1282.23 406.397
1702 0 73.4081 12.124 890 129.61 1281.83 408.191
1703 0 73.1749 12.6546 926 129.757 1281.7 409.969
1704 0 77.3397 12.4257 961 129.624 1281.34 412.499
1705 0 78.2736 12.418 972 125.542 1280.67 414.272
1706 0 80.3751 12.5661 1010 128.107 1281.74 417.12
1707 0 83.416 12.4916 1042 121.947 1281.33 419.587
1708 0 86.4356 12.6568 1094 126.208 1281.34 424.857
1709 1 46.3374 10.4235 483 125.484 1280.78 451.718
1710 0 47.1138 9.97584 470 121.84 1280.63 458.174
1711 0 48.0651 10.7978 519 120.304 1279.44 463.734
1712 0 51.1294 10.9135 558 124.41 1279.76 458.414
1713 0 50.2334 11.3072 568 126.217 1279.92 460.208
1714 0 53.2643 11.565 616 119.731 1279.61 464.508
1715 0 55.246 11.4217 631 122.718 1280.06 461.073
1716 0 55.318 11.7141 648 125.654 1279.09 463.281
1717 0 57.3063 11.9882 687 124.91 1279.71 458.656
1718 0 57.2552 12.2609 702 126.806 1279.95 452.405
1719 0 60.1929 12.327 742 128.158 1279.73 445.83
1720 0 62.1535 11.9382 742 125.309 1279.13 447.832
1721 0 63.2737 12.1377 768 122.633 1279.71 452.283
1722 0 66.436 12.3728 822 128.111 1279.32 455.142
1723 0 68.2041 12.7558 870 118.41 1279.26 447.893
1724 0 70.3527 12.5653 884 122.598 1279.64 448.21
1725 0 71.2927 12.4417 887 130.24 1279.38 452.238
1726 0 73.3488 12.6928 931 127.828 1278.7 454.804
1727 0 75.4302 12.5149 944 124.006 1278.4 456.654
1728 0 78.5045 12.4961 981 133.786 1279.57 448.979
1729 0 81.3989 12.8134 1043 126.779 1279.32 447.256
1730 0 82.4531 13.0498 1076 131.965 1278.33 449.239
1731 0 82.3268 13.082 1077 128.404 1278.26 452.019
1732 0 89.4568 12.5312 1121 130.964 1278.35 451.959
1733 0 91.41 12.6901 1160 132.691 1277.79 448.44
1734 0 95.3188 12.9041 1230 132.426 1277.54 434.535
1735 1 50.2872 10.3605 521 131.501 1277.15 460.01
1736 0 51.2345 11.1448 571 132.454 1277.42 464.357
1737 0 53.3052 11.1058 592 125.476 1277.09 469.041
1738 0 54.3043 11.8223 642 124.612 1277.45 466.964
1739 0 58.3394 11.5017 671 116.984 1277.23 467.949
1740 0 58.0679 12.2098 709 116.195 1278.61 425.722
1741 0 59.0866 11.7455 694 115.447 1278.61 431.993
1742 0 61.0794 11.4278 698 120.656 1278.1 437.617
1743 0 63.0126 11.4739 723 123.685 1277.92 443.936
1744 0 64.0801 11.8602 760 121.262 1277.45 448.905
1745 0 66.2092 12.2793 813 117.506 1277.37 452.278
1746 0 67.1318 12.3935 832 119.984 1276.65 455.513
1747 0 71.1792 12.04 857 125.622 1276.99 457.141
1748 1 72.1426 12.4476 898 121.145 1277.14 446.755
1749 0 74.0945 12.3221 913 125.37 1276.85 444.103
1750 0 77.1702 12.2457 945 123.216 1277.68 446.962
1751 0 80.1364 12.1293 972 127 1276.99 441.979
1752 0 82.161 12.2808 1009 125.85 1277.7 444.374
1753 0 84.2271 12.3238 1038 133.213 1278.03 445.748
1754 0 89.1553 12.0576 1075 133.435 1278.69 446.661
1755 0 89.4828 11.8347 1059 131.312 1278.61 448.485
1756 0 49.129 11.3782 559 134.674 1279.36 456.962
1757 0 50.1845 11.7168 588 138.626 1278.43 452.158
1758 0 51.2356 12.0424 617 135.864 1277.56 454.073
1759 0 51.195 12.2277 626 140.973 1278.05 459.286
1760 0 54.2948 11.7138 636 137.593 1278.88 465.524
1761 1 55.2505 12.2352 676 142.049 1278.63 455.382
1762 0 56.1344 12.5413 704 145.403 1279.32 455.891
1763 0 58.2542 12.0163 700 143.61 1278.6 456.753
1764 0 59.2031 12.2629 726 150.539 1278.72 459.607
1765 0 62.1825 11.7718 732 147.376 1278.31 461.795
1766 0 62.1901 12.4136 772 154.85 1278.56 464.142
1767 0 63.2462 12.3644 782 159.27 1278.8 464.644
1768 0 65.2583 12.3662 807 152.72 1279.06 463.673
1769 0 67.2202 12.764 858 160.044 1278.95 456.791
1770 0 69.2095 12.6861 878 158.205 1278.68 459.735
1771 0 70.1547 12.615 885 163.878 1278.79 459.368
1772 0 73.1902 12.3514 904 164.681 1278.65 458.585
1773 0 74.1311 12.8826 955 159.819 1279.23 460.019
1774 0 77.1825 12.762 985 161.802 1279.41 457.515
1775 0 80.2258 12.7889 1026 167.933 1279.14 455.291
1776 0 83.197 12.5245 1042 165.351 1279.23 452.463
1777 0 85.1789 12.5266 1067 162.898 1279.49 452.701
1778 0 88.3043 12.8533 1135 166.724 1279.89 450.998
1779 0 91.1676 12.4825 1138 168.627 1279.58 452.199
1780 1 47.2284 11.4973 543 158.234 1279.13 471.501
1781 0 48.2448 12.1257 585 160.091 1279.3 472.706
1782 0 49.2644 11.8138 582 163.979 1279.77 467.244
1783 0 49.1972 12.2365 602 158.111 1280.23 469.965
1784 0 51.2494 11.766 603 158.189 1280.08 472.488
1785 0 52.2045 11.9147 622 167.33 1280.24 474.873
1786 0 54.2244 12.0979 656 171.515 1280.2 476.027
1787 0 53.3207 12.2091 651 172.326 1280.31 483.215
1788 0 57.0944 12.4706 712 170.992 1281.38 447.711
1789 1 61.0618 12.0534 736 169.501 1281.7 437.504
1790 0 62.1594 12.2105 759 171.524 1281.91 439.896
1791 0 62.1141 12.96 805 172.086 1281.33 444.72
1792 0 64.2623 12.7913 822 162.428 1280.77 450.214
1793 0 67.2411 12.2841 826 169.35 1280.45 454.821
1794 0 67.2533 13.0402 877 167.985 1280.52 456.319
1795 0 71.0416 13.3724 950 162.145 1281.51 427.828
1796 0 72.0756 13.0835 943 167.441 1281.37 430.056
1797 0 75.0734 12.894 968 166.228 1280.15 434.945
1798 0 76.1981 12.9662 988 164.028 1280.79 439.866
1799 0 80.2139 12.3295 989 160.696 1280.75 443.823
1800 0 81.2651 12.9822 1055 169.275 1280.81 448.771
1801 0 41.0947 11.0963 456 156.539 1281.83 450.901
1802 0 43.1349 11.6147 501 157.493 1281.46 445.776
1803 0 46.0183 11.7779 542 165.419 1281.13 451.428
1804 0 48.1557 11.6497 561 163.25 1280.23 454.692
1805 0 48.2169 11.8216 570 162.94 1279.35 460.195
1806 0 50.1339 12.327 618 162.026 1279.15 452.819
1807 0 51.3127 12.2777 630 166.429 1279.36 458.571
1808 0 52.0362 12.0109 625 163.971 1279.67 438.797
1809 0 54.1299 11.9527 647 163.345 1280.02 438.411
1810 0 55.0805 11.8917 655 164.991 1279.64 440.626
1811 0 56.0575 12.1839 683 164.366 1279.68 443.638
1812 0 56.1228 12.2766 689 154.068 1279.69 438.115
1813 0 59.0422 12.2963 726 162.09 1279.97 441.479
1814 0 61.1278 12.482 763 164.488 1279.61 446.122
1815 0 63.1054 12.2177 771 161.869 1279.86 443.703
1816 0 63.1416 12.7333 804 161.43 1279.37 449.388
1817 0 67.4248 12.5918 849 163.409 1278.29 453.671
1818 0 68.2041 12.6239 861 162.448 1278.69 452.918
1819 0 71.2257 12.4955 890 163.351 1278.96 441.062
1820 0 73.1218 13.0194 952 156.548 1278.61 443.479
1821 0 76.106 12.5089 952 164.566 1279.06 442.169
1822 0 78.1576 12.7691 998 168.541 1278.37 444.75
1823 0 80.0727 12.8258 1027 158.469 1279.43 442.499
1824 0 83.3159 12.8667 1072 159.566 1278.52 444.93
1825 0 86.1643 12.4646 1074 157.948 1277.08 448.077
1826 0 90.4137 12.3101 1113 157.396 1276.97 452.046
1827 0 92.189 12.1273 1118 163.446 1278.35 453.701
1828 1 48.1386 12.007 578 162.694 1277.17 464.742
1829 0 49.1047 11.73 576 161.965 1277.16 465.45
1830 0 52.1405 11.68 609 160.833 1277.28 469.586
1831 0 53.2023 11.8228 629 164.308 1277.18 471.746
1832 0 53.236 12.2286 651 155.725 1276.46 470.212
1833 0 55.2921 12.1356 671 164.414 1277.21 469.565
1834 0 55.1552 12.6733 699 159.658 1278.33 432.136
1835 0 57.1121 12.2391 699 161.318 1277.57 432.27
1836 0 60.0137 12.3638 742 159.274 1278.91 432.36
1837 0 62.1591 12.3393 767 157.214 1277.79 428.335
1838 0 62.1412 13.0348 810 162.79 1277.83 429.795
1839 0 64.0813 12.5778 806 156.514 1278.07 435.79
1840 0 67.0748 12.583 844 155.177 1277.73 439.973
1841 0 68.0971 12.9227 880 157.342 1278.3 443.352
1842 0 71.0892 12.7727 908 149.061 1277.18 448.131
1843 0 74.083 12.8505 952 157.827 1278.42 444.963
1844 0 76.1495 12.9482 986 160.127 1277.99 432.477
1845 0 78.1153 13.1472 1027 161.561 1278.41 436.645
1846 0 79.166 12.657 1002 156.791 1278.23 443.258
1847 0 83.213 12.8466 1069 161.682 1277.75 444.688
1848 0 85.2853 12.9331 1103 161.973 1277.56 446.069
1849 0 88.0972 12.8381 1131 158.662 1277.92 450.515
1850 0 46.0267 11.993 552 155.779 1278.33 453.234
1851 0 48.0277 12.118 582 160.17 1278.39 453.426
1852 0 50.2331 11.7851 592 161.037 1277.63 456.799
1853 0 50.2372 12.3415 620 156.577 1277.22 463.066
1854 0 53.247 11.9631 637 158.832 1276.12 467.232
1855 0 53.2237 12.0623 642 157.618 1276.95 470.902
1856 0 55.0174 12.5233 689 158.377 1277.11 440.964
1857 0 57.0962 12.3651 706 163.248 1277.61 434.188
1858 0 58.0871 11.9476 694 156.242 1277.1 437.34
1859 0 61.072 12.1332 741 157.425 1277.34 435.157
1860 0 61.0332 12.4686 761 159.166 1277.76 436.401
1861 0 65.0774 12.7387 829 157.676 1277.73 436.969
1862 0 65.0734 13.0314 848 157.282 1277.61 439.5
1863 0 67.1113 12.9039 866 153.13 1277.98 443.872
1864 0 69.1248 12.9621 896 157.555 1277.32 446.597
1865 0 73.1578 12.4799 913 159.24 1277.55 440.969
1866 0 73.1657 13.2849 972 155.605 1277.51 442.351
1867 0 76.193 12.954 987 157.445 1277.86 445.977
1868 0 79.1513 13.1268 1039 157.959 1277.47 447.277
1869 0 80.1905 13.5178 1084 155.958 1277.5 450.512
1870 0 83.1686 13.3584 1111 160.79 1277.92 450.335
1871 0 86.1507 13.0933 1128 157.993 1277.97 453.736
1872 0 89.1971 13.1843 1176 155.596 1278.39 452.879
1873 0 92.1681 12.8135 1181 151.745 1278.18 453.152
1874 0 97.2029 12.942 1258 154.176 1279.06 437.964
1875 0 100.226 12.6215 1265 156.728 1278.44 441.491
1876 1 57.1699 11.1772 639 157.956 1277.57 466.023
1877 0 59.1645 11.2906 668 154.775 1277.82 468.734
1878 0 59.2578 11.8465 702 153.735 1277.97 466.276
1879 0 62.0533 12.1347 753 158.084 1279.28 433.867
1880 0 64.1438 12.2849 788 160.1 1279.88 432.614
1881 0 64.0244 13.2137 846 160.407 1280.03 429.304
1882 0 68.0816 12.7935 871 160.674 1280.39 433.17
1883 0 70.1412 12.6887 890 162.336 1280.26 437.846
1884 0 70.128 12.6768 889 161.276 1279.2 444.577
1885 0 72.0972 12.7051 916 161.253 1279.48 446.057
1886 0 75.1806 13.0619 982 165.904 1280.27 450.949
1887 0 76.1933 12.9014 983 167.077 1279.79 455.74
1888 0 80.1573 12.7749 1024 162.685 1280.19 456.085
1889 0 84.2798 12.945 1091 157.129 1280.67 433.886
1890 0 86.3169 12.987 1121 156.255 1281.02 438.706
1891 0 87.4222 13.1431 1149 156.779 1280.93 443.309
1892 0 90.3505 13.1599 1189 162.165 1281.26 447.123
1893 0 93.3466 13.2196 1234 163.085 1281.19 446.872
1894 0 95.3116 12.9995 1239 159.22 1281.49 445.365
1895 0 100.235 13.3686 1340 161.625 1281.57 443.366
1896 0 102.349 13.2781 1359 160.698 1281.01 441.052
1897 0 107.408 13.0717 1404 155.107 1281.87 441.085
1898 0 110.26 13.4319 1481 160.285 1281.45 438.393
1899 0 114.304 13.2716 1517 156.02 1281.34 437.546
1900 0 63.0526 11.4983 725 161.868 1281.07 448.188
1901 0 62.0332 12.0581 748 159.433 1281.46 446.976
1902 0 65.1712 12.6283 823 150.806 1281.59 448.881
1903 0 66.1087 12.4189 821 149.878 1281.38 444.697
1904 0 67.1552 12.7764 858 152.684 1280.77 444.537
1905 0 70.0925 12.883 903 148.901 1280.65 446.686
1906 0 84.0775 13.2021 1110 145.524 1281.28 424.035
1907 0 76.0824 12.9465 985 150.136 1280.86 419.635
1908 0 79.1415 12.6609 1002 152.873 1281 421.54
1909 0 80.1709 13.4213 1076 148.141 1281.28 421.002
1910 0 83.1131 13.1748 1095 156.618 1280.88 420.192
1911 0 85.0663 13.1662 1120 153.032 1281.47 424.164
1912 0 89.1955 13.0051 1160 156.41 1280.95 428.309
1913 0 93.1952 13.0908 1220 150.379 1280.87 433.906
1914 0 95.0904 13.3557 1270 145.587 1280.07 438.155
1915 0 99.279 13.0743 1298 150.684 1279.66 443.263
1916 0 102.199 13.1606 1345 158.021 1279.37 444.241
1917 0 53.0994 11.2996 600 152.883 1279.24 458.422
1918 0 54.1542 11.7073 634 153.481 1279 462.716
1919 0 58.2581 11.5864 675 154.015 1279.04 465.769
1920 0 59.2339 12.5435 743 150.637 1279.73 458.585
1921 0 60.0735 12.7011 763 154.758 1279.56 458.304
1922 0 62.1811 12.2063 759 153.634 1279.58 457.711
1923 0 64.1572 12.8123 822 152.748 1278.45 458.376
1924 0 65.1978 12.6078 822 155.76 1279.04 454.691
1925 0 67.3305 12.8471 865 156.102 1278.35 450.89
1926 0 69.1554 13.1298 908 145.787 1278.17 454.308
1927 0 72.1573 12.5559 906 148.855 1277.35 457.953
1928 0 72.3245 12.9002 933 148.781 1278.27 459.597
1929 0 77.2905 12.4465 962 154.89 1278.7 457.695
1930 0 81.2871 12.6711 1030 153.087 1278.04 450.192
1931 0 84.1432 13.0492 1098 154.947 1277.83 450.844
1932 0 85.2485 12.6571 1079 150.763 1278.25 445.095
1933 0 86.2347 13.1965 1138 155.213 1278.58 447.741
1934 0 90.2476 13.0419 1177 150.306 1278.55 451.248
1935 0 93.3228 13.0729 1220 152.554 1278.33 452.239
1936 0 97.2818 12.6231 1228 149.107 1278.84 450.213
1937 1 53.2616 11.8096 629 157.369 1278.08 463.097
1938 0 54.2618 12.2185 663 149.264 1277.34 468.032
1939 0 55.1896 11.8682 655 159.328 1277.31 470.356
1940 0 57.2194 12.0414 689 150.749 1276.96 467.993
1941 0 59.3283 11.9505 709 160.262 1278.08 461.811
1942 0 59.2909 12.2784 728 159.927 1278.08 461.874
1943 0 62.304 12.6316 787 151.773 1277.97 460.657
1944 0 63.2916 12.6873 803 154.488 1277.89 463.975
1945 0 65.2836 12.6831 828 157.826 1277.79 458.79
1946 0 65.2806 13.1433 858 159.493 1278.6 461.1
1947 0 70.2294 12.7582 896 156.036 1277 462.556
1948 0 72.2717 12.4115 897 156.378 1277.08 463.093
1949 0 74.2532 12.4978 928 151.656 1276.27 460.307
1950 0 63.2762 14.8081 937 142.359 1277.34 452.384
1951 0 79.3242 13.3251 1057 148.282 1276.95 430.99
1952 0 82.3742 13.0381 1074 153.669 1277.32 435.596
1953 0 84.6534 13.0887 1108 143.02 1276.9 439.873
1954 0 88.5115 12.8119 1134 138.951 1277.02 442.184
1955 0 90.3338 12.5202 1131 150.895 1277.18 447.45
1956 0 94.4272 13.0153 1229 142.29 1277.92 450.483
1957 0 96.4485 12.8359 1238 143.005 1277.03 451.345
1958 0 99.3399 13.0562 1297 141.328 1277.23 447.861
1959 0 103.173 13.1527 1357 145.167 1276.81 441.536
1960 0 105.512 13.1644 1389 145.113 1277.11 444.739
1961 0 107.362 13.1797 1415 145.384 1277.22 442.063
1962 1 60.2371 12.401 747 137.744 1277.27 456.471
1963 0 62.1631 12.0329 748 136.198 1277.65 454.428
1964 0 63.2481 11.8106 747 142.414 1277.45 456.469
1965 0 65.3038 11.9901 783 143.858 1276.89 454.724
1966 0 66.1821 12.6469 837 139.356 1276.84 446.419
1967 0 68.1866 12.3631 843 142.195 1277.92 446.539
1968 0 69.2883 12.6284 875 129.334 1277.35 445.961
1969 0 72.295 12.8363 928 140.911 1278.08 447.488
1970 0 72.1757 13.0515 942 143.346 1277.04 451.617
1971 0 77.3082 12.7153 983 135.429 1277.2 456.09
1972 0 78.1994 12.5065 978 146.834 1277.05 457.95
1973 0 79.2328 12.8608 1019 143.709 1277.26 454.158
1974 0 83.2539 12.636 1052 140.969 1277.18 455.01
1975 0 39.0686 10.9807 429 138.818 1276.48 456.347
1976 0 41.0822 11.2701 463 135.002 1276.89 457.886
1977 0 42.0991 11.8767 500 150.62 1276.96 458.596
1978 0 47.0236 11.8026 555 144.169 1277.13 461.404
1979 0 50.0542 10.9481 548 145.96 1277.39 463.79
1980 0 52.0544 11.6417 606 146.932 1277.43 464.148
1981 0 55.186 12.1589 671 146.191 1277.49 459.382
1982 0 55.2094 11.7552 649 149.091 1278 461.92
1983 0 57.1805 12.5917 720 144.776 1277.58 461.8
1984 0 58.2398 12.4829 727 146.399 1278.28 463.327
1985 0 61.2275 12.2657 751 9.88016 1278.74 457.105
1986 0 63.1156 12.0731 762 156.957 1278.14 457.657
1987 0 65.2232 12.2656 800 157.384 1278.42 454.709
1988 0 66.2215 12.6394 837 152.965 1279.2 455.743
1989 0 68.2145 12.49 852 154.993 1279.48 457.336
1990 0 69.1974 12.5583 869 147.86 1279.35 457.021
1991 0 73.1728 12.245 896 156.646 1279.69 457.544
1992 0 75.2679 12.7943 963 159.352 1279.65 455.256
1993 0 75.1646 13.0647 982 162.369 1280.08 450.912
1994 0 79.1923 13.2841 1052 161.911 1280.57 453.893
1995 0 80.2114 13.3397 1070 138.522 1280.9 454.041
1996 0 86.1706 12.719 1096 160.259 1280.6 454.283
1997 0 86.141 12.6537 1090 160.589 1280.48 451.799
1998 0 91.1846 12.864 1173 157.876 1281.06 450.885
1999 1 50.0409 11.6904 585 154.535 1279.87 472.697
2000 0 52.0457 11.9126 620 148.96 1280.35 473.013
2001 0 52.2539 11.9608 625 157.024 1281.06 467.826
2002 0 54.2271 12.3186 668 154.166 1280.18 463.508
2003 0 56.2342 12.0389 677 154.808 1280.71 464.157
2004 0 56.1597 12.5891 707 149.429 1279.91 465.256
2005 0 58.138 12.9692 754 154.621 1279.87 462.211
2006 0 58.175 12.6515 736 151.912 1279.41 462.787
2007 0 61.1854 12.8626 787 152.931 1280.31 456.446
2008 0 64.2342 12.579 808 154.874 1280.34 459.161
2009 0 63.1723 13.1228 829 149.888 1280.14 461.621
2010 0 66.1529 13.1665 871 154.377 1280.11 459.261
2011 0 68.2361 12.8671 878 150.731 1280.36 446.975
2012 0 70.2063 13.147 923 144.388 1279.93 448.476
2013 0 72.3242 13.1215 949 149.019 1280.22 446.658
2014 0 74.3493 13.1138 975 149.158 1279.24 449.391
2015 0 75.248 13.4489 1012 151.521 1279.62 454.127
2016 1 17.004 12.5852 214 137.425 1278.11 472.57
2017 0 83.1701 13.3101 1107 144.421 1280.06 425.334
2018 0 86.2923 13.686 1181 148.967 1279.46 426.988
2019 0 88.235 13.26 1170 150.394 1279.54 425.089
2020 0 92.2106 13.3824 1234 137.947 1279.06 424.143
2021 1 50.1241 11.4715 575 152.957 1278.78 445.188
2022 0 51.0878 12.0577 616 149.401 1279.57 445.867
2023 0 53.0262 12.5598 666 152.032 1279.99 447.299
2024 0 55.2137 12.9135 713 156.602 1278.76 451.941
2025 0 56.1889 12.9029 725 147.895 1278.04 456.534
2026 0 58.1241 12.697 738 148.458 1278.44 463.627
2027 0 59.2344 12.6953 752 150.797 1279.32 467.144
2028 0 62.1051 12.5916 782 153.455 1279.15 466.652
2029 0 63.1818 13.2 834 158.32 1279.76 443.549
2030 0 65.0936 13.1657 857 150.098 1278.5 440.58
2031 0 66.1207 12.8855 852 153.489 1279.52 441.48
2032 0 67.1377 13.3159 894 156.791 1278.82 442.347
2033 0 69.2017 13.3234 922 156.08 1278.74 441.675
2034 0 73.3022 13.6694 1002 147.525 1278.78 444.901
2035 0 76.2322 13.0785 997 154.548 1279.07 448.853
2036 0 78.2003 12.9923 1016 151.797 1278.93 452.596
2037 0 79.1784 13.2107 1046 144.833 1278.07 455.25
2038 0 83.2085 13.2438 1102 149.043 1278.41 455.049
2039 0 85.3556 13.391 1143 154.595 1278.68 453.446
2040 0 90.4426 13.2791 1201 149.067 1278.81 451.961
2041 0 93.2401 13.063 1218 142.131 1278.02 451.623
2042 0 95.3312 13.1227 1251 149.987 1278.34 449.255
2043 0 100.357 13.143 1319 144.121 1278.22 448.19
2044 0 103.275 13.3527 1379 146.914 1278.65 446.175
2045 1 55.1765 11.3817 628 145.47 1278.44 467.051
2046 0 58.1321 12.5232 728 146.556 1278.63 468.725
2047 0 60.2028 12.1755 733 146.54 1277.79 467.619
2048 0 62.2892 12.3296 768 137.786 1277.97 468.319
2049 0 64.2465 12.4053 797 141.708 1277.74 465.526
2050 0 68.248 12.2348 835 140.744 1278.11 464.116
2051 0 67.3131 12.9692 873 139.199 1278.22 458.611
2052 0 72.319 12.8874 932 138.108 1278.68 457.369
2053 0 72.2721 13.1309 949 144.877 1278 458.995
2054 0 76.1939 12.875 981 148.36 1278.26 459.658
2055 0 79.2726 12.7535 1011 144.102 1277.98 459.078
2056 0 80.2274 12.8136 1028 144.768 1277.66 459.153
2057 0 83.4822 12.889 1076 143.703 1277.95 459.678
2058 0 87.3331 12.9733 1133 146.791 1278.05 458.844
2059 0 89.2226 12.6986 1133 143.105 1277.97 453.573
2060 0 92.2983 12.7846 1180 141.122 1277.43 450.883
2061 0 95.1698 13.1449 1251 134.88 1277.71 450.421
2062 0 97.3149 13.1018 1275 136.857 1278.06 452.733
2063 1 55.3051 11.319 626 144.128 1277.48 472.863
2064 0 57.2291 11.0958 635 142.836 1277.53 471.614
2065 0 57.152 11.9681 684 142.488 1277.48 468.069
2066 0 60.1011 12.0297 723 144.047 1277.57 468.335
2067 0 61.1694 11.9504 731 144.958 1276.83 469.015
2068 0 64.1016 12.0902 775 141.877 1277.4 466.6
2069 0 66.2067 12.7177 842 140.425 1278.26 445.466
2070 0 68.2369 12.5885 859 144.633 1277.46 440.602
2071 0 71.3588 12.9486 924 145.414 1277.62 440.87
2072 0 72.4166 12.5938 912 146.755 1278.23 443.179
2073 0 74.4255 12.6704 943 146.501 1277.8 443.519
2074 0 75.334 12.9689 977 152.438 1277.71 444.07
2075 0 78.1959 12.9163 1010 144.96 1278.1 448.623
2076 0 80.433 12.9922 1045 148.822 1278.43 454.056
2077 0 82.4783 12.7185 1049 151.444 1278.22 455.499
2078 0 85.3364 13.3003 1135 148.29 1277.99 453.47
2079 0 87.472 13.41 1173 138.187 1278.18 450.989
2080 0 93.2373 13.2136 1232 143.167 1278.56 447.503
2081 0 95.2464 13.1029 1248 145.428 1278.97 448.959
2082 0 97.5121 13.2804 1295 138.06 1278.93 447.995
2083 0 102.35 13.6492 1397 135.18 1278.68 445.791
2084 0 107.31 13.8664 1488 140.892 1278.71 440.669
2085 0 110.406 13.3417 1473 133.028 1279.2 434.573
2086 0 114.327 13.2165 1511 135.628 1279.44 429.688
2087 0 61.0948 12.4233 759 139.207 1279.9 439.241
2088 0 62.0582 12.1338 753 140.902 1280.06 434.758
2089 0 65.1386 12.7881 833 136.616 1280.23 436.479
2090 0 66.1413 12.7606 844 135.232 1280.14 437.507
2091 0 69.1843 12.7052 879 135.121 1280.14 440.476
2092 0 70.2036 12.9338 908 135.731 1280.19 440.681
2093 0 73.2711 12.5015 916 142.655 1279.89 443.156
2094 0 74.2327 13.094 972 134 1279.94 445.095
2095 0 77.3009 13.441 1039 135.576 1279.95 446.673
2096 0 79.27 13.2837 1053 136.962 1279.69 447.776
2097 0 81.1327 13.1143 1064 139.479 1279.83 449.561
2098 0 85.3553 12.5944 1075 137.279 1280.47 449.361
2099 0 87.3012 13.379 1168 141.193 1281.11 450.137
2100 0 88.2135 13.5013 1191 133.293 1281.46 450.076
2101 0 90.3131 13.4311 1213 140.001 1281.25 449.223
2102 0 94.2936 13.2034 1245 146.192 1281.54 448.114
2103 0 98.455 13.4071 1320 140.338 1281.89 442.783
2104 0 101.444 13.3078 1350 143.522 1281.76 442.63
2105 0 104.526 13.4033 1401 148.448 1282.17 435.912
2106 0 106.36 13.2945 1414 143.922 1282.27 436.769
2107 0 111.299 13.1448 1463 145.886 1282.4 437.651
2108 0 111.502 13.4437 1499 152.727 1282.12 435.752
2109 0 117.393 13.2717 1558 153.068 1281.96 430.596
2110 1 64.2266 11.5061 739 148.459 1281.57 458.954
2111 0 65.1895 12.0725 787 150.36 1281.71 456.731
2112 0 69.296 12.3672 857 155.716 1281.41 455.841
2113 0 70.2594 12.4112 872 152.835 1281.24 455.822
2114 0 73.1972 12.1999 893 155.108 1281.67 455.264
2115 0 75.3906 12.2562 924 154.896 1281.6 453.712
2116 0 78.3511 12.8269 1005 147.831 1281.78 453.744
2117 0 81.5081 12.146 990 154.697 1281.93 453.355
2118 0 84.441 12.6834 1071 141.858 1281.34 448.276
2119 0 88.3301 12.5439 1108 149.366 1281.59 445.821
2120 0 91.2969 12.8591 1174 144.164 1281.66 447.216
2121 0 92.3848 13.0866 1209 153.117 1281.31 447.033
2122 0 95.4662 13.0308 1244 146.458 1281.32 446.293
2123 0 98.4227 12.995 1279 147.894 1281.56 446.268
2124 0 101.504 13.3 1350 145.425 1281.84 444.12
2125 0 0 0 0 -nan -nan -nan
2126 0 4 7.25 29 95.4483 1278.66 482.69
2127 0 10.0043 10.2955 103 103.029 1279.55 485.495
2128 0 14.0616 10.6674 150 113.4 1279.55 486.96
2129 0 117.449 13.027 1530 150.808 1282.38 424.326
2130 0 122.642 13.4211 1646 141.06 1282.6 422.971
2131 0 125.562 13.5869 1706 141.262 1282.96 423.583
2132 0 128.49 13.5497 1741 135.399 1282.67 422.137
2133 0 132.333 13.9572 1847 140.49 1282.44 412.291
2134 0 136.391 13.41 1829 144.696 1282.46 412.641
2135 0 140.673 13.4994 1899 144.178 1281.99 414.479
2136 0 145.438 13.2152 1922 146.095 1282.34 415.215
2137 0 149.454 13.4423 2009 141.518 1281.63 413.21
2138 1 78.2996 11.622 910 146.048 1282.2 443.275
2139 0 81.5395 12.0923 986 143.324 1282.56 439.275
2140 0 83.2796 12.356 1029 143.829 1281.82 438.333
2141 0 86.1538 12.0134 1035 147.214 1280.95 440.692
2142 0 89.2858 12.2416 1093 146.182 1280.74 446.702
2143 0 91.2925 12.7283 1162 144.858 1281.13 447.812
2144 0 93.2272 12.4213 1158 140.054 1281.23 438.997
2145 0 97.3528 12.5831 1225 149.5 1281.38 435.829
2146 0 100.213 12.3637 1239 146.671 1281.05 438.033
2147 0 102.291 12.5134 1280 148.745 1281.12 433.198
2148 0 106.242 12.5562 1334 141.74 1280.57 436.923
2149 0 111.334 12.988 1446 142.131 1280.56 433.876
2150 0 111.391 12.694 1414 141.54 1279.86 434.434
2151 0 115.449 12.6549 1461 143.6 1280.59 433.836
2152 0 116.373 13.0185 1515 141.596 1280.64 429.743
2153 0 122.369 12.9362 1583 136.963 1280.68 430.119
2154 0 125.293 12.7941 1603 141.449 1281 433.653
2155 0 129.362 13.1569 1702 141.365 1280.86 427.541
2156 0 133.275 13.1983 1759 142.795 1280.39 424.39
2157 0 136.248 13.3873 1824 137.254 1280.64 424.016
2158 1 140.368 13.3507 1874 136.24 1279.91 415.17
2159 0 145.325 13.5214 1965 135.116 1280.42 412.43
2160 0 147.337 13.5268 1993 141.686 1281.31 413.348
2161 0 154.303 13.804 2130 139.873 1281.07 413.33
2162 0 158.369 13.4306 2127 147.099 1280.89 413.208
2163 1 5 2.6 13 111 1280.23 480
2164 0 10.0021 5.49887 55 113.509 1280.84 481.636
2165 0 17.0578 6.80041 116 115.448 1280.3 484.578
2166 0 16.0045 7.56038 121 116.182 1280.17 484.587
2167 0 16.0043 6.24834 100 107.49 1279.95 485.2
2168 0 18.0158 6.10577 110 113.173 1280.15 484.327
2169 0 12.0018 5.99908 72 118.403 1281.71 481.125
2170 1 51.1875 10.276 526 131.068 1279.4 467.067
2171 0 52.0851 10.1949 531 127.823 1278.63 467.65
2172 0 52.0691 9.90991 516 125.13 1277.58 468.432
2173 0 54.0498 9.58375 518 132.562 1276.93 470.708
2174 0 54.1418 10.0107 542 133.199 1276.73 469.483
2175 0 56.1705 10.6818 600 130.877 1279.13 456.578
2176 0 57.1723 10.8269 619 146.467 1278.64 458.498
2177 0 59.1279 10.6041 627 140.601 1278.04 458.767
2178 0 62.1618 10.907 678 141.941 1277.82 461.266
2179 0 62.2672 10.7761 671 146.376 1277.87 464.143
2180 0 64.1311 11.0399 708 147.216 1278.03 462.718
2181 0 66.1631 11.4414 757 140.206 1278.4 462.839
2182 0 68.1389 11.1243 758 146.342 1277.83 463.1
2183 0 70.1733 11.2863 792 143.593 1277.76 462.191
2184 0 72.1239 10.8147 780 139.801 1277.28 461.842
2185 0 75.2997 11.3281 853 140.491 1278.74 454.61
2186 0 78.1697 10.9377 855 141.917 1278.8 457.596
2187 0 81.3324 11.0042 895 139.653 1278.17 456.468
2188 0 82.251 10.7476 884 139.519 1278.66 456.036
2189 0 85.3348 10.7342 916 131.236 1278.4 453.066
2190 1 52.2976 9.36945 490 136.059 1278.23 472.971
2191 0 53.2789 9.87258 526 134.357 1278.52 471.935
2192 0 53.1643 10.2324 544 134.599 1277.95 470.415
2193 0 55.3215 10.0503 556 131.912 1278.58 470.311
2194 0 56.3202 10.4403 588 129.92 1279.23 468.032
2195 0 59.2898 10.2884 610 137.725 1279.16 466.831
2196 0 60.1193 10.6788 642 128.598 1277.76 459.287
2197 0 51.0732 12.394 633 124.349 1278.37 452.178
2198 0 64.0505 10.9289 700 130.743 1279.12 430.8
2199 0 64.0336 11.7282 751 130.707 1279.01 422.256
2200 0 67.0337 11.8448 794 129.501 1279.57 421.898
2201 0 70.0729 11.6593 817 129.18 1278.87 420.224
2202 0 71.0535 12.4413 884 132.361 1279.36 422.523
2203 0 73.0479 12.2522 895 134.398 1278.7 421.087
2204 0 75.1247 12.1265 911 133.034 1278.12 423.755
2205 0 75.0549 12.5775 944 133.099 1278.63 427.885
2206 0 77.1234 12.3957 956 136.429 1278.53 430.062
2207 0 79.2188 13.0146 1031 137.179 1279.15 423.47
2208 0 81.028 12.4401 1008 144.986 1278.85 427.362
2209 0 82.1142 12.4583 1023 145.551 1279.3 431.537
2210 0 84.1873 12.876 1084 140.09 1279.24 435.947
2211 0 86.1484 13.3258 1148 138.848 1279.47 440.392
2212 0 89.0912 12.7397 1135 148.643 1279.88 438.898
2213 0 91.2113 12.8493 1172 145.947 1279.24 443.974
2214 0 93.209 13.003 1212 143.557 1279.8 429.503
2215 0 96.1782 13.0591 1256 140.524 1279.61 432.985
2216 0 99.254 12.8257 1273 147.943 1279.59 436.218
2217 1 55.1622 11.439 631 144.916 1280.36 463.686
2218 0 57.0836 12.0875 690 147.345 1280.24 467.001
2219 1 59.1233 12.6177 746 146.316 1281.04 455.811
2220 0 60.2062 12.9887 782 152.156 1280.4 453.875
2221 0 60.0934 12.4806 750 151.561 1280.95 456.512
2222 0 63.1496 12.9217 816 152.756 1280.91 455.085
2223 0 63.2368 13.1885 834 149.6 1281.19 455.335
2224 0 65.1471 13.3697 871 148.522 1281.49 456.834
2225 0 69.1573 12.8981 892 151.784 1281.56 458.461
2226 0 69.1711 13.4883 933 154.474 1281.12 457.618
2227 0 70.1403 13.6726 959 150.37 1281.54 457.953
2228 0 71.0994 14.2336 1012 152.255 1281.69 458.312
2229 0 74.108 13.7367 1018 153.806 1281.85 454.493
2230 0 74.2452 14.2366 1057 156.633 1281.4 453.287
2231 0 78.0738 13.9099 1086 147.916 1281.92 451.304
2232 0 81.18 13.7965 1120 154.772 1281.43 452.61
2233 0 82.1127 14.3827 1181 154.236 1281.61 452.262
2234 0 83.1487 14.0952 1172 154.099 1281.59 453.551
2235 0 87.2129 14.4245 1258 153.39 1280.99 451.666
2236 0 90.159 14.2304 1283 156.543 1281.34 443.964
2237 0 92.1922 14.3071 1319 157.821 1281.6 447.23
2238 1 93.1812 14.3162 1334 160.589 1282.14 436.269
2239 0 97.2146 14.4628 1406 157.816 1281.62 440.778
2240 0 98.1369 14.7753 1450 154.25 1281.25 444.169
2241 0 101.097 14.8669 1503 152.007 1281.95 443.312
2242 0 105.25 14.5748 1534 155.971 1281.4 442.186
2243 0 108.388 14.6695 1590 163.901 1281.49 435.858
2244 0 112.155 14.6226 1640 153.397 1280.79 435.712
2245 1 60.2438 13.2794 800 162.824 1281.85 460.734
2246 0 60.2124 13.5188 814 164.814 1281.72 459.948
2247 0 63.2277 13.7756 871 156.576 1281.07 461.005
2248 0 65.2079 13.7867 899 150.365 1281.41 461.591
2249 0 67.2206 13.7904 927 152.461 1280.41 459.803
2250 0 68.0851 14.0412 956 155.815 1280.17 459.39
2251 0 73.1704 13.6531 999 146.281 1280.49 458.597
2252 0 73.1042 14.1168 1032 155.007 1280.56 458.077
2253 0 76.153 14.6284 1114 154.395 1280.87 455.176
2254 0 80.2623 13.7674 1105 148.541 1280.86 455.053
2255 0 83.2916 13.8309 1152 137.292 1280.54 452.809
2256 0 87.1768 14.1896 1237 152.871 1281 450.527
2257 0 89.2218 14.1782 1265 143.257 1280.01 449.443
2258 0 92.2961 14.421 1331 144.915 1280.26 446.488
2259 0 96.4159 14.1678 1366 150.808 1280.6 446.445
2260 0 97.2724 14.4029 1401 143.41 1280.48 445.38
2261 0 101.394 14.133 1433 138.788 1280.7 445.837
2262 1 54.1407 13.2617 718 143.148 1279.96 468.075
2263 0 55.2459 13.3585 738 140.122 1279.44 468.057
2264 0 57.1276 13.6361 779 135.601 1279.35 466.145
2265 0 59.1947 13.4809 798 139.243 1279.66 465.99
2266 0 61.1074 12.9608 792 143.006 1279.18 465.867
2267 0 62.2021 13.8259 860 136.36 1278.35 464.084
2268 0 63.2598 13.7686 871 125.48 1279.35 463.904
2269 0 68.268 14.1648 967 126.263 1279.59 463.38
2270 0 70.3098 13.725 965 129.533 1278.64 462.21
2271 0 72.2282 13.7342 992 125.068 1277.88 460.978
2272 0 74.1558 13.8762 1029 122.194 1278.49 461.189
2273 0 76.1896 13.6895 1043 145.142 1278.18 459.649
2274 0 79.3319 13.6137 1080 138.748 1278.36 459.327
2275 0 82.2555 13.8349 1138 144.018 1278.11 458.163
2276 0 86.2933 14.6941 1268 137.976 1278.5 455.038
2277 0 89.1935 14.2163 1268 142.789 1277.93 454.007
2278 0 93.2493 14.2628 1330 139.224 1277.87 454.364
2279 0 95.3711 14.711 1403 138.654 1277.03 452.698
2280 0 100.194 14.0926 1412 135.985 1276.43 449.974
2281 1 52.1006 12.6102 657 143.906 1277.38 472.855
2282 0 55.3507 13.3332 738 149.932 1277.66 472.66
2283 0 56.107 13.1178 736 142.02 1277.63 474.318
2284 0 58.3037 13.121 765 143.225 1277.53 471.767
2285 0 60.3506 13.4216 810 137.079 1277.78 470.667
2286 0 62.113 14.0711 874 151.74 1278.55 468.936
2287 0 64.1675 13.4492 863 164.583 1278.83 467.993
2288 0 66.3143 13.8432 918 164.4 1278.36 466.465
2289 0 68.1479 13.7642 938 163.336 1277.6 464.827
2290 0 70.1664 13.7103 962 158.419 1277.63 464.108
2291 0 72.2573 13.7979 997 169.139 1278.43 462.111
2292 0 76.3726 13.9186 1063 161.669 1277.53 461.794
2293 0 78.2933 13.6793 1071 164.984 1277.91 460.303
2294 0 80.1292 13.94 1117 156.604 1277.9 459.36
2295 0 82.2904 13.9141 1145 155.414 1277.44 458.241
2296 0 86.2259 14.1721 1222 158.015 1277.3 456.964
2297 0 88.3138 14.0974 1245 155.781 1277.97 454.687
2298 0 89.2322 14.2437 1271 167.644 1278.47 453.132
2299 0 93.3071 14.0504 1311 121.542 1277.85 453.474
2300 0 96.2128 14.0522 1352 169.963 1278.12 451.923
2301 1 54.3753 12.8183 697 169.25 1278.06 472.273
2302 0 56.2832 13.2899 748 170.9 1277.58 469.757
2303 0 57.2435 13.5561 776 172.222 1277.26 469.371
2304 0 58.1426 13.4497 782 167.321 1277.47 469.136
2305 0 61.1021 13.7475 840 170.077 1277.55 468.644
2306 0 62.1883 13.9255 866 167.934 1277.71 467.248
2307 0 63.132 13.9707 882 172.392 1277.86 466.075
2308 0 65.2658 14.0502 917 170.477 1278.01 463.713
2309 0 69.1967 13.729 950 168.964 1278.04 462.103
2310 0 71.1608 13.7576 979 167.222 1278.32 461.355
2311 0 71.1374 14.6477 1042 167.607 1278.59 459.145
2312 0 76.2824 13.7515 1049 169.727 1278.67 460.155
2313 0 77.1746 14.2404 1099 167.288 1278.84 458.321
2314 0 80.3173 14.3182 1150 164.593 1279.31 455.819
2315 0 83.4031 14.4119 1202 164.191 1279.74 453.146
2316 0 85.2569 14.298 1219 168.469 1279.87 452.304
2317 0 87.2848 14.447 1261 167.761 1279.56 450.194
2318 0 91.1685 14.4019 1313 168.898 1280.4 449.388
2319 0 93.2911 14.578 1360 165.587 1280.64 446.779
2320 0 96.1482 14.0616 1352 155.855 1280.56 445.604
2321 0 99.1507 14.1098 1399 167.074 1281 444.907
2322 0 101.477 14.1214 1433 162.276 1281 443.278
2323 0 105.322 13.7862 1452 165.056 1281.22 441.277
2324 1 59.0824 12.728 752 164.025 1281.21 463.915
2325 0 61.0298 12.7151 776 154.061 1281.73 461.496
2326 0 63.1179 12.9282 816 161.268 1281.78 461.375
2327 0 65.1714 13.2267 862 157.432 1282.19 458.974
2328 0 67.1174 13.1113 880 154.173 1281.88 458.655
2329 0 69.0644 12.9444 894 164.955 1282.27 458.417
2330 0 71.1061 13.0791 930 161.351 1282.03 456.565
2331 0 73.0984 13.1193 959 170.481 1282.09 456.435
2332 0 75.0753 13.0536 980 161.673 1281.94 454.621
2333 0 77.0533 13.6529 1052 167.251 1282.14 452.88
2334 0 81.1466 13.7282 1114 162.697 1282.25 452.416
2335 0 82.0692 13.5374 1111 168.794 1281.61 452.511
2336 0 87.1451 13.7013 1194 167.363 1281.57 450.02
2337 0 88.1357 13.7515 1212 161.01 1281.82 448.451
2338 0 93.0656 13.5603 1262 165.662 1281.82 447.124
2339 0 95.1029 13.743 1307 164.255 1281.78 445.594
2340 0 97.2747 13.7137 1334 161.562 1281.88 444.394
2341 0 103.216 13.4669 1390 164.726 1282.26 444.244
2342 0 104.295 13.7111 1430 168.186 1282.11 441.745
2343 1 56.117 11.8146 663 161.389 1281.67 466.979
2344 0 59.1556 12.222 723 163.811 1282.31 465.053
2345 0 61.2026 12.4505 762 155.856 1282.46 464.551
2346 0 63.1015 12.2501 773 151.766 1282.46 463.673
2347 0 65.125 12.6833 826 153.378 1282.04 462.281
2348 0 68.2331 12.428 848 155.262 1281.97 460.162
2349 0 69.107 12.7194 879 153.491 1281.63 459.714
2350 0 72.1518 12.6262 911 151.49 1282.12 459.03
2351 0 73.2169 12.9478 948 159.331 1282.15 457.369
2352 0 76.1092 13.1916 1004 157.301 1282.28 456.732
2353 0 77.1253 12.927 997 160.419 1282.04 455.496
2354 0 82.1132 12.4828 1025 155.252 1281.79 455.425
2355 0 83.1813 12.8514 1069 162.035 1281.96 454.745
2356 0 86.2024 13.2015 1138 161.212 1281.62 451.674
2357 0 89.1812 12.8951 1150 156.512 1281.57 452.125
2358 0 94.1853 13.1018 1234 164.938 1281.47 448.691
2359 0 96.3017 13.0735 1259 155.868 1281.14 448.136
2360 0 97.1848 13.1193 1275 163.932 1281.08 447.914
2361 1 56.1667 10.8071 607 156.614 1280.4 470.371
2362 0 57.0902 11.0001 628 159.207 1280.71 470.169
2363 0 59.0838 12.0507 712 156.26 1280.43 468.118
2364 0 60.1217 12.1753 732 153.052 1280.35 466.714
2365 0 62.2158 12.4727 776 153.393 1281.04 466.942
2366 0 63.2056 12.4198 785 155.603 1280.55 465.969
2367 0 66.1663 12.6651 838 152.463 1281.06 464.1
2368 0 68.0822 12.4115 845 155.904 1281.07 464.054
2369 0 70.1234 12.3924 869 142.822 1281.17 463.106
2370 0 72.23 12.8478 928 150.283 1280.99 461.978
2371 0 73.1661 12.9432 947 147.429 1281.1 460.797
2372 0 75.1367 13.1627 989 155.964 1280.97 460.663
2373 0 78.1458 12.7454 996 157.954 1280.49 459.023
2374 0 78.1789 13.0982 1024 157.724 1280.2 459.158
2375 0 83.1137 12.8258 1066 156.451 1280.15 458.632
2376 0 82.1775 13.4465 1105 155.8 1279.84 456.766
2377 0 85.105 13.4187 1142 157.358 1279.9 456.6
2378 0 88.1214 12.9253 1139 156.939 1279.98 456.471
2379 0 90.2034 12.7268 1148 161.617 1279.91 456.947
2380 0 92.2278 13.1522 1213 160.494 1280.11 454.569
2381 0 96.4022 13.0391 1257 161.944 1279.84 453.921
2382 0 96.2196 13.3029 1280 161.566 1280.33 451.682
2383 0 101.241 12.9888 1315 162 1279.54 450.951
2384 1 56.1293 11.9367 670 163.697 1279.66 472.076
2385 0 60.0667 12.1032 727 161.341 1279.97 471.378
2386 0 60.2548 12.4637 751 163.043 1279.38 471.469
2387 0 62.213 12.2322 761 164.945 1279.11 472.244
2388 0 63.2185 12.9392 818 160.687 1279.32 470.059
2389 0 66.1393 13.0029 860 163.156 1279.7 468.677
2390 0 68.1493 13.1329 895 162.169 1279.69 468.231
2391 0 71.1198 13.0203 926 160.242 1280.05 466.468
2392 0 73.2901 13.3306 977 157.439 1280.34 464.917
2393 0 74.2285 13.5528 1006 163.002 1280.38 464.401
2394 0 77.2434 13.3604 1032 161.782 1280.9 463.849
2395 0 78.3255 13.7503 1077 159.918 1280.18 462.37
2396 0 82.3918 13.7514 1133 162.709 1280.22 460.414
2397 0 85.3964 13.7359 1173 165.233 1280.1 459.778
2398 0 88.3197 14.2664 1260 159.018 1279.79 457.452
2399 0 91.4005 13.8074 1262 163.495 1279.95 455.564
2400 0 94.5635 13.7368 1299 160.222 1280.38 455.095
2401 0 97.4621 13.9952 1364 163.908 1280.2 453.586
2402 0 100.371 13.8487 1390 163.237 1280.49 452.414
2403 0 104.464 13.9474 1457 160.999 1280.52 451.434
2404 0 106.355 14.6114 1554 157.359 1280.43 447.363
2405 0 110.309 13.9335 1537 157.388 1280.56 446.774
2406 1 59.2568 12.218 724 169.247 1279.96 471.189
2407 0 59.416 13.1446 781 157.525 1280.09 470.704
2408 0 61.3053 13.5714 832 156.173 1279.87 469.383
2409 0 66.1767 13.3431 883 155.496 1279.9 468.019
2410 0 67.2323 13.3715 899 153.002 1280.01 466.037
2411 0 69.3477 12.9204 896 159.444 1280.02 465.022
2412 0 70.3594 13.8148 972 157.349 1279.79 464.474
2413 0 73.2239 13.6021 996 159.16 1279.17 463.126
2414 0 75.254 13.3548 1005 164.17 1279.91 462.845
2415 0 77.5899 13.5585 1052 164.936 1280.01 461.057
2416 0 79.5933 13.858 1103 165.812 1279.87 459.94
2417 0 80.4708 14.0672 1132 169.433 1279.98 458.005
2418 0 84.5528 13.5537 1146 167.586 1279.84 458.102
2419 0 87.2396 13.5604 1183 169.215 1279.95 456.318
2420 0 90.1906 13.8152 1246 167.485 1280.33 453.866
2421 0 92.4244 13.9141 1286 162.944 1280.33 453.008
2422 0 94.4272 14.2861 1349 165.461 1281.2 451.379
2423 0 98.9208 13.6473 1350 164.927 1281.64 450.367
2424 0 102.52 13.7144 1406 163.356 1281.62 448.188
2425 1 53.3679 12.6293 674 167.815 1281.35 469.38
2426 0 54.1478 12.7798 692 167.824 1281.73 469.496
2427 0 58.1982 13.2307 770 171.804 1281.78 467.999
2428 0 57.1378 13.5812 776 170.965 1281.57 467.277
2429 0 59.3005 13.5243 802 169.343 1281.5 465.48
2430 0 63.0848 13.2996 839 169.223 1281.5 465.495
2431 0 64.2434 13.4956 867 167.223 1281.36 463.692
2432 0 66.178 13.6601 904 168.652 1281.79 463.158
2433 0 70.5185 13.8545 977 167.02 1281.92 462.824
2434 0 71.2495 14.2317 1014 165.752 1281.65 461.46
2435 0 73.2381 13.6541 1000 165.739 1281.49 460.439
2436 0 76.3773 13.6821 1045 160.71 1281.93 458.565
2437 0 78.2718 13.8109 1081 161.538 1282.12 458.247
2438 0 82.3031 13.7783 1134 169.568 1281.67 456.571
2439 0 84.3535 13.8465 1168 167.046 1281.51 455.464
2440 0 86.4216 14.14 1222 173.09 1281.93 454.47
2441 0 88.2276 14.2359 1256 166.282 1282.15 453.107
2442 0 92.4181 14.099 1303 168.46 1282.39 451.196
2443 0 97.1785 13.7376 1335 172.21 1282 449.462
2444 0 98.2586 14.2379 1399 165.532 1282 447.508
2445 0 102.354 14.2936 1463 173.012 1282.06 446.303
2446 0 106.257 14.5026 1541 171.467 1281.97 445.221
2447 0 108.423 14.2313 1543 165.309 1282.06 443.974
2448 1 60.1506 11.5377 694 158.647 1281.85 468.408
2449 0 61.1204 12.4345 760 162.628 1281.61 466.929
2450 0 64.1267 12.4285 797 166.414 1281.64 463.94
2451 0 66.1024 12.3747 818 163.598 1281.06 462.971
2452 0 66.1396 12.8667 851 165.952 1281.38 462.093
2453 0 71.1405 12.3418 878 165.358 1281.32 460.976
2454 0 73.174 12.7231 931 153.853 1281.1 458.61
2455 0 75.1468 12.7218 956 158.387 1281.34 457.928
2456 0 77.1633 12.6485 976 162.945 1281.52 457.182
2457 0 80.2072 12.7669 1024 162.088 1281.37 456.809
2458 0 82.1539 13.0243 1070 158.314 1281.34 455.477
2459 0 86.1119 13.0296 1122 161.165 1281 454.299
2460 0 89.1706 12.7845 1140 164.175 1281.07 453.949
2461 0 92.1376 12.6224 1163 164.211 1280.44 451.193
2462 0 95.31 12.7898 1219 164.021 1280.64 450.811
2463 0 96.1108 12.9122 1241 156.637 1280.67 449.327
2464 0 100.27 13.0747 1311 154.871 1280.79 448.382
2465 0 105.196 12.6906 1335 150.957 1280.53 444.914
2466 1 62.0849 10.3568 643 150.481 1280.03 469.241
2467 0 64.2973 10.8558 698 157.513 1280.32 468.477
2468 0 67.2591 11.6862 786 154.916 1280.07 467.341
2469 0 69.2414 11.7126 811 146.657 1280.16 465.027
2470 0 69.1805 11.9109 824 154.01 1279.94 464.269
2471 0 72.1949 12.0784 872 153.196 1279.89 462.95
2472 0 76.2796 11.5758 883 148.792 1280.15 462.425
2473 0 78.2547 12.3954 970 158.638 1280.31 465.638
2474 0 81.3571 12.3038 1001 151.404 1279.76 469.421
2475 0 83.2729 12.3449 1028 156.719 1279.36 470.705
2476 0 85.3764 12.5093 1068 146.235 1279.79 469.028
2477 0 90.4082 12.5984 1139 153.951 1279.72 467.09
2478 0 91.2583 12.6235 1152 158.969 1279.67 465.825
2479 0 96.3224 12.3751 1192 140.553 1279.55 463.874
2480 0 97.4317 12.8192 1249 153.354 1280.04 463.586
2481 1 55.169 10.1688 561 147.642 1277.99 485.693
2482 0 57.3084 10.4173 597 145.998 1278.04 486.821
2483 0 59.2642 10.8666 644 148.127 1278.89 484.412
2484 0 60.2858 11.4621 691 148.03 1278.97 485.094
2485 0 62.2576 10.8581 676 147.078 1278.91 485.473
2486 0 63.1795 11.317 715 149.631 1279.05 484.541
2487 0 66.1385 11.4154 755 152.685 1278.83 482.877
2488 0 67.2246 11.6773 785 150.201 1279 480.904
2489 0 67.2623 11.8194 795 155.033 1279.09 481.04
2490 0 68.3924 11.3901 779 154.209 1279.17 481.358
2491 0 75.2471 12.4789 939 154.778 1280.37 465.623
2492 0 75.1452 12.5624 944 156.733 1280.89 472.197
2493 0 80.2184 12.4161 996 154.139 1281.23 464.776
2494 0 81.2482 12.308 1000 160.902 1280.35 461.734
2495 0 85.1342 13.003 1107 149.896 1280.88 460.509
2496 0 85.2665 13.0884 1116 160.678 1280.88 459.858
2497 0 88.255 12.8945 1138 159.634 1280.89 464.194
2498 0 90.4638 12.9002 1167 160.714 1280.36 467.65
2499 0 93.3283 13.3293 1244 161.917 1280.87 460.785
2500 1 97.2747 12.8194 1247 167.275 1280.73 452.88
2501 0 101.416 12.9072 1309 166.893 1280.68 448.441
2502 1 56.1015 11.2296 630 162.141 1280 472.275
2503 0 59.0869 11.7116 692 156.127 1280.17 470.922
2504 0 61.2654 11.899 729 161.734 1280.85 468.994
2505 0 62.2048 12.1856 758 159.458 1281.08 468.038
2506 0 63.1472 12.0354 760 156.979 1280.94 468.624
2507 0 65.106 12.3184 802 155.938 1281.07 467.892
2508 0 68.1993 12.0529 822 157.528 1280.57 467.754
2509 0 69.1446 12.0906 836 160.94 1280.58 464.902
2510 0 71.2251 12.1586 866 162.361 1281.41 465.289
2511 0 72.1828 12.5515 906 159.33 1281.59 464.773
2512 0 75.3137 12.5873 948 157.805 1281.44 463.187
2513 0 75.3137 12.5873 948 160.057 1281.44 463.187
2514 0 78.2267 13.039 1020 166.851 1281.03 462.09
2515 0 80.1622 12.9862 1041 153.114 1281 459.224
2516 0 85.1698 12.5514 1069 162.589 1281.29 459.088
2517 0 83.2189 12.9177 1075 163.292 1281.19 458.606
2518 0 89.1354 12.7334 1135 160.418 1281.89 454.91
2519 0 91.2464 12.9978 1186 163.009 1281.47 455.238
2520 0 94.2319 13.106 1235 158.653 1281.73 453.048
2521 0 98.2259 12.5731 1235 163.159 1281.89 454.154
2522 1 53.1353 11.3672 604 156.068 1281.18 474.464
2523 0 55.4582 11.9009 660 160.212 1281.53 474.855
2524 0 56.2014 12.3485 694 158.563 1281.8 467.604
2525 0 56.1568 12.5363 704 161.577 1281.57 469.93
2526 0 58.2226 12.0915 704 159.487 1281.53 469.58
2527 0 60.296 12.6045 760 162.678 1281.64 471.121
2528 0 61.3701 11.9276 732 155.019 1281.54 473.918
2529 0 63.3445 12.2347 775 155.139 1281.76 473.625
2530 1 66.1529 12.3955 820 163.107 1281.58 462.344
2531 0 67.1546 12.7765 858 163.22 1281.35 460.791
2532 0 70.1985 12.4362 873 158.093 1281.44 460.07
2533 0 71.2913 12.9188 921 161.929 1281.28 459.024
2534 0 72.1484 13.0564 942 160.713 1281.41 458.516
2535 0 75.17 12.9041 970 162.366 1281.29 456.759
2536 0 76.2531 13.4158 1023 159.184 1281.73 456.391
2537 0 80.2524 13.0463 1047 162.085 1282.16 453.777
2538 0 81.1009 13.3784 1085 168.213 1282.55 453.173
2539 0 85.2154 12.7676 1088 150.797 1282.28 450.582
2540 0 87.1674 13.0439 1137 164.033 1283.01 448.405
2541 0 91.2924 12.8269 1171 158.004 1283.04 448.676
2542 0 93.2271 13.0649 1218 165.755 1282.99 448.641
2543 0 97.13 13.0341 1266 166.072 1283.06 445.007
2544 0 99.1964 13.3674 1326 157.55 1282.89 444.259
2545 1 60.1802 11.4988 692 158.277 1282.56 462.522
2546 0 62.1343 12.0706 750 157.636 1282.49 463.755
2547 0 64.203 12.4449 799 156.687 1282.81 463.879
2548 0 66.167 12.3173 815 159.892 1282.99 462.375
2549 0 67.1404 12.1387 815 155.723 1283.47 461.453
2550 0 70.227 12.5735 883 157.137 1283.15 461.2
2551 0 73.2416 12.3154 902 156.959 1283.45 457.89
2552 0 75.2948 12.6171 950 160.689 1283.61 458.033
2553 0 76.1461 13.067 995 161.195 1283.73 457.102
2554 0 79.1335 12.6621 1002 157.458 1283.99 456.519
2555 0 82.198 12.6889 1043 160.132 1283.98 456.294
2556 0 82.1996 13.0901 1076 155.453 1283.74 453.486
2557 0 87.2773 13.0962 1143 158.428 1283.64 452.829
2558 0 90.2364 12.7554 1151 155.657 1283.47 454.824
2559 0 92.1277 12.7323 1173 154.098 1283.16 452.967
2560 0 94.3274 13.1033 1236 160.265 1283.31 450.007
2561 0 98.3367 12.8538 1264 154.964 1283.72 447.514
2562 0 101.431 13.4378 1363 156.144 1282.97 446.879
2563 0 105.334 12.6644 1334 161.271 1283.04 446.891
2564 0 107.397 13.1847 1416 157.215 1283.1 447.81
2565 0 109.314 12.8986 1410 158.043 1283.02 451.824
2566 0 115.437 13.228 1527 159.515 1283.66 436.149
2567 0 117.34 13.218 1551 156.255 1284.11 435.035
2568 0 122.487 12.9565 1587 158.869 1283.16 434.669
2569 0 125.521 12.8186 1609 147.956 1283.19 435.635
2570 0 129.47 13.2076 1710 150.036 1282.61 441.229
2571 0 134.559 12.4555 1676 149.872 1282.88 437.558
2572 0 76.3795 10.8013 825 137.632 1282.8 454.805
2573 0 79.3643 11.6047 921 143.759 1282.44 453.532
2574 0 81.2202 11.5735 940 139.946 1282.89 450.512
2575 0 84.3756 11.591 978 145.568 1282.46 451.454
2576 0 87.3363 11.9767 1046 148.033 1282.57 447.771
2577 0 88.271 11.9178 1052 145.472 1282.6 450.181
2578 0 91.2546 11.835 1080 146.94 1281.9 450.177
2579 0 93.2821 12.221 1140 143.464 1282.29 446.839
2580 0 96.5392 12.0262 1161 148.628 1282.8 441.795
2581 0 98.3937 12.267 1207 149.31 1282.93 439.93
2582 0 101.319 12.4459 1261 140.477 1283.06 438.512
2583 0 106.409 12.5083 1331 158.733 1282.8 442.05
2584 0 107.462 12.5812 1352 150.964 1282.4 444.095
2585 0 111.466 12.4702 1390 151.75 1282.2 445.075
2586 0 112.386 12.7685 1435 155.284 1282.48 439.14
2587 0 115.32 12.565 1449 155.721 1281.84 441.513
2588 0 120.279 12.8285 1543 151.393 1281.69 436.959
2589 0 124.437 13.316 1657 148.043 1281.56 433.32
2590 0 129.368 12.9476 1675 157.589 1282.06 428.497
2591 1 77.2819 11.2316 868 158.532 1281.61 455.84
2592 0 80.1457 11.3917 913 154.326 1281.51 454.934
2593 0 81.1274 12.5728 1020 160.674 1281.62 454.226
2594 0 83.1625 12.1208 1008 158.514 1282.04 454.495
2595 0 85.1205 11.983 1020 160.586 1281.84 456.927
2596 0 90.2364 12.1791 1099 160.521 1282.28 454.385
2597 0 92.1532 12.2839 1132 157.544 1281.89 451.45
2598 0 94.1452 12.4913 1176 159.707 1281.81 450.274
2599 0 96.2391 12.7807 1230 166.059 1282.84 449.252
2600 0 99.3915 12.4457 1237 159.913 1282.98 447.72
2601 0 101.341 13.0549 1323 159.272 1282.2 446.296
2602 0 105.451 13.2668 1399 161.793 1282.58 445.502
2603 0 109.245 12.9342 1413 164.057 1282.69 443.781
2604 0 110.527 12.8204 1417 155.03 1282.62 442.867
2605 0 116.437 13.1316 1529 165.425 1282.57 439.815
2606 0 118.373 13.2632 1570 164.176 1281.85 438.235
2607 0 122.28 13.6245 1666 165.948 1281.9 437.313
2608 0 126.557 13.4248 1699 160.6 1282.54 435.902
2609 0 130.591 12.9565 1692 150.595 1282.47 430.817
2610 0 134.456 13.1121 1763 159.42 1283.02 429.128
2611 0 138.424 13.8126 1912 163.813 1283.12 426.572
2612 1 76.1744 11.1192 847 167.006 1282.76 458.033
2613 0 79.0903 11.6955 925 164.947 1281.76 455.721
2614 0 79.1042 12.5404 992 163.501 1282.12 451.912
2615 0 82.2003 12.2992 1011 159.508 1281.59 450.689
2616 0 83.2343 12.5669 1046 165.3 1281.44 451.949
2617 0 87.1608 12.6892 1106 153.797 1281.09 452.54
2618 0 90.4016 12.7984 1157 162.646 1281.49 446.277
2619 0 91.3766 12.9464 1183 161.676 1282.21 442.461
2620 0 96.3608 12.64 1218 158.612 1282.53 440.658
2621 0 97.3441 12.841 1250 161.456 1282.45 440.556
2622 0 100.429 13.2731 1333 162.962 1282.28 437.74
2623 0 104.298 12.9436 1350 163.414 1282.12 438.147
2624 0 104.294 13.1167 1368 158.588 1281.74 434.751
2625 0 109.365 12.8012 1400 164.706 1281.65 433.78
2626 0 110.33 12.952 1429 162.853 1281.42 433.004
2627 0 116.499 12.6181 1470 153.646 1281.98 432.158
2628 0 118.338 12.9206 1529 162.624 1281.75 429.426
2629 0 121.545 12.917 1570 163.789 1281.63 428.697
2630 0 124.483 12.6764 1578 157.237 1281.33 426.558
2631 0 129.463 13.0617 1691 154.263 1280.7 425.333
2632 1 73.1293 11.2814 825 151.965 1280.14 457.825
2633 0 75.2007 11.702 880 142.298 1280.31 460.127
2634 0 77.2099 11.6695 901 137.979 1280.58 458.283
2635 0 80.207 11.9192 956 151.236 1280.34 460.317
2636 0 82.2012 11.7881 969 146.058 1280.44 464.567
2637 0 84.1979 12.4112 1045 154.591 1280.94 460.357
2638 0 87.174 12.4923 1089 147.847 1280.21 458.011
2639 0 90.2077 12.6486 1141 151.606 1280.28 455.329
2640 0 94.2325 12.2569 1155 148.041 1280.45 452.746
2641 0 96.1853 12.2576 1179 147.029 1280.45 449.489
2642 0 99.1603 12.2831 1218 154.622 1280.85 449.013
2643 0 102.35 12.5745 1287 157.855 1281.05 450.884
2644 0 104.381 12.9812 1355 149.853 1281.19 449.952
2645 0 108.345 12.8755 1395 154.891 1280.99 442.161
2646 0 112.361 12.5043 1405 147.15 1280.66 443.623
2647 1 66.2373 10.8549 719 156.255 1280.77 471.517
2648 0 66.2684 11.6043 769 152.39 1280.83 465.666
2649 0 67.1269 11.7985 792 152.777 1280.69 466.486
2650 0 69.3754 11.9495 829 149.737 1281.16 465.244
2651 0 70.1211 12.4927 876 159.877 1281.28 463.941
2652 0 73.199 12.5275 917 155.351 1280.8 458.072
2653 0 76.1028 12.1809 927 160.845 1281.28 458.503
2654 0 77.1589 12.7788 986 161.944 1280.87 458.637
2655 0 80.2582 12.4598 1000 158.856 1281.06 461.999
2656 0 81.2825 12.1182 985 161.781 1281.74 463.853
2657 0 83.2478 12.9133 1075 158.191 1282.17 459.305
2658 0 85.3457 12.6661 1081 158.059 1282.15 458.166
2659 0 89.1919 12.7926 1141 164.702 1281.45 454.845
2660 0 90.283 13.1919 1191 158.367 1281.22 453.822
2661 0 92.2775 12.9501 1195 152.382 1280.83 451.262
2662 0 97.4308 13.1273 1279 164.986 1280.87 450.152
2663 0 99.1341 13.6986 1358 156.582 1281.05 449.138
2664 0 102.347 13.2783 1359 161.563 1281.16 448.937
2665 0 105.279 13.26 1396 164.158 1281.05 448.298
2666 0 112.301 15.0845 1694 154.221 1280.76 441.581
2667 0 112.187 13.7627 1544 156.629 1281.07 441.939
2668 1 63.0534 12.4498 785 160.329 1280.68 466.308
2669 0 65.3948 11.9887 784 167.105 1280.17 460.195
2670 0 68.1147 12.2734 836 162.183 1280.88 460.67
2671 0 68.0575 12.5923 857 166.435 1280.33 461.057
2672 0 72.0847 12.8044 923 166.358 1280.63 463.057
2673 0 73.0844 12.6703 926 162.42 1280.54 463.104
2674 0 76.0594 12.4771 949 156.405 1280.41 462.487
2675 0 76.0832 12.8281 976 159.681 1280.3 460.808
2676 0 80.0914 12.6605 1014 162.368 1280.29 459.302
2677 0 80.1064 13.2823 1064 166.223 1279.9 458.188
2678 0 84.1174 13.1126 1103 163.426 1279.86 457.192
2679 0 86.0799 12.9415 1114 164.851 1280.13 457.006
2680 0 87.1614 13.0562 1138 159.428 1280.35 457.192
2681 0 90.0495 13.2372 1192 163.568 1279.75 454.594
2682 0 93.1166 13.0374 1214 158.008 1279.91 454.292
2683 0 97.2284 13.4837 1311 160.027 1280.51 453.056
2684 0 97.1564 13.5246 1314 154.578 1280.37 451.246
2685 0 100.119 13.9534 1397 166.067 1281.52 449.455
2686 0 103.153 13.766 1420 167.563 1281.9 449.093
2687 0 105.1 13.6632 1436 160.738 1281.31 447.134
2688 0 108.116 13.7814 1490 165.763 1281.84 447.187
2689 0 111.264 13.5983 1513 160.017 1281.65 447.882
2690 0 114.091 13.4191 1531 166.027 1282.08 447.906
2691 0 117.154 13.8023 1617 165.994 1281.96 446.014
2692 0 122.221 14.1466 1729 158.791 1281.98 439.522
2693 0 126.136 13.8185 1743 165.791 1281.84 439.751
2694 0 129.138 14.2638 1842 169.06 1281.76 437.597
2695 0 133.176 14.1692 1887 166.62 1281.92 435.573
2696 0 138.27 14.3488 1984 168.703 1281.67 433.81
2697 0 143.208 14.1472 2026 165.086 1281.56 432.971
2698 0 148.207 14.0209 2078 165.711 1281.59 431.364
2699 0 152.225 13.8545 2109 169.615 1281.58 431.536
2700 1 88.1439 12.0825 1065 163.074 1281.54 464.421
2701 0 89.2749 12.9152 1153 161.366 1281.34 466.726
2702 0 90.5252 13.0461 1181 165.936 1281.45 468.539
2703 0 94.4216 13.1644 1243 171.128 1281.32 466.986
2704 0 96.2707 13.4828 1298 160.915 1281.31 464.157
2705 0 99.2657 13.5596 1346 162.629 1281.31 461.328
2706 0 102.53 13.3521 1369 166.483 1281.39 461.565
2707 0 108.303 13.2868 1439 169.263 1281.27 461.029
2708 0 111.522 13.235 1476 162.43 1281.19 459.428
2709 0 114.391 13.008 1488 170.549 1280.96 457.614
2710 0 117.395 13.2714 1558 167.543 1280.76 451.619
2711 0 120.312 13.4234 1615 169.519 1280.9 453.155
2712 0 126.387 13.6248 1722 165.185 1280.27 449.973
2713 1 131.347 13.3387 1752 155.461 1280.67 441.8
2714 1 76.2435 11.2534 858 163.655 1280.55 471.831
2715 0 78.2876 12.3136 964 159.466 1280.65 468.141
2716 0 81.2064 12.3143 1000 161.442 1280.87 466.656
2717 0 81.2028 12.8074 1040 158.699 1280.59 465.257
2718 0 84.2643 12.7693 1076 161.967 1280.69 464.292
2719 0 87.2057 12.3845 1080 157.808 1281.2 466.932
2720 0 88.5249 13.3183 1179 158.25 1281.22 468.903
2721 0 91.3531 13.2563 1211 157.375 1281.04 467.695
2722 0 93.2826 13.2715 1238 160.459 1281.14 462.348
2723 0 97.3602 13.106 1276 166.828 1281.17 461.193
2724 0 98.2861 13.186 1296 167.855 1281.35 460.134
2725 0 102.476 13.1153 1344 168.905 1280.26 459.269
2726 0 103.393 12.9118 1335 165.756 1280.38 461.13
2727 0 107.313 12.785 1372 167.407 1280.72 460.159
2728 0 110.55 13.3423 1475 168.594 1279.79 455.466
2729 0 113.362 13.0908 1484 167.604 1279.94 454.632
2730 0 116.464 13.4204 1563 159.154 1280.99 453.825
2731 0 120.469 13.3395 1607 164.044 1280.76 453.314
2732 1 71.1919 11.9536 851 162.235 1280.79 471.19
2733 0 70.1999 11.3675 798 162.613 1280.67 471.045
2734 0 69.2181 11.4421 792 163.032 1280.34 470.345
2735 0 72.1511 11.9749 864 161.412 1280.64 468.84
2736 0 72.331 12.5672 909 158.569 1280.92 469.002
2737 0 74.1487 12.5289 929 159.847 1280.82 466.919
2738 0 77.1429 12.6389 975 156.204 1280.65 465.76
2739 0 80.1506 12.2769 984 158.542 1280.82 466.08
2740 0 81.2278 12.7666 1037 161.663 1280.77 466.256
2741 0 84.2432 12.642 1065 162.113 1280.01 462.966
2742 0 86.1391 12.8049 1103 167.665 1280.88 460.529
2743 0 91.2449 12.6802 1157 160.277 1280.57 458.21
2744 0 91.2354 12.5171 1142 155.085 1280.75 457.918
2745 0 94.3294 12.997 1226 159.821 1279.98 461.55
2746 0 98.2529 12.8953 1267 155.161 1279.85 455.548
2747 0 101.155 12.9307 1308 159.684 1280.53 454.401
2748 0 103.275 13.0525 1348 158.265 1280.76 452.381
2749 0 107.557 12.663 1362 160.96 1280.61 450.79
2750 0 111.289 12.9842 1445 160.292 1279.79 449.061
2751 0 113.216 13.143 1488 160.316 1280.03 447.702
2752 0 117.259 13.338 1564 161.689 1280.22 445.135
2753 0 120.486 13.4373 1619 164.399 1279.42 443.156
2754 0 125.511 13.5925 1706 158.18 1280.11 440.499
2755 1 70.2118 10.9811 771 161.39 1280.3 470.39
2756 0 72.1585 11.8073 852 159.85 1280.53 470.266
2757 0 74.1866 12.0103 891 156.165 1280.57 466.652
2758 0 76.3 12.2018 931 160.299 1280.18 469.81
2759 0 76.471 12.083 924 156.596 1280.62 474.488
2760 0 82.4947 12.3402 1018 152.018 1279.83 469.34
2761 0 85.5147 12.0681 1032 159.477 1279.81 467.026
2762 0 87.385 12.2332 1069 163.679 1280.04 460.632
2763 0 89.2447 12.0567 1076 157.567 1279.88 460.302
2764 0 89.5236 12.2426 1096 159.303 1280.24 459.154
2765 0 93.413 12.6535 1182 155.572 1281.1 457.702
2766 0 95.3723 12.4984 1192 151.112 1280.31 457.949
2767 0 97.5441 12.6814 1237 161.178 1280.33 460.441
2768 0 100.529 12.6133 1268 158.692 1280.87 462.603
2769 0 102.477 12.1003 1240 157.765 1281.58 460.504
2770 1 106.332 13.0911 1392 159.812 1281.36 447.976
2771 0 107.417 12.8378 1379 161.302 1282.34 448.922
2772 0 110.44 12.8757 1422 159.283 1282.05 447.443
2773 0 113.339 12.9082 1463 154.455 1281.85 447.398
2774 0 116.384 12.8798 1499 158.242 1282.07 449.288
2775 0 120.452 12.6855 1528 154.127 1281.62 441.449
2776 0 126.338 12.8465 1623 154.709 1281.49 437.825
2777 1 71.2682 10.5517 752 155.053 1281.78 465.862
2778 0 73.2966 11.3238 830 151.553 1282.16 465.463
2779 0 74.355 12.3058 915 152.548 1282.6 463.386
2780 0 77.1858 11.9063 919 152.913 1282.47 461.138
2781 0 80.2356 12.239 982 151.145 1282.29 460.878
2782 0 82.3095 12.3558 1017 152.984 1282.16 460.16
2783 0 85.4908 12.0247 1028 155.737 1282 461.685
2784 0 86.5309 12.6082 1091 150.737 1282.61 456.887
2785 0 89.2555 12.6715 1131 151.228 1282.07 457.121
2786 0 93.2885 12.5632 1172 153.361 1282.48 452.06
2787 0 94.3186 12.5002 1179 157.416 1282.97 451.747
2788 0 96.4842 12.5513 1211 155.574 1282.33 450.41
2789 0 100.32 12.9885 1303 157.094 1282.73 449.568
2790 0 104.488 12.6905 1326 152.59 1283.18 448.94
2791 0 106.372 12.9827 1381 161.762 1283.21 446.418
2792 0 106.372 12.9827 1381 167.001 1286.21 446.418
2793 1 59.1432 11.0241 652 156.583 1282.88 468.778
2794 0 61.1995 11.5197 705 153.74 1282.8 467.711
2795 0 64.2838 11.9159 766 156.597 1283.25 466.436
2796 0 65.2985 11.9911 783 154.917 1283.38 465.683
2797 0 67.2893 12.1862 820 159.582 1283.72 463.729
2798 0 68.3404 12.467 852 155.541 1283.54 462.414
2799 0 70.1592 12.6427 887 154.935 1283.51 460.884
2800 0 73.1733 12.4499 911 160.878 1283.44 459.774
2801 0 75.2456 12.8911 970 157.426 1283.61 458.256
2802 0 77.2364 12.5071 966 163.486 1284.09 459.325
2803 0 78.1811 12.8164 1002 161.868 1284.34 457.851
2804 0 82.233 12.3551 1016 165.987 1284.17 456.282
2805 0 84.3375 12.616 1064 161.661 1284.8 454.986
2806 0 85.4504 13.3879 1144 160.733 1284.07 454.887
2807 0 88.3448 12.9493 1144 158.454 1283.98 453.798
2808 0 91.312 12.9337 1181 166.078 1284.1 453.494
2809 0 93.4237 13.2622 1239 164.914 1284.21 453.402
2810 0 95.3954 13.6589 1303 164.21 1284.42 451.233
2811 0 98.2128 13.5115 1327 165.638 1284.41 449.646
2812 0 101.364 13.6538 1384 166.088 1284.34 447.947
2813 0 104.514 13.3762 1398 165.333 1284.43 445.534
2814 0 106.334 13.3447 1419 162.976 1284.52 445.049
2815 0 107.419 14.0757 1512 164.075 1284.6 444.512
2816 0 111.441 13.2806 1480 168.313 1285.16 446.124
2817 0 114.381 13.6212 1558 162.781 1284.82 444.976
2818 0 118.328 13.8259 1636 161.287 1284.25 438.3
2819 0 121.503 13.7445 1670 166.645 1284.05 437.039
2820 0 123.29 13.7643 1697 167.377 1284.33 436.174
2821 0 128.336 13.7608 1766 160.869 1284.14 434.818
2822 0 131.4 13.6987 1800 163.317 1283.88 432.587
2823 0 135.387 13.9304 1886 164.625 1283.75 430.066
2824 0 139.353 13.8426 1929 167.383 1283.64 428.196
2825 0 142.322 14.1229 2010 159.213 1283.88 426.697
2826 0 148.381 14.0112 2079 163.097 1283.92 425.421
2827 0 153.265 14.0215 2149 159.302 1283.95 422.326
2828 0 158.281 14.1141 2234 159.872 1283.79 419.884
2829 0 164.394 14.0091 2303 164.231 1283.2 415.852
2830 1 101.255 12.6908 1285 169.967 1281.95 449.146
2831 0 104.305 13.7385 1433 170.154 1282.45 448.424
2832 0 106.258 13.6178 1447 163.885 1282.39 445.822
2833 0 108.296 13.4631 1458 167.04 1282.24 442.73
2834 0 113.259 13.5001 1529 163.626 1281.86 442.005
2835 0 114.23 14.1294 1614 159.736 1281.89 439.44
2836 0 116.286 14.086 1638 166.844 1281.41 438.221
2837 0 121.409 13.9364 1692 164.316 1282.14 437.537
2838 0 125.437 13.8236 1734 165.337 1281.81 436.326
2839 0 129.359 13.8838 1796 165.81 1281.14 435.395
2840 0 132.523 14.1787 1879 164.648 1281.7 434.1
2841 0 134.372 14.3184 1924 165.348 1282 432.374
2842 0 140.327 13.9602 1959 160.612 1281.87 429.188
2843 0 146.44 14.4223 2112 164.471 1282.24 426.481
2844 0 150.249 14.2164 2136 163.873 1282.39 423.522
2845 0 156.32 14.464 2261 168.607 1282.55 421.429
2846 0 159.32 14.4301 2299 170.255 1282.28 419.415
2847 0 164.302 14.4186 2369 164.324 1281.57 417.455
2848 0 172.245 14.1774 2442 171.541 1282.09 416.165
2849 0 176.327 14.5298 2562 166.953 1282.96 412.691
2850 0 182.182 14.7435 2686 157.278 1282.96 408.22
2851 0 188.276 14.4309 2717 166.965 1283.12 406.131
2852 0 196.31 14.7777 2901 164.638 1283.52 402.052
2853 1 112.276 13.2798 1491 171.469 1283.96 444.04
2854 0 116.125 13.3908 1555 167.014 1283.26 440.047
2855 0 120.217 13.5339 1627 168.607 1283.5 439.369
2856 0 123.293 13.8288 1705 166.564 1283.73 437.287
2857 0 127.147 13.5513 1723 169.74 1283.71 435.351
2858 0 131.15 13.5189 1773 166.483 1283.08 434.289
2859 0 136.187 13.8633 1888 170.428 1282.82 431.96
2860 0 138.291 13.6163 1883 161.056 1283.14 428.978
2861 0 143.161 13.8306 1980 166.874 1282.06 426.914
2862 0 145.235 13.998 2033 163.458 1282.62 425.862
2863 0 150.158 13.9386 2093 168.5 1282.75 422.876
2864 0 158.34 13.9889 2215 168.005 1283.39 422.259
2865 0 163.225 13.9133 2271 165.655 1283.73 419.418
2866 0 168.232 13.8915 2337 161.504 1283.08 415.89
2867 0 175.21 13.8862 2433 158.929 1282.82 412.367
2868 1 104.156 12.1645 1267 160.609 1282.46 448.774
2869 0 108.19 12.21 1321 154.96 1282.28 447.352
2870 0 111.101 12.6011 1400 159.681 1282.25 445.273
2871 0 114.1 12.4978 1426 162.158 1282.63 445.757
2872 0 119.179 12.9386 1542 158.191 1282.82 443.768
2873 0 125.273 12.6763 1588 159.758 1282.34 447.338
2874 0 131.52 12.6065 1658 159.321 1282.35 444.082
2875 0 136.296 12.869 1754 161.908 1282.05 441.216
2876 1 71.0695 11.5099 818 160.364 1283.42 465.111
2877 0 74.0829 11.8246 876 157.005 1283.68 463.07
2878 0 75.1598 11.5886 871 154.906 1282.54 462.572
2879 0 77.1611 11.7805 909 160.128 1283.06 461.427
2880 0 79.24 11.9132 944 157.809 1282.66 462.112
2881 0 85.2454 11.766 1003 159.287 1282.59 463.358
2882 0 85.1742 12.3042 1048 159.177 1281.97 459.282
2883 0 87.2317 12.3579 1078 161.579 1282.02 455.927
2884 0 91.1287 12.6963 1157 158.151 1282 452.967
2885 0 95.1511 12.2962 1170 159.803 1282.9 451.98
2886 1 54.0607 10.1737 550 154.162 1284.01 475.698
2887 0 56.0423 10.6705 598 156.607 1283.68 472.286
2888 0 57.0605 11.4089 651 155.512 1283.68 470.983
2889 0 59.1222 11.6707 690 155.029 1281.81 468.842
2890 0 61.1649 11.9513 731 162.966 1282.39 468.55
2891 0 61.1656 11.8694 726 159.306 1282.21 468.839
2892 0 64.075 11.5802 742 163.524 1282.51 464.245
2893 0 66.0947 12.3913 819 153.747 1282.46 463.683
2894 0 69.0594 12.6992 877 156.075 1282.47 461.643
2895 0 69.0307 12.3568 853 159.438 1282.94 461.529
2896 0 72.085 12.6656 913 166.558 1283.1 460.889
2897 0 73.054 12.4018 906 158.991 1282.34 460.884
2898 0 75.0784 12.8266 963 155.222 1282.44 459.134
2899 0 76.1732 12.4978 952 162.993 1282.92 459.285
2900 0 77.1361 12.9641 1000 165.81 1282.98 457.882
2901 0 82.2781 12.6401 1040 164.558 1282.57 458.212
2902 0 81.1605 13.1591 1068 168.32 1283.19 453.962
2903 0 86.1304 12.8991 1111 168.978 1283.39 452.088
2904 0 88.0959 13.0313 1148 160.015 1283.82 453.048
2905 0 91.2036 13.278 1211 167.967 1284.07 452.993
2906 0 94.1318 12.9606 1220 164.025 1283.45 450.129
2907 0 97.1632 12.8753 1251 161.671 1283.89 449.64
2908 0 100.218 12.9218 1295 159.104 1283.48 447.847
2909 0 100.122 13.4237 1344 162.724 1283.32 445.883
2910 0 105.19 13.2808 1397 160.651 1282.99 444.221
2911 0 107.247 13.2591 1422 163.764 1283.39 442.036
2912 1 60.177 12.2306 736 157.075 1282.62 465.238
2913 0 63.1392 12.322 778 157.62 1283.04 467.305
2914 0 66.173 11.5002 761 160.021 1282.81 466.967
2915 0 68.0905 12.1309 826 158.35 1283.03 464.327
2916 0 67.1426 12.4809 838 154.294 1283.86 463.413
2917 0 70.1367 11.9766 840 158.001 1283.32 462.398
2918 0 72.1812 11.9422 862 156.486 1283.64 460.951
2919 0 74.1417 12.4356 922 149.48 1283.79 460.138
2920 0 76.1203 12.5459 955 154.027 1283.13 459.571
2921 0 77.2443 12.6352 976 161.115 1283.36 460.236
2922 0 80.1307 12.6918 1017 156.113 1283.54 461.158
2923 0 84.1868 12.6148 1062 155.603 1283.81 456.39
2924 0 86.2248 12.7689 1101 153.4 1283.45 457.21
2925 0 86.1009 12.9151 1112 155.928 1283.42 458.217
2926 0 89.1721 13.0198 1161 157.429 1283.7 456.345
2927 0 91.2085 13.6391 1244 155.611 1283.59 450.31
2928 0 94.0971 13.061 1229 161.604 1284.36 451.152
2929 0 96.3072 13.3946 1290 156.488 1284.64 452.078
2930 0 100.297 13.4201 1346 158.987 1284.2 452.577
2931 0 102.288 12.8852 1318 150.127 1284.58 453.387
2932 0 106.28 13.2574 1409 158.678 1284.32 454.116
2933 0 109.589 13.3408 1462 155.252 1283.88 455.038
2934 1 114.38 13.2628 1517 157.733 1283.6 443.177
2935 1 69.2675 11.4195 791 150.36 1283.93 468.48
2936 0 71.2899 11.839 844 155.012 1283.48 468.966
2937 0 73.4571 11.8709 872 157.525 1283.56 472.615
2938 0 74.3424 12.2945 914 152.225 1284.01 467.795
2939 0 79.2901 12.8011 1015 157.017 1283.5 460.593
2940 0 82.2854 12.1893 1003 163.506 1283.45 455.747
2941 0 82.1785 12.8501 1056 161.456 1283.47 455.036
2942 0 84.3726 12.4567 1051 160.723 1282.89 455.882
2943 0 87.658 12.7769 1120 163.645 1282.99 455.003
2944 0 90.3946 12.7331 1151 161.933 1283.22 454.589
2945 0 92.4174 12.8547 1188 164.224 1283.16 454.452
2946 0 95.3249 12.641 1205 168.93 1283 453.445
2947 0 100.293 12.7626 1280 161.004 1282.63 450.64
2948 0 103.257 13.2292 1366 166.158 1282.63 449.652
2949 0 106.389 13.1216 1396 162.555 1283.11 448.566
2950 0 108.5 12.977 1408 157.057 1283.02 449.524
2951 0 112.29 13.0288 1463 162.928 1283.07 447.144
2952 0 115.325 13.2062 1523 165.233 1283.06 443.081
2953 1 67.1258 11.322 760 150.199 1282.38 463.659
2954 0 68.2064 11.8611 809 159.278 1282.4 462.706
2955 0 71.2118 12.3575 880 159.066 1283.16 464.078
2956 0 74.1195 12.1021 897 155.138 1283.06 462.532
2957 0 75.1649 12.1732 915 152.384 1282.75 460.585
2958 1 77.2082 13.0297 1006 162.438 1282.42 450.065
2959 0 79.2461 12.4675 988 157.834 1282.38 451.22
2960 0 81.2745 12.7469 1036 158.075 1282.14 451.56
2961 0 83.2027 12.9563 1078 153.669 1282.17 452.474
2962 0 85.2197 13.2716 1131 161.681 1282.43 452.599
2963 0 88.2527 12.9628 1144 159.221 1281.98 451.854
2964 0 91.3302 12.8764 1176 165.52 1281.83 448.31
2965 0 95.2441 13.7121 1306 164.479 1282.48 449.282
2966 0 96.143 13.4903 1297 157.18 1282.09 448.285
2967 0 98.2458 13.7309 1349 162.17 1282.63 448.462
2968 0 103.56 13.3546 1383 164.87 1282.09 447.701
2969 0 104.335 14.2043 1482 160.573 1282.46 445.122
2970 0 110.229 13.3449 1471 164.64 1282.11 444.404
2971 0 111.32 13.8339 1540 164.946 1282.05 440.331
2972 0 115.389 13.8488 1598 165.061 1282.12 440.625
2973 0 118.343 13.6214 1612 158.694 1281.92 439.837
2974 0 121.243 13.6008 1649 163.837 1281.73 436.966
2975 0 125.286 13.6089 1705 164.083 1281.93 431.785
2976 0 130.562 13.7176 1791 163.85 1282.23 432.305
2977 0 132.265 13.5334 1790 158.17 1282.09 428.472
2978 0 139.29 13.8344 1927 161.326 1281.51 425.093
2979 1 78.2314 12.054 943 162.717 1281.18 456.51
2980 0 79.124 12.6889 1004 158.031 1280.94 454.63
2981 0 84.239 12.2865 1035 158.949 1280.63 456.218
2982 0 85.1783 12.5619 1070 151.364 1281.11 456.086
2983 0 88.1495 12.3654 1090 149.666 1281.18 455.064
2984 0 91.125 13.0919 1193 165.658 1281.43 454.257
2985 0 93.1092 13.0707 1217 160.761 1281.31 453.891
2986 0 97.124 13.3541 1297 158.827 1281.2 451.848
2987 0 99.1475 13.3942 1328 157.861 1281.18 450.498
2988 0 101.119 13.2814 1343 151.243 1281.65 449.905
2989 0 105.138 13.002 1367 153.168 1282.14 448.138
2990 0 108.144 13.1677 1424 161.821 1282.38 447.475
2991 0 110.255 13.7319 1514 163.142 1281.96 445.937
2992 0 112.232 13.8463 1554 157.978 1281.51 444.441
2993 0 117.26 13.5597 1590 160.646 1281.14 443.073
2994 0 120.31 13.6231 1639 158.424 1281.69 442.181
2995 0 125.34 13.611 1706 157.458 1282.2 438.873
2996 0 129.224 14.1924 1834 153.423 1281.55 435.226
2997 0 132.214 13.8564 1832 161.431 1282 433.721
2998 0 139.312 13.6815 1906 159.118 1281.68 431.07
2999 1 79.13 11.1715 884 152.645 1281.79 462.417
3000 0 80.1234 11.8442 949 151.874 1281.91 460.871
3001 0 80.1234 11.8442 949 153.678 1282.91 460.871
3002 0 86.1117 12.5999 1085 155.98 1281.49 457.924
3003 0 87.3153 12.6209 1102 155.942 1281.37 456.227
3004 0 90.3119 12.8222 1158 156.535 1281.28 455.234
3005 0 92.2304 12.7724 1178 154.924 1281.35 454.916
3006 0 94.2413 13.0516 1230 157.602 1281.85 452.106
3007 0 98.179 12.7115 1248 153.914 1282.16 452.821
3008 0 101.224 12.4477 1260 157.245 1282.25 453.55
3009 0 105.349 13.2227 1393 159.404 1282.24 454.121
3010 0 107.392 12.8781 1383 159.064 1282.08 458.918
3011 1 111.224 13.1806 1466 159.364 1281.97 447.351
3012 0 113.31 13.1938 1495 161.971 1282.51 446.068
3013 0 117.264 12.8172 1503 163.576 1282 443.56
3014 0 119.187 12.7782 1523 154.779 1282.69 443.966
3015 0 126.282 12.7967 1616 155.53 1282.13 439.098
3016 1 70.3098 11.5204 810 161.193 1282.19 467.544
3017 0 73.3635 11.6952 858 154.364 1281.96 463.974
3018 0 74.181 12.119 899 156.325 1281.84 463.802
3019 0 77.2916 12.4464 962 165.156 1282.73 462.392
3020 0 78.4227 12.2031 957 159.164 1282.5 461.195
3021 0 80.3347 12.8214 1030 162.141 1282.33 460.366
3022 0 83.3456 12.3582 1030 166.879 1282.36 460.655
3023 0 85.3874 12.5545 1072 159.238 1282.51 457.729
3024 0 87.265 12.6626 1105 162.416 1282.74 455.596
3025 0 90.3949 12.556 1135 157.6 1282.47 454.404
3026 0 91.4133 12.799 1170 165.279 1282.97 453.843
3027 0 97.3711 13.0121 1267 158.764 1282.99 448.418
3028 0 98.4991 13.127 1293 163.64 1283.55 449.061
3029 0 102.34 12.7614 1306 160.606 1282.95 450.04
3030 0 104.396 12.8836 1345 158.554 1283.26 446.286
3031 0 109.331 13.0429 1426 164.008 1283.65 444.199
3032 0 110.42 13.4578 1486 160.958 1284.14 443.956
3033 0 114.391 12.9206 1478 162.499 1284.13 440.864
3034 0 120.364 13.3678 1609 152.857 1283.82 436.797
3035 0 120.449 13.7154 1652 160.369 1284.66 434.952
3036 0 125.383 12.9682 1626 158.602 1284.59 433.097
3037 1 68.2593 10.6506 727 156.245 1284.06 461.358
3038 0 70.1945 11.3969 800 152.132 1283.43 458.621
3039 0 70.0538 12.105 848 150.691 1283.71 459.249
3040 0 73.134 11.8823 869 155.565 1284.27 458.331
3041 0 75.1439 12.1766 915 153.881 1284.61 458.158
3042 0 78.2857 12.3267 965 159.324 1284.57 457.678
3043 0 80.1926 12.3702 992 153.279 1285.25 455.727
3044 0 80.1384 12.7779 1024 154.329 1284.76 455.223
3045 0 84.1831 12.2709 1033 155.747 1284.26 454.772
3046 0 84.2306 12.7388 1073 152.853 1285.06 454.282
3047 0 86.2459 12.8934 1112 151.648 1284.56 452.066
3048 0 91.2284 12.54 1144 159.584 1284.09 450.399
3049 0 91.2621 12.7435 1163 149.945 1284.01 449.036
3050 0 94.2401 12.9244 1218 154.966 1284.35 447.84
3051 0 98.2366 12.8771 1265 154.915 1284.25 446.349
3052 0 101.228 13.1189 1328 158.094 1284.1 446.317
3053 0 103.336 12.948 1338 154.052 1284.55 444.042
3054 0 104.164 12.9892 1353 151.326 1284.3 442.324
3055 0 108.179 12.618 1365 157.052 1285.28 441.722
3056 0 112.173 12.9443 1452 153.48 1285.39 439.104
3057 0 115.216 12.5763 1449 155.271 1284.89 438.034
3058 0 118.258 12.7941 1513 151.205 1284.68 434.709
3059 0 121.554 12.8338 1560 151.188 1284.27 431.163
3060 1 69.2272 10.1983 706 146.83 1283.54 455.082
3061 0 71.1813 11.7587 837 153.78 1284.07 456.342
3062 0 75.1282 12.4853 938 144.381 1283.25 457.52
3063 0 75.2061 12.366 930 145.451 1283.25 458.024
3064 0 79.1985 12.1341 961 153.576 1283.25 457.672
3065 0 80.3376 12.6093 1013 148.116 1282.84 457.033
3066 0 82.2612 12.3995 1020 153.374 1282.2 456.626
3067 0 83.222 12.3525 1028 150.925 1282.4 456.521
3068 0 87.1844 12.4678 1087 149.759 1282.72 454.002
3069 0 88.3179 12.5682 1110 156.272 1283.46 454.426
3070 0 92.3729 12.5037 1155 160.437 1283.49 453.895
3071 0 94.3639 12.5472 1184 155.561 1283.36 452.39
3072 0 97.2968 13.0323 1268 158.783 1283.27 451.714
3073 0 99.4586 13.1612 1309 163.04 1283.28 453.244
3074 0 101.419 13.0055 1319 163.105 1282.87 456.172
3075 0 103.323 12.998 1343 162.369 1283.25 457.281
3076 1 110.194 13.1041 1444 162.376 1282.25 445.388
3077 0 113.25 13.2715 1503 165.124 1282.99 443.971
3078 0 115.419 13.1434 1517 161.316 1282.72 445.018
3079 0 119.393 12.8064 1529 47.6527 1282.53 444.131
3080 1 69.2412 12.2037 845 154.701 1282.25 465.609
3081 0 71.1916 12.0941 861 165.469 1282.47 464.021
3082 0 72.2104 12.6159 911 159.486 1282.26 464.962
3083 0 73.1088 12.8712 941 162.9 1281.89 463.486
3084 0 74.1767 13.1847 978 163.464 1282.24 463.057
3085 0 76.1083 13.0997 997 159.311 1281.7 461.122
3086 0 80.1392 12.7528 1022 158.11 1281.61 461.078
3087 0 82.1348 12.5404 1030 158.835 1281.24 460.182
3088 0 83.2436 12.974 1080 167.945 1281.48 461.196
3089 0 87.3296 12.9051 1127 169.097 1281.42 462.769
3090 0 89.3423 12.939 1156 167.68 1281.73 466.877
3091 0 91.2062 13.5188 1233 168.656 1281.12 457.623
3092 0 93.1869 13.1671 1227 161.541 1281.27 456.36
3093 0 95.1353 13.7909 1312 167.522 1281.7 454.214
3094 0 98.1631 13.6609 1341 167.63 1281.4 453.064
3095 0 101.259 13.4211 1359 168.505 1280.84 453.926
3096 0 103.295 13.4469 1389 168.995 1280.86 453.819
3097 0 105.157 14.0076 1473 160.874 1280.77 451.462
3098 1 109.403 13.7748 1507 167.841 1280.9 441.141
3099 0 113.224 13.6897 1550 163.324 1281.4 443.914
3100 0 115.313 13.8839 1601 166.577 1280.94 443.359
3101 0 118.347 14.1194 1671 168.744 1280.67 443.536
3102 0 121.259 14.201 1722 165.443 1280.62 442.224
3103 0 125.261 14.0187 1756 167.11 1280.74 439.819
3104 0 129.418 14.1016 1825 163.9 1281.89 435.494
3105 0 133.302 13.9458 1859 169.484 1281.81 432.76
3106 0 137.379 14.2671 1960 163.054 1281.95 429.589
3107 0 142.261 14.2344 2025 170.767 1281.96 428.689
3108 0 145.264 14.0984 2048 167.768 1281.66 427.251
3109 1 86.1905 12.8784 1110 165.74 1282.46 457.217
3110 0 89.1998 13.0269 1162 163.941 1281.32 454.468
3111 0 92.1955 13.2111 1218 162.628 1281.86 453.97
3112 0 94.2127 12.9919 1224 92.5033 1281.23 451.469
3113 0 98.1903 13.3924 1315 166.598 1281.21 449.709
3114 0 100.251 13.2069 1324 160.034 1281.27 447.554
3115 0 102.232 13.5965 1390 166.091 1281.26 447.049
3116 0 101.173 11.6929 1183 80.0744 1281.84 446.694
3117 0 109.314 13.3469 1459 160.066 1281.43 446.755
3118 0 110.261 13.5678 1496 166.757 1282.56 447.529
3119 0 114.179 14.2496 1627 154.715 1281.94 439.562
3120 0 119.256 13.819 1648 164.691 1281.86 439.15
3121 0 122.132 13.5755 1658 163.577 1281.7 437.304
3122 0 127.263 13.4996 1718 163.07 1282.58 436.54
3123 0 132.232 13.499 1785 167.068 1282.34 434.666
3124 0 135.172 13.9748 1889 159.665 1282.51 430.025
3125 0 142.177 13.3355 1896 163.824 1281.68 425.529
3126 1 79.2863 12.2846 974 152.48 1281.87 457.766
3127 0 83.1734 12.9128 1074 159.431 1281.96 455.744
3128 0 86.2241 12.6995 1095 157.175 1282.36 454.43
3129 0 88.1381 12.6279 1113 155.662 1281.11 454.509
3130 0 92.2574 12.6711 1169 151.997 1282.36 453.623
3131 0 95.16 12.9887 1236 159.256 1282.73 448.806
3132 0 96.5553 13.2152 1276 170.155 1283.03 448.879
3133 0 99.3144 13.1804 1309 158.354 1283.29 446.615
3134 0 104.355 13.0995 1367 154.409 1282.9 447.004
3135 0 105.29 13.5055 1422 161.349 1283.35 446.355
3136 0 108.43 13.5295 1467 160.868 1283.53 445.692
3137 0 111.361 13.5864 1513 167.827 1283.69 443.371
3138 0 115.157 13.347 1537 166.93 1283.55 441.098
3139 0 116.242 13.5751 1578 162.148 1284.01 441.548
3140 0 120.361 14.0411 1690 153.108 1284.34 439.806
3141 0 124.433 13.5173 1682 170.401 1284.68 437.346
3142 0 129.633 13.4765 1747 167.384 1284.79 437.109
3143 0 134.4 15.2009 2043 160.492 1284.45 427.984
3144 0 137.313 13.6767 1878 165.214 1284.96 429.63
3145 0 144.35 13.7444 1984 165.676 1284.75 427.31
3146 1 80.1969 12.4568 999 168.543 1284.52 458.671
3147 0 82.1678 12.7057 1044 170.123 1284.06 456.987
3148 0 86.2477 12.8351 1107 162.557 1283.86 456.38
3149 0 88.299 13.0126 1149 108.279 1283.86 455.675
3150 0 93.3997 13.287 1241 164.027 1284.26 451.89
3151 0 95.3336 13.5314 1290 165.372 1284.06 448.654
3152 0 97.1422 13.4133 1303 169.16 1283.97 448.675
3153 0 101.234 13.5428 1371 164.227 1283.52 447.238
3154 0 105.17 13.2548 1394 165.326 1283.98 446.258
3155 0 107.503 13.4508 1446 167.973 1284.27 447.683
3156 0 111.296 13.2799 1478 165.007 1284.39 446.574
3157 0 113.415 13.6842 1552 169.19 1284.22 443.314
3158 0 118.411 13.4785 1596 165.706 1284.11 442.253
3159 0 121.267 13.4002 1625 167.464 1284.26 440.3
3160 0 126.283 13.6519 1724 160.703 1284.18 436.142
3161 1 67.2536 12.3414 830 170.537 1283.49 460.657
3162 0 70.2249 13.115 921 166.865 1283.19 458.838
3163 0 73.225 13.0693 957 168.994 1283.49 461.934
3164 0 74.2 13.248 983 156.915 1283.85 459.177
3165 0 78.3212 13.2659 1039 168.22 1283.68 458.794
3166 0 81.1648 13.4171 1089 167.801 1283.47 456.477
3167 0 83.2085 13.328 1109 162.464 1283.44 455.362
3168 0 86.2464 13.5658 1170 168.702 1283.14 455.969
3169 0 88.2442 13.3493 1178 164.711 1283.02 454.66
3170 0 90.2371 13.8524 1250 115.388 1282.89 453.758
3171 0 92.1679 13.6816 1261 159.909 1283.06 452.867
3172 0 96.2966 14.123 1360 155.035 1283.22 450.814
3173 0 100.296 13.4801 1352 166.088 1282.53 450.576
3174 0 101.267 13.7952 1397 161.434 1282.96 450.522
3175 0 104.186 14.1382 1473 164.87 1282.91 447.954
3176 0 108.33 14.0404 1521 161.203 1282.54 447.544
3177 0 111.304 13.4497 1497 164.961 1283.09 446.953
3178 0 114.37 13.3688 1529 161.341 1282.81 445.218
3179 0 117.239 13.9118 1631 166.652 1282.49 443.739
3180 0 122.4 13.9379 1706 161.706 1282.6 440.947
3181 0 125.143 13.9041 1740 166.225 1282.05 436.69
3182 1 129.427 14.147 1831 162.713 1282.77 427.803
3183 0 135.391 14.0334 1900 168.381 1282.38 423.384
3184 1 73.1285 12.5943 921 163.521 1282.09 450.649
3185 0 77.1244 12.9272 997 163.023 1282.23 455.565
3186 0 79.0818 12.8601 1017 163.509 1282.34 459.185
3187 0 82.1529 12.6837 1042 162.455 1282.05 460.027
3188 0 84.1323 12.8369 1080 164.692 1282.01 458.304
3189 0 88.2866 13.1957 1165 166.973 1282.27 456.518
3190 0 90.1412 12.9907 1171 159.273 1281.82 455.99
3191 0 92.1696 13.0846 1206 158.999 1282.35 456.024
3192 0 96.1816 13.5057 1299 169.16 1281.51 452.604
3193 0 98.1343 14.0318 1377 159.206 1281.45 449.792
3194 0 102.159 13.3028 1359 166.706 1281.38 448.884
3195 0 105.134 13.5637 1426 160.381 1281.8 449.098
3196 0 107.069 13.5801 1454 163.275 1281.63 448.644
3197 0 110.11 13.759 1515 156.937 1281.61 445.943
3198 0 113.168 13.9438 1578 168.963 1281.43 444.895
3199 0 118.142 14.127 1669 161.787 1281.2 443.058
3200 0 123.265 14.0105 1727 163.679 1281.35 440.478
3201 0 127.229 13.8333 1760 162.057 1281.05 439.131
3202 0 131.202 13.7727 1807 163.693 1281.3 436.369
3203 1 75.0377 12.647 949 166.205 1281.91 463.955
3204 0 79.1638 12.9099 1022 161.351 1281.05 457.956
3205 0 81.1283 13.0411 1058 168.792 1280.74 459.874
3206 0 85.2432 12.6462 1078 166.941 1281.45 458.813
3207 0 87.215 13.5069 1178 161.408 1281.36 457.589
3208 0 89.1176 12.9155 1151 160.666 1281.8 455.668
3209 0 92.1328 13.3286 1228 160.319 1281.32 452.492
3210 0 96.1945 13.4831 1297 160.155 1281.44 451.931
3211 0 98.1899 13.1887 1295 169.768 1281.33 448.351
3212 0 101.297 13.4554 1363 159.77 1281.46 450.968
3213 0 103.302 13.8623 1432 160.677 1281.37 450.932
3214 0 108.367 13.9064 1507 160.774 1281.19 446.778
3215 0 109.279 14.0923 1540 164.207 1281.34 446.168
3216 0 114.526 13.7349 1573 159.11 1281.26 445.191
3217 0 115.445 13.4089 1548 164.804 1281.21 444.428
3218 0 118.232 13.685 1618 161.837 1281.55 442.81
3219 0 121.412 13.9937 1699 164.666 1281.62 440.682
3220 0 126.272 14.3341 1810 163.004 1281.48 437.43
3221 0 131.565 13.5522 1783 164.755 1281.3 436.734
3222 0 132.272 13.5554 1793 160.571 1281.59 434.416
3223 0 139.339 13.6717 1905 164.119 1281.58 430.961
3224 1 77.186 11.699 903 156.552 1281.52 460.115
3225 0 80.1459 12.2277 980 152.7 1281.68 459.448
3226 0 82.227 12.6722 1042 158.396 1282.14 458.238
3227 0 85.2251 12.5785 1072 156.613 1282.4 456.54
3228 0 89.2388 12.9876 1159 156.831 1282.38 455.452
3229 0 92.1443 12.8168 1181 156.776 1282.5 453.692
3230 0 92.1671 13.2802 1224 157.505 1282.04 451.85
3231 0 97.2185 12.8576 1250 155.857 1282.12 450.39
3232 0 99.2419 13.2001 1310 159.917 1281.98 449.408
3233 0 102.157 13.6065 1390 155.328 1282.39 446.473
3234 0 105.387 13.161 1387 163.535 1282.35 444.963
3235 0 108.313 13.6457 1478 162.748 1282.33 443.581
3236 0 110.206 13.3386 1470 160.59 1282.59 441.912
3237 0 114.223 13.605 1554 163.346 1282.66 440.445
3238 0 117.201 13.1911 1546 160.616 1282.86 438.342
3239 0 120.168 13.348 1604 158.082 1283.52 435.915
3240 0 121.136 13.4889 1634 163.678 1283.03 434.285
3241 0 125.151 13.6875 1713 157.076 1283.38 432.823
3242 0 129.078 13.7358 1773 156.568 1284.42 431.281
3243 0 134.167 13.9155 1867 163.222 1284.15 428.452
3244 0 137.238 13.932 1912 162.36 1284.54 427.23
3245 0 142.271 13.8469 1970 158.648 1284.38 425.65
3246 0 146.263 14.1389 2068 157.043 1284.48 422.68
3247 0 150.232 14.2113 2135 160.186 1284.71 419.572
3248 0 155.304 14.1529 2198 163.273 1284.91 418.28
3249 0 160.338 14.2637 2287 161.608 1284.88 416.39
3250 0 164.341 13.9649 2295 160.484 1284.91 414.107
3251 0 168.386 14.5558 2451 162.247 1284.81 411.158
3252 0 174.416 14.8839 2596 161.855 1285.13 408.104
3253 0 179.265 14.3754 2577 166.345 1285.53 406.944
3254 0 184.502 14.2817 2635 164.283 1285.03 408.216
3255 0 188.393 14.268 2688 156.987 1285.21 405.539
3256 0 194.576 14.6318 2847 164.828 1285.03 405.52
3257 0 199.9 14.9225 2983 161.004 1285.02 404.06
3258 0 205.645 14.6466 3012 163.527 1284.95 400.723
3259 0 211.567 17.1294 3624 149.873 1285.24 392.537
3260 0 216.857 14.8623 3223 163.506 1284.73 393.314
3261 0 226.471 14.8187 3356 157.057 1285.09 389.512
3262 0 225.621 13.465 3038 172.274 1284.63 390.291
3263 0 225.999 13.3717 3022 170.584 1284.19 389.616
3264 0 226.91 13.4944 3062 165.968 1284.49 390.91
3265 1 197.838 12.8084 2534 170.482 1284.68 405.618
3266 0 204.772 13.2928 2722 162.214 1284.97 400.271
3267 0 210.829 13.1576 2774 161.521 1284.83 397.644
3268 0 219.022 13.1676 2884 163.825 1284.44 394.975
3269 0 227.716 13.6793 3115 163.843 1284.32 390.436
3270 0 234.675 13.1075 3076 159.82 1284.68 388.757
3271 0 239.891 13.4102 3217 162.563 1284.48 383.06
3272 0 250.989 13.7098 3441 158.807 1284.37 378.869
3273 0 249.854 13.0316 3256 160.424 1284.11 377.355
3274 0 249.859 13.2675 3315 169.168 1284.56 377.193
3275 0 249.849 12.7357 3182 163.273 1284.26 377.57
3276 0 252.161 12.7577 3217 161.573 1284.35 379.438
3277 1 203.672 12.2353 2492 158.787 1283.46 407.723
3278 0 210.79 12.7947 2697 154.205 1283.67 403.402
3279 0 214.791 12.5517 2696 160.325 1283.54 402.376
3280 0 222.128 12.898 2865 154.665 1283.46 397.562
3281 0 226.601 13.2259 2997 162.096 1283.75 395.268
3282 0 234.766 13.2856 3119 158.591 1283.61 390.067
3283 0 243.855 13.262 3234 150.209 1282.92 385.204
3284 1 56.2738 9.40047 529 140.231 1281.84 473.41
3285 0 58.1122 10.0495 584 136.104 1282.56 470.217
3286 0 59.198 10.8787 644 134.789 1282.3 468.772
3287 0 61.5714 10.703 659 144.466 1281.61 471.088
3288 0 62.2875 11.4469 713 136.958 1282.45 468.171
3289 0 64.2878 11.4641 737 146.653 1282.58 468.091
3290 0 66.4442 11.8144 785 142.313 1282.95 468.312
3291 0 67.4231 11.1683 753 142.802 1282.27 469.247
3292 0 70.6198 11.6256 821 146.202 1281.95 466.417
3293 0 71.5744 11.7919 844 147.423 1282.03 464.464
3294 0 72.4786 11.8242 857 151.141 1281.94 464.979
3295 0 76.56 11.8992 911 148.623 1282.08 464.451
3296 0 77.5528 11.7339 910 152.941 1281.98 462.478
3297 0 78.7592 12.3287 971 159.488 1282.03 463.284
3298 0 82.5934 12.1801 1006 151.257 1282.06 461.963
3299 1 109.369 12.6087 1379 132.701 1282.11 455.015
3300 0 117.454 14.5588 1710 132.191 1282.8 449.803
3301 0 111.571 13.9641 1558 138.58 1282.37 450.849
3302 0 109.52 16.9101 1852 128.266 1282.87 446.779
3303 0 111.374 16.3772 1824 131.79 1282.83 446.218
3304 0 107.813 17.2149 1856 140.828 1282.7 444.932
3305 0 105.323 16.1313 1699 145.849 1282.29 444.075
3306 0 106.503 14.685 1564 147.728 1281.78 444.545
3307 0 108.526 13.0844 1420 157.949 1281.65 446.216
3308 0 112.551 14.8022 1666 157.753 1281.94 442.868
3309 1 63.3806 12.0542 764 162.999 1281.43 469.278
3310 0 66.5371 12.2939 818 161.789 1281.32 462.88
3311 0 68.5299 12.6222 865 159.039 1281.41 461.621
3312 0 68.4153 12.8334 878 166.44 1281.38 461.221
3313 0 71.356 12.5988 899 165.654 1281.61 461
3314 0 72.4126 12.7464 923 156.998 1281.65 460.652
3315 0 75.3229 12.6655 954 162.459 1281.84 462.11
3316 0 76.3956 12.7102 971 161.427 1281.62 461.109
3317 0 78.6093 13.4335 1056 156.993 1281.56 458.469
3318 0 80.4558 13.0258 1048 157.555 1281.17 458.323
3319 0 83.5188 14.2363 1189 155.434 1281.58 455.996
3320 0 86.3623 13.0612 1128 153.926 1281.64 456.452
3321 0 87.3948 13.3532 1167 158.121 1281.52 455.824
3322 0 88.4136 13.3916 1184 152.997 1281.54 455.916
3323 0 91.4564 13.8536 1267 160.285 1281.4 453.766
3324 0 92.4112 13.3425 1233 152.084 1281.55 453.955
3325 0 97.4202 13.2929 1295 163.517 1281.54 454.612
3326 0 99.4019 13.1889 1311 155.87 1281.5 452.95
3327 0 100.426 13.8908 1395 154.348 1281.38 448.203
3328 0 105.477 13.5479 1429 157.924 1281.93 448.01
3329 0 107.325 14.0974 1513 148.503 1282.17 447.906
3330 0 110.362 13.9269 1537 158.195 1281.93 445.841
3331 0 116.386 13.6873 1593 157.917 1282.57 442.212
3332 0 118.376 13.8119 1635 157.615 1282.35 440.616
3333 0 123.181 13.7684 1696 155.85 1281.99 438.698
3334 1 71.1963 11.9529 851 156.135 1281.18 464.663
3335 0 74.3742 12.2489 911 157.2 1281.51 464.57
3336 0 75.3076 12.8274 966 161.975 1282.49 459.379
3337 0 77.3542 13.1732 1019 160.571 1281.84 457.595
3338 0 80.6858 12.7532 1029 161.214 1282.13 457.067
3339 0 83.2298 12.8199 1067 161.63 1282.02 458.057
3340 0 85.2303 12.8945 1099 162.787 1282.54 456.681
3341 0 87.2094 13.6912 1194 153.996 1283.13 455.338
3342 0 89.2005 13.2286 1180 157.047 1282.71 453.823
3343 0 93.4373 13.5706 1268 158.571 1282.89 453.344
3344 0 97.2964 13.3304 1297 165.61 1282.74 451.612
3345 0 99.2861 13.1438 1305 161.844 1282.79 450.336
3346 0 101.406 13.7368 1393 161.604 1282.96 448.59
3347 0 104.444 14.1799 1481 161.356 1282.83 447.195
3348 0 106.592 13.7628 1467 162.59 1283.5 446.526
3349 0 109.247 14.2246 1554 167.593 1282.97 444.534
3350 0 114.56 14.403 1650 165.126 1283.3 442.896
3351 0 115.603 14.3508 1659 158.831 1282.4 441.308
3352 0 118.639 14.0426 1666 157.886 1283.57 440.765
3353 0 122.833 14.0272 1723 158.849 1283.32 438.652
3354 0 126.811 13.6029 1725 165.897 1283.52 437.06
3355 0 131.598 14.2024 1869 145.647 1283.68 433.029
3356 0 136.744 14.4723 1979 165.906 1283.87 430.968
3357 1 79.5357 12.6736 1008 168.104 1283.41 460.41
3358 0 80.5043 13.6639 1100 167.842 1283.05 458.009
3359 0 82.5834 13.8769 1146 160.145 1283.48 457.937
3360 0 86.762 13.8655 1203 172.082 1282.98 456.601
3361 0 89.851 13.834 1243 162.045 1282.91 454.886
3362 0 91.5907 13.9752 1280 163.392 1283.62 452.753
3363 0 95.6109 14.0465 1343 167.075 1283.5 452.955
3364 0 97.7806 13.3871 1309 170.675 1283.59 451.714
3365 0 100.716 13.9601 1406 165.144 1283.74 449.975
3366 0 105.122 14.1454 1487 167.464 1283.58 448.242
3367 0 106.955 14.0339 1501 166.98 1284.17 448.139
3368 0 111.969 14.0397 1572 169.006 1283.29 447.15
3369 0 114.953 14.2057 1633 163.968 1284.27 445.182
3370 0 117.753 14.3861 1694 159.269 1284.54 443.995
3371 0 123.994 14.3474 1779 161.485 1284.25 441.929
3372 0 124.726 14.2152 1773 166.321 1284.62 441.082
3373 1 69.5959 12.86 895 159.556 1284.19 467.621
3374 0 69.685 12.9583 903 165.282 1284.11 466.942
3375 0 71.5967 13.185 944 162.543 1283.61 466.56
3376 0 74.9154 13.8156 1035 158.733 1284.47 464.337
3377 0 77.7171 13.7422 1068 164.348 1284.01 462.642
3378 0 79.6353 13.4614 1072 156.296 1283.84 462.02
3379 0 83.5641 13.355 1116 161.393 1283.91 462.438
3380 0 84.7824 13.8708 1176 166.286 1284.2 459.969
3381 0 87.6594 13.6209 1194 163.788 1284.16 459.039
3382 0 90.6987 14.0465 1274 167.421 1284.34 457.784
3383 0 92.6464 13.3734 1239 166.182 1284.53 457.71
3384 0 95.689 13.732 1314 159.697 1284.12 455.624
3385 0 96.9891 14.0119 1359 161.405 1284.61 455.513
3386 0 100.942 13.9089 1404 165.576 1284.06 454.799
3387 0 100.736 14.4436 1455 167.524 1283.72 454.734
3388 0 106.058 14.2564 1512 166.241 1283.61 452.703
3389 0 107.868 13.9708 1507 161.614 1284.37 450.907
3390 0 110.736 14.1056 1562 166.339 1283.73 450.174
3391 0 114.903 14.0988 1620 154.899 1283.87 448.823
3392 0 119.68 14.2714 1708 165.664 1283.92 446.744
3393 0 123.957 13.8515 1717 162.099 1283.48 444.711
3394 1 70.792 13.123 929 164.262 1283.8 470.154
3395 0 72.4955 13.2008 957 161.741 1283.05 468.539
3396 0 74.4257 13.1003 975 160.688 1282.68 467.451
3397 0 77.7643 13.1551 1023 163.764 1283.5 467.16
3398 0 79.5247 12.952 1030 162.922 1283.28 466.431
3399 0 81.4871 13.0818 1066 164.251 1282.58 464.266
3400 0 86.5852 13.1662 1140 163.682 1283.26 464.183
3401 0 87.696 13.0223 1142 158.91 1283.14 464.434
3402 0 90.7091 13.8465 1256 158.096 1282.62 462.541
3403 0 93.5188 13.8689 1297 165.443 1282.15 460.594
3404 0 93.663 13.7621 1289 157.372 1282.51 459.59
3405 0 97.5597 13.8172 1348 165.231 1282.15 459.348
3406 0 101.749 13.8478 1409 160.388 1282.65 456.542
3407 0 104.64 13.7806 1442 160.342 1282.28 455.554
3408 0 106.494 13.9914 1490 157.865 1282.07 454.569
3409 0 109.675 13.8409 1518 164.847 1281.4 453.267
3410 0 114.645 14.2788 1637 156.685 1281.67 451.05
3411 0 119.797 13.9402 1670 162.128 1281.7 449.776
3412 0 122.723 13.6323 1673 165.797 1281.72 449.07
3413 0 127.831 13.776 1761 158.312 1281.37 447.256
3414 0 130.896 14.332 1876 163.673 1281.63 443.496
3415 0 137.721 13.5709 1869 167.138 1281.26 443.022
3416 1 77.5575 12.4553 966 158.887 1280.57 468.783
3417 0 82.6467 12.8862 1065 159.315 1281.09 468.047
3418 0 86.4703 13.4728 1165 158.746 1280.85 466.07
3419 0 88.5522 13.3368 1181 159.897 1280.69 465.292
3420 0 91.7784 13.2602 1217 168.458 1280.32 464.133
3421 0 96.8619 13.9167 1348 156.05 1281.19 463.141
3422 0 95.5978 13.8706 1326 165.814 1281 462.345
3423 0 100.536 13.8358 1391 153.239 1281.66 461.393
3424 0 102.768 13.6326 1401 158.865 1280.74 460.334
3425 0 105.673 13.7027 1448 167.419 1281.21 458.799
3426 0 107.536 14.2743 1535 166.633 1281.33 457.353
3427 0 112.651 14.6913 1655 162.649 1281.54 455.283
3428 0 115.544 14.0552 1624 165.709 1281.69 455.261
3429 0 117.702 13.976 1645 157.493 1281.55 452.514
3430 0 121.648 14.394 1751 163.76 1281.55 450.282
3431 0 125.78 13.9212 1751 161.556 1281.57 449.033
3432 1 73.6873 12.3359 909 161.935 1281.16 474.22
3433 0 76.6466 12.6164 967 160.086 1280.51 471.501
3434 0 79.9936 13.0635 1045 159.16 1280.56 470.637
3435 0 83.0224 12.5749 1044 156.796 1280.46 469.578
3436 0 84.8361 13.0487 1107 162.494 1280.62 468.948
3437 0 88.8676 13.0531 1160 159.741 1280.48 466.532
3438 0 89.8021 12.8171 1151 155.149 1280.62 465.346
3439 0 94.8724 13.1756 1250 165.396 1281 464.851
3440 0 96.6953 13.7649 1331 159.897 1280.21 463.243
3441 0 100.826 13.7365 1385 160.344 1280.28 461.539
3442 0 103.813 13.6303 1415 163.978 1280 459.18
3443 0 106.562 14.0293 1495 161.57 1280.02 457.926
3444 0 109.565 14.083 1543 159.231 1280.12 456.585
3445 0 113.82 13.82 1573 166.12 1279.82 455.544
3446 0 117.548 13.9857 1644 163.296 1280.22 454.097
3447 0 120.663 14.6276 1765 165.303 1279.42 452.386
3448 0 123.84 14.0908 1745 157.369 1280.04 451.233
3449 0 126.8 14.1956 1800 161.894 1279.82 449.102
3450 0 129.934 14.4612 1879 164.285 1279.51 447.918
3451 0 135.74 14.3215 1944 158.209 1279.71 445.044
3452 0 139.765 14.6174 2043 35.3094 1279.59 441.466
3453 0 143.779 14.3901 2069 155.692 1279.66 441.221
3454 0 148.718 14.0332 2087 156.511 1279.04 438.007
3455 0 151.96 14.7868 2247 162.321 1280.07 437.297
3456 0 158.721 14.5979 2317 168.676 1279.76 434.708
3457 0 162.818 14.0463 2287 166.4 1279.77 431.897
3458 0 167.792 14.1783 2379 160.514 1280.1 430.47
3459 0 172.801 14.3749 2484 167.936 1279.81 428.905
3460 0 178.658 14.0884 2517 166.112 1279.5 426.093
3461 1 103.722 12.3311 1279 169.597 1279.15 462.518
3462 0 107.667 13.0495 1405 165.5 1279.16 460.999
3463 0 111.756 13.4131 1499 162.243 1279.24 458.443
3464 0 116.562 12.8515 1498 158.251 1279.37 456.043
3465 0 118.663 13.3066 1579 161.839 1279.4 453.424
3466 0 122.671 13.3853 1642 162.163 1279.65 452.255
3467 0 127.651 13.4116 1712 160.919 1279.5 450.211
3468 0 129.55 13.4002 1736 154.961 1279.97 448.496
3469 0 135.59 13.5335 1835 157.596 1279.98 444.961
3470 0 139.723 13.448 1879 162.646 1280.03 444.766
3471 0 144.564 13.3643 1932 154.33 1280.3 441.978
3472 0 151.67 14.0766 2135 155.514 1280.03 437.327
3473 0 154.63 13.7166 2121 159.319 1280.2 435.391
3474 0 159.512 13.999 2233 158.468 1279.97 432.348
3475 0 167.665 15.5906 2614 154.181 1279.84 426.341
3476 1 91.5509 12.1135 1109 161.802 1280 467.678
3477 0 93.6075 12.0503 1128 155.041 1280.07 465.434
3478 0 97.4071 12.1962 1188 157.345 1280.19 464.214
3479 0 101.556 12.3085 1250 160.943 1279.96 462.867
3480 0 102.592 12.6033 1293 159.205 1279.49 461.673
3481 0 106.476 12.801 1363 160.889 1279.6 459.351
3482 0 110.652 12.3902 1371 161.573 1279.89 458.168
3483 0 113.471 12.7169 1443 160.365 1280.3 456.179
3484 0 114.468 12.7022 1454 159.784 1280.3 454.961
3485 0 118.574 12.8275 1521 163.816 1280.35 453.946
3486 0 121.544 12.9995 1580 157.384 1280.84 450.784
3487 0 124.477 12.685 1579 161.908 1281.17 449.714
3488 0 128.465 13.1398 1688 164.771 1281.19 447.772
3489 0 133.524 13.2036 1763 158.56 1280.67 444.309
3490 0 136.641 13.0269 1780 151.126 1280.51 442.182
3491 0 140.614 13.313 1872 154.381 1280.95 439.853
3492 0 143.439 13.518 1939 155.887 1281.06 438.607
3493 0 149.71 13.3992 2006 160.715 1281.28 436.379
3494 0 153.456 13.5022 2072 163.28 1281.4 434.103
3495 0 158.655 13.4442 2133 163.212 1281.81 431.068
3496 0 163.494 13.7314 2245 158.263 1281.47 428.082
3497 0 170.478 13.7906 2351 166.04 1282.12 424.027
3498 0 174.616 13.7101 2394 170.491 1281.8 423.49
3499 1 105.459 11.4547 1208 167.324 1281.62 458.993
3500 0 109.52 11.9522 1309 158.533 1281.86 457.241
3501 0 112.507 12.2659 1380 158.551 1281.51 455.936
3502 0 113.6 12.3855 1407 160.037 1281.63 455.4
3503 0 117.588 12.8585 1512 159.225 1282.02 454.664
3504 0 120.665 12.746 1538 166.495 1281.83 451.652
3505 0 123.611 13.0166 1609 160.475 1282.28 450.34
3506 0 128.524 12.9625 1666 162.627 1282.31 446.402
3507 0 129.527 13.418 1738 160.99 1282.86 445.176
3508 0 137.406 14.7592 2028 149.784 1281.95 441.119
3509 0 140.758 14.5569 2049 152.547 1282.6 439.665
3510 0 142.706 13.5033 1927 157.321 1282.13 439.565
3511 0 146.567 13.4751 1975 162.48 1282.14 437.575
3512 0 151.598 13.8656 2102 163.948 1282.36 435.198
3513 1 28.0493 7.73637 217 138.811 1279.79 498.051
3514 0 33.039 7.65761 253 137.059 1279.8 496.451
3515 0 34.0398 7.57935 258 135.213 1279.55 495.45
3516 0 35.0113 8.0831 283 133.053 1279.67 495.346
3517 0 35.0616 7.47257 262 139.05 1280.06 496.553
3518 0 35.0211 7.39554 259 135.826 1280.14 495.587
3519 0 35.0541 7.33152 257 135.946 1280.17 496.093
3520 0 38.0726 7.38064 281 135.028 1279.76 493.964
3521 0 39.0708 7.1153 278 136.763 1279.56 493.896
3522 0 40.1416 7.69776 309 132.566 1280.1 493.207
3523 1 211.468 14.3095 3026 160.453 1283.46 404.654
3524 0 214.667 14.3851 3088 161.78 1283.02 401.594
3525 0 222.581 16.0975 3583 151.392 1283.27 394.266
3526 0 225.429 14.2351 3209 157.391 1283.21 395.582
3527 0 230.495 14.4472 3330 154.985 1283.01 390.733
3528 0 236.483 14.9947 3546 155.359 1283.84 386.627
3529 0 243.74 16.0171 3904 150.888 1283.23 382.334
3530 0 251.652 15.8512 3989 157.288 1282.51 378.963
3531 0 257.675 15.6981 4045 153.197 1282.75 375.028
3532 0 264.771 16.384 4338 155.902 1282.95 371.053
3533 0 273.611 16.5417 4526 157.276 1283.2 367.627
3534 0 280.731 16.2255 4555 159.483 1283.32 362.967
3535 0 289.708 16.489 4777 157.137 1283.03 358.791
3536 0 297.69 15.9931 4761 157.739 1282.88 353.289
3537 0 308.644 16.6567 5141 158.847 1282.97 348.303
3538 0 318.648 15.7478 5018 155.287 1282.72 341.406
3539 1 256.622 13.023 3342 163.129 1281.94 379.613
3540 0 263.589 13.4528 3546 172.301 1281.59 375.204
3541 0 273.693 14.3153 3918 154.24 1282.27 369.92
3542 0 279.725 14.5536 4071 165.909 1281.9 365.117
3543 0 288.875 16.225 4687 159.82 1282.02 357.158
3544 0 297.735 16.2359 4834 156.941 1282.24 353.706
3545 0 305.904 16.3385 4998 149.43 1282.03 348.985
3546 0 315.821 16.3985 5179 151.78 1282.67 344.197
3547 0 324.961 16.0788 5225 153.197 1282.08 338.134
3548 0 336.912 16.2119 5462 156.588 1282.44 333.157
3549 0 345.931 16.4397 5687 157.218 1282.39 327.594
3550 0 357.045 16.3061 5822 156.76 1282.42 322.132
3551 0 368.881 16.2085 5979 156.827 1282.99 314.489
3552 0 381.338 16.8669 6432 159.898 1282.48 308.988
3553 0 392.135 16.5275 6481 159.19 1281.88 302.321
3554 0 406.054 16.8106 6826 155.677 1282.25 294.616
3555 0 420.115 16.5479 6952 156.287 1282.7 287.263
3556 1 52.3144 10.3413 541 130.832 1279.2 485.078
3557 0 52.1701 10.2549 535 131.611 1278.68 486.436
3558 0 51.5998 10.6977 552 124.424 1280.32 485.603
3559 0 52.573 10.766 566 133.403 1280.11 486.541
3560 0 54.4542 11.1286 606 133.119 1280.39 485.256
3561 0 54.593 11.2102 612 136.175 1280.19 486.315
3562 0 53.6234 11.3756 610 132.693 1280.16 485.339
3563 0 54.6918 11.5374 631 135.886 1279.99 486.566
3564 0 54.649 11.3634 621 145.395 1280.06 486.807
3565 0 55.4819 11.5533 641 143.719 1279.98 485.716
3566 0 55.3677 11.8661 657 140.467 1279.85 485.963
3567 0 55.4184 11.6568 646 137.144 1280.18 486.037
3568 0 59.2052 14.2048 841 131.411 1279.53 478.542
3569 0 61.3363 18.4719 1133 108.693 1281.13 474.21
3570 0 61.3083 18.2683 1120 118.214 1280.26 475.035
3571 1 70.2652 15.0715 1059 121.532 1280.51 472.906
3572 0 74.3019 13.2433 984 125.568 1280.62 475.057
3573 0 68.5802 13.5462 929 134.008 1279.94 474.927
3574 0 69.8623 14.1564 989 132.866 1280.1 472.665
3575 0 65.2378 15.1293 987 135.151 1279.99 467.704
3576 0 63.1534 15.2644 964 138.493 1280.22 468.752
3577 0 64.2059 15.6372 1004 135.846 1280.11 468.27
3578 0 61.2406 15.3656 941 137.376 1280.52 468.769
3579 0 61.2485 15.0534 922 139.919 1280.53 468.909
3580 0 60.15 14.281 859 145.782 1280.59 469.449
3581 0 60.1574 13.98 841 155.291 1280.56 469.339
3582 0 60.2384 13.4466 810 150.768 1280.97 469.056
3583 0 62.1468 12.567 781 155.577 1281.09 469.289
3584 0 59.1973 12.6864 751 157.955 1281.02 468.969
3585 0 61.3575 12.7124 780 160.459 1280 471.264
3586 0 61.1764 13.0442 798 160.772 1279.74 474.633
3587 0 65.5875 12.4719 818 159.956 1279.63 477.278
3588 0 67.542 12.0222 812 158.113 1279.73 479.484
3589 0 61.3106 12.8036 785 160.668 1279.59 479.748
3590 0 55.2218 13.5635 749 153.453 1280.5 474.323
3591 0 62.2329 12.8549 800 156.632 1280.58 471.918
3592 0 64.1635 15.7722 1012 141.283 1281.75 464.644
3593 1 60.1884 13.923 838 146.624 1282.41 459.8
3594 0 60.2434 14.5908 879 159.613 1282.64 452.513
3595 0 60.2016 14.8335 893 156.439 1282.99 452.55
3596 0 61.1025 14.3529 877 161.444 1282.44 453.055
3597 0 60.2095 14.6322 881 157.843 1282.43 452.244
3598 0 62.2465 15.0049 934 156.466 1282.62 452.554
3599 0 61.2408 14.3205 877 156.178 1282.26 453.843
3600 0 60.2034 15.1154 910 157.523 1283.35 455.441
3601 0 62.2159 14.739 917 153.385 1282.99 458.418
3602 0 62.2862 14.626 911 155.409 1282.98 458.513
3603 0 61.3082 14.7125 902 156.334 1283.26 459.579
3604 0 62.2295 14.4144 897 153.505 1283.46 459.931
3605 0 61.2274 14.4543 885 152.328 1283.79 459.339
3606 0 62.2914 14.7693 920 149.961 1284.1 460.123
3607 0 63.2615 14.5428 920 154.502 1284.32 460.877
3608 0 59.2501 13.9072 824 163.278 1285.17 453.414
3609 0 59.3617 13.9989 831 165.454 1284.75 453.525
3610 0 58.399 14.3324 837 159.74 1284.93 453.716
3611 0 58.3677 14.4601 844 161.641 1284.8 453.989
3612 0 59.2357 14.2144 842 163.635 1284.61 453.944
3613 0 58.3367 14.3135 835 160.413 1284.86 453.517
3614 0 58.3035 13.9443 813 151.385 1284.95 452.994
3615 0 59.4329 14.3523 853 157.992 1284.86 452.633
3616 0 59.2297 13.9795 828 162.763 1284.38 451.399
3617 0 59.1916 14.1405 837 156.597 1283.78 452.246
3618 0 58.1408 14.5165 844 156.037 1283.92 451.871
3619 0 58.2082 14.6028 850 165.085 1283.72 441.242
3620 0 59.2023 14.4082 853 157.958 1283.74 440.499
3621 0 60.1748 14.2252 856 158.259 1284.09 440.729
3622 0 59.2738 14.8632 881 164.81 1283.79 442.19
3623 0 58.2038 14.8787 866 159.783 1284.16 441.644
3624 0 60.2149 14.714 886 157.585 1284.13 440.471
3625 0 57.2112 14.8747 851 157.187 1284.5 444.476
3626 0 59.1469 14.5401 860 157.89 1283.67 442.834
3627 0 60.1489 15.0128 903 164.133 1283.99 443.269
3628 0 59.0919 15.0274 888 159.233 1283.69 444.466
3629 0 58.1584 14.9763 871 161.434 1282.8 444.153
3630 0 60.1077 14.9565 899 159.756 1283.29 443.072
3631 0 60.1192 14.4712 870 161.731 1283.27 443.579
3632 0 61.1848 14.2846 874 160.16 1282.77 443.53
3633 0 59.1289 14.5783 862 150.007 1282.52 444.324
3634 0 60.1382 14.6662 882 159.031 1282.89 444.426
