index division length width area intensity CMx CMy
0 0 54.0805 12.8882 697 163.56 1038.04 504.217
1 0 56.1716 13.4053 753 168.392 1038.57 503.441
2 0 56.0996 13.1017 735 152.469 1038.67 501.309
3 0 60.1644 12.5988 758 166.35 1038.38 500.81
4 0 61.1169 13.3351 815 164.287 1037.63 499.238
5 0 63.1292 13.6545 862 162.202 1037.68 497.216
6 0 65.1083 13.562 883 155.955 1037.28 495.211
7 0 67.2097 13.7331 923 159.737 1036.42 493.634
8 0 69.1907 13.7013 948 160.186 1037.22 493.313
9 0 74.0884 13.4974 1000 159.917 1037.58 491.361
10 0 75.1908 13.898 1045 158.448 1037.29 489.519
11 0 78.1763 13.8021 1079 153.476 1037.98 488.521
12 0 81.0837 13.8622 1124 155.06 1038.27 487.172
13 0 83.1075 13.9338 1158 155.222 1039.21 485.225
14 0 85.1066 13.959 1188 149.438 1039.9 483.632
15 0 89.1333 13.9791 1246 156.645 1040.8 480.827
16 0 91.1854 13.9386 1271 153.831 1040.97 479.285
17 0 95.256 13.9414 1328 150.751 1043.72 478.474
18 0 97.2203 13.9066 1352 156.126 1044.11 477.821
19 0 100.139 13.8607 1388 149.571 1044.9 474.74
20 0 105.378 13.7789 1452 152.836 1045.49 471.476
21 0 107.234 14.0813 1510 148.146 1045.58 469.987
22 1 55.0955 12.7234 701 151.031 1045.76 494.562
23 0 58.1466 13.0876 761 151.731 1046.07 492.329
24 0 61.1153 13.2209 808 134.991 1046.77 492.083
25 0 60.0791 13.7153 824 147.251 1047.06 491.215
26 0 65.045 13.36 869 145.436 1047.19 490.38
27 0 67.0584 13.7492 922 147.324 1047.67 489.497
28 0 69.0919 13.5906 939 142.801 1047.5 488.245
29 0 69.135 13.8714 959 149.641 1047.87 486.361
30 0 73.1014 13.5702 992 92.8881 1047.9 485.358
31 0 76.087 13.708 1043 144.116 1047.11 484.416
32 0 78.2059 13.912 1088 142.767 1046.43 483.739
33 0 81.0719 13.8889 1126 147.323 1046.02 481.867
34 0 83.1118 13.9691 1161 144.26 1045.35 480.707
35 0 85.0585 14.4841 1232 141.846 1044.85 479.58
36 0 90.0951 13.7854 1242 142.229 1044.24 478.653
37 0 92.1919 13.8082 1273 141.218 1043.56 476.454
38 0 96.0858 14.0083 1346 148.272 1043.47 474.77
39 0 99.1475 14.2414 1412 140.938 1043 472.432
40 1 51.065 12.3372 630 139.63 1042.42 495.711
41 0 53.0698 13.1336 697 137.914 1041.82 493.782
42 0 55.0494 13.061 719 142.584 1041.14 493.12
43 0 58.0966 13.1677 765 143.673 1041.35 492.122
44 0 60.1065 12.977 780 146.058 1041.37 490.717
45 0 60.0364 13.3919 804 146.522 1041.03 490.063
46 0 64.0841 13.2482 849 150.664 1041.99 487.751
47 0 66.0725 13.0009 859 150.15 1041.36 487.374
48 0 68.0691 13.4275 914 153.56 1041.09 486.596
49 0 70.1255 13.3047 933 153.642 1040.81 484.269
50 0 72.1064 14.0348 1012 149.336 1040.94 483.504
51 0 75.0673 13.4013 1006 147.748 1040.96 482.504
52 0 77.1325 13.1721 1016 154.1 1041.3 482.197
53 0 81.1392 13.4953 1095 149.5 1041.34 479.791
54 0 84.2725 13.6106 1147 150.023 1041.45 478.78
55 0 86.1239 13.527 1165 154.577 1042.26 478.189
56 0 90.1519 13.7657 1241 157.82 1042.36 476.382
57 0 92.1515 13.5104 1245 159.287 1042.5 475.333
58 0 96.1218 13.3685 1285 160.684 1042.84 474.69
59 1 50.0638 11.5852 580 157.524 1042.39 497.126
60 0 51.0916 11.9589 611 160.149 1042.65 496.673
61 0 53.1895 12.1264 645 158.177 1043.35 494.941
62 0 55.223 12.6035 696 156.899 1043.55 493.749
63 0 57.2389 12.8933 738 159.076 1043.69 492.144
64 0 60.0652 12.7528 766 145.513 1043.73 491.093
65 0 60.1387 13.2028 794 155.288 1043.67 490.558
66 0 64.3199 12.9043 830 149.822 1044.46 488.927
67 0 66.143 12.6695 838 154.495 1043.89 487.482
68 0 67.1451 12.9421 869 157.158 1044.03 487.446
69 0 69.2009 13.179 912 159.535 1043.84 485.537
70 0 72.1551 13.0829 944 153.796 1044.09 485.673
71 0 73.2301 12.8226 939 156.652 1044.64 484.653
72 0 76.1081 13.2312 1007 155.065 1044.45 482.756
73 0 78.2944 13.1682 1031 157.379 1044 480.831
74 0 81.2828 12.9794 1055 159.571 1044.04 479.546
75 0 83.1727 13.502 1123 155.082 1044.71 478.489
76 0 86.1297 13.2242 1139 165.694 1044.63 477.808
77 0 88.324 13.292 1174 159.807 1043.95 474.646
78 0 90.2847 13.391 1209 157.323 1043.5 473.653
79 0 93.187 13.2851 1238 166.19 1043.37 472.504
80 0 96.1488 13.6455 1312 161.905 1043.25 471.671
81 0 101.295 13.2584 1343 157.071 1042.69 469.884
82 0 104.222 13.548 1412 167.349 1042.28 466.635
83 0 106.265 13.5792 1443 157.834 1042.34 465.141
84 0 110.62 13.9577 1544 162.201 1041.97 464.677
85 0 112.257 13.9145 1562 162.44 1042.22 461.935
86 0 115.25 13.8308 1594 168.19 1042.32 461.19
87 0 119.171 13.9295 1660 164.722 1041.93 459.926
88 0 125.238 14.0293 1757 162.098 1041.71 457.12
89 0 128.231 13.6785 1754 165.385 1041.36 454.692
90 0 133.292 13.8118 1841 164.417 1041.31 453.637
91 0 136.247 14.0627 1916 164.642 1041.55 451.379
92 0 141.171 13.9477 1969 163.855 1040.04 448.775
93 0 146.222 14.1429 2068 162.487 1040.75 446.899
94 0 150.439 14.0788 2118 166.762 1041.37 444.643
95 0 158.301 14.3903 2278 163.257 1042.08 441.917
96 0 161.29 14.3841 2320 156.46 1041.87 438.276
97 0 168.376 14.2063 2392 166.152 1041.89 435.958
98 0 173.484 14.1108 2448 164.596 1041.59 432.301
99 0 181.301 14.065 2550 166.531 1042.22 429.796
100 0 185.288 14.0268 2599 162.216 1042.03 426.1
101 1 112.269 11.9178 1338 154.67 1042.16 466.797
102 0 116.291 12.6751 1474 158.837 1041.87 464.51
103 0 119.353 12.8108 1529 152.851 1041.63 462.232
104 0 119.353 12.8108 1529 158.999 1041.63 462.232
105 0 127.267 12.6348 1608 158.59 1042.1 458.249
106 0 131.286 13.0859 1718 160.595 1041.99 456.215
107 0 134.195 12.9215 1734 159.54 1042.74 454.937
108 0 141.31 12.738 1800 164.561 1042.46 452.333
109 0 144.238 13.2073 1905 160.945 1042.7 449.61
110 0 150.311 12.8999 1939 151.76 1043.42 446.96
111 1 77.2507 10.1747 786 151.013 1043.35 482.649
112 0 81.1704 11.0508 897 151.032 1042.69 481.201
113 0 83.1972 12.0316 1001 147.919 1042.29 478.834
114 0 87.2588 11.8842 1037 151.93 1042.25 477.037
115 0 89.1491 12.3725 1103 156.322 1041.87 475.694
116 0 92.1661 12.4992 1152 149.984 1042.39 474.605
117 0 94.1509 12.5437 1181 157.761 1042.08 473.274
118 0 97.1836 12.8931 1253 152.836 1042.59 472.137
119 0 100.219 12.802 1283 151.885 1042.36 470.227
120 0 103.224 12.8846 1330 154.753 1042.34 468.431
121 0 106.091 12.9794 1377 152.261 1042.77 466.656
122 0 16.0022 9.06124 145 137.331 1041.36 511.621
123 1 56.0673 10.5766 593 145.759 1042.86 492.464
124 0 58.0919 10.8449 630 141.689 1042.61 492.535
125 0 60.2186 11.7239 706 141.592 1043.99 489.707
126 0 63.1522 11.8127 746 148.886 1043.81 488.118
127 0 63.256 11.9198 754 140.806 1044.16 487.297
128 0 65.133 11.5917 755 148.858 1044.14 486.752
129 0 67.1316 11.8871 798 145.862 1043.54 485.967
130 0 70.0893 11.8848 833 139.984 1043.52 484.169
131 0 70.2029 12.1932 856 142.199 1043.77 482.681
132 0 72.2658 11.8867 859 144.169 1043.37 482.766
133 0 74.0883 12.2557 908 140.338 1043.74 480.09
134 0 78.1619 11.9112 931 145.299 1043.79 479.962
135 0 79.1124 11.9197 943 143.173 1044.17 478.573
136 0 82.3004 12.1142 997 142.613 1044.34 477.695
137 0 82.2668 12.9822 1068 141.026 1044.65 474.735
138 0 86.1665 12.9517 1116 143.581 1044.78 473.076
139 0 89.2086 12.6445 1128 142.752 1044.69 472.329
140 0 92.2061 12.5371 1156 143.567 1044.84 471.055
141 0 95.3233 12.893 1229 148.108 1044.74 468.245
142 0 97.2094 12.7354 1238 149.804 1045.28 467.288
143 1 52.0944 9.80911 511 150.229 1044.83 491.798
144 0 53.1531 10.0653 535 146.441 1045.36 491.505
145 0 55.1394 10.8271 597 143.831 1046.22 489.055
146 0 56.1019 11.3187 635 137.983 1046.98 488.183
147 0 57.0957 11.6646 666 137.793 1046.59 486.323
148 0 60.15 11.7373 706 138.484 1046.53 487.419
149 0 61.1892 11.2602 689 140.025 1046.27 485.433
150 0 63.1426 12.0838 763 142.228 1047.06 484.544
151 0 63.1003 11.9809 756 140.599 1047.2 483.583
152 0 66.2208 12.0355 797 140.848 1047.71 483.535
153 0 67.1124 12.3226 827 138.543 1047.67 481.47
154 0 69.1289 12.6286 873 143.526 1047.56 480.817
155 0 73.1467 12.3724 905 146.156 1047.88 479.539
156 0 74.0915 12.714 942 148.503 1048.16 478.152
157 0 78.2034 12.5442 981 150.137 1047.66 476.347
158 0 81.1457 12.2003 990 148.552 1048.97 475.185
159 0 82.1817 12.1682 1000 151.964 1049.58 473.922
160 1 42.1076 10.2119 430 136.714 1049.17 493.593
161 0 43.0431 10.594 456 148.121 1049.25 493.057
162 0 45.0417 10.79 486 138.391 1048.54 491.36
163 0 46.118 11.4489 528 146.511 1049.14 490.797
164 0 48.1144 11.7013 563 144.057 1048.95 489.456
165 0 53.0992 11.6951 621 144.18 1049.58 488.823
166 0 53.1771 11.5651 615 142.72 1049.32 488.442
167 0 54.1231 11.6771 632 142.369 1049.46 487.432
168 0 55.1738 11.6722 644 142.036 1049.72 485.596
169 0 57.3934 11.7087 672 144.244 1049.62 485.571
170 0 58.1427 11.9018 692 140.285 1049.28 484.195
171 0 60.1255 12.1912 733 144.993 1049.55 483.415
172 0 62.1635 12.3545 768 142.337 1049.75 482.307
173 0 63.0686 12.3833 781 133.871 1049.52 481.104
174 0 65.3219 12.2164 798 144.975 1048.86 481.09
175 0 66.2146 12.0064 795 138.377 1050.25 478.387
176 0 69.2643 12.8926 893 55.5935 1049.18 477.786
177 0 71.2881 12.7511 909 144.352 1049.88 477.721
178 0 74.2801 12.5202 930 142.935 1050.29 475.444
179 0 77.2336 12.637 976 149.495 1049.61 474.351
180 0 79.3851 12.9369 1027 141.763 1050.13 473.011
181 0 80.4209 13.1309 1056 149.829 1050.04 471.539
182 0 84.4465 12.7063 1073 146.243 1050.45 470.411
183 1 41.1846 11.0721 456 155.417 1051.21 490.118
184 0 45.1473 11.1856 505 153.533 1050.86 489.248
185 0 47.2948 11.2275 531 155.951 1050.75 488.563
186 0 48.249 12.166 587 149.317 1049.65 488.63
187 0 49.1787 12.2817 604 150.823 1050.51 487.056
188 0 51.2161 12.2227 626 153.633 1050.06 486.359
189 0 54.1408 12.486 676 151.895 1050.86 484.559
190 0 53.1161 12.6892 674 152.754 1051.05 486.214
191 0 55.0404 12.8814 709 156.814 1050.78 485.386
192 0 58.0938 12.8413 746 151.349 1050.87 483.835
193 0 59.1504 12.9331 765 153.658 1050.63 482.871
194 0 60.1102 13.5085 812 155.728 1050.61 481.403
195 0 62.0508 13.3923 831 160.972 1050.5 481.504
196 0 64.1558 13.2802 852 159.798 1050.21 481.041
197 0 64.1033 13.8838 890 158.188 1050.06 480.224
198 0 66.092 13.4963 892 160.044 1049.46 478.371
199 0 69.2206 13.6665 946 159.093 1049.73 477.829
200 0 71.151 13.6892 974 165.986 1049.15 477.302
201 0 75.1388 13.9608 1049 156.166 1049.23 475.107
202 0 76.3763 13.6953 1046 163.025 1048.88 473.691
203 0 78.1833 14.1846 1109 158.142 1049.5 472.617
204 0 81.3097 13.8114 1123 164.436 1049.97 472.394
205 0 82.3502 14.5233 1196 157.542 1050.09 470.73
206 0 86.2682 13.5508 1169 162.77 1049.56 469.792
207 0 89.1608 14.3785 1282 154.441 1049.41 467.52
208 0 94.1776 13.878 1307 162.477 1049.12 466.954
209 0 96.3055 14.236 1371 158.467 1048.5 464.457
210 0 100.355 13.821 1387 159.978 1048.38 463.177
211 0 102.338 14.286 1462 161.764 1048.95 460.589
212 0 106.315 14.1184 1501 155.341 1049 459.671
213 1 57.0348 12.2557 699 158.067 1049.06 484.651
214 0 58.0179 13.1856 765 155.637 1048.25 483.352
215 0 60.1151 12.9252 777 157.898 1048.25 482.601
216 0 62.0928 13.0933 813 148.555 1048.29 481.304
217 0 63.2224 13.3972 847 150.334 1047.97 480.374
218 0 67.1459 13.3441 896 148.798 1048 480.294
219 0 69.0913 12.896 891 150.127 1048.06 479.358
220 0 70.1205 13.4055 940 139.651 1047.63 477.88
221 0 73.2429 13.4621 986 149.612 1047.51 476.881
222 0 74.1391 13.8928 1030 151.21 1047.58 475.41
223 0 79.1712 13.4013 1061 145.057 1047.8 474.679
224 0 80.1588 13.7477 1102 144.9 1047.92 472.808
225 0 83.3133 13.5273 1127 146.887 1047.8 472.326
226 0 86.2323 13.4288 1158 144.027 1047.82 471.102
227 0 88.2142 14.1247 1246 140.829 1047.55 469.521
228 0 92.3314 13.5923 1255 139.965 1047.98 467.907
229 0 95.3175 13.5862 1295 136.952 1047.74 465.944
230 0 99.1214 13.8618 1374 141.069 1048.08 464.654
231 0 102.286 13.6969 1401 137.216 1047.59 462.181
232 1 54.0744 12.5198 677 136.121 1047.73 486.809
233 0 56.1439 12.6817 712 135.937 1047.43 485.838
234 0 58.0966 12.5997 732 131.728 1047.79 484.555
235 0 59.1886 12.7389 754 136.046 1047.83 483.456
236 0 63.213 12.798 809 138.129 1048.02 482.269
237 0 66.0954 12.7392 842 136.099 1048.8 481.172
238 0 67.0907 12.6247 847 139.015 1048.24 479.247
239 0 68.1505 13.2354 902 138.34 1048.48 479.683
240 0 71.1319 12.9056 918 139.376 1048.42 479.16
241 0 73.0456 12.9097 943 138.423 1048.23 476.923
242 0 75.1709 13.1168 986 142.31 1048.56 475.856
243 0 77.1519 13.0651 1008 144.439 1048.9 474.669
244 0 80.2045 13.478 1081 138.112 1048.65 473.722
245 0 82.1392 13.0023 1068 149.535 1048.49 471.598
246 0 85.1909 13.3113 1134 143.597 1048.65 470.817
247 0 86.2909 13.2807 1146 142.61 1048.42 469.051
248 0 89.2907 13.7192 1225 147.993 1048.45 467.349
249 0 93.2449 12.9551 1208 148.518 1048.44 467.664
250 0 95.2863 13.1184 1250 151.342 1048.32 465.032
251 1 52.0903 10.0786 525 144.352 1048.91 487.872
252 0 54.0596 10.9324 591 150.347 1049.7 485.91
253 0 54.0828 11.8892 643 143.337 1049.91 484.961
254 0 56.0779 12.1617 682 143.635 1049.07 484.422
255 0 57.1398 12.0407 688 151.735 1049.05 484.555
256 0 59.0648 11.8852 702 152.443 1048.99 483.87
257 0 63.2082 12.1187 766 151.638 1048.42 482.114
258 0 64.2195 11.959 768 158.309 1049.33 480.579
259 0 65.1258 12.5296 816 155.158 1049.83 479.974
260 0 68.1559 12.2366 834 157.203 1049.9 477.994
261 0 70.1389 12.4752 875 152.797 1050.63 477.622
262 0 72.1039 12.4681 899 157.294 1050.65 476.261
263 0 74.0744 12.4874 925 157.831 1051.14 476.306
264 0 76.118 13.0193 991 156.162 1050.63 474.574
265 0 79.1395 12.9013 1021 159.769 1050.77 472.364
266 0 84.1654 12.321 1037 156.945 1051.05 470.981
267 0 86.1649 12.6618 1091 158.704 1051.31 469.267
268 0 89.1393 12.9573 1155 163.426 1051.31 467.812
269 0 92.0916 12.5201 1153 158.607 1051.41 465.991
270 0 95.1066 12.4492 1184 160.954 1051.65 465.095
271 0 96.1544 12.9895 1249 160.549 1051.61 462.651
272 1 55.073 11.1488 614 157.805 1052.22 485.231
273 0 56.1735 11.3933 640 152.317 1052.32 483.631
274 0 55.0717 11.8391 652 158.532 1050.77 482.241
275 0 58.1792 11.5677 673 152.651 1051.56 482.464
276 0 59.2432 11.8157 700 156.933 1050.88 482.293
277 0 62.1988 11.833 736 150.53 1050.88 480.325
278 0 63.1489 12.0034 758 151.162 1050.73 479.223
279 0 65.113 11.9024 775 159.63 1051.59 478.292
280 0 68.1446 11.7838 803 152.1 1051.52 477.672
281 0 70.1227 12.1929 855 147.02 1051.39 476.442
282 0 73.2635 11.9841 878 158.771 1051.27 475.359
283 0 75.3221 12.4797 940 156.966 1051.08 473.695
284 0 78.1264 12.403 969 157.461 1051.56 472.199
285 0 79.2051 12.7391 1009 158.032 1051.47 470.887
286 0 82.1784 12.7162 1045 157.837 1051.05 469.034
287 0 86.2248 12.5022 1078 156.667 1050.97 467.927
288 0 88.2997 12.7181 1123 154.324 1051.17 466.455
289 0 90.2805 12.9928 1173 153.959 1050.98 465.199
290 0 95.3435 12.9741 1237 152.248 1050.81 463.709
291 0 98.145 13.1132 1287 155.768 1050.62 462.183
292 1 52.1132 10.2661 535 153.736 1051.7 485.716
293 0 54.1077 11.1629 604 144.608 1051.38 485.043
294 0 54.1142 11.8084 639 144.897 1051.6 483.438
295 0 56.2142 11.9543 672 155.094 1051.39 482.795
296 0 57.2078 12.5857 720 155.185 1051.42 482.003
297 0 60.1644 12.1168 729 152.364 1050.95 481.269
298 0 62.0954 12.352 767 154.892 1050.57 480.312
299 0 63.144 12.5903 795 154.575 1050.4 479.663
300 0 65.1701 11.9227 777 152.333 1050.83 478.335
301 0 68.0647 12.018 818 148.675 1050.75 477.539
302 0 68.1799 12.291 838 151.915 1050.37 477.432
303 0 71.1651 12.5764 895 153.573 1050.37 475.365
304 0 73.224 12.5505 919 150.768 1049.99 474.395
305 0 74.1767 12.5646 932 157.633 1050.15 474.056
306 0 77.322 12.7389 985 162.107 1049.62 473.827
307 0 78.2633 12.8924 1009 154.028 1049.2 471.616
308 0 80.3087 13.0123 1045 158.664 1049.02 471.1
309 0 85.2363 13.1751 1123 159.155 1048.66 468.259
310 0 88.3817 12.4121 1097 157.951 1048.67 468.162
311 0 88.4273 13.1973 1167 157.826 1048.53 466.25
312 0 93.4079 12.9218 1207 156.513 1048.52 465.074
313 0 96.4283 12.7867 1233 153.208 1049.37 463.483
314 0 99.4639 13.0299 1296 151.332 1048.99 462.053
315 1 51.1328 10.6194 543 151.112 1048.87 485.878
316 0 52.1045 11.1699 582 158.034 1049.15 485.576
317 0 54.0978 11.5347 624 151.87 1049.06 484.026
318 0 57.1413 11.8128 675 148.631 1048.48 482.387
319 0 59.3003 12.1247 719 150.051 1048.41 481.149
320 0 61.0991 12.4552 761 148.352 1048.66 480.74
321 0 63.1285 12.6567 799 147.7 1048.38 480.743
322 0 64.1553 12.5633 806 147.867 1048.47 480.385
323 0 66.1329 12.3993 820 143.138 1048.25 479.248
324 0 67.1148 12.8735 864 149.932 1047.78 477.859
325 0 69.1058 12.517 865 150.822 1047.97 477.846
326 0 72.1434 12.6553 913 150.043 1048.13 475.852
327 0 74.25 13.3603 992 148.925 1048.08 475.941
328 0 75.3002 13.2669 999 151.738 1047.57 474.306
329 0 76.1247 13.4385 1023 149.932 1047.09 473.045
330 0 79.1395 13.293 1052 146.702 1046.57 471.029
331 0 82.2973 13.269 1092 148.1 1046.95 471.144
332 0 82.268 13.4925 1110 152.776 1046.62 468.767
333 0 84.2368 13.1415 1107 149.233 1046.7 466.848
334 0 88.3437 12.8928 1139 152.255 1047 464.879
335 0 91.2119 13.1671 1201 151.231 1047.69 464.648
336 0 97.272 13.0253 1267 146.965 1047.53 462.308
337 1 50.0958 10.8792 545 141.998 1047.95 485.358
338 0 53.2178 11.2744 600 149.825 1048.45 485.255
339 0 55.0658 11.4227 629 143.585 1048.89 485.176
340 0 56.0684 11.8962 667 148.012 1049.13 483.244
341 0 58.176 12.2903 715 147.355 1047.92 484.973
342 0 59.0712 12.3072 727 139.964 1047.68 484.301
343 0 63.1762 12.3148 778 152.486 1048.43 483.77
344 0 64.1215 12.6167 809 149.936 1047.45 482.63
345 0 67.1431 12.5702 844 157.361 1047.09 481.65
346 0 68.147 12.9426 882 147.159 1047.35 480.053
347 0 69.1806 13.0239 901 152.911 1047.42 479.123
348 0 74.0547 12.9904 962 150.213 1047.93 478.148
349 0 76.1691 12.6692 965 146.839 1047.66 476.817
350 0 78.1239 13.2866 1038 151.27 1048.19 475.336
351 0 79.1298 13.2188 1046 155.432 1047.75 473.805
352 0 84.091 13.093 1101 151.288 1047.6 472.183
353 0 87.2969 12.9443 1130 151.6 1047.69 471.511
354 0 89.0993 13.614 1213 147.249 1047.06 469.518
355 0 93.1985 13.1118 1222 150.496 1046.77 468.048
356 0 96.1671 13.4661 1295 152.649 1046.67 465.754
357 1 52.0798 11.252 586 144.741 1048.18 488.532
358 0 55.1968 12.0478 665 152.171 1047.98 488.263
359 0 56.1748 12.2119 686 147.899 1047.79 487.229
360 0 57.0145 12.6459 721 144.993 1048.32 487.161
361 0 59.0966 12.4204 734 143.446 1048.08 485.939
362 0 59.1244 12.6851 750 152.721 1048.09 485.68
363 0 63.0286 12.5975 794 155.409 1047.96 483.85
364 0 65.0248 12.9489 842 152.297 1048.7 482.951
365 0 68.0573 12.7393 867 148.73 1048.5 481.55
366 0 70.0528 12.3906 868 152.488 1048.18 480.379
367 0 73.1138 12.419 908 150.624 1048.57 479.351
368 0 74.0767 12.6491 937 156.61 1048.78 477.642
369 0 76.1686 12.538 955 158.924 1049.22 476.783
370 0 78.1403 12.7335 995 145.497 1049.64 476.391
371 0 80.3025 12.4529 1000 152.499 1049.3 475.595
372 0 83.2437 12.9379 1077 156.288 1049.26 472.704
373 0 86.2099 12.7364 1098 152.107 1049.69 472.964
374 0 89.1762 12.694 1132 154.659 1049.84 471.01
375 0 91.1513 12.6603 1154 151.471 1050.12 468.373
376 0 94.2456 12.9873 1224 154.882 1050.2 467.136
377 0 97.1895 12.7997 1244 156.939 1049.77 466.229
378 0 100.179 13.396 1342 155.093 1049.51 462.604
379 1 53.1552 11.3253 602 152.689 1050.04 487.228
380 0 54.0609 12.1529 657 147.489 1049.76 486.164
381 0 57.0626 12.1971 696 153.131 1050.49 484.917
382 0 58.015 12.3761 718 150.604 1050.49 484.93
383 0 61.0626 12.217 746 148.806 1050.4 483.799
384 0 63.1738 12.521 791 149.842 1049.9 482.327
385 0 64.2215 13.0953 841 150.458 1049.38 480.226
386 0 67.1639 12.7152 854 141.643 1049.22 479.852
387 0 67.1129 12.9185 867 143.879 1049.63 478.848
388 0 70.2362 12.5576 882 148.977 1049.46 478.461
389 0 72.1167 12.7848 922 151.427 1049.93 477.312
390 0 74.2542 12.8747 956 153.105 1049.93 475.824
391 0 77.179 13.1901 1018 145.566 1049.92 473.643
392 0 78.1538 13.0512 1020 152.363 1050 473.083
393 0 82.1828 13.0684 1074 146.187 1050.9 471.29
394 0 83.3932 13.1066 1093 156.456 1051.01 470.623
395 0 87.1721 13.2611 1156 156.373 1050.69 469.123
396 0 91.2116 12.6738 1156 151.029 1050.74 467.009
397 0 93.1519 13.1935 1229 148.959 1050.22 465.157
398 0 95.1922 12.8477 1223 164.053 1050.05 464.393
399 0 98.2096 13.0537 1282 163.422 1050.19 463.132
400 0 103.383 13.1647 1361 159.83 1049.48 461.109
401 1 54.0378 11.5845 626 162.201 1049.06 486.054
402 0 56.1224 12.1164 680 155.975 1049.02 484.829
403 0 57.1222 12.1844 696 160.295 1049.59 483.823
404 0 58.152 12.2782 714 159.433 1049.24 483.462
405 0 60.0983 12.0137 722 154.435 1048.47 482.248
406 0 63.1316 11.9908 757 161.736 1048.42 482.296
407 0 64.1309 12.2562 786 158.632 1047.93 480.018
408 0 67.1907 12.2785 825 158.983 1048.47 479.265
409 0 69.2173 12.2946 851 151.256 1048.94 477.241
410 0 71.14 12.5668 894 159.095 1048.61 477.238
411 0 75.2151 12.2582 922 151.401 1048.74 474.933
412 0 76.1229 12.7163 968 152.486 1048.58 473.544
413 0 79.1838 12.4015 982 154.891 1048.42 471.889
414 0 81.2865 12.9296 1051 156.502 1048.47 471.097
415 0 85.3356 12.3981 1058 154.667 1048.28 469.698
416 0 88.2579 12.4975 1103 157.053 1048.32 467.423
417 0 91.3616 12.5217 1144 146.217 1048.41 466.296
418 1 48.1372 10.657 513 146.727 1048.4 488.337
419 0 52.1031 11.1702 582 149.813 1048.36 487.141
420 0 52.1649 11.502 600 146.628 1048.39 486.31
421 0 55.0818 11.6372 641 155.445 1048.55 486.034
422 0 58.1633 11.9491 695 147.596 1048.94 484.676
423 0 59.1128 11.9771 708 149.387 1048.58 485.249
424 0 59.1395 12.3268 729 150.521 1048.26 482.964
425 0 62.1447 12.1652 756 147.792 1048.99 481.757
426 0 64.2426 11.8613 762 151.764 1048.83 481.623
427 0 65.2331 11.9878 782 153.084 1048.07 480.583
428 0 66.0605 12.5188 827 156.319 1049.25 479.589
429 0 68.1352 12.2991 838 154.562 1047.39 478.501
430 0 71.105 12.362 879 154.01 1048.38 477.568
431 0 73.1896 12.6657 927 151.922 1048.04 476.57
432 0 77.224 12.2242 944 153.602 1047.5 475.042
433 0 78.1882 12.4443 973 150.892 1047.97 474.423
434 0 82.1342 12.2239 1004 149.953 1048.06 472.87
435 0 84.0985 12.2594 1031 147.31 1047.91 470.933
436 0 85.0949 12.4919 1063 154.692 1048.19 470.162
437 1 44.0823 9.68644 427 142.792 1047.65 491.426
438 0 48.1347 10.4083 501 148.024 1046.88 489.499
439 0 48.1212 11.097 534 150.955 1046.98 488.843
440 0 51.0677 11.5337 589 150.314 1045.86 487.895
441 0 53.0717 12.4548 661 144.702 1046.53 486.206
442 0 54.1221 11.6588 631 155.577 1046.68 487.249
443 0 56.1067 11.995 673 152.755 1047.77 485.899
444 0 56.0773 12.4828 700 150.741 1047.58 485.08
445 0 59.0655 12.2406 723 152.029 1047.91 484.189
446 0 61.0573 11.9724 731 143.096 1047.91 483.881
447 0 62.1248 12.6198 784 151.028 1047.83 482.569
448 0 64.095 12.4971 801 153.747 1047.25 481.903
449 0 65.203 12.5148 816 146.61 1047.6 480.241
450 0 68.0776 12.618 859 150.533 1047.83 478.825
451 0 70.0838 12.5707 881 152.859 1047.79 478.593
452 0 72.2355 12.57 908 149.907 1047.43 478.465
453 0 74.2172 13.1102 973 152.84 1046.32 476.705
454 0 75.251 13.1028 986 158.311 1046.07 476.775
455 0 79.051 13.194 1043 158.81 1046.39 475.997
456 0 81.1723 13.1942 1071 160.199 1046.34 474.312
457 0 82.2388 13.2298 1088 161.275 1046.11 474.315
458 0 83.136 13.5922 1130 160.948 1045.84 472.565
459 0 86.1662 13.7757 1187 161.718 1045.96 471.309
460 0 89.1429 13.6186 1214 162.759 1045.61 470.157
461 0 92.13 13.7089 1263 159.643 1046.13 467.702
462 0 94.2695 13.9494 1315 159.843 1046.59 467.802
463 0 97.3404 13.7456 1338 159.175 1047.11 466.058
464 0 100.288 14.0296 1407 159.434 1046.57 463.544
465 0 105.362 13.3919 1411 167.911 1046.63 462.936
466 0 105.192 14.0885 1482 166.49 1046.2 460.598
467 1 56.2222 11.4546 644 160.418 1046.5 487.876
468 0 57.0772 11.8436 676 159.118 1046.9 486.436
469 0 59.2724 12.5185 742 151.307 1047.04 485.143
470 0 60.057 12.4881 750 155.201 1046.55 483.947
471 0 63.038 12.5639 792 167.494 1046.79 482.765
472 0 64.1286 12.9271 829 155.385 1046.41 481.63
473 0 68.0973 13.1576 896 155.865 1046.96 481.175
474 0 69.0942 13.4309 928 161.516 1047.24 479.154
475 0 72.0747 12.8617 927 166.817 1048.43 477.263
476 0 75.1082 12.5552 943 166.033 1048.59 476.208
477 0 77.1765 13.3719 1032 167.866 1049.09 475.214
478 0 79.1575 13.1763 1043 157.278 1048.24 473.888
479 0 80.1347 13.3775 1072 168.34 1048.75 473.043
480 0 84.1925 13.2791 1118 165.176 1048.95 471.304
481 0 85.1859 13.4529 1146 160.319 1049.4 469.581
482 0 89.1641 13.2789 1184 170.784 1049.27 468.612
483 0 92.2641 13.3638 1233 166.812 1049.68 466.235
484 0 95.3008 13.662 1302 161.419 1048.94 465.012
485 0 97.3348 13.4998 1314 166.126 1048.72 462.83
486 0 100.395 13.6959 1375 168.185 1048.89 462.242
487 0 106.365 13.3033 1415 173.533 1049.59 460.798
488 0 108.391 13.3775 1450 175.697 1049.4 459.812
489 1 59.1974 12.2303 724 169.87 1049.57 483.62
490 0 61.1272 12.8584 786 167.533 1049.51 482.429
491 0 63.1346 12.9089 815 163.994 1049.6 481.35
492 0 63.0925 13.2028 833 170.741 1049.73 480.503
493 0 67.0949 13.2201 887 165.622 1050.13 477.825
494 0 70.1893 13.2071 927 161.378 1050.39 477.19
495 0 71.1424 13.48 959 164.795 1050.31 476.213
496 0 75.3423 13.14 990 164.367 1051.53 474.643
497 0 76.1812 13.9536 1063 160.008 1051.24 472.304
498 0 81.2814 13.4594 1094 157.221 1052.08 470.601
499 0 83.1648 13.6957 1139 164.375 1051.9 469.421
500 0 86.1302 13.8627 1194 152.204 1050.13 468.144
501 0 88.2553 14.0048 1236 161.943 1050.57 467.226
502 0 93.1645 13.3313 1242 173.13 1050.64 466.233
503 0 97.2403 13.6775 1330 166.125 1050.83 463.537
504 0 99.2328 13.5842 1348 161.623 1050.39 461.549
505 1 54.0571 11.3584 614 157.228 1050.96 484.363
506 0 55.0389 11.9733 659 162.956 1051.26 483.439
507 0 60.1007 12.3293 741 164.265 1051.64 481.602
508 0 60.1493 12.9677 780 167.163 1051.02 481.372
509 0 62.1443 12.6641 787 165.611 1051.15 480.212
510 0 63.0799 13.0469 823 166.789 1050.7 479.707
511 0 65.097 12.9653 844 168.947 1049.58 478.399
512 0 66.0865 13.6488 902 159.33 1050.16 476.629
513 0 71.1569 13.0557 929 164.527 1050.48 476.398
514 0 72.099 13.4815 972 158.476 1050.88 473.853
515 0 74.171 13.3341 989 163.99 1049.92 473.29
516 0 77.1753 12.7372 983 158.092 1050.28 472.127
517 0 80.2234 13.1383 1054 163.028 1050.48 471.461
518 0 81.1874 13.6105 1105 163.192 1050.26 469.063
519 0 84.2602 13.3871 1128 160.013 1049.86 467.262
520 0 86.2704 13.0752 1128 162.145 1049.43 466.463
521 0 85.2276 13.7514 1172 168.507 1049.75 465.596
522 0 90.2024 13.8577 1250 165.855 1049.18 463.915
523 0 92.2629 13.3531 1232 165.82 1048.9 461.735
524 0 97.1977 13.1896 1282 162.301 1048.44 459.71
525 0 99.161 13.3621 1325 163.636 1048.18 458.24
526 1 53.0445 11.5375 612 159.908 1048.42 483.415
527 0 55.1277 12.6434 697 163.858 1047.97 483.601
528 0 56.1147 12.5279 703 158.501 1047.39 482.504
529 0 56.0871 12.7302 714 161.118 1047.37 481.266
530 0 59.0714 12.8489 759 159.418 1047.02 481.585
531 0 60.0424 12.8576 772 155.67 1046.87 479.863
532 0 62.078 13.2092 820 152.906 1047.19 479.557
533 0 64.0623 12.8313 822 155.949 1048.26 478.998
534 0 64.1186 13.4126 860 156.369 1048.2 477.409
535 0 68.1793 13.1565 897 160.129 1048.76 477.239
536 0 69.159 13.3605 924 159.091 1049.26 475.956
537 0 72.0923 13.1637 949 74.0316 1048.37 475.195
538 0 74.0777 13.2834 984 165.143 1048.65 473.916
539 0 78.0694 12.9628 1012 155.278 1047.97 473.716
540 0 78.1208 13.4791 1053 163.38 1048.07 472.77
541 0 82.0603 13.4291 1102 158.381 1048.26 470.759
542 0 84.0956 13.5917 1143 157.285 1048.5 468.997
543 0 85.0728 13.7059 1166 150.19 1048.04 468.212
544 0 89.146 13.4947 1203 157.485 1048.39 466.35
545 0 92.105 13.3978 1234 151.447 1048.28 464.71
546 1 50.0403 11.5307 577 160.236 1048.48 485.997
547 0 51.0866 12.0971 618 152.181 1048.57 485.141
548 0 53.0949 12.3364 655 150.168 1048.17 484.397
549 0 54.2263 12.7245 690 150.454 1047.76 484.919
550 0 56.089 12.498 701 156.228 1047.05 483.996
551 0 56.1364 12.4518 699 146.488 1047.34 483.172
552 0 58.1224 12.6973 738 148.449 1046.94 481.626
553 0 60.1122 12.8926 775 150.381 1047.22 480.667
554 0 62.1287 13.0375 810 149.54 1048.47 479.588
555 0 64.1 13.0265 835 46.9293 1048.44 479.491
556 0 65.1021 13.1025 853 147.254 1048.45 478.538
557 0 67.1593 12.5522 843 150.903 1047.82 477.409
558 0 68.0911 12.7329 867 148.052 1047.21 477.621
559 0 71.146 12.6922 903 155.068 1046.96 476.639
560 0 74.1411 12.665 939 153.364 1047.24 475.293
561 0 78.186 12.79 1000 157.603 1047.2 475.042
562 0 79.2021 12.9289 1024 154.612 1046.79 474.259
563 0 80.179 13.4699 1080 147.527 1046.38 472.406
564 0 84.1435 13.0254 1096 153.274 1046.77 470.419
565 0 87.2022 13.3024 1160 149.461 1046.28 468.5
566 0 89.1548 13.1232 1170 155.95 1046.19 468.002
567 0 94.1774 13.3153 1254 148.616 1046.34 465.561
568 0 97.116 13.0257 1265 154.611 1045.22 464.731
569 1 52.1161 12.1268 632 159.381 1046.42 487.46
570 0 56.0532 12.1848 683 151.574 1046.59 486.391
571 0 56.2248 12.6457 711 154.54 1046.92 486.093
572 0 59.0955 12.2006 721 153.803 1047.59 485.782
573 0 61.101 12.3893 757 159.234 1046.89 484.42
574 0 62.2101 12.9239 804 154.235 1047.27 482.576
575 0 66.0846 12.3629 817 157.584 1047.5 481.52
576 0 66.0759 13.3634 883 157.798 1047.48 480.049
577 0 69.0767 12.8698 889 161.647 1047.38 479.182
578 0 71.1039 13.0513 928 155.359 1047.37 478.818
579 0 75.0999 13.0626 981 155.845 1047.15 476.127
580 0 76.1469 12.8173 976 158.018 1047.29 475.005
581 0 79.1057 12.8183 1014 154.393 1047.37 474.159
582 0 81.0635 12.8541 1042 157.856 1047.49 473.338
583 0 85.1681 12.9978 1107 156.638 1047.19 471.537
584 0 87.1722 12.8022 1116 154.457 1047.02 469.878
585 0 90.1905 12.9171 1165 158.633 1046.76 467.729
586 0 94.1824 12.6669 1193 156.085 1047.35 466.188
587 1 46.1106 11.4941 530 151.181 1047.54 489.308
588 0 50.0899 11.2597 564 160.787 1048.3 488.963
589 0 50.1353 11.8679 595 162.575 1048.31 487.213
590 0 51.1188 11.9917 613 153.675 1048.56 486.739
591 0 54.1492 11.653 631 153.458 1049.1 485.401
592 0 55.0758 12.3103 678 156.065 1048.65 483.081
593 0 56.0889 12.088 678 159.001 1049.11 484.78
594 0 58.118 12.2854 714 149.508 1049.07 483.155
595 0 59.1584 12.475 738 153.16 1049.04 482.244
596 0 59.2457 12.4566 738 158.503 1049.19 481.237
597 0 64.1107 12.4472 798 147.424 1049.4 479.199
598 0 65.0997 12.719 828 155.665 1049.32 478.954
599 0 68.2849 12.4332 849 157.777 1048.53 476.585
600 0 69.1661 12.1881 843 155.007 1048.08 475.91
601 0 71.1991 12.5142 891 155.563 1048.4 475.072
602 0 70.0432 13.3346 934 157.234 1049.56 475.782
603 0 74.2193 12.3957 920 160.61 1049.53 474.41
604 0 75.189 12.0363 905 150.698 1049.32 473.218
605 0 79.3272 12.48 990 153.849 1049.6 471.258
606 0 83.2052 12.5833 1047 158.024 1049.59 470.648
607 0 86.2476 12.7888 1103 156.656 1049.59 467.77
608 0 87.4279 12.5589 1098 152.281 1049.55 467.157
609 0 92.2263 12.4151 1145 153.328 1048.84 463.505
610 1 51.0897 10.3348 528 18.0284 1049.07 485.597
611 0 51.0804 10.5128 537 155.987 1048.98 485.151
612 0 54.1007 10.9056 590 151.768 1048.18 484.229
613 0 55.0563 11.1885 616 150.755 1048.93 481.937
614 0 56.0395 11.6703 654 143.81 1051.19 482.789
615 0 58.0435 11.8015 685 142.841 1051.21 481.673
616 0 59.1507 12.2061 722 139.813 1051.06 482.187
617 0 61.1807 12.1117 741 129.447 1051.49 481.551
618 0 64.2067 11.9146 765 141.877 1051.25 480.281
619 0 65.1517 12.3865 807 135.95 1050.58 478.285
620 0 67.2489 12.1935 820 126.618 1050.72 477.46
621 0 71.2266 12.4392 886 136.125 1050.51 476.126
622 0 73.2514 12.1499 890 127.513 1050.37 474.936
623 0 74.1296 12.8019 949 119.913 1050.79 473.102
624 0 77.2368 13.0119 1005 128.995 1050.79 471.663
625 0 78.1697 13.1765 1030 131.268 1050.74 471.489
626 0 81.1955 12.8455 1043 127.808 1050.75 469.238
627 0 84.0836 12.7373 1071 127.59 1050.84 468.174
628 0 87.1534 13.1378 1145 124.066 1050.56 467.21
629 0 88.1674 12.7598 1125 129.175 1050.71 464.964
630 0 94.123 13.1424 1237 124.332 1050.12 463.287
631 0 95.2761 13.2247 1260 127.18 1050.65 462.248
632 1 51.0312 11.0912 566 133.774 1050.77 484.906
633 0 54.0721 11.0593 598 128.425 1050.16 483.875
634 0 54.071 11.7808 637 132.041 1049.89 482.719
635 0 54.1646 11.8897 644 134.132 1049.77 482.135
636 0 57.2509 12.4016 710 132.808 1049.62 481.952
637 0 60.2133 12.1236 730 130.282 1049.3 481.293
638 0 62.1291 12.2487 761 129.096 1049.57 481.208
639 0 64.1397 12.5195 803 123.482 1048.9 480.037
640 0 66.1585 12.3794 819 130.299 1048.47 479.159
641 0 66.1611 12.6056 834 133.12 1048.04 478.006
642 0 70.1375 13.1884 925 126.616 1047.93 476.459
643 0 72.1053 12.3708 892 127.964 1047.51 475.603
644 0 75.0949 12.5841 945 131.132 1049.09 474.402
645 0 76.1435 12.4108 945 130.739 1049.06 473.695
646 0 78.0641 12.7972 999 126.534 1049.57 471.81
647 0 81.0541 13.0037 1054 127.139 1049.82 470.186
648 1 44.0472 10.6477 469 129.367 1048.89 489.691
649 0 42.0201 11.5183 484 133.333 1048.02 490.463
650 0 44.0464 10.6479 469 131.985 1047.65 490.226
651 0 47.1238 10.9711 517 128.122 1048.11 488.954
652 0 48.3143 11.1768 540 127.711 1048.35 488.791
653 0 49.0987 12.424 610 123.298 1047.71 487.541
654 0 51.1443 11.6533 596 124.28 1047.6 486.901
655 0 52.2188 11.7199 612 125.807 1047.94 486.123
656 0 53.2069 12.1225 645 120.099 1048.03 486.203
657 0 55.1593 12.2735 677 129.83 1048.25 485.795
658 0 54.2853 12.6554 687 123.17 1047.73 484.891
659 0 58.1842 12.3058 716 127.559 1047.72 483.999
660 0 59.0836 12.44 735 126.699 1048 482.845
661 0 62.0529 12.6021 782 114.798 1048.01 481.93
662 0 63.2003 13.0696 826 125.801 1048.2 480.395
663 0 66.1114 12.5394 829 127.685 1048.21 479.587
664 0 67.0882 12.968 870 130.284 1048.33 478.111
665 0 70.1348 12.9465 908 124.479 1047.93 477.555
666 0 73.1112 12.8708 941 125.562 1047.57 476.678
667 0 74.1568 13.2018 979 125.213 1047.81 475.056
668 0 77.1141 13.4087 1034 126.211 1047.17 472.775
669 0 81.0745 13.1977 1070 125.894 1047.63 472.988
670 0 83.0338 13.2837 1103 132.625 1048.56 472.337
671 0 84.1751 13.567 1142 132.212 1048.47 470.372
672 0 87.1857 13.1788 1149 132.033 1048.01 469.873
673 0 90.2312 13.4987 1218 130.974 1047.67 468.972
674 0 92.2243 13.8358 1276 135.119 1047.59 466.513
675 0 95.244 13.5652 1292 132.202 1048.46 465.174
676 1 50.0888 11.8589 594 133.18 1048.47 488.944
677 0 51.1345 12.0271 615 133.099 1047.69 487.673
678 0 53.0302 12.4269 659 124.781 1047.52 487.12
679 0 54.1503 12.4468 674 132.677 1047.91 487.519
680 0 56.041 12.5979 706 143.598 1047.91 486.843
681 0 56.106 12.9576 727 140.596 1047.36 485.282
682 0 60.1248 12.7069 764 136.346 1047.54 485.085
683 0 61.2064 13.0869 801 141.627 1046.81 484.001
684 0 62.1814 13.3963 833 138.876 1046.92 483.551
685 0 63.1976 13.4182 848 141.038 1047.37 482.333
686 0 67.0432 13.275 890 139.557 1047.16 482.293
687 0 68.2398 12.9103 881 144.536 1047.45 480.75
688 0 71.133 13.2006 939 141.656 1047.51 479.478
689 0 73.2249 13.2059 967 137.94 1047.68 478.562
690 0 74.2368 13.3492 991 138.446 1047.58 478.243
691 0 78.3651 13.067 1024 131.865 1047.41 477.512
692 0 79.2043 12.9917 1029 143.438 1047.77 475.665
693 0 82.3143 13.2176 1088 151.021 1047.05 473.704
694 0 85.2048 13.4382 1145 146.738 1047.6 472.722
695 0 87.161 13.607 1186 148.47 1047.33 470.901
696 0 90.2318 13.5207 1220 148.895 1046.66 470.634
697 0 94.1623 13.2962 1252 149.013 1047.21 468.893
698 0 96.2801 13.4088 1291 153.046 1046.51 466.06
699 1 55.1356 11.5715 638 156.638 1047.39 487.962
700 0 57.128 11.7105 669 153.677 1048 485.737
701 0 59.1974 12.433 736 158.125 1047.29 483.446
702 0 62.1052 12.8331 797 157.989 1047.67 484.383
703 0 64.0831 13.2952 852 155.345 1047.35 483.397
704 0 66.0914 13.0577 863 150.92 1046.78 481.834
705 0 69.1177 13.0357 901 159.58 1046.88 481.41
706 0 70.1317 13.1752 924 160.111 1046.87 481.05
707 0 71.1271 13.2298 941 161.168 1047.06 479.155
708 0 74.2849 12.7078 944 163.632 1047.08 478.998
709 0 77.1551 13.246 1022 156.319 1046.51 476.908
710 0 80.2065 12.8044 1027 155.258 1046.4 476.818
711 0 84.2436 12.7606 1075 160.22 1046.67 475.16
712 0 86.1586 13.2082 1138 160.206 1046.46 473.508
713 1 46.2427 11.3748 526 153.749 1046.9 492.167
714 0 47.1193 11.7362 553 160.349 1046.12 491.794
715 0 49.24 12.3883 610 151.8 1046.58 491.548
716 0 51.0661 12.2195 624 148.819 1046.94 490.505
717 0 52.1205 12.4903 651 166.467 1045.92 491.776
718 0 53.1303 12.7234 676 159.355 1045.47 489.195
719 0 55.1875 12.3398 681 160.778 1045.68 489.988
720 0 56.1368 12.9861 729 154.421 1045.79 488.634
721 0 59.219 12.7831 757 154.844 1045.19 485.919
722 0 60.2317 12.7674 769 160.557 1046.36 487.39
723 0 62.27 12.3816 771 156.389 1046.48 481.331
724 0 64.2841 12.8337 825 155.222 1046.36 482.727
725 0 65.3143 12.769 834 160.007 1047.09 482.115
726 0 67.2694 12.9182 869 147.641 1046.81 481.773
727 0 70.2653 13.3494 938 151.274 1047.25 480.108
728 0 71.3486 13.413 957 154.647 1047.48 479.4
729 0 74.2315 13.2154 981 154.291 1047.34 478.732
730 0 75.2465 13.4624 1013 153.926 1047.82 476.346
731 0 78.3223 14.7212 1153 145.719 1047.24 474.81
732 0 81.3301 13.4268 1092 157.96 1047.57 473.903
733 0 82.353 13.4543 1108 155.496 1047.73 473.016
734 0 85.1916 13.452 1146 159.303 1047.87 472.136
735 0 90.3887 13.7075 1239 151.4 1048.2 470.455
736 0 93.3109 13.2246 1234 158.061 1048.54 468.037
737 0 95.2929 13.3798 1275 157.522 1048.6 466.642
738 0 99.4428 13.4751 1340 157.437 1048.42 463.934
739 1 52.263 11.3082 591 153.53 1048.36 488.264
740 0 55.0752 11.566 637 155.721 1048.09 487.587
741 0 55.1339 12.2066 673 153.429 1048.42 484.866
742 0 59.1418 11.9205 705 151.59 1048.24 483.942
743 0 60.1746 12.4804 751 156.426 1048.74 483.529
744 0 61.1312 12.3996 758 152.613 1048.66 482.178
745 0 63.155 12.3506 780 149.877 1049.14 481.526
746 0 64.1263 12.7717 819 157.051 1048.75 480.266
747 0 66.1026 12.768 844 157.442 1049.43 478.735
748 0 70.0964 12.5399 879 155.611 1049.31 478.706
749 0 70.1357 12.9463 908 150.968 1050.65 477.895
750 0 72.2051 13.5725 980 153.554 1050.61 476.912
751 0 74.117 12.8985 956 157.096 1051.21 474.508
752 0 77.0957 13.4508 1037 150.79 1051.19 473.5
753 0 79.1859 13.0579 1034 153.753 1051.44 471.948
754 0 82.1399 13.1605 1081 153.334 1051.54 470.91
755 0 85.2449 13.033 1111 150.842 1051.38 469.097
756 0 87.1436 13.0819 1140 152.503 1051.37 469.017
757 0 90.2847 13.0808 1181 151.952 1051.35 467.691
758 0 94.143 13.1821 1241 147.526 1051.59 464.983
759 0 95.1973 13.3407 1270 152.575 1050.62 463.765
760 0 99.2761 13.1653 1307 147.605 1051.37 462.145
761 1 54.0456 11.2313 607 153.944 1051.54 484
762 0 55.1148 11.7754 649 149.917 1051.63 483.777
763 0 56.0661 12.0215 674 149.108 1050.04 482.056
764 0 59.165 12.1693 720 147 1049.89 480.718
765 0 59.0642 12.3086 727 143.028 1050.35 480.838
766 0 61.1993 12.1897 746 152.33 1051.01 480.287
767 0 65.0994 12.5347 816 152.113 1050.95 478.598
768 0 66.1724 12.543 830 150.906 1051.32 479.146
769 0 67.1861 12.4431 836 154.462 1051.09 477.834
770 0 67.2459 12.6848 853 152.32 1050.8 476.341
771 0 70.1598 12.9419 908 149.635 1050.77 475.478
772 0 73.1838 12.6121 923 146.715 1050.93 473.601
773 0 75.1906 12.741 958 150.49 1050.83 472.434
774 0 78.0905 12.6648 989 159.959 1050.72 471.631
775 0 80.2153 13.0773 1049 149.331 1051.33 471.35
776 0 82.0953 12.8509 1055 150.934 1050.69 469.452
777 0 85.1536 13.2349 1127 155.151 1050.83 468.245
778 0 88.2218 13.2734 1171 153.889 1050.27 466.318
779 0 91.2163 13.0788 1193 157.696 1049.79 464.489
780 0 92.0756 13.1197 1208 155.393 1049.66 463.809
781 0 98.0833 12.785 1254 161.209 1049.52 462.776
782 0 101.113 13.3316 1348 154.932 1049.51 461.127
783 0 103.071 13.088 1349 153.601 1049.25 459.861
784 0 107.165 13.1199 1406 152.334 1049.58 457.935
785 0 109.078 13.55 1478 151.798 1049.16 456.67
786 0 113.222 13.3896 1516 156.571 1049.14 455.036
787 1 63.0792 11.0972 700 162.917 1049.3 479.441
788 0 63.1296 12.0546 761 158.555 1049.59 479.488
789 0 66.1849 12.4651 825 155.73 1048.05 477.712
790 0 68.0904 12.1897 830 154.399 1047.95 478.084
791 0 70.0938 12.4547 873 150.899 1048.12 476.102
792 0 73.1752 12.4496 911 159.382 1048.33 475.303
793 0 74.0808 12.4459 922 155.401 1048.32 474.274
794 0 79.2736 12.4632 988 159.595 1048.52 473.121
795 0 82.0471 13.09 1074 155.467 1049.05 471.296
796 0 84.135 13.2763 1117 157.021 1048.5 470.15
797 0 86.1353 12.9448 1115 150.22 1050.11 468.726
798 0 88.1565 12.9996 1146 154.773 1050.57 467.87
799 0 92.2543 13.1268 1211 161.818 1050.56 466.3
800 0 94.2823 13.0353 1229 151.835 1050.54 463.803
801 0 98.228 13.0207 1279 154.062 1050.76 462.342
802 0 100.25 13.0473 1308 154.229 1051.11 461.594
803 0 106.173 12.8187 1361 161.291 1050.78 459.516
804 0 111.339 12.9604 1443 158.497 1051.11 457.055
805 1 56.3156 10.3701 584 154.146 1051.02 481.884
806 0 56.2074 11.0128 619 146.178 1051 479.627
807 0 58.3709 10.9986 642 148.854 1050.72 478.338
808 0 59.1735 11.4409 677 146.705 1051.34 476.383
809 0 62.1456 11.4409 711 144.918 1051.1 474.146
810 0 65.1572 11.4032 743 147.433 1050.8 472.548
811 0 67.2759 11.6535 784 151.67 1050.84 472.366
812 0 69.2441 11.5822 802 149.297 1051.01 471.545
813 0 70.1588 11.6878 820 151.08 1050.83 468.832
814 0 72.2608 11.5554 835 154.074 1051.09 469.396
815 0 77.1788 11.9592 923 152.427 1050.78 466.463
816 0 77.2923 12.0711 933 149.213 1051.1 465.377
817 0 81.4044 12.5055 1018 151.636 1050.34 463.568
818 0 84.4033 12.7128 1073 147.267 1050.27 460.948
819 0 88.6552 12.5317 1111 155.608 1051.15 459.14
820 0 88.4452 12.177 1077 164.629 1050.82 460.52
821 0 93.3405 12.3312 1151 162.941 1051.16 458.788
822 0 98.4917 12.1838 1200 165.642 1051.44 457.239
823 0 101.366 13.1898 1337 160.047 1051.3 453.978
824 0 102.364 12.563 1286 159.271 1051.25 452.371
825 0 106.296 12.9544 1377 159.298 1051.03 450.521
826 1 56.3371 10.7744 607 163.269 1052.62 477.466
827 0 60.3358 11.1708 674 155.145 1052.38 476.22
828 0 60.2153 11.0935 668 152.648 1052.22 478.314
829 0 63.2125 11.7224 741 154.043 1051.84 477.653
830 0 69.2707 14.7104 1019 145.926 1052.41 475.414
831 0 77.2599 14.5354 1123 125.581 1052.53 470.08
832 0 80.1822 15.8888 1274 129.648 1052.64 469.271
833 0 77.1981 16.1403 1246 136.667 1052.87 469.758
834 0 77.2691 15.349 1186 139.6 1052.6 470.713
835 0 77.2518 14.4074 1113 145.967 1052.97 470.686
836 0 77.1505 13.1691 1016 161.017 1052.81 472.052
837 0 77.2621 13.0595 1009 161.191 1052.58 470.89
838 0 82.1628 12.5483 1031 158.965 1053.22 470.36
839 0 82.1769 12.826 1054 164.83 1053.42 469.121
840 0 85.2068 13.4262 1144 158.748 1053.65 467.448
841 0 87.1369 14.1502 1233 152.358 1053.74 464.941
842 0 91.3146 12.8238 1171 164.04 1053.51 464.806
843 0 91.2125 13.2219 1206 161.081 1053.59 462.181
844 0 97.4111 13.5713 1322 153.908 1053.95 460.356
845 0 100.282 12.9734 1301 158.062 1054.15 460.56
846 0 104.33 13.1027 1367 159.958 1054.52 458.851
847 0 107.39 12.7573 1370 151.072 1054.21 458.02
848 1 55.1864 10.7816 595 153.461 1054.34 484.076
849 0 56.2836 11.4243 643 150.4 1053.64 482.414
850 0 57.1895 12.0826 691 151.038 1053.67 482.012
851 0 61.1366 11.9895 733 151.385 1054.12 480.531
852 0 62.1552 11.954 743 147.898 1053.77 479.466
853 0 63.1785 12.4568 787 149.856 1054.68 477.935
854 0 66.1744 12.8751 852 143.194 1054.49 476.131
855 0 68.2679 12.4363 849 145.084 1053.81 475.227
856 0 71.1556 11.9035 847 149.608 1053.36 474.123
857 0 74.3399 12.3487 918 145.191 1052.9 473.633
858 0 75.142 12.656 951 149.073 1051.8 473.557
859 0 77.2541 12.5689 971 152.966 1052.48 471.18
860 0 78.5129 12.9788 1019 147.347 1052.06 470.791
861 0 82.4592 12.6972 1047 147.957 1051.49 470.224
862 0 83.3096 12.9277 1077 141.737 1050.75 467.445
863 0 86.4097 13.1814 1139 152.906 1051.19 466.416
864 0 89.3342 12.7163 1136 146.696 1051.86 464.605
865 0 92.5386 12.7082 1176 141.093 1051.97 462.489
866 0 91.4145 13.0286 1191 148.601 1051.17 459.731
867 0 97.6334 12.6903 1239 150.236 1051.32 459.496
868 0 100.574 13.0252 1310 152.176 1050.48 457.505
869 0 103.563 12.7265 1318 152.268 1050.97 455.828
870 0 106.682 13.3481 1424 153.282 1051.02 454.148
871 0 108.514 13.2425 1437 152.396 1050.92 452.066
872 0 112.612 13.1691 1483 155.423 1051.04 451.452
873 1 62.5848 11.5363 722 152.605 1050.71 475.932
874 0 66.4641 11.4648 762 160.083 1050.15 475.752
875 0 67.4269 12.0575 813 152.705 1050.69 476.455
876 0 71.2062 12.0495 858 151.841 1052.07 475.596
877 0 72.3497 12.5502 908 153.814 1051.31 474.333
878 0 74.2001 12.2641 910 148.389 1051.52 473.649
879 0 76.2039 12.8602 980 157.674 1051.83 473.264
880 0 80.2524 12.6601 1016 152.167 1051.85 471.464
881 0 80.2729 13.0555 1048 158.212 1051.73 470.956
882 0 84.2837 12.6834 1069 160.817 1052.08 469.842
883 0 87.3984 12.5632 1098 156.505 1052.22 467.751
884 0 91.3384 12.6343 1154 158.179 1051.73 465
885 0 93.5924 12.7254 1191 150 1051.87 462.51
886 0 97.7383 13.0348 1274 155.757 1051.86 461.801
887 0 99.6426 12.8861 1284 154.454 1051.55 460.862
888 0 102.345 12.6533 1295 155.318 1051.34 459.18
889 0 106.581 12.6852 1352 155.777 1051.17 457.538
890 1 56.2281 10.5463 593 153.882 1050.69 481.968
891 0 58.255 11.1235 648 152.073 1050.8 481.932
892 0 61.1955 10.8014 661 154.076 1050.8 481.994
893 0 62.288 11.6395 725 149.852 1051.18 480.399
894 0 64.1744 12.1232 778 149.24 1050.97 479.064
895 0 65.358 11.9649 782 147.747 1050.7 477.454
896 0 68.2543 11.9992 819 145.525 1051.33 477.57
897 0 68.0926 12.0424 820 153.984 1050.56 476.84
898 0 71.1422 12.2853 874 145.619 1051.06 476.011
899 0 72.1134 12.8547 927 152.344 1051.35 475.392
900 0 76.0647 12.187 927 155.067 1051.46 473.347
901 0 77.1117 12.1382 936 154.074 1051.52 472.683
902 0 79.0743 12.3302 975 150.849 1052.21 471.258
903 0 82.2322 12.258 1008 152.386 1051.99 470.487
904 0 84.2498 12.7359 1073 154.552 1052.47 469.539
905 0 85.2388 12.7759 1089 152.537 1052.36 468.335
906 0 88.4302 12.5297 1108 154.043 1052.7 465.902
907 0 92.3526 12.7555 1178 152.372 1052.58 465.281
908 0 93.3272 12.8473 1199 154.565 1052.41 463.686
909 0 97.3016 12.97 1262 157.429 1052.38 461.775
910 0 100.429 12.4366 1249 155.045 1052.21 462.03
911 0 102.583 12.3413 1266 151.573 1052.05 459.002
912 0 105.525 12.4141 1310 150.478 1051.95 457.496
913 0 108.661 12.5712 1366 157.436 1052.88 456.736
914 1 64.3655 11.0463 711 149.525 1051.99 477.242
915 0 67.3846 10.9075 735 151.024 1052.67 477.717
916 0 70.4209 11.3461 799 148.131 1052.71 475.877
917 0 69.359 11.7793 817 140.599 1052.8 475.869
918 0 72.3784 12.2412 886 142.448 1053.37 476.212
919 0 74.154 12.0965 897 143.342 1052.22 474.652
920 0 77.1823 11.9846 925 145.444 1052.04 471.465
921 0 80.191 12.0213 964 145.035 1052.22 471.566
922 0 81.116 12.2664 995 142.001 1052.68 470.665
923 0 83.287 12.2468 1020 144.992 1052.71 468.781
924 0 86.2807 12.2391 1056 141.975 1053.16 466.865
925 0 89.273 11.9073 1063 145.328 1052.49 466.752
926 0 92.3599 12.343 1140 136.204 1052.59 464.882
927 0 95.3477 12.4387 1186 139.355 1052.38 462.488
928 0 97.3001 12.3535 1202 145.292 1052.53 461.069
929 0 102.416 12.1271 1242 139.042 1052.1 460.367
930 0 105.503 12.464 1315 140.869 1052.55 458.77
931 0 109.377 12.498 1367 145.915 1053.21 457.483
932 0 112.224 12.4395 1396 149.947 1052.63 455.439
933 0 118.346 12.6663 1499 153.159 1053.56 452.903
934 1 63.1022 10.7128 676 149.355 1053.02 478.636
935 0 65.0783 11.417 743 146.16 1054.3 478.303
936 0 66.0721 11.6539 770 141.684 1055.29 478.175
937 0 69.0799 11.8993 822 140.408 1054.9 476.847
938 0 71.0794 12.2961 874 137.446 1054.33 475.2
939 0 74.0217 12.1451 899 150.91 1055.28 473.422
940 0 76.205 12.4401 948 140.116 1054.44 473.15
941 0 78.208 12.454 974 141.616 1054.24 471.736
942 0 80.108 12.4832 1000 150.959 1054.83 470.483
943 0 83.0337 13.1633 1093 161.425 1055.58 469.793
944 0 84.0623 13.5376 1138 159.476 1055.28 468.701
945 0 88.1864 13.324 1175 157.664 1055.27 467.664
946 0 92.0726 13.3916 1233 161.563 1055.38 466.3
947 0 93.2015 13.4869 1257 164.144 1054.51 464.719
948 0 96.1966 13.6699 1315 163.713 1054.21 462.731
949 0 99.2004 13.5181 1341 162.738 1053.64 461.363
950 0 102.26 13.3678 1367 163.595 1053.92 460.671
951 0 105.325 13.615 1434 167.676 1054.17 457.986
952 0 109.285 13.5243 1478 164.836 1053.75 456.287
953 0 110.177 14.032 1546 159.343 1055.82 454.926
954 1 62.0745 12.05 748 170.063 1053.71 478.229
955 0 63.1738 12.2202 772 162.654 1054.23 478.431
956 0 65.1977 12.7765 833 166.37 1054.13 478.563
957 0 67.0641 12.6148 846 165.714 1053.3 478.413
958 0 69.1065 13.1391 908 163.628 1053.53 477.534
959 0 70.1769 12.7392 894 155.588 1054.15 476.879
960 0 73.0849 12.7796 934 161.695 1054.37 475.882
961 0 75.1304 13.6962 1029 158.443 1054.21 473.462
962 0 75.2035 13.3504 1004 167.096 1054.42 473.019
963 0 79.1332 13.4078 1061 163.373 1054.18 472.447
964 0 81.117 13.7209 1113 162.649 1054.45 470.986
965 0 83.2558 13.4525 1120 163.113 1054.65 469.844
966 0 85.2333 13.3164 1135 163.289 1056.5 469.041
967 0 88.1944 13.663 1205 164.446 1055.73 468.395
968 0 90.3312 13.7605 1243 160.061 1056.52 465.177
969 0 93.3231 13.5122 1261 159.191 1056.4 463.506
970 0 95.4132 13.5201 1290 151.793 1055.82 461.984
971 0 101.295 13.357 1353 165.277 1056.82 460.848
972 0 104.253 13.9564 1455 167.968 1055.99 459.186
973 0 107.419 13.7126 1473 151.428 1057.25 456.826
974 0 109.257 13.5552 1481 153.976 1055.99 455.693
975 0 114.255 13.3473 1525 163.13 1059.53 455.565
976 1 64.0206 11.8399 758 158.394 1057.75 480.455
977 0 66.1071 11.9049 787 149.48 1055.77 476.485
978 0 68.0996 12.5111 852 149.533 1055.25 478.187
979 0 71.0597 12.5247 890 150.925 1054.66 475.065
980 0 74.0833 12.6209 935 156.519 1054.66 473.022
981 0 77.1296 13.0948 1010 152.554 1054.14 470.776
982 0 78.2501 12.8307 1004 151.255 1054.6 470.698
983 0 81.2602 12.8353 1043 152.695 1055.35 470.185
984 0 84.1821 12.5205 1054 150.048 1055.35 468.514
985 0 88.1426 13.0243 1148 155.925 1054.93 467.652
986 0 90.2204 13.2897 1199 155.92 1054.7 465.042
987 0 92.1595 13.4224 1237 161.067 1055.05 463.649
988 0 94.1736 13.5813 1279 150.249 1056.8 461.363
989 0 98.3041 13.092 1287 152.63 1055.53 459.377
990 0 101.238 13.009 1317 150.484 1054.99 456.575
991 0 103.22 13.2048 1363 148.675 1054.61 454.463
992 0 108.247 13.1551 1424 156.105 1054.53 453.216
993 0 107.21 13.1797 1413 149.657 1055.06 451.389
994 0 112.398 13.2298 1487 151.013 1055.36 450.379
995 0 115.465 13.346 1541 147.035 1059.14 450.73
996 0 119.224 13.2355 1578 155.689 1059.03 448.096
997 0 123.257 13.5164 1666 150.384 1058.04 445.164
998 1 68.1047 10.9097 743 146.614 1058.1 473.45
999 0 70.2644 11.656 819 149.061 1057.76 473.888
1000 0 73.3873 12.2501 899 144.643 1056.5 470.297
1001 0 76.2098 12.4262 947 139.11 1055.22 472.543
1002 0 78.158 12.0781 944 142.221 1055.31 472.254
1003 0 80.1749 12.5102 1003 132.1 1055.19 470.504
1004 0 83.178 12.6356 1051 131.6 1055.61 470.538
1005 0 84.2448 13.0334 1098 144.013 1055.54 467.842
1006 0 88.1206 12.551 1106 137.239 1055.51 467.121
1007 0 91.1622 12.8123 1168 135.318 1055.87 465.655
1008 0 93.1561 12.9997 1211 139.283 1055.81 464.934
1009 0 95.1121 12.7218 1210 136.67 1058.15 463.521
1010 0 100.186 12.8362 1286 133.94 1057.13 462.129
1011 0 101.243 12.7812 1294 138.442 1058.21 460.673
1012 0 105.315 12.8851 1357 131.893 1057.17 457.829
1013 0 107.202 12.761 1368 131.238 1056.44 456.347
1014 0 111.285 12.796 1424 136.119 1056.11 454.105
1015 0 114.362 12.6266 1444 131.965 1056.83 453.534
1016 1 66.1875 10.2738 680 140.703 1056.54 478.603
1017 0 66.2938 10.544 699 138.082 1057.13 477.097
1018 0 68.2713 11.2199 766 133.215 1056.59 475.132
1019 0 72.1689 11.6809 843 125.46 1056.41 473.474
1020 0 74.4391 11.6337 866 132.934 1057.77 473.849
1021 0 77.1853 11.9582 923 135.18 1057.26 473.18
1022 0 79.1303 11.9297 944 134.211 1056.71 470.754
1023 0 81.2382 12.3218 1001 130.87 1056.51 469.354
1024 0 83.2536 12.492 1040 131.186 1057.86 468.085
1025 0 88.2557 12.2938 1085 128.004 1057.01 467.605
1026 0 88.2832 12.5618 1109 130.379 1056.77 466.482
1027 0 91.1598 12.7907 1166 133.344 1056.72 464.457
1028 0 94.1494 12.6076 1187 133.59 1057.67 463.454
1029 0 99.2371 12.1628 1207 133.556 1058.08 461.327
1030 0 100.178 12.4778 1250 136.129 1057.28 460.686
1031 0 103.205 12.5382 1294 140.437 1057.89 458.731
1032 0 107.156 12.5051 1340 137.366 1055.94 456.05
1033 0 110.097 12.5707 1384 140.45 1056.02 455.973
1034 0 115.273 12.6396 1457 139.168 1055.8 453.793
1035 0 116.404 13.1869 1535 142.86 1055.92 452.048
1036 1 66.2354 10.1305 671 133.841 1056.13 477.194
1037 0 69.0757 10.9735 758 81.058 1056.17 475.658
1038 0 72.0878 10.9589 790 137.789 1058.11 475.123
1039 0 76.1866 11.59 883 137.196 1058.52 473.409
1040 0 77.0634 12.4703 961 139.289 1057.7 471.639
1041 0 79.2047 12.3856 981 134.033 1059.39 471.387
1042 0 82.1709 12.7052 1044 139.089 1057.56 469.378
1043 0 84.1776 12.4261 1046 139.859 1056.64 467.835
1044 0 87.3789 12.2913 1074 143.246 1055.48 466.44
1045 0 91.4839 13.0296 1192 140.597 1056.23 462.682
1046 0 94.3889 12.8193 1210 141.368 1056.24 462.95
1047 0 98.6311 12.9675 1279 135.795 1054.34 457.328
1048 0 100.532 12.7223 1279 127.355 1055.29 458.019
1049 0 103.546 13.2404 1371 143.027 1055.2 456.047
1050 0 106.226 13.1324 1395 134.839 1054.79 455.687
1051 0 110.204 12.8126 1412 140.303 1054.23 453.759
1052 0 112.289 13.2248 1485 134.354 1056.62 453.799
1053 1 63.2102 10.916 690 139.014 1057.49 478.857
1054 0 65.2028 11.7633 767 135.628 1056.11 476.988
1055 0 66.4484 12.5511 834 137.022 1055 474.43
1056 0 68.3591 12.3612 845 136.444 1054.5 474.622
1057 0 69.5609 12.5645 874 135.936 1054.61 473.387
1058 0 71.3895 12.2987 878 139.517 1054.56 470.076
1059 0 73.6662 12.4888 920 139.903 1054.45 469.336
1060 0 75.7602 12.3416 935 136.988 1054.48 465.902
1061 0 78.5788 12.6243 992 133.514 1055.62 466.935
1062 0 79.5048 12.9552 1030 136.772 1055.06 464.83
1063 0 81.5229 13.0025 1060 128.644 1054.71 464.361
1064 0 84.535 13.107 1108 139.728 1054.58 463.762
1065 0 87.6422 13.1672 1154 136.562 1054.53 461.886
1066 0 91.5999 13.0459 1195 137.072 1054.47 459.787
1067 0 93.5102 12.8328 1200 142.137 1053.91 459.07
1068 0 95.4372 13.2443 1264 137.422 1054.08 457.895
1069 0 98.4115 13.1692 1296 140.01 1053.76 455.755
1070 0 101.607 13.0601 1327 136.464 1053.34 454.846
1071 1 56.461 10.981 620 138.692 1053.55 476.385
1072 0 55.5021 11.5491 641 134.144 1053.79 477.409
1073 0 58.2614 11.8947 693 132.566 1052.77 475.524
1074 0 59.4049 12.3727 735 136.554 1052.8 474.388
1075 0 62.4512 12.4577 778 141.63 1052.74 473.246
1076 0 64.5153 12.5862 812 135.335 1053.05 470.05
1077 0 64.2329 12.8595 826 140.197 1052.32 468.712
1078 0 66.4691 12.8481 854 141.431 1052.51 468.348
1079 0 71.534 12.9589 927 136.694 1053.01 466.575
1080 0 71.367 12.9472 924 138.449 1052.96 466.412
1081 0 74.7729 12.8389 960 138.317 1053.04 464.216
1082 0 76.3564 13.2405 1011 141.48 1052.71 462.455
1083 0 79.5523 13.2366 1053 137.029 1052.93 462.181
1084 0 83.4197 13.2942 1109 138.539 1052.74 460.211
1085 0 86.6188 12.9648 1123 146.503 1053.01 459.042
1086 0 89.3893 13.2566 1185 144.069 1053.1 458.003
1087 0 91.4277 13.5517 1239 143.154 1053.13 456.182
1088 1 47.3494 10.8977 516 149.109 1053.36 477.866
1089 0 51.4061 11.3022 581 141.762 1054.02 476.756
1090 0 53.3884 11.2009 598 146.462 1053.77 477.391
1091 0 54.4309 11.9417 650 147.592 1053.62 475.398
1092 0 55.4282 11.9253 661 144.132 1053.84 474.089
1093 0 58.3861 12.1947 712 142.124 1053.95 474.346
1094 0 58.5864 12.3578 724 140.593 1053.81 473.477
1095 0 61.6526 12.1001 746 143.307 1053.32 472.174
1096 0 63.3854 12.1637 771 142.852 1053.56 470.044
1097 0 64.2998 13.0016 836 145.401 1053.11 469.352
1098 0 67.7783 12.6294 856 146.695 1052.93 469.208
1099 0 71.1954 12.4446 886 144.651 1052.65 468.451
1100 0 73.4749 12.7118 934 150.715 1053 467.009
1101 0 73.3401 12.7761 937 150.092 1053.17 466.861
1102 0 77.3567 12.6815 981 146.899 1052.99 464.898
1103 0 80.3962 13.2469 1065 139.62 1052.48 463.67
1104 0 82.277 13.0292 1072 145.788 1052.38 462.987
1105 0 84.445 12.967 1095 148.405 1053.12 461.352
1106 0 86.3901 12.7908 1105 151.863 1052.87 460.365
1107 0 88.3735 13.0695 1155 149.713 1053 459.536
1108 0 92.2973 13.3373 1231 154.753 1052.79 457.786
1109 0 94.2426 13.4016 1263 146.295 1053.25 456.424
1110 0 100.401 13.4361 1349 156.329 1053.04 455.252
1111 0 100.417 13.4439 1350 155.059 1053.45 454.164
1112 0 104.335 13.4662 1405 153.641 1053.05 453.701
1113 0 104.246 13.8327 1442 155.474 1053.61 452.106
1114 0 110.249 13.6418 1504 157.678 1053.37 451.432
1115 0 114.155 13.9021 1587 160.38 1053.24 449.344
1116 0 116.299 13.835 1609 159.333 1052.89 447.81
1117 0 120.213 14.1332 1699 159.304 1052.95 446.47
1118 0 125.39 14.2276 1784 151.928 1054.09 442.849
1119 0 131.43 13.6347 1792 155.243 1052.94 439.94
1120 0 133.254 14.0334 1870 154.367 1052.25 438.052
1121 0 139.37 13.7189 1912 158.234 1052.07 436.151
1122 0 144.349 13.7306 1982 155.388 1051.88 433.631
1123 1 83.4848 12.122 1012 162.889 1051.8 467.904
1124 0 86.4574 12.6999 1098 151.965 1051.94 466.194
1125 0 87.5177 12.9117 1130 157.653 1051.53 464.001
1126 0 92.4463 12.5478 1160 155.731 1052.4 462.082
1127 0 95.3466 12.5332 1195 157.772 1053.17 460.794
1128 0 98.4342 12.8106 1261 156.262 1053.3 460.213
1129 0 100.366 12.9027 1295 153.154 1053.7 458.454
1130 0 104.37 12.5324 1308 153.992 1053.26 457.327
1131 0 107.334 13.1179 1408 150.649 1053.44 453.944
1132 0 109.378 13.2294 1447 156.121 1053.25 454.07
1133 0 114.381 12.9217 1478 148.768 1053.6 452.595
1134 0 115.211 12.8199 1477 151.78 1053.78 450.88
1135 0 121.35 12.7235 1544 154.632 1053.05 449.22
1136 0 125.38 12.6894 1591 149.067 1053.01 446.448
1137 1 73.1434 10.9374 800 150.105 1052.16 474.146
1138 0 74.2557 11.8375 879 140.336 1052.59 471.966
1139 0 78.1438 11.7604 919 143.67 1052.34 470.734
1140 0 79.1731 11.5822 917 140.571 1052.2 471.31
1141 0 82.1383 11.6754 959 138.637 1052.84 468.429
1142 0 86.1906 11.7066 1009 134.923 1052.25 466.169
1143 0 87.1882 12.1003 1055 137.643 1052.33 464.038
1144 0 89.1559 11.9902 1069 142.359 1052.13 463.401
1145 0 92.2191 12.5028 1153 136.118 1051.88 462.833
1146 0 94.2587 12.2323 1153 138.796 1051.06 460.862
1147 0 97.3864 12.4453 1212 139.848 1051.48 459.738
1148 0 101.342 12.5516 1272 137.671 1051.21 458.311
1149 0 104.349 12.4102 1295 135.674 1051.35 456.795
1150 0 108.265 13.0236 1410 138.627 1051.17 455.09
1151 0 110.447 12.4675 1377 138.963 1051.41 452.494
1152 0 115.235 12.4788 1438 144.301 1051.42 452.332
1153 0 118.29 12.5455 1484 144.658 1051.62 450.803
1154 0 121.41 12.462 1513 140.274 1051.63 448.122
1155 0 125.32 12.496 1566 141.492 1051.94 446.515
1156 0 129.462 12.5751 1628 145.229 1051.21 443.115
1157 0 131.341 12.6389 1660 147.523 1050.83 441.558
1158 0 135.383 12.8081 1734 145.142 1051.55 439.295
1159 0 140.466 13.1064 1841 138.989 1051.14 437.386
1160 0 146.394 13.1153 1920 138.844 1050.66 434.264
1161 0 150.381 13.2065 1986 142.599 1053.65 432.119
1162 1 82.2459 9.50808 782 135.702 1052.71 468.481
1163 0 86.2747 10.0029 863 136.47 1051.81 466.988
1164 0 88.1871 11.1468 983 133.411 1052.23 465.383
1165 0 91.0713 11.4855 1046 135.618 1052.59 464.079
1166 0 93.2048 11.3299 1056 134.976 1052.15 462.213
1167 0 96.3579 11.5818 1116 141.547 1052.24 460.674
1168 0 100.205 11.8857 1191 140.802 1052.46 459.647
1169 0 104.239 11.6079 1210 136.271 1052.75 457.225
1170 0 107.304 11.6398 1249 140.53 1052.59 456.403
1171 0 109.188 12.0892 1320 135.34 1052.82 454.873
1172 0 112.311 11.9044 1337 137.72 1052.96 453.6
1173 0 113.191 12.5187 1417 145.544 1052.37 451.454
1174 0 118.188 11.9471 1412 139.435 1052.87 450.193
1175 0 121.349 12.1221 1471 142.021 1053.16 447.617
1176 0 125.351 12.2137 1531 141.291 1053.25 446.029
1177 0 128.341 12.4901 1603 140.126 1052.97 444.22
1178 0 133.435 12.508 1669 141.654 1052.95 442.043
1179 0 133.362 11.8399 1579 145.508 1052.78 437.348
1180 0 140.351 11.97 1680 147.63 1053.17 435.758
1181 1 83.1219 10.0816 838 147.459 1053.44 465.031
1182 0 85.0706 11.367 967 148.804 1053.78 464.201
1183 0 88.2285 11.6176 1025 147.037 1054.43 466.377
1184 0 92.0949 11.803 1087 144.346 1054.47 464.741
1185 0 94.0473 11.8664 1116 148.632 1054.19 462.902
1186 0 96.1269 11.8281 1137 144.724 1054.4 461.91
1187 0 101.078 11.7434 1187 141.446 1054.93 459.973
1188 0 102.113 12.2609 1252 146.955 1054.26 458.953
1189 0 106.182 11.8288 1256 147.67 1054.22 456.749
1190 0 109.115 12.2165 1333 147.938 1054.45 455.626
1191 0 113.388 12.0648 1368 152.371 1054.52 454.74
1192 0 115.113 12.7961 1473 148.794 1054.43 451.542
1193 0 118.103 12.6246 1491 147.681 1054.82 448.655
1194 0 121.213 12.3584 1498 151.952 1053.48 447.15
1195 0 126.276 12.9716 1638 151.377 1053.26 446.559
1196 0 128.277 13.0967 1680 156.016 1053.35 444.89
1197 0 132.211 13.2289 1749 150.605 1053.23 443.78
1198 0 137.219 13.1177 1800 146.861 1052.77 441.567
1199 0 139.406 13.1056 1827 155.695 1052.62 439.35
1200 0 143.278 13.1004 1877 155.668 1053.29 435.579
1201 0 147.332 13.1539 1938 157.465 1053.48 434.35
1202 0 151.297 13.034 1972 158.093 1053.24 432.012
1203 1 89.2039 11.7147 1045 154.143 1053.43 463.252
1204 0 91.1279 12.2794 1119 156.203 1052.82 462.783
1205 0 93.2254 12.443 1160 152.529 1052.68 462.698
1206 0 96.1541 12.2304 1176 156.268 1052.73 461.774
1207 0 97.213 13.0024 1264 147.882 1053.21 460.803
1208 0 101.212 12.8048 1296 149.019 1052.95 458.515
1209 0 105.108 12.5776 1322 148.12 1053.47 456.94
1210 0 108.136 13.1686 1424 153.664 1054.23 454.509
1211 0 111.162 13.053 1451 152.429 1053.61 454.14
1212 0 115.15 12.8615 1481 154.225 1053.59 452.269
1213 0 118.219 13.0859 1547 157.787 1052.73 450.67
1214 0 123.184 12.7696 1573 155.472 1052.5 448.221
1215 0 126.19 13.1627 1661 158.266 1053.58 446.444
1216 0 130.197 13.0725 1702 161.425 1054.15 445.098
1217 0 135.196 13.3288 1802 155.183 1054.33 441.644
1218 0 140.301 13.0861 1836 154.064 1054.48 438.355
1219 1 76.2566 11.9596 912 161.283 1054.33 467.991
1220 0 79.2122 12.6748 1004 25.6962 1053.68 467.291
1221 0 83.3296 12.6486 1054 145.611 1055.02 466.348
1222 0 85.409 12.5748 1074 156.747 1054.2 466.183
1223 0 87.2946 12.8874 1125 146.868 1053.93 465.956
1224 0 91.4494 12.4878 1142 146.69 1054.6 464.619
1225 0 94.3075 12.7561 1203 153.143 1053.93 462.354
1226 0 96.2264 12.959 1247 156.49 1053.52 460.777
1227 0 97.3603 12.993 1265 153.394 1053.93 457.772
1228 0 102.338 13.1036 1341 147.743 1053.39 456.425
1229 0 105.556 13.0073 1373 151.664 1053.7 455.059
1230 0 108.612 13.1109 1424 146.514 1054.54 450.73
1231 0 110.42 13.0773 1444 153.881 1054.42 451.672
1232 0 114.465 13.2093 1512 154.314 1054.86 450.797
1233 0 118.407 13.3016 1575 153.743 1054.36 448.618
1234 0 121.533 13.1075 1593 159.318 1054.47 447.114
1235 0 122.519 13.3285 1633 160.048 1054 443.216
1236 0 127.419 13.5772 1730 161.463 1054.08 442.51
1237 0 131.303 13.0995 1720 150.945 1055.27 442.424
1238 0 134.242 13.3639 1794 163.227 1055.13 441.23
1239 0 140.223 13.4642 1888 160.198 1054.29 438.528
1240 0 143.417 13.8059 1980 157.255 1053.92 435.087
1241 0 148.47 13.2215 1963 164.556 1053.68 432.818
1242 0 153.58 13.3415 2049 156.244 1053.53 430.539
1243 0 157.469 13.463 2120 99.4627 1055.21 426.902
1244 1 92.19 11.8451 1092 159.928 1053.61 460.821
1245 0 93.2769 12.3825 1155 150.527 1053.27 458.927
1246 0 98.2969 12.5335 1232 152.824 1052.78 458.118
1247 0 100.222 12.5721 1260 154.81 1053.13 456.835
1248 0 102.508 12.4575 1277 156.977 1053.65 454.274
1249 0 106.441 12.6549 1347 157.349 1053.72 453.248
1250 0 110.402 12.5631 1387 155.03 1053.71 450.578
1251 0 112.651 13.1912 1486 157.683 1053.62 448.35
1252 0 116.271 13.0041 1512 155.836 1053.87 448.468
1253 0 119.577 12.5693 1503 157.241 1054.31 446.868
1254 0 122.345 12.6854 1552 159.14 1053.79 444.437
1255 0 126.464 12.9602 1639 159.057 1054.53 441.782
1256 0 130.549 13.0526 1704 159.16 1055.29 438.417
1257 0 132.821 12.7239 1690 156.302 1054.72 434.624
1258 0 134.765 12.5478 1691 151.716 1054.92 431.817
1259 0 142.552 12.7532 1818 155.738 1054.17 429.494
1260 0 147.563 12.8216 1892 155.802 1054.64 426.802
1261 1 84.5269 10.6002 896 155.903 1054.33 458.692
1262 0 84.419 11.5614 976 151.707 1054.19 458.217
1263 0 86.4231 11.49 993 149.428 1054.37 458.693
1264 0 90.4445 11.2555 1018 147.944 1053.74 456.385
1265 0 89.3871 11.6572 1042 147.141 1054.57 456.064
1266 0 94.166 11.0443 1040 146.083 1054.98 453.749
1267 0 97.2484 11.4346 1112 146.554 1054.31 452.137
1268 0 99.1933 11.4625 1137 142.725 1054.62 451.011
1269 0 103.176 12.0958 1248 144.506 1054.74 449.098
1270 0 106.271 11.5648 1229 145.185 1054.34 448.364
1271 0 108.288 12.3744 1340 145.742 1054.51 446.142
1272 0 112.401 12.3754 1391 140.133 1054.23 444.756
1273 0 116.416 12.1976 1420 141.303 1054.35 442.427
1274 0 122.365 12.4464 1523 138.43 1054.25 441.221
1275 0 124.283 12.367 1537 125.221 1053.91 439.675
1276 0 127.451 12.546 1599 134.163 1053.12 437.832
1277 0 131.351 12.3486 1622 142.453 1054.03 432.882
1278 0 136.325 12.9837 1770 138.242 1053.27 430.701
1279 0 142.281 13.2765 1889 138.416 1053.27 429.916
1280 1 81.2083 11.3043 918 133.596 1053.01 462.331
1281 0 82.1281 11.7865 968 127.563 1053.57 461.097
1282 0 84.1651 11.7982 993 128.693 1053.52 460.682
1283 0 85.2365 12.084 1030 127.535 1053.24 459.009
1284 0 88.1567 12.7047 1120 125.271 1054.17 457.964
1285 0 90.1718 12.7534 1150 123.455 1053.8 455.541
1286 0 92.1945 12.4845 1151 130.597 1054.34 455.919
1287 0 96.3373 12.5704 1211 134.632 1054.78 453.706
1288 0 98.303 12.848 1263 134.321 1054.84 451.316
1289 0 102.201 12.6515 1293 137.544 1054.16 449.869
1290 0 106.379 12.5965 1340 135.366 1054.18 448.063
1291 0 108.349 13.4381 1456 130.379 1054.48 447.394
1292 0 112.342 12.9248 1452 135.842 1054.7 445.737
1293 0 114.363 13.2124 1511 100.73 1054.42 443.713
1294 0 116.412 13.2374 1541 132.378 1054.24 441.825
1295 0 119.454 13.2017 1577 141.878 1054.77 441.963
1296 0 123.287 13.1644 1623 142.061 1054.51 438.807
1297 0 128.382 13.1015 1682 139.03 1054.72 438.565
1298 0 131.402 13.1353 1726 139.513 1054.68 436.149
1299 0 137.493 13.0989 1801 149.57 1054.67 433.059
1300 0 139.317 13.9251 1940 148.421 1054.43 430.835
1301 1 80.1871 11.3235 908 148.807 1054.45 460.665
1302 0 83.4648 12.3645 1032 148.872 1056.58 462.153
1303 0 87.4531 12.4753 1091 147.402 1056.47 460.669
1304 0 88.3357 12.7242 1124 147.778 1055.72 459.869
1305 0 92.3713 12.9369 1195 150.125 1055.3 458.505
1306 0 96.3756 12.555 1210 149.687 1055.17 457.811
1307 0 97.3475 12.5735 1224 142.287 1054.87 456.828
1308 0 100.555 12.9482 1302 151.029 1055.31 455.613
1309 0 101.554 13.195 1340 147.047 1054.85 453.982
1310 0 104.443 13.6725 1428 152.933 1054.99 452.824
1311 0 110.518 13.0386 1441 147.832 1055.13 451.4
1312 0 113.526 13.0278 1479 153.873 1054.71 449.085
1313 0 115.658 13.2719 1535 154.819 1055.02 446.626
1314 0 120.54 12.9915 1566 153.765 1054.95 445.696
1315 0 123.601 13.0015 1607 154.571 1055.14 443.713
1316 0 127.427 13.7648 1754 149.469 1055.25 440.501
1317 1 75.3145 11.1001 836 153.193 1055.29 468.86
1318 0 77.1713 11.8438 914 144.904 1055.3 468.246
1319 0 77.2609 11.8171 913 148.84 1055.11 468.05
1320 0 79.3259 12.4171 985 145.85 1055.83 466.13
1321 0 82.4529 12.0554 994 146.975 1055.4 464.284
1322 0 86.5579 12.2923 1064 140.602 1056.04 463.173
1323 0 88.5813 12.418 1100 138.874 1055.72 461.223
1324 0 88.4605 12.5254 1108 144.7 1055.89 460.51
1325 0 94.4004 12.4894 1179 149.498 1055.33 459.498
1326 0 97.3774 12.508 1218 147.245 1055.61 457.741
1327 0 98.4775 12.7237 1253 149.816 1054.74 456.515
1328 0 103.349 12.5594 1298 144.144 1055.02 454.541
1329 0 104.382 13.0674 1364 145.451 1054.96 453.354
1330 0 110.4 12.6268 1394 145.286 1054.86 451.081
1331 0 112.353 12.7811 1436 143.464 1055.38 449.777
1332 0 117.316 12.9991 1525 142.711 1056.49 448.113
1333 0 0 0 0 -nan -nan -nan
1334 0 122.401 12.8758 1576 151.145 1054.69 444.935
1335 0 126.406 12.9661 1639 146.986 1055 442.866
1336 0 128.299 14.5441 1866 138.989 1054.82 438.767
1337 0 132.406 13.0735 1731 146.129 1055.3 439.297
1338 0 136.261 12.9164 1760 145.89 1055.36 437.686
1339 0 140.412 12.969 1821 143.124 1054.87 435.679
1340 0 144.404 12.8044 1849 143.016 1056.07 434.562
1341 0 149.252 13.1389 1961 143.881 1055.82 427.965
1342 0 152.321 12.9792 1977 144.7 1055.87 428.037
1343 0 157.251 13.24 2082 136.805 1055.84 427.853
1344 0 161.52 13.3358 2154 137.338 1055.69 424.456
1345 0 167.326 13.0703 2187 138.366 1056.16 421.327
1346 0 171.303 13.4206 2299 127.744 1056.24 419.459
1347 0 175.343 13.2997 2332 137.371 1055.99 415.758
1348 0 182.436 13.4623 2456 137.087 1055.75 414.622
1349 0 187.301 13.4436 2518 132.688 1056.33 411.265
1350 0 192.315 13.3011 2558 139.018 1056.26 409.234
1351 0 197.278 13.742 2711 135.82 1057.69 405.432
1352 0 205.328 13.515 2775 134.014 1056.84 402.203
1353 0 212.392 13.654 2900 132.863 1056.88 398.511
1354 0 218.334 13.5114 2950 131.992 1056.65 396.363
1355 0 225.402 13.6911 3086 131.879 1056.44 391.897
1356 0 232.57 13.7765 3204 128.784 1056.48 389.22
1357 0 238.487 13.5731 3237 125.377 1056.53 386.094
1358 0 247.48 13.3748 3310 123.551 1056.6 381.61
1359 0 254.45 13.3032 3385 136.203 1056.87 378.581
1360 1 199.325 12.8383 2559 134.4 1056.27 404.927
1361 0 205.267 13.0708 2683 130.91 1055.9 400.473
1362 0 212.204 12.9592 2750 134.569 1057.29 396.043
1363 0 220.383 13.3359 2939 130.356 1057.62 389.881
1364 0 225.233 12.9333 2913 129.079 1056.89 386.945
1365 0 233.389 12.9398 3020 130.313 1056.75 383.608
1366 0 240.525 13.0922 3149 131.195 1056.24 379.475
1367 0 250.555 13.0829 3278 123.13 1056.12 377.164
1368 0 256.489 13.5562 3477 127.85 1056.13 370.895
1369 0 265.511 13.265 3522 129.141 1056.29 366.336
1370 0 277.495 14.8219 4113 122.597 1056.58 361.054
1371 0 286.643 15.8839 4553 131.496 1056.24 354.974
1372 0 295.435 15.1539 4477 124.042 1056.83 349.788
1373 1 76.1935 10.9983 838 119.29 1054.81 465.246
1374 0 79.2032 11.1107 880 116.527 1056.3 463.273
1375 0 81.1297 11.2659 914 121.1 1055.68 463.033
1376 1 18.0414 6.98394 126 96.7857 1058.44 494.825
1377 0 20.0038 6.89869 138 100.326 1059.22 495.225
1378 0 16.0076 6.18456 99 101.949 1058.7 496.939
1379 0 14.0007 6.21396 87 96.7586 1058.75 497.862
1380 0 15.0007 6.33304 95 96.4947 1055 497.084
1381 0 15.0049 5.86475 88 102.318 1054.85 497.67
1382 0 16.0378 9.97641 160 91.0062 1055.4 496.662
1383 0 30.2909 10.4652 317 90.0442 1056.78 473.751
1384 0 345.849 13.4249 4643 120.816 1056.92 285.544
1385 1 123.357 12.1274 1496 108.898 1056.71 394.918
1386 0 108.238 13.9692 1512 107.771 1056.46 381.788
1387 0 112.436 13.8835 1561 102.589 1057.35 384.843
1388 1 13.0056 5.68986 74 93.7162 1059.77 451.378
1389 0 15.0097 6.19599 93 97.9247 1058.87 452.645
1390 0 22.0064 6.31635 139 97.8273 1059.07 456.863
1391 0 22.0068 7.72489 170 99.7588 1058.81 458.847
1392 0 18.0048 6.33163 114 98.3246 1059.11 461.596
1393 1 77.2344 11.0573 854 113.916 1056.87 430.249
1394 0 10.0002 6.49988 65 95.6615 1059.69 473.031
1395 0 12.0019 5.74907 69 92.058 1059.49 474.638
1396 0 22.0296 6.58206 145 99.1862 1058.89 469.317
1397 1 84.7916 11.7347 995 113.898 1055.32 439.447
1398 0 84.5993 12.3878 1048 113.13 1055.53 447.883
1399 0 86.3753 12.4688 1077 112.36 1056.16 444.874
1400 0 91.5427 12.333 1129 110.9 1056.35 446.555
1401 0 88.4227 13.0396 1153 119.588 1055.4 447.61
1402 0 93.3761 12.8513 1200 113.037 1055.17 449.797
1403 0 97.3844 12.959 1262 119.302 1055.8 452.129
1404 0 97.5922 13.2593 1294 120.042 1054.49 450.41
1405 0 101.529 12.9619 1316 118.376 1054.2 447.947
1406 0 104.579 13.5495 1417 109.481 1054.67 446.814
1407 0 106.728 12.8269 1369 117.568 1054.83 445.991
1408 0 109.503 13.3969 1467 117.661 1054.69 445.897
1409 0 111.442 13.2446 1476 118.098 1054.35 444.342
1410 0 115.507 13.6875 1581 122.76 1055.02 443.658
1411 0 118.67 13.7608 1633 119.521 1054.92 442.439
1412 0 122.643 13.527 1659 116.617 1054.63 440.206
1413 0 125.397 13.6047 1706 118.689 1055.52 440.552
1414 0 129.507 13.6749 1771 119.819 1055.24 439.558
1415 0 133.629 13.4402 1796 121.526 1054.09 439.271
1416 1 77.545 11.9543 927 116.795 1054.11 467.686
1417 0 78.3098 12.5527 983 113.233 1053.72 466.707
1418 0 80.2923 12.4919 1003 111.984 1054.68 468.035
1419 0 80.3575 12.5937 1012 109.792 1054.68 466.305
1420 0 83.3776 12.9171 1077 108.29 1053.48 465.573
1421 0 88.4759 12.3423 1092 103.988 1053.9 463.214
1422 0 88.5592 12.7824 1132 105.821 1052.95 460.634
1423 0 93.5663 12.9534 1212 96.3622 1053 460.168
1424 0 95.4846 12.5884 1202 117.502 1053.82 458.989
1425 0 97.6017 12.5817 1228 120.154 1054.23 457.555
1426 0 100.538 12.6619 1273 117.049 1053.77 456.115
1427 0 103.431 12.8782 1332 119.117 1053.72 456.226
1428 0 105.38 12.9911 1369 119.675 1053.72 453.979
1429 0 109.496 13.3064 1457 114.388 1053.47 453.141
1430 0 112.607 13.0987 1475 117.479 1053.45 451.182
1431 0 115.364 13.3231 1537 115.064 1053.71 449.114
1432 0 120.59 13.2847 1602 109.849 1053.2 447.976
1433 0 122.643 13.5842 1666 117.573 1053.41 446.694
1434 0 126.466 13.4424 1700 113.392 1052.86 441.618
1435 0 127.332 12.9975 1655 114.145 1052.5 436.588
1436 0 133.793 13.2145 1768 117.596 1051.79 434.591
1437 0 137.598 13.2342 1821 116.204 1051.28 432.689
1438 0 143.773 13.111 1885 118.401 1052.02 434.774
1439 0 147.773 13.3245 1969 119.509 1052.07 432.557
1440 0 150.754 13.1672 1985 117.083 1052.12 430.993
1441 1 88.3987 11.878 1050 114.836 1053.14 461.853
1442 0 92.4881 12.1637 1125 119.087 1052.51 461.746
1443 0 93.3738 12.1769 1137 110.987 1052.42 460.23
1444 0 95.4962 12.0633 1152 119.403 1051.48 458.676
1445 0 97.4331 12.5112 1219 119.515 1052.07 457.469
1446 0 100.411 12.2895 1234 119.109 1052.52 454.948
1447 0 102.481 12.4316 1274 120.941 1052.51 454.246
1448 0 108.466 12.9073 1400 123.811 1051.75 453.236
1449 0 110.501 12.4162 1372 118.875 1051.84 452.15
1450 0 112.438 12.7982 1439 124.703 1051.78 451.029
1451 0 114.459 12.9129 1478 120.082 1052.2 449.662
1452 0 118.569 12.9123 1531 125.513 1052.12 446.664
1453 0 119.357 13.4721 1608 125.633 1051.82 446.627
1454 0 125.551 13.1978 1657 125.504 1052.46 445.295
1455 0 128.446 12.877 1654 128.357 1053.1 443.741
1456 0 131.339 13.0274 1711 126.867 1052.72 439.684
1457 0 137.44 12.9729 1783 135.675 1052.5 437.583
1458 1 79.189 9.96351 789 123.797 1052.3 468.653
1459 0 80.2143 10.5218 844 123.27 1052.98 467.339
1460 0 84.2579 11.2156 945 120.792 1052.52 465.867
1461 0 87.1443 11.8539 1033 120.325 1052.41 464.005
1462 0 88.1877 11.8157 1042 125.759 1052.34 464.562
1463 0 91.3387 11.6599 1065 125.777 1052.3 461.886
1464 0 93.2682 12.1799 1136 122.322 1052.79 460.946
1465 0 96.256 12.0304 1158 123.145 1053.09 459.465
1466 0 98.3189 11.778 1158 129.487 1052.81 456.697
1467 0 102.268 12.3304 1261 126.954 1053.42 454.74
1468 0 105.399 12.0969 1275 131.551 1053.83 454.379
1469 0 109.322 12.0653 1319 126.431 1053.96 452.24
1470 0 111.231 12.074 1343 129.856 1054.32 450.316
1471 0 114.154 12.4306 1419 128.448 1054.57 449.168
1472 0 116.288 12.1853 1417 129.235 1054.38 446.975
1473 0 119.237 12.3704 1475 127.164 1054.57 444.546
1474 1 65.0731 8.62107 561 131.824 1055.03 474.226
1475 0 67.0572 8.64934 580 131.531 1055.8 474.478
1476 0 68.2104 9.63196 657 129.988 1056.33 472.836
1477 0 69.2313 9.93771 688 131.408 1056.8 472.209
1478 0 72.2075 10.2344 739 127.24 1056.27 468.137
1479 0 75.1921 11.6103 873 120.305 1055.58 467.268
1480 0 77.0933 11.7779 908 131.483 1054.59 467.619
1481 0 80.1216 11.4701 919 131.257 1054.31 466.86
1482 0 80.0857 11.8998 953 136.998 1054.78 465.779
1483 0 83.2494 11.94 994 134.767 1054.61 463.54
1484 0 85.3093 12.2613 1046 137.436 1056.02 464.418
1485 0 88.2207 12.072 1065 133.781 1055.4 463.228
1486 0 89.2629 12.8609 1148 134.634 1055.23 461.687
1487 0 93.3475 12.4803 1165 138.299 1055.54 460.493
1488 0 93.1821 12.7707 1190 139.959 1056.46 460.094
1489 0 96.2575 12.799 1232 140.314 1055.91 458.348
1490 0 99.2854 12.8015 1271 138.131 1055.65 457.64
1491 0 102.258 12.889 1318 143.51 1055.75 455.681
1492 0 102.352 13.5512 1387 139.847 1055.65 454.86
1493 0 107.46 13.0281 1400 140.472 1055.85 453.412
1494 0 110.443 13.0112 1437 141.198 1055.37 451.32
1495 0 111.308 13.0808 1456 141.711 1055.1 450.285
1496 0 114.355 13.2657 1517 137.978 1054.81 449.251
1497 0 117.529 13.3329 1567 142.001 1054.91 448.583
1498 0 120.606 13.4322 1620 147.76 1054.46 445.832
1499 0 125.294 13.3845 1677 141.953 1054.28 443.99
1500 0 128.216 13.3759 1715 149.992 1054.24 440.692
1501 0 132.581 13.4861 1788 160.892 1054.16 439.284
1502 0 137.622 13.4935 1857 149.911 1054.28 438.383
1503 0 140.335 13.6887 1921 154.612 1053.96 436.214
1504 0 148.353 14.8699 2206 148.296 1054.07 431.405
1505 1 84.2325 12.2043 1028 150.031 1053.04 466.127
1506 0 88.1032 12.054 1062 143.552 1052.89 464.81
1507 0 88.1221 12.5621 1107 144.99 1053.43 463.657
1508 0 92.1899 12.8214 1182 147.146 1052.67 462.669
1509 0 95.2654 12.8378 1223 143.453 1053.22 461.814
1510 0 98.2509 12.7327 1251 143.361 1052.9 460.36
1511 0 99.1478 13.0008 1289 150.206 1053.04 459.388
1512 0 103.418 12.9862 1343 151.258 1053.84 457.042
1513 0 105.397 13.5678 1430 148.752 1053.14 455.438
1514 0 109.319 13.3829 1463 151.353 1053.58 453.896
1515 0 112.285 13.1362 1475 156.973 1054.03 452.906
1516 0 114.447 13.2725 1519 159.269 1053.45 450.882
1517 0 117.432 13.4801 1583 156.771 1053.77 449.106
1518 0 121.301 13.858 1681 157.493 1053.13 447.823
1519 0 126.555 13.1801 1668 153.74 1052.14 445.872
1520 0 130.315 13.5978 1772 148.537 1052.49 443.23
1521 0 131.267 13.5449 1778 152.634 1052.95 441.578
1522 0 134.399 13.884 1866 155.5 1052.75 438.225
1523 0 140.304 13.6204 1911 151.932 1052.01 436.555
1524 0 142.386 13.6812 1948 155.142 1052.88 432.556
1525 0 148.423 13.8321 2053 152.68 1052.07 431.587
1526 1 84.319 12.263 1034 153.517 1051.13 461.127
1527 0 89.2588 12.3013 1098 147.425 1050.8 462.393
1528 0 91.1335 12.3116 1122 152.494 1052.09 462.299
1529 0 92.1215 12.6681 1167 156.762 1051.07 461.952
1530 0 96.2852 13.0861 1260 149.871 1052.25 459.625
1531 0 99.1401 12.9211 1281 151.294 1051.39 457.722
1532 0 101.393 12.5552 1273 144.787 1051.23 453.818
1533 0 104.433 13.0515 1363 147.982 1051.28 453.036
1534 0 108.186 12.7743 1382 151.921 1051.55 451.967
1535 0 109.293 12.5717 1374 151.605 1051.04 450.79
1536 0 113.149 13.1154 1484 154.259 1051.22 448.629
1537 0 118.255 13.4117 1586 155.984 1052.57 447.885
1538 0 122.482 12.957 1587 151.582 1053.4 444.227
1539 0 124.284 12.9381 1608 150.881 1053.9 443.111
1540 0 129.377 13.2945 1720 147.534 1053.35 441.837
1541 1 74.1889 10.4059 772 147.086 1054.14 468.813
1542 0 76.2201 10.9682 836 148.322 1053.53 467.477
1543 0 77.1912 11.9573 923 157.507 1052.72 465.529
1544 0 79.0535 12.131 959 153.32 1053.68 465.274
1545 0 81.0752 11.9765 971 141.138 1052.56 464.093
1546 0 85.221 12.1801 1038 151.415 1052.91 463.785
1547 0 87.1868 12.2381 1067 155.761 1053.78 463.003
1548 0 90.1881 11.8974 1073 156.575 1053.56 461.583
1549 0 92.3289 12.3147 1137 154.839 1053.66 459.41
1550 0 96.3605 12.4117 1196 155.991 1053.57 457.028
1551 0 98.183 12.4971 1227 153.921 1053.58 456.564
1552 0 101.097 12.671 1281 157.788 1053.15 454.334
1553 0 105.145 12.8204 1348 160.756 1053.26 453.629
1554 0 107.285 12.9375 1388 155.442 1053.24 452.532
1555 0 107.162 12.9803 1391 154.578 1052.96 450.034
1556 0 112.423 13.2002 1484 155.876 1052.39 447.655
1557 0 115.298 12.7496 1470 161.567 1052.64 445.748
1558 0 119.256 13.2656 1582 162.141 1052.94 444.152
1559 0 121.393 13.3698 1623 158.335 1053.81 443.2
1560 1 70.2485 11.4166 802 162.324 1054.2 470.049
1561 0 70.2799 11.5965 815 151.021 1054.46 468.398
1562 0 73.2218 11.6905 856 148.02 1053.38 467.242
1563 0 75.3133 12.2289 921 156.093 1054.47 466.947
1564 0 78.2792 12.0977 947 158.291 1054.39 465.005
1565 0 79.305 12.2817 974 154.815 1054.23 465.126
1566 0 80.3871 12.8628 1034 151.386 1053.86 463.06
1567 0 80.3008 12.9015 1036 156.749 1054.64 461.333
1568 0 86.262 12.1954 1052 153.312 1055.03 459.349
1569 0 87.1916 12.765 1113 155.12 1055.1 458.172
1570 0 90.2328 12.7005 1146 156.326 1055.06 457.28
1571 0 93.2708 12.5227 1168 157.695 1054.7 455.153
1572 0 95.3433 13.2888 1267 147.523 1054.75 453.847
1573 0 99.3537 12.843 1276 155.833 1054.78 451.695
1574 0 103.371 12.992 1343 155.853 1054.61 450.554
1575 0 102.333 13.2899 1360 156.86 1054.85 450.733
1576 0 107.403 13.212 1419 154.193 1054.62 448.46
1577 0 109.302 13.0555 1427 149.687 1055.23 446.52
1578 0 113.232 13.1235 1486 152.22 1054.36 444.319
1579 0 118.265 13.03 1541 154.764 1054.34 443.679
1580 0 120.223 13.1921 1586 160.109 1054.44 440.657
1581 0 124.226 13.3467 1658 161.185 1054.65 438.797
1582 0 127.17 13.4544 1711 156.196 1054.34 436.473
1583 0 132.267 13.3366 1764 159.128 1054.58 434.545
1584 0 135.213 13.6229 1842 162.303 1054.77 432.172
1585 0 140.207 13.6655 1916 154.258 1055.28 430.843
1586 0 144.308 13.7138 1979 162.64 1055.3 429.46
1587 0 147.484 14.0083 2066 164.825 1054.98 427.003
1588 0 153.291 13.8429 2122 165.971 1055.11 424.066
1589 0 158.289 13.7091 2170 167.574 1055.16 421.198
1590 0 163.229 13.9803 2282 167.677 1055.41 418.505
1591 0 168.378 13.8676 2335 165.996 1055.04 416.899
1592 1 99.1255 12.4287 1232 163.903 1054.44 450.604
1593 0 104.267 12.9092 1346 161.819 1055.04 448.678
1594 0 107.297 12.4235 1333 160.269 1056.21 447.431
1595 0 111.183 12.9067 1435 160.378 1054.56 444.222
1596 0 114.258 12.8656 1470 163.193 1054.41 444.048
1597 0 117.344 13.0983 1537 161.042 1054.51 442.666
1598 0 121.25 13.1299 1592 158.793 1054.84 439.771
1599 0 126.505 13.1142 1659 168.421 1055.78 441.596
1600 0 129.415 13.4451 1740 168.038 1056.04 439.747
1601 0 132.487 13.3976 1775 162.13 1055.53 437.564
1602 0 138.375 13.1671 1822 162.542 1055.39 434.341
1603 0 142.395 13.596 1936 164.742 1055.1 432.011
1604 1 83.2422 11.893 990 165.403 1055.02 461.906
1605 0 86.1094 12.1241 1044 166.151 1054.4 461.493
1606 0 86.091 12.8004 1102 164.23 1054.94 460.342
1607 0 92.2259 12.2742 1132 161.963 1054.02 458.929
1608 0 95.3169 12.9358 1233 162.265 1054.43 457.3
1609 0 98.214 12.544 1232 164.607 1054.04 456.071
1610 0 99.3524 12.974 1289 165.535 1054.54 453.78
1611 0 102.333 12.7818 1308 158.515 1054.04 452.761
1612 0 105.366 12.5468 1322 163.852 1054.08 451.923
1613 0 106.318 12.9987 1382 159.853 1053.69 449.414
1614 0 112.38 12.8937 1449 157.182 1053.26 448.293
1615 0 116.289 13.002 1512 165.979 1053.14 446.399
1616 0 118.238 12.9147 1527 164.745 1053.13 444.142
1617 0 123.239 12.772 1574 161.84 1053.23 443.005
1618 0 127.192 12.9647 1649 148.538 1052.57 439.874
1619 0 131.261 12.7227 1670 148.859 1052.31 437.885
1620 0 136.231 13.0954 1784 161.483 1051.5 436.672
1621 1 78.1776 10.8343 847 152.816 1052.2 466.876
1622 0 79.203 11.9692 948 156.187 1051.68 464.973
1623 0 83.2656 12.334 1027 150.868 1052.06 464.921
1624 0 82.1412 12.5759 1033 153.119 1052.82 465.23
1625 0 87.1551 12.1737 1061 158.969 1052.42 464.704
1626 0 89.1065 12.2999 1096 156.116 1052.14 464.156
1627 0 91.1841 12.4474 1135 154.279 1051.51 461.303
1628 0 91.1429 12.5407 1143 151.561 1051.48 460.773
1629 0 95.1251 12.6886 1207 145.017 1052.46 459.692
1630 0 98.1106 12.6694 1243 153.067 1051.64 458.327
1631 0 99.0949 12.5435 1243 153.451 1051.07 457.99
1632 0 102.238 12.7253 1301 156.729 1051.66 455.676
1633 0 104.275 12.9945 1355 156.182 1051.64 455.669
1634 0 107.198 13.2466 1420 163.529 1050.74 453.875
1635 0 110.176 12.6071 1389 158.348 1051.4 452.541
1636 0 112.149 12.8758 1444 164.974 1050.72 450.963
1637 0 115.221 13.1052 1510 154.821 1050.58 448.372
1638 0 119.135 12.7754 1522 149.287 1050.8 447.396
1639 0 123.21 13.0184 1604 160.905 1052.23 445.959
1640 0 125.301 13.0645 1637 168.461 1051.15 444.483
1641 0 131.256 12.9442 1699 152.497 1052.65 440.475
1642 0 134.22 13.2246 1775 162.52 1052.33 439.44
1643 0 139.205 13.1892 1836 164.441 1052.39 437.193
1644 0 142.372 13.24 1885 166.604 1052.33 433.541
1645 0 147.217 13.2525 1951 163.098 1052.51 430.394
1646 1 86.2596 11.3958 983 155.517 1051.55 462.902
1647 0 88.1891 11.9062 1050 152.889 1052.16 463.608
1648 0 91.232 11.6955 1067 153.038 1051.85 461.969
1649 0 93.2622 11.6982 1091 153.959 1051.08 460.003
1650 0 95.3792 11.8579 1131 155.272 1051.63 457.981
1651 0 100.411 11.8014 1185 150.357 1051.4 454.534
1652 0 103.572 11.9724 1240 160.106 1051.61 453.835
1653 0 105.456 11.9765 1263 156.359 1051.17 450.857
1654 0 107.45 12.4616 1339 151.186 1050.93 449.382
1655 0 110.563 12.2736 1357 165.201 1050.68 448.211
1656 0 113.565 12.4951 1419 157.908 1051.75 446.226
1657 0 115.499 12.4416 1437 155.841 1051.45 445.642
1658 0 118.453 12.8574 1523 158.248 1051.93 443.338
1659 0 121.387 13.0409 1583 151.084 1051.98 441.412
1660 0 124.436 12.8098 1594 156.666 1051.81 439.819
1661 0 128.405 12.6475 1624 156.493 1051.98 437.482
1662 0 131.491 12.959 1704 157.761 1052.5 436.596
1663 0 133.434 13.3099 1776 158.072 1052.55 435.36
1664 0 139.495 12.5883 1756 152.048 1052.1 433.61
1665 0 142.421 13.2354 1885 156.934 1052.82 430.72
1666 0 144.419 13.0523 1885 154.222 1053.64 428.993
1667 0 149.68 13.1013 1961 157.243 1053.37 427.309
1668 0 153.36 13.0543 2002 151.172 1053.02 424.011
1669 0 158.471 13.1317 2081 161.907 1053.23 421.463
1670 0 164.422 13.2221 2174 159.393 1053.69 418.041
1671 1 97.2759 11.195 1089 152.149 1053.87 453.12
1672 0 99.425 11.4056 1134 149.938 1053.65 451.16
1673 0 103.242 12.1171 1251 157.51 1053.91 454.086
1674 0 104.176 12.5461 1307 154.151 1055.11 452.364
1675 0 108.308 12.2705 1329 158.422 1055.03 451.305
1676 0 110.134 12.6663 1395 148.235 1055.56 449.325
1677 0 114.187 12.3481 1410 155.794 1055.94 447.608
1678 0 115.224 12.6275 1455 161.488 1055.86 446.771
1679 0 120.19 12.2639 1474 153.654 1055.95 443.775
1680 0 121.43 12.8633 1562 152.116 1055.46 442.332
1681 0 126.254 12.8312 1620 151.741 1055.17 440.073
1682 0 128.259 12.771 1638 156.211 1055.59 437.911
1683 0 134.166 13.133 1762 157.6 1055.35 435.946
1684 0 136.153 13.1764 1794 156.258 1055.34 434.652
1685 0 141.17 12.9135 1823 159.944 1055.16 432.568
1686 0 144.244 13.2207 1907 157.3 1054.63 430.649
1687 0 148.197 13.2189 1959 154.775 1054.62 428.729
1688 0 154.211 13.4815 2079 157.393 1054.66 426.318
1689 0 160.251 13.7971 2211 154.721 1054.72 424.956
1690 0 164.329 13.832 2273 166.383 1055.03 422.192
1691 0 171.373 13.6253 2335 164.234 1054.51 417.362
1692 1 98.1926 11.3145 1111 157.952 1054.4 457.328
1693 0 102.295 11.6525 1192 153.504 1054.54 455.893
1694 0 106.156 11.8882 1262 153.736 1053.16 453.483
1695 0 107.151 12.4404 1333 153.195 1053.49 450.761
1696 0 110.192 12.7686 1407 151.534 1053.39 450.774
1697 0 113.154 12.6023 1426 150.202 1053.14 449.234
1698 0 118.197 12.5892 1488 149.999 1053.54 447.374
1699 0 120.221 12.9179 1553 150.415 1053.53 443.832
1700 0 122.217 13.067 1597 157.031 1053.52 443.1
1701 0 125.253 12.814 1605 148.761 1053.57 441.68
1702 0 129.204 12.9175 1669 154.908 1053.19 441.286
1703 0 132.44 13.1985 1748 154.649 1052.77 439.936
1704 0 136.206 12.9951 1770 156.347 1052.67 437.265
1705 0 140.32 13.1699 1848 150.372 1051.76 434.263
1706 0 144.239 12.9368 1866 154.488 1052.8 431.603
1707 0 148.312 12.7636 1893 146.87 1052.99 430.542
1708 0 153.328 13.207 2025 152.203 1053.19 428.077
1709 1 91.3518 10.1914 931 148.824 1052.04 462.589
1710 0 93.3449 11.0451 1031 143.601 1051.96 460.727
1711 0 94.268 11.096 1046 140.707 1052 459.536
1712 0 96.244 11.6579 1122 145.594 1052.79 458.728
1713 0 100.287 11.4272 1146 145.19 1052.91 457.005
1714 0 103.331 11.768 1216 139.358 1052.63 455.106
1715 0 105.332 11.8198 1245 143.316 1053.26 454.037
1716 0 107.225 12.1241 1300 144.07 1052.32 452.915
1717 0 110.379 12.4933 1379 144.642 1052.79 452.214
1718 0 114.324 12.4033 1418 148.362 1052.7 451.074
1719 0 116.482 12.2595 1428 152.136 1052.26 450.196
1720 0 119.409 12.4613 1488 148.122 1051.61 448.469
1721 0 122.292 12.5519 1535 145.187 1052.4 447.165
1722 0 125.395 12.8793 1615 153.89 1052.12 445.046
1723 0 128.441 12.9709 1666 142.938 1051.96 443.142
1724 0 132.493 12.6874 1681 148.918 1052.41 440.864
1725 0 136.529 13.0082 1776 154.822 1052.25 438.871
1726 0 141.634 13.0901 1854 151.703 1051.66 436.387
1727 0 144.029 12.9487 1865 149.627 1051.41 433.728
1728 0 147.668 12.8261 1894 160.448 1052.53 432.283
1729 0 153.678 12.9166 1985 151.622 1052.28 430.099
1730 0 160.847 13.1057 2108 157.214 1051.32 427.452
1731 1 94.5904 10.5825 1001 143.796 1051 463.611
1732 0 98.3777 10.9578 1078 147.696 1051.19 459.47
1733 0 102.54 11.8296 1213 146.965 1050.6 458.416
1734 0 100.551 12.1331 1220 149.492 1049.64 458.317
1735 0 105.451 11.759 1240 149.589 1049.68 455.948
1736 0 110.386 12.3476 1363 148.822 1049.83 454.221
1737 0 112.636 12.2164 1376 144.942 1049.52 452.49
1738 0 115.467 12.3672 1428 146.668 1050.12 449.532
1739 0 118.34 12.219 1446 139.992 1050.12 446.576
1740 0 121.497 12.0497 1464 140.858 1050.1 445.098
1741 0 124.637 12.1152 1510 140.342 1050.25 443.266
1742 0 128.591 11.8982 1530 143.814 1049.62 443.199
1743 0 132.634 12.5081 1659 146.644 1049.49 439.195
1744 0 136.616 12.3485 1687 142.398 1049.42 439.263
1745 0 138.834 12.3025 1708 137.798 1049.61 436.324
1746 0 142.717 12.4442 1776 140.429 1049.28 433.514
1747 0 146.582 12.6687 1857 147.528 1049.67 430.386
1748 0 149.863 12.5715 1884 141.921 1049.35 428.308
1749 0 155.549 12.2212 1901 145.286 1048.86 426.531
1750 0 159.52 12.1301 1935 142.505 1049.97 423.116
1751 0 163.551 12.088 1977 147.116 1049.17 421.482
1752 1 98.4607 9.57742 943 141.384 1050.03 454.754
1753 0 101.407 9.86123 1000 147.105 1050.41 452.421
1754 0 106.389 10.8094 1150 143.863 1050.95 449.256
1755 0 107.445 11.3732 1222 137.607 1050.38 447.66
1756 0 113.369 11.6345 1319 144.534 1051.09 446.95
1757 0 114.37 11.6377 1331 147.295 1050.11 445.375
1758 0 117.444 11.7332 1378 145.038 1049.3 444.41
1759 0 121.459 12.1028 1470 148.517 1050.07 442.611
1760 0 123.366 11.7536 1450 145.796 1051.18 441
1761 0 128.409 11.9307 1532 149.486 1050.59 438.631
1762 0 131.469 12.0485 1584 150.994 1051.26 437.518
1763 0 135.312 12.2532 1658 146.095 1050.67 434.363
1764 0 136.446 12.5471 1712 152.456 1050.65 433.779
1765 0 140.51 12.4404 1748 147.876 1050.44 431.006
1766 0 148.656 13.6625 2031 150.484 1051.01 427.536
1767 0 151.383 12.6302 1912 157.845 1051.32 428.469
1768 0 154.506 12.7697 1973 152.771 1051.51 425.808
1769 0 158.614 12.7858 2028 160.801 1051.23 424.21
1770 0 164.633 13.0533 2149 156.689 1051.22 420.738
1771 0 169.731 12.8969 2189 160.021 1051.57 418.964
1772 0 175.831 13.1945 2320 158.582 1051.49 414.977
1773 0 181.85 12.6808 2306 157.515 1052.24 412.821
1774 0 186.613 13.1288 2450 157.801 1052.44 410.414
1775 0 190.919 13.346 2548 162.612 1051.97 406.423
1776 0 198.993 13.2567 2638 158.833 1052.16 403.088
1777 0 203.981 13.1924 2691 157.745 1052.49 399.516
1778 0 211.773 13.5381 2867 160.841 1052.93 394.934
1779 0 216.869 13.2246 2868 160.218 1052.67 393.173
1780 0 224.074 13.375 2997 154.592 1052.79 390.346
1781 0 229.937 13.4689 3097 158.528 1052.66 386.894
1782 0 235.68 13.2977 3134 158.523 1053.12 381.569
1783 0 234.831 12.2514 2877 158.49 1053.55 382.075
1784 0 238.583 12.3437 2945 156.923 1053.11 382.528
1785 0 238.511 12.4606 2972 162.394 1053.03 382.641
1786 0 237.613 12.8486 3053 165.614 1053.06 381.879
1787 1 64.2102 8.19185 526 138.188 1052.12 473.213
1788 0 64.0885 7.92654 508 136.104 1052.93 472.203
1789 0 66.1908 9.07981 601 132.639 1054.69 470.414
1790 0 71.1126 10.5888 753 138.296 1054.75 472.606
1791 0 73.1711 11.0973 812 137.952 1054.04 473.014
1792 0 73.1173 11.0234 806 131.515 1053.8 472.266
1793 0 76.1226 11.2582 857 134.982 1053.79 470.978
1794 0 80.1238 11.008 882 133.776 1053.79 469.42
1795 0 82.2849 10.6581 877 133.803 1053.92 468.07
1796 0 86.1585 11.2931 973 132.497 1053.8 467.041
1797 0 86.2048 11.3799 981 132.498 1052.54 466.214
1798 0 89.1839 11.4483 1021 129.628 1053.59 464.83
1799 0 90.222 11.8929 1073 124.974 1053.77 464.921
1800 0 94.3309 11.9791 1130 131.004 1054.15 463.286
1801 0 95.1885 11.3774 1083 121.416 1053.95 463.959
1802 0 99.1992 11.6634 1157 124.676 1053.82 462.352
1803 0 100.272 11.9376 1197 130.845 1053.68 461.343
1804 0 104.269 11.7485 1225 130.068 1052.84 457.798
1805 0 106.25 12.0753 1283 126.553 1052.12 456.122
1806 0 108.336 12.1567 1317 127.472 1051.82 456.242
1807 0 111.322 11.9024 1325 129.896 1052.38 454.42
1808 0 113.426 12.2194 1386 128.232 1051.93 453.519
1809 0 116.457 12.2448 1426 125.89 1052.19 451.496
1810 0 119.311 12.1364 1448 124.57 1051.84 449.224
1811 0 123.236 12.7397 1570 121.895 1052.03 444.204
1812 0 127.324 12.2522 1560 116.872 1051.98 444.909
1813 0 130.361 12.1202 1580 125.197 1052.34 443.334
1814 1 82.199 9.65949 794 122.031 1052.15 470.99
1815 0 83.1901 11.035 918 121.334 1052.38 468.159
1816 0 84.1529 11.0275 928 119.331 1052.1 470.517
1817 0 85.1322 11.676 994 123.274 1051.43 468.015
1818 0 87.1429 11.5328 1005 120.9 1051.79 466.075
1819 0 90.1098 13.0175 1173 117.1 1051.57 464.662
1820 0 88.2968 12.2541 1082 118.933 1051.37 466.14
1821 0 92.1821 12.3343 1137 123.856 1052 463.341
1822 0 93.3046 12.6896 1184 126.425 1051.49 462.497
1823 0 97.1568 12.3923 1204 120.203 1052.54 461
1824 0 99.0971 12.2607 1215 122.553 1051.61 459.126
1825 0 101.31 12.7332 1290 119.404 1050.33 457.806
1826 0 104.193 12.4768 1300 121.56 1050.19 457.297
1827 0 106.101 12.4598 1322 126.789 1051.06 456.887
1828 0 108.171 12.887 1394 129.285 1050.33 457.017
1829 0 111.315 12.7206 1416 129.111 1049.68 454.796
1830 0 114.157 13.026 1487 127.543 1049.97 454.159
1831 0 117.292 12.7716 1498 131.585 1049.69 452.272
1832 0 120.207 12.4535 1497 126.387 1048.84 450.663
1833 0 124.262 12.4092 1542 134.322 1049.69 448.265
1834 0 127.445 13.1507 1676 133 1049.64 445.768
1835 0 129.365 13.2802 1718 132.737 1048.7 445.393
1836 0 133.591 13.3167 1779 132.925 1050.01 442.986
1837 0 136.436 13.303 1815 133.221 1048.87 442.073
1838 0 141.425 13.2791 1878 136.625 1048.92 441.183
1839 1 86.3527 9.65807 834 129.162 1048.6 468.994
1840 0 91.1015 10.8999 993 125.863 1049.39 467.839
1841 0 92.0542 11.5041 1059 129.695 1049.79 465.886
1842 0 95.2695 11.6931 1114 124.049 1048.77 464.666
1843 0 97.3386 12.0404 1172 131.779 1050.12 465
1844 0 100.18 12.218 1224 133.722 1049.58 464.07
1845 0 102.252 12.078 1235 137.811 1049.89 461.029
1846 0 105.243 12.5424 1320 130.554 1049.61 459.983
1847 0 108.298 12.6041 1365 135.714 1049.3 458.607
1848 0 110.454 12.2404 1352 140.274 1049.05 456.088
1849 0 112.309 12.8663 1445 136.613 1049.16 453.55
1850 0 115.438 12.8121 1479 137.655 1048.68 451.953
1851 0 117.324 12.9726 1522 142.673 1049.3 449.83
1852 0 120.526 12.794 1542 144.532 1048.97 448.51
1853 0 123.47 12.8533 1587 141.615 1049.09 449.272
1854 0 125.61 12.8175 1610 147.786 1048.24 447.566
1855 0 129.343 12.9191 1671 147.234 1049.09 443.985
1856 0 131.362 12.6749 1665 150.447 1048.36 442.68
1857 0 136.519 12.8993 1761 154.566 1048.86 440.972
1858 0 139.474 13.1853 1839 145.945 1048.45 440.01
1859 0 145.294 12.9944 1888 150.865 1048.62 437.206
1860 0 149.412 13.0378 1948 151.42 1049.18 434.247
1861 0 154.255 12.8813 1987 152.913 1049.04 432.127
1862 1 92.1859 10.6415 981 145.155 1049.19 465.943
1863 0 97.1586 11.0747 1076 139.622 1050.68 463.336
1864 0 100.108 11.6574 1167 141.822 1050.08 461.595
1865 0 103.227 11.6152 1199 143.206 1049.9 458.899
1866 0 107.147 11.5356 1236 141.597 1049.39 457.093
1867 0 108.284 12.0055 1300 141.348 1049.79 455.47
1868 0 111.314 12.2806 1367 142.114 1049.41 453.006
1869 0 114.168 12.21 1394 141.906 1049.45 450.818
1870 0 117.317 12.0613 1415 147.069 1049.97 450.109
1871 0 121.205 12.153 1473 145.119 1050.05 447.138
1872 0 124.347 12.4409 1547 143.617 1050.5 444.173
1873 0 127.321 12.221 1556 141.539 1050.25 443.445
1874 0 130.297 12.272 1599 143.916 1050.87 441.986
1875 0 133.348 12.2012 1627 147.116 1050.39 440.235
1876 0 137.304 12.0973 1661 148.699 1050.24 436.642
1877 0 141.313 12.7589 1803 145.48 1050.29 436.236
1878 0 146.338 12.8675 1883 144.9 1050.52 432.464
1879 0 151.318 12.8405 1943 151.176 1050.87 428.868
1880 0 155.379 12.7173 1976 155.046 1051.43 427.895
1881 0 157.362 12.9955 2045 158.237 1051.72 425.528
1882 0 161.194 13.158 2121 159.601 1052.11 423.745
1883 0 165.354 12.7847 2114 158.519 1052.12 419.044
1884 0 171.346 13.2481 2270 154.215 1051.45 417.545
1885 0 177.3 12.7016 2252 157.183 1051.79 415.669
1886 0 180.337 12.8926 2325 164.426 1052.86 412.462
1887 0 185.437 13.1419 2437 164.334 1052.69 408
1888 0 192.352 13.1478 2529 158.606 1053.12 405.668
1889 0 197.437 13.1434 2595 157.515 1053.03 401.857
1890 0 202.376 13.9197 2817 153.936 1053.59 399.727
1891 0 210.503 13.4345 2828 155.738 1053.59 396.858
1892 0 214.39 13.9699 2995 159.563 1053.94 391.326
1893 0 223.53 14.1547 3164 158.01 1054.07 387.274
1894 0 230.402 14.1882 3269 153 1054.43 385.508
1895 1 167.425 11.665 1953 160.895 1054.25 420.647
1896 0 172.366 12.2472 2111 158.054 1053.6 418.213
1897 0 179.465 12.6264 2266 153.661 1054.41 412.549
1898 0 184.545 12.4414 2296 160.725 1054.14 409.999
1899 0 191.617 12.7181 2437 157.034 1054.28 405.255
1900 0 199.508 12.591 2512 160.751 1054.2 406.163
1901 0 206.431 12.842 2651 160.691 1054.3 401.009
1902 0 212.504 12.5598 2669 155.771 1054.6 398.423
1903 0 218.442 13.0424 2849 152.545 1054.11 396.307
1904 0 225.301 12.8983 2906 157.507 1053.59 392.212
1905 0 231.359 13.0447 3018 155.221 1053.67 389.212
1906 0 239.516 12.9887 3111 155.532 1053.33 384.365
1907 0 248.64 13.0872 3254 160.935 1053.07 380.814
1908 0 254.597 13.3348 3395 159.107 1053.31 378.648
1909 0 263.587 13.21 3482 156.586 1053.75 372.909
1910 1 204.504 12.1514 2485 163.567 1052.98 404.935
1911 0 210.458 12.8386 2702 161.712 1053.55 400.261
1912 0 218.385 13.2426 2892 163.299 1053.43 394.659
1913 0 223.696 13.4603 3011 158.128 1053.51 394.786
1914 0 227.553 13.1354 2989 155.909 1052.99 390.975
1915 0 233.514 13.5709 3169 158.644 1052.84 388.049
1916 0 241.451 13.5183 3264 166.642 1052.58 382.948
1917 0 250.588 13.4284 3365 159.869 1052.37 379.64
1918 0 258.453 13.782 3562 159.338 1052.28 376.48
1919 0 266.438 13.0687 3482 165.146 1052.58 372.41
1920 0 273.557 14.9292 4084 153.736 1053.24 363.212
1921 1 73.11 9.10956 666 139.152 1052.72 475.222
1922 0 74.0729 9.62565 713 138.359 1052.38 473.71
1923 0 74.2925 9.38184 697 134.578 1049.91 468.481
1924 0 78.2788 10.6414 833 138.597 1050.41 469.461
1925 0 78.2705 10.9364 856 141.372 1049.63 470.361
1926 0 81.3578 11.0623 900 134.927 1049.52 468.822
1927 0 82.1571 11.3319 931 136.796 1049.57 467.475
1928 0 85.1712 11.3536 967 136.493 1050.07 466.821
1929 0 88.263 12.644 1116 136.665 1050.81 464.323
1930 0 90.2854 12.0728 1090 141.814 1049.69 464.432
1931 0 92.2241 11.7431 1083 148.431 1049.65 464.56
1932 0 92.1948 11.8879 1096 143.264 1050.28 463.38
1933 0 92.24 11.7845 1087 151.333 1050.57 463.738
1934 0 95.2518 11.7163 1116 146.037 1050.7 463.509
1935 0 99.4404 11.6552 1159 147.921 1050.72 461.832
1936 0 100.268 11.7386 1177 144.091 1050.91 458.933
1937 0 102.476 12.1102 1241 150.093 1050.36 458.926
1938 0 105.362 12.0063 1265 145.245 1050 459.122
1939 0 108.514 12.2104 1325 152.174 1049.97 456.92
1940 0 109.309 12.2862 1343 146.322 1049.69 454.675
1941 0 113.222 12.5329 1419 156.448 1050.58 453.781
1942 0 115.332 13.5261 1560 152.571 1051.06 450.589
1943 0 117.443 12.7467 1497 151.329 1050.77 450.631
1944 0 125.404 13.8114 1732 145.984 1050.78 447.633
1945 0 124.352 13.2849 1652 155.416 1050.62 446.744
1946 0 133.33 15.1803 2024 144.597 1051.66 441.251
1947 0 129.359 13.1494 1701 159.209 1050.18 445.168
1948 0 134.28 13.1144 1761 160.914 1049.97 443.439
1949 0 137.219 13.6497 1873 154.495 1049.05 440.216
1950 0 141.317 13.084 1849 155.174 1049.85 439.473
1951 0 145.37 13.187 1917 160.065 1049.43 437.627
1952 0 149.376 13.5163 2019 163.423 1049.84 434.121
1953 0 150.451 12.9743 1952 157.647 1049.71 431.321
1954 1 94.2501 10.7904 1017 150.584 1049.7 460.517
1955 0 96.2484 11.3664 1094 160.429 1049.67 459.333
1956 0 98.1968 11.3446 1114 151.689 1050.36 457.61
1957 0 101.247 11.4472 1159 150.544 1049.47 456.643
1958 0 104.167 11.4144 1189 153.203 1048.7 455.564
1959 0 104.188 12.0168 1252 156.761 1048.46 454.894
1960 0 107.191 11.82 1267 156.952 1048.85 452.957
1961 0 112.308 12.4212 1395 159.91 1049.03 454.967
1962 0 115.381 12.2637 1415 154.765 1049.17 452.383
1963 0 119.378 12.3306 1472 152.463 1049.46 450.366
1964 0 120.337 12.6478 1522 156.693 1049.51 448.157
1965 0 125.285 12.707 1592 158.067 1048.99 445.081
1966 0 129.278 12.5544 1623 156.384 1048.63 444.221
1967 0 133.239 12.5113 1667 159.159 1049.73 442.478
1968 0 134.38 12.5019 1680 146.464 1049.21 439.745
1969 0 139.398 12.5755 1753 158.408 1049.86 439.052
1970 0 143.581 12.5504 1802 158.902 1049.1 437.188
1971 1 82.3215 10.3618 853 148.355 1048.83 467.54
1972 0 84.1243 10.9837 924 156.09 1049.07 467.439
1973 0 86.2073 11.6927 1008 151.164 1049.24 465.938
1974 0 90.1448 11.6368 1049 145.972 1049.23 465.49
1975 0 90.098 11.5319 1039 145.834 1049.23 464.589
1976 0 93.165 11.7963 1099 141.057 1049.7 462.762
1977 0 95.2297 11.7505 1119 154.138 1049.96 461.379
1978 0 99.3236 11.83 1175 148.818 1050.08 459.857
1979 0 101.297 12.103 1226 143.825 1050.39 458.356
1980 0 104.259 11.7784 1228 147.735 1050.42 456.576
1981 0 105.21 11.805 1242 149.981 1049.97 454.323
1982 0 108.197 12.2 1320 149.471 1050.63 454.033
1983 0 111.331 11.8925 1324 149.378 1049.96 452.259
1984 0 114.174 11.9642 1366 150.033 1050.76 449.9
1985 0 117.362 12.9684 1522 9.70434 1051.23 448.527
1986 0 120.293 12.5943 1515 153.883 1050.54 447.649
1987 0 124.354 12.4081 1543 157.106 1050.7 445.855
1988 0 125.359 12.8909 1616 151.73 1051.61 445.029
1989 0 127.45 12.8286 1635 154.386 1052.01 443.513
1990 0 132.526 13.0163 1725 144.765 1051.98 440.875
1991 0 135.291 12.972 1755 155.22 1052.36 438.825
1992 0 139.507 13.1749 1838 157.113 1052.23 435.609
1993 0 140.466 13.2843 1866 162.564 1052.44 434.198
1994 0 144.466 13.3041 1922 162.693 1053 433.697
1995 0 149.685 12.7134 1903 140.131 1053.25 429.002
1996 0 154.467 13.4721 2081 159.092 1052.86 428.095
1997 1 96.2264 10.7455 1034 149.073 1052.64 460.3
1998 0 98.1244 11.3224 1111 147.806 1053.2 459.179
1999 0 99.18 11.7362 1164 144.644 1053.15 457.143
2000 0 101.186 11.6913 1183 140.401 1053.69 455.812
2001 0 106.334 11.6801 1242 149.058 1053.62 455.398
2002 0 108.214 11.3941 1233 149.024 1052.65 452.103
2003 0 112.399 12.073 1357 146.93 1053.19 450.836
2004 0 115.302 12.4802 1439 141.406 1052.52 448.959
2005 0 117.457 12.4642 1464 148.613 1052.6 448.574
2006 0 121.309 12.3322 1496 145.184 1052.22 446.69
2007 0 122.388 12.7219 1557 148.264 1053.06 445.353
2008 0 127.364 12.5075 1593 152.103 1053.12 443.312
2009 0 129.366 12.4222 1607 147.049 1052.97 442.104
2010 0 133.412 12.5401 1673 151.969 1053.09 440.307
2011 0 137.398 12.6276 1735 148.291 1053.2 438.079
2012 0 138.358 12.988 1797 143.669 1053.05 435.912
2013 0 142.303 12.5507 1786 148.589 1053.26 434.228
2014 0 145.299 12.4296 1806 150.644 1052.45 432.582
2015 0 149.373 12.7265 1901 152.219 1052.97 431.471
2016 0 154.444 12.5806 1943 156.42 1052.67 428.447
2017 0 158.415 12.947 2051 147.075 1052.94 425.192
2018 0 164.196 13.0637 2145 153.126 1052.41 424.07
2019 0 168.469 13.2903 2239 151.604 1052.44 423.239
2020 0 171.321 13.0574 2237 142.025 1052.05 421.103
2021 0 176.362 13.3419 2353 152.902 1052.2 417.702
2022 0 183.318 13.2993 2438 151.151 1052.72 414.887
2023 0 188.414 13.6614 2574 154.307 1052.85 412.112
2024 0 192.392 13.4725 2592 159.166 1051.98 409.11
2025 0 198.453 13.6657 2712 152.205 1051.33 406.296
2026 0 202.399 13.5031 2733 151.426 1051.56 404.799
2027 0 209.336 13.9441 2919 150.577 1052.42 400.743
2028 0 217.34 14.5302 3158 151.758 1052.46 397.503
2029 0 221.574 14.5324 3220 160.411 1052.68 395.652
2030 0 223.581 14.1381 3161 155.625 1051.33 392.642
2031 0 231.521 14.0592 3255 157.901 1052.45 389.305
2032 0 239.567 14.3884 3447 161.015 1051.85 386.243
2033 0 249.596 14.1308 3527 160.745 1051.78 380.535
2034 1 64.256 9.36877 602 134.947 1051.25 477.6
2035 0 66.285 9.57985 635 140.211 1051.45 476.625
2036 0 65.13 9.85721 642 133.96 1049.78 478.179
2037 0 66.1392 10.3872 687 128.083 1048.8 477.457
2038 0 69.0562 10.0932 697 135.468 1049.25 475.907
2039 0 70.1639 10.3472 726 139.832 1049.7 474.917
2040 0 71.0584 10.3858 738 136.591 1049.98 474.11
2041 0 73.1795 10.3308 756 131.563 1049.2 473.796
2042 0 74.0953 10.392 770 139.516 1049.68 473.358
2043 0 77.1283 10.6446 821 134.738 1049.68 472.343
2044 0 77.2766 10.4042 804 140.512 1050.06 471.112
2045 0 80.1353 10.8192 867 136.343 1050.18 469.642
2046 0 82.1202 10.582 869 140.885 1050.45 469.746
2047 0 85.3424 10.7684 919 139.787 1050.77 467.138
2048 0 85.2831 10.6352 907 133.853 1050.95 467.383
2049 0 87.1181 10.8129 942 139.401 1050.62 465.498
2050 0 89.2247 10.7145 956 140.378 1051.08 465.66
2051 0 91.3059 11.2917 1031 139.271 1051.04 464.37
2052 0 94.1695 12.0634 1136 137.014 1051.46 461.54
2053 0 97.4072 11.3749 1108 146.988 1050.01 459.587
2054 0 99.4288 11.6164 1155 150.33 1050.13 459.767
2055 0 102.336 11.4134 1168 144.006 1049.56 458.097
2056 0 102.271 11.7237 1199 145.649 1049.32 459.254
2057 0 106.521 11.8005 1257 144.952 1049.52 457.091
2058 0 108.384 11.8376 1283 150.107 1049.59 456.393
2059 0 110.474 12.3378 1363 146.58 1049.74 455.04
2060 0 113.511 12.5275 1422 146.984 1049.47 453.067
2061 0 117.579 12.1621 1430 143.848 1049.6 451.328
2062 0 119.415 12.1676 1453 145.579 1049.84 450.45
2063 1 71.3417 9.78389 698 146.245 1049.33 475.98
2064 0 74.3363 10.3583 770 145.138 1049.44 472.013
2065 0 72.1798 10.1829 735 141.503 1049.24 468.984
2066 0 74.1763 10.8121 802 138.919 1048.71 469.44
2067 0 75.1432 10.9391 822 140.282 1048.36 467.945
2068 0 77.0718 10.847 836 140.219 1048.92 465.688
2069 0 80.113 10.972 879 141.066 1049.46 466.19
2070 0 80.1695 11.5505 926 141.23 1048.77 465.265
2071 0 83.1819 11.2524 936 145.92 1049.08 464.625
2072 0 85.2052 11.4782 978 147.675 1049.82 467.588
2073 0 87.1109 11.7092 1020 147.354 1049.36 466.399
2074 0 88.1732 12.3393 1088 152.654 1049.48 464.829
2075 0 91.1242 11.6325 1060 147.345 1049.86 463.867
2076 0 92.2349 12.414 1145 149.513 1050.32 462.375
2077 0 93.1609 12.0007 1118 152.057 1050.59 461.634
2078 0 98.1921 13.5551 1331 144.575 1050.16 457.712
2079 0 99.18 12.3916 1229 139.821 1050.84 458.307
2080 0 101.137 12.2803 1242 147.158 1051.35 458.406
2081 0 103.321 12.2918 1270 147.983 1051.81 456.246
2082 0 105.426 12.0653 1272 142.365 1051.67 454.846
2083 0 108.374 12.1616 1318 139.916 1051.38 449.674
2084 0 111.444 12.5803 1402 147.263 1051.25 449.337
2085 0 112.402 13.1315 1476 135.425 1051.72 447.088
2086 0 115.393 12.2885 1418 142.189 1051.79 447.016
2087 0 118.333 12.6846 1501 146.538 1051.96 443.045
2088 0 122.376 12.8702 1575 149.066 1052.44 442.439
2089 1 70.1175 8.92787 626 147.784 1052.78 466.867
2090 0 73.1826 9.00487 659 143.308 1053.09 466.174
2091 0 75.1148 9.89153 743 142.232 1053.16 466.346
2092 0 78.1378 10.5327 823 140.149 1053.11 464.452
2093 0 82.2152 11.5307 948 143.773 1051.95 466.324
2094 0 82.197 11.6914 961 138.784 1052.35 466.116
2095 0 84.1846 12.0212 1012 141.46 1051.63 465.017
2096 0 87.1018 12.0434 1049 142.549 1051.66 463.981
2097 0 89.1836 11.852 1057 144.87 1052.27 462.229
2098 0 92.1601 12.0226 1108 140.214 1052.88 461.137
2099 0 94.1543 12.1715 1146 145.936 1053.49 459.449
2100 0 97.2387 11.878 1155 136.723 1053.52 458.962
2101 0 100.222 12.1829 1221 141.522 1053.43 457.425
2102 0 102.29 12.5623 1285 146.51 1053.52 455.612
2103 0 107.245 12.3176 1321 142.627 1053.92 452.696
2104 0 109.257 12.2921 1343 146.103 1053.67 452.647
2105 0 111.282 12.4368 1384 149.566 1053.91 450.743
2106 0 114.393 12.2822 1405 145.737 1054.13 449.522
2107 0 117.202 13.0458 1529 145.592 1054.3 445.846
2108 0 120.227 13.0337 1567 151.352 1053.78 444.788
2109 0 124.263 12.4494 1547 153.937 1054.06 441.902
2110 0 128.514 12.6678 1628 150.192 1054.19 439.856
2111 0 133.343 12.779 1704 152.035 1054.12 438.621
2112 0 135.279 13.3059 1800 157.504 1053.93 436.402
2113 0 140.43 13.1239 1843 155.135 1053.88 434.604
2114 0 143.276 13.3169 1908 157.612 1054.05 432.429
2115 0 146.335 13.2162 1934 158.109 1053.82 431.12
2116 0 152.51 13.009 1984 154.21 1053.8 429.61
2117 0 157.33 12.9664 2040 159.094 1053.89 427.528
2118 0 162.295 12.7422 2068 149.208 1053.39 425.574
2119 0 166.442 13.2899 2212 155.209 1053.67 423.154
2120 0 170.478 12.9929 2215 153.046 1053.96 420.209
2121 0 176.323 13.1406 2317 161.551 1053.54 418.316
2122 1 104.217 11.0443 1151 149.087 1053.09 456.427
2123 0 105.275 11.3607 1196 150.219 1053.33 454.167
2124 0 108.396 11.6794 1266 149.67 1053.62 452.268
2125 0 112.309 12.1985 1370 147.959 1053.56 449.818
2126 0 116.242 11.932 1387 145.058 1053.57 447.236
2127 0 120.374 12.1454 1462 140.411 1053.58 446.282
2128 0 122.372 12.176 1490 151.007 1053.54 445.607
2129 0 123.344 12.3395 1522 154.233 1053.75 444.825
2130 0 125.4 12.2887 1541 146.693 1054.12 441.693
2131 0 130.391 12.3705 1613 147.968 1054.41 441.588
2132 0 132.409 12.2349 1620 143.672 1054.12 438.54
2133 0 135.498 12.6644 1716 148.55 1054.1 436.343
2134 0 141.365 12.252 1732 152.258 1054.17 435.691
2135 0 143.388 12.5952 1806 153.592 1053.75 433.073
2136 0 146.361 12.7356 1864 153.435 1054.16 431.312
2137 0 149.493 12.6026 1884 152.376 1053.38 428.353
2138 0 153.354 13.2047 2025 154.661 1053.98 426.358
2139 0 158.566 13.0735 2073 155.043 1054.32 424.379
2140 0 163.404 13.1025 2141 159.527 1053.96 422.56
2141 0 166.427 13.3212 2217 160.514 1053.34 420.9
2142 0 170.49 13.5492 2310 158.319 1053.23 417.56
2143 0 174.386 13.2064 2303 160.456 1053.93 415.019
2144 0 178.324 13.1671 2348 153.949 1053.9 411.911
2145 0 184.516 13.3322 2460 163.702 1054.17 410.494
2146 0 189.409 13.3785 2534 159.689 1053.88 406.688
2147 0 193.403 13.5313 2617 163.117 1053.98 405.767
2148 0 198.587 13.3443 2650 156.655 1053.24 402.029
2149 0 205.528 13.5018 2775 160.671 1053.43 397.661
2150 0 209.329 13.5576 2838 158.504 1052.63 395.258
2151 0 215.54 13.4824 2906 162.224 1053.29 394.295
2152 0 219.491 13.5815 2981 160.017 1053.23 389.033
2153 0 226.573 13.8764 3144 156.578 1053.29 386.135
2154 0 233.413 14.0909 3289 160.686 1053.97 382.306
2155 0 240.306 14.2651 3428 161.837 1053.96 378.639
2156 0 249.419 14.1689 3534 163.536 1053.33 375.558
2157 1 63.1677 8.01042 506 137.87 1052.52 472.619
2158 0 64.0615 8.66354 555 135.231 1051.58 472.335
2159 0 65.0531 9.77663 636 131.953 1052.34 472.211
2160 0 66.0972 10.1215 669 136.764 1051.96 471.602
2161 0 70.0755 10.2176 716 135.434 1051.71 471.419
2162 0 72.1085 9.98496 720 142.185 1051.44 469.582
2163 0 72.1205 10.635 767 139.272 1050.12 468.284
2164 0 75.06 10.4317 783 137.019 1051 468.411
2165 0 79.0667 10.4089 823 139.004 1050.43 466.654
2166 0 80.1064 10.9854 880 140.484 1050.49 465.336
2167 0 80.0536 10.9676 878 130.188 1050.41 463.206
2168 0 87.1022 10.6656 929 137.666 1050.41 463.243
2169 0 88.1536 10.9241 963 144.154 1050.92 463.066
2170 0 89.136 10.8262 965 139.651 1051.18 461.255
2171 0 92.1542 11.4591 1056 135.115 1050.95 458.649
2172 0 93.3192 12.1411 1133 129.427 1050.98 426.494
2173 0 96.3043 12.419 1196 135.208 1050.74 419.396
2174 0 99.263 13.0059 1291 133.928 1050.76 420.797
2175 0 100.409 13.226 1328 132.559 1051.84 418.265
2176 0 103.347 13.5272 1398 147.986 1051.52 420.262
2177 0 107.475 14.0684 1512 140.272 1050.94 419.645
2178 0 108.285 13.5199 1464 147.995 1050.7 417.068
2179 0 111.437 13.5502 1510 152.322 1050.66 415.652
2180 0 115.433 13.6789 1579 154.512 1050.95 414.87
2181 0 119.46 13.5777 1622 150.927 1050.99 415.075
2182 0 120.346 14.1093 1698 154.826 1050.64 415.651
2183 0 124.333 14.3003 1778 152.959 1051.12 416.665
2184 0 125.321 13.9642 1750 150.778 1050.65 417.442
2185 0 130.404 14.0487 1832 152.513 1051.54 417.721
2186 0 133.527 14.3341 1914 154.021 1051.76 416.72
2187 0 135.364 14.5386 1968 152.212 1051.02 415.402
2188 0 140.348 14.2503 2000 152.992 1051.48 415.244
2189 0 144.25 14.2461 2055 144.934 1051.23 411.957
2190 0 147.432 14.1353 2084 158.027 1050.81 409.415
2191 0 152.294 14.761 2248 155.79 1050.51 406.969
2192 1 89.1138 11.3226 1009 159.049 1049.04 446.123
2193 0 89.1575 12.0573 1075 154.259 1050.25 446.119
2194 0 92.0662 12.0565 1110 150.117 1052.25 448.479
2195 0 96.327 12.5406 1208 155.899 1052.11 451.748
2196 0 98.1112 11.9864 1176 150.82 1051.25 452.602
2197 0 99.2556 12.0296 1194 148.953 1051.6 454.39
2198 0 101.212 12.212 1236 155.594 1051.47 456.842
2199 0 104.106 12.6409 1316 154.614 1051.48 456.046
2200 0 107.183 12.1381 1301 157.355 1051.85 454.101
2201 0 107.251 12.6805 1360 155.812 1051.2 449.818
2202 0 109.103 12.6852 1384 158.904 1051.73 450.558
2203 0 113.242 12.4866 1414 160.105 1051.08 449.185
2204 0 115.139 12.8106 1475 157.845 1050.58 446.574
2205 0 119.135 13.3294 1588 155.135 1050.82 445.492
2206 0 120.218 12.8683 1547 159.356 1050.7 443.735
2207 0 124.268 13.1249 1631 158.485 1051.33 441.9
2208 0 126.115 13.2023 1665 161.077 1051.09 440.784
2209 0 132.285 13.1988 1746 159.964 1051.47 437.694
2210 0 134.205 12.8312 1722 156.513 1051.4 435.293
2211 0 139.28 13.6415 1900 153.312 1051.77 433.305
2212 0 143.392 13.5782 1947 160.781 1052.13 430.207
2213 0 147.432 13.5181 1993 157.271 1051.62 426.908
2214 0 152.353 13.449 2049 155.37 1051.95 423.581
2215 0 156.259 13.7144 2143 150.868 1051.81 422.556
2216 0 162.48 13.4971 2193 157.499 1051.95 420.6
2217 1 99.2213 11.167 1108 149.605 1052.8 454.44
2218 0 102.249 11.8535 1212 152.903 1052.86 451.634
2219 0 103.154 11.9918 1237 150.605 1053.05 449.829
2220 0 107.124 11.7528 1259 157.849 1052.98 448.671
2221 0 111.213 11.9591 1330 151.215 1053.77 446.638
2222 0 114.141 12.1691 1389 153.12 1053.57 444.796
2223 0 116.229 11.8903 1382 152.822 1053.75 443.259
2224 0 120.189 12.2973 1478 150.315 1054.01 441.15
2225 0 122.187 12.62 1542 152.06 1054.01 440.796
2226 0 126.136 12.7006 1602 155.804 1053.66 438.554
2227 0 129.213 12.5606 1623 152.758 1053.97 438.156
2228 0 132.196 12.8748 1702 154.364 1053.97 434.908
2229 0 137.262 12.7566 1751 155.533 1054.05 433.89
2230 0 141.394 12.886 1822 158.367 1053.5 431.771
2231 0 146.325 12.7866 1871 149.049 1053.85 428.802
2232 0 148.347 12.9022 1914 157.178 1053.38 426.744
2233 0 155.437 12.9506 2013 157.056 1053.54 423.992
2234 0 160.257 12.6984 2035 155.907 1053.8 423.962
2235 0 166.328 12.8 2129 155.048 1053.16 420.628
2236 1 100.256 11.5305 1156 152.312 1053.08 453.297
2237 0 106.323 11.8506 1260 155.615 1053.86 454.92
2238 0 106.277 12.505 1329 155.305 1054.72 452.564
2239 0 112.284 12.317 1383 154.886 1054.32 451.493
2240 0 114.293 12.6517 1446 151.397 1053.93 450.547
2241 0 118.392 12.5515 1486 149.294 1054.55 448.141
2242 0 120.325 12.2169 1470 154.901 1053.98 447.05
2243 0 124.352 12.8989 1604 160.908 1054.09 443.672
2244 0 128.361 12.7998 1643 151.347 1053.5 441.337
2245 0 133.432 13.2127 1763 156.723 1054.83 439.023
2246 0 136.425 13.5166 1844 158.312 1054.79 436.731
2247 0 138.471 13.1796 1825 157.824 1054.07 435.262
2248 0 143.402 13.1658 1888 152.833 1054.45 433.931
2249 0 148.633 12.9379 1923 155.703 1053.37 430.644
2250 0 154.296 13.7852 2127 155.185 1052.98 427.322
2251 0 158.374 13.626 2158 150.067 1053.24 427.031
2252 0 163.437 13.571 2218 160.901 1053.22 423.717
2253 0 167.353 13.4208 2246 161.368 1053.5 419.107
2254 0 172.521 13.3375 2301 153.981 1053.37 415.591
2255 1 105.383 11.2352 1184 139.693 1052.74 451.162
2256 0 108.365 11.7104 1269 156.054 1053.56 450.209
2257 0 112.285 11.827 1328 143.968 1051.91 451.243
2258 0 115.219 11.8383 1364 147.364 1052.15 447.356
2259 0 119.435 11.8725 1418 152.852 1052.42 447.049
2260 0 122.321 12.042 1473 144.881 1052.22 444.471
2261 0 124.402 12.5802 1565 139.649 1052.25 443.78
2262 0 128.419 12.3658 1588 145.118 1051.64 440.012
2263 0 130.392 12.8536 1676 141.271 1051.19 439.999
2264 0 134.567 12.8115 1724 138.081 1051.26 436.735
2265 0 136.521 13.1042 1789 140.936 1051.6 434.932
2266 0 138.513 13.0385 1806 144.535 1051.37 433.507
2267 0 143.535 13.1118 1882 139.037 1050.43 430.454
2268 0 148.504 13.5686 2015 124.664 1051.52 428.727
2269 0 151.534 13.2842 2013 128.997 1051.63 428.043
2270 0 156.396 13.1141 2051 130.396 1050.69 425.704
2271 0 160.568 13.3962 2151 124.587 1049.98 422.971
2272 0 160.568 13.3962 2151 160.028 1050.98 422.971
2273 0 168.446 13.4583 2267 143.179 1050.32 419.17
2274 0 174.373 13.2245 2306 135.65 1050.64 416.775
2275 0 179.514 12.9405 2323 141.83 1050.55 413.199
2276 0 185.404 13.3654 2478 138.372 1050.98 411.017
2277 0 191.4 13.349 2555 141.624 1050.46 408.061
2278 0 196.5 13.5675 2666 137.808 1050.36 406.408
2279 0 202.707 13.7243 2782 137.6 1049.52 402.968
2280 0 204.669 13.8028 2825 135.714 1048.91 399.06
2281 0 212.614 13.8514 2945 140.034 1050.21 395.881
2282 0 217.652 13.5859 2957 151.138 1050.45 394.52
2283 0 223.727 13.4048 2999 141.701 1050.66 390.812
2284 0 229.612 13.697 3145 141.314 1050.49 386.569
2285 0 236.762 13.5452 3207 137.377 1051.07 384.012
2286 1 168.281 11.9681 2014 154.695 1051.65 419.129
2287 0 175.378 12.6812 2224 160.736 1051.97 416.348
2288 0 179.328 12.6919 2276 162.576 1051.46 413.545
2289 0 182.418 12.9811 2368 161.813 1050.8 409.962
2290 0 189.457 13.412 2541 154.38 1050.87 408.077
2291 0 197.398 12.8522 2537 164.861 1052 404.182
2292 0 200.331 13.0235 2609 161.111 1051.13 402.467
2293 0 208.276 13.2228 2754 160.881 1051.38 398.918
2294 0 214.293 13.1082 2809 153.494 1051.5 393.809
2295 0 220.465 12.959 2857 151.831 1051.04 391.426
2296 0 227.521 13.3614 3040 153.658 1050.63 389.41
2297 0 234.485 13.7152 3216 150.456 1051.23 383.618
2298 0 239.641 13.3324 3195 162.939 1051.74 379.962
2299 0 248.683 13.1654 3274 117.502 1051.14 377.115
2300 0 254.51 13.5594 3451 162.842 1051.31 371.542
2301 1 63.375 5.91716 375 129.555 1050.04 474.467
2302 0 70.178 8.90592 625 129.987 1049.39 473.883
2303 0 70.0999 9.77177 685 130.219 1049 474.199
2304 0 71.146 10.3309 735 127.396 1049.18 472.112
2305 0 72.2897 10.5686 764 134.726 1050.47 472.114
2306 0 75.3473 10.4582 788 132.541 1050.66 470.555
2307 0 76.2421 10.4273 795 138.03 1050.82 469.073
2308 0 78.2356 10.5706 827 135.681 1051.07 467.105
2309 0 81.3334 10.6475 866 134.35 1051.23 465.594
2310 0 83.2052 11.2253 934 131.639 1052.17 463.76
2311 0 84.1793 11.3092 952 134.84 1051.72 462.289
2312 0 87.1865 11.0224 961 136.175 1051.85 462.098
2313 0 87.1495 11.5893 1010 132.8 1052.03 461.198
2314 0 91.29 11.5347 1053 130.444 1052.65 459.676
2315 0 93.1378 11.542 1075 131.835 1053.1 457.166
2316 0 96.1207 11.6 1115 134.648 1053.07 456.366
2317 0 98.0786 11.1951 1098 132.685 1053.2 454.356
2318 0 98.3622 11.0612 1088 136.135 1053.72 450.714
2319 0 102.341 11.2271 1149 133.191 1053.81 450.259
2320 0 104.177 11.6148 1210 123.971 1053.58 447.364
2321 0 104.416 11.6744 1219 135.801 1054.12 446.264
2322 0 106.267 11.7534 1249 133.661 1052.93 448.15
2323 0 109.435 11.9523 1308 135.649 1052.95 445.891
2324 0 112.304 12.11 1360 135.204 1053.56 444.998
2325 0 115.286 11.8054 1361 130.797 1054.34 443.098
2326 0 117.45 12.2435 1438 137.985 1054.49 442.724
2327 0 119.623 12.0462 1441 137.269 1055.25 439.781
2328 0 122.467 12.1175 1484 134.964 1054.58 439.888
2329 0 126.362 12.5908 1591 142.26 1054.87 439.797
2330 0 128.361 13.0647 1677 139.086 1054.55 438.55
2331 0 131.404 12.8687 1691 148.923 1054.6 438.691
2332 0 134.262 12.9821 1743 140.988 1054.41 436.861
2333 0 137.413 13.0482 1793 148.031 1054.54 435.443
2334 0 141.346 13.1945 1865 143.397 1054.66 432.961
2335 0 142.434 12.9955 1851 146.755 1054.16 432.448
2336 0 145.51 13.4012 1950 148.384 1054.17 431.167
2337 0 149.403 13.0118 1944 143.691 1054.51 428.113
2338 0 154.441 13.6039 2101 145.803 1054.6 426.117
2339 0 154.441 13.6039 2101 158.531 1054.6 426.117
2340 0 163.408 13.4204 2193 142.712 1054.74 421.465
2341 0 167.702 13.2974 2230 145.216 1055.15 419.987
2342 1 103.437 10.7989 1117 144.433 1054.82 452.739
2343 0 104.404 11.7236 1224 137.661 1054.87 451.825
2344 0 107.527 11.718 1260 143.159 1055.37 449.384
2345 0 110.533 12.0235 1329 135.889 1055.48 448.626
2346 0 112.589 11.9639 1347 132.745 1055.51 446.69
2347 0 116.754 12.2052 1425 134.662 1055.07 443.904
2348 0 118.697 12.4435 1477 136.665 1054.87 440.716
2349 0 120.763 11.9241 1440 139.056 1054.48 440.174
2350 0 122.61 12.4623 1528 137.664 1054.8 440.054
2351 0 125.788 12.5767 1582 144.544 1054.71 439.139
2352 0 128.627 12.5402 1613 145.312 1054.9 438.428
2353 0 130.735 12.5674 1643 148.191 1054.51 436.807
2354 0 133.591 13.1745 1760 141.244 1054.21 434.62
2355 0 139.654 12.9893 1814 147.331 1054.39 432.429
2356 0 142.729 12.6954 1812 148.531 1054.15 429.992
2357 0 146.61 13.2119 1937 142.663 1054.26 428.389
2358 0 151.627 13.2232 2005 152.847 1054.07 427.733
2359 0 155.595 13.0403 2029 145.229 1053.61 425.761
2360 0 160.613 13.3675 2147 151.681 1053.48 422.467
2361 0 163.466 13.33 2179 148.127 1053.23 421.847
2362 0 168.309 13.2316 2227 151.976 1053.67 418.622
2363 0 174.505 13.3922 2337 150.876 1053.33 416.676
2364 0 177.78 13.6123 2420 148.166 1052.87 413.531
2365 0 183.556 13.6198 2500 150.609 1053.51 411.547
2366 0 188.53 14.1145 2661 149.48 1053.19 409.174
2367 0 192.532 13.6912 2636 151.105 1053.55 407.105
2368 0 198.492 13.9149 2762 153.584 1053.58 404.651
2369 0 201.574 13.9502 2812 141.757 1053.72 401.299
2370 0 209.521 14.2897 2994 148.797 1053.51 400.1
2371 0 212.492 14.2076 3019 147.34 1053.58 396.42
2372 0 219.348 14.3516 3148 155.18 1053.71 393.257
2373 0 225.47 14.2236 3207 155.923 1053.25 389.154
2374 0 233.444 14.1147 3295 155.408 1053.1 385.679
2375 0 241.453 13.8578 3346 155.635 1053.03 382.871
2376 0 247.469 14.321 3544 152.597 1052.83 377.528
2377 0 254.728 14.2387 3627 154.559 1052.94 374.146
2378 1 188.312 12.2563 2308 151.765 1052.56 410.968
2379 0 191.352 12.5319 2398 156.53 1052.53 406.897
2380 0 198.503 12.6295 2507 154.827 1052.83 404.051
2381 0 206.383 13.0049 2684 154.053 1052.57 400.504
2382 0 213.346 12.9039 2753 153.424 1053.12 396.971
2383 0 218.239 13.279 2898 153.148 1052.4 394.853
2384 0 226.294 13.4117 3035 152.766 1053.05 391.16
2385 0 232.356 13.3244 3096 153.38 1052.73 387.168
2386 0 240.671 13.1133 3156 154.573 1052.19 383.554
2387 0 248.693 13.3337 3316 154.328 1052.06 379.925
2388 0 255.661 13.8308 3536 150.892 1052.28 375.641
2389 0 266.212 13.756 3662 156.365 1052.87 371.644
2390 1 190.506 12.2516 2334 151.923 1052.49 412.261
2391 0 195.566 12.3999 2425 149.974 1052.78 408.118
2392 0 199.595 12.5204 2499 147.997 1053.2 405.908
2393 0 205.649 12.6478 2601 153.047 1053.17 403.034
2394 0 211.951 12.4699 2643 152.126 1053.78 398.288
2395 0 218.949 12.9574 2837 150.394 1052.95 395.87
2396 0 223.957 13.0471 2922 154.654 1053.11 390.831
2397 0 230.865 13.2631 3062 155.842 1052.96 387.498
2398 0 237.642 13.1669 3129 152.903 1052.69 382.243
2399 0 244.719 13.2192 3235 156.6 1052.87 379.985
2400 0 251.622 13.1507 3309 155.678 1053.44 376.225
2401 0 259.727 13.364 3471 161.154 1053.22 371.107
2402 0 265.705 13.2591 3523 160.103 1053.67 365.555
2403 0 276.475 13.8457 3828 153.32 1053.71 358.431
2404 1 211.482 11.1924 2367 152.011 1052.7 397.783
2405 0 217.325 11.7842 2561 148.946 1052.6 393.116
2406 0 224.488 12.1521 2728 158.005 1053.17 389.898
2407 0 229.471 12.4243 2851 150.935 1053.33 386.651
2408 0 235.682 12.2029 2876 152.68 1053.11 382.405
2409 0 243.533 12.3105 2998 153.631 1053.24 377.688
2410 0 249.521 12.4879 3116 150.262 1053.28 375.022
2411 0 255.62 12.5108 3198 155.267 1053.26 370.842
2412 0 263.878 12.7066 3353 156.299 1053.05 368.099
2413 0 271.719 13.0871 3556 155.434 1052.49 361.796
2414 0 282.02 12.8821 3633 157.804 1053.13 359.873
2415 0 289.94 15.179 4401 148.382 1053.53 351.668
2416 0 296.952 15.1641 4503 151.289 1053.5 349.689
2417 0 308.009 15.1521 4667 153.467 1053.87 344.734
2418 0 314.205 15.2607 4795 150.253 1053.84 340.369
2419 0 322.163 15.1662 4886 152.278 1054.11 334.393
2420 0 330.775 14.9074 4931 154.681 1054.42 329.052
2421 0 340.874 14.9263 5088 150.054 1054.5 322.634
2422 0 340.994 13.1997 4501 158.851 1055.39 324.783
2423 0 342.87 13.2995 4560 155.857 1055.68 327.111
2424 1 357.959 14.8648 5321 148.226 1055.59 306.235
2425 0 310.882 14.9189 4638 141.169 1056.13 285.34
2426 0 316.886 15.0622 4773 141.871 1056.66 282.08
2427 0 323.895 15.1839 4918 149.46 1056.18 280.343
2428 0 334.442 15.1566 5069 148.617 1055.89 280.34
2429 0 343.353 15.6311 5367 146.725 1055.88 275.675
2430 0 350.413 15.3819 5390 150.063 1055.71 273.712
2431 0 360.096 15.5208 5589 148.471 1055.43 269.721
2432 0 371.153 15.8425 5880 147.729 1055.66 268.683
2433 1 51.6915 6.94504 359 121.68 1055 449.109
2434 0 52.5824 7.66416 403 118.037 1054.7 454.968
2435 0 59.5921 7.33319 437 118.659 1054.78 457.929
2436 0 66.5557 10.9532 729 111.078 1055.79 456.833
2437 0 73.4174 10.9102 801 111.915 1056.09 459.1
2438 0 75.3371 11.1233 838 117.018 1055.4 459.655
2439 0 207.548 14.2521 2958 129.825 1055.48 316.124
2440 0 214.946 14.7665 3174 133.482 1055.96 312.965
2441 0 218.773 14.3071 3130 130.745 1056.13 309.179
2442 0 225.776 14.4347 3259 131.598 1056.42 305.956
2443 0 229.942 14.6254 3363 134.999 1056.15 300.885
2444 0 237.051 14.9209 3537 128.18 1056.18 298.042
2445 0 243.954 14.9291 3642 135.088 1056.34 294.834
2446 0 250.139 14.6438 3663 137.64 1056.28 293.543
2447 0 255.097 14.9394 3811 129.488 1056.65 287.448
2448 0 262.679 14.8508 3901 125.687 1056.75 285.354
2449 0 267.816 15.0887 4041 130.424 1056.44 283.53
2450 0 272.65 15.0559 4105 137.691 1056.29 281.283
2451 0 280.546 14.7284 4132 135.673 1055.67 281.35
2452 0 289.802 14.993 4345 137.909 1055.71 282.44
2453 0 298.597 15.2949 4567 137.186 1055.67 283.446
2454 0 304.996 14.9346 4555 130.672 1055.17 282.975
2455 0 315.224 15.3891 4851 133.504 1055.41 284.281
2456 0 326.36 15.25 4977 137.257 1055.56 283.921
2457 0 336.174 15.1082 5079 137.615 1055.5 282.521
2458 1 151.826 9.36596 1422 125.989 1054.36 395.326
2459 0 155.879 10.9572 1708 129.926 1053.93 401.074
2460 0 158.799 11.0013 1747 131.055 1054.19 402.292
2461 0 164.605 10.9778 1807 132.626 1053.65 402.535
2462 0 166.883 11.0736 1848 134.056 1053.66 408.571
2463 0 173.858 12.746 2216 126.073 1053.68 413.801
2464 0 179.976 12.8684 2316 124.911 1053.63 411.82
2465 0 181.901 11.7152 2131 127.283 1053.26 410.824
2466 1 123.74 9.01889 1116 125.18 1052.8 445.491
2467 0 128.772 10.142 1306 131.748 1052.7 442.934
2468 0 130.661 10.332 1350 130.484 1052.36 438.579
2469 0 133.731 11.538 1543 121.894 1052.72 434.116
2470 0 135.723 11.8551 1609 127.64 1052.43 432.399
2471 0 140.662 11.7302 1650 128.601 1052.25 430.959
2472 0 142.668 11.8737 1694 125.142 1052.48 428.217
2473 0 146.675 11.8493 1738 132.841 1052.76 427.983
2474 0 151.498 11.5579 1751 128.555 1052.4 423.409
2475 0 154.682 12.1928 1886 130.857 1052.1 421.863
2476 0 158.563 12.1718 1930 123.296 1052.47 420.911
2477 0 162.788 12.5317 2040 131.478 1052.55 417.727
2478 0 165.678 12.2406 2028 136.456 1052.34 414.754
2479 0 168.626 12.0622 2034 122.406 1052.21 413.532
2480 0 171.787 11.9567 2054 135.532 1052.59 412.741
2481 0 176.862 12.2977 2175 127.807 1051.93 410.256
2482 0 180.595 12.5363 2264 127.855 1052.32 409.761
2483 0 183.961 12.4755 2295 135.649 1052.65 407.521
2484 0 187.832 12.1758 2287 137.561 1052.84 406.595
2485 0 191.721 12.5964 2415 133.518 1053.06 405.073
2486 0 196.818 12.697 2499 137.661 1053.14 403.181
2487 0 199.847 12.8198 2562 141.189 1052.8 399.14
2488 0 204.567 12.7831 2615 139.478 1053.06 395.206
2489 0 211.761 12.7125 2692 143.426 1053.3 389.472
2490 0 217.754 12.7162 2769 141.577 1053.24 389.036
2491 0 222.634 12.7339 2835 149.531 1053.53 386.293
2492 0 228.767 13.1575 3010 149.398 1054.25 386.783
2493 0 233.643 12.4164 2901 150.222 1054.65 382.984
2494 0 238.595 12.6532 3019 155.535 1053.73 382.848
2495 0 238.595 12.6532 3019 161.161 1052.73 382.848
2496 0 247.053 13.0782 3231 155.592 1054.21 378.538
2497 0 252.826 13.2819 3358 152.603 1054.26 376.684
2498 0 255.945 12.9754 3321 154.932 1053.98 371.166
2499 1 35.0283 9.64935 338 115.66 1055.16 494.805
2500 0 35.0177 9.02402 316 121.722 1054.99 495.351
2501 0 35.0165 9.59548 336 124.062 1054.88 493.908
2502 0 35.0124 9.28244 325 118.338 1054.84 493.895
2503 0 35.0554 9.75599 342 117.009 1055.05 493.886
2504 0 38.0148 9.0491 344 123.003 1055.2 493.709
2505 0 37.0401 9.90818 367 120.177 1055.29 492.692
2506 0 39.0479 9.75725 381 116.745 1055.17 493.234
2507 0 38.0226 9.73106 370 118.068 1055.4 492.581
2508 0 40.0217 9.12006 365 120.493 1054.98 492.701
2509 0 39.0453 10.2189 399 119.957 1054.84 492.922
2510 0 39.0433 9.93767 388 122.25 1055.82 492.345
2511 0 41.0176 9.8738 405 118.896 1055.97 492.896
2512 0 39.0463 10.3979 406 119.845 1055.87 492.581
2513 0 39.0191 10.3539 404 117.829 1056.02 492.928
2514 0 40.0345 10.2911 412 126.847 1055.33 492.478
2515 0 40.0386 11.0394 442 114.491 1055.33 490.925
2516 0 41.0741 10.9071 448 121.73 1055.56 490.862
2517 0 41.0206 10.6776 438 121.744 1055.53 491.121
2518 0 41.026 11.1637 458 119.221 1056.15 490.227
2519 0 41.0101 11.2899 463 121.011 1055.98 491.343
2520 0 42.0675 11.0061 463 119.151 1056.11 490.056
2521 0 42.0383 10.6332 447 122.917 1056.24 490.826
2522 0 42.0181 11.376 478 118.533 1056.15 490.494
2523 0 42.0376 11.2756 474 124.962 1056.01 490.316
2524 0 42.0161 10.972 461 123.306 1055.74 490.095
2525 0 42.0376 10.8474 456 125.82 1056.13 489.309
2526 0 43.0831 11.0948 478 121.596 1056.04 489.586
2527 0 42.0123 10.9968 462 126.602 1056.21 490.318
2528 0 43.0558 11.1483 480 115.308 1056.09 489.538
2529 0 44.1088 10.7462 474 116.728 1056.4 488.962
2530 0 42.0111 11.4732 482 124.768 1055.63 488.106
2531 0 44.0446 10.8753 479 126.015 1055.71 488.651
2532 0 44.0363 10.8093 476 121.242 1055.54 489.09
2533 0 39.7349 9.43754 375 109.475 1053.01 480.995
2534 0 37.6145 9.75688 367 106.338 1052.35 484.627
2535 0 33.4332 10.1994 341 99.4721 1053.76 446.938
2536 0 69.3849 4.56872 317 108.041 1052.39 482.164
2537 1 42.3375 10.6997 453 96.4393 1053.23 480.558
2538 0 42.3611 11.402 483 94.619 1053.43 481.306
2539 1 83.9006 5.39924 453 101.744 1053.36 467.433
2540 0 404.503 14.6847 5940 133.916 1056.8 275.057
2541 1 43.5471 9.52991 415 96.2048 1054.04 478.771
2542 0 45.4994 9.60452 437 101.918 1053.78 478.595
2543 0 43.3697 8.6927 377 102.416 1053.79 478.897
2544 0 377.713 15.0008 5666 136.374 1055.01 257.097
2545 0 369.478 15.124 5588 136.928 1054.65 249.232
2546 1 79.2053 8.28227 656 126.508 1055.24 411.372
2547 0 81.441 9.47925 772 122.347 1054.5 410.67
2548 0 83.3339 9.77993 815 123.915 1054.92 409.59
2549 0 84.6715 10.4522 885 119.293 1055.14 408.698
2550 0 87.5274 10.4424 914 119.257 1054.66 413.053
2551 1 55.4372 7.52203 417 126.35 1054.41 412.54
2552 0 47.3395 4.58391 217 138.982 1054.75 405.53
2553 0 46.657 13.6743 638 72.884 1055.61 476.078
2554 0 45.9119 16.2049 744 64.7944 1056.18 474.233
2555 0 45.9159 17.6192 809 65.1854 1056.51 473.869
2556 0 45.6275 15.4074 703 67.9417 1055.2 475.03
2557 0 46.7817 17.6137 824 65.2949 1056.34 473.41
2558 0 46.2902 12.5512 581 74.148 1054.4 477.255
