time division length width area intensity CMx CMy
0 0 30.052 10.4153 313 56.3323 961.668 517.064
1 0 31.0111 9.99641 310 56.2613 961.942 516.877
2 0 31.0029 11.4828 356 54.7921 961.809 517.037
3 0 32.0123 11.7143 375 54.432 961.853 517.531
4 0 33.023 9.5388 315 56.1238 961.844 517.835
5 0 34.0222 13.2855 452 51.6527 961.739 518.403
6 0 34.0139 11.5247 392 54.9592 960.566 515.781
7 0 34.0547 11.2172 382 55.8089 960.445 514.576
8 0 34.0209 10.9638 373 55.9759 959.539 515.475
9 0 37.0524 12.8197 475 54.0442 960.419 515.728
10 0 37.0554 11.8741 440 55.5545 961.134 518.011
11 0 40.1388 11.7841 473 54.7252 959.877 517.666
12 0 39.1006 11.6878 457 55.5339 960.418 517.685
13 0 39.0368 11.7838 460 55.8348 960.183 515.889
14 0 39.0871 11.1546 436 57.1284 960.06 515.966
15 0 43.0686 13.4204 578 54.2007 959.441 513.734
16 0 42.0649 13.0037 547 55.691 959.578 513.046
17 0 44.1161 11.6964 516 56.3004 959.804 514.643
18 0 44.0296 11.197 493 57.3327 959.667 514.479
19 0 47.0642 11.6224 547 56.6984 960.788 514.83
20 0 48.0313 13.9076 668 55.2545 959.964 512.641
21 0 48.09 11.3329 545 58.4716 959.193 511.534
22 0 51.0363 13.1083 669 56.2212 959.51 512.173
23 0 51.0483 11.9299 609 57.9622 960.076 510.66
24 0 55.0405 13.5537 746 55.571 959.94 510.622
25 0 56.0808 12.0362 675 57.8311 959.71 509.616
26 0 55.0996 13.7569 758 57.0356 960.082 506.413
27 0 56.0368 11.2248 629 60.3227 960.347 506.638
28 0 58.1596 11.1418 648 60.0324 959.654 507.16
29 0 59.1124 12.5016 739 59.2273 960.019 506.238
30 0 62.0828 13.176 818 58.6491 960.584 503.456
31 0 65.0324 12.686 825 59.0861 960.458 503.922
32 0 66.0228 12.2533 809 59.419 961.028 504.606
33 0 67.0722 12.6729 850 60.16 960.004 498.985
34 1 35.0551 12.2949 431 58.5847 960.661 516.903
35 0 33.0516 10.2869 340 61.5353 961.047 518.5
36 0 37.0558 11.0374 409 60.2763 961.076 516.773
37 0 36.053 10.7619 388 61.2706 960.436 518.085
38 0 38.0223 11.4143 434 60.1475 960.364 519.306
39 0 40.0376 11.764 471 60.6178 961.066 516.762
40 0 40.0508 10.6115 425 62.5953 961.339 515.44
41 0 41.0208 11.7258 481 61.8545 961.281 515.135
42 0 42.0176 11.876 499 62.2144 961.449 514.212
43 0 42.0519 12.5084 526 62.1768 961.578 514.979
44 0 45.0606 10.6745 481 64.7838 961.422 512.971
45 0 47.0771 12.4901 588 62.6088 960.684 512.335
46 0 47.0758 11.0885 522 65.4253 961.72 511.111
47 0 49.0476 12.2126 599 63.182 961.785 513.336
48 0 52.0435 11.2214 584 65.0771 961.546 510.471
49 0 53.055 13.0431 692 63.3237 961.647 510.256
50 0 56.0829 12.3389 692 64.4104 961.711 510.993
51 0 55.0298 11.9935 660 66.4894 961.653 507.947
52 0 59.0936 12.3364 729 66.2606 961.737 507.091
53 0 61.0284 13.633 832 63.5 962.314 508.618
54 0 60.059 10.9059 655 69.3313 962.206 504.536
55 0 64.039 11.9615 766 67.4217 961.513 504.68
56 0 68.0498 12.4468 847 67.0815 962.048 503.399
57 0 68.0556 10.4033 708 70.5734 962.123 502.992
58 0 70.1154 12.294 862 68.971 962.788 498.051
59 0 73.0511 11.8547 866 69.4919 962.092 499.58
60 1 40.1058 10.9461 439 68.6059 962.159 515.271
61 0 44.1004 10.6348 469 68.4115 961.866 515.335
62 0 43.1286 10.5498 455 70.3802 962.308 513.385
63 0 45.0261 11.993 540 68.0278 961.739 512.235
64 0 46.0301 11.5577 532 68.0226 961.883 513.395
65 0 48.0812 12.1045 582 67.1048 962.036 513.976
66 0 50.0575 12.5056 626 68.1837 962.339 510.067
67 0 50.042 12.0299 602 68.3439 962.128 511.875
68 0 54.0708 11.263 609 69.2578 962.304 509.857
69 0 53.0779 11.6244 617 69.4668 962.081 509.11
70 0 54.0705 11.485 621 70.4815 962.253 507.349
71 0 53.0628 9.49819 504 73.1369 962.117 507.133
72 0 57.0864 10.3702 592 70.2061 962.105 509.868
73 0 59.0262 11.0968 655 70.3572 961.495 505.095
74 0 63.0368 12.4054 782 68.711 961.826 503.2
75 0 64.0972 12.1066 776 68.4897 961.166 504.327
76 0 67.1347 10.5609 709 70.8872 961.764 502.035
77 0 70.1375 13.0743 917 67.5616 961.699 499.963
78 0 70.0875 10.7152 751 71.1039 960.59 498.96
79 0 75.1667 11.827 889 69.4488 961.758 498.207
80 0 78.194 11.6249 909 69.264 962.238 497.908
81 1 35.0209 9.59428 336 69.3244 962.408 515.173
82 0 38.0121 11.3911 433 66.8222 962.993 514.143
83 0 40.0202 9.54518 382 68.8586 962.966 514.322
84 0 41.034 10.7472 441 67.3991 963.166 513.386
85 0 43.02 10.1116 435 67.7517 962.055 515.129
86 0 44.0203 8.97314 395 69.8835 962.438 512.997
87 0 44.0392 9.51426 419 69.506 962.313 512.232
88 0 48.037 11.3246 544 66.5809 962.017 509.757
89 0 48.0714 11.691 562 66.9466 962.573 508.808
90 0 50.0506 11.1887 560 67.3554 962.823 509.407
91 0 51.0894 10.5697 540 68.5426 962.652 508.365
92 0 52.0683 11.0816 577 68.305 962.718 506.307
93 0 55.1128 9.29005 512 69.5801 962.918 507.568
94 0 57.122 9.96114 569 67.9174 963.097 507.316
95 0 56.1692 9.29335 522 70.3774 962.91 505.481
96 0 59.0616 11.7674 695 66.8633 962.203 503.447
97 0 60.0614 9.78999 588 69.9949 963.08 502.235
98 0 63.1914 10.7768 681 67.862 962.232 502.352
99 0 65.1154 10.658 694 68.3328 963.066 500.305
100 0 68.1279 12.1243 826 65.5714 962.654 498.617
101 0 70.1637 11.3734 798 66.5551 962.31 497.766
102 0 71.1332 10.164 723 68.2808 962.422 495.686
103 0 72.0741 9.60124 692 69.3194 963.127 492.796
104 0 76.2477 9.84948 751 67.6565 963.015 494.691
105 0 80.1708 10.7022 858 66.7051 961.955 491.175
106 0 83.1045 10.565 878 66.3781 962.901 490.949
107 1 43.0566 8.38432 361 64.3629 962.327 509.061
108 0 45.0171 8.77445 395 63.6329 961.668 510.489
109 0 47.0815 9.60037 452 62.6991 962.566 507.507
110 0 49.0354 9.23823 453 62.9779 961.746 505.795
111 0 48.0491 8.01264 385 64.413 962.325 506.818
112 0 51.0341 9.40548 480 63.3625 963.167 505.3
113 0 52.0383 9.91577 516 63.5523 962.744 502.178
114 0 53.0359 8.93734 474 64.6245 962.814 501.502
115 0 56.0301 9.47705 531 63.8531 962.682 498.93
116 0 55.0488 9.40984 518 64.4015 963.49 499.988
117 0 57.0224 8.1547 465 65.843 963.301 500.142
118 0 61.0453 8.63293 527 64.852 962.882 497.636
119 0 63.0696 9.86213 622 63.41 963.174 499.494
120 0 65.0858 10.1712 662 63.2946 962.604 495.568
121 0 66.1171 9.51342 629 63.8744 962.913 494.447
122 0 70.1023 10.9554 768 62.3906 963.414 491.605
123 0 72.0875 10.5427 760 62.8421 962.766 491.834
124 0 76.1105 11.2599 857 61.8611 962.978 490.145
125 1 34.0242 7.75918 264 62.3788 962.78 511.924
126 0 34.0365 5.90543 201 64.4478 962.96 511.756
127 0 38.0068 9.60354 365 59.926 963.085 510.427
128 0 38.0092 9.44508 359 61.0864 963.29 510.571
129 0 41.0528 10.2307 420 59.969 962.562 508.943
130 0 41.0818 10.3939 427 59.1827 962.18 510.37
131 0 42.0409 9.65725 406 61.202 962.064 507.502
132 0 42.1488 9.01567 380 60.421 961.826 510.089
133 0 44.1221 8.7258 385 60.826 962.01 507.366
134 0 45.0739 10.4051 469 58.9339 961.424 508.36
135 0 47.1122 10.5493 497 58.7264 962.793 505.41
136 0 50.0511 10.5093 526 58.4658 963.496 503.821
137 0 48.0644 9.71613 467 59.6809 962.974 505.874
138 0 52.0622 11.0829 577 57.7955 962.484 502.518
139 0 54.1006 9.68565 524 59.4771 961.922 501.09
140 0 52.0701 11.0812 577 58.5442 961.856 502.251
141 0 56.0831 9.89603 555 58.9748 962.362 502.784
142 0 57.1217 10.8365 619 58.7722 961.678 499.835
143 0 61.1354 11.3518 694 57.2248 962.259 498.774
144 0 62.1728 10.9533 681 58.4582 962.648 497.436
145 0 64.1984 9.93795 638 59.7382 962.37 495.969
146 0 65.188 11.0603 721 58.7573 962.078 495.427
147 0 68.1165 11.3922 776 58.2719 961.483 493.607
148 0 71.0539 12.2864 873 57.4616 961.073 493.306
149 0 72.1333 12.9344 933 56.9818 961.245 492.152
150 0 73.1483 11.5109 842 58.5831 961.577 490.868
151 0 77.0996 12.3088 949 57.4131 962.104 491.796
152 0 79.0964 12.6302 999 57.5025 961.992 489.772
153 0 80.1488 10.6677 855 59.8164 961.905 492.294
154 0 82.1035 12.3503 1014 58.2357 961.454 489.143
155 1 41.0233 8.99488 369 60.8238 962.488 508.453
156 0 44.0871 9.70806 428 59.9836 962.619 509.269
157 0 45.0336 11.658 525 57.4781 962.469 508.573
158 0 46.0705 9.83276 453 60.1678 962.018 505.492
159 0 49.0599 10.5585 518 58.8803 961.622 505.863
160 0 51.0672 10.4176 532 58.5733 961.156 506.427
161 0 52.0675 10.5248 548 59.0693 961.146 506.204
162 0 54.1303 11.3984 617 57.9546 961.494 506.438
163 0 56.0979 11.2482 631 58.8653 962.436 501.618
164 0 57.0839 11.8072 674 58.2493 962.404 500.503
165 0 59.1123 11.1483 659 58.7694 961.85 501.041
166 0 60.1265 11.06 665 59.1729 962.349 500.021
167 0 63.099 11.379 718 58.1254 961.939 500.877
168 0 63.0996 10.7132 676 59.7781 962.078 497.356
169 0 65.0708 10.7575 700 59.6114 962.854 496.061
170 0 69.1427 11.1364 770 59.2701 962.773 494.503
171 0 70.0764 12.5006 876 57.9144 962.541 495.836
172 0 72.0508 11.9499 861 58.5784 962.919 491.914
173 0 72.064 10.3935 749 61.1869 963.561 490.284
174 0 77.0781 11.9878 924 58.9589 962.988 491.555
175 0 78.0766 9.83649 768 60.8307 963.423 493.046
176 0 80.1287 10.0963 809 61.2769 963.225 486.905
177 0 84.1042 10.8794 915 60.2098 962.249 487.378
178 1 42.0125 9.759 410 59.0732 962.32 508.361
179 0 42.035 9.96789 419 60.1551 962.408 504
180 0 44.0964 10.0462 443 59.7314 961.524 505.102
181 0 43.0155 9.76393 420 60.8571 960.786 506.045
182 0 44.0954 8.32287 367 62.1117 960.638 504.564
183 0 48.0184 8.78829 422 61.6303 961.019 505.386
184 0 50.0289 9.57446 479 60.3361 960.067 505.347
185 0 50.1247 11.5711 580 58.9397 960.788 501.095
186 0 53.09 9.77585 519 60.4027 960.553 504.26
187 0 54.0362 9.80824 530 59.8113 960.453 504.766
188 0 56.0551 10.0794 565 59.8053 959.327 501.018
189 0 57.0409 10.1331 578 59.5779 959.285 499.322
190 0 60.0744 11.8353 711 57.6582 959.082 499.809
191 0 61.0848 11.3449 693 58.3882 958.18 497.457
192 0 64.0626 9.89656 634 59.0899 958.442 501.566
193 0 67.1117 11.3542 762 57.4751 958.633 500.091
194 0 67.1225 11.3226 760 57.95 958.5 497.491
195 0 69.1256 9.6925 670 59.6313 958.442 495.282
196 0 73.1838 12.0382 881 56.9864 958.902 495.627
197 0 77.2015 11.5024 888 57.027 957.935 496.393
198 0 79.0698 11.1294 880 57.9136 958.024 496.276
199 0 80.1478 11.0546 886 58.1422 957.823 491.874
200 1 39.0191 9.02121 352 57.7131 958.349 511.841
201 0 42.0913 8.90921 375 57.1813 957.955 513.904
202 0 46.1142 11.1462 514 54.0311 958.162 515.42
203 0 45.1495 10.277 464 56.0884 958.558 514.69
204 0 45.0966 9.53509 430 56.9163 957.819 514.672
205 0 46.0986 10.2606 473 56.3911 957.247 512.778
206 0 48.0536 10.5923 509 56.5128 957.998 511.145
207 0 49.0735 10.5963 520 55.9327 957.125 512.813
208 0 53.2278 13.0947 697 53.462 956.743 510.859
209 0 52.0525 10.4702 545 56.9376 957.517 509.56
210 0 55.0589 11.7874 649 55.3944 957.441 510.057
211 0 54.0481 10.9347 591 56.846 957.256 507.609
212 0 58.1363 12.8491 747 54.656 956.906 506.906
213 0 59.1168 9.79418 579 57.5803 956.396 506.817
214 0 61.0573 10.7276 655 56.3893 955.713 508.412
215 0 62.1249 11.8954 739 55.1678 956.225 507.893
216 0 65.0178 11.7045 761 56.0368 956.447 503.311
217 0 66.0502 10.8857 719 56.6495 955.751 504.715
218 0 69.1423 11.3534 785 56.8013 955.502 500.967
219 0 70.1057 11.3543 796 56.7626 956.195 502.58
220 0 73.0563 12.0729 882 56.6032 956.19 498.41
221 0 77.2004 11.7616 908 57.3491 956.307 495.829
222 0 78.1446 10.4294 815 58.7423 956.043 497.437
223 1 42.0467 10.0365 422 57.8104 956.358 513.697
224 0 45.1154 9.48679 428 57.7033 957.04 513.659
225 0 44.0536 10.8958 480 57.7938 956.938 508.835
226 0 45.0462 8.48018 382 60.0236 956.893 510.571
227 0 48.0963 9.9384 478 58.9707 956.713 510.971
228 0 48.0656 9.77831 470 59.6787 955.736 510.098
229 0 52.0463 11.3745 592 57.2061 955.497 508.867
230 0 52.0661 10.8132 563 58.659 955.565 508.076
231 0 52.0552 9.31703 485 60.5423 956.128 507.571
232 0 53.0952 10.8108 574 60.1115 955.669 505.571
233 0 59.1185 11.9929 709 58.2623 956.185 505.89
234 0 58.1985 12.0965 704 59.1278 955.618 503.368
235 0 62.1079 11.9953 745 58.9544 955.805 502.102
236 0 63.1709 11.6509 736 59.1168 955.874 501.87
237 0 64.0812 11.2357 720 59.7958 956.225 501.372
238 0 65.135 10.8544 707 60.918 956.208 498.505
239 0 68.0817 11.1337 758 59.5449 955.637 498.364
240 0 71.1058 12.9103 918 58.488 956.284 495.55
241 0 73.2125 10.3124 755 60.5417 956.685 497.78
242 0 73.142 11.4982 841 60.1332 957.351 496.313
243 0 76.2043 10.6031 808 60.495 955.89 495.371
244 0 79.1136 10.8831 861 60.7154 956.13 492.369
245 0 82.1515 11.6614 958 59.9123 956.602 492.285
246 0 83.0728 11.3756 945 61.0286 956.092 490.135
247 0 88.1063 11.5202 1015 60.4197 956.713 490.101
248 1 44.0556 8.62547 380 60.4 956.626 511.384
249 0 47.056 11.1569 525 58.5943 957.019 509.55
250 0 47.0839 10.2795 484 60.3864 957.112 509.283
251 0 50.0463 10.1906 510 60.2726 957.884 509.355
252 0 51.0749 10.1811 520 60.6846 957.417 507.133
253 0 53.0908 10.0394 533 60.0356 956.899 510.63
254 0 53.0362 10.9736 582 59.6134 957.476 509.497
255 0 55.0578 11.9329 657 58.5464 957.326 508.444
256 0 56.0939 10.5894 594 60.4259 957.032 508.093
257 0 56.1078 9.4461 530 61.9642 957.658 503.381
258 0 60.1188 10.3961 625 59.624 957.09 507.941
259 0 62.1022 11.1107 690 58.5304 956.709 505.633
260 0 61.1602 10.5461 645 60.6543 957.132 502.482
261 0 65.0974 10.3537 674 59.8828 956.675 501.945
262 0 67.0857 11.1797 750 59.044 956.411 500.443
263 0 69.1299 11.529 797 58.7051 956.773 498.553
264 0 71.1146 11.5307 820 59.3378 956.895 498.304
265 0 73.1428 12.0586 882 58.797 956.454 498.474
266 0 75.2173 12.1515 914 57.9617 956.357 500.668
267 1 39.0751 9.03388 353 60.0992 957.626 516.374
268 0 38.0211 9.81035 373 59.7721 957.383 514.989
269 0 40.2882 9.05973 365 60.5068 957.436 516.173
270 0 42.0372 11.0854 466 58.8627 957.315 514.333
271 0 45.0258 11.9487 538 57.8494 957.264 513.539
272 0 45.0427 11.7 527 58.5446 956.524 511.742
273 0 45.0844 10.2253 461 60.1887 955.794 513.23
274 0 48.0632 10.9647 527 59.1404 956.421 513.556
275 0 50.0419 10.4313 522 58.9559 956.002 512.22
276 0 50.0811 11.5612 579 58.3109 956.332 512.221
277 0 53.0563 9.17894 487 60.2813 955.671 507.864
278 0 52.0537 10.7581 560 59.2089 956.282 510.52
279 0 54.1287 11.4172 618 58.165 955.304 509.081
280 0 57.0833 11.0365 630 58.0159 955.183 508.478
281 0 59.1319 13.4614 796 55.4146 955.78 507.853
282 0 59.0201 10.776 636 59.0692 956.071 505.597
283 0 62.2008 10.7716 670 58.3224 955.649 506.802
284 0 63.1045 10.5222 664 58.6868 955.179 505.098
285 0 66.0942 11.3474 750 57.0627 954.681 502.877
286 0 66.2073 11.2374 744 57.4583 955.035 503.747
287 0 71.1743 12.1533 865 56.0844 955.218 500.133
288 0 72.1893 11.1374 804 57.6617 954.764 498.252
289 0 76.2853 12.5188 955 55.4743 954.869 499.559
290 0 77.1941 12.3455 953 55.809 954.571 497.756
291 0 79.059 11.1689 883 57.342 954.675 496.772
292 0 81.2646 11.2841 917 57.4122 954.625 494.342
293 1 43.1286 9.29776 401 56.5337 954.905 515.294
294 0 44.074 10.6412 469 55.7079 954.563 515.226
295 0 44.1405 11.9165 526 54.5703 955.975 514.762
296 0 44.078 8.89332 392 57.352 955.467 514.541
297 0 46.0236 10.6684 491 56.11 954.725 510.576
298 0 49.0211 11.6072 569 55.645 954.346 510.468
299 0 48.0157 11.3088 543 56.512 955.05 512.448
300 0 50.0384 10.7318 537 57.5419 955.259 509.048
301 0 52.0448 11.7591 612 56.2402 954.873 508.523
302 0 54.0764 11.4837 621 56.6667 954.362 508.928
303 0 55.0399 11.6643 642 56.4206 954.441 506.816
304 0 58.0944 12.9444 752 54.9601 954.672 506.863
305 0 56.0874 11.0364 619 57.3845 954.187 504.438
306 0 59.0678 13.73 811 54.4698 954.852 503.993
307 0 62.1734 12.5456 780 55.4654 954.246 501.186
308 0 65.1359 11.5758 754 56.5292 953.922 502.824
309 0 64.0711 12.0803 774 56.6382 954.302 498.43
310 0 66.0611 12.3219 814 56.8661 954.353 500.107
311 0 68.1304 14.0319 956 54.8462 954.076 496.991
312 0 68.1386 9.93563 677 59.8065 954.675 495.665
313 0 72.0916 9.54342 688 59.6468 954.879 498.23
314 1 37.0833 12.5393 465 54.5548 954.271 513.469
315 0 36.1773 9.23231 334 57.2994 953.844 515.464
316 0 39.0677 10.085 394 57.0228 954.16 514.081
317 0 40.0649 12.2052 489 55.7157 954.708 512.881
318 0 41.1677 9.83781 405 57.0074 954.452 513.472
319 0 44.0503 9.53456 420 57.4214 954.76 513.907
320 0 45.1306 11.3892 514 56.0895 954.79 512.097
321 0 47.0681 11.664 549 56.0947 955.455 511.222
322 0 46.1155 11.1459 514 57.3385 955.204 509.354
323 0 50.1902 13.7477 690 53.8594 955.474 509.809
324 0 48.0845 11.6046 558 57.7527 955.19 507.819
325 0 51.1577 11.2984 578 57.4637 955.05 510.266
326 0 53.1471 11.534 613 56.9837 954.776 509.357
327 0 55.1121 11.1591 615 57.8098 954.343 506.202
328 0 57.0819 12.1229 692 56.8584 953.88 508.249
329 0 56.1389 9.63682 541 60.1128 954.856 506.346
330 0 59.0691 11.2241 663 59.2519 954.374 504.003
331 0 63.1473 13.4131 847 56.2054 954.849 505.027
332 0 64.0408 12.008 769 57.8153 954.369 503.979
333 0 65.0694 11.0958 722 60.0388 955.421 502.114
334 0 68.1063 11.9079 811 59.2836 954.021 501.623
335 0 69.185 11.0284 763 60.7182 954.014 499.963
336 0 72.0702 11.5859 835 60.3042 953.883 495.381
337 0 73.2066 11.4061 835 60.9198 954.58 496.144
338 0 74.1081 11.1864 829 61.415 954.855 494.782
339 0 81.1634 12.3331 1001 59.7123 954.788 495.556
340 1 35.0233 9.22243 323 61.4768 955.808 513.019
341 0 38.0147 10.154 386 59.4171 955.28 515.451
342 0 41.0912 10.2212 420 59.8571 954.995 513.502
343 0 41.0166 8.72818 358 61.6452 954.628 513.254
344 0 42.0854 10.2886 433 59.8707 954.231 512.49
345 0 44.0237 11.1758 492 58.8435 955.518 513.15
346 0 46.0231 11.8419 545 58.2202 954.921 512.943
347 0 46.0685 11.0705 510 60.4941 955.222 510.52
348 0 49.0492 10.4385 512 59.8906 954.228 511.779
349 0 49.1191 12.541 616 58.6688 954.383 507.774
350 0 51.0837 10.2968 526 60.7452 954.61 507.268
351 0 52.0916 10.04 523 61.2983 954.654 505.91
352 0 54.2533 11.3357 615 58.639 954.641 506.956
353 0 56.166 12.018 675 58.0874 954.75 507.169
354 0 58.1727 10.2797 598 60.1388 954.742 505.375
355 0 60.072 11.2032 673 59.1798 954.149 502.738
356 0 62.0922 12.9807 806 57.3561 954.285 501.248
357 0 63.1161 9.88654 624 60.5593 954.742 503.16
358 0 67.0319 10.6666 715 59.5427 955.894 501.519
359 0 72.05 15.3088 1103 53.4125 955.335 498.396
360 0 72.1144 12.1612 877 57.3523 955.253 497.288
361 1 122.923 9.388 1154 51.1161 956.057 482.599
362 0 130.85 9.88151 1293 51.1918 955.451 486.161
363 0 124.954 10.5239 1315 51.3316 955.509 482.221
364 0 125.887 11.5024 1448 49.8964 955.166 475.172
365 1 38.0577 10.2739 391 59.3836 955.046 512.864
366 0 40.0931 8.08119 324 60.5648 956.247 514.346
367 0 44.0263 11.266 496 57.4012 956.619 513.764
368 0 45.0361 10.214 460 58.8261 956.152 511.546
369 0 45.0742 10.6269 479 58.9645 956.253 512.382
370 0 45.0622 10.1415 457 59.639 955.683 512.243
371 0 45.1394 9.70327 438 60.7603 954.607 512.676
372 0 48.2957 11.968 578 58.7716 954.365 509.799
373 0 50.1242 10.6934 536 59.6679 954.52 508.847
374 0 46.1808 8.51003 393 63.4758 955.206 506.771
375 0 44.0755 8.41738 371 63.6253 955.129 505.558
376 0 48.0771 10.192 490 61.5776 955.043 506.847
377 0 46.1452 8.03984 371 63.1914 955.375 500.52
378 0 51.0548 9.57794 489 61.8875 955.074 503.117
379 0 51.0446 10.0304 512 61.6113 954.695 500.035
380 0 51.0722 7.71457 394 63.3426 954.98 496.726
381 0 52.1117 4.83577 252 65.4643 953.81 492.067
382 0 55.0973 5.7353 316 65.2753 954.13 494.804
383 0 58.094 7.71164 448 63.3728 954.703 494.817
384 0 53.0807 5.33151 283 64.8587 954.788 486.339
385 0 58.2219 6.85309 399 64.416 955.258 494.373
386 0 57.1217 5.96971 341 63.2962 954.302 480.308
387 0 65.2124 7.00787 457 64.1379 954.652 493.473
388 1 29.0598 4.61118 134 65.0298 956.104 510.948
389 0 28.0483 7.84362 220 61.5409 955.627 506.573
390 0 28.026 6.8151 191 62.2932 955.712 505.785
391 0 31.0103 6.51397 202 62.5297 955.678 506.673
392 0 31.0446 8.63274 268 61.3284 954.955 505.291
393 0 34.0048 7.96946 271 61.9078 954.72 505.347
394 0 39.0247 8.22555 321 61.9003 955.009 506.763
395 0 37.0772 6.01448 223 62.8789 954.395 501.96
396 0 41.1038 8.41771 346 61.2399 955.032 504.09
397 0 36.083 5.54277 200 65.145 955.46 504.285
398 0 41.0546 5.40744 222 63.3153 954.743 500.82
399 0 41.0615 7.98802 328 61.3323 954.57 500.881
400 0 43.1473 6.53575 282 63.8262 955.131 501.223
401 0 42.0193 6.52082 274 64.1642 955.551 502.77
402 0 41.1749 7.31028 301 63.1196 955.601 497.292
403 1 58.0658 11.8142 686 62.0379 955.292 448.608
404 0 56.107 10.0879 566 60.3975 954.74 503.56
405 0 59.0918 10.6952 632 59.799 954.397 503.603
406 0 62.0522 12.28 762 58.3386 955.007 504.251
407 0 64.0698 10.7383 688 60.0451 955.801 500.471
408 0 66.0764 12.3039 813 58.9963 955.513 500.852
409 0 69.0333 12.2115 843 59.1673 955.409 498.715
410 0 72.0629 12.5585 905 58.8751 955.596 498.619
411 0 75.0854 13.2383 994 58.1086 955.482 499.685
412 0 75.1488 13.0408 980 58.8469 955.093 499.249
413 1 41.0607 11.5682 475 60.1916 955.248 515.318
414 0 42.0134 12.6388 531 59.3578 955.439 514.761
415 0 43.0533 10.9167 470 61.3192 955.036 515.183
416 0 44.0774 11.8201 521 60.9731 955.253 512.461
417 0 46.0648 11.7009 539 61.2894 955.096 511.77
418 0 48.0411 14.2794 686 58.1006 954.882 512.026
419 0 48.1671 11.5431 556 61.8219 955.504 511.151
420 0 51.1517 14.3886 736 58.2677 955.232 509.798
421 0 53.0809 12.7918 679 60.1016 955.406 509.24
422 0 54.04 11.8061 638 61.6802 954.928 508.875
423 0 55.0903 12.9787 715 60.4811 955.084 508.428
424 0 57.0513 12.9883 741 60.6869 954.807 507.758
425 0 60.1457 12.769 768 60.4609 954.609 506.691
426 0 61.0975 13.1102 801 60.2035 954.915 503.36
427 0 63.2298 12.2727 776 61.0773 954.41 505.683
428 0 65.1282 13.3429 869 59.8101 954.586 506.458
429 0 66.1448 12.4878 826 61.5884 955.133 502.659
430 0 70.0664 12.9449 907 60.5623 955.32 500.78
431 0 74.132 13.7457 1019 59.1511 955.076 501.922
432 0 75.1221 12.9123 970 60.7948 955.545 501.055
433 0 76.0877 12.065 918 61.9771 954.505 499.441
434 0 78.2989 12.3501 967 62.0362 954.347 495.444
435 0 81.1945 13.092 1063 61.3819 954.363 494.387
436 0 83.166 13.7075 1140 60.5816 955.183 496.004
437 0 88.1134 12.9265 1139 60.8903 955.118 493.11
438 1 44.0275 11.1976 493 61.6998 955.304 513.556
439 0 45.0382 10.9685 494 61.8542 954.968 514.567
440 0 46.046 11.7057 539 61.1892 954.933 513.102
441 0 48.0258 12.9722 623 59.9037 954.726 511.353
442 0 51.2098 11.8727 608 60.5181 954.523 510.684
443 0 50.0608 9.96787 499 62.7034 954.525 511.543
444 0 52.089 11.4611 597 60.8995 954.623 510.76
445 0 54.0384 12.269 663 60.7617 954.425 507.409
446 0 56.0515 12.3636 693 60.0289 954.638 507.608
447 0 56.0512 11.989 672 60.4271 954.445 506.475
448 0 61.0666 11.6266 710 60.5761 953.713 503.993
449 0 63.0874 13.5051 852 58.8322 954.602 503.119
450 0 64.0708 11.4561 734 61.4632 954.971 500.176
451 0 65.0657 13.617 886 59.3273 954.485 499.149
452 0 67.0682 12.2413 821 60.8368 954.592 500.632
453 0 69.0573 12.9168 892 60.2836 954.457 497.519
454 0 72.0581 15.3626 1107 57.7543 955.055 496.351
455 0 73.0461 12.8412 938 60.8305 954.649 494.673
456 0 78.0767 13.1793 1029 60.3946 955.305 495.053
457 0 80.1406 14.0004 1122 59.2522 954.408 494.798
458 0 83.11 12.7421 1059 61.0444 955.227 492.009
459 0 84.1504 11.1942 942 63.0138 955.03 490.047
460 0 85.0793 12.6705 1078 62.4221 954.501 488.858
461 0 85.2648 9.25352 789 66.3409 955.038 483.905
462 1 37.026 9.72291 360 65.325 955.469 510.869
463 0 39.1053 7.87618 308 66.4253 955.234 507.529
464 0 39.1224 7.25926 284 67.6761 955.401 508.275
465 0 42.0612 6.34789 267 68.0824 954.989 508.296
466 0 43.0169 10.5772 455 64.6066 955.099 505.877
467 0 44.1021 9.00184 397 66.4937 955.106 507.844
468 0 46.031 8.73325 402 66.1219 954.388 504.463
469 0 49.1205 11.482 564 63.7163 954.851 503.704
470 0 49.0689 10.0063 491 66.0102 954.731 504.851
471 0 52.0802 10.5414 549 65.561 954.563 504.142
472 0 56.0691 10.5584 592 64.9561 954.316 502.306
473 0 58.0831 12.0173 698 63.1046 955.09 501.47
474 0 64.1122 13.0708 838 61.7399 955.529 502.933
475 0 67.0673 13.5386 908 61.2401 954.312 500.834
476 0 69.1625 13.649 944 60.9873 954.251 503.042
477 0 71.0434 14.3856 1022 60.4432 954.102 501.314
478 0 72.094 11.7902 850 64.0929 953.613 497.584
479 0 77.0657 14.1438 1090 60.8349 953.976 499.898
480 0 77.0692 13.6241 1050 62.2876 953.366 494.397
481 0 79.0437 12.7271 1006 63.2873 953.117 497.248
482 0 83.1301 13.4729 1120 62.5696 953.368 496.066
483 0 85.0771 13.141 1118 63.4445 954.359 492.504
484 0 88.1316 14.1606 1248 62.2003 954.415 492.532
485 0 89.1556 12.5623 1120 64.6982 954.332 490.132
486 1 48.0847 10.5231 506 63.6759 954.571 513.219
487 0 51.0915 12.507 639 61.4382 955.21 512.246
488 0 50.1634 11.3828 571 63.1086 954.771 512.778
489 0 54.0564 11.3215 612 62.6928 954.739 512.41
490 0 54.0536 12.6541 684 62.1974 954.2 510.415
491 0 56.0586 12.4334 697 61.9584 954.521 508.175
492 0 56.0438 11.0271 618 64.7557 954.356 504.557
493 0 58.0437 11.7325 681 62.8649 954.17 508.874
494 0 59.1016 10.9472 647 63.8547 954.607 507.06
495 0 65.1863 11.5362 752 62.762 954.512 503.952
496 0 66.0801 12.2124 807 62.0657 954.112 503.595
497 0 67.1081 11.1313 747 63.411 954.044 504.917
498 0 70.1372 12.2332 858 62.704 954.705 501.365
499 0 72.1227 12.1044 873 63.0664 954.14 498.762
500 0 74.1124 12.7509 945 62.7534 953.5 495.583
501 0 76.0888 13.1688 1002 62.0509 953.746 499.205
502 0 79.0575 12.2695 970 63.8876 953.933 494.745
503 0 82.0804 11.5496 948 64.8924 954.039 495.499
504 1 41.064 11.2994 464 62.8211 954.843 514.239
505 0 44.1695 11.4559 506 62.0514 954.771 515.346
506 0 41.1399 10.9869 452 65.0509 954.442 510.347
507 0 45.1695 10.2724 464 65.2284 953.748 510.545
508 0 49.1087 11.5051 565 62.8673 953.727 511.527
509 0 49.1675 11.7354 577 63.3102 953.953 511.303
510 0 49.0601 11.1088 545 64.3394 953.785 508.971
511 0 53.0333 11.7096 621 63.4267 953.544 507.411
512 0 53.0625 12.1366 644 62.9767 953.503 509.02
513 0 55.0814 11.8007 650 63.0031 953.808 507.058
514 0 58.0564 11.9367 693 63.1587 953.639 505.831
515 0 59.0766 10.2748 607 64.9786 953.771 505.586
516 0 61.1762 10.8866 666 64.2778 954.392 503.27
517 0 63.2102 10.1566 642 64.3988 953.838 502.924
518 0 67.1005 11.982 804 62.2923 954.308 502.256
519 1 34.0545 9.89591 337 61.9644 953.783 519.519
520 0 34.0567 8.42712 287 63.0453 953.69 519.683
521 0 36.0175 9.74527 351 62.1282 954.444 518.387
522 0 35.0289 11.1051 389 61.126 954.391 518.211
523 0 37.047 9.82536 364 63.4341 953.797 517.621
524 0 40.044 11.0129 441 61.2132 954.249 516.993
525 0 41.1212 10.6514 438 61.8881 954.219 513.838
526 0 41.1274 10.8444 446 62.3856 953.895 514.247
527 0 43.0667 11.5403 497 61.3561 953.288 510.879
528 0 45.0713 9.51826 429 63.4312 953.814 514.002
529 0 46.16 12.0234 555 61.0126 953.587 510.811
530 0 47.0554 13.0485 614 60.2622 954.093 511.383
531 0 50.0764 13.8389 693 58.6753 953.43 510.465
532 0 51.0347 11.9918 612 60.9657 953.681 510.433
533 0 52.1468 12.5991 657 60.0654 953.942 510.03
534 0 54.2541 12.3862 672 60.5551 953.155 506.388
535 0 57.1058 11.1197 635 61.422 953.334 508
536 0 57.0742 11.6865 667 61.2294 953.069 506.813
537 0 59.1276 12.1432 718 60.3677 953.065 505.38
538 0 61.112 12.3707 756 60.2553 953.366 503.519
539 0 63.1511 12.0663 762 60.4213 953.123 502.794
540 0 63.1223 11.2797 712 61.9368 953.728 502.272
541 0 68.2423 12.8952 880 59.8023 953.449 500.667
542 0 68.1708 13.8916 947 59.1806 953.223 499.081
543 0 71.2508 11.8174 842 61.6176 953.952 499.043
544 1 36.079 10.3107 372 61.4516 954.048 516.858
545 0 37.0738 9.14393 339 62.8909 953.522 515.584
546 0 38.0477 10.9599 417 61.2974 953.283 515.71
547 0 41.104 12.4319 511 60.1937 953.321 514.256
548 0 43.0943 11.997 517 59.3133 953.104 516.035
549 0 44.1377 11.7813 520 60.6885 952.906 514.081
550 0 43.0878 10.0028 431 63.8028 952.74 510.255
551 0 46.0299 11.927 549 61.0656 953.144 509.776
552 0 45.0383 10.3245 465 63.8968 952.86 511.482
553 0 50.0632 12.9636 649 59.624 953.116 508.9
554 0 52.1413 13.9621 728 58.6525 953.717 507.842
555 0 51.1035 11.5843 592 62.6807 953.179 507.938
556 0 54.1603 12.5553 680 61.1324 954.129 508.21
557 0 55.0274 12.5574 691 60.7699 953.482 506.627
558 0 57.0756 11.2307 641 62.2917 953.296 507.417
559 0 58.03 11.5113 668 62.2186 952.707 505.002
560 0 62.0378 12.1861 756 60.7791 953.171 505.114
561 0 62.08 12.9188 802 60.0449 953.059 505.005
562 0 64.1934 10.9824 705 63.2695 953.023 501.021
563 0 67.055 13.4069 899 60.1735 953.339 500.287
564 0 69.1397 12.6121 872 61.586 953.608 499.814
565 0 71.0668 11.3837 809 62.7936 953.461 500.396
566 0 73.0805 13.3825 978 60.8303 953.291 494.176
567 0 76.0428 12.9664 986 60.855 953.081 498.042
568 0 79.0802 15.9205 1259 57.7307 953.324 494.251
569 1 41.0104 10.5339 432 61.1551 953.252 516.78
570 0 42.0751 11.0754 466 61.5043 953.346 514.989
571 0 45.0648 11.2061 505 61.0376 952.919 514.343
572 0 47.0383 10.4383 491 61.7047 954.42 513.923
573 0 46.0131 10.497 483 62.9607 953.772 512.507
574 0 48.0687 11.1299 535 62.1664 953.413 512.071
575 0 49.0587 11.8022 579 61.6373 953.44 511.187
576 0 52.0578 11.6793 608 61.8421 953.536 508.178
577 0 54.0689 11.06 598 62.2408 952.828 506.91
578 0 53.0469 10.1043 536 63.8004 953.433 508.19
579 0 59.1168 11.0798 655 61.9634 953.603 506.27
580 0 61.1129 13.0905 800 59.705 954.719 507.07
581 0 62.0489 13.3121 826 60.0884 955.131 504.708
582 0 65.0782 12.8 833 60.0684 955.366 502.412
583 0 67.1226 13.1699 884 59.0057 954.595 502.842
584 0 69.1795 12.8217 887 60.0643 954.492 499.396
585 0 69.1813 11.029 763 62.9056 954.536 498.446
586 0 73.1129 12.4328 909 61.0429 954.9 497.4
587 0 75.1038 12.2098 917 61.5889 955.34 496.712
588 0 78.1458 13.0269 1018 60.4735 954.661 494.112
589 0 81.0747 11.4956 932 62.6974 954.94 493.117
590 0 85.1018 12.7377 1084 60.7592 955.436 492.924
591 0 86.2065 12.9109 1113 61.3234 955.735 489.108
592 0 89.033 11.4677 1021 63.1587 955.204 489.963
593 1 47.0876 10.2362 482 62.2344 954.836 509.21
594 0 47.1351 9.31365 439 62.7768 954.656 509.991
595 0 50.0271 10.8741 544 61.5368 954.798 507.625
596 0 46.0237 9.36474 431 65.2343 954.552 505.747
597 0 53.0205 11.2598 597 62.005 954.749 506.035
598 0 55.0952 11.4711 632 61.1487 954.828 506
599 0 58.0621 11.436 664 61.0196 954.908 504.985
600 0 58.0581 11.0407 641 62.1217 954.671 504.151
601 0 60.0675 10.4216 626 62.7141 954.498 503.518
602 0 61.0438 10.8774 664 62.3855 954.836 502.402
603 0 63.1232 11.6914 738 60.9675 954.703 502.79
604 0 66.0629 10.5203 695 61.9424 954.681 500.187
605 0 68.0786 11.6042 790 61.0835 954.476 498.747
606 0 70.0798 11.4156 800 61.44 955.491 496.652
607 0 75.1433 11.4448 860 60.1012 955.398 496.419
608 0 77.0725 12.2612 945 59.2741 955.2 494.474
609 0 77.0846 10.5728 815 61.1865 955.555 496.253
610 0 80.1358 12.1044 970 60.2619 955.408 492.864
611 0 83.111 13.3677 1111 57.9478 955.012 489.713
612 0 85.1948 11.8787 1012 59.6591 954.483 488.551
613 0 86.2242 11.1106 958 60.2119 954.479 488.601
614 0 91.3485 13.0051 1188 57.8838 954.786 487.434
615 0 94.3178 10.1253 955 61.1005 955.153 482.48
616 0 98.0662 11.6248 1140 59.3491 954.949 481.676
617 0 100.116 11.9261 1194 58.9054 955.316 481.668
618 1 53.0602 10.7614 571 57.8284 955.058 505.135
619 0 54.1268 8.90502 482 59.3631 954.975 505.429
620 0 54.0655 10.3208 558 58.4176 954.52 501.882
621 0 57.131 10.0471 574 58.7944 954.481 501.437
622 0 58.0449 9.50988 552 59.1268 954.882 500.444
623 0 61.0641 10.4317 637 57.8713 954.532 504.017
624 0 60.0808 10.5858 636 58.0582 954.884 502.508
625 0 65.1028 11.1823 728 57.3819 954.615 497.51
626 0 67.2051 10.6688 717 57.484 954.477 500.596
627 0 68.1471 9.86103 672 59.0566 953.818 495.119
628 0 69.1033 9.88376 683 58.8067 953.53 497.047
629 0 72.2303 10.8265 782 58.546 954.491 493.606
630 0 76.1913 13.4136 1022 55.4521 953.81 496.288
631 0 75.116 12.1279 911 57.3117 953.944 490.375
632 0 78.202 11.6749 913 57.0745 954.472 493.585
633 0 81.0632 11.2628 913 58.0427 954.018 491.107
634 0 82.1849 11.6323 956 58.4038 953.438 488.801
635 0 85.187 12.8658 1096 57.563 954.087 488.088
636 0 87.3791 11.8907 1039 58.461 954.327 489.146
637 0 93.2348 13.5143 1260 56.8556 954.308 485.86
638 0 95.1841 12.2079 1162 58.4639 954.488 484.326
639 1 46.0566 9.22778 425 60.5082 954.908 505.148
640 0 47.0669 9.30591 438 60.2192 954.906 505.226
641 0 50.0636 12.3643 619 57.496 955.73 506.011
642 0 49.1287 9.05785 445 62.2674 955.056 501.811
643 0 52.0684 9.50672 495 60.9434 954.725 507.046
644 0 54.0803 10.8912 589 59.3328 953.952 504.005
645 0 57.1226 10.9939 628 58.7118 954.376 505.282
646 0 58.0944 10.3108 599 60.0835 954.671 500.339
647 0 60.0713 12.8847 774 57.314 954.979 498.957
648 0 62.1229 10.9782 682 59.8138 954.831 497.309
649 0 63.1217 10.2817 649 60.641 954.924 501.812
650 0 68.0979 12.2911 837 58.4922 954.597 496.73
651 0 69.1908 11.5622 800 59.77 955.064 495.481
652 0 69.2094 10.9956 761 60.6807 955.29 496.703
653 0 74.1388 11.3166 839 60.0489 954.558 495.919
654 0 73.2835 9.41549 690 62.5101 953.544 493.475
655 0 75.0554 9.96598 748 62.6912 954.501 489.785
656 0 81.309 12.4463 1012 59.2579 954.565 490.034
657 0 81.2469 12.222 993 60.4199 954.436 489.062
658 0 82.1532 10.7726 885 61.8475 954.61 484.986
659 0 87.3873 12.7021 1110 59.6874 954.323 486.32
660 0 89.1226 10.4126 928 62.6131 954.619 484.671
661 0 92.2521 10.7748 994 62.4477 954.276 482.439
662 0 93.159 9.70384 904 63.5376 953.9 476.351
663 0 96.1478 10.5255 1012 63.0356 954.203 478.822
664 1 46.0602 8.706 401 61.6833 953.269 505.793
665 0 44.0494 5.67544 250 64.804 953.972 501.996
666 0 45.0815 8.20735 370 63.1027 954.276 501.919
667 0 50.019 8.45679 423 62.5721 953.792 500.901
668 0 46.0727 7.96566 367 63.842 954.362 500.123
669 0 51.0699 7.49952 383 63.6527 953.781 498.65
670 0 50.0799 8.28676 415 63.7446 954.754 497.79
671 0 54.104 7.96615 431 63.0812 955.879 493.452
672 0 55.0337 7.52266 414 62.9662 955.06 493.672
673 0 52.0591 7.722 402 64.5672 955.739 492.455
674 0 57.0626 9.0427 516 63.0078 954.926 493.756
675 0 54.0341 8.90179 481 63.2869 955.237 489.979
676 0 58.0615 9.12825 530 63.9094 955.523 491.038
677 0 64.1607 8.85277 568 64.162 955.511 490
678 0 61.0568 6.37112 389 66.7249 955.959 484.591
679 0 63.0469 7.99405 504 65.004 955.79 482.256
680 0 66.0847 5.38703 356 66.4382 955.567 476.171
681 1 161.43 6.99376 1129 68.0682 955.723 424.469
682 1 86.2771 13.051 1126 58.8295 955.642 490.862
683 0 90.1028 11.953 1077 60.2748 955.314 488.094
684 1 48.0978 10.4994 505 59.3842 956.123 509.287
685 0 48.0493 8.28317 398 62.2035 956.068 510.442
686 0 50.0713 10.8445 543 59.0921 954.823 510.096
687 0 50.1032 10.0393 503 60.2744 955.137 505.92
688 0 54.1563 10.8021 585 59.2615 955.14 505.981
689 0 54.066 11.1345 602 59.3854 954.925 506.309
690 0 57.124 12.2716 701 57.9187 955.22 506.037
691 0 59.0572 8.90662 526 61.0152 955.667 507.259
692 0 61.0645 12.7079 776 57.5503 955.046 503.714
693 0 61.1454 9.95987 609 61.2069 954.517 500.072
694 0 64.1681 11.0647 710 59.8239 953.8 499.984
695 0 68.1308 12.0944 824 58.301 954.148 498.624
696 0 69.3396 11.8836 824 58.6869 953.869 496.578
697 0 71.1431 10.7108 762 59.7703 954.744 498.785
698 0 73.1688 11.3983 834 59.0216 954.784 497.546
699 0 78.2969 13.0273 1020 56.6039 954.615 498.518
700 0 78.3013 12.6307 989 58.0303 954.819 493.95
701 1 38.1428 9.07117 346 58.5925 954.382 515.72
702 0 42.1281 10.8004 455 56.1758 954.004 515.923
703 0 42.063 9.84238 414 58.7198 954.179 514.106
704 0 43.106 10.3466 446 58.843 954.534 512.61
705 0 46.2009 12.121 560 55.9804 953.964 511.173
706 0 47.2066 11.1849 528 57.0985 953.839 511.936
707 0 48.1281 12.4875 601 55.9401 953.201 511.23
708 0 48.0936 11.436 550 57.7218 953.844 510.231
709 0 51.1543 12.7067 650 55.7415 954.351 510.26
710 0 50.1276 12.2687 615 57.0894 953.746 507.688
711 0 53.0709 10.5331 559 58.9589 954.436 507.147
712 0 55.2267 10.2124 564 59.0461 953.812 505.615
713 0 54.1278 11.6206 629 57.9762 953.595 504.687
714 0 59.0938 9.74721 576 58.158 953.896 508.931
715 0 57.2085 11.292 646 57.5619 954.325 507.616
716 0 62.0738 11.9052 739 56.751 954.212 505.365
717 0 61.1159 11.6991 715 57.6126 954.692 501.21
718 0 63.0734 11.5104 726 57.5675 955.044 501.291
719 0 63.0441 10.9447 690 58.2739 954.977 502.784
720 0 65.1412 10.8687 708 58.7585 954.965 500.219
721 0 70.0646 11.6892 819 57.3919 954.382 499.236
722 0 72.1208 10.3715 748 58.2634 954.463 498.999
723 0 74.212 10.5509 783 58.6373 953.427 495.587
724 1 41.0514 10.9131 448 56.0134 954.821 514.446
725 0 41.0422 11.7927 484 55.564 954.395 513.862
726 0 42.2169 10.1144 427 56.7541 954.016 514.806
727 0 45.0285 10.993 495 56.0909 954.76 512.533
728 0 47.0446 9.88423 465 56.9075 954.372 511.239
729 0 49.1903 11.73 577 55.7626 954.243 509.291
730 0 48.0574 9.77997 470 57.9298 954.021 510.051
731 0 50.0632 11.0061 551 56.8058 953.575 508.751
732 0 52.1087 10.2862 536 57.0261 953.724 509.644
733 0 54.2082 12.0462 653 55.6907 953.285 508.473
734 0 55.1909 11.0888 612 56.518 953.098 505.376
735 0 55.1441 11.2977 623 56.886 954.157 502.77
736 0 57.2433 10.237 586 57.0768 954.254 503.338
737 0 60.1871 9.91907 597 57.3384 953.945 497.658
738 0 62.1612 10.9393 680 56.4191 954.434 500.904
739 0 64.2712 11.0003 707 56.174 954.235 498.603
740 0 67.062 10.3337 693 56.7561 954.287 500.134
741 0 68.2187 11.9615 816 55.1324 954.006 496.739
742 0 73.1127 10.6958 782 55.7954 953.876 499.432
743 0 72.2218 10.3847 750 56.9373 953.465 492.541
744 0 75.1923 15.0148 1129 52.5004 953.237 492.477
745 0 77.063 9.92694 765 57.4627 952.809 490.854
746 0 80.0762 10.4525 837 56.9008 953.135 491.793
747 0 84.1202 12.0304 1012 54.7065 954.113 494.18
748 1 39.0589 6.75903 264 58.4091 954.292 512.148
749 0 42.0355 10.7528 452 55.6527 954.259 512.748
750 0 43.0164 11.3445 488 55.4488 954.256 510.902
751 0 43.027 12.7827 550 54.0073 953.513 509.696
752 0 44.171 10.7537 475 56.6379 953.366 509.859
753 0 47.0398 10.608 499 56.2465 954.23 510.665
754 0 47.0421 10.7988 508 56.5059 954.569 509.191
755 0 49.0363 9.29924 456 57.9912 954.182 507.886
756 0 49.0302 9.42277 462 58.71 954.195 505.539
757 0 52.1086 10.0559 524 57.3855 954.479 505.931
758 0 55.118 10.7043 590 56.8153 954.603 505.181
759 0 57.0268 10.2233 583 56.6329 953.355 504.124
760 0 59.0886 9.95116 588 57.5527 953.514 503.774
761 0 60.1086 11.4626 689 56.2134 953.415 501.173
762 0 63.0619 13.0507 823 55.0632 953.748 498.773
763 0 63.1421 10.8327 684 57.3567 954.123 500.937
764 0 64.2348 11.3957 732 56.9454 953.671 497.489
765 0 67.1014 11.1324 747 57.7122 953.365 497.222
766 0 73.1661 11.9728 876 55.984 953.369 498.114
767 0 74.1304 10.576 784 56.9694 953.584 496.546
768 0 75.2647 11.2802 849 57.0518 953.742 493.552
769 0 78.1333 10.4565 817 57.8384 953.891 492.864
770 1 40.1092 12.2416 491 55.1466 953.707 510.743
771 0 44.0241 10.1308 446 56.8834 954.034 511.197
772 0 44.1193 11.9449 527 56.2751 954.135 510.245
773 0 45.1517 9.92212 448 57.4821 953.087 512.529
774 0 46.1579 10.2474 473 57.5729 953.564 510.347
775 0 49.0916 11.448 562 56.1904 953.541 506.445
776 0 51.0735 11.4932 587 56.0613 953.264 507.876
777 0 54.0392 11.8803 642 55.4673 953.355 505.81
778 0 54.1154 10.2928 557 57.6266 954.081 504.741
779 0 56.0547 11.5423 647 56.3756 954.294 504.397
780 0 60.0401 11.2925 678 56.444 954.444 504.214
781 0 59.0718 10.4957 620 57.1419 953.363 504.737
782 0 60.1195 11.6767 702 56.1154 953.94 503.929
783 0 64.1698 11.2514 722 56.5277 954.309 502.301
784 0 67.0212 11.3546 761 56.2799 953.848 500.187
785 0 68.0884 11.162 760 56.479 953.99 501.908
786 0 71.1017 12.236 870 55.5448 954.314 496.688
787 0 74.086 12.337 914 55.8982 954.304 497.187
788 0 77.0618 14.1056 1087 54.0083 953.558 497.131
789 0 80.1242 12.5181 1003 55.658 954.119 495.576
790 1 43.0934 11.0458 476 56.042 953.681 513.05
791 0 45.1781 11.178 505 56.4178 953.194 511.75
792 0 45.0364 8.83729 398 59.2789 952.972 511.183
793 0 46.0402 9.29622 428 58.5164 953.951 512.467
794 0 49.108 11.0776 544 56.3824 954.373 512.221
795 0 50.1119 11.9932 601 56.3062 954.381 509.18
796 0 49.0826 9.55533 469 60.0085 954.162 505.806
797 0 52.0604 9.33532 486 59.3745 954.27 506.395
798 0 55.0654 11.8949 655 57.3252 954.246 505.255
799 0 57.0748 11.2834 644 57.6894 954.039 505.503
800 0 60.0547 11.9891 720 57.1556 954.382 501.979
801 0 61.1098 13.6803 836 55.2548 954.41 502.065
802 0 63.1206 11.0899 700 58.2914 954.521 500.321
803 0 64.1028 13.3068 853 56.5545 954.158 498.801
804 0 66.1195 12.9614 857 56.9393 954.884 499.755
805 0 69.1492 10.9907 760 58.7382 954.368 495.003
806 0 73.1424 11.1016 812 58.7709 954.451 498.1
807 0 74.1821 11.7953 875 58.0777 953.589 495.099
808 0 78.0465 10.6603 832 59.0553 953.595 496.548
809 0 80.1447 11.2796 904 58.6737 953.415 496.217
810 0 84.0644 10.8369 911 59.5335 953.917 491.324
811 0 86.1152 10.1956 878 60.1321 953.797 491.017
812 0 91.2124 12.6956 1158 57.8169 954.198 489.977
813 0 93.1386 11.1876 1042 59.9472 955.183 488.269
814 1 47.0836 10.5769 498 59.1928 954.38 511.1
815 0 52.13 11.4521 597 57.8693 954.427 510.347
816 0 51.1079 10.9181 558 59.3817 954.52 508.353
817 0 53.1585 10.9296 581 59.6317 954.707 507.435
818 0 54.0618 11.8383 640 58.6609 954.645 508.534
819 0 58.1363 13.8812 807 56.4312 954.226 505.975
820 0 58.162 12.3276 717 58.325 954.262 507.098
821 0 59.0699 11.5287 681 60.044 954.504 502.915
822 0 62.2082 10.0308 624 60.774 953.43 505.268
823 0 65.0647 12.6643 824 58.3544 954.377 501.682
824 0 67.101 11.3858 764 59.4791 953.312 500.61
825 0 69.1779 12.5329 867 58.0081 953.375 501.866
826 0 71.1137 12.1355 863 58.7196 953.727 499.19
827 0 74.245 11.1119 825 59.2121 953.542 499.955
828 0 77.0988 12.7239 981 57.7757 953.883 497.212
829 0 78.1022 13.3799 1045 57.289 953.992 496.89
830 0 82.1771 10.9641 901 59.8535 953.984 492.785
831 0 81.1215 10.6014 860 60.7046 953.815 494.229
832 0 86.0548 11.8297 1018 59.2937 953.443 489.608
833 0 89.1749 12.212 1089 58.5335 953.867 492.158
834 1 48.0282 12.222 587 55.4225 953.962 513.859
835 0 49.0411 10.4402 512 56.4902 953.139 513.617
836 0 49.083 9.49412 466 59.088 952.826 510.837
837 0 52.0598 12.0823 629 56.1765 953.458 510.407
838 0 54.0188 11.6811 631 57.0666 953.52 507.246
839 0 53.0407 10.3694 550 58.4273 953.131 511.293
840 0 56.0264 13.1724 738 55.2656 953.023 509.679
841 0 58.1226 11.9575 695 56.7727 953.155 507.873
842 0 58.0221 10.9613 636 58.0236 953.514 508.52
843 0 61.0311 13.4194 819 55.4396 954.013 505.335
844 0 62.0791 13.6922 850 55.4529 954.509 504.713
845 0 64.0411 11.9455 765 56.932 954.399 504.133
846 0 66.0733 12.5315 828 56.3575 954.196 504.978
847 0 66.0399 9.90311 654 59.0872 953.57 500.694
848 0 69.1473 10.803 747 58.3561 953.671 501.908
849 0 72.0868 13.5808 979 55.8396 953.875 497.704
850 0 75.148 12.7083 955 55.9037 953.525 501.273
851 0 75.1783 10.0561 756 59.4775 953.931 496.057
852 0 79.0896 13.6554 1080 55.3565 954.327 496.615
853 0 81.0732 13.8393 1122 55.3547 954.66 492.678
854 0 84.287 13.0151 1097 56.5187 954.459 491.329
855 0 87.1156 13.396 1167 55.9049 954.168 491.44
856 1 44.1887 10.8399 479 56.9332 953.599 514.056
857 0 48.0474 11.5511 555 56.7532 953.414 510.528
858 0 46.0547 9.61899 443 59.447 953.887 509.837
859 0 50.0734 11.0837 555 57.5135 953.575 510.029
860 0 51.0563 8.53959 436 59.7156 953.589 512.103
861 0 53.1034 12.2026 648 58.2299 952.958 510.313
862 0 52.112 10.4007 542 61.3819 954.421 506.566
863 0 55.1513 12.3116 679 58.5685 954.778 505.863
864 0 59.092 13.0982 774 56.9935 954.09 507.797
865 0 59.1346 11.922 705 58.5404 953.509 505.882
866 0 63.0983 13.6929 864 56.7801 953.534 503.33
867 0 65.1815 13.7769 898 56.0835 953.771 504.031
868 0 65.1488 11.9879 781 58.7298 953.796 502.225
869 0 68.0404 12.5955 857 58.1214 953.782 499.846
870 0 67.2046 10.3862 698 60.5917 953.745 501.854
871 0 72.0735 12.3763 892 58.2601 952.854 499.151
872 0 72.0713 10.4064 750 61.032 952.923 498.027
873 0 75.0625 9.81848 737 61.2768 952.982 499.976
874 0 77.0908 11.7653 907 59.7663 952.759 496.773
875 0 83.3101 12.4955 1041 58.0778 953.634 498.334
876 0 84.2051 11.8401 997 59.7051 953.097 493.686
877 0 88.2625 12.0436 1063 59.3659 953.457 492.208
878 0 92.1543 13.0867 1206 57.5788 953.782 492.828
879 0 94.1426 12.0987 1139 58.9456 953.381 489.653
880 0 100.15 12.012 1203 58.4954 953.622 491.246
881 1 48.1414 8.99433 433 60.8938 953.441 511.356
882 0 49.0639 10.8634 533 59.3415 953.508 511.154
883 0 52.1631 12.3075 642 57.7741 953.889 510.567
884 0 53.049 11.3291 601 58.6839 953.225 511.133
885 0 55.0434 12.1177 667 58.1934 953.565 507.937
886 0 56.0593 12.7187 713 57.3843 953.954 510.087
887 0 59.0898 11.5587 683 58.1962 953.678 507.256
888 0 58.1375 11.0944 645 59.1178 953.446 504.003
889 0 64.1671 14.3376 920 54.7641 954.176 506.625
890 0 64.1577 11.4406 734 57.1144 953.618 507.371
891 0 65.0732 14.5068 944 55.2373 954.525 502.115
892 0 70.0388 15.0916 1057 54.1022 954.279 502.525
893 0 71.1323 12.4838 888 56.1712 953.302 502.543
894 0 71.1527 12.3116 876 57.4464 954.016 496.435
895 0 76.1475 13.7628 1048 55.4494 953.921 498.849
896 0 77.0809 11.5333 889 58.1136 953.631 495.288
897 0 81.0573 12.0409 976 57.5318 954.508 495.055
898 0 82.0714 12.6719 1040 56.7298 954.193 496.041
899 0 84.1518 12.0259 1012 58.085 953.635 494.015
900 0 87.1615 11.7942 1028 57.9533 954.322 493.358
901 0 88.1642 10.9909 969 58.805 954.05 495.703
902 0 92.0931 12.3136 1134 58.1684 954.08 489.653
903 1 44.0465 9.7397 429 59.4033 953.876 511.483
904 0 48.0806 13.6022 654 55.7492 953.963 509.554
905 0 47.0464 10.309 485 59.5134 953.641 510.4
906 0 49.0481 13.8028 677 56.1329 954.384 508.892
907 0 50.0707 12.063 604 57.9735 954.742 509.568
908 0 50.0843 12.5988 631 57.8051 954.788 507.322
909 0 53.2195 10.9358 582 59.1976 955.801 509.289
910 0 54.1111 10.3306 559 60.9374 956.021 507.361
911 0 53.093 11.7341 623 59.9743 955.931 507.482
912 0 58.08 10.5372 612 60.3301 955.48 509.141
913 0 58.1379 11.3695 661 60.4054 956.395 505.389
914 0 60.0966 10.35 622 61.9839 955.072 502.244
915 0 62.0219 10.4641 649 61.3005 954.943 501.733
916 0 66.1528 10.8234 716 60.8017 954.651 502.513
917 0 68.09 14.4074 981 57.5566 954.775 501.83
918 0 70.3537 12.9204 909 59.2112 954.287 500.629
919 0 72.175 10.8486 783 61.6743 954.613 499.207
920 0 75.0824 13.1988 991 59.782 954.86 498.296
921 0 78.1353 11.5057 899 62.1357 954.174 496.509
922 0 83.0862 11.9274 991 61.1645 953.823 496.084
923 0 84.0412 12.7081 1068 60.6714 953.638 492.495
924 0 86.2758 11.9037 1027 61.8676 953.771 491.497
925 0 89.142 12.3286 1099 61.6834 953.426 491.554
926 0 92.3264 11.8926 1098 62.4845 953.65 489.148
927 0 92.0614 11.5249 1061 63.4948 953.278 488.763
928 0 97.0903 11.6386 1130 63.5841 953.795 488.963
929 1 49.0498 11.7024 574 62.0592 953.31 510.152
930 0 52.0357 10.4736 545 62.3413 953.138 512.108
931 0 52.0489 10.9704 571 63.1996 953.314 506.587
932 0 54.1083 11.902 644 62.632 953.469 508.986
933 0 56.0788 11.2877 633 62.8389 953.837 509.355
934 0 56.0952 11.9618 671 63.0224 954.155 506.75
935 0 61.2692 12.9429 793 61.86 954.245 505.183
936 0 63.1316 11.4048 720 63.6806 954.175 504.175
937 0 65.1726 11.7227 764 63.2997 954.378 505.119
938 0 67.2122 11.858 797 63.4002 954.312 504.41
939 0 69.2277 11.9461 827 63.994 954.219 501.302
940 0 71.1532 11.2293 799 65.2691 953.559 498.741
941 0 77.2021 12.6551 977 63.4473 953.231 497.626
942 0 78.096 13.3169 1040 63.3635 953.872 497.375
943 0 81.0631 12.7555 1034 64.0087 953.775 497.403
944 1 44.1012 11.5643 510 63.4588 953.933 515.347
945 0 46.0814 10.59 488 65.3873 954.924 513.746
946 0 47.0563 12.3469 581 63.5714 954.429 514.337
947 0 49.0499 11.0092 540 65.613 954.485 512.03
948 0 48.035 12.137 583 65.0515 954.42 511.563
949 0 50.163 12.5391 629 64.1335 955.235 510.995
950 0 52.1555 13.0571 681 63.2173 955.024 509.675
951 0 56.1141 11.7617 660 64.2318 954.815 508.524
952 0 58.0571 11.4887 667 64.6372 954.766 505.868
953 0 58.1164 12.974 754 63.3873 954.666 504.468
954 0 60.1705 11.966 720 63.1403 954.757 507.396
955 0 63.1786 13.2798 839 62.1597 953.954 502.184
956 0 62.0774 11.7917 732 64.8675 954.231 501.607
957 0 69.1778 11.9113 824 63.3216 954.689 500.941
958 0 70.1065 12.2956 862 63.0824 954.588 499.187
959 0 73.0748 11.7551 859 62.7031 954.3 500.452
960 0 76.0679 13.1987 1004 61.6444 954.524 496.783
961 0 78.1159 13.2879 1038 60.999 954.429 494.696
962 0 82.1223 13.9548 1146 59.4904 955.235 496.441
963 0 84.1611 12.9989 1094 60.8245 954.833 494.517
964 0 85.152 12.6949 1081 61.4033 955.349 491.196
965 0 89.2022 12.7127 1134 61.2196 953.959 488.192
966 0 90.0588 10.5042 946 63.3901 954.31 485.896
967 1 47.0351 10.8855 512 60.3613 954.148 509.494
968 0 48.0429 11.344 545 60.5009 954.73 507.488
969 0 52.0646 12.0235 626 59.1054 955.786 509.856
970 0 52.0323 11.1277 579 60.247 954.294 507.225
971 0 54.0643 11.1719 604 60.3593 955.041 506.732
972 0 54.052 11.1189 601 60.4692 955.032 507.158
973 0 56.1056 10.3376 580 60.6897 954.736 504.314
974 0 60.1555 10.8552 653 59.6708 953.894 504.023
975 0 60.1375 12.222 735 58.1782 954.761 503.778
976 0 63.0438 12.1027 763 58.3552 954.139 502.936
977 0 65.1299 12.928 842 57.4715 954.255 500.281
978 0 67.166 11.5981 779 59.0526 954.629 499.294
979 0 68.1072 11.4085 777 59.7593 955.085 497.269
980 0 72.043 12.909 930 57.7667 954.976 497.376
981 0 72.231 11.4217 825 59.9709 954.387 494.455
982 0 75.1012 13.2754 997 57.6269 955.093 493.362
983 0 79.1063 13.918 1101 57.119 954.362 492.392
984 0 82.2291 10.7991 888 59.723 954.342 495.096
985 0 82.0799 12.6828 1041 58.2834 955.145 494.235
986 0 89.144 13.6633 1218 57.1437 955.291 489.45
987 1 45.0933 12.5518 566 56.5954 955.719 512.23
988 0 43.1093 9.95144 429 59.8998 955.166 510.21
989 0 47.0441 12.7115 598 56.7341 954.967 510.296
990 0 50.0493 10.8493 543 58.3996 954.477 510.484
991 0 51.1058 11.9556 611 57.5646 954.203 508.851
992 0 51.109 12.4244 635 57.8677 955.246 508.154
993 0 55.1114 11.8487 653 58.1118 954.769 506.606
994 0 54.0834 10.5578 571 59.7671 955.261 505.695
995 0 57.0748 12.6676 723 57.2669 955.199 505.783
996 0 57.1205 12.2198 698 58.0086 955.751 505.039
997 0 61.1025 11.9962 733 57.8936 955.634 502.36
998 0 63.1026 13.0581 824 57.2015 954.981 501.165
999 0 68.2281 11.0219 752 58.387 955.314 502.609
1000 0 67.0524 11.3195 759 58.4914 954.495 499.949
1001 0 71.0646 11.1729 794 57.6877 954.605 499.759
1002 0 73.1191 13.3071 973 56.4841 955.237 496.847
1003 0 75.1549 11.0439 830 58.4145 955.181 497.145
1004 0 77.1349 11.7716 908 57.6178 954.88 496.487
1005 1 39.0855 10.4131 407 58.3194 954.956 512.833
1006 0 41.1139 9.68043 398 58.7714 953.947 513.704
1007 0 44.0196 10.5635 465 58.0796 954.232 512.682
1008 0 45.0452 10.656 480 57.8208 954.865 511.546
1009 0 44.0863 10.2072 450 59.2422 954.338 510.471
1010 0 49.0905 11.3464 557 57.2567 954.56 510.025
1011 0 51.0613 11.731 599 57.2237 954.97 508.835
1012 0 52.0963 11.8818 619 57.4733 955.229 508.842
1013 0 53.0415 10.8783 577 58.4506 954.324 508.399
1014 0 56.0524 13.2554 743 56.2073 953.949 506.996
1015 0 58.0283 11.4944 667 58.2219 954.585 504.09
1016 0 59.0568 11.7345 693 57.7229 954.48 505.254
1017 0 60.135 11.2414 676 57.9675 954.044 505.401
1018 0 64.0341 11.5407 739 58.0338 954.713 502.169
1019 0 67.1787 10.5093 706 58.2663 955.164 502.708
1020 0 67.1759 11.7006 786 57.7456 954.504 499.372
1021 0 70.1689 11.6148 815 58.081 954.44 497.145
1022 0 71.0758 12.7892 909 57.0264 953.671 498.971
1023 0 75.0939 12.7707 959 56.9677 954.087 497.48
1024 0 77.1172 12.7598 984 57.0742 954.253 494.032
1025 0 82.2463 11.7817 969 57.515 954.111 493.463
1026 0 83.1083 11.3466 943 58.4358 953.697 491.672
1027 0 88.1803 11.726 1034 57.531 953.776 493.363
1028 0 89.0727 11.3727 1013 58.2527 953.583 487.782
1029 0 92.1349 12.5685 1158 57.399 952.416 485.914
1030 0 97.1453 12.1673 1182 56.9738 952.353 488.119
1031 1 48.0782 11.9389 574 56.0767 952.765 512.697
1032 0 50.0462 12.2886 615 56.135 953.016 508.966
1033 0 55.2736 12.0492 666 55.5556 952.713 508.192
1034 0 55.0574 14.2397 784 54.0523 953.149 508.48
1035 0 59.0726 11.4097 674 55.7715 953.377 507.236
1036 0 62.2839 12.3306 768 54.5742 952.479 508.177
1037 0 63.0396 12.6587 798 54.698 952.986 505.689
1038 0 64.0856 11.5783 742 55.3828 952.956 503.674
1039 0 68.312 12.7503 871 54.1228 952.479 502.669
1040 0 70.4064 11.7035 824 54.909 951.881 502.835
1041 0 72.0964 12.1504 876 54.4703 952.027 502.741
1042 0 73.2312 10.8424 794 56.0919 952.826 496.329
1043 0 78.1604 10.0434 785 56.2764 952.651 497.028
1044 0 82.233 12.7808 1051 53.8934 953.047 493.412
1045 0 83.305 13.2525 1104 53.385 952.232 491.847
1046 0 85.1826 10.589 902 55.6153 952.431 493.11
1047 0 87.122 10.6862 931 55.4619 952.231 490.681
1048 1 48.2231 14.3707 693 50.9178 952.183 510.928
1049 0 48.1522 12.0036 578 53.6436 952.72 512.211
1050 0 50.0479 10.8696 544 54.1875 952.721 511.892
1051 0 51.0653 11.0447 564 54.4787 952.09 507.167
1052 0 55.0528 11.9885 660 52.9818 952.356 505.786
1053 0 55.1027 11.5239 635 53.7984 951.913 507.545
1054 0 59.1464 13.7963 816 51.7377 952.384 506.01
1055 0 59.1694 11.222 664 53.9684 952.199 504.718
1056 0 62.0698 12.0348 747 53.3199 952.643 502.434
1057 0 63.0634 13.0345 822 52.264 952.614 504.305
1058 0 68.1849 13.4927 920 51.3685 952.286 502.515
1059 0 69.1434 12.2354 846 52.6548 952.344 499.047
1060 0 71.094 11.2246 798 53.188 952.68 500.706
1061 0 72.0614 11.1849 806 53.3387 952.438 500.65
1062 0 73.1003 12.7222 930 52.7796 952.114 498.559
1063 0 78.1217 13.4278 1049 51.8017 952.071 497.893
1064 0 81.0562 11.5475 936 53.9947 952.656 491.12
1065 0 84.5275 11.653 985 53.7015 952.766 493.407
1066 0 86.2402 11.9086 1027 53.8432 952.915 487.198
1067 1 42.0508 9.3934 395 53.1747 953.375 515.59
1068 0 46.069 9.70284 447 53.0962 953.143 513.163
1069 0 49.0646 13.2682 651 50.4194 953.475 513.579
1070 0 47.0865 9.5144 448 54.6719 952.906 511.694
1071 0 51.0936 10.6471 544 53.1342 952.721 511.471
1072 0 52.0357 10.0124 521 54.1862 953.1 509.96
1073 0 57.1014 11.4008 651 52.3118 953.111 509.96
1074 0 56.1367 12.0242 675 52.3126 953.09 505.576
1075 0 59.1834 12.4021 734 51.5763 953.198 505.594
1076 0 62.0864 12.3376 766 51.6606 953.274 506.863
1077 0 63.1602 14.0278 886 50.3815 952.982 503.395
1078 0 66.1596 12.8628 851 51.2879 952.56 502.779
1079 0 68.1429 12.195 831 51.9446 953.286 501.398
1080 0 70.1316 15.7561 1105 49.4199 953.461 498.78
1081 0 73.1018 10.5469 771 53.642 952.468 501.896
1082 0 74.0672 11.7596 871 52.9426 953.313 495.623
1083 0 76.0784 12.7237 968 52.6736 953.632 495.495
1084 0 80.0837 12.3621 990 52.6121 953.489 494.883
1085 0 84.2015 11.6981 985 53.2091 953.85 494.74
1086 0 87.2101 12.7852 1115 52.4762 953.324 491.439
1087 0 89.1844 13.915 1241 51.2329 952.924 491.874
1088 0 94.1302 13.8319 1302 51.5184 953.128 490.562
1089 0 94.136 14.6809 1382 51.5478 953.283 485.502
1090 0 96.2968 11.8903 1145 54.2795 952.806 488.004
1091 0 100.22 13.6999 1373 52.732 952.792 482.53
1092 0 107.099 13.9497 1494 52.6613 953.04 482.394
1093 0 107.346 10.1727 1092 55.6694 952.357 483.28
1094 0 112.272 10.8843 1222 55.2938 953.87 480.109
1095 1 48.1385 11.1138 535 53.5383 954.363 511.097
1096 0 50.0947 13.0952 656 51.5076 954.523 509.904
1097 0 52.1638 12.1924 636 52.4953 953.739 511.374
1098 0 54.0807 10.1145 547 54.5594 953.488 510.329
1099 0 56.1259 11.3317 636 53.8821 953.423 507.036
1100 0 59.0549 12.3783 731 52.8482 953.588 507.928
1101 0 58.194 11.1524 649 54.6795 953.59 506.875
1102 0 64.1885 11.2014 719 54.598 953.978 505.577
1103 0 64.1489 11.3174 726 54.9036 953.883 504.266
1104 0 68.0849 11.2066 763 54.4967 953.613 503.459
1105 0 68.1734 12.0135 819 54.1355 953.914 503.02
1106 0 72.2902 11.7028 846 54.4929 953.935 502.736
1107 0 74.1136 11.9546 886 54.4187 954.096 498.617
1108 0 77.118 13.0838 1009 53.439 953.854 499.516
1109 0 79.156 12.7344 1008 54.1875 953.781 496.274
1110 0 83.148 13.2294 1100 53.3191 954.446 495.312
1111 0 82.1148 12.8113 1052 54.2205 953.914 497.69
1112 0 85.1927 13.3227 1135 54.1912 954.232 493.49
1113 0 86.1512 10.5396 908 56.5859 954.663 492.848
1114 1 45.0481 12.4977 563 53.3126 954.188 512.474
1115 0 45.2171 11.0135 498 54.4859 953.795 513.693
1116 0 47.1331 11.6267 548 54.2573 954.358 509.513
1117 0 50.18 11.1 557 54.4794 954.084 508.952
1118 0 52.2993 12.7535 667 53.1079 954.22 510.912
1119 0 54.1827 14.1004 764 52.051 953.751 511.141
1120 0 56.2556 12.8521 723 53.906 953.842 505.216
1121 0 58.2119 11.9391 695 54.8791 954.309 505.727
1122 0 58.1558 10.6094 617 56.3712 954.133 505.044
1123 0 58.0217 10.6512 618 57.1424 954.238 506.188
1124 0 67.3064 13.4757 907 53.5226 954.665 506.215
1125 0 65.1329 13.0656 851 54.8167 954.792 501.912
1126 0 67.1872 12.934 869 55.2716 955.064 500.781
1127 0 69.1308 12.498 864 55.7188 954.501 501.907
1128 0 70.159 11.2031 786 56.8702 954.26 500.695
1129 0 73.1505 10.2802 752 57.1516 954.68 503.088
1130 0 76.0784 12.7763 972 56.2284 954.391 495.591
1131 0 80.2305 12.2273 981 56.4924 954.153 494.126
1132 0 81.1345 12.2513 994 56.495 953.902 494.645
1133 0 82.1411 10.6524 875 58.3531 953.19 491.545
1134 0 86.1986 11.7287 1011 57.4797 954.295 493.017
1135 0 90.0646 12.5021 1126 57.0888 954.834 488.854
1136 0 93.2144 9.84827 918 59.1176 954.696 489.035
1137 1 47.0202 10.8039 508 57.6555 954.116 507.126
1138 0 48.0498 9.65666 464 59.0086 953.933 507.468
1139 0 52.0243 11.0525 575 57.7183 954.236 505.47
1140 0 55.0223 11.1046 611 57.0311 954.149 509.607
1141 0 57.1283 14.1436 808 54.5916 954.571 505.762
1142 0 57.1238 10.5385 602 58.4086 954.581 505.076
1143 0 62.098 10.7733 669 57.7489 954.348 502.196
1144 0 64.1757 12.8242 823 55.6306 953.934 503.367
1145 0 66.3116 11.642 772 56.3899 953.868 502.851
1146 0 67.2815 11.816 795 56.6692 954.199 498.433
1147 0 67.2281 10.0702 677 58.452 954.276 498.939
1148 0 74.2781 12.1839 905 56.5326 953.741 496.238
1149 0 76.1243 13.7801 1049 55.2927 954.238 495.33
1150 0 78.3907 10.2308 802 58.9077 953.853 492.803
1151 0 80.1266 12.3929 993 57.1893 954.025 491.892
1152 0 83.1693 12.8172 1066 56.5347 954.159 491.896
1153 1 41.0322 11.6494 478 56.0398 953.835 515.705
1154 0 42.0123 10.7111 450 57.6933 953.54 513.969
1155 0 45.1329 11.3443 512 56.9766 953.934 511.996
1156 0 46.0282 12.1013 557 56.6176 953.943 511.28
1157 0 46.0918 9.71973 448 58.9241 953.694 511.446
1158 0 49.1117 13.0722 642 55.5779 953.681 509.488
1159 0 53.1014 14.3876 764 53.8743 953.894 508.563
1160 0 53.1787 11.3767 605 57.3917 954.17 508.053
1161 0 53.103 12.0144 638 57.7555 953.766 504.784
1162 0 56.081 12.8921 723 56.397 953.398 505.455
1163 0 57.0498 11.2533 642 58.0903 953.372 502.006
1164 0 58.1101 11.547 671 58.3413 953.884 504.472
1165 0 60.1022 11.9796 720 57.5806 953.278 504.389
1166 0 64.2179 12.6756 814 56.7383 954.01 501.666
1167 0 66.0823 12.5601 830 56.5663 954.196 502.225
1168 0 66.1218 11.5696 765 58.5163 954.007 497.937
1169 0 71.1099 12.1221 862 57.6172 954.097 496.179
1170 0 74.1446 11.7203 869 57.641 954.394 498.221
1171 1 37.0215 13.1005 485 54.7464 953.882 515.313
1172 0 32.0287 10.3345 331 58 953.577 515.74
1173 0 35.0472 8.81669 309 59.6084 953.981 514.731
1174 0 37.0977 12.6693 470 55.6064 954.83 516.106
1175 0 38.0929 11.2882 430 57.6023 954.112 513.072
1176 0 41.1486 13.1232 540 55.3296 954.032 511.183
1177 0 42.0437 13.2006 555 55.2973 954.962 510.485
1178 0 43.0416 12.5925 542 56.1697 955.517 511.633
1179 0 43.0464 9.54785 411 58.7762 954.494 510.207
1180 0 45.0834 11.024 497 57.2938 954.145 508.827
1181 0 47.1187 11.9273 562 56.3986 953.774 508.208
1182 0 48.0741 11.3367 545 57.044 953.659 507.371
1183 0 50.0617 13.2636 664 55.3389 953.746 508.354
1184 0 51.0702 11.4352 584 56.6421 954.56 508.998
1185 0 56.2134 12.1146 681 55.956 954.477 506.918
1186 0 55.1167 12.7729 704 55.5753 953.548 505.976
1187 0 56.1005 11.4259 641 56.4072 953.309 507.276
1188 0 58.1249 11.1656 649 56.9122 953.852 503.499
1189 0 60.0819 12.0669 725 56.1186 953.234 504.732
1190 0 63.3817 11.2493 713 57.0014 954.349 500.735
1191 0 65.1804 13.3015 867 55.5236 953.912 502.078
1192 0 67.07 9.751 654 58.2645 953.688 502.346
1193 0 71.1361 13.9732 994 54.8431 954.309 497.854
1194 0 73.0827 11.7401 858 56.7914 954.766 500.669
1195 0 75.087 12.399 931 56.1901 954.068 500.618
1196 0 78.1824 13.2127 1033 56.0145 954.911 496.521
1197 0 78.1202 12.916 1009 57.1913 954.559 494.066
1198 0 83.4426 12.991 1084 56.9262 954.31 493.261
1199 0 85.1298 12.2636 1044 58.1791 953.999 489.989
1200 1 42.1594 10.1994 430 59.2488 954.763 514.919
1201 0 46.1189 14.0506 648 55.9151 954.946 513.659
1202 0 44.154 12.4337 549 58.4973 954.268 512.058
1203 0 45.1648 10.5835 478 60.3556 954.209 513.349
1204 0 48.0236 14.9301 717 56.7866 954.311 510.579
1205 0 50.0358 12.7109 636 57.967 954.741 514.142
1206 0 52.0869 13.2279 689 58.074 954.325 511.27
1207 0 55.1941 12.9362 714 58.1485 954.308 508.819
1208 0 54.1561 13.6642 740 58.6257 954.881 507.819
1209 0 55.0868 9.49411 523 61.5698 954.539 511.421
1210 0 57.1889 12.415 710 59.8549 954.839 506.718
1211 0 57.1776 13.0995 749 59.8144 953.983 504.471
1212 0 63.1377 12.3064 777 59.7439 953.91 504.523
1213 0 64.104 13.0413 836 59.9617 954.54 504.67
1214 0 66.1642 15.2802 1011 57.5035 955.076 505.057
1215 0 69.1691 14.385 995 58.7266 954.737 503.149
1216 0 69.1726 12.1291 839 61.2336 954.616 501.679
1217 0 73.1272 14.591 1067 57.8828 954.657 503.845
1218 0 75.1887 11.2517 846 61.643 954.829 502.234
1219 0 78.2344 14.022 1097 59.7028 954.738 497.728
1220 0 79.0755 13.4176 1061 60.591 954.297 499.077
1221 0 83.1759 13.3091 1107 60.1147 954.4 500.033
1222 0 85.1589 12.3416 1051 61.8735 954.161 494.254
1223 1 38.2128 11.7762 450 61.5911 954.778 517.718
1224 0 41.1141 12.4288 511 60.5401 955.141 517.106
1225 0 42.2271 12.9301 546 60.9212 955.687 515.037
1226 0 43.11 14.0803 607 59.7743 955.697 514.402
1227 0 47.1692 13.6954 646 59.13 954.833 514.642
1228 0 46.1365 12.1379 560 61.3357 954.855 513.112
1229 0 47.1897 14.4523 682 59.4472 954.762 511.855
1230 0 52.1568 14.0921 735 57.8912 955.2 513.976
1231 0 51.0917 13.2898 679 59.7732 954.965 510.816
1232 0 52.1025 12.8401 669 60.145 954.209 512.16
1233 0 53.158 13.1495 699 59.6466 954.64 510.376
1234 0 56.1222 14.7535 828 58.6751 955.46 507.024
1235 0 57.0846 12.9632 740 60.3851 954.785 506.193
1236 0 61.1239 13.8571 847 58.9717 954.56 507.525
1237 0 61.2442 12.3604 757 60.926 954.976 506.268
1238 0 64.0616 14.4704 927 58.4034 955.732 505.249
1239 0 64.0978 13.6822 877 59.8119 954.732 502.449
1240 0 68.2235 12.4297 848 60.2229 954.424 500.991
1241 0 68.1645 12.1031 825 61.1794 954.77 500.364
1242 0 70.0523 12.0624 845 61.613 955.166 499.289
1243 0 74.1638 14.414 1069 59.7998 955.423 496.948
1244 0 77.2483 12.9323 999 60.958 955 498.41
1245 0 78.0593 13.5922 1061 60.738 955.016 496.875
1246 1 41.0644 12.59 517 60.7486 955.42 514.097
1247 0 43.0877 12.9039 556 60.8759 954.583 513.696
1248 0 45.1254 13.0082 587 60.77 955.058 511.666
1249 0 45.1627 12.7539 576 60.849 955.339 514.502
1250 0 47.2712 12.5658 594 62.2054 955.554 508.918
1251 0 50.0566 12.4059 621 60.8068 956.312 513.564
1252 0 50.2269 12.8815 647 61.9474 955.974 509.255
1253 0 54.1992 13.9116 754 60.5013 955.647 510.438
1254 0 53.1475 14.0176 745 60.851 955.252 509.89
1255 0 56.0917 14.2624 800 60.4738 955.156 507.395
1256 0 59.0833 13.1848 779 61.2195 954.891 508.153
1257 0 59.1633 12.8965 763 61.3879 954.561 509.299
1258 0 60.2293 12.2698 739 62.8606 955.445 505.166
1259 0 65.2714 14.8764 971 59.6704 955.064 505.93
1260 0 65.1754 14.2232 927 60.9062 955.358 504.146
1261 0 68.1846 12.5542 856 61.8271 954.6 506.14
1262 0 71.1485 14.3362 1020 60.4412 954.568 502.874
1263 0 72.1829 15.2252 1099 59.6843 954.787 503.871
1264 0 75.2447 13.2102 994 61.9215 953.636 500.425
1265 0 76.1516 13.0792 996 62.3916 953.961 499.354
1266 0 78.2423 14.7363 1153 60.9722 954.691 500.776
1267 0 80.2656 12.06 968 63.8151 955.218 497.148
1268 0 86.3744 15.6181 1349 59.6731 955.356 498.888
1269 0 88.3333 13.551 1197 62.4578 955.051 492.353
1270 0 90.0877 15.6514 1410 60.3078 954.134 496.494
1271 1 45.2385 13.7494 622 60.8617 954.309 516.476
1272 0 49.2808 13.2303 652 60.8236 954.752 516.012
1273 0 48.1532 13.7062 660 60.85 954.308 515.647
1274 0 51.1666 13.7785 705 61.0043 954.373 512.973
1275 0 52.3701 14.5503 762 59.9213 954.516 512.82
1276 0 54.2926 14.2377 773 61.2199 955.043 509.896
1277 0 56.2722 14.7853 832 59.8618 954.326 512.083
1278 0 57.1138 13.832 790 61.0418 954.737 509.649
1279 0 59.159 13.6412 807 61.9046 955.014 507.423
1280 0 60.2548 14.7208 887 61.0699 954.896 506.75
1281 0 64.4688 14.7358 950 60.6884 954.874 505.058
1282 0 65.1914 14.5725 950 60.799 954.412 506.124
1283 0 69.2536 13.2556 918 62.4292 954.991 502.918
1284 0 70.0409 16.1763 1133 60.15 955.545 502.839
1285 0 73.0728 13.9724 1021 62.3301 955.452 502.226
1286 0 75.1039 13.1551 988 63.0617 955.224 502.998
1287 0 76.1564 13.5117 1029 63.4091 955.643 500.722
1288 0 79.0684 13.1279 1038 64.3863 955.039 497.653
1289 0 81.2045 13.0288 1058 64.7741 954.735 495.45
1290 0 84.3892 12.5846 1062 65.3183 954.74 498.106
1291 1 42.166 13.9212 587 62.1039 955.198 519.685
1292 0 42.1321 14.3596 605 61.8711 954.931 521.099
1293 0 44.0478 13.7351 605 62.3322 954.289 518.86
1294 0 46.299 12.1817 564 65.0266 955.055 515.578
1295 0 47.2192 12.6855 599 64.823 953.985 514.14
1296 0 49.2882 13.3298 657 64.3775 954.613 512.752
1297 0 52.4792 13.6626 717 63.4658 954.745 514.768
1298 1 111.541 12.7039 1417 65.0374 954.617 490.299
1299 0 115.3 13.7901 1590 64.4975 955.43 484.182
1300 0 118.53 14.0049 1660 64.6247 955.589 484.508
1301 0 122.26 13.2095 1615 65.3678 955.555 483.127
1302 0 127.239 12.7398 1621 66 954.598 480.069
1303 0 132.364 13.2136 1749 66.3671 955.297 474.445
1304 0 141.314 13.2401 1871 65.7563 954.742 475.694
1305 0 139.187 11.3875 1585 67.9956 955.022 475.699
1306 1 68.2094 15.3205 1045 63.7311 955.725 504.678
1307 0 71.32 14.8205 1057 65.3586 955.617 505.129
1308 0 74.1385 13.3399 989 66.7007 955.486 503.026
1309 0 76.3214 14.2162 1085 66 954.924 503.606
1310 1 38.0982 11.3654 433 67.5266 955.476 521.028
1311 0 38.2976 12.5595 481 67.9501 955.547 519.663
1312 1 83.3155 14.3911 1199 66.9374 956.266 497.999
1313 0 86.473 13.3221 1152 67.7917 955.998 498.812
1314 0 89.5434 12.5749 1126 68.8828 955.471 497.21
1315 0 90.2332 11.4481 1033 69.6283 955.776 497.391
1316 0 98.434 14.5986 1437 65.9541 955.289 496.466
1317 1 48.1349 11.9248 574 69.2422 955.024 515.669
1318 0 50.1198 12.9091 647 67.9243 954.98 515.453
1319 0 52.2172 13.2715 693 67.4646 955.176 513.646
1320 0 52.183 13.8551 723 66.971 955.008 514.64
1321 0 55.3813 12.8563 712 67.8006 955.257 513.379
1322 0 58.3163 14.2499 831 65.8087 954.576 514.85
1323 0 59.2944 12.2609 727 68.9078 954.9 511.717
1324 0 62.2287 14.5753 907 66.8523 954.766 510.846
1325 0 64.1943 14.0355 901 67.6071 954.589 510.331
1326 0 66.1769 14.1741 938 67.8593 955.252 508.852
1327 0 69.4064 14.5952 1013 67.6723 955.09 508.196
1328 0 69.2417 11.3804 788 72.198 955.552 506.924
1329 0 73.4713 15.7068 1154 66.2305 955.457 507.234
1330 0 76.1496 11.8582 903 71.2159 955.302 505.321
1331 1 40.1801 14.3603 577 67.2045 955.215 523.127
1332 0 38.2914 13.3189 510 70.2686 955.541 521.288
1333 0 41.2651 13.8131 570 69.7667 955.681 522.232
1334 0 41.2739 12.8653 531 71.9209 956.232 520.601
1335 0 43.3134 12.4673 540 73.6407 955.467 517.8
1336 0 45.4287 13.9779 635 71.3685 955.694 518.811
1337 0 44.2886 14.9248 661 71.6959 955.679 518.552
1338 0 49.1241 16.7128 821 67.8502 955.615 519.417
1339 0 49.2236 14.5256 715 71.4196 954.778 515.509
1340 0 50.3139 13.217 665 72.6692 954.711 517.526
1341 0 52.171 14.165 739 71.5507 955.296 516.534
1342 0 56.467 14.0259 792 70.9381 955.436 516.47
1343 0 57.2086 14.5957 835 71.515 956.614 515.354
1344 0 57.2345 14.5891 835 71.5701 956.046 515.071
1345 0 60.2554 14.3887 867 71.4706 955.098 513.055
1346 0 63.2195 14.5999 923 71.1668 955.107 511.805
1347 0 64.0778 13.6397 874 73.246 955.148 509.312
1348 0 66.301 13.7856 914 72.3468 955.79 511.467
1349 0 69.2763 14.8824 1031 71.0524 955.645 509.448
1350 0 73.3667 13.0986 961 73.3132 955.734 507.779
1351 0 73.0946 14.748 1078 71.9536 955.359 507.037
1352 0 77.4699 13.1406 1018 73.5972 955.242 504.084
1353 0 79.267 14.3187 1135 71.9436 955.161 504.538
1354 1 38.2619 14.4269 552 69.8931 955.621 522.542
1355 0 36.1327 14.2807 516 71.2054 955.079 522.93
1356 0 38.0861 13.6795 521 71.7889 954.559 522.689
1357 0 39.1539 14.2004 556 72.2176 955.162 521.354
1358 0 44.0417 14.3728 633 69.7251 955.69 522.43
1359 0 43.3233 14.3802 623 71.0578 955.904 520.104
1360 0 45.3109 13.4184 608 72.1382 955.355 518.941
1361 0 47.344 16.2639 770 67.9597 955.229 520.265
1362 0 45.1629 13.9495 630 72.1286 954.681 518.667
1363 0 48.2037 13.9823 674 71.0015 954.883 517.769
1364 0 51.2869 15.2671 783 69.3499 955.213 515.134
1365 0 53.205 13.9836 744 70.1344 955.214 517.042
1366 0 54.3348 14.8524 807 69.4027 955.704 514.895
1367 0 57.1695 14.8856 851 68.7932 954.478 514.001
1368 0 58.2606 15.2762 890 68.1798 954.672 511.974
1369 0 59.2995 14.3171 849 69.5135 955.231 513
1370 0 59.3315 15.2533 905 69.8519 955.387 509.825
1371 0 63.2878 15.6112 988 68.9889 955.268 509.323
1372 0 65.7489 15.9699 1050 68.6724 955.798 508.981
1373 0 66.1694 13.8281 915 71.5585 955.204 506.458
1374 0 66.3157 14.4159 956 71.1569 955.28 506.681
1375 0 71.0962 16.555 1177 67.9278 955.422 505.743
1376 0 72.3842 14.0915 1020 70.6118 954.845 505.507
1377 0 77.2213 14.5944 1127 69.5785 954.585 504.328
1378 0 80.1032 15.2054 1218 68.9261 955.335 503.74
1379 0 83.0591 15.9043 1321 68.2082 955.152 501.867
1380 0 86.1967 14.7453 1271 68.9725 955.11 502.126
1381 0 86.1535 14.7527 1271 69.8261 955.186 496.91
1382 0 91.1977 14.8249 1352 69.4608 955.123 498.363
1383 0 94.1426 16.5494 1558 67.0353 954.387 496.393
1384 0 94.1406 13.2461 1247 70.8468 954.497 496.239
1385 1 47.116 13.2864 626 69.7332 954.874 516.668
1386 0 49.1528 14.282 702 68.3219 955.444 516.833
1387 0 54.2948 16.0973 874 65.8169 955.026 515.462
1388 0 53.0456 13.479 715 69.7119 955.236 515.508
1389 0 53.2925 14.0545 749 69.4806 955.156 514.794
1390 0 58.2212 14.3247 834 68.2914 955.2 515.689
1391 0 57.0844 15.4508 882 68.2268 955.112 512.319
1392 0 61.1444 13.5417 828 69.0737 954.715 514.07
1393 0 60.4275 13.9672 844 70.5664 954.999 511.839
1394 0 62.7102 14.3996 903 70.144 955.491 511.996
1395 0 64.1327 15.5615 998 69.2044 955.465 510.081
1396 0 68.3586 16.2086 1108 68.2897 955.968 508.127
1397 0 70.0929 15.3653 1077 69.4559 955.282 504.789
1398 0 72.0944 15.022 1083 69.6454 955.113 505.828
1399 0 73.0845 15.5573 1137 69.5699 955.496 504.334
1400 0 75.0602 13.749 1032 71.7238 955.298 506.942
1401 0 80.1211 13.5919 1089 71.404 955.758 502.678
1402 0 82.7673 14.3777 1190 70.8286 956.242 499.575
1403 0 88.3025 16.4548 1453 67.117 955.404 502.312
1404 0 88.1688 16.9107 1491 67.2736 954.895 499.201
1405 0 89.1572 14.6707 1308 70.2469 954.51 497.814
1406 0 98.3665 15.8692 1561 58.1755 955.092 497.467
1407 0 97.095 12.6783 1231 71.9724 954.917 496.523
1408 0 103.122 14.9143 1538 69.052 954.941 494.196
1409 0 105.128 13.6976 1440 71.0486 954.731 492.262
1410 1 50.0903 15.2724 765 67.9072 955.178 518.033
1411 0 51.1158 13.4596 688 70.4782 955.661 518.016
1412 0 55.3765 15.2592 845 67.4118 956.085 517.927
1413 0 54.1088 12.8999 698 71.8352 955.83 516.189
1414 0 59.196 15.626 925 67.9005 955.389 513.653
1415 0 60.1003 15.8901 955 68.0115 955.546 514.073
1416 0 62.0782 15.561 966 68.5031 955.423 513.701
1417 0 63.106 14.341 905 70.6917 955.419 512.045
1418 0 66.3749 15.4577 1026 69.191 956.366 510.747
1419 0 68.6253 15.0236 1031 69.323 956.128 510.79
1420 0 68.247 15.5318 1060 69.6717 956.203 509.617
1421 0 72.1385 14.8464 1071 70.212 956.09 509.327
1422 0 71.1432 13.775 980 72.6939 956.147 507.555
1423 0 78.3272 15.1927 1190 69.4992 955.68 506.665
1424 0 80.3045 15.105 1213 69.8087 955.717 504.698
1425 0 81.1431 13.926 1130 71.4478 955.651 504.315
1426 0 87.1595 13.7334 1197 71.1128 955.84 501.604
1427 0 89.3469 15.5126 1386 69.184 956.188 501.058
1428 0 94.4437 16.0942 1520 67.725 956.441 500.293
1429 0 96.3022 15.0152 1446 69.2061 955.842 496.917
1430 0 97.1032 14.0572 1365 70.4418 955.593 496.131
1431 1 44.1194 14.2794 630 68.5857 956.127 522.525
1432 0 49.3314 14.0884 695 68.0978 956.358 521.619
1433 0 50.2137 14.2192 714 68.3712 956.105 521.556
1434 0 50.236 13.8745 697 70.1105 956.05 520.729
1435 0 52.2843 14.555 761 68.9632 956.681 519.54
1436 0 52.1742 15.2566 796 68.3279 956.457 517.957
1437 0 55.0723 15.8337 872 67.1055 955.55 517.722
1438 0 59.6274 16.5863 989 65.4044 955.784 515.992
1439 0 57.1619 15.4823 885 68.3966 955.649 516.054
1440 0 59.2848 13.1906 782 70.8197 955.788 513.124
1441 0 58.1153 13.6969 796 70.7764 955.216 515.337
1442 0 63.0603 14.9539 943 68.824 955.041 512.971
1443 0 66.3959 14.8352 985 68.9604 955.405 510.517
1444 0 67.2181 15.0555 1012 68.3449 955.148 510.81
1445 0 67.2047 13.8829 933 70.3612 955.086 510.257
1446 0 71.5084 15.8443 1133 67.8685 955.628 508.8
1447 0 73.0977 15.1168 1105 68.8109 955.883 507.699
1448 0 74.2597 14.0588 1044 70.1782 955.494 505.312
1449 0 76.318 15.3306 1170 68.8752 955.522 502.853
1450 0 80.1016 14.7063 1178 68.7759 954.754 503.176
1451 0 83.3648 14.5745 1215 69.9268 955.371 499.102
1452 0 84.1878 15.608 1314 68.3021 955.758 498.463
1453 0 88.0974 15.3126 1349 68.3884 955.11 497.662
1454 0 92.1212 15.9572 1470 66.5333 954.764 497.113
1455 0 94.3664 15.4716 1460 67.2479 955.134 495.605
1456 0 97.2651 14.4142 1402 68.3802 955.51 495.767
1457 0 99.3542 14.0205 1393 68.6382 955.502 492.551
1458 1 48.215 14.9746 722 65.7355 955.447 518.694
1459 0 47.2641 13.7737 651 67.6882 955.258 518.665
1460 0 46.7112 12.9305 604 70.3444 954.781 516.018
1461 0 52.4768 15.969 838 65.4582 955.797 516.715
1462 0 51.3912 16.1896 832 66.5733 955.796 514.978
1463 0 53.4138 15.6514 836 67.6184 956.08 516.38
1464 0 55.1905 13.7705 760 70.2408 955.61 516.697
1465 0 55.3977 14.6577 812 69.3584 955.877 514.544
1466 0 59.1779 16.763 992 66.0938 955.242 514.547
1467 0 61.1682 14.5664 891 68.3928 955.039 513.31
1468 0 63.4674 15.9925 1015 66.9094 954.828 510.655
1469 0 64.1134 15.6442 1003 67.342 954.885 512.444
1470 0 68.622 15.5489 1067 66.3514 954.586 512.11
1471 0 68.3169 15.1793 1037 67.8447 954.655 506.699
1472 0 72.0965 15.1325 1091 67.4491 955.534 508.191
1473 0 72.3388 15.2892 1106 67.0488 955.043 508.042
1474 0 77.3754 16.8658 1305 64.908 955.576 506.395
1475 0 78.2598 16.458 1288 65.684 955.521 504.207
1476 0 78.4722 14.9734 1175 67.3174 955.38 503.846
1477 0 84.15 17.2193 1449 64.7999 955.547 499.794
1478 0 88.4721 15.9485 1411 65.5195 955.257 498.227
1479 0 89.2873 13.4062 1197 68.9783 955.181 498.447
1480 0 93.2021 16.7485 1561 64.8597 954.594 496.926
1481 0 96.2318 14.091 1356 68.253 954.372 495.32
1482 0 99.3333 14.7181 1462 67.1614 954.454 494.201
1483 0 104.19 17.1129 1783 64.0858 955.057 493.681
1484 0 107.24 12.6352 1355 69.9919 954.975 489.435
1485 1 49.1019 14.9281 733 66.2647 954.887 515.813
1486 0 51.2864 13.5318 694 68.6599 954.918 516.346
1487 0 55.3064 16.9058 935 64.1829 954.63 516.084
1488 0 55.2062 17.2444 952 64.3078 954.638 515.274
1489 0 55.0891 15.1028 832 68.1707 954.549 513.624
1490 0 57.0729 16.5753 946 66.0666 954.221 515.08
1491 0 60.1148 16.3021 980 66.0316 954.574 514.636
1492 0 62.389 14.3936 898 68.7506 954.119 513.588
1493 0 65.1307 15.6148 1017 66.9528 954.49 511.056
1494 0 63.24 14.5319 919 68.9369 954.466 512.108
1495 0 67.1394 16.3242 1096 66.5666 954.27 510.707
1496 0 69.2565 14.0492 973 69.2456 954.005 509.013
1497 0 69.2444 15.077 1044 67.7567 954.377 509.144
1498 0 72.2515 14.7402 1065 68.277 954.987 507.016
1499 0 73.5252 15.1921 1117 68.3805 954.545 502.966
1500 0 76.1296 15.0927 1149 67.9591 954.7 501.889
1501 0 81.1753 14.8321 1204 67.3289 954.366 503.95
1502 0 83.3595 14.3355 1195 68.1623 954.71 500.62
1503 0 85.2582 14.0866 1201 68.856 953.653 497.778
1504 0 90.487 14.5877 1320 67.5023 953.923 499.455
1505 0 93.1848 15.0024 1398 67.4499 953.809 497.428
1506 0 94.2446 14.3563 1353 68.9911 954.159 493.42
1507 0 98.3542 13.187 1297 69.4364 953.655 496.357
1508 0 101.546 13.3437 1355 70.4081 953.921 490.452
1509 0 104.256 15.1646 1581 68.172 953.824 489.557
1510 0 110.114 14.8573 1636 68.8136 953.27 488.617
1511 0 114.356 14.656 1676 68.8473 953.859 487.194
1512 1 57.1443 15.2421 871 66.2491 953.913 516.49
1513 0 56.1644 13.8344 777 69.4106 953.717 513.272
1514 0 59.1499 14.8436 878 67.2654 954.019 514.407
1515 0 60.2104 13.5192 814 69.8096 953.714 511.57
1516 0 61.2109 13.2166 809 70.8307 954.858 510.943
1517 0 61.4188 13.5138 830 71.7651 955.351 509.6
1518 0 66.3371 14.5318 964 70.6857 955.277 506.9
1519 0 66.2836 15.8863 1053 69.3276 954.231 508.24
1520 0 69.3544 15.3271 1063 69.7601 953.448 507.211
1521 0 70.5174 14.6489 1033 71.0765 953.587 505.605
1522 0 75.1893 15.5873 1172 69.093 954.203 505.509
1523 0 75.2826 14.585 1098 71.1466 954.699 502.207
1524 0 77.1266 15.5199 1197 68.8789 954.287 505.038
1525 0 80.4104 15.8686 1276 69.1983 955.049 499.965
1526 0 82.2264 15.129 1244 69.1913 955.002 500.852
1527 0 88.7196 15.0812 1338 68.5389 954.664 499.259
1528 0 89.4369 15.1951 1359 68.8087 955.773 496.765
1529 0 93.1868 14.4763 1349 69.0415 955.158 495.724
1530 0 95.4429 16.2191 1548 67.0943 954.549 492.428
1531 1 45.1931 15.9759 722 66.5803 954.633 517.271
1532 0 48.1685 15.944 768 66.1159 954.447 517.613
1533 0 48.1869 12.493 602 69.4817 954.497 518.527
1534 0 48.5316 14.2588 692 68.461 954.707 515.779
1535 0 52.4426 16.1128 845 65.8237 954.238 516.225
1536 0 51.5107 15.9384 821 66.7844 954.261 514.404
1537 0 53.2078 15.9563 849 67.5889 955.269 513.846
1538 0 54.3561 15.1961 826 68.2179 954.844 514.385
1539 0 58.2024 13.453 783 70.507 954.604 511.891
1540 0 59.1177 15.5114 917 68.4395 954.146 510.919
1541 0 61.445 16.47 1012 66.6057 953.463 511.364
1542 0 63.1383 17.2162 1087 66.4407 953.61 510.504
1543 0 61.3093 14.4024 883 71.1019 954.221 506.905
1544 0 67.211 15.7712 1060 68.6906 954.404 509.566
1545 0 69.0761 16.3009 1126 68.2638 954.352 507.17
1546 0 71.297 16.7048 1191 67.5886 954.52 506.816
1547 0 72.1492 15.8699 1145 69.6498 954.734 504.031
1548 0 75.1391 14.919 1121 70.0196 953.92 501.847
1549 0 79.2348 15.107 1197 68.4068 954.245 506.474
1550 0 80.0829 16.1458 1293 68.3681 954.371 501.831
1551 0 81.2648 16.4524 1337 68.1144 955.188 499.915
1552 0 84.1054 14.0419 1181 71.2862 954.599 498.729
1553 0 89.4889 15.7003 1405 68.5381 955.104 496.668
1554 0 90.3218 14.8912 1345 69.8751 954.975 497.378
1555 0 96.3052 15.2847 1472 68.8111 954.65 495.121
1556 0 97.3888 15.0223 1463 69.4272 953.97 494.207
1557 0 103.315 14.4994 1498 69.1302 953.947 495.618
1558 1 45.0566 14.3153 645 69.2822 954.391 517.964
1559 0 49.0459 14.3335 703 69.037 954.169 516.661
1560 0 49.1781 12.9936 639 70.8826 954.576 515.873
1561 0 53.1828 14.6852 781 68.2778 954.958 516.105
1562 0 54.125 15.3718 832 68.3594 954.666 516.089
1563 0 53.0417 16.0251 850 68.5082 953.656 515.411
1564 0 59.2751 17.3597 1029 66.0224 954.115 514.433
1565 0 59.2448 15.9508 945 68.527 954.26 513.483
1566 0 60.106 15.0734 906 69.7605 954.29 513.321
1567 0 61.1598 14.6502 896 70.5837 954.117 512.555
1568 0 64.1494 14.3415 920 71.3989 953.604 511.353
1569 0 66.1337 14.9546 989 71.4024 954.08 507.678
1570 0 66.0906 14.6163 966 71.5963 954.223 509.822
1571 0 69.0585 15.1755 1048 70.9561 954.54 509.615
1572 0 72.3313 15.2769 1105 70.7267 954.608 507.011
1573 0 73.3926 15.819 1161 70.7399 954.932 503.876
1574 0 77.1593 15.0598 1162 71.2831 954.553 503.522
1575 0 81.1571 16.0799 1305 69.3563 953.832 503.149
1576 0 82.258 15.9498 1312 70.0564 954.81 502.332
1577 0 83.233 13.3841 1114 73.7074 954.463 501.131
1578 0 88.1695 15.198 1340 71.1403 954.714 500.894
1579 0 90.2436 15.6798 1415 71.2643 954.541 497.08
1580 0 95.0828 15.9019 1512 70.3479 954.559 495.882
1581 0 97.3175 15.7834 1536 70.1595 954.84 497.358
1582 0 99.3358 15.4426 1534 70.9257 953.944 494.538
1583 0 105.384 15.2205 1604 71.3896 954.816 491.819
1584 0 108.211 14.5549 1575 71.746 954.22 492.134
1585 1 52.2741 11.5736 605 74.0231 954.564 515.42
1586 0 54.0985 15.6936 849 70.1578 955.077 515.094
1587 0 54.1342 15.1475 820 71.3402 954.655 514.787
1588 0 55.2266 15.3549 848 71.5224 954.065 512.79
1589 0 60.3913 15.9129 961 69.0541 954.038 514.634
1590 0 61.444 15.2334 936 71.1976 953.73 511.944
1591 0 61.1555 15.8939 972 71.1883 953.871 510.543
1592 0 63.924 14.3921 920 72.7924 954.154 510.033
1593 0 65.5124 14.9285 978 72.7372 953.282 508.283
1594 0 62.1491 11.038 686 78.8367 954.329 506.63
1595 0 67.1618 12.6262 848 75.8939 954.091 508.54
1596 0 70.5625 15.3197 1081 71.8945 953.756 507.984
1597 0 70.1473 13.8708 973 74.5262 953.87 506.613
1598 0 74.4109 13.9496 1038 73.9981 954.12 506.285
1599 0 76.3063 14.6253 1116 73.5753 954.644 503.508
1600 0 80.2848 15.5073 1245 72.0241 954.472 502.855
1601 0 79.4376 15.509 1232 72.6331 954.166 501.982
1602 0 84.323 15.4762 1305 71.787 953.768 498.574
1603 0 87.2923 18.2834 1596 67.6842 953.877 499.518
1604 0 90.1156 16.2236 1462 69.5746 953.821 498.181
1605 0 94.7637 15.7972 1497 70.354 954.418 496.312
1606 0 98.3459 17.4995 1721 67.423 954.004 498.868
1607 0 99.6573 15.4931 1544 71.1308 953.753 492.247
1608 0 104.467 16.3497 1708 69.202 953.663 491.282
1609 0 102.132 14.0309 1433 73.5164 954.105 485.493
1610 1 49.1381 14.9782 736 70.3764 954.688 515.5
1611 0 50.61 14.3845 728 71.2692 954.545 513.457
1612 0 52.3515 15.778 826 70.1041 954.337 512.466
1613 0 55.288 14.1803 784 71.2207 954.82 514.231
1614 0 53.2232 15.4444 822 71.0389 954.752 511.696
1615 0 55.7001 14.2549 794 72.7091 954.086 509.458
1616 0 56.4794 15.9704 902 70.9135 954.482 510.782
1617 0 56.2856 13.7691 775 74.1677 954.096 511.041
1618 0 61.2287 16.6588 1020 70.1814 954.565 510.466
1619 0 64.2925 15.274 982 72.3462 954.974 508.657
1620 0 66.1093 16.2307 1073 70.8052 954.774 507.172
1621 0 68.1658 15.433 1052 71.4325 954.799 506.627
1622 0 69.2753 14.9548 1036 72.3977 954.705 506.581
1623 0 68.9027 14.2084 979 74.3984 954.715 504.771
1624 0 72.0718 17.0941 1232 70.2906 955.006 503.454
1625 0 75.1892 16.2656 1223 72.0442 955.037 500.173
1626 0 76.4329 15.0066 1147 72.7071 955.153 504.547
1627 0 79.2283 16.3073 1292 71.2461 955.019 499.693
1628 0 83.2423 15.4969 1290 71.5558 954.761 500.218
1629 0 87.3638 16.6202 1452 70.3781 954.676 498.916
1630 0 88.2767 15.1116 1334 72.4828 954.523 498.298
1631 0 93.1779 16.0982 1500 70.966 953.937 495.624
1632 0 96.0852 14.789 1421 73.0647 954.468 494.142
1633 0 98.5329 14.8884 1467 73.0668 955.137 492.806
1634 0 100.167 15.7537 1578 72.3701 954.999 491.044
1635 0 105.273 15.873 1671 72.0335 955.007 489.081
1636 0 109.188 14.5071 1584 73.6484 955.14 485.298
1637 0 114.399 16.1365 1846 71.1988 953.832 484.13
1638 1 56.2354 14.4749 814 71.6892 954.587 515.278
1639 0 55.2295 13.797 762 74.1286 955.247 512.663
1640 0 60.2336 15.7387 948 70.7184 954.803 512.594
1641 0 61.0903 15.1743 927 72.1079 954.589 509.399
1642 0 61.388 14.3025 878 73.6583 955.051 509.493
1643 0 67.2151 15.3239 1030 71.0505 955.061 509.06
1644 0 67.3 14.8885 1002 72.507 953.799 506.777
1645 0 71.451 14.8773 1063 70.9981 954.41 508.903
1646 0 70.1126 14.1344 991 73.0757 954.582 506.067
1647 0 72.4118 15.0114 1087 71.9374 954.925 504.466
1648 0 75.1074 16.1369 1212 69.8507 954.614 503.267
1649 0 77.2075 15.6332 1207 70.5352 955.335 501.385
1650 0 82.1404 14.6213 1201 70.657 954.53 500.459
1651 0 82.2721 15.2299 1253 69.7318 954.116 498.994
1652 0 84.1531 13.9864 1177 71.593 953.749 496.001
1653 0 87.1882 14.073 1227 71.2657 953.998 496.025
1654 0 89.1185 13.0837 1166 72.3791 954.056 494.741
1655 0 97.282 15.9022 1547 67.0873 954.932 497.555
1656 0 97.5372 16.3835 1598 67.3567 954.355 492.092
1657 1 47.3095 12.5345 593 69.9595 954.322 516.352
1658 0 48.1493 14.102 679 67.7261 954.73 516.888
1659 0 53.6538 14.5936 783 66.2529 954.605 515.829
1660 0 53.3306 15.0758 804 66.3943 954.394 514.381
1661 0 56.338 14.8035 834 65.6415 954.942 516.315
1662 0 55.1451 14.1082 778 67.0296 954.666 514.051
1663 0 57.4254 15.6725 900 66.2844 954.944 512.262
1664 0 58.0974 15.6117 907 66.3837 954.477 510.436
1665 0 58.1257 15.4493 898 67.6158 954.67 508.01
1666 0 62.2956 15.2017 947 67.4805 954.855 508.438
1667 0 63.2467 14.9415 945 67.5693 954.374 508.963
1668 0 68.1955 15.7048 1071 65.9916 954.352 507.929
1669 0 71.5498 16.2824 1165 64.3425 953.761 510.379
1670 0 75.808 14.9852 1136 66.4824 953.748 506.537
1671 0 73.1907 15.0566 1102 67.0354 954.575 504.926
1672 0 80.4182 16.3893 1318 63.8687 955.105 507.706
1673 0 79.2253 16.1186 1277 65.675 954.615 501.381
1674 0 81.3408 15.81 1286 66.0715 954.227 499.996
1675 0 82.199 16.2776 1338 65.8707 954.584 498.682
1676 0 84.2371 14.2099 1197 68.2097 954.726 499.051
1677 0 90.5739 12.5091 1133 69.1024 954.387 497.253
1678 0 93.3176 13.8666 1294 67.2782 954.571 495.102
1679 0 96.2042 15.966 1536 65.0859 954.67 492.742
1680 0 99.5868 14.4798 1442 66.3135 953.636 494.929
1681 0 105.442 15.3734 1621 64.5984 953.83 492.874
1682 0 104.242 12.989 1354 67.7267 953.856 491.449
1683 1 48.3015 12.2356 591 68.5482 954.35 513.254
1684 0 51.0705 13.08 668 67.5629 954.639 513.936
1685 0 52.0498 13.2181 688 67.6439 954.27 512.525
1686 0 53.3239 14.7214 785 66.5592 954.115 511.726
1687 0 56.2033 14.4654 813 66.7761 954.432 512.047
1688 0 56.4056 14.8035 835 67.2431 954.273 509.971
1689 0 61.1819 14.792 905 66.6166 953.787 507.676
1690 0 62.1335 14.2918 888 68.107 953.736 507.27
1691 0 62.0721 16.6903 1036 66.2461 954.593 506.495
1692 0 65.1222 13.6205 887 69.1499 954.238 505.547
1693 0 69.1746 15.6705 1084 66.3893 954.252 506.944
1694 0 72.1765 15.185 1096 66.9982 954.113 505.388
1695 0 71.164 14.5017 1032 68.8236 953.774 504.274
1696 0 74.1082 14.4788 1073 69.1985 953.632 501.751
1697 0 74.0426 16.2339 1202 67.7038 954.298 500.955
1698 0 77.1706 14.28 1102 69.9809 954.403 499.677
1699 0 80.0748 13.5124 1082 70.5554 953.877 496.249
1700 0 84.1904 14.5741 1227 69.78 954.403 494.802
1701 0 89.1045 15.2742 1361 68.1675 954.674 496.277
1702 0 89.1189 14.1609 1262 69.8914 953.767 493.639
1703 0 93.0716 13.7529 1280 70.1266 954.095 490.997
1704 0 98.3908 15.6519 1540 67.7416 954.214 491.469
1705 0 104.519 14.8108 1548 67.6725 953.616 489.389
1706 0 107.785 15.3546 1655 67.2653 954.475 488.996
1707 0 110.33 15.4627 1706 67.3622 954.679 486.069
1708 1 36.0677 14.8886 537 65.2328 954.408 519.227
1709 0 40.1328 13.1314 527 66.0759 954.406 517.848
1710 0 44.1635 13.9482 616 64.7289 954.666 517.562
1711 0 42.2279 13.9244 588 65.966 954.442 517.517
1712 0 43.1115 13.4767 581 66.6386 953.756 518.143
1713 0 43.076 14.6717 632 66.8054 954.142 514.622
1714 0 44.085 14.0864 621 68.2126 954.274 511.977
1715 0 47.1862 11.3381 535 70.7495 954.022 513.297
1716 0 49.1151 15.2295 748 65.607 954.711 517.389
1717 0 50.3241 15.7579 793 66.0971 955.243 516.436
1718 0 51.4436 14.4041 741 67.9001 954.753 516.076
1719 0 54.4059 14.0793 766 69.0392 954.14 512.984
1720 0 55.2029 14.1297 780 68.9962 954.758 513.249
1721 0 54.5087 16.4378 896 66.4074 955.057 513.617
1722 0 58.1689 15.9879 930 66.2785 955.453 513.763
1723 0 57.1152 15.7926 902 67.0743 954.932 511.986
1724 0 61.3831 14.1733 870 68.2425 954.749 511.003
1725 0 63.9157 13.6273 871 68.3088 954.519 510.915
1726 0 67.6399 15.8339 1071 65.5705 954.05 509.208
1727 0 65.1209 17.1527 1117 65.3384 954.647 505.542
1728 0 67.2362 16.8064 1130 65.0788 954.535 505.973
1729 0 68.134 13.767 938 68.9702 954.521 506.47
1730 0 73.4056 14.4676 1062 68.0678 954.417 503.462
1731 0 76.3604 14.4054 1100 67.8745 953.703 503.196
1732 0 76.0477 16.1346 1227 67.0685 953.922 501.375
1733 0 79.2142 14.2651 1130 68.7451 954.057 497.456
1734 0 83.0529 14.0633 1168 68.7586 954.1 497.942
1735 0 84.1156 13.9332 1172 68.9864 954.142 495.656
1736 0 87.2325 14.8339 1294 67.8563 954.182 496.175
1737 0 90.1478 15.7075 1416 67.5699 954.315 491.992
1738 0 92.1898 13.3095 1227 69.7628 953.932 491.9
1739 0 96.13 14.4076 1385 68.7632 953.928 490.801
1740 0 101.288 14.4044 1459 68.0267 954.093 492.461
1741 0 102.183 13.9749 1428 70.049 954.317 483.922
1742 0 107.124 14.908 1597 68.5629 954.161 485.557
1743 0 108.236 13.4706 1458 69.7421 954.275 485.165
1744 1 50.0811 12.6195 632 69.3718 953.809 512.253
1745 0 53.2222 15.144 806 66.6067 953.983 511.438
1746 0 56.4703 13.4938 762 68.189 955.047 510.71
1747 0 57.0785 15.0845 861 67.2857 954.412 508.859
1748 0 60.066 14.3842 864 67.7917 953.881 508.29
1749 0 58.2312 13.7899 803 69.1245 954.07 509.476
1750 0 60.3022 13.2831 801 70.3084 954.175 507.587
1751 0 62.0997 14.9598 929 68.1765 954.069 508.851
1752 0 66.2438 12.4389 824 70.8107 954.552 507.351
1753 0 67.1758 14.5886 980 69.1929 954.73 507.424
1754 0 68.2783 14.4995 990 70.4293 953.85 503.108
1755 0 71.1188 13.9485 992 70.3024 954.254 506.407
1756 0 74.2596 14.0049 1040 70.0702 954.059 505.572
1757 0 76.2178 13.9862 1066 70.9296 954.094 501.054
1758 0 77.2973 13.7262 1061 71.77 954.019 499.705
1759 0 79.562 13.788 1097 71.381 953.802 499.543
1760 0 82.1767 14.481 1190 70.6168 954.208 499.289
1761 0 85.3561 13.2972 1135 71.9322 954.075 497.256
1762 0 84.2274 13.6298 1148 72.0566 953.552 496.301
1763 0 89.4539 14.745 1319 70.74 954.186 490.908
1764 0 93.2177 12.5727 1172 73.3968 954.54 491.877
1765 0 95.2416 13.6495 1300 72.0815 953.682 492.666
1766 0 100.369 13.9186 1397 71.3071 954.59 492.848
1767 1 48.1851 12.618 608 69.9704 955.173 517.064
1768 0 48.2186 12.3189 594 71.2306 955.069 515.216
1769 0 53.8077 14.4961 780 68.4782 955.062 512.735
1770 0 52.2004 12.3945 647 71.5317 954.64 511.858
1771 0 53.1427 13.793 733 70.97 954.823 511.195
1772 0 57.1585 15.1159 864 68.9236 954.615 510.777
1773 0 56.2229 14.3714 808 70.3886 954.854 509.641
1774 0 59.2245 12.2753 727 72.3012 954.304 508.208
1775 0 62.662 16.5012 1034 66.9768 954.484 509.44
1776 0 60.23 14.5443 876 71.2237 954.231 507.937
1777 0 63.4541 14.152 898 71.2773 954.002 507.46
1778 0 68.619 15.5496 1067 68.9232 953.838 508.475
1779 0 69.8483 14.417 1007 69.8441 954.304 508.573
1780 0 70.2573 13.2086 928 72.6304 954.59 503.828
1781 0 70.1876 13.5066 948 71.98 954.227 504.396
1782 0 75.0994 15.4196 1158 70.0242 954.441 501.353
1783 0 79.2778 13.8248 1096 70.8239 954.692 499.752
1784 0 83.2273 15.3676 1279 68.6841 954.469 499.21
1785 0 82.2452 13.6178 1120 71.2134 954.734 499.671
1786 0 88.5488 13.8568 1227 71.6072 954.137 494.711
1787 0 89.8821 14.3855 1293 70.9551 954.039 495.262
1788 0 90.201 14.3236 1292 71.7887 954.191 492.171
1789 0 99.2143 15.4716 1535 69.4319 953.224 490.542
1790 0 97.3401 13.797 1343 72.2174 953.656 485.864
1791 0 102.533 14.3953 1476 71.6484 954.068 487.121
1792 1 49.2779 13.3731 659 71.3247 954.527 512.634
1793 0 50.2421 15.8234 795 69.5157 954.379 512.065
1794 0 52.1765 11.1353 581 74.5904 953.935 508.578
1795 0 52.8382 12.226 646 74.5851 954.647 509.006
1796 0 55.3044 14.3207 792 72.4154 954.566 507.605
1797 0 58.2116 13.0043 757 73.1096 953.609 510.878
1798 0 58.6214 14.551 853 72.5909 953.952 507.763
1799 0 62.6327 14.6569 918 71.8094 953.975 508.648
1800 0 63.2566 13.7535 870 73.2644 953.769 506.683
1801 0 64.477 13.6483 880 73.8205 954.436 508.695
1802 0 67.2143 15.2944 1028 72.3891 954.675 506.507
1803 0 69.6552 14.4139 1004 73.8904 954.347 504.223
1804 0 71.4131 14.7172 1051 73.5747 954.128 505.04
1805 0 76.6139 15.2322 1167 71.629 953.642 505.795
1806 0 75.4017 14.4161 1087 74.4315 953.535 500.988
1807 0 79.1454 14.9851 1186 72.898 953.366 503.54
1808 0 79.5698 15.2948 1217 72.4117 954.39 503.945
1809 0 81.1415 16.4158 1332 71.4557 955.002 501.189
1810 0 85.1164 15.1557 1290 72.8279 954.622 500.584
1811 0 90.6662 14.0626 1275 73.8392 954.531 499.369
1812 0 93.1261 15.1193 1408 72.7195 953.983 497.278
1813 0 93.2474 14.8208 1382 73.9855 953.682 494.672
1814 0 100.28 15.736 1578 71.0716 953.549 497.809
1815 0 97.3611 15.0368 1464 73.554 954.056 496.529
1816 0 103.282 15.327 1583 73.4416 954.347 490.102
1817 0 105.389 14.233 1500 74.5593 954.543 490.51
1818 1 51.4337 13.3375 686 71.9708 954.666 517.446
1819 0 53.5183 15.079 807 70.1722 954.566 517.658
1820 0 55.5585 15.6052 867 69.9792 954.679 515.278
1821 0 55.5079 14.034 779 72.1746 953.778 514.127
1822 0 59.3491 14.5074 861 72.1556 954.3 511.388
1823 0 58.7196 13.5559 796 74.2374 954.641 509.996
1824 0 58.1088 16.1421 938 70.8881 954.256 511.556
1825 0 59.586 12.4694 743 75.8102 954.795 509.929
1826 0 61.2896 16.8381 1032 70.3023 954.156 508.981
1827 0 65.4425 14.9597 979 70.9714 954.21 510.107
1828 0 66.3221 13.1932 875 74.0423 954.737 507.928
1829 0 66.5169 14.1468 941 74.1073 954.46 506.421
1830 1 163.884 14.8214 2429 72.9543 953.996 464.052
1831 0 163.884 14.8214 2429 148.084 952.994 464.119
1832 0 170.516 14.3389 2445 73.9685 953.739 457.854
1833 1 77.6952 14.0034 1088 72.3952 953.533 506.906
1834 0 74.0698 15.6609 1160 72.1328 953.316 502.753
1835 0 75.4043 14.5084 1094 72.9918 953.113 501.782
1836 0 78.2891 14.8041 1159 73.0311 953.077 500.6
1837 0 82.2555 12.8502 1057 75.5393 952.831 496.944
1838 0 84.1484 13.6426 1148 73.6612 953.586 498.636
1839 0 91.6178 14.2767 1308 72.7278 953.494 495.93
1840 0 91.4475 12.5974 1152 75.0599 953.262 492.998
1841 0 95.1683 15.3518 1461 71.8097 953.09 492.769
1842 0 96.1979 14.0128 1348 73.1862 953.816 491.114
1843 0 102.776 14.7505 1516 71.2573 953.803 490.933
1844 1 48.3921 12.1714 589 72.8727 953.309 512.531
1845 0 48.1915 14.5461 701 71.0057 953.685 512.87
1846 0 50.2105 15.2159 764 70.1806 952.952 511.873
1847 0 55.1247 11.7007 645 72.9008 952.938 511.721
1848 0 57.3788 11.8162 678 72.4941 953.442 512.209
1849 0 56.5555 12.7309 720 72.7028 953.576 510.393
1850 0 58.3549 14.1205 824 71.2039 953.955 511.267
1851 0 58.486 12.5842 736 74.9511 953.514 506.889
1852 0 63.3218 15.8239 1002 70.1806 953.603 507.947
1853 0 64.4709 13.2308 853 73.728 953.509 506.232
1854 0 67.4859 14.4475 975 72.9723 954.002 503.929
1855 0 69.2805 12.9618 898 74.9354 954.545 502.147
1856 0 71.5038 13.5937 972 73.0021 953.961 504.866
1857 0 72.4537 15.1959 1101 72.1853 954.443 502.812
1858 0 73.4272 12.8699 945 75.8159 954.117 500.517
1859 0 79.711 15.0293 1198 71.4107 953.662 500.929
1860 0 82.5182 16.3479 1349 70.0786 953.506 498.813
1861 0 85.775 14.4564 1240 72.5024 954.31 497.016
1862 0 85.3635 14.245 1216 73.5436 954.065 495.224
1863 0 89.4459 14.3215 1281 71.8915 953.861 499
1864 0 92.46 15.2066 1406 71.5178 953.776 496.043
1865 0 94.5995 14.9155 1411 72.3777 953.819 492.456
1866 0 97.323 15.3407 1493 71.7408 954.148 492.59
1867 0 101.977 14.2679 1455 73.0399 953.385 491.551
1868 0 101.674 13.6416 1387 74.8738 954.26 486.23
1869 0 105.873 13.4878 1428 74.8684 954.143 484.321
1870 0 113.709 15.5484 1768 71.1148 953.526 486.351
1871 0 114.595 13.8575 1588 74.1461 953.669 479.95
1872 1 57.6492 13.3567 770 72.0494 953.564 510.255
1873 0 60.3955 15.0839 911 69.5247 953.787 512.337
1874 0 61.5821 12.9583 798 72.7043 953.936 509.491
1875 0 62.6435 11.4776 719 74.0876 953.299 509.38
1876 0 66.5269 12.7016 845 73.2675 953.767 504.496
1877 0 66.4156 13.8672 921 71.9544 954.294 504.393
1878 0 69.7619 14.2485 994 71.3139 953.831 502.989
1879 0 68.7547 13.57 933 72.9046 953.077 505.567
1880 0 74.4533 14.6803 1093 70.355 953.864 504.172
1881 0 73.8141 12.5586 927 74.1402 954.25 502.137
1882 0 75.5933 12.3953 937 73.8762 954.602 501.528
1883 0 81.8064 14.1065 1154 70.9905 954.678 501.227
1884 0 81.7491 14.8258 1212 70.5553 954.889 496.44
1885 0 85.6219 15.6969 1344 68.6793 954.669 497.573
1886 0 87.5156 14.4203 1262 70.5784 953.993 494.158
1887 0 87.5071 14.2274 1245 71.1984 953.43 491.731
1888 0 92.4492 14.3646 1328 69.7922 954.167 495.236
1889 0 96.5904 14.018 1354 70.63 953.804 490.607
1890 0 97.6165 13.635 1331 70.9286 953.16 488.986
1891 0 99.3953 13.894 1381 70.5402 954.033 489.581
1892 0 105.673 16.2293 1715 66.7948 954.569 490.332
1893 0 106.862 15.9552 1705 67.2751 953.161 487.107
1894 0 110.609 15.9119 1760 68.9517 953.575 483.161
1895 0 113.686 15.235 1732 69.5883 953.857 483.602
1896 0 119.706 16.2733 1948 67.807 953.683 479.393
1897 1 58.7019 12.8446 754 69.9324 953.623 509.801
1898 0 58.5046 12.2042 714 72.1345 954.291 508.146
1899 0 58.5781 14.2545 835 69.9808 954.255 508.849
1900 0 57.6924 15.7733 910 69.2747 954.429 508.321
1901 0 64.4503 14.9573 964 69.5861 953.888 506.072
1902 0 65.4351 15.3893 1007 69.2135 954.138 505.481
1903 0 67.479 16.6274 1122 67.5642 954.126 506.209
1904 0 65.8843 13.4933 889 72.6265 953.754 503.138
1905 0 71.6017 15.3628 1100 68.9809 953.545 504.443
1906 0 65.5287 12.6967 832 74.4459 953.154 499.162
1907 0 72.4986 14.6072 1059 70.6185 954.108 503.061
1908 0 72.5786 13.9573 1013 72.2073 953.298 498.684
1909 0 78.9116 14.3452 1132 70.3799 953.53 499.563
1910 0 78.7151 14.4699 1139 71.3977 954.234 495.69
1911 0 83.5736 14.3945 1203 70.542 954.33 497.957
1912 0 85.2291 16.3911 1397 68.2219 954.069 495.206
1913 0 88.7213 15.8812 1409 68.9191 954.118 492.355
1914 0 89.6045 15.3787 1378 69.4136 953.717 491.972
1915 0 91.6277 14.1005 1292 71.2067 953.807 489.839
1916 0 96.1042 15.8578 1524 68.7178 954.588 489.991
1917 0 99.849 15.253 1523 69.4563 954.46 489.114
1918 0 100.812 15.1668 1529 69.3002 953.647 487.959
1919 0 104.524 15.5179 1622 68.6079 953.873 488.75
1920 0 106.622 13.2618 1414 72.7334 954.702 483.036
1921 1 50.6017 14.1892 718 68.6212 954.372 512.486
1922 0 51.7792 12.3795 641 70.9251 953.961 510.147
1923 0 55.4937 15.0648 836 66.7464 954.311 513.086
1924 0 53.3331 12.1876 650 72.0154 954.482 509.631
1925 0 55.692 13.5208 753 70.3572 954.114 509.46
1926 0 57.708 13.7763 795 70.0025 954.018 510.46
1927 0 55.508 13.9259 773 71.3312 954.573 506.992
1928 0 58.0352 11.9755 695 74.0101 954.866 507.459
1929 0 65.4048 17.5216 1146 66.137 954.592 508.571
1930 0 66.5151 14.9139 992 69.5232 954.254 507.809
1931 0 67.0115 15.4899 1038 68.8304 954.479 508.798
1932 0 69.8144 13.2494 925 72.1622 954.214 505.974
1933 0 69.9024 14.1626 990 71.704 953.826 504.281
1934 0 71.4918 14.0855 1007 72.0338 953.873 504.654
1935 0 73.7598 14.4116 1063 71.1016 953.494 504.109
1936 0 73.8586 13.4852 996 72.8173 953.799 503.989
1937 0 77.5817 17.5428 1361 67.6907 952.644 501.777
1938 0 79.4643 14.7739 1174 71.3578 951.959 501.189
1939 0 83.5079 14.5974 1219 70.8876 952.832 501.668
1940 0 86.3212 15.9521 1377 69.154 952.548 501.688
1941 0 89.7418 14.408 1293 70.6195 952.157 500.971
1942 0 88.5542 14.1382 1252 72.0479 952.17 495.33
1943 0 93.6959 14.0668 1318 71.4325 952.326 497.788
1944 0 97.4299 15.4778 1508 70.12 952.501 495.534
1945 0 100.676 15.1376 1524 69.9193 952.797 496.299
1946 0 99.9538 12.8259 1282 74.0335 952.072 492.561
1947 0 105.736 14.801 1565 71.131 951.699 493.035
1948 0 108.742 13.4354 1461 73.0869 951.321 488.227
1949 0 113.742 14.2867 1625 71.8425 950.834 484.33
1950 0 118.42 14.6428 1734 70.7053 951.731 487.508
1951 0 119.556 14.9972 1793 70.7027 951.404 485.061
1952 0 125.987 14.4221 1817 71.7089 951.204 478.596
1953 0 128.538 14.6961 1889 71.1387 950.708 480.265
1954 0 128.618 13.3962 1723 73.4631 950.352 476.281
1955 1 65.3805 13.0161 851 70.9013 950.865 512.062
1956 0 66.4139 12.2866 816 71.9032 950.362 509.259
1957 0 70.4934 13.9587 984 69.7825 951.09 508.95
1958 0 69.757 11.4971 802 74.1621 950.958 505.647
1959 0 73.2945 15.3081 1122 68.7986 951.572 506.661
1960 0 71.8725 12.2578 881 73.8434 951.683 503.921
1961 0 77.9094 15.0303 1171 69.0683 951.922 505.937
1962 0 79.481 13.9404 1108 71.1354 951.622 502.339
1963 0 80.5032 12.8691 1036 72.0328 951.722 502.364
1964 0 81.7282 12.7985 1046 72.6071 951.944 500.408
1965 0 85.5173 14.956 1279 69.8116 952.242 497.324
1966 0 85.3034 13.9268 1188 71.3763 952.321 496.468
1967 0 91.5187 13.2869 1216 71.366 952.759 495.953
1968 0 94.7141 15.5415 1472 68.4898 953.263 496.471
1969 0 97.4318 13.6711 1332 71.0045 952.33 494.212
1970 0 99.303 15.3973 1529 69.2982 952.696 491.857
1971 0 100.514 14.5154 1459 70.0158 953.479 491.434
1972 0 103.862 12.6707 1316 72.7287 953.071 486.089
1973 0 110.511 14.3335 1584 69.8321 952.821 487.576
1974 0 112.538 14.4307 1624 70.6232 953.573 482.148
1975 0 117.765 15.5819 1835 68.879 953.979 482.88
1976 0 122.673 15.3171 1879 68.363 952.941 483.174
1977 0 124.783 13.6797 1707 70.9654 952.853 479.569
1978 1 61.4855 13.0275 801 69.4444 952.938 508.211
1979 0 65.6055 14.2823 937 67.5187 953.473 508.34
1980 0 67.4158 13.4538 907 68.8743 953.736 506.508
1981 0 70.5984 15.8077 1116 65.4785 953.568 508.756
1982 0 70.4803 12.8121 903 69.5681 953.644 506.007
1983 0 72.7097 13.9596 1015 68.1961 953.272 505.488
1984 0 74.6293 13.8953 1037 68.2816 953.221 505.328
1985 0 76.6779 14.1631 1086 69.3849 953.84 500.029
1986 0 79.7613 15.1703 1210 67.8893 953.864 501.493
1987 0 81.6289 12.3486 1008 71.1558 953.4 500.027
1988 0 84.4018 15.4618 1305 67.3762 954.5 499.03
1989 0 82.5695 14.182 1171 69.895 954.102 494.261
1990 0 86.4621 14.7464 1275 68.4831 954.292 496.155
1991 0 88.5904 13.0827 1159 70.7774 954.121 495.985
1992 0 91.5931 15.5252 1422 67.8024 954.252 494.461
1993 0 92.4569 13.7253 1269 70.2616 953.864 491.024
1994 0 97.6656 14.4473 1411 68.3862 953.288 492.284
1995 0 100.564 14.5579 1464 68.7889 953.629 487.383
1996 0 102.463 12.3264 1263 70.8171 953.784 491.081
1997 0 104.746 13.423 1406 70.49 954.63 487.37
1998 0 110.561 15.5028 1714 67.4201 954.843 485.467
1999 0 113.589 13.4872 1532 69.7996 954.165 482.051
2000 0 117.66 13.6071 1601 69.4622 953.822 480.299
2001 0 122.682 13.4821 1654 69.3875 953.779 476.849
2002 0 128.128 13.7129 1757 68.7934 954.289 478.838
2003 0 132.572 14.1131 1871 67.8942 954.382 477.491
2004 1 64.598 13.0964 846 68.2849 953.755 505.832
2005 0 67.6006 11.8786 803 70.3163 954.321 502.352
2006 0 69.801 12.2348 854 70.4871 954.228 499.823
2007 0 71.735 14.5954 1047 68.0105 953.069 496.82
2008 0 73.6819 14.5762 1074 67.4283 953.148 496.549
2009 0 76.739 13.3309 1023 68.9707 953.868 496.347
2010 0 78.5235 14.5179 1140 67.2035 953.029 498.01
2011 0 82.4593 13.3399 1100 68.6164 952.972 493.905
2012 0 82.7296 14.0699 1164 67.7706 953.181 495.025
2013 0 87.5028 15.1081 1322 66.3714 953.436 492.889
2014 0 89.5238 14.5883 1306 66.7044 952.52 490.715
2015 0 93.3936 14.2622 1332 66.1622 953.086 492.727
2016 0 96.8312 14.0347 1359 66.1015 953.215 491.724
2017 0 100.85 13.7829 1390 66.5101 952.803 487.335
2018 0 100.77 12.2954 1239 68.9233 953.114 482.644
2019 0 107.642 15.7373 1694 64.1936 953.43 486.706
2020 0 109.665 13.3954 1469 66.9197 953.402 485.274
2021 0 106.459 14.8602 1582 66.7769 952.821 480.41
2022 0 114.449 14.749 1688 65.8975 952.776 481.139
2023 0 119.519 15.7381 1881 65.025 953.455 478.437
2024 0 123.733 15.9133 1969 64.8329 953.529 477.571
2025 0 123.79 12.8686 1593 68.973 953.406 473.36
2026 0 131.704 16.074 2117 64.1946 953.337 475.735
2027 1 70.3398 12.596 886 65.7088 952.7 507.169
2028 0 72.4658 13.8272 1002 65.8772 952.713 504.655
2029 0 73.714 13.9458 1028 66.0117 952.624 502.127
2030 0 76.7342 13.3578 1025 65.4683 952.734 501.691
2031 0 77.5443 12.9861 1007 67.5869 953.356 501.532
2032 0 81.6211 14.8369 1211 65.0793 952.795 503.477
2033 0 83.8375 12.3214 1033 68.2072 952.782 500.236
2034 0 84.3961 13.6499 1152 68.3307 952.755 494.277
2035 0 88.3303 12.5665 1110 69.0225 952.967 494.931
2036 0 92.4438 14.3114 1323 66.3432 952.363 496.176
2037 0 95.5354 14.1937 1356 66.5103 952.76 494.848
2038 0 94.6382 13.0074 1231 68.4419 952.826 494.6
2039 0 98.6286 13.4444 1326 68.0875 953.066 491.459
2040 0 103.581 13.8443 1434 67.3856 953.301 492.803
2041 0 103.595 13.3211 1380 69.0761 953.456 488.349
2042 0 110.653 14.6855 1625 66.5668 952.89 488.199
2043 0 112.554 14.2242 1601 67.118 952.838 487.868
2044 0 115.926 14.7422 1709 66.1393 952.809 486.834
2045 1 58.5248 13.2252 774 65.3979 952.558 510.793
2046 0 60.646 12.202 740 66.1257 953.662 510.981
2047 0 64.5482 13.6642 882 65.3027 954.255 509.494
2048 0 63.378 12.6385 801 67.3283 954.019 506.777
2049 0 66.6534 14.3129 954 65.4287 953.978 506.173
2050 0 68.4985 12.4382 852 66.4777 953.741 508.333
2051 0 69.5004 13.0215 905 66.8099 954.085 506.527
2052 0 73.6203 13.5017 994 65.7314 952.945 504.003
2053 0 68.1407 15.424 1051 65.3425 952.725 504.01
2054 0 70.4944 15.1643 1069 65.1871 953.057 504.804
2055 0 71.3085 15.0473 1073 66.4893 953.238 502.64
2056 0 79.5985 16.244 1293 63.9621 953.217 502.926
2057 0 79.4763 15.0611 1197 65.7536 953.599 502.01
2058 0 82.7551 15.4069 1275 65.7271 953.461 501.362
2059 0 82.147 15.874 1304 65.4916 952.835 497.682
2060 0 87.3078 14.5691 1272 68.5212 952.788 498.454
2061 0 89.1794 16.3379 1457 67.1592 952.774 496.795
2062 0 93.4996 15.5723 1456 67.5151 952.531 495.038
2063 0 93.7799 16.0589 1506 66.8944 952.817 494.889
2064 0 96.3265 13.6515 1315 70.5171 953.249 490.051
2065 0 96.5124 15.4592 1492 68.8083 953.132 485.862
2066 0 102.654 15.4208 1583 68.1725 951.868 487.476
2067 0 103.495 16.5806 1716 67.1037 953.051 488.424
2068 0 109.096 15.1426 1652 68.7839 953.096 484.474
2069 0 112.222 15.6832 1760 68.1494 953.039 482.509
2070 0 117.538 15.7821 1855 67.7946 953.454 481.197
2071 0 117.268 15.8696 1861 68.0634 953.116 482.107
2072 0 123.332 15.3407 1892 68.8494 953.153 481.673
2073 0 126.313 14.8995 1882 69.9044 952.146 473.099
2074 0 128.654 15.7399 2025 69.4568 952.129 472.722
2075 0 134.278 14.954 2008 70.2276 951.808 473.745
2076 0 139.826 14.4036 2014 70.7001 951.804 472.234
2077 0 145.331 15.4887 2251 69.697 951.54 467.583
2078 1 77.0142 13.8286 1065 69.5333 952.501 501.79
2079 0 82.3222 13.678 1126 70.1892 951.887 498.496
2080 0 81.2063 11.3538 922 73.5878 951.811 498.73
2081 0 80.2857 12.7171 1021 73.6376 951.504 493.19
2082 0 85.1304 15.2002 1294 70.0757 951.9 496.444
2083 0 89.2333 14.3892 1284 71.3185 952.147 497.132
2084 0 91.4312 18.4948 1691 38.479 955.831 491.754
2085 0 90.1359 14.3894 1297 73.3246 952.213 490.017
2086 0 94.4775 14.1409 1336 73.7545 952.006 488.476
2087 0 99.196 14.426 1431 73.4214 952.318 487.594
2088 0 97.2085 14.2477 1385 74.9126 952.361 478.787
2089 0 106.298 15.3154 1628 72.4337 952.789 483.452
2090 0 110.18 15.2024 1675 72.3582 952.207 484.383
2091 0 116.388 15.053 1752 72.3322 951.914 483.538
2092 0 117.35 15.9523 1872 71.4888 951.888 481.551
2093 0 120.255 14.6938 1767 73.9881 951.539 475.087
2094 0 121.169 14.0465 1702 74.8884 951.966 476.408
2095 0 132.211 16.0426 2121 71.5323 951.986 476.082
2096 0 136.52 15.6534 2137 72.2363 951.808 473.487
2097 0 141.276 14.277 2017 74.0977 951.274 467.215
2098 0 144.132 14.4451 2082 74.2257 952.454 469.269
2099 0 151.285 14.0132 2120 74.5123 951.959 466.671
2100 1 82.3254 14.2848 1176 74.3512 952.399 497.173
2101 0 85.1111 14.8747 1266 73.0995 952.803 496.591
2102 0 87.2337 14.1115 1231 74.5256 952.482 494.474
2103 0 89.2642 14.1042 1259 74.6751 952.507 492.84
2104 0 94.4553 13.7737 1301 74.9716 952.344 490.608
2105 0 96.2245 16.7317 1610 71.1186 952.7 487.404
2106 0 97.1423 15.1016 1467 74.2788 952.801 487.497
2107 0 101.156 14.8286 1500 74.282 952.796 485.129
2108 0 103.461 16.1994 1676 72.2846 952.334 484.158
2109 0 111.55 14.4958 1617 73.4941 953.139 482.912
2110 0 110.397 14.158 1563 74.8759 952.247 475.644
2111 0 114.161 14.3919 1643 74.2581 951.828 476.512
2112 0 119.746 15.3491 1838 72.3199 952.056 476.569
2113 0 119.277 14.8898 1776 73.3136 952.455 474.497
2114 0 125.405 14.0903 1767 73.5127 952.617 475.287
2115 0 131.282 15.1201 1985 71.86 953.25 472.423
2116 1 67.2041 14.4634 972 70.6605 952.237 501.105
2117 0 74.2057 13.4895 1001 70.4815 952.369 503.277
2118 0 77.3646 14.7483 1141 69.9518 952.831 498.464
2119 0 79.1522 13.9352 1103 71.0181 952.991 497.615
2120 0 76.1012 13.7186 1044 73.204 952.879 492.394
2121 0 78.1622 12.8963 1008 73.9355 952.518 490.538
2122 0 85.2968 15.2174 1298 69.9176 952.747 494.425
2123 0 85.1935 14.3908 1226 71.2137 952.41 493.806
2124 0 93.4162 14.6763 1371 70.0802 951.953 492.524
2125 0 95.2817 14.4519 1377 70.3558 952.51 490.79
2126 0 95.5627 13.7501 1314 71.9056 952.457 489.498
2127 0 100.135 15.1496 1517 70.2538 952.613 487.716
2128 0 100.261 13.794 1383 72.1685 953.467 486.736
2129 0 104.198 15.9696 1664 69.4501 953.487 484.996
2130 0 109.16 14.0895 1538 71.4057 953.287 483.982
2131 0 109.129 15.3672 1677 70.2403 952.462 480.742
2132 0 112.197 15.7401 1766 69.6976 952.617 480.747
2133 0 117.184 14.6522 1717 71.3238 953.71 473.803
2134 0 123.155 16.8487 2075 67.9219 953.594 474.272
2135 0 126.298 14.6004 1844 70.8015 953.011 471.278
2136 0 132.292 14.5436 1924 70.7911 953.613 470.484
2137 0 137.223 15.1214 2075 69.8492 953.079 469.214
2138 0 141.375 13.3404 1886 71.9565 953.091 464.233
2139 0 142.413 13.6223 1940 71.6784 952.436 462.635
2140 0 144.207 13.4737 1943 72.1678 952.942 461.572
2141 0 152.259 13.5952 2070 71.8956 953.477 459.525
2142 0 151.273 12.1569 1839 74.6074 953.068 451.237
2143 1 163.847 14.5867 2390 70.213 953.413 456.594
2144 0 163.168 13.7037 2236 72.5729 952.865 446.574
2145 0 173.181 14.6552 2538 70.9913 952.225 444.728
2146 0 182.225 13.2089 2407 72.1516 953.04 445.916
2147 0 183.18 16.4647 3016 68.6558 952.327 439.887
2148 0 189.553 14.1227 2677 71.777 951.773 439.458
2149 0 197.16 13.6184 2685 72.7527 952.671 428.854
2150 0 201.333 16.0679 3235 69.404 952.278 433.178
2151 0 206.258 13.9 2867 72.3872 952.63 429.644
2152 0 206.264 13.9142 2870 143.878 951.646 429.676
2153 1 153.191 12.5073 1916 73.4843 952.162 458.774
2154 0 160.313 14.4842 2322 71.1985 952.203 456.056
2155 0 161.272 13.654 2202 72.8024 951.667 451.819
2156 0 166.268 13.8331 2300 72.7948 952.182 446.475
2157 0 175.306 14.2721 2502 71.9313 951.986 446.918
2158 0 180.376 13.4109 2419 72.8111 951.884 445.089
2159 0 185.28 13.0991 2427 73.9769 953.236 437.658
2160 0 193.234 14.6817 2837 71.5643 951.882 438.219
2161 0 199.214 14.9136 2971 72.1245 951.894 429.447
2162 1 215.531 15.1301 3261 70.789 952.231 434.135
2163 0 221.523 12.8565 2848 74.0565 952.282 432.953
2164 0 231.735 15.0862 3496 71.0798 952.749 423.779
2165 0 238.642 14.9303 3563 71.3129 952.756 426.57
2166 0 246.54 14.1518 3489 73.037 951.679 417.813
2167 1 178.259 14.8492 2647 72.4964 952.203 446.515
2168 0 183.374 13.6933 2511 73.9666 951.984 446.981
2169 1 198.618 13.6342 2708 73.8789 952.306 443.601
2170 0 196.661 14.5428 2860 73.8133 952.695 436.299
2171 0 207.274 13.2964 2756 74.6981 951.908 438.124
2172 0 212.181 12.8758 2732 75.5135 952.037 433.7
2173 0 221.362 13.6383 3019 74.7078 952.494 431.248
2174 0 226.437 15.8278 3584 72.113 953.12 424.982
2175 0 236.33 13.6673 3230 74.7539 952.725 423.196
2176 0 239.545 11.0668 2651 76.3006 952.806 431.14
2177 0 241.633 11.8154 2855 74.1278 952.731 440.143
2178 1 186.343 12.3375 2299 74.8865 952.747 449.307
2179 0 193.463 13.0671 2528 75.0483 952.454 440.002
2180 0 200.529 14.1576 2839 73.5527 952.46 441.468
2181 0 200.262 13.6421 2732 75.4338 952.789 434.041
2182 1 227.644 11.9309 2716 74.4356 952.983 442.74
2183 0 225.42 11.7425 2647 75.9464 953.297 437.026
2184 0 227.459 13.3826 3044 75.4803 953.383 426.438
2185 0 229.297 15.0198 3444 73.4472 952.916 425.539
2186 0 241.156 16.3214 3936 71.6433 952.512 420.254
2187 0 249.358 14.9183 3720 74.2962 952.016 408.491
2188 0 258.775 14.2324 3683 75.5982 952.775 405.345
2189 1 364.752 11.4845 4189 79.149 952.93 374.429
2190 0 360.622 10.432 3762 80.1263 952.394 378.628
2191 0 359.429 8.37162 3009 81.0422 952.399 394.256
2192 1 211.417 12.3689 2615 74.691 952.69 440.257
2193 0 214.464 13.233 2838 75.9715 952.347 425.965
2194 0 221.316 11.1515 2468 77.4631 951.703 430.395
2195 0 219.506 11.8266 2596 76.0959 952.364 434.805
2196 1 244.374 14.265 3486 74.311 951.942 418.641
2197 0 251.373 14.1066 3546 74.8218 952.04 403.619
2198 0 365.721 16.8981 6180 71.8299 952.34 348.403
2199 0 371.506 17.5125 6506 71.0409 952.059 340.133
2200 0 385.787 16.1462 6229 73.0401 952.108 329.642
2201 0 390.908 9.76444 3817 80.5921 951.534 361.173
2202 0 384.517 10.6393 4091 79.1239 952.211 366.538
2203 0 432.338 15.6058 6747 74.0409 953.062 305.695
2204 0 438.757 16.6949 7325 72.2926 953.285 303.452
2205 1 72.7019 12.7507 927 66.0183 953.305 499.422
2206 0 73.1969 12.7601 934 66.8319 953.038 498.202
2207 0 75.0709 13.3341 1001 66.5574 952.572 499.753
2208 0 80.2235 10.8322 869 69.328 953.161 497.605
2209 0 77.4288 12.6439 979 68.998 953.278 492.455
2210 1 89.3645 15.3193 1369 63.9028 953.321 496.028
2211 0 84.3025 12.6212 1064 68.593 952.978 492.213
2212 0 91.3022 11.7522 1073 68.8462 952.692 492.196
2213 0 91.2831 14.2743 1303 66.0967 952.473 489.61
2214 0 94.261 13.9082 1311 66.4851 952.837 487.302
2215 0 99.1997 13.0646 1296 67.0008 953.071 483.511
2216 0 106.322 13.3462 1419 65.4715 952.407 482.563
2217 0 98.184 14.0247 1377 66.1365 952.527 479.172
2218 0 419.851 15.9128 6681 69.5831 952.831 315.172
2219 0 417.273 16.5455 6904 68.6505 952.973 312.568
2220 0 412.642 14.6859 6060 70.7629 952.596 311.691
2221 0 134.292 17.5662 2359 57.9572 952.033 477.209
2222 1 70.1757 13.1955 926 61.5119 952.901 508.128
2223 0 74.2016 17.3851 1290 57.0984 952.564 508.83
2224 0 77.2639 16.3983 1267 57.959 952.641 507.448
2225 0 78.3425 14.8451 1163 59.9046 952.598 506.917
2226 0 78.3705 17.0983 1340 58.5373 952.67 504.215
2227 0 84.1104 14.16 1191 60.6163 952.201 503.452
2228 0 86.4482 16.3913 1417 58.4368 952.51 502.536
2229 0 86.4688 14.6874 1270 60.8024 952.372 498.073
2230 0 90.1443 15.4752 1395 59.5369 952.671 500.336
2231 0 93.1874 16.2361 1513 59.0919 952.781 498.07
2232 0 92.1026 14.8421 1367 60.8164 953.086 496.088
2233 0 102.592 16.0148 1643 58.9702 952.952 494.911
2234 0 105.562 15.3844 1624 59.822 952.308 491.835
2235 0 110.684 16.8949 1870 57.7316 952.621 493.943
2236 0 109.358 14.1005 1542 61.9676 953.194 485.067
2237 0 114.273 15.9355 1821 59.6606 952.623 487.127
2238 0 119.214 15.5771 1857 59.7221 952.462 487.236
2239 0 121.651 15.7089 1911 60.2323 953.258 480.813
2240 0 128.589 16.0278 2061 59.3886 952.628 479.53
2241 0 125.398 12.1453 1523 64.8647 952.256 472.21
2242 0 134.464 14.1525 1903 62.2128 953.444 473.623
2243 0 142.448 16.6025 2365 58.8127 953.12 474.748
2244 0 140.33 15.8341 2222 60.6364 952.875 468.954
2245 0 148.339 15.6669 2324 59.9049 953.187 471.815
2246 0 150.759 14.8781 2243 61.206 953.142 466.399
2247 0 159.305 16.1326 2570 59.5996 952.886 465.153
2248 0 160.915 16.1514 2599 59.4748 952.962 466.3
2249 0 169.713 15.6264 2652 60.0445 952.702 460.539
2250 0 173.48 16.1575 2803 59.3439 952.908 462.625
2251 0 171.354 15.3951 2638 61.6558 952.762 452.094
2252 1 184.732 14.291 2640 61.9155 953.21 453.364
2253 0 190.609 17.0139 3243 59.2788 952.921 447.371
2254 0 195.315 15.5953 3046 60.7702 952.782 447.396
2255 0 199.586 15.2716 3048 61.4816 952.822 445.965
2256 0 209.491 15.7381 3297 60.8987 953.161 438.276
2257 0 211.489 15.4949 3277 61.6469 953.172 434.409
2258 0 218.507 17.1116 3739 59.758 952.4 434.254
2259 0 229.626 16.9667 3896 60.008 952.418 422.512
2260 0 240.86 16.711 4025 59.92 952.336 424.412
2261 0 239.881 18.9802 4553 57.9284 953.144 424.469
2262 0 250.619 17.7321 4444 59.412 953.304 417.451
2263 1 312.384 9.67398 3022 65.4454 952.658 427.046
2264 0 311.077 12.4792 3882 63.5052 953.239 416.412
2265 1 203.562 14.5263 2957 62.4843 952.408 450.646
2266 0 208.67 14.4583 3017 64.2615 952.837 436.217
2267 0 211.663 13.923 2947 64.9511 952.709 435.522
2268 0 221.045 15.6077 3450 63.3464 952.507 435.223
2269 0 228.651 16.1775 3699 63.103 952.45 427.02
2270 0 230.51 16.6848 3846 63.0621 952.636 425.488
2271 1 199.959 10.8072 2161 66.609 952.124 456.625
2272 0 192.475 12.8432 2472 65.0841 952.385 455.335
2273 0 195.661 13.3854 2619 65.8816 952.23 449.252
2274 0 203.582 13.346 2717 65.915 952.261 449.548
2275 0 210.277 14.985 3151 65.3377 952.793 441.407
2276 0 217.329 14.3377 3116 66.1601 952.58 436.515
2277 0 221.375 13.7775 3050 67.8177 953.044 423.535
2278 0 228.498 14.8798 3400 66.7935 952.778 421.178
2279 0 235.617 14.6891 3461 67.1979 953.285 418.507
2280 1 224.519 13.9454 3131 66.7212 953.04 438.874
2281 0 224.451 11.0982 2491 69.0229 953.086 441.892
2282 0 224.275 10.1616 2279 68.9495 952.658 449.268
2283 0 224.719 11.8325 2659 69.3922 952.536 433.968
2284 0 228.812 15.1216 3460 66.2457 952.89 430.016
2285 0 230.979 14.0575 3247 68.5042 953.199 423.936
2286 0 239.334 13.8175 3307 68.821 953.32 421.06
2287 0 248.659 14.5098 3608 68.6524 952.675 413.9
2288 1 260.644 14.5639 3796 68.3045 952.423 410.202
2289 0 269.566 15.3283 4132 67.6856 952.649 406.355
2290 0 275.393 16.195 4460 66.6749 953.607 404.712
2291 0 282.477 16.1748 4569 67.2287 953.431 396.7
2292 0 292.688 16.5295 4838 67.6048 952.686 383.317
2293 1 339.498 11.8292 4016 71.4171 953.431 389.272
2294 1 64.268 14.0039 900 64.8611 953.341 500.364
2295 0 65.1867 15.2792 996 64.3394 953.55 499.47
2296 0 71.314 12.7465 909 65.2728 953.394 501.886
2297 0 73.385 13.8721 1018 64.6208 953.236 499.553
2298 0 72.6056 12.7401 925 67.1362 953.685 495.521
2299 0 73.1682 15.2115 1113 64.4232 953.545 497.565
2300 1 0 0 3.95252e-322 -nan 0 1.04765e-303
2301 1 86.3738 13.9857 1208 63.4106 954.135 497.94
2302 0 85.3186 14.6392 1249 64.0705 953.759 492.797
2303 0 82.181 14.2855 1174 65.5852 953.87 490.013
2304 0 89.9701 14.5826 1312 64.1951 953.72 491.217
2305 0 90.2663 15.4764 1397 63.3973 954.338 492.102
2306 0 90.5604 16.0445 1453 63.0798 953.557 492.1
2307 0 90.3178 13.5964 1228 67.0041 954.064 486.045
2308 0 90.1165 10.1535 915 70.0732 954.127 388.719
2309 0 96.143 16.3194 1569 63.905 954.001 483.625
2310 0 100.303 15.5729 1562 64.0499 954.076 485.656
2311 1 116.71 15.2857 1784 62.782 953.933 483.089
2312 0 108.459 14.1897 1539 65.6407 953.729 474.701
2313 0 110.124 11.5143 1268 70.0694 953.874 362.135
2314 0 116.186 14.3047 1662 65.4284 954.533 470.307
2315 0 120.135 9.97208 1198 72.2304 954.536 346.554
2316 0 126.326 15.0088 1896 64.1646 953.198 468.105
2317 1 145.441 16.3503 2378 60.9853 953.546 471.656
2318 0 143.419 13.0317 1869 65.4008 953.256 465.582
2319 0 140.582 15.0873 2121 63.6308 953.552 465.935
2320 0 148.361 12.8201 1902 64.9474 953.753 468.055
2321 0 154.607 11.5325 1783 63.7897 954.441 476.92
2322 0 142.262 11.8514 1686 65.5682 953.652 469.106
2323 1 85.3138 10.3149 880 65.1727 953.235 492.168
2324 0 91.5525 12.8451 1176 62.5986 954.232 491.56
2325 0 93.3502 14.1617 1322 61.4501 954.402 491.206
2326 0 89.4489 15.2154 1361 61.1815 954.013 489.788
2327 0 90.1268 16.3215 1471 61.1774 954.186 485.122
2328 1 105.401 14.8385 1564 60.4731 953.85 490.123
2329 0 109.538 13.2192 1448 62.962 953.878 482.465
2330 0 106.388 13.6764 1455 62.6241 953.927 484.806
2331 0 105.142 16.1115 1694 61.4569 954.165 479.826
2332 1 4 6.25 25 54.52 953.76 416.72
2333 1 109.339 17.6881 1934 60.5 953.694 474.05
2334 0 114.285 15.8201 1808 62.3689 954.648 472.932
2335 0 115.165 15.0306 1731 63.3079 953.236 473.876
2336 0 121.343 13.2846 1612 64.8567 954.001 469.976
2337 1 0 0 0 -nan -nan -nan
2338 1 129.535 14.745 1910 62.4869 953.645 476.88
2339 0 137.285 14.4954 1990 62.5015 953.821 477.175
2340 1 0 0 0 -nan -nan -nan
2341 1 267.773 9.01884 2415 67.4961 953.681 435.998
2342 0 270.366 9.01 2436 64.1527 953.68 457.945
2343 0 268.487 11.3115 3037 64.946 954.143 436.492
2344 0 275.448 13.901 3829 65.1267 953.735 409.12
2345 0 283.967 15.9772 4537 62.4893 953.409 410.702
2346 1 182.19 16.0218 2919 62.0021 953.52 456.178
2347 0 189.345 14.2069 2690 64.1119 953.742 450.838
2348 1 17.4567 6.98871 122 46.1475 954.836 530
2349 0 16.0506 10.903 175 44.3657 955.103 530.657
2350 1 192.229 16.1474 3104 58.2452 953.17 437.219
2351 0 202.73 14.9953 3040 58.4836 953.356 433.332
2352 1 287.56 15.0577 4330 56.3406 953.91 419.691
2353 0 284.552 12.7428 3626 59.818 953.196 405.547
2354 0 289.325 12.7746 3696 60.6856 953.202 392.705
2355 1 309.764 15.0631 4666 57.7955 953.709 402.687
2356 0 317.85 14.6673 4662 58.0105 954.123 401.191
2357 1 282.532 11.5597 3266 60.6797 953.79 422.628
2358 0 277.949 11.8295 3288 57.8589 954.067 447.833
2359 1 194.353 12.3898 2408 61.7159 953.326 446.317
2360 0 203.71 14.6041 2975 59.996 953.839 445.318
2361 0 195.376 15.2424 2978 60.734 953.212 435.527
2362 1 213.374 15.6439 3338 59.7055 953.515 436.443
2363 0 219.5 14.1321 3102 61.5996 953.368 435.426
2364 0 223.603 17.8262 3986 58.2782 953.554 434.278
2365 0 231.72 16.0237 3713 60.069 953.891 433.856
2366 0 239.418 14.2637 3415 62.9174 952.961 423.474
2367 0 234.45 15.9522 3740 62.4404 953.183 411.733
2368 0 148.249 10.9006 1616 57.8342 953.29 229.558
2369 0 392.612 25.7302 10102 50.0329 953.745 325.73
2370 0 391.64 27.704 10850 49.0365 953.383 313.497
2371 1 66.0435 7.57077 500 67.154 953.73 237.402
2372 1 343.746 12.0263 4134 64.5948 953.094 394.574
2373 1 31.0229 6.18897 192 71.4844 952.995 224.62
2374 1 319.764 10.2638 3282 64.5481 953.041 418.753
2375 0 317.508 12.3965 3936 64.9454 953.131 394.655
2376 0 320.811 12.5993 4042 66.1306 952.722 376.489
2377 0 333.145 17.0406 5677 61.7264 953.208 368.943
2378 1 368.88 26.3962 9737 51.3449 954.01 341.295
2379 0 422.554 21.8268 9223 52.8833 953.998 324.939
2380 0 410.603 25.2604 10372 51.4358 954.752 318.692
2381 0 412.065 28.9372 11924 49.1705 954.443 308.715
2382 0 410.75 17.154 7046 61.1785 953.673 333.841
2383 0 415.204 17.8611 7416 60.5734 954.026 330.631
2384 1 263.509 14.7661 3891 63.8188 953.636 421.258
2385 0 273.712 16.0424 4391 63.184 954.32 406.064
2386 0 279.764 16.203 4533 62.619 954.137 408.479
2387 0 287.772 14.2509 4101 66.0376 954.472 394.274
2388 0 298.749 16.8804 5043 62.7125 954.251 390.34
2389 1 324.752 11.0669 3594 68.1269 954.912 393.693
2390 0 323.868 15.7286 5094 64.0874 954.785 369.35
2391 0 341.772 17.2601 5899 61.6699 954.986 373.034
2392 0 345.284 17.3625 5995 62.2707 956.154 360.061
2393 0 353.728 12.2241 4324 67.1878 955.718 376.022
2394 0 351.698 9.72709 3421 67.4154 956.36 406.796
2395 0 349.805 11.1691 3907 67.1925 956.864 394.58
2396 0 341.782 15.0827 5155 64.4997 956.339 374.455
2397 0 350.848 14.5846 5117 64.6125 956.064 369.852
2398 0 359.196 15.5291 5578 63.7528 955.652 361.722
2399 1 211.504 14.0328 2968 64.2847 955.386 432.689
2400 0 218.757 15.0212 3286 63.1923 955.841 430.128
2401 0 227.615 15.1396 3446 63.6326 955.596 423.594
2402 0 234.637 15.9523 3743 62.1264 956.17 429.021
2403 0 240.727 14.0657 3386 64.7708 955.814 412.087
2404 0 246.588 16.2011 3995 62.5374 955.55 413.926
2405 0 250.119 11.9783 2996 65.0911 955.833 429.464
2406 0 251.726 12.6527 3185 65.7099 955.572 414.404
2407 1 305.91 11.8041 3611 64.6428 955.959 413.896
2408 0 303.115 12.0746 3660 64.7055 956.284 411.218
2409 0 326.109 24.6666 8044 51.5408 957.096 363.345
2410 0 321.205 25.9429 8333 51.2122 956.378 350.169
2411 0 314.634 11.4132 3591 65.367 955.532 406.784
2412 0 313.668 12.1211 3802 64.223 955.954 412.08
2413 0 314.443 12.8481 4040 64.9005 955.937 400.418
2414 0 307.939 11.0444 3401 66.6528 955.492 408.411
2415 1 14.0201 5.1355 72 46.0556 959.472 526.333
2416 0 15.208 10.981 167 43.485 957.575 526.599
2417 1 305.587 10.3996 3178 68.2782 955.836 406.476
2418 0 302.622 12.5206 3789 66.4917 955.73 403.012
2419 0 309.543 16.3725 5068 63.2995 955.638 385.466
2420 0 312.864 16.0198 5012 64.0353 955.481 378.26
2421 1 331.772 14.95 4960 64.6125 956.04 380.56
2422 0 398.388 29.1299 11605 46.6122 957.925 300.967
2423 0 353.224 17.7366 6265 61.4281 956.068 361.817
2424 0 366.185 16.6774 6107 61.6774 954.956 354.131
2425 0 365.9 12.9434 4736 65.7105 954.588 380.216
2426 0 363.818 10.2551 3731 68.0517 955.289 385.158
2427 0 361.046 10.8989 3935 65.8973 955.526 399.864
2428 1 404.744 12.0101 4861 65.4573 954.989 374.707
2429 0 404.87 15.1629 6139 63.036 955.744 353.756
2430 0 401.325 12.7503 5117 65.8908 955.206 347.542
2431 0 403.049 14.3506 5784 64.6037 955.74 335.879
2432 0 338.76 16.6224 5631 62.1076 955.286 361.92
2433 0 348.841 16.5749 5782 62.0868 954.687 362.478
2434 0 362.914 17.2024 6243 60.9207 955.384 361.32
2435 0 376.958 16.3122 6149 61.9587 955.213 348.105
2436 0 387.116 15.4114 5966 63.172 955.234 337.66
2437 0 398.045 17.2041 6848 60.7856 955.259 346.48
2438 0 400.814 12.9362 5185 64.5032 955.526 362.163
2439 0 401.948 13.5565 5449 64.5337 955.308 357.701
2440 1 422.699 11.8051 4990 66.1912 954.807 362.876
2441 1 14.2252 8.99809 128 43.3828 957.031 527.898
2442 0 15.002 2.39968 36 45.8611 960.083 529.611
2443 0 14.0006 1.57137 22 45.5455 959.227 532.409
2444 0 16.0156 2.99707 48 44.7083 959.104 529.688
2445 0 18.0429 9.47742 171 41.6842 956.871 528.813
2446 0 18.0328 8.76181 158 42.1899 957.418 529.532
2447 0 16.0603 7.84545 126 42.6746 957.897 527.373
2448 0 16.0397 9.41417 151 41.9139 957.139 528.477
2449 0 18.0386 5.76543 104 43.6538 957.135 528.038
2450 0 18.0287 4.99204 90 43.8 957.822 530.556
2451 0 18.0111 4.10858 74 44.0541 958.338 531.432
2452 0 16.1287 5.45611 88 43.4318 958.239 528.136
2453 0 17.0773 5.79718 99 43.4141 957.374 529.182
2454 0 19.1573 8.40412 161 43.0994 957.41 528.137
2455 0 18.0802 6.69241 121 43.4628 957.339 528.289
2456 0 16.0316 4.86539 78 44.9103 956.603 529.32
2457 0 20.1357 7.54879 152 42.4539 956.27 527.158
2458 0 18.0282 8.20937 148 42.5 955.142 529.203
2459 0 19.0898 10.4244 199 41.8342 956.492 531.296
2460 0 20.1416 14.2987 288 40.6389 955.566 530.017
2461 0 20.1196 9.1453 184 42.1196 956.152 530.065
2462 0 17.0251 4.22904 72 44.6111 957.722 528.667
2463 0 18.1668 4.12842 75 45.76 957.973 528.947
2464 0 20.1063 8.30587 167 44.0419 956.503 527.82
2465 1 270.683 15.4868 4192 65.9194 954.402 403.853
2466 0 271.422 15.5404 4218 67.0066 953.857 399.7
2467 1 19.0398 4.25424 81 45.7407 956.926 528.42
2468 0 15.0694 9.22398 139 43.7914 955.367 528.763
2469 0 17.1253 6.01451 103 45.3301 957.874 530.738
2470 0 20.0339 10.2327 205 43.3951 955.566 530.498
2471 0 19.1352 11.2358 215 43.5116 955.191 530.558
2472 0 21.0717 13.0981 276 42.4819 955.181 528.475
2473 0 18.0444 10.4188 188 43.8936 956.314 530.766
2474 0 18.0444 10.4188 188 87.3404 957.314 530.766
2475 0 20.0285 14.08 282 42.3404 955.897 532.089
2476 0 19.0939 8.79862 168 43.875 956.113 531.101
2477 0 19.0544 5.45804 104 45.8846 957.096 530.596
2478 0 15.0159 4.66173 70 46.9857 957.814 529.243
2479 0 18.0719 11.0116 199 44.3367 956.92 530.422
2480 0 18.0838 6.41458 116 45.6379 957.103 528.336
2481 0 13.0208 7.75683 101 45.0792 957.158 524.97
2482 0 18.0401 2.54988 46 47.4565 958.13 529.391
2483 0 19.0114 5.8912 112 46.0268 957.643 528.339
2484 1 2 13 26 44.1538 957.462 522.269
2485 1 16.03 7.29883 117 45.4701 957.957 529.026
2486 0 403.87 17.4388 7043 69.3896 954.751 339.896
2487 0 415.806 16.3538 6800 70.7429 954.45 334.378
2488 0 415.336 19.2952 8014 67.4301 954.948 323.035
2489 0 423.903 13.8169 5857 74.5996 954.809 341.798
2490 0 414.243 14.3973 5964 73.5485 955.054 347.343
2491 1 0 0 0 -nan -nan -nan
2492 1 422.797 21.178 8954 65.7798 955.804 310.688
2493 0 418.1 22.5927 9446 64.8843 955.663 308.32
2494 0 438.681 18.7676 8233 69.0845 955.116 318.036
2495 0 433.961 20.1884 8761 67.3498 955.13 318.772
2496 0 430.509 18.9473 8157 69.3746 955.899 324.046
2497 0 431.937 19.4404 8397 68.2419 955.743 318.685
2498 0 414.106 18.9831 7861 70.5073 955.147 320.033
2499 0 415.347 18.0909 7514 71.7032 956.097 318.64
2500 1 17.0578 9.73163 166 44.2229 956.843 528.44
2501 0 17.071 7.61525 130 45.1462 956.308 527.038
2502 0 20.0114 4.54742 91 47.2308 956.901 531.703
2503 0 18.0266 4.82621 87 49.023 957.517 528.437
2504 0 16.0658 10.5815 170 46.1529 955.876 529.588
2505 0 16.0167 13.6108 218 44.5367 955.573 528.601
2506 0 17.0762 3.98216 68 49.5147 958.191 530.353
2507 0 17.2277 5.63046 97 47 956.526 526.103
2508 0 20.4716 15.0941 309 44.7411 955.896 528.825
2509 0 18.2543 7.88855 144 47.9514 957.285 528.194
2510 0 18.061 8.19447 148 48.527 956.236 528
2511 0 19.1361 8.5702 164 48.2195 956.53 528.201
2512 0 17.016 5.46545 93 48.914 957.978 525.538
2513 0 20.385 9.41871 192 47.4583 956.99 526.984
2514 0 18.2289 4.49835 82 48.9756 957.671 528.354
2515 0 19.1874 6.5668 126 49.5476 957.421 528.024
2516 0 20.0472 2.19482 44 51.5227 960.045 522.523
2517 0 18.1583 5.7274 104 50.0865 957.173 526.962
2518 0 18.2568 6.9563 127 49.4803 957.205 529.512
2519 0 17.0164 9.40268 160 50.5812 957.094 528.362
2520 0 20.1434 6.90052 139 50.2374 956.669 528.252
2521 1 1 3 3 48.6667 955.333 517.333
2522 1 20.2504 5.9752 121 50.6033 957.595 527.198
2523 0 22.4933 6.49082 146 50.3767 957.479 527.192
2524 0 19.1241 4.60152 88 51.375 957.989 529.682
2525 0 21.1803 6.79876 144 50.5694 957.688 526.771
2526 0 21.1803 6.65712 141 50.6879 957.66 526.745
2527 0 19.2627 9.50021 183 50.765 957.219 525.53
2528 0 20.1267 9.7383 196 49.5204 957.413 526.587
2529 0 20.3223 6.54453 133 52.3233 958.586 524.609
2530 0 21.4416 10.0739 216 50.6204 956.88 525.634
2531 0 22.1293 4.79003 106 52.9811 957.491 529.679
2532 0 21.0816 6.16651 130 52.6615 958.515 527.285
2533 0 21.1103 6.39499 135 52.5482 958.482 527.163
