time division length width area intensity CMx CMy
0 0 51.0223 14.0919 719 59.0862 1189.5 509.334
1 0 51.111 13.0892 669 61.2108 1190.03 509.686
2 0 52.0707 13.1168 683 61.2445 1189.82 508.674
3 0 53.1016 14.9336 793 58.7465 1189.95 508.639
4 0 54.1007 13.2715 718 60.9666 1189.74 508.13
5 0 56.1089 15.3095 859 58.1583 1189.54 506.601
6 0 57.0643 13.3358 761 61.1603 1188.41 506.335
7 0 57.1017 14.3954 822 59.9611 1188.25 505.521
8 0 59.0832 14.8943 880 59.2591 1187.72 505.603
9 0 62.1219 15.212 945 58.9386 1188.81 504.577
10 0 62.1051 14.6204 908 60.0242 1189.22 504.204
11 0 64.1621 14.027 900 60.3189 1188.23 507.21
12 0 65.1396 14.538 947 60.472 1188.75 503.905
13 0 70.0978 15.1217 1060 58.8283 1188.27 503.253
14 0 71.0332 14.6974 1044 59.5709 1188.51 504.179
15 0 73.0603 15.3709 1123 59.1309 1187.74 499.943
16 0 77.0967 16.4469 1268 57.1995 1188.09 501.938
17 1 41.0315 11.6983 480 64.5104 1188.3 516.81
18 0 43.0401 13.6849 589 61.9592 1187.99 516.302
19 0 43.0336 12.0836 520 64.8808 1189.44 515.613
20 0 43.0121 11.9734 515 64.5029 1188.43 516.837
21 0 46.1419 15.1056 697 60.792 1187.64 515.188
22 0 47.0349 12.6927 597 63.9045 1187.95 515.472
23 0 47.1267 12.2436 577 65.1196 1188.51 513.475
24 0 50.0332 14.3704 719 62.4924 1188.4 512.419
25 0 53.047 11.7066 621 64.6248 1188.2 513.464
26 0 52.0511 14.4089 750 62.8947 1188.54 510.125
27 0 55.0798 13.7982 760 63.4118 1188.87 508.891
28 0 55.0728 14.272 786 63.4071 1188.04 509.426
29 0 60.0418 14.2734 857 62.4889 1188.57 509.069
30 0 58.1021 14.0959 819 64.4921 1189.05 504.654
31 0 60.138 13.2196 795 65.166 1189.08 506.693
32 0 64.0515 13.4111 859 64.1304 1189.41 506.22
33 0 66.0832 14.8903 984 62.4146 1188.32 502.704
34 0 68.0839 14.8493 1011 62.4224 1189.04 503.471
35 0 70.1603 15.0512 1056 62.3475 1189.18 503.602
36 0 72.296 14.5513 1052 63.4116 1189.33 500.908
37 0 74.2092 14.0144 1040 63.7865 1188.86 502.381
38 0 76.0784 13.8278 1052 64.3584 1188.7 501.556
39 0 77.1076 14.0712 1085 64.4341 1189.36 500.265
40 0 80.0759 14.8609 1190 63.7168 1189.45 498.376
41 0 84.0968 15.1492 1274 62.9011 1189.62 498.36
42 1 42.0925 12.4012 522 66.7471 1189.8 514.983
43 0 46.0813 12.0005 553 67.0416 1190 515.861
44 0 46.0359 12.4251 572 66.6189 1189.87 515.344
45 0 48.0902 12.7885 615 66.3008 1189.18 514.665
46 0 46.0444 12.2491 564 68.8457 1190.23 512.317
47 0 51.0935 13.5047 690 65.958 1190.14 512.665
48 0 50.0579 13.3845 670 67.3119 1190.03 511.375
49 0 53.075 14.1686 752 66.2314 1190.2 510.312
50 0 54.0559 15.4285 834 65.2458 1190.2 509.588
51 0 55.0881 12.3439 680 69.4309 1190.14 506.921
52 0 58.057 12.6427 734 68.485 1190.25 507.399
53 0 60.0715 15.2485 916 65.1299 1190.68 506.655
54 0 61.0258 14.5676 889 66.748 1190.45 503.835
55 0 63.0472 13.7675 868 67.4389 1189.86 504.939
56 0 67.034 15.2907 1025 64.8039 1190.49 504.144
57 0 70.1368 13.9584 979 66.951 1190.47 502.544
58 0 70.0846 13.3268 934 68.4775 1191.16 500.971
59 0 74.1411 13.9599 1035 67.029 1190.5 498.574
60 0 76.0525 14.3717 1093 67.3532 1190.37 498.092
61 0 78.1235 13.3379 1042 68.8301 1190.06 496.368
62 0 81.0768 12.6547 1026 69.0429 1190.62 498.468
63 0 84.0666 13.9532 1173 67.7562 1190 494.416
64 0 86.0448 12.1797 1048 70.5324 1190.17 492.587
65 0 88.1302 13.4914 1189 69.3389 1189.99 488.656
66 1 43.0353 12.1993 525 70.2095 1190.67 513.278
67 0 44.021 11.4264 503 71.4752 1190.63 513.66
68 0 44.1327 11.9639 528 71.5019 1190.86 511.417
69 0 47.0428 12.4993 588 70.2058 1190.29 510.226
70 0 47.0388 11.9688 563 71.9023 1190.7 509.95
71 0 48.0509 12.3411 593 71.2917 1190.45 509.82
72 0 50.0462 12.5084 626 71.3482 1190.22 509.383
73 0 50.0318 10.4134 521 74.3244 1189.74 507.309
74 0 52.0338 9.5707 498 75.504 1190.13 503.329
75 0 53.0369 10.125 537 75.1006 1189.5 506.201
76 0 57.0842 10.8611 620 74.1048 1189.83 504.308
77 0 57.0493 11.5689 660 73.9015 1189.79 502.795
78 0 59.0613 10.9039 644 74.4519 1188.78 501.213
79 0 62.0656 10.8756 675 74.8637 1189.91 500.881
80 0 64.1466 10.4448 670 75.6015 1190.39 500.157
81 0 64.1802 11.047 709 75.7024 1190.05 498.828
82 0 69.1042 12.6186 872 73.4851 1190.76 497.102
83 0 69.111 12.5595 868 73.8353 1190.75 498.952
84 0 73.0864 11.5753 846 75.2459 1190.84 493.924
85 0 79.1438 16.0215 1268 66.9961 1189.87 501.795
86 0 81.0722 13.3338 1081 71.6577 1190.07 497.979
87 1 42.0144 13.3526 561 69.4242 1190.28 516.358
88 0 42.0539 13.4827 567 70.4462 1190.1 513.591
89 0 44.0567 12.3931 546 71.6007 1190.92 513.203
90 0 44.0519 12.054 531 72.3333 1191.22 514.132
91 0 45.024 12.1713 548 72.4051 1191.25 513.783
92 0 47.0184 13.08 615 71.5122 1190.95 511.25
93 0 50.0267 14.7321 737 68.6106 1191.24 510.305
94 0 51.0469 12.9097 659 71.4537 1191.23 508.162
95 0 53.0374 11.8407 628 72.1576 1191.09 509.823
96 0 53.0659 12.1359 644 72.5404 1190.27 509.557
97 0 55.0467 12.6075 694 72.0346 1191.23 509.334
98 0 54.0345 12.1959 659 73.7451 1190.36 505.918
99 0 57.0501 11.2007 639 74.6901 1191.16 505.321
100 0 57.0392 11.4483 653 74.7856 1190.79 503.729
101 0 61.0743 10.1843 622 75.9791 1190.42 501.777
102 0 60.0534 10.8237 650 75.9892 1190.62 500.052
103 0 63.064 11.2108 707 74.9972 1191.31 500.595
104 0 65.0524 10.4685 681 75.7592 1191.22 499.36
105 0 69.0785 11.8995 822 73.9659 1190.23 497.601
106 0 70.032 10.2525 718 75.8886 1191.34 497.494
107 0 73.0632 10.9768 802 74.7905 1190.39 494.955
108 0 75.1242 9.61074 722 76.7008 1189.73 494.965
109 0 78.0878 12.2554 957 73.6949 1190.71 491.513
110 1 40.044 9.58946 384 73.7005 1190.32 514.005
111 0 40.0357 10.116 405 74.3309 1190.63 513.015
112 0 42.0132 9.35421 393 76.4809 1191.59 513.193
113 0 43.0428 10.4547 450 75.3133 1190.84 510.744
114 0 41.0196 8.58126 352 78.804 1190.9 508.477
115 0 45.0336 10.4366 470 75.6723 1190.64 509.064
116 0 44.0213 7.5418 332 80.2169 1191.51 506.431
117 0 48.0473 9.86527 474 77.2743 1191.36 507.688
118 0 49.0453 9.56258 469 77.42 1191.13 504.58
119 0 50.0667 10.9454 548 76.4142 1191.4 503.763
120 0 54.1305 11.6201 629 74.0636 1190.82 506.552
121 0 56.3502 12.3336 695 72.9453 1191.01 504.665
122 0 59.0958 14.1804 838 71.043 1191.66 501.963
123 0 62.0506 12.8766 799 72.3442 1190.9 501.655
124 0 62.0711 12.2924 763 73.6527 1191.1 500.448
125 0 65.0583 12.6348 822 72.2263 1190.92 501.526
126 0 68.1445 13.0165 887 72.0282 1190.96 498.39
127 0 70.1205 13.2058 926 72.0097 1191 496.281
128 0 72.1223 13.3246 961 71.8127 1191.17 496.118
129 0 73.088 11.9445 873 74.5773 1190.3 495.178
130 0 77.0621 12.0812 931 74.3265 1190 491.579
131 0 78.0335 11.7642 918 75.5425 1189.77 491.09
132 0 81.0916 11.9248 967 74.637 1190.22 492.535
133 0 84.0956 12.0815 1016 75.123 1190.53 490.973
134 1 40.0262 11.1677 447 74.3803 1190.39 512.094
135 0 45.1179 11.4589 517 72.0832 1191.42 512.093
136 0 44.0511 11.3958 502 73.6833 1191.97 510.04
137 0 44.0397 11.8075 520 74.1269 1191.69 508.335
138 0 46.0478 11.6835 538 73.132 1191.48 509.307
139 0 50.0591 11.8859 595 71.5815 1190.91 508.982
140 0 49.05 11.0296 541 73.8836 1190.6 510.211
141 0 50.0142 12.2365 612 72.9869 1191.05 506.748
142 0 51.0068 12.1553 620 73.0839 1190.65 506.094
143 0 54.0316 12.3817 669 72.6996 1191.18 502.954
144 0 55.0512 12.2976 677 73.5406 1191.38 502.939
145 0 56.063 11.273 632 73.9684 1191.24 505.593
146 0 60.0477 12.6899 762 72.1444 1191.23 502.757
147 0 60.0593 11.6718 701 74.6462 1190.57 501.85
148 0 62.1039 11.2714 700 74.7157 1190.15 502.644
149 0 66.0836 12.5598 830 73.0217 1190.06 499.267
150 0 68.1283 11.5517 787 74.2808 1190.28 499.738
151 0 70.0649 12.2886 861 73.7956 1190.69 498.412
152 0 72.0866 12.0966 872 73.9312 1190.57 497.767
153 0 73.1721 11.8214 865 75.578 1190.5 494.578
154 0 75.138 10.4741 787 77.7598 1190.04 494.539
155 0 78.0988 12.3305 963 75.2388 1191.2 494.239
156 1 41.0568 10.7656 442 74.6041 1191.84 514.423
157 0 41.0439 11.7192 481 73.8254 1191.6 511.156
158 0 43.0349 12.7338 548 71.5657 1191.36 510.828
159 0 44.0441 11.1479 491 74.4297 1190.75 511.049
160 0 44.0493 11.3282 499 74.1904 1190.25 510.729
161 0 44.0606 10.9849 484 75.9669 1189.75 509.574
162 0 48.0423 13.9877 672 69.4658 1190.13 510.629
163 0 48.1706 11.9783 577 73.3882 1191.05 508.314
164 0 50.0645 11.4053 571 73.331 1191.28 510.063
165 0 51.1589 11.2981 578 73.3633 1190.75 507.83
166 0 54.0796 13.0178 704 70.7017 1191.12 505.476
167 0 54.0873 11.5369 624 72.9183 1190.64 505.96
168 0 57.1644 12.3853 708 70.8065 1190.84 504.835
169 0 57.1835 12.1713 696 71.8118 1190.93 501.866
170 0 61.1575 12.0018 734 71.5695 1190.85 502.296
171 0 62.1396 13.4858 838 68.895 1190.65 500.28
172 0 64.1008 12.5271 803 69.7285 1191.11 500.711
173 0 65.0903 12.5518 817 70.7797 1191.62 498.789
174 0 69.142 12.5539 868 69.7131 1191.2 498.795
175 0 73.1198 13.2249 967 67.4447 1191.58 498.94
176 0 75.0879 13.4509 1010 68.0446 1191.37 494.596
177 0 76.1207 13.61 1036 68.1091 1190.36 495.18
178 1 38.029 10.8075 411 71.5182 1190.89 513.455
179 0 41.0488 11.7665 483 70.2588 1191.12 510.087
180 0 43.0507 11.1729 481 70.2287 1190.26 512.457
181 0 43.1031 12.0177 518 70.527 1189.66 509.71
182 0 44.0879 12.339 544 69.3364 1189.66 511.971
183 0 47.0455 10.8831 512 72.2051 1189.94 511.23
184 0 45.1207 10.8598 490 73.451 1188.56 511.304
185 0 48.0409 11.5318 554 71.4188 1189.18 511.827
186 0 51.0441 11.2452 574 71.878 1188.95 510.148
187 0 50.1163 12.471 625 70.6384 1188.61 509.373
188 0 54.1699 13.2361 717 68.5356 1187.7 508.084
189 0 54.1114 12.6406 684 70.7003 1187.24 506.598
190 0 54.1283 12.6367 684 71.3348 1187.01 505.563
191 0 57.0604 12.0048 685 71.7445 1186.35 505.599
192 0 59.1409 12.5632 743 70.4563 1186.64 506.374
193 0 62.0945 13.2701 824 68.1371 1186.7 506.5
194 0 62.0808 13.0153 808 69.5792 1186.82 505.429
195 0 63.1346 12.7505 805 69.9677 1186.7 505.988
196 0 66.0372 13.129 867 69.083 1187.39 507.058
197 0 67.0747 13.0302 874 69.2483 1186.35 506.309
198 0 72.126 13.3932 966 67.9658 1186.37 505.081
199 0 71.1519 13.1268 934 68.7559 1186.38 504.548
200 0 74.1154 13.9917 1037 67.5757 1186.51 502.074
201 0 77.166 13.633 1052 67.8897 1185.92 501.58
202 0 75.1074 11.8896 893 71.2128 1186.29 500.161
203 0 77.1359 11.4733 885 72.1458 1186.89 500.654
204 0 82.0745 13.0491 1071 69.395 1186.49 499.107
205 1 44.0475 12.0098 529 66.344 1186.05 518.58
206 0 43.0184 11.2742 485 69.1979 1187.06 517.67
207 0 44.032 11.8777 523 68.3901 1186.06 517.948
208 0 45.0438 11.0781 499 68.1864 1185.6 519.764
209 0 44.0692 11.1189 490 69.7531 1186.32 518.569
210 0 49.0221 12.7901 627 66.6938 1186.31 516.29
211 0 49.0648 11.8415 581 68.136 1186.31 515.971
212 0 49.0515 12.5175 614 67.513 1185.57 515.093
213 0 53.0478 12.2531 650 66.7985 1185.05 514.86
214 0 51.0431 11.0495 564 69.6152 1184.44 515.599
215 0 55.0349 12.3013 677 66.9926 1184.74 513.985
216 0 57.0878 13.2252 755 66.1444 1185.04 513.069
217 0 56.0645 12.0575 676 68.3299 1184.15 510.095
218 0 57.0486 11.4464 653 69.0628 1184.11 510.141
219 0 62.0966 12.0941 751 66.8029 1184.58 509.77
220 0 62.0993 12.641 785 66.3338 1184.69 508.873
221 0 65.0882 11.5689 753 68.0797 1184.86 508.077
222 0 65.2131 11.6694 761 67.5637 1184.57 508.512
223 0 67.0566 12.1539 815 68.0736 1184.14 504.486
224 0 71.1608 12.6896 903 66.2625 1184.6 503.66
225 0 71.1623 11.2981 804 68.9179 1184.94 500.867
226 0 74.1839 12.5499 931 66.8152 1184.55 500.227
227 0 76.2472 12.3152 939 67.3355 1184.58 499.778
228 1 41.0138 11.4595 470 65.7979 1183.84 517.996
229 0 40.03 10.4172 417 68.1463 1183.47 516.573
230 0 44.0358 11.7859 519 64.9769 1183.9 516.586
231 0 43.1954 12.3856 535 65.4 1184.23 514.662
232 0 45.0626 12.4937 563 65.222 1184.02 513.948
233 0 47.0694 10.8776 512 67.2109 1184.56 514.418
234 0 47.0575 12.8991 607 65.5585 1183.94 512.138
235 0 49.0338 12.0733 592 66.2568 1184 512.654
236 0 52.0936 12.324 642 65.5716 1184.06 511.466
237 0 53.0389 12.5568 666 65.9805 1184.3 508.02
238 0 52.0785 12.4428 648 66.7268 1184.34 509.438
239 0 54.0696 11.8921 643 67.0949 1183.87 508.946
240 0 56.0414 12.4194 696 67.0316 1184.63 507.135
241 0 58.0559 11.9368 693 67.3766 1184.76 505.519
242 0 59.1365 12.5811 744 67.3226 1185.46 503.495
243 0 62.0789 12.0492 748 66.6912 1184.19 504.949
244 0 63.1722 11.9356 754 67.7825 1184.55 503.225
245 0 65.2484 13.9314 909 64.5082 1184.85 504.418
246 0 65.1082 11.4578 746 68.8445 1184.47 503.539
247 0 68.1665 12.3961 845 66.9183 1185 502.549
248 0 71.0667 11.4962 817 67.8054 1184.53 502.901
249 0 73.1568 14.3117 1047 64.7784 1184.85 499.223
250 0 74.1351 11.4386 848 69.0755 1184.94 500.139
251 0 78.1079 12.854 1004 66.4044 1185.58 498.796
252 0 80.1322 13.2905 1065 66.2563 1185.1 496.799
253 1 41.0229 9.31187 382 68.5864 1185.31 518.435
254 0 41.0402 10.1608 417 66.8441 1185.94 518.899
255 0 44.0318 12.5137 551 64.1125 1186 515.267
256 0 43.0409 11.3381 488 66.8258 1185.79 515.879
257 0 45.0204 11.0617 498 66.9859 1186.3 515.319
258 0 46.1036 11.626 536 65.7127 1185.7 514.576
259 0 47.0512 10.9243 514 66.677 1185.27 514.113
260 0 48.0317 11.3467 545 66.222 1185.54 514.028
261 0 49.1141 10.3433 508 67.2756 1185.59 513.341
262 0 52.0153 12.2272 636 64.305 1185.25 513.541
263 0 54.1037 12.7533 690 62.9826 1185.43 511.557
264 0 54.1133 11.4944 622 65.3232 1185.44 509.537
265 0 56.0294 11.9759 671 64.2563 1184.99 510.534
266 0 56.0242 11.62 651 64.5945 1184.98 509.599
267 0 58.058 13.2454 769 62.5592 1185.51 507.512
268 0 60.0524 12.5557 754 62.8979 1185.49 509.69
269 0 62.1292 13.3593 830 61.9855 1185.42 506.678
270 0 64.0868 12.8732 825 61.7976 1185.29 509.705
271 0 66.101 12.5263 828 62.6099 1185.58 505.405
272 0 69.0803 13.5929 939 61.1491 1185.52 503.955
273 0 68.0466 12.8295 873 62.8832 1184.75 505.088
274 0 71.1364 13.2984 946 61.6998 1185.24 502.809
275 0 72.0338 12.7996 922 62.5564 1184.84 502.07
276 0 76.1024 13.3241 1014 61.0996 1185.05 503.593
277 0 77.1154 13.5122 1042 61.1276 1184.41 501.985
278 0 79.0892 13.7566 1088 61.0588 1185.16 500.116
279 0 82.146 13.7925 1133 61.0441 1184 499.147
280 1 41.0537 12.2522 503 61.1213 1184.07 518.827
281 0 42.0713 11.1953 471 61.5287 1184.57 519.113
282 0 44.0498 12.4859 550 60.94 1184.7 517.073
283 0 44.0255 11.9476 526 61.2414 1184.22 519.114
284 0 44.0598 13.1185 578 60.5346 1184 517.469
285 0 48.0518 13.423 645 58.738 1183.36 516.846
286 0 47.0646 11.7286 552 61.058 1183.66 517.259
287 0 48.0178 11.9956 576 61.4531 1183.97 515.651
288 0 51.0538 11.9874 612 61.3056 1183.65 514.923
289 0 51.0385 13.1274 670 60.1627 1183.69 513.606
290 0 53.0284 13.2948 705 59.3447 1183.35 513.929
291 0 52.0401 12.6057 656 61.2226 1183.48 510.684
292 0 53.099 13.1264 697 61.2898 1183.39 512.9
293 0 57.0702 13.5447 773 60.1268 1183.76 510.674
294 0 58.0602 12.2976 714 61.5504 1183.52 513.214
295 0 60.0335 13.2759 797 61.1681 1184.83 509.98
296 0 62.0915 12.6265 784 62.0842 1184.25 509.457
297 0 63.0308 14.1835 894 60.3378 1183.37 509.283
298 0 65.0866 13.8124 899 61.5951 1182.98 506.315
299 0 66.0904 14.3742 950 61.4105 1183.15 506.653
300 0 69.0269 13.502 932 62.5129 1183.4 504.444
301 0 71.0928 14.685 1044 61.6102 1183.08 502.861
302 0 73.1381 12.9481 947 63.9673 1182.68 504.061
303 0 76.066 13.4883 1026 63.2826 1182.79 503.116
304 0 76.0992 13.7058 1043 63.7028 1182.87 502.573
305 0 79.1217 15.4825 1225 61.9657 1182.51 497.094
306 0 82.1207 14.5883 1198 63.2371 1183.08 497.501
307 0 84.0724 16.0338 1348 61.8813 1182.72 496.122
308 0 87.1197 13.7168 1195 64.5766 1182.28 496.513
309 0 89.1068 14.3536 1279 64.4707 1182.73 492.539
310 0 93.1066 15.5521 1448 62.7659 1182.87 492.619
311 0 95.1299 15.7784 1501 62.6869 1182.44 489.756
312 0 97.1135 14.4882 1407 64.9346 1183.11 489.116
313 0 99.1125 14.9527 1482 64.6815 1183.19 488.451
314 0 102.101 14.8676 1518 64.7365 1182.53 485.362
315 0 104.093 13.3726 1392 66.7364 1182.18 484.133
316 0 111.1 13.5013 1500 66.0333 1182.39 484.615
317 0 113.233 15.0574 1705 65.1191 1182.94 481.605
318 0 118.096 14.429 1704 65.0669 1182.64 480.56
319 0 121.154 14.4196 1747 65.4751 1182.67 479.326
320 0 125.255 15.0573 1886 65.0011 1182.85 474.463
321 1 58.0516 13.4708 782 64.7864 1183.68 509.193
322 0 63.0486 13.0217 821 64.8551 1183.8 508.336
323 0 63.0439 12.7847 806 66.1079 1183.97 504.876
324 0 67.1354 12.8844 865 66.2566 1183.7 504.676
325 0 66.0418 12.2952 812 67.0714 1183.24 505.642
326 0 71.0869 12.2526 871 66.2319 1183.02 505.56
327 0 71.0624 12.1161 861 67.6295 1182.59 502.492
328 0 74.1045 13.3055 986 66.9189 1181.97 499.429
329 0 76.1323 13.5291 1030 66.3194 1182.92 500.921
330 0 79.1792 13.4379 1064 67.3891 1182.66 498.489
331 0 82.0654 12.1732 999 68.9429 1182.99 497.699
332 0 83.0786 12.109 1006 68.673 1182.65 498.227
333 0 87.1505 12.8513 1120 67.7777 1183.62 496.015
334 0 90.0772 13.6772 1232 67.306 1182.14 492.239
335 0 90.0895 11.644 1049 70.4061 1182.22 490.744
336 0 95.1502 13.0215 1239 68.7369 1182.1 486.295
337 0 97.1594 12.4641 1211 69.2874 1182.76 487
338 0 101.166 12.9984 1315 68.2076 1182.99 486.484
339 1 42.0294 11.373 478 64.7406 1183.61 515.303
340 0 43.0632 10.7516 463 64.8272 1183.91 515.829
341 0 43.0094 10.6488 458 66.1092 1183.68 514.312
342 0 47.041 12.1596 572 62.9318 1183.24 514.224
343 0 46.0418 10.6859 492 65.7337 1182.89 513.018
344 0 47.0444 9.9693 469 66.1791 1182.61 513.081
345 0 50.0339 10.9526 548 65.4124 1183.84 512.44
346 0 51.0768 10.4157 532 66.5977 1183.29 511.867
347 0 55.0422 11.8818 654 64.1498 1183.5 511.098
348 0 55.0676 10.3691 571 66.3713 1183.24 509.853
349 0 58.0221 11.306 656 65.5015 1183.29 507.456
350 0 59.0652 11.1741 660 64.9909 1183.25 509.78
351 0 59.0568 10.5322 622 67.1093 1183.38 506.688
352 0 62.0592 12.8748 799 63.5732 1183.17 503.73
353 0 64.0226 10.59 678 65.7183 1183.02 507.117
354 0 68.0742 10.9733 747 64.8032 1183.13 506.071
355 0 68.1919 12.3622 843 63.4247 1182.57 503.791
356 0 69.1017 10.3471 715 66.0909 1182.64 499.452
357 0 72.1435 10.8256 781 65.0128 1183.05 501.667
358 0 74.1513 11.2338 833 64.7479 1183.61 500.203
359 0 78.1346 10.8659 849 64.629 1183.52 498.462
360 0 81.0548 11.4244 926 63.8682 1183.93 496.821
361 1 38.0712 9.5085 362 62.4558 1183.26 517.657
362 0 41.0478 11.4257 469 60.1706 1182.8 516.842
363 0 42.0294 11.3492 477 60.4465 1183.11 513.824
364 0 42.0887 8.71967 367 63.0136 1183.6 515.869
365 0 42.0789 9.81488 413 62.2397 1182.94 511.818
366 0 44.0823 10.6619 470 61.3234 1184.04 514.153
367 0 46.0496 10.7493 495 62.0081 1184.61 510.689
368 0 47.1442 10.1179 477 62.0629 1184.45 511.449
369 0 48.1264 9.76595 470 63.3851 1184.21 509.274
370 0 51.2614 9.36376 480 62.8979 1183.68 510.329
371 0 55.2549 10.2072 564 61.2766 1183.72 511.442
372 0 55.1614 10.8953 601 61.218 1183.34 509.602
373 0 58.1115 11.6672 678 60.1357 1183.58 509.44
374 0 58.1858 10.2946 599 62.1953 1184.22 508.092
375 0 60.1581 11.503 692 60.3049 1183.91 507.692
376 0 63.1239 10.6299 671 61.4262 1183.67 505.32
377 0 63.2549 10.5604 668 61.7141 1184.2 503.835
378 0 66.197 10.0005 662 62.2085 1183.85 504.958
379 0 67.1324 9.66747 649 63.0955 1183.4 502.211
380 0 69.0913 9.8131 678 62.7522 1183.85 501.419
381 0 74.2787 10.5683 785 61.5236 1183.05 500.194
382 0 74.2102 11.0227 818 61.5978 1182.92 499.279
383 0 79.1599 12.9358 1024 59.1816 1183.28 498.148
384 0 82.2298 10.8355 891 61.4882 1183.96 498.794
385 0 84.3456 11.9745 1010 61.001 1183.95 494.01
386 1 44.0627 9.89499 436 60.5757 1184.31 515.009
387 0 44.0352 9.71949 428 60.9696 1184.18 514.098
388 0 47.0722 10.1546 478 60.0607 1184.97 515.008
389 0 48.0161 9.68426 465 61.0624 1184.73 513.854
390 0 48.0582 10.9867 528 59.8977 1184.41 511.975
391 0 49.0379 10.5429 517 59.6093 1184.27 512.865
392 0 52.1068 10.5936 552 60.2029 1184.05 511.85
393 0 52.048 11.1243 579 59.4404 1184.26 510.268
394 0 55.0438 9.06551 499 61.7295 1184.33 512.086
395 0 55.0326 8.86746 488 62.1148 1182.85 510.447
396 0 59.1613 11.7645 696 59.6667 1183.13 507.341
397 0 58.1622 11.6571 678 60.6431 1183.57 505.743
398 0 61.08 12.3281 753 59.2855 1183.33 506.714
399 0 62.1236 10.8011 671 61.0238 1183 505.109
400 0 65.0934 12.0596 785 58.6102 1183.43 502.409
401 0 68.1209 11.0098 750 58.4667 1183.82 503.457
402 0 69.145 12.8715 890 56.8798 1184.11 499.767
403 0 71.1624 11.7759 838 57.2959 1183.72 501.691
404 0 73.1358 11.7316 858 58.7692 1183.05 500.529
405 0 75.221 11.1405 838 59.5036 1182.8 500.747
406 0 78.2232 11.3266 886 59.254 1183.52 498.357
407 0 80.2295 11.6541 935 58.6449 1184 495.864
408 0 84.276 13.1947 1112 56.8138 1183.82 495.914
409 0 85.0993 10.7874 918 59.305 1183.56 494.294
410 1 44.0287 8.51718 375 60.3227 1185.04 515.483
411 0 45.107 10.2866 464 58.1336 1184.61 514.828
412 0 46.0493 9.33781 430 59.4186 1184.28 512.756
413 0 45.0554 10.6314 479 58.476 1184.62 512.854
414 0 47.0618 9.3919 442 60.0905 1184.52 512.839
415 0 51.0806 13.5472 692 55.4856 1182.86 511.76
416 0 48.0558 10.7791 518 60.8127 1183.07 508.888
417 0 53.1082 11.5801 615 58.9675 1183.07 510.324
418 0 53.0459 11.3487 602 59.6046 1182.87 509.724
419 0 54.0642 12.7626 690 58.171 1183.42 510.335
420 0 56.0685 12.9484 726 57.5675 1183.14 506.037
421 0 58.162 10.935 636 59.1368 1183.35 509.071
422 0 58.0603 10.5752 614 60.1938 1183.15 508.368
423 0 60.0548 11.9724 719 59.025 1182.98 505.242
424 0 62.0637 12.5677 780 58.1423 1182.66 505.854
425 0 63.0418 12.9438 816 57.8603 1182.5 504.963
426 0 67.1271 12.4242 834 57.2422 1182.53 504.965
427 0 67.1506 13.5367 909 57.0253 1182.3 504.033
428 0 68.0683 13.1192 893 57.9899 1182.52 501.028
429 0 72.0717 13.7641 992 57.0776 1183.26 501.699
430 0 73.1272 11.9791 876 58.4441 1183.81 503.038
431 0 75.0896 12.5184 940 58.2787 1183.54 498.653
432 0 78.1807 13.0595 1021 57.8433 1184.02 496.244
433 0 82.0918 14.2767 1172 55.8208 1183.02 497.32
434 1 43.0554 10.4981 452 59.25 1183.24 514.544
435 0 45.0367 10.4359 470 59.1957 1183.24 515.73
436 0 47.1635 12.2765 579 57.6235 1184.01 513.181
437 0 47.0524 11.4978 541 58.9575 1183.85 512.861
438 0 52.0597 11.967 623 57.2536 1183.68 512.708
439 0 52.0607 12.8696 670 57.4806 1183.42 510.663
440 0 53.0599 12.2503 650 57.6969 1182.99 511.754
441 0 54.0894 13.4222 726 57.1598 1182.81 508.988
442 0 55.0287 11.4667 631 59.1252 1182.72 509.081
443 0 55.1051 11.4871 633 59.7378 1182.89 507.809
444 0 57.1504 11.8109 675 59.3452 1182.93 508.028
445 0 60.149 11.9536 719 58.8595 1182.95 506.989
446 0 62.0489 13.1187 814 57.6769 1182.83 503.257
447 0 66.3605 12.6732 841 57.0999 1182.73 504.386
448 0 65.1761 12.3665 806 58.7878 1182 501.274
449 0 69.1381 13.2199 914 57.4923 1182.82 501.391
450 0 71.0709 13.0996 931 58.1386 1183.22 498.445
451 0 70.0916 11.699 820 60.2378 1182.7 499.224
452 0 75.0956 12.4907 938 58.935 1182.87 499.109
453 0 76.103 12.8904 981 59.3242 1182.74 495.782
454 0 79.1276 13.8384 1095 58.2502 1183.31 494.806
455 0 82.053 12.8697 1056 59.3636 1182.99 494.171
456 0 84.046 11.1249 935 60.9765 1183.61 496.347
457 0 88.0861 12.7943 1127 58.9991 1182.64 494.152
458 0 89.1659 11.7422 1047 61.0306 1183.45 492.77
459 1 45.0367 11.746 529 59.3932 1183.45 511.628
460 0 45.0216 10.1507 457 60.965 1183.13 513.554
461 0 48.0357 11.0335 530 60.1698 1183.66 511.794
462 0 48.0596 10.2997 495 61.5515 1183.7 512.541
463 0 49.0786 11.7363 576 60.1319 1183.28 510.882
464 0 51.0811 11.6286 594 60.468 1183.72 510.751
465 0 53.0694 12.0408 639 59.8858 1183.36 508.16
466 0 54.0243 12.6795 685 59.3562 1183.36 508.099
467 0 55.0496 13.1336 723 59.0954 1183.25 507.087
468 0 57.0529 12.5848 718 59.2061 1182.6 507.402
469 0 60.1348 12.9542 779 59.0218 1182.87 504.712
470 0 60.1006 11.4142 686 60.777 1182.86 503.032
471 0 59.0894 12.1172 716 60.5237 1182.67 503.862
472 0 62.1864 10.4364 649 61.8382 1182.39 498.462
473 0 60.1335 8.99665 541 63.5896 1183.24 499.481
474 0 60.1833 7.89256 475 64.6295 1183.52 494.459
475 0 58.1521 7.63514 444 64.8919 1182.46 489.802
476 0 66.1041 8.13868 538 64.0316 1182.15 493.545
477 0 67.0996 9.56787 642 62.6184 1182.09 491.891
478 0 58.1118 6.26379 364 64.4725 1181.4 479.157
479 0 67.0816 7.67722 515 63.5184 1182.05 484.551
480 0 73.1157 8.32926 609 62.4942 1181.5 484.35
481 0 71.1024 7.01804 499 63.495 1180.98 479.188
482 0 73.1539 6.82123 499 62.5331 1181.28 472.886
483 1 93.153 12.3668 1152 57.6016 1182.51 489.393
484 0 95.0805 12.9574 1232 57.2127 1182.41 487.858
485 1 47.109 9.67968 456 57.7215 1183.02 514.537
486 0 46.0436 8.796 405 59.8025 1182.93 509.741
487 0 48.0321 9.49366 456 58.3311 1183.79 513.037
488 0 50.1644 9.68814 486 58.6296 1183.39 510.628
489 0 53.1513 11.7589 625 56.4912 1183.38 510.155
490 0 53.0578 11.1577 592 57.1351 1182.8 509.289
491 0 55.1338 10.3748 572 58.3934 1183.27 506.014
492 0 57.0668 10.6367 607 58.0049 1183.03 505.076
493 0 58.072 10.1254 588 58.0272 1182.64 504.639
494 0 60.1573 11.6195 699 56.2876 1183.24 501.578
495 0 58.0554 8.19906 476 59.9055 1183.13 495.981
496 0 45.1167 6.73808 304 62.9868 1182.64 494.056
497 1 142.206 7.19378 1023 68.3412 1181.64 391.69
498 1 205.208 5.14113 1055 70.4483 1182.4 385.483
499 1 231.318 9.17784 2123 69.9293 1181.85 352.268
500 0 236.523 9.62275 2276 69.5136 1181.25 349.264
501 0 243.337 7.48757 1822 71.3661 1181.63 353.374
502 1 292.148 3.11486 910 80.7835 1181.87 332.729
503 0 298.384 3.19052 952 82.1155 1181.96 327.226
504 1 238.247 7.24037 1725 73.4713 1182.03 353.728
505 1 304.584 4.3305 1319 79.3518 1182.45 353.761
506 1 42.081 7.74696 326 57.4755 1182.9 510.61
507 0 44.0495 7.9229 349 57.3381 1182.2 509.484
508 0 48.0452 11.1562 536 54.4981 1182.25 509.343
509 0 49.0292 8.89267 436 56.4748 1182.6 509.252
510 0 53.1083 9.30174 494 55.8684 1182.4 505.202
511 0 54.0306 11.2714 609 54.2463 1182.29 504.064
512 0 54.0593 10.692 578 55.0813 1182.15 505.199
513 0 56.2406 11.3263 637 54.5761 1182.35 505.686
514 0 57.1182 9.54162 545 56.7816 1181.95 501.965
515 0 57.122 8.61314 492 57.6199 1182.27 500.307
516 0 58.0885 8.83135 513 57.2963 1182.78 501.932
517 0 62.2243 10.3175 642 55.5265 1182.4 501.702
518 0 63.1648 7.64666 483 58.4431 1182.68 496.398
519 0 65.1712 10.4187 679 55.3579 1181.76 497.211
520 0 71.1777 10.9866 782 54.5384 1181.51 497.958
521 0 74.0534 11.7483 870 54.0172 1182.31 497.155
522 0 79.2047 12.0826 957 52.8192 1182.3 500.614
523 0 81.1922 10.937 888 54.6182 1181.82 496.949
524 0 84.2599 13.0786 1102 52.0653 1182.38 497.675
525 0 87.1222 11.6733 1017 53.5792 1182.27 494.931
526 0 87.1022 11.2511 980 54.7174 1182.09 490.327
527 0 92.1594 10.9918 1013 54.9763 1181.67 489.228
528 1 44.0737 11.0724 488 53.7336 1181.92 515.029
529 0 47.137 10.8408 511 54.2074 1181.86 512.434
530 0 49.1498 11.2106 551 54.5717 1182.45 512.448
531 0 51.1869 10.0416 514 56.0837 1181.71 513.339
532 0 51.1362 11.1076 568 55.8222 1182.14 510.746
533 0 52.0853 10.5788 551 56.9546 1182.33 510.686
534 0 55.0706 11.5125 634 55.7886 1181.52 509.328
535 0 55.1027 12.1954 672 56.2113 1181.59 508.68
536 0 58.1549 11.6757 679 56.8807 1181.54 508.507
537 0 60.1592 11.802 710 56.2704 1181.39 505.59
538 0 60.1111 12.1442 730 56.9397 1181.72 503.355
539 0 59.1066 9.8297 581 59.6781 1181.59 505.394
540 0 63.0945 10.825 683 58.8331 1182.11 502.432
541 0 66.149 11.2171 742 57.3989 1181.94 505.811
542 0 67.2414 12.5221 842 57.266 1181.73 499.502
543 0 70.1216 12.4498 873 56.48 1182.63 504.208
544 0 71.1507 12.0167 855 58.3462 1182.33 499.758
545 0 74.2018 11.9808 889 58.252 1182.09 498.802
546 0 77.1332 12.2515 945 58.0423 1181.74 497.231
547 0 80.2095 11.8938 954 58.5639 1182.02 497.175
548 0 82.1946 13.0665 1074 57.2663 1181.73 495.663
549 0 85.2437 12.9276 1102 57.7604 1181.63 493.252
550 1 40.0235 8.47003 339 61.3245 1182.41 515.593
551 0 42.0439 8.91925 375 61.3893 1182.59 513.856
552 0 43.0412 7.4812 322 63.1118 1182.23 515.575
553 0 44.0402 10.2634 452 60.8274 1182.52 512.108
554 0 49.0638 11.8825 583 57.976 1182.97 513.192
555 0 48.1085 9.97745 480 61.4271 1182.51 512.012
556 0 51.0863 12.3908 633 57.8547 1183.37 511.877
557 0 53.1351 11.0097 585 59.7863 1182.95 511.215
558 0 55.0899 11.0547 609 59.2988 1182.65 510.775
559 0 54.1437 12.1528 658 59.4894 1181.53 507.973
560 0 56.0806 12.4999 701 58.5649 1181.78 507.371
561 0 57.2083 12.0612 690 59.5319 1181.56 506.654
562 0 62.212 14.6113 909 56.1012 1181.42 505.861
563 0 63.1811 11.4749 725 60.2234 1181.85 505.029
564 0 65.165 12.3686 806 59.294 1182.17 505.483
565 0 65.06 11.7738 766 60.0131 1182.01 503.648
566 0 67.2575 12.6529 851 58.3666 1182.07 502.781
567 0 70.2024 13.0053 913 58.0537 1181.7 503.304
568 0 73.1888 12.9391 947 58.4266 1181.95 500.82
569 0 74.238 13.4702 1000 58.364 1181.74 500.563
570 0 77.242 13.2311 1022 58.4609 1181.68 499.3
571 0 76.1451 11.4518 872 61.1583 1181.52 498.062
572 0 80.1368 11.8922 953 60.4764 1182.93 496.551
573 0 84.1974 13.1002 1103 59.0771 1182.2 496.018
574 1 44.0335 10.7872 475 59.5558 1182.75 516.175
575 0 42.0928 8.26745 348 62.7328 1182.86 517.526
576 0 43.0219 10.7852 464 59.709 1182.66 517.091
577 0 44.0436 11.0572 487 61.0103 1182.07 512.021
578 0 46.0889 10.5448 486 61.8807 1182.88 513.119
579 0 48.0404 10.9075 524 61.6202 1182.94 512.447
580 0 50.0475 11.0895 555 61.564 1183.95 513.798
581 0 52.0388 11.7989 614 60.3876 1184.34 512.824
582 0 50.0714 11.1041 556 62.295 1183.79 513.058
583 0 54.0351 13.8799 750 58.6453 1182.89 510.297
584 0 52.0431 10.2607 534 63.5824 1182.83 509.921
585 0 55.0835 13.0529 719 59.7079 1182.55 508.239
586 0 57.1488 12.1262 693 61.1977 1183 508.069
587 0 58.0981 11.6527 677 61.6676 1183.58 507.931
588 0 61.1354 12.5296 766 60.5326 1182.9 506.731
589 0 62.0918 12.4815 775 60.8684 1183.01 504.16
590 0 63.1369 14.0488 887 59.398 1183.47 501.716
591 0 67.0248 12.1895 817 60.9388 1183.77 504.837
592 0 65.1685 12.5674 819 61.9035 1183.3 501.059
593 0 69.0762 12.3921 856 61.0701 1182.76 501.54
594 0 68.149 11.6363 793 62.3796 1182.75 499.88
595 0 71.1694 11.5077 819 62.7082 1182.8 496.949
596 0 76.1116 12.8364 977 60.6059 1182.69 498.897
597 0 77.2909 11.1915 865 63.0254 1183.1 497.084
598 0 78.1582 12.0141 939 62.426 1182.98 496.222
599 1 40.0898 9.70322 389 63.0437 1183.19 514.134
600 0 45.0503 11.809 532 59.8214 1183.71 513.342
601 0 45.0489 11.543 520 60.3038 1183.1 514.837
602 0 48.0372 12.6152 606 59.8746 1183.32 513.852
603 0 48.0493 12.3623 594 60.9764 1183.57 511.902
604 0 49.0936 10.1846 500 63.048 1183.53 513.714
605 0 50.0644 10.6263 532 63.9004 1183.34 512.263
606 0 50.071 11.6435 583 63.9297 1184.39 507.815
607 0 53.0244 11.919 632 63.0744 1184.19 507.441
608 0 54.0405 12.4351 672 62.0848 1183.83 508.921
609 0 58.0971 13.4774 783 59.9323 1184.15 506.051
610 0 60.0259 12.0115 721 61.3786 1184.06 506.315
611 0 61.0426 12.9254 789 60.4094 1183.75 505.45
612 0 63.039 11.8815 749 61.6142 1183.46 503.073
613 0 64.0573 12.161 779 60.896 1182.61 502.775
614 0 64.1629 10.863 697 62.5251 1182.85 504.083
615 0 67.0879 11.388 764 61.6152 1183.54 504.353
616 0 70.1836 15.0035 1053 57.2745 1183.25 500.262
617 0 73.125 13.3744 978 59.046 1183.72 501.037
618 0 71.1819 11.2529 801 62.4769 1183.16 497.385
619 0 73.0802 13.2047 965 60.1026 1182.98 495.582
620 0 76.2604 11.7099 893 62.1568 1183.06 496.78
621 0 80.1877 12.3336 989 61.09 1183.02 495.726
622 0 81.1453 11.806 958 61.6148 1183.31 495.866
623 0 84.1536 12.0019 1010 61.502 1183.1 496.421
624 1 45.0678 10.4731 472 62.2097 1183.92 512.108
625 0 49.1008 10.9163 536 60.6138 1183.95 513.463
626 0 47.1099 9.80686 462 63.2468 1183.53 512.606
627 0 50.1377 12.2064 612 60.8954 1182.83 509.972
628 0 50.0892 10.2417 513 63.1618 1182.65 510.429
629 0 50.1291 11.7297 588 62.9354 1183.3 507.369
630 0 54.0825 11.6674 631 62.252 1182.99 509.469
631 0 56.0785 13.2314 742 60.5027 1183.12 508.588
632 0 57.06 12.3379 704 61.5724 1183.47 506.581
633 0 56.0902 11.535 647 63.3756 1183.25 506.42
634 0 59.0441 11.5168 680 63.9059 1182.62 504.688
635 0 62.0417 11.5729 718 63.7911 1183.21 505.443
636 0 64.0913 14.1829 909 59.9329 1183.38 504.01
637 0 66.1199 12.0539 797 62.5998 1183.29 502.788
638 0 66.0511 11.8545 783 63.0702 1183.48 504.089
639 0 67.0211 12.4438 834 62.488 1183.27 498.95
640 0 70.0554 11.3482 795 63.4327 1183.5 501.199
641 0 73.1124 12.5287 916 62.393 1184.08 500.856
642 0 75.0502 13.2978 998 61.3116 1183.32 497.974
643 0 78.0579 12.5548 980 62.302 1183.11 499.247
644 0 78.1289 12.3386 964 62.0384 1182.38 498.886
645 1 40.0176 9.19596 368 64.2283 1183.35 515.503
646 0 42.0831 11.5723 487 61.6489 1183.74 514.489
647 0 43.0961 9.69925 418 64.1124 1184.03 514.129
648 0 43.0454 9.98945 430 64.5186 1183.83 512.57
649 0 48.046 11.8844 571 60.7198 1183.69 513.599
650 0 48.0522 11.8621 570 61.6649 1183.59 511.826
651 0 48.0911 12.3931 596 61.9597 1184.06 511.581
652 0 49.0279 11.1365 546 63.5128 1184.37 510.396
653 0 51.0745 11.5518 590 62.3017 1183.69 509.827
654 0 52.117 11.3591 592 62.6858 1182.73 508.975
655 0 54.0701 11.5036 622 62.418 1183.59 508.723
656 0 53.0769 10.1927 541 64.6285 1183.12 509.054
657 0 56.093 11.8553 665 61.985 1183.21 508.529
658 0 60.1748 12.1479 731 61.3967 1183.39 507.233
659 0 61.1648 12.1312 742 61.3315 1183.37 506.527
660 0 62.1927 11.5126 716 62.6983 1183.69 502.901
661 0 66.1662 12.393 820 61.3634 1183.18 502.039
662 0 68.0927 10.8382 738 62.836 1182.95 503.228
663 0 68.0769 11.2814 768 62.0833 1183.38 502.961
664 0 73.0915 10.2748 751 63.3888 1182.34 501.384
665 0 76.1659 12.3546 941 60.5058 1183.05 499.473
666 1 38.1098 10.2861 392 60.8036 1183.75 518.13
667 0 39.0407 11.2703 440 60.1864 1183.23 516.884
668 0 40.0749 10.68 428 61.3808 1184.04 515.04
669 0 41.1623 11.2482 463 60.4687 1183.19 515.747
670 0 43.0927 11.162 481 60.4179 1183.51 514.555
671 0 45.1206 12.0122 542 59.5221 1184.57 513.371
672 0 47.126 12.3074 580 57.9586 1183.74 517.184
673 0 48.0127 9.89321 475 60.7284 1184.34 515.962
674 0 49.064 11.7601 577 58.4471 1183.4 514.308
675 0 49.1388 10.8061 531 59.9887 1183.86 513.797
676 0 51.1018 10.8998 557 59.8258 1183.93 513.479
677 0 54.0602 12.5046 676 58.0355 1183.99 511.587
678 0 53.0662 10.5152 558 61.4677 1184.46 509.88
679 0 54.1564 10.2112 553 61.6618 1183.97 508.676
680 0 57.262 13.3072 762 57.8556 1183.89 507.923
681 0 59.1106 12.2144 722 59.6565 1184.11 508.35
682 0 61.1706 11.9665 732 59.7432 1184.05 509.085
683 0 62.1789 12.6249 785 58.8917 1183.62 506.386
684 0 64.1032 12.0743 774 59.4625 1184.19 504.331
685 0 66.2558 12.5725 833 59.1212 1184.12 503.948
686 1 34.0938 10.3245 352 62.3409 1183.47 518.045
687 0 37.1029 11.0773 411 60.1679 1184.07 518.582
688 0 39.0362 11.246 439 60.3144 1184.05 517.845
689 0 39.1597 12.6405 495 58.596 1183.74 517.246
690 0 38.0415 11.1983 426 61.4296 1183.97 516.54
691 0 41.034 9.52867 391 62.9284 1184.4 517.57
692 0 42.0373 11.9894 504 60.6726 1184.12 516.046
693 0 43.0428 11.3143 487 61.6181 1182.89 514.83
694 0 44.0206 11.2447 495 61.1859 1181.99 514.481
695 0 47.0934 11.5091 542 60.8284 1182.28 511.956
696 0 49.0446 13.2328 649 57.9337 1182.21 514.402
697 0 49.0734 9.12918 448 62.8973 1182.98 512.812
698 0 51.0409 12.7741 652 58.8068 1183.02 512.11
699 0 53.1133 11.2401 597 60.928 1182.68 511.097
700 0 53.0316 11.2951 599 60.4073 1182.85 511.85
701 0 54.0477 10.9903 594 61.3518 1182.79 509.601
702 0 57.0337 12.3436 704 59.5469 1182.33 506.795
703 0 58.2253 11.3868 663 60.549 1182.55 506.276
704 0 60.118 12.7583 767 58.9192 1183.04 504.604
705 0 63.0982 12.4885 788 58.0406 1182.52 505.684
706 0 65.0968 13.7027 892 57.6469 1182.34 503.426
707 0 66.1139 11.9793 792 59.3258 1181.76 503.465
708 0 69.2529 13.1836 913 58.3636 1182.44 500.258
709 0 71.0973 13.6151 968 57.5165 1182.89 500.353
710 0 74.1587 13.552 1005 57.8318 1182.42 500.156
711 0 78.2138 12.0056 939 59.6006 1183.12 498.275
712 0 78.1424 12.3748 967 59.6991 1182.35 498.979
713 0 80.1201 13.4049 1074 58.6071 1182.27 497.737
714 1 41.0188 9.99542 410 60.1854 1181.69 519.146
715 0 43.0391 11.8962 512 58.5742 1181.98 517.074
716 0 42.1043 11.3528 478 61.5607 1181.79 515.391
717 0 44.0328 11.9229 525 60.1429 1182.16 516.524
718 0 45.0505 11.7424 529 60.966 1182.71 514.745
719 0 47.0928 13.3991 631 59.1094 1182.77 513.342
720 0 47.0415 11.8406 557 61.2083 1182.76 513.44
721 0 52.0603 12.3126 641 59.9485 1182.31 512.66
722 0 53.0302 13.7846 731 58.8714 1182.37 510.328
723 0 54.1833 12.144 658 60.9225 1181.39 509.365
724 0 57.0767 12.9825 741 59.7841 1182.67 508.912
725 0 57.0428 12.3591 705 60.7816 1182.41 510.016
726 0 60.0684 13.0684 785 59.4038 1182.08 510.09
727 0 60.0524 14.3375 861 58.5656 1182.62 507.625
728 0 64.1759 13.6656 877 59.0091 1182.3 504.856
729 0 63.1256 10.7405 678 63.1534 1182.04 506.392
730 0 65.0364 10.8862 708 62.6681 1181.84 506.225
731 0 67.0882 11.4774 770 62.1636 1181.64 503.805
732 0 70.0899 12.7979 897 60.146 1181.85 503.482
733 0 71.219 12.9741 924 60.3885 1181.33 502.302
734 0 75.0867 11.3336 851 62.1657 1181.2 499.334
735 0 77.1016 12.9829 1001 60.0909 1182.42 498.197
736 0 81.1603 13.4425 1091 58.8112 1182.46 497.109
737 0 83.0768 11.3269 941 61.271 1182.26 494.041
738 0 86.2217 12.2011 1052 60.2614 1182.88 493.631
739 0 88.1088 12.7116 1120 59.783 1182.83 493.787
740 0 91.3077 12.2881 1122 60.033 1182.91 494.536
741 0 94.1343 11.781 1109 60.734 1182.56 490.924
742 0 97.0867 12.7103 1234 59.8282 1182.44 488.28
743 0 101.269 12.8173 1298 59.6102 1182.01 487.207
744 0 101.11 11.7793 1191 61.1948 1181.7 486.315
745 0 106.189 12.054 1280 60.0531 1181.2 487.877
746 1 54.0823 10.595 573 60.089 1181.6 509.827
747 0 59.1494 11.378 673 58.5275 1182.66 509.691
748 0 60.0979 11.631 699 58.8655 1182.72 508.9
749 0 60.0418 11.1755 671 59.8137 1182.74 507.387
750 0 63.0508 12.1965 769 58.0819 1182.56 507.445
751 0 65.1446 13.3856 872 56.8739 1181.87 506.797
752 0 66.0479 12.2184 807 59.1252 1181.68 504.678
753 0 69.148 11.1934 774 60.0155 1181.9 503.929
754 0 69.1106 12.5162 865 59.0254 1182.36 501.858
755 0 71.291 10.9691 782 61.1854 1181.75 501.76
756 0 74.1651 13.4699 999 57.8148 1181.94 500.349
757 0 77.1492 11.1991 864 60.5023 1182.28 498.953
758 0 80.3207 13.4212 1078 58.0677 1182.48 498.523
759 0 84.2024 13.6932 1153 57.5013 1181.18 495.871
760 0 84.2143 12.5869 1060 59.4689 1181.49 492.779
761 0 87.1792 13.9598 1217 57.7716 1181.59 493.583
762 0 92.3264 13.7664 1271 57.6168 1182.05 492.5
763 0 94.3395 12.7942 1207 59.3753 1182.35 491.937
764 0 95.2573 11.3692 1083 61.2114 1182.07 488.825
765 0 99.1541 13.8471 1373 58.1231 1181.79 491.318
766 0 100.317 11.4936 1153 61.2134 1181.66 488.687
767 1 49.0976 9.85791 484 61.2996 1182.2 511.981
768 0 52.1573 11.101 579 59.0052 1182.56 514.014
769 0 54.0643 10.2471 554 60.5578 1182.81 511.262
770 0 55.0724 11.7482 647 57.9397 1182.76 511.176
771 0 56.0825 10.5737 593 60.5244 1183.14 507.533
772 0 56.0747 11.2707 632 59.5997 1182.71 510.188
773 0 60.0946 13.6119 818 56.9376 1181.35 505.423
774 0 61.0665 10.2839 628 60.1417 1181.86 509.685
775 0 64.1719 13.5418 869 56.7215 1182 506.115
776 0 65.1117 12.4095 808 58.3614 1181.7 504.662
777 0 66.0868 11.7421 776 59.2062 1182.04 504.102
778 0 69.1625 12.3188 852 58.0575 1182.62 503.16
779 0 69.2243 11.3688 787 58.7611 1183.14 503.646
780 0 74.119 13.3164 987 56.7953 1183.12 500.741
781 0 78.2241 12.3364 965 57.1565 1181.8 500.721
782 0 78.257 11.1939 876 58.7397 1182.21 497.014
783 0 81.1069 10.9362 887 58.5073 1182.49 498.805
784 0 83.0806 12.3013 1022 57.2612 1182.07 498.241
785 1 42.0349 9.96791 419 58.4773 1182.63 516.499
786 0 43.0682 10.7504 463 57.8553 1183.16 515.35
787 0 44.0435 10.1718 448 58.7232 1183.2 513.114
788 0 46.0277 11.2541 518 57.4923 1182.42 514.149
789 0 48.0436 12.7176 611 56.1391 1183.15 513.02
790 0 48.0436 12.7176 611 124.286 1183.17 512.962
791 0 50.0169 11.3362 567 58.2134 1181.91 512.4
792 0 54.1227 12.0652 653 56.8744 1181.85 511.361
793 0 54.1795 13.6583 740 55.4959 1182.79 511.874
794 0 55.1423 11.6063 640 58.2922 1183.04 509.303
795 0 56.233 11.2212 631 58.7845 1183.06 509.301
796 0 60.101 11.9299 717 58.0167 1183.11 505.83
797 0 61.0864 11.8193 722 58.0319 1182.97 506.72
798 0 61.1488 10.9732 671 58.9642 1182.78 507.639
799 0 65.1963 11.3043 737 58.1913 1182.63 506.569
800 0 66.11 12.8725 851 56.8484 1183.03 504.591
801 0 72.1356 11.9081 859 56.6857 1182.93 504.788
802 0 71.1297 12.3718 880 57.617 1182.72 501.468
803 0 72.2284 12.8897 931 57.2266 1182.33 498.694
804 0 76.2442 13.1157 1000 56.497 1183.07 499.768
805 0 79.1564 12.7974 1013 57.0928 1182.71 497.42
806 0 84.1579 13.0944 1102 55.9809 1182.71 496.942
807 0 84.1352 11.7073 985 57.5411 1181.96 496.826
808 0 85.2751 11.7502 1002 57.9062 1181.63 496.435
809 1 45.1131 9.62026 434 57.9424 1181.65 518.088
810 0 44.1948 10.4537 462 58.2576 1182.15 516.238
811 0 47.028 11.2061 527 57.9848 1182.16 514.01
812 0 49.0506 13.6797 671 55.1297 1182.22 514.072
813 0 52.0111 12.6319 657 55.9163 1183.31 515.008
814 0 51.0274 12.2091 623 56.9743 1182.64 512.795
815 0 53.1249 12.3859 658 56.7994 1182.44 511.033
816 0 55.0877 12.9067 711 56.0788 1182.45 511.384
817 0 52.0523 9.0678 472 60.8792 1182.88 512.057
818 0 56.0347 10.9218 612 58.8235 1182.73 510.693
819 0 59.1787 13.9577 826 55.2385 1182.37 510.24
820 0 61.0848 11.7378 717 57.0907 1182.48 508.851
821 0 61.0682 9.53032 582 59.5464 1182.62 507.723
822 0 66.0254 12.1317 801 55.8589 1181.62 509.26
823 0 66.0876 12.9525 856 55.6565 1182.79 504.867
824 0 69.0681 13.6242 941 54.9256 1181.53 504.419
825 0 68.1204 11.6412 793 56.7944 1181.56 505.735
826 0 72.0574 13.1007 944 55.6716 1181.99 499.592
827 0 75.1862 13.1673 990 55.2616 1181.85 501.144
828 0 77.0971 12.2313 943 56.7561 1182.28 500.274
829 0 80.1956 11.5218 924 57.2673 1182.2 500.089
830 0 82.0758 10.6731 876 58.4224 1182.29 499.273
831 0 85.1517 11.685 995 57.3286 1182.22 497.464
832 1 41.0331 9.84571 404 59.6386 1181.67 513.53
833 0 46.2179 12.6791 586 56.0478 1182.04 513.732
834 0 47.0394 13.1167 617 55.0194 1182.74 515.755
835 0 49.0242 13.6055 667 54.9955 1181.79 513.349
836 0 48.0816 12.4788 600 56.5083 1181.79 515.998
837 0 50.105 13.4717 675 55.4918 1182.38 514.117
838 0 52.0682 12.6373 658 57.0137 1182.18 511.625
839 0 54.1102 13.5649 734 55.6703 1181.92 511.512
840 0 54.0956 11.5536 625 58.3536 1181.62 511.714
841 0 57.099 11.2086 640 58.4516 1181.92 508.45
842 0 60.0382 13.3915 804 55.8806 1182.16 510.236
843 0 60.1495 12.2694 738 57.4837 1182.44 509.263
844 0 63.1408 11.6248 734 58.0599 1182.92 507.342
845 0 65.0954 11.4447 745 57.7933 1182.82 509.502
846 0 67.0945 12.2514 822 57.6229 1182.55 505.036
847 0 69.122 9.89554 684 60.5819 1182.23 501.417
848 0 68.048 10.8306 737 60.2307 1182.26 503.369
849 0 74.1299 12.1543 901 58.3307 1182.36 503.094
850 0 76.2162 13.2518 1010 57.4 1182.06 502.841
851 0 78.0425 12.8135 1000 58.113 1182.52 500.098
852 1 40.0467 11.2119 449 59.1982 1182.55 519.561
853 0 42.0843 10.6215 447 58.9396 1183.12 520.942
854 0 43.0267 9.85434 424 61.5802 1182.72 515.288
855 0 46.0285 10.8846 501 60.0519 1182.5 515.992
856 0 48.1238 11.034 531 59.9812 1181.89 515.853
857 0 49.0922 12.67 622 58.5161 1181.88 515.584
858 0 52.0551 12.1026 630 58.8952 1182.43 512.965
859 0 52.1087 12.5315 653 58.876 1182.19 512.697
860 0 54.0471 12.1006 654 59.3211 1182.34 513.066
861 0 56.0224 12.5307 702 60.5028 1181.55 511.194
862 0 56.1199 12.1704 683 61.1464 1182.75 510.108
863 0 59.0658 13.0025 768 60.444 1183.28 509.719
864 0 60.0289 12.6939 762 60.1024 1182.46 510.661
865 0 63.0335 12.3426 778 60.6992 1181.96 505.586
866 0 65.073 12.801 833 60.3169 1181.89 507.558
867 0 66.0993 12.5417 829 61.07 1182.19 504.986
868 0 68.1827 12.1878 831 61.6956 1182.24 503.761
869 0 71.0376 13.3732 950 60.6821 1182.18 501.259
870 0 75.0395 13.7927 1035 59.1932 1182.22 504.775
871 0 75.0934 12.4378 934 61.2152 1181.17 504.319
872 0 78.0878 12.6652 989 61.179 1181.35 501.579
873 0 79.1109 11.9579 946 62.3467 1181.41 499.395
874 0 85.211 13.7541 1172 59.8507 1181.15 499.523
875 0 88.1138 12.7108 1120 60.8938 1182.02 501.244
876 0 92.1632 13.0746 1205 61.1676 1181.46 496.455
877 1 50.0722 10.6846 535 62.4187 1182 518.299
878 0 49.049 11.0502 542 62.4539 1182.35 517.238
879 0 50.0854 13.3772 670 61.3209 1181.89 515.219
880 0 51.0135 11.8596 605 63.2165 1182.22 515.258
881 0 51.0458 12.3027 628 63.4045 1182.23 514.494
882 0 55.0448 12.6624 697 62.4634 1182.12 513.426
883 0 55.0516 11.7526 647 64.2458 1182.43 513.263
884 0 57.0549 12.6194 720 63.0694 1181.69 513.3
885 0 58.1107 12.459 724 64.0124 1182.07 510.884
886 0 61.0975 12.4391 760 63.7224 1182.41 510.874
887 0 61.0617 11.644 711 65.4599 1182.2 508.419
888 0 64.0467 13.0686 837 63.1075 1181.97 505.571
889 0 66.0794 13.2719 877 62.7241 1182.54 506.871
890 0 69.104 15.2234 1052 59.1616 1182.02 508.342
891 0 70.1212 13.3198 934 62.1349 1182.92 504.591
892 0 73.0883 11.9444 873 63.6346 1182.59 502.416
893 0 74.0758 13.1082 971 61.9403 1181.65 502.48
894 0 76.1039 12.68 965 62.6943 1182.46 500.542
895 0 82.1047 14.1405 1161 60.565 1182.05 498.872
896 1 46.0391 13.141 605 60.2182 1182.17 517.805
897 0 45.0661 10.5401 475 63.7453 1182.82 517.741
898 0 44.1054 11.994 529 63.6389 1182.74 515.093
899 0 48.0655 11.7132 563 62.7993 1182.04 516.986
900 0 50.0732 11.4033 571 63.1734 1182.83 514.862
901 0 50.0687 12.4629 624 62.1587 1182.42 516.042
902 0 52.0698 12.3104 641 62.7816 1182.59 512.995
903 0 54.057 13.1898 713 61.0435 1182.31 514.604
904 0 57.0495 13.3393 761 60.4809 1182.39 512.703
905 0 59.0612 14.4765 855 58.7637 1182.13 512.993
906 0 60.0778 14.6477 880 58.3875 1182.75 512.398
907 0 62.0954 12.9639 805 60.5193 1183.04 509.665
908 0 64.1162 11.8535 760 61.196 1182.92 510.341
909 0 66.102 12.0722 798 61.3885 1184.16 508.132
910 0 69.0718 13.9565 964 59.5156 1184.17 505.961
911 0 72.0495 14.1708 1021 58.0862 1184.17 508.091
912 0 72.042 11.2296 809 61.885 1183.89 506.032
913 0 74.2131 13.2591 984 59.9441 1184.65 504.997
914 0 78.2871 13.8209 1082 59.3392 1183.41 500.986
915 0 78.1015 14.4171 1126 58.5053 1183.34 502.587
916 0 81.211 13.9144 1130 59.231 1182.92 501.016
917 0 85.1224 14.2736 1215 58.0881 1183.13 502.007
918 1 45.0666 10.6287 479 61.4363 1182.71 518.355
919 0 47.0661 13.4492 633 58.7757 1183.17 518.175
920 0 49.0605 12.5967 618 60.6602 1183.48 515.421
921 0 51.231 13.5074 692 59.2977 1182.83 515.296
922 0 52.172 12.5355 654 60.9297 1182.35 512.352
923 0 52.0386 13.5861 707 59.7553 1182.35 514.272
924 0 55.1951 12.0663 666 60.9024 1182.47 512.533
925 0 54.0784 11.2799 610 62.2492 1181.91 511.107
926 0 57.1061 9.66622 552 63.5888 1182.24 511.596
927 0 60.1464 12.8021 770 60.6325 1181.86 509.317
928 0 61.1627 13.1289 803 60.8095 1182.37 509.288
929 0 63.0677 12.4152 783 61.4904 1181.93 509.235
930 0 66.2152 13.0333 863 61.1993 1181.69 506.032
931 0 67.0726 11.9274 800 62.6512 1181.98 505.986
932 0 70.0793 13.4276 941 61.0436 1181.95 504.217
933 0 73.07 14.3287 1047 60.2436 1182.36 503.937
934 0 73.1069 12.4886 913 63.0789 1182.67 501.618
935 0 77.1736 13.7482 1061 61.2733 1182.65 499.92
936 0 79.1196 12.083 956 63.5523 1182.61 500.172
937 0 83.1571 15.128 1258 60.1892 1182.7 496.742
938 0 87.0934 12.8827 1122 62.8422 1182.49 494.26
939 1 46.04 12.5326 577 61.1664 1182.67 516.919
940 0 46.0559 10.0747 464 64.9957 1181.97 515.795
941 0 46.075 12.1324 559 63.5832 1181.7 514.247
942 0 50.0864 11.3204 567 63.4956 1182.18 514.219
943 0 50.0882 12.1186 607 63.6672 1182.01 512.28
944 0 53.0288 12.993 689 62.5747 1182.36 510.52
945 0 55.1108 12.9557 714 62.2367 1183.41 511.238
946 0 56.0888 12.4089 696 63.0345 1182.76 510.797
947 0 56.208 11.9734 673 63.8737 1182.65 510.452
948 0 59.0973 10.948 647 64.4606 1182.84 510.913
949 0 61.0665 11.8723 725 63.7614 1183.63 509.332
950 0 66.2003 13.3534 884 61.5724 1183.23 507.778
951 0 65.1397 12.834 836 62.8636 1182.96 506.793
952 0 68.1224 12.6243 860 63.643 1183 503.244
953 0 71.2789 13.1456 937 62.2935 1183.04 503.971
954 0 73.1379 11.909 871 63.4592 1183.01 505.371
955 0 74.0864 11.4596 849 64.7291 1182.21 501.479
956 0 78.1477 13.4233 1049 62.7188 1182.43 500.625
957 0 79.1417 12.7746 1011 64.2324 1182.93 498.059
958 0 84.1433 12.7164 1070 63.5364 1182.91 499.223
959 0 88.1945 13.0734 1153 62.8101 1182.5 497.139
960 0 86.2419 12.5345 1081 64.7946 1182.7 497.929
961 1 42.0426 11.1316 468 65.1282 1182.99 517.058
962 0 45.1729 12.3968 560 63.9696 1183.64 514.57
963 0 49.0609 13.6361 669 61.6009 1183.21 515
964 0 48.0771 12.2304 588 63.767 1183.85 515.646
965 0 50.0665 13.3423 668 62.4132 1182.56 513.684
966 0 51.1347 14.3934 736 60.1549 1182.82 515.124
967 0 54.1161 13.4156 726 61.9697 1182.44 511.81
968 0 55.1195 13.0444 719 62.4061 1182.87 511.579
969 0 56.1833 13.5271 760 62.329 1183.83 512.038
970 0 58.108 12.9586 753 62.3705 1182.64 511.62
971 0 59.1037 13.7555 813 62.2485 1183.21 508.572
972 0 63.0844 13.5216 853 62.0868 1183.7 509.132
973 0 64.2983 12.7375 819 63.1978 1183.14 506.47
974 0 66.0969 12.6935 839 62.8546 1182.41 507.489
975 0 68.145 13.1338 895 63.3452 1183.2 503.752
976 0 70.1425 13.3443 936 62.8707 1182.67 503.577
977 0 72.0562 12.2127 880 64.0705 1182.65 503.581
978 0 75.2527 12.5577 945 63.2974 1183.21 503.936
979 0 76.0936 12.4452 947 65.0591 1183.62 500.039
980 0 79.2166 13.6714 1083 63.434 1183.38 499.152
981 1 43.1307 13.3084 574 62.8084 1183.17 517.213
982 0 44.1332 13.5726 599 63.2053 1183.61 515.881
983 0 43.0944 13.0179 561 65.2923 1183.01 515.496
984 0 45.1929 9.73604 440 68.7114 1182.98 515.83
985 0 48.1606 12.7698 615 65.5691 1183.67 514.246
986 0 49.1064 14.0919 692 64.3251 1184.1 512.913
987 0 51.1149 13.4012 685 64.7606 1184.09 513.038
988 0 53.1573 12.6041 670 65.3537 1183.43 513.443
989 0 54.0872 13.1639 712 65.1362 1183.38 511.685
990 0 54.1082 11.1813 605 67.9223 1182.74 511.557
991 0 59.1173 12.6866 750 65.3333 1182.48 510.492
992 0 56.2018 13.2202 743 66.5505 1183.69 507.661
993 0 59.1404 12.8169 758 66.8153 1183.33 507.843
994 0 64.2447 13.0439 838 65.42 1183.74 508.336
995 0 65.0596 12.8805 838 66.0418 1183.74 506.124
996 0 70.223 13.0584 917 64.9564 1183.78 505.083
997 0 69.025 13.1257 906 65.9823 1183.76 502.902
998 0 73.0756 12.8908 942 65.6433 1183.04 502.694
999 0 73.2054 11.8297 866 67.2621 1183.49 502.789
1000 0 79.0786 12.7089 1005 65.7313 1182.66 502.09
1001 0 80.1281 12.4301 996 66.002 1182.88 498.733
1002 0 83.2539 13.8492 1153 64.7268 1183.58 498.573
1003 0 85.2047 13.9077 1185 64.4894 1183.39 493.976
1004 0 88.1314 14.0812 1241 64.5463 1183.21 496.803
1005 1 51.1643 12.3133 630 65.2603 1183.28 515.944
1006 0 50.0915 11.3193 567 67.6367 1182.35 514.767
1007 0 52.1922 13.661 713 64.9397 1182.53 513.624
1008 0 54.1438 13.0763 708 65.8658 1183.05 512.315
1009 0 58.1064 13.5613 788 64.2843 1182.7 513.23
1010 0 56.1034 13.6355 765 65.7569 1182.83 509.346
1011 0 59.0837 12.3215 728 67.2445 1183.24 509.563
1012 0 61.2208 12.9041 790 66.4038 1183.55 507.948
1013 0 63.1594 12.7455 805 65.7776 1182.57 510.08
1014 0 66.0754 13.9083 919 64.2731 1182.07 508.096
1015 0 65.1723 12.7662 832 66.4712 1182.82 505.468
1016 0 70.1047 14.4213 1011 63.9862 1182.67 504.509
1017 0 71.0998 14.3038 1017 63.8319 1182.44 506.789
1018 0 75.1412 12.8558 966 65.5611 1183.02 504.799
1019 0 79.1681 13.7555 1089 64.2847 1183.59 502.072
1020 0 81.2758 13.2266 1075 64.8958 1182.99 500.996
1021 0 84.1518 12.5725 1058 65.3214 1182.91 502.2
1022 0 85.2862 12.7219 1085 65.5042 1181.99 500.332
1023 0 89.1232 13.5879 1211 64.9992 1182.38 497.821
1024 1 44.3249 13.2206 586 64.2321 1182.64 519.147
1025 0 47.2295 14.5037 685 62.8613 1182.57 518.258
1026 0 49.0387 15.498 760 60.5408 1182.21 519.101
1027 0 50.1072 13.97 700 63.6043 1182.24 516.934
1028 0 52.1076 11.1308 580 66.1776 1182.13 517.497
1029 0 53.0861 12.7906 679 64.5729 1180.99 515.904
1030 0 54.1815 13.4732 730 63.474 1180.7 514.023
1031 0 53.1038 11.9389 634 66.0142 1181.19 514.648
1032 0 56.1864 12.8323 721 64.1512 1181.38 514.184
1033 0 59.0855 12.9643 766 63.4974 1181.12 512.57
1034 0 60.1308 11.9573 719 64.4409 1181.46 511.289
1035 0 63.1026 15.1658 957 60.4451 1181.79 508.252
1036 0 65.1768 13.8239 901 61.9367 1180.88 508.675
1037 0 67.1647 12.6852 852 62.8638 1181.38 509.934
1038 0 70.1558 14.425 1012 60.8498 1181.23 506.05
1039 0 72.0993 13.8836 1001 61.6583 1180.69 506.494
1040 0 73.1123 13.1442 961 62.9168 1180.33 505.27
1041 0 76.1203 14.2275 1083 61.4949 1180.38 505.732
1042 0 80.1037 13.3826 1072 62.3125 1181.18 503.687
1043 0 81.2918 14.0482 1142 62.0595 1180.97 502.362
1044 0 79.1142 12.9939 1028 64.3288 1181.36 498.78
1045 0 85.2163 12.5915 1073 64.753 1180.42 497.345
1046 0 90.2883 14.6974 1327 61.6586 1180.89 496.924
1047 0 91.1311 13.5848 1238 63.4168 1180.58 496.163
1048 0 94.1773 13.1985 1243 63.9018 1180.41 494.069
1049 0 96.1489 13.5415 1302 63.6252 1180.98 493.926
1050 1 46.0743 12.5016 576 64.3733 1181.03 519.767
1051 0 49.0867 13.7104 673 63.5572 1180.68 516.187
1052 0 52.0878 13.2085 688 64.6061 1180.85 514.076
1053 0 53.2084 13.1558 700 64.7371 1180.23 514.877
1054 0 55.1812 14.2984 789 62.8568 1180.69 515.42
1055 0 56.0409 14.1325 792 63.5013 1180.6 514.316
1056 0 59.1741 14.9052 882 62.9989 1181.03 513.203
1057 0 59.1276 12.9212 764 65.7565 1180.93 512.28
1058 0 61.0779 12.1484 742 67.0283 1180.68 511.616
1059 0 67.0675 14.9104 1000 62.643 1180.84 511.749
1060 0 68.1781 14.5795 994 63.6097 1181.27 510.567
1061 0 69.0999 15.1086 1044 63.933 1180.96 509.022
1062 0 72.0937 14.8834 1073 64.5983 1180.66 506.785
1063 0 74.1307 13.3413 989 66.6987 1180.59 507.323
1064 0 79.1887 14.1055 1117 65.7547 1181.27 505.44
1065 0 81.2735 15.5647 1265 64.3676 1181.42 504.281
1066 0 84.1714 14.3754 1210 66.0595 1181.4 505.819
1067 0 84.2509 14.2906 1204 67.054 1181.69 504.764
1068 1 44.1198 12.4661 550 68.1182 1181.64 523.56
1069 0 45.0977 12.9275 583 68.3396 1181.74 522.091
1070 0 46.2088 13.1577 608 68.3783 1181.29 522.661
1071 0 47.058 13.409 631 67.9382 1181.26 521.323
1072 0 50.1082 12.6127 632 69.6867 1181.26 519.998
1073 0 51.1255 13.0463 667 68.1349 1181.54 520.288
1074 0 53.1005 15.3671 816 64.9804 1181.61 519.324
1075 0 56.3949 13.5119 762 67.0039 1181.54 518.53
1076 0 58.3262 12.8587 750 67.4347 1181.79 517.776
1077 0 58.0805 12.8787 748 68.1604 1181.37 515.662
1078 0 62.1339 14.6619 911 65.2799 1180.98 514.769
1079 0 63.1729 15.228 962 64.6632 1181.56 514.192
1080 0 64.1545 13.2025 847 68.2385 1181.63 510.312
1081 0 65.1634 12.7833 833 68.3722 1180.92 513.138
1082 0 67.1836 13.6938 920 67.6283 1181.72 509.199
1083 0 72.3381 14.4599 1046 66.0076 1182.15 510.276
1084 0 73.154 13.9159 1018 66.7613 1181.96 509.719
1085 0 76.2915 14.3135 1092 66.4029 1182.42 506.061
1086 0 78.173 14.0842 1101 66.7139 1181.85 505.709
1087 0 77.1943 13.628 1052 67.749 1181.45 501.965
1088 1 41.1853 12.723 524 67.084 1181.77 523.92
1089 0 42.0785 12.5955 530 66.4849 1181.97 523.783
1090 0 42.0785 13.6412 574 66.9843 1181.48 522.469
1091 0 44.1174 13.9174 614 66.7085 1181.64 521.956
1092 0 47.1843 13.9665 659 65.9605 1181.78 522.437
1093 0 48.0881 14.2031 683 66.0234 1181.14 520.356
1094 0 50.1015 14.1313 708 65.2034 1182.58 520.096
1095 0 49.0908 12.7926 628 68.7086 1182.46 517.782
1096 0 51.1081 13.2856 679 67.5169 1182.81 517.19
1097 0 53.1049 14.4055 765 66.6078 1182.11 513.499
1098 0 56.2814 14.8895 838 65.605 1181.61 514.394
1099 0 56.1813 13.7412 772 67.6088 1181.68 512.365
1100 0 59.1891 14.9014 882 65.2642 1181.98 513.33
1101 0 63.1199 14.4487 912 65.5493 1182.08 513.264
1102 0 64.0894 15.2755 979 64.9775 1182.39 511.772
1103 0 66.1399 14.4693 957 66.5684 1182.23 511.666
1104 0 68.1477 15.4811 1055 65.2171 1181.89 511.447
1105 0 69.1321 14.0745 973 67.557 1182.25 510.76
1106 0 74.1117 15.5846 1155 65.0978 1182.23 508.174
1107 0 75.241 13.6894 1030 68.1214 1182.38 506.909
1108 0 78.1236 15.3091 1196 66.087 1182.31 506.337
1109 0 80.2026 13.5781 1089 68.2149 1182.09 504.234
1110 0 82.372 15.7335 1296 66.2932 1182.86 503.444
1111 1 42.1897 13.5104 570 68.0088 1182.4 524.109
1112 0 43.0504 13.4494 579 68.9016 1182.71 521.181
1113 0 46.1032 14.1422 652 66.8221 1183.15 521.023
1114 0 47.3172 12.2788 581 70.1205 1182.51 519.262
1115 0 49.0664 13.1454 645 68.707 1182.13 519.433
1116 0 50.0931 13.4549 674 68.7255 1182.79 516.466
1117 0 54.1608 13.4968 731 67.4638 1182.42 517.233
1118 0 54.2126 14.4062 781 66.1549 1182.57 516.403
1119 0 57.049 13.5673 774 67.2351 1182.01 514.694
1120 0 58.1604 13.1189 763 67.5124 1182.12 514.453
1121 0 60.0369 13.9914 840 66.4048 1182.59 512.536
1122 0 62.157 13.7877 857 66.3792 1182.5 512.156
1123 0 64.1329 13.2693 851 66.926 1182.65 512.317
1124 0 67.2064 14.0016 941 65.9352 1182.84 511.552
1125 0 68.1676 13.7162 935 66.3476 1183.12 508.926
1126 0 71.106 15.3152 1089 64.2865 1183.43 508.263
1127 0 73.1707 13.5983 995 66.7518 1182.82 505.936
1128 0 75.1657 14.1155 1061 65.558 1182.7 506.79
1129 0 78.2466 15.8601 1241 63.2417 1182.93 505.237
1130 0 81.2107 13.8405 1124 65.8763 1182.66 504.133
1131 0 82.2258 14.3872 1183 65.3238 1182.42 502.899
1132 1 42.1183 12.5124 527 67.2884 1181.97 520.351
1133 0 44.1216 12.2616 541 66.6229 1181.49 521.854
1134 0 46.2347 11.8526 548 67.4909 1182.57 519.947
1135 0 46.1175 12.2296 564 67.5408 1182.82 519.863
1136 0 49.0751 13.5507 665 65.8872 1183.02 517.929
1137 0 50.075 14.3185 717 64.5914 1182.42 518.554
1138 0 51.1994 13.7697 705 66.3418 1182.18 515.864
1139 0 54.099 14.7323 797 64.5947 1182.35 514.166
1140 0 53.3009 13.6208 726 66.4601 1182.46 514.01
1141 0 56.1406 13.3415 749 66.9052 1182.76 514.959
1142 0 57.055 13.636 778 66.4679 1182.79 513.47
1143 0 61.3137 13.7816 845 65.7325 1182.67 512.161
1144 0 63.0588 14.5578 918 65.0316 1182.26 510.154
1145 0 64.1448 13.7813 884 65.4514 1182.23 510.173
1146 0 66.1067 15.8985 1051 63.2598 1182.59 509.065
1147 0 69.1399 14.8829 1029 63.9893 1182.57 508.021
1148 0 71.3517 12.5715 897 66.8952 1181.84 505.773
1149 0 73.2357 13.7774 1009 66.2597 1182.39 505.725
1150 0 76.1983 14.4229 1099 64.9663 1182.16 502.651
1151 0 79.2016 13.9896 1108 65.8601 1182.24 503.064
1152 0 82.1969 13.4312 1104 66.0516 1182.44 502.409
1153 0 84.1908 13.22 1113 66.6289 1181.94 500.352
1154 1 45.0506 13.4293 605 65.8066 1181.54 519.192
1155 0 44.0656 10.9609 483 68.6025 1182.04 520.634
1156 0 45.0992 13.4814 608 66.5 1182.13 519.895
1157 0 48.1046 14.1151 679 65.5538 1181.96 518.256
1158 0 48.0894 12.6431 608 66.7401 1182.07 519.145
1159 0 50.1913 14.8432 745 64.1852 1182.42 517.662
1160 0 51.1164 13.4008 685 66.892 1182.52 516.034
1161 0 52.2477 13.8762 725 66.7848 1181.99 513.498
1162 0 55.0714 15.4708 852 63.6491 1181.81 515.653
1163 0 57.1627 14.2575 815 65.589 1181.77 512.32
1164 0 59.051 12.5993 744 67.9597 1182.22 512.129
1165 0 62.2378 14.541 905 64.895 1181.76 512.89
1166 0 62.1491 14.61 908 65.5826 1182.31 508.308
1167 0 66.2565 14.2929 947 65.3115 1182.52 509.404
1168 0 68.1636 14.7439 1005 64.7642 1182.33 509.244
1169 0 66.2885 13.7279 910 67.8077 1182.38 507.256
1170 0 72.242 14.6868 1061 65.3468 1182.66 506.692
1171 0 76.1638 15.2435 1161 64.4065 1182.24 505.432
1172 0 77.1678 13.9048 1073 66.4697 1181.83 505.902
1173 0 80.2318 14.0343 1126 66.4449 1182.27 503.874
1174 0 82.1622 14.7148 1209 65.8296 1182.96 502.797
1175 0 86.1834 14.9101 1285 65.256 1182.61 500.774
1176 1 42.0506 12.9606 545 68.5578 1182.57 519.949
1177 0 46.0527 14.3097 659 66.8938 1183.31 519.775
1178 0 44.0629 13.3673 589 70.1918 1183.89 519.202
1179 0 47.137 14.9776 706 67.2068 1183.08 518.268
1180 0 51.1371 15.1553 775 66.2568 1182.76 516.766
1181 0 51.1462 16.2671 832 65.5469 1182.2 517.619
1182 0 52.0531 14.466 753 68.093 1182.11 518
1183 0 55.0921 14.3396 790 67.6684 1182.28 517.182
1184 0 55.1447 12.984 716 70.0796 1182.83 513.71
1185 0 58.0965 15.9562 927 65.9266 1182.8 513.575
1186 0 59.1462 13.7456 813 69.0037 1181.95 513.341
1187 0 63.1608 14.4393 912 66.5976 1181.83 514.016
1188 0 66.1312 15.7112 1039 64.6574 1182.2 511.649
1189 0 66.1288 15.7269 1040 65.2529 1181.7 512.871
1190 0 69.115 13.8899 960 67.7031 1182.65 509.781
1191 0 73.113 16.5224 1208 64.317 1182.4 506.918
1192 0 72.1311 13.5725 979 68.9367 1182.1 506.113
1193 0 77.2924 13.9341 1077 67.5682 1182.68 505.649
1194 0 77.3044 13.2593 1025 69.279 1183.17 504.75
1195 0 82.1504 16.1533 1327 64.8433 1182.54 503.222
1196 0 83.1726 14.1393 1176 67.4583 1183.3 502.332
1197 0 88.1487 14.7365 1299 66.4742 1182.85 500.019
1198 0 90.2127 13.8783 1252 67.7141 1182.64 498.502
1199 0 93.2026 15.1283 1410 66.3 1182.33 495.776
1200 1 45.0882 13.9283 628 68.1385 1183.05 521.024
1201 0 47.1861 13.9872 660 68.5348 1183.44 519.686
1202 0 49.1218 13.1103 644 68.5512 1182.84 519.45
1203 0 49.1667 12.7932 629 68.9062 1182.7 520.954
1204 0 52.2517 14.6024 763 67.2752 1182.66 517.784
1205 0 53.1485 13.641 725 68.8207 1183.14 515.341
1206 0 56.3053 14.7055 828 66.9988 1182.86 516.033
1207 0 57.1075 14.2538 814 67.2801 1182.67 515.537
1208 0 59.2096 15.2171 901 66.6781 1183.32 512.295
1209 0 60.1862 15.1031 909 66.9076 1183.1 511.661
1210 0 63.2883 14.8053 937 66.5539 1183.35 511.986
1211 0 66.194 15.3337 1015 65.3212 1182.42 509.414
1212 0 69.0996 14.2548 985 66.2792 1182.56 509.409
1213 0 70.1581 13.4696 945 67.5651 1182.85 507.914
1214 0 75.1688 16.31 1226 63.513 1183.36 505.391
1215 0 77.1958 15.9594 1232 63.8758 1183.09 506.506
1216 0 79.3046 14.7785 1172 65.2986 1183.1 505.491
1217 0 82.2125 17.2237 1416 61.9675 1182.92 503.525
1218 0 85.2539 15.2134 1297 64.3377 1183.3 503.251
1219 0 88.1449 15.1909 1339 64.3607 1183.05 499.286
1220 0 92.1948 14.6429 1350 64.6007 1182.74 501.436
1221 0 91.145 13.7693 1255 66.1155 1182.69 499.406
1222 0 98.199 15.6926 1541 62.8559 1182.69 496.949
1223 0 101.345 15.6791 1589 63.3172 1183 494.366
1224 0 105.281 16.3847 1725 62.171 1183.46 491.531
1225 0 107.471 15.2321 1637 63.573 1184.06 490.545
1226 0 110.215 15.1431 1669 63.7232 1183.98 490.007
1227 1 51.2016 14.2183 728 65.1484 1183.36 519.239
1228 0 52.1093 13.2606 691 65.8625 1183.54 520.123
1229 0 54.3624 12.5086 680 66.6912 1183.2 519.019
1230 0 55.0827 15.2861 842 64.69 1183.62 516.112
1231 0 56.18 16.1267 906 63.7704 1183.47 514.604
1232 0 58.242 15.1952 885 64.4678 1182.55 516.575
1233 0 60.3179 15.1365 913 64.5805 1182.96 512.462
1234 0 62.3966 14.4719 903 64.5504 1183.94 515.288
1235 0 65.1766 15.8799 1035 63.1449 1183.26 513.472
1236 0 65.164 16.1592 1053 63.5005 1183.08 511.05
1237 0 68.2832 16.7098 1141 62.4733 1183.55 509.876
1238 0 72.2064 16.0374 1158 62.329 1184.2 510.239
1239 0 75.138 17.4346 1310 60.355 1183.32 509.321
1240 0 77.2672 16.0353 1239 62.176 1183.09 505.792
1241 0 80.1404 17.7439 1422 60.1793 1183.46 505.547
1242 0 81.4692 15.5151 1264 62.9359 1183.67 504.938
1243 0 83.4734 15.1426 1264 63.5269 1183.94 502.332
1244 0 87.152 16.6376 1450 61.7945 1183.6 500.446
1245 0 90.2994 15.9691 1442 62.025 1183.56 500.54
1246 0 93.4461 16.7369 1564 61.1113 1183.7 499.297
1247 0 94.2973 15.7375 1484 62.845 1183.08 497.26
1248 0 99.4666 13.7735 1370 63.9584 1183.47 498.237
1249 0 102.436 14.614 1497 62.9252 1183.76 498.23
1250 0 107.364 16.2345 1743 61.416 1183.86 491.396
1251 1 51.2216 13.0414 668 66.1198 1184.47 516.984
1252 0 55.31 14.247 788 64.6815 1184.49 516.401
1253 0 56.2468 14.2941 804 64.9813 1184.05 515.699
1254 0 58.2642 14.5029 845 65.1112 1183.94 513.337
1255 0 59.2897 15.0616 893 64.8186 1183.67 515.29
1256 0 62.1513 16.2024 1007 63.5948 1183.4 512.433
1257 0 66.2754 17.5631 1164 61.079 1183.19 513.68
1258 0 67.2855 16.7347 1126 63.0524 1184.17 512.294
1259 0 71.4919 18.2119 1302 60.5753 1183.58 512.899
1260 0 70.1801 16.1014 1130 63.9513 1183.77 509.903
1261 0 74.392 16.2383 1208 63.3974 1183.06 510.254
1262 0 75.3558 15.8183 1192 64.2852 1182.92 509.513
1263 0 77.2751 15.3995 1190 64.9765 1183.2 506.895
1264 0 82.1103 17.7322 1456 62.0934 1182.17 503.286
1265 0 83.2274 15.4396 1285 65.0265 1182.36 504.566
1266 0 86.4548 16.8296 1455 63.4186 1183.12 504.444
1267 0 88.5769 16.4716 1459 64.1323 1183.59 500.711
1268 0 91.3424 15.5131 1417 65.132 1183.91 500.627
1269 0 95.5772 15.4744 1479 65.0514 1183.52 499.222
1270 0 98.712 16.1683 1596 64.3214 1182.52 499.261
1271 0 100.593 15.1601 1525 65.9023 1182.67 495.437
1272 1 47.1433 15.0817 711 64.744 1183.16 521.513
1273 0 46.4252 14.1518 657 65.8676 1182.73 523.111
1274 0 49.4324 14.4642 715 65.965 1182.75 521.822
1275 0 50.2849 15.7105 790 64.7899 1183.01 521.413
1276 0 50.4562 16.2319 819 66.1673 1183.46 518.514
1277 0 51.3506 14.0018 719 69.1641 1182.51 518.665
1278 0 55.3454 14.4185 798 67.6617 1183.2 519.049
1279 0 56.4195 17.9902 1015 64.6305 1183.49 517.776
1280 0 56.3493 15.4926 873 67.8786 1183.31 517.178
1281 0 59.2045 15.3705 910 68.4044 1183.32 515.097
1282 0 60.1493 14.5305 874 69.9016 1182.55 515.249
1283 0 63.2772 15.3926 974 68.2793 1183.24 514.081
1284 0 66.1716 16.291 1078 67.0334 1183.8 512.142
1285 0 67.3652 16.1211 1086 67.546 1183.63 510.194
1286 0 69.4063 16.0792 1116 67.4176 1183.53 511.936
1287 0 70.2048 16.4234 1153 67.7797 1183.82 507.714
1288 0 73.2063 15.1763 1111 68.3699 1183.41 509.149
1289 0 76.3685 15.6871 1198 67.2129 1183.01 508.053
1290 0 79.3997 17.2167 1367 65.0914 1183.02 508.506
1291 0 83.1738 15.2572 1269 67.182 1183.38 506.504
1292 0 86.2996 15.5737 1344 66.5156 1183.11 506.389
1293 0 87.2805 15.9257 1390 65.9252 1182.57 503.32
1294 0 92.2952 16.4147 1515 65.1888 1183.2 501.669
1295 0 94.41 17.2334 1627 64.3798 1182.3 499.924
1296 0 96.3649 17.2988 1667 64.0024 1183.03 501.068
1297 0 99.1514 15.5621 1543 67.2191 1182.86 495.545
1298 0 104.378 15.7696 1646 66.4423 1182.8 495.121
1299 0 106.476 15.9097 1694 66.1671 1183.72 494.43
1300 1 54.2665 13.5258 734 70.5 1183.81 517.135
1301 0 54.1962 13.1375 712 71.6966 1183.77 516.275
1302 0 58.3264 13.613 794 70.0882 1182.93 516.634
1303 0 60.2176 15.361 925 68.9178 1183.68 515.389
1304 0 64.2199 16.5681 1064 66.8628 1183.08 514.189
1305 0 65.3252 15.6601 1023 69.0303 1183.47 513.201
1306 0 65.5546 14.1714 929 71.4962 1183.94 512.496
1307 0 67.2599 14.6298 984 71.9695 1183.94 514.129
1308 0 71.256 16.981 1210 68.9678 1183.77 510.002
1309 0 74.3563 15.6544 1164 70.2826 1183.32 511.094
1310 0 74.2182 15.0098 1114 72.1732 1183.7 509.257
1311 0 77.3151 15.301 1183 71.732 1183.74 509.304
1312 0 79.3666 14.6409 1162 73.2547 1184.49 506.978
1313 0 82.4205 14.693 1211 73.526 1184.28 505.301
1314 0 84.2984 14.6741 1237 73.4204 1183.8 503.884
1315 0 88.2209 14.577 1286 72.4463 1184.27 506.254
1316 0 89.3222 16.0318 1432 71.5265 1183.53 504.714
1317 0 92.2749 14.5977 1347 73.1952 1183.26 503.604
1318 0 98.2242 16.3198 1603 70.1503 1183.1 501.193
1319 0 101.584 17.2172 1749 68.7404 1183.47 497.517
1320 0 103.344 16.7305 1729 69.5749 1183.23 498.446
1321 1 47.3301 13.2051 625 74.488 1183.44 522.706
1322 0 52.1485 15.3792 802 71.4314 1182.99 521.534
1323 0 53.2241 13.8283 736 73.9878 1183.28 520.038
1324 0 55.4816 13.2657 736 73.9307 1182.97 522.01
1325 0 57.2569 15.7885 904 71.5498 1182.98 520.134
1326 0 59.5267 16.2616 968 71.1446 1183.6 517.41
1327 0 60.3973 15.6298 944 72.303 1183.48 517.469
1328 0 61.3391 14.6725 900 73.9078 1184.05 516.933
1329 0 63.4177 16.0996 1021 71.6406 1183.93 515.429
1330 0 65.2414 15.9408 1040 72.075 1183.72 515.366
1331 0 67.2142 16.3061 1096 71.7792 1183.46 513.944
1332 0 70.3315 14.972 1053 73.4055 1183.85 513.889
1333 0 70.2685 15.085 1060 74.5481 1183.96 513.734
1334 0 73.2916 16.7686 1229 72.1636 1184.5 511.535
1335 0 75.5622 15.1531 1145 75.2655 1183.98 508.748
1336 0 78.1589 16.1722 1264 73.3687 1184.02 508.81
1337 0 79.2246 15.4876 1227 74.7327 1184.01 507.773
1338 0 84.2734 16.399 1382 72.7619 1183.85 506.201
1339 0 86.4451 15.4318 1334 74.3598 1183.16 504.212
1340 0 90.3637 16.5885 1499 72.4296 1183.12 503.563
1341 0 93.4118 16.9358 1582 71.9589 1183.66 502.316
1342 1 42.2388 14.1813 599 76.4057 1183.67 527.416
1343 0 41.251 15.4421 637 77.2465 1184.8 525.132
1344 0 43.2084 15.4368 667 76.8741 1184.2 525.544
1345 0 44.1565 15.4677 683 76.8433 1183.45 524.871
1346 0 47.1286 14.5984 688 78.5959 1183.38 523.698
1347 0 48.0943 15.2409 733 77.2551 1183.61 523.782
1348 0 50.3072 13.8747 698 79.5315 1184.04 522.782
1349 0 52.3333 16.6816 873 76.1088 1184 519.958
1350 0 53.1706 15.2528 811 78.0444 1184 522.174
1351 0 58.2079 15.3587 894 77.5638 1183.65 520.133
1352 0 57.2206 15.3616 879 79.3083 1183.6 517.614
1353 0 59.2189 16.3461 968 77.6674 1183.43 517.457
1354 0 58.221 14.8228 863 80.7856 1183.76 518.734
1355 0 60.2295 16.022 965 79.143 1183.34 517.445
1356 0 62.3218 15.5162 967 80.6412 1182.94 516.735
1357 0 66.5281 17.4813 1163 75.6337 1183.56 515.729
1358 0 66.217 17.0802 1131 76.1945 1183.98 515.147
1359 0 69.4618 15.1738 1054 78.5361 1184.27 516.064
1360 0 68.241 15.9435 1088 79.5643 1183.65 512.448
1361 0 72.1654 16.6977 1205 77.9792 1183.52 513.83
1362 0 73.2617 17.7446 1300 77.1731 1183.11 512.006
1363 0 74.4473 16.8307 1253 78.8468 1183.17 509.951
1364 0 78.2757 19.0225 1489 74.7287 1183.5 509.877
1365 0 81.1802 15.6812 1273 79.7463 1183.44 508.874
1366 0 85.1748 18.2448 1554 74.5907 1184.06 507.71
1367 0 86.439 18.1631 1570 74.4217 1182.84 507.655
1368 0 88.1804 16.693 1472 76.8234 1183.13 504.523
1369 0 90.3773 15.3689 1389 79.0778 1183.52 502.734
1370 0 95.289 17.5046 1668 75.1037 1183.81 500.573
1371 0 99.3197 18.4254 1830 73.9393 1183.61 496.142
1372 0 103.278 17.0996 1766 75.124 1184.06 496.627
1373 0 106.299 17.2815 1837 74.5525 1183.7 494.405
1374 0 109.35 16.5524 1810 74.9006 1183.52 493.988
1375 1 45.0328 12.7019 572 80.8514 1184.08 523.607
1376 0 48.0703 14.9365 718 77.9401 1183.4 522.755
1377 0 49.1821 14.9241 734 78.0259 1183.25 523.381
1378 0 49.2386 15.76 776 78.3505 1183.8 521.18
1379 0 50.0503 15.2447 763 79.2516 1183.87 521.531
1380 0 53.1863 14.6466 779 79.5263 1183.66 522.59
1381 0 54.0151 15.4772 836 79.5263 1183.9 519.982
1382 0 54.1654 15.4711 838 80.7076 1183.61 520.058
1383 0 57.1098 17.0373 973 77.2919 1183.03 520.255
1384 0 59.1037 16.6318 983 77.9247 1183.23 519.817
1385 0 58.0696 15.137 879 81.5973 1183.42 519.357
1386 0 62.0894 17.1205 1063 77.5268 1184.07 518.114
1387 0 62.0399 15.2966 949 81.5279 1183.47 516.952
1388 0 64.3197 15.9982 1029 80.6385 1183.78 515.921
1389 0 66.1584 17.0953 1131 78.8966 1183.75 516.577
1390 0 67.0854 16.8144 1128 80.3945 1183.73 514.772
1391 0 68.1259 15.9704 1088 82.0239 1183.58 513.472
1392 0 72.0658 16.929 1220 80.6672 1183.21 511.459
1393 0 75.1712 17.1608 1290 79.9271 1183.47 513.246
1394 0 78.074 18.3544 1433 79.3475 1183.99 508.894
1395 0 80.1389 17.4073 1395 80.8057 1183.88 508.382
1396 0 83.1366 16.6954 1388 82.4806 1184.43 507.723
1397 0 88.1592 17.423 1536 80.2025 1183.74 505.295
1398 0 87.0614 17.5968 1532 81.9922 1183.48 503.072
1399 0 91.0975 16.883 1538 83.0793 1183.88 502.205
1400 0 94.2778 16.8757 1591 82.9956 1183.7 503.674
1401 0 98.1928 16.6204 1632 83.788 1184.06 499.424
1402 0 101.11 16.5859 1677 83.9732 1184.63 499.701
1403 0 105.151 16.0817 1691 84.699 1183.76 498.51
1404 0 108.175 16.4271 1777 84.8289 1183.18 495.513
1405 0 111.162 17.7039 1968 83.0366 1182.95 493.264
1406 0 116.133 17.7211 2058 68.7498 1183.41 497.139
1407 0 118.262 16.6918 1974 84.5588 1183.34 491.336
1408 0 123.195 16.8433 2075 84.1248 1183.27 489.296
1409 1 53.0322 15.3303 813 88.0332 1183.38 523.845
1410 0 50.0189 14.5745 729 91.9616 1183.71 521.348
1411 0 55.0621 15.6732 863 88.6037 1184.28 521.606
1412 0 55.1581 14.123 779 90.7882 1184.5 521.807
1413 0 56.022 14.9941 840 89.8238 1184.43 520.732
1414 0 58.1745 15.23 886 90.1749 1184.03 518.24
1415 0 59.0758 16.4365 971 87.3914 1184.07 519.07
1416 0 62.0709 16.4973 1024 86.9971 1184.04 517.915
1417 0 65.0612 15.7851 1027 87.5462 1183.89 516.763
1418 0 65.044 14.6362 952 90.4076 1184.92 515.803
1419 0 67.0509 15.9879 1072 87.9235 1184.64 514.472
1420 0 70.1509 16.2507 1140 87.064 1184.79 514.513
1421 0 72.0889 16.5629 1194 86.603 1184.63 512.486
1422 0 74.0588 15.1096 1119 88.4745 1184.58 512.44
1423 0 75.1041 15.8447 1190 87.4387 1184.12 510.976
1424 0 79.1608 16.0307 1269 86.2979 1184.17 511.468
1425 0 83.1156 16.2184 1348 85.928 1184.24 508.092
1426 0 83.0789 15.0219 1248 88.3998 1184.3 508.89
1427 0 87.0974 15.3851 1340 87.9612 1184.62 506.445
1428 0 90.1055 15.9702 1439 87.0403 1184.98 505.7
1429 0 92.1765 14.7652 1361 88.3321 1184.26 505.015
1430 0 97.119 15.1876 1475 86.9783 1184.03 503.232
1431 0 98.091 15.6691 1537 87.5934 1184.43 500.9
1432 0 100.102 14.9548 1497 88.8464 1184.45 499.69
1433 0 104.143 15.2003 1583 88.3651 1184.42 500.37
1434 1 45.0596 16.223 731 89.4049 1184.55 524.666
1435 0 49.1221 14.7591 725 89.0648 1185.15 525.528
1436 0 46.0276 15.4907 713 90.1781 1184.8 525.121
1437 0 50.0579 16.8804 845 86.9964 1184.07 523.243
1438 0 51.0656 15.764 805 88.4 1184.36 523.753
1439 0 51.0484 15.4363 788 91.0102 1184.2 521.893
1440 0 51.0403 15.5367 793 91.6734 1184.21 521.506
1441 0 54.1586 17.578 952 87.3445 1183.99 521.627
1442 0 56.1264 15.768 885 90.1763 1183.53 521.786
1443 0 56.1012 16.9515 951 89.2955 1183.89 520.236
1444 0 58.0576 16.0703 933 89.9571 1183.6 520.384
1445 0 60.1138 16.2026 974 89.7115 1183.77 519.82
1446 0 59.0798 15.9107 940 92.0926 1184.09 518.611
1447 0 62.0546 17.0817 1060 89.3717 1184.46 517.787
1448 0 63.0453 16.0837 1014 90.7692 1184.07 518.119
1449 0 65.1674 15.6213 1018 92.3291 1184.16 515.53
1450 0 67.1128 16.2264 1089 91.5124 1183.31 514.058
1451 0 69.0652 16.7812 1159 91.7023 1184.02 512.412
1452 0 71.1211 15.6775 1115 93.5058 1184.2 512.702
1453 0 72.1474 16.2861 1175 92.7438 1183.81 512.355
1454 0 76.0542 17.619 1340 88.4873 1183.41 512.702
1455 0 78.0904 15.4052 1203 92.478 1183.59 511.958
1456 0 80.2056 17.1434 1375 90.5927 1184.13 509.495
1457 0 82.1117 17.3666 1426 89.6157 1184.07 506.375
1458 1 37.0952 14.9615 555 92.7225 1184.18 529.104
1459 0 37.0603 14.5978 541 95.4233 1183.85 527.41
1460 0 38.0861 15.0711 574 95.0645 1183.4 527.155
1461 0 40.0817 14.9694 600 95.475 1184.43 526.77
1462 0 40.0237 14.6163 585 96.7026 1184.4 526.622
1463 0 41.1052 16.5186 679 95.4345 1184.75 525.916
1464 0 43.0719 16.2751 701 95.9643 1184.14 526.02
1465 0 43.0766 16.3894 706 96.466 1184.53 525.187
1466 0 45.1038 15.5641 702 98.396 1183.75 524.615
1467 0 46.0722 15.6276 720 97.8681 1183.57 524.679
1468 0 46.0752 14.3461 661 100.561 1183.55 524.778
1469 0 48.103 15.7786 759 98.9078 1183.61 522.228
1470 0 50.0741 15.8166 792 97.7008 1183.2 523.198
1471 0 51.0982 16.4781 842 96.0736 1183.45 522.001
1472 0 52.0833 15.8976 828 97.8514 1184.1 521.506
1473 0 55.0596 15.8555 873 96.0092 1183.66 521.014
1474 0 56.0759 16.3528 917 95.0632 1184.08 520.176
1475 0 56.0876 16.6882 936 95.1036 1184.1 517.475
1476 0 58.1461 16.4929 959 94.4442 1183.91 517.497
1477 0 61.125 16.3436 999 93.4825 1184.11 517.979
1478 0 64.2326 16.16 1038 92.8593 1183.9 516.632
1479 0 66.1092 16.2458 1074 92.6629 1183.81 514.716
1480 0 69.0639 16.5499 1143 90.5153 1183.17 515.945
1481 0 70.1175 16.3012 1143 91.2222 1183.08 515.511
1482 0 71.0648 16.3231 1160 92.0819 1182.96 511.984
1483 0 75.1302 16.691 1254 90.3006 1183.41 510.543
1484 0 77.0911 16.6816 1286 90.9876 1183.52 508.144
1485 0 81.0964 16.092 1305 91.0444 1183.32 507.598
1486 0 85.1232 17.8212 1517 87.4054 1183.39 507.126
1487 0 85.0627 16.6936 1420 90.7838 1183.06 506.472
1488 0 88.0608 16.2615 1432 91.5237 1183.06 504.915
1489 1 36.0198 14.0756 507 95.1381 1183.05 529.095
1490 0 37.0289 14.8262 549 94.918 1182.72 528.277
1491 0 37.0571 14.6801 544 97.6287 1183.26 527.366
1492 0 40.0678 14.4505 579 95.8808 1182.7 528.337
1493 0 41.016 14.8479 609 95.7718 1182.95 526.417
1494 0 41.0624 15.3912 632 95.8244 1183.13 526.052
1495 0 43.0521 16.7007 719 91.6746 1182.98 527.293
1496 0 44.0252 15.2186 670 95.5746 1182.56 525.796
1497 0 46.0538 15.1996 700 94.3529 1183.06 525.891
1498 0 46.0367 15.1184 696 96.3664 1183.69 523.815
1499 0 48.0626 14.9805 720 96.3583 1183.14 523.161
1500 0 47.0448 15.1133 711 97.0197 1183.35 522.356
1501 0 50.0346 16.9283 847 92.6045 1182.9 521.62
1502 0 49.0567 15.6757 769 96 1183.38 522.246
1503 0 51.1204 15.4146 788 95.6548 1182.33 522.637
1504 0 54.1066 16.6338 900 92.1444 1182.5 521.796
1505 0 55.0155 17.3042 952 91.0084 1182.55 520.243
1506 0 56.1957 16.1044 905 92.8221 1182.82 520.188
1507 0 57.0849 14.9602 854 95.8326 1182.28 519.219
1508 0 59.0748 15.9459 942 93.4565 1182.48 519.088
1509 0 62.0932 17.6187 1094 89.1152 1182.5 517.593
1510 0 61.1886 15.2643 934 94.9486 1181.83 516.618
1511 0 65.0835 15.9641 1039 91.5621 1182.5 516.213
1512 0 66.1364 16.1787 1070 91.371 1182.39 515.019
1513 0 70.0953 16.6773 1169 88.9701 1182.18 513.522
1514 0 72.1966 15.8456 1144 90.0131 1182.59 512.488
1515 0 72.0715 16.1784 1166 90.2616 1182.22 511.562
1516 0 75.2063 15.2115 1144 92.4519 1183.39 510.336
1517 0 79.1546 16.5246 1308 89.3234 1183.84 509.693
1518 1 37.0569 14.896 552 92.904 1183.98 527.313
1519 0 38.1859 14.5603 556 94.5558 1182.81 526.844
1520 0 37.0621 13.275 492 98.5081 1182.32 527.561
1521 0 39.0392 14.4214 563 95.9094 1182.25 527.119
1522 0 42.123 16.1195 679 92.7275 1183.04 525.73
1523 0 42.0404 15.7705 663 95.1554 1183.54 523.676
1524 0 44.0833 15.2666 673 95.0193 1182.95 524.612
1525 0 44.0628 15.5006 683 96.9854 1183.76 523.47
1526 0 47.0616 16.2765 766 94.2141 1183.94 521.627
1527 0 46.0464 15.7667 726 97.259 1183.49 521.197
1528 0 48.0508 15.7542 757 96.6579 1184.5 521.915
1529 0 50.0299 15.1509 758 96.6135 1183.91 522.226
1530 0 49.077 15.547 763 98.5033 1183.25 520.498
1531 0 52.1644 15.9304 831 96.9952 1183.28 518.811
1532 0 52.0402 14.508 755 100.519 1183.01 519.677
1533 0 56.0935 16.7934 942 94.2633 1183.14 519.1
1534 0 59.0882 16.8731 997 92.8756 1183.4 518.487
1535 0 59.153 17.8013 1053 92.2365 1182.9 517.33
1536 0 62.1394 16.8492 1047 92.6094 1182.75 517.248
1537 0 62.0986 16.8925 1049 94.2965 1183.87 515.557
1538 0 63.085 16.771 1058 93.8885 1183.35 514.541
1539 0 66.1736 16.1091 1066 94.2692 1183.02 512.939
1540 0 68.1893 16.5422 1128 92.859 1182.72 513.324
1541 0 71.093 16.823 1196 90.8863 1181.98 511.627
1542 0 73.1265 15.7672 1153 92.5707 1182.13 511.853
1543 0 76.1088 16.7523 1275 90.9482 1182.78 509.632
1544 0 79.0959 16.7645 1326 90.2345 1182.95 509.878
1545 0 79.1161 16.2167 1283 92.7007 1182.68 506.098
1546 0 83.145 16.9583 1410 91.0816 1182.88 505.138
1547 0 85.1652 16.5678 1411 91.4401 1183.14 504.842
1548 0 87.1099 17.7477 1546 88.7122 1182.3 502.766
1549 0 89.072 16.7168 1489 91.3895 1182.69 502.426
1550 1 41.0145 14.5315 596 95.3238 1182.89 525.596
1551 0 42.0345 14.7022 618 96.165 1183.71 524.15
1552 0 43.0518 13.6812 589 99.0441 1183.2 524.087
1553 0 47.0728 16.2514 765 92.7804 1183.6 522.85
1554 0 45.0126 14.6181 658 97.6778 1183.53 524.135
1555 0 48.1669 16.775 808 93.8849 1183.18 522.204
1556 0 50.0906 14.5137 727 98.0935 1182.48 522.827
1557 0 51.0654 16.1362 824 95.3252 1182.42 521.421
1558 0 52.0332 15.8553 825 96.0097 1182.96 521.047
1559 0 54.0531 15.6328 845 96.6757 1182.67 520.837
1560 0 55.0596 16.2188 893 97.0392 1183.16 519.842
1561 0 56.0809 16.922 949 94.0548 1183.61 520.969
1562 0 57.0548 15.897 907 97.8721 1183.28 519.442
1563 0 59.1091 15.0231 888 98.9324 1181.9 519.819
1564 0 60.1644 16.7707 1009 95.889 1182.61 518.612
1565 0 63.0364 16.086 1014 97.5917 1182.72 517.049
1566 0 64.0241 16.2907 1043 96.4142 1182.8 516.952
1567 0 66.0664 16.6953 1103 95.6464 1182.66 516.567
1568 0 69.0531 16.6538 1150 95.3148 1182.16 514.617
1569 0 69.0523 15.2493 1053 99.0076 1182.54 512.403
1570 0 74.1384 16.2264 1203 94.9651 1182.74 512.254
1571 0 74.1421 15.2275 1129 98.3516 1182.93 510.878
1572 0 77.0703 16.5174 1273 95.4729 1183.11 508.722
1573 0 79.0795 15.2378 1205 97.8448 1183.37 509.136
1574 0 82.0765 16.2775 1336 95.631 1183.16 509.335
1575 0 83.167 16.04 1334 96.5705 1182.32 506.846
1576 0 87.1111 16.4158 1430 95.7909 1183.29 504.442
1577 0 90.1118 16.9789 1530 94.0078 1183.03 505.593
1578 0 92.1464 15.9529 1470 97.2844 1183.14 502.482
1579 0 94.1392 15.4134 1451 98.5872 1182.98 502.972
1580 0 98.2032 16.9954 1669 95.6094 1183.03 500.252
1581 0 102.245 16.6756 1705 95.8358 1183.23 499.625
1582 0 103.15 15.5115 1600 98.1862 1182.38 500.808
1583 0 107.192 16.699 1790 96.9469 1183.26 496.575
1584 0 111.275 16.5626 1843 96.3142 1182.78 495.904
1585 0 114.207 17.1706 1961 95.7022 1182.95 492.311
1586 0 117.274 16.9433 1987 96.1922 1183.56 492.451
1587 0 120.453 16.5625 1995 97.4998 1183.07 492.092
1588 1 52.0574 15.3676 800 105.591 1182.66 522.366
1589 0 54.0221 16.2526 878 102.649 1182.56 521.001
1590 0 56.0322 15.4911 868 103.879 1182.51 521.5
1591 0 57.0778 15.2073 868 105.744 1182.5 519.703
1592 0 58.0996 15.3529 892 104.851 1182.79 520.253
1593 0 60.0866 15.8105 950 104.831 1181.89 517.816
1594 0 63.0459 16.2104 1022 103.575 1182.99 516.099
1595 0 63.0259 15.2001 958 106.167 1182.56 516.181
1596 0 67.0574 15.4345 1035 104.336 1182.36 515.937
1597 0 67.0716 15.7593 1057 104.38 1182.42 514.473
1598 0 70.0955 15.5787 1092 103.222 1182.77 514.386
1599 0 70.1088 15.262 1070 105.9 1183.27 511.381
1600 0 74.0847 15.7792 1169 103.454 1183.08 510.514
1601 0 76.0439 15.925 1211 102.424 1182.68 511.974
1602 0 75.1249 14.5358 1092 105.312 1182.29 511.887
1603 0 75.108 13.5405 1017 107.475 1182.41 512.704
1604 0 81.1571 14.17 1150 105.432 1182.36 508.41
1605 0 84.1493 14.5931 1228 104.669 1182.86 507.79
1606 0 85.0836 15.3026 1302 102.965 1182.6 509.055
1607 0 89.1655 14.5123 1294 105.497 1182.35 505.262
1608 0 91.1296 15.0555 1372 104.399 1182.2 502.334
1609 0 94.1135 15.4601 1455 102.076 1182.71 503.377
1610 0 97.104 15.0663 1463 103.18 1183.18 501.655
1611 0 99.163 15.9939 1586 101.757 1182.96 497.264
1612 0 102.244 14.9251 1526 103.566 1182.81 496.849
1613 0 105.151 15.473 1627 101.544 1183.35 497.652
1614 0 112.202 14.67 1646 101.995 1183.14 494.769
1615 0 113.143 16.4482 1861 98.6496 1182.66 491.943
1616 0 111.086 14.6733 1630 102.249 1183.04 495.186
1617 0 117.206 15.3149 1795 101.697 1182.6 488.551
1618 1 155.49 15.1135 2350 99.6302 1182.83 477.624
1619 0 156.327 15.8386 2476 100.696 1183.4 472.696
1620 0 155.962 17.2926 2697 98.337 1183.09 471.94
1621 0 159.11 16.1084 2563 100.856 1182.98 469.532
1622 0 162.21 15.5292 2519 102.551 1182.8 469.212
1623 0 164.319 15.8533 2605 102.926 1182.89 462.623
1624 0 167.615 15.2075 2549 102.948 1183.07 465.203
1625 0 173.12 17.3117 2997 98.4965 1183.31 460.914
1626 0 177.165 15.6916 2780 101.259 1183.41 462.356
1627 0 183.24 15.1987 2785 100.615 1183.32 461.851
1628 0 189.266 16.5904 3140 97.8357 1183.13 453.558
1629 0 193.198 15.1088 2919 100.561 1182.9 451.781
1630 0 202.109 15.4075 3114 98.5019 1182.85 449.119
1631 1 34.0793 14.2902 487 98.7823 1182.48 527.955
1632 0 37.0118 14.5359 538 96.3662 1183.16 527.675
1633 0 36.0097 14.5239 523 97.5029 1183.76 526.895
1634 0 38.0104 14.0488 534 97.4214 1183.76 526.468
1635 0 36.0545 12.3424 445 101.501 1183.71 527.157
1636 0 40.0466 14.8577 595 94.7294 1183.81 526.79
1637 0 41.0301 13.6242 559 98.0877 1182.48 525.521
1638 0 40.1063 14.2122 570 99.2596 1183.15 524.193
1639 0 42.1123 14.6988 619 97.2924 1183.91 523.17
1640 0 43.085 14.8312 639 96.2535 1183.38 523.833
1641 0 46.034 13.2294 609 97.3169 1183.04 524.859
1642 0 46.1331 14.2414 657 95.5677 1183.54 524.741
1643 0 49.0738 14.6514 719 92.7191 1183.59 524.015
1644 0 49.0507 14.3321 703 94.6159 1182.3 522.417
1645 0 49.0736 14.8349 728 94.3049 1182.85 522.68
1646 1 106.101 12.9877 1378 102.596 1182.97 495.564
1647 1 172.328 13.2886 2290 102.9 1182.98 465.242
1648 0 173.207 13.6657 2367 102.352 1182.68 468.444
1649 0 176.362 14.0677 2481 102.811 1183.23 465.021
1650 0 180.502 14.3212 2585 102.894 1182.4 461.82
1651 0 183.657 14.5706 2676 102.448 1182 459.87
1652 1 153.077 14.9925 2295 102.131 1181.44 475.59
1653 0 158.043 15.7868 2495 100.311 1181.78 473.486
1654 0 156.75 14.3668 2252 103.665 1181.94 473.623
1655 0 161.341 15.0365 2426 101.643 1182.8 471.964
1656 0 167.718 15.7467 2641 99.6721 1182.19 470.838
1657 0 170.12 15.1775 2582 101.88 1181.9 464.349
1658 0 175.453 16.0442 2815 99.281 1182.24 462.602
1659 1 72.8943 16.1192 1175 101.82 1181.94 506.321
1660 0 77.1473 16.5657 1278 100.343 1181.84 505.205
1661 0 80.132 16.2981 1306 99.1409 1182.19 504.796
1662 0 81.0488 16.6196 1347 97.9146 1181.96 504.402
1663 0 84.595 16.8095 1422 97.327 1182.35 503.215
1664 0 88.9094 16.455 1463 97.1394 1181.84 500.809
1665 0 90.7748 16.227 1473 96.7882 1182.04 500.366
1666 0 93.6171 14.8904 1394 98.9562 1182.04 500.291
1667 0 97.0985 14.8612 1443 98.0229 1181.63 500.523
1668 0 99.9498 14.2572 1425 100.001 1181.63 494.679
1669 0 103.545 14.6989 1522 97.9041 1180.98 494.099
1670 0 109.992 14.5557 1601 97.1137 1180.98 494.381
1671 0 113.657 14.1215 1605 97.6405 1181.69 490.374
1672 0 116.588 14.4697 1687 97.1731 1182.13 489.423
1673 0 122.571 15.0443 1844 94.9322 1181.71 485.158
1674 0 127.507 14.0227 1788 96.4318 1181.2 481.645
1675 0 129.602 12.7159 1648 98.9666 1181.74 483.988
1676 1 72.3107 12.2527 886 109.137 1181.61 502.274
1677 0 70.8725 12.6847 899 109.138 1181.18 503.165
1678 0 72.2614 11.7213 847 111.438 1181.12 499.702
1679 0 75.2551 13.0091 979 107.092 1181.31 502.313
1680 1 36.0677 7.04231 254 94.4606 1182.32 521.736
1681 0 38.0733 5.0429 192 93.901 1182.32 523.167
1682 0 40.2344 8.3262 335 90.4149 1182.17 522.633
1683 0 37.1216 6.59992 245 90.2204 1182.61 526.771
1684 0 42.0304 9.18382 386 88.3756 1182.89 520.28
1685 0 42.0577 10.7471 452 86.6394 1182.45 520.082
1686 0 39.1284 8.35711 327 88.0275 1182.39 524.19
1687 0 42.1998 11.1138 469 84.9126 1182.63 521.514
1688 0 37.1376 7.78188 289 89.9585 1182.6 523.408
1689 0 37.0716 7.20228 267 85.764 1182.26 527.052
1690 0 41.1178 7.19884 296 88.3547 1181.86 525.044
1691 0 40.065 7.86222 315 90.1238 1182.86 520.854
1692 0 41.0786 5.57468 229 89.4542 1182.55 524.913
1693 1 77.0476 11.2398 866 105.503 1180.43 496.938
1694 0 68.2309 7.53324 514 119.665 1178.91 489.482
1695 0 76.314 11.7148 894 103.519 1179.83 496.982
1696 0 73.2297 10.0233 734 107.379 1179.37 494.448
1697 0 75.347 10.2194 770 107.012 1180.35 495.269
1698 0 74.0856 11.1763 828 104.819 1180.49 496.4
1699 1 36.0257 3.35872 121 87.7934 1182.11 526.083
1700 0 40.093 8.05627 323 84.9226 1182.69 521.384
1701 0 39.1634 6.46011 253 85.2727 1182.7 523.624
1702 0 35.0672 9.58161 336 83.5089 1182.01 521.97
1703 0 31.0111 6.06235 188 87.4894 1182.6 522.505
1704 0 35.0229 8.82279 309 83.7702 1182.67 523.773
1705 0 38.0584 11.8502 451 79.5942 1181.93 522.164
1706 0 36.0364 8.57466 309 84.5437 1182.48 522.667
1707 0 40.1588 11.7533 472 80.1292 1182.99 522.03
1708 0 40.1354 12.6572 508 79.8012 1182.45 518.661
1709 0 40.0227 10.8688 435 82.8 1182.72 519.382
1710 0 41.1389 12.2269 503 80.9066 1182.78 519.163
1711 0 43.0888 13.5766 585 79.2718 1182.44 517.98
1712 0 42.1349 11.9141 502 81.9343 1181.94 517.402
1713 0 44.1248 11.5128 508 82.6673 1182.02 513.282
1714 0 45.1872 11.1315 503 83.1153 1182.45 513.761
1715 0 48.0773 12.1263 583 81.3636 1181.91 511.837
1716 0 49.2207 10.1177 498 84.4096 1182.86 514.699
1717 0 50.0407 9.49228 475 85.5179 1183.38 511.434
1718 1 113.649 7.0216 798 86.3196 1182.82 493.347
1719 0 122.069 7.64324 933 84.1458 1182.38 497.56
1720 1 59.893 12.155 728 82.8104 1183.31 507.551
1721 0 59.6747 13.0876 781 81.9283 1183.53 507.487
1722 0 61.5093 11.3479 698 83.5989 1183.85 504.646
1723 0 66.2665 13.823 916 79.4934 1183.43 504.142
1724 0 68.2689 11.8063 806 82.9318 1183.22 503.138
1725 0 68.492 11.3882 780 84.7692 1182.92 501.573
1726 0 72.4537 12.9462 938 81.5096 1182.51 499.652
1727 0 75.3317 13.0622 984 81.1463 1183.18 498.616
1728 0 77.5806 13.1347 1019 80.4966 1183.02 497.765
1729 0 81.3108 13.1717 1071 80.2446 1183.08 496.683
1730 1 36.144 10.0708 364 81.5192 1183.02 519.415
1731 0 38.0532 9.69694 369 81.2412 1182.4 519.992
1732 0 39.129 9.09811 356 81.8624 1182.49 518.874
1733 0 42.0998 11.6628 491 78.1976 1182.68 517.855
1734 0 49.1234 13.2116 649 73.0647 1182.88 520.453
1735 0 49.1085 13.2971 653 73.8315 1182.94 518.041
1736 0 49.0587 12.1079 594 75.2138 1183.04 518.263
1737 0 52.136 11.7193 611 75.1293 1182.84 516.72
1738 0 56.1957 14.058 790 71.1671 1182.4 516.114
1739 0 57.2017 13.6709 782 71.5754 1182.4 515.669
1740 0 56.205 14.4471 812 71.8596 1182.41 512.754
1741 0 59.2972 13.1035 777 72.6963 1182.75 512.974
1742 0 61.2759 12.0439 738 73.4377 1182.6 511.576
1743 0 62.086 13.7068 851 71.2139 1182.58 510.324
1744 0 64.2179 13.5632 871 71.4799 1181.86 509.357
1745 0 69.2327 14.7618 1022 69.0822 1182.31 508.778
1746 0 69.135 13.423 928 70.9192 1183.5 508.339
1747 0 71.2655 11.6466 830 72.6301 1182.73 508.722
1748 0 75.3236 12.9309 974 70.5 1182.04 504.897
1749 0 79.3546 15.059 1195 67.2586 1182.31 505.545
1750 0 78.0635 13.5915 1061 69.3073 1182.53 505.949
1751 0 82.3695 14.6778 1209 67.8925 1182.3 502.905
1752 0 85.0942 13.5379 1152 67.0087 1182.96 507.473
1753 1 41.047 12.0594 495 68.6061 1183.62 523.455
1754 0 41.0431 12.1336 498 69.7189 1182.58 521.07
1755 0 40.1853 11.9696 481 70.4761 1182.86 521.692
1756 0 44.0282 12.5374 552 68.2246 1182.89 522.605
1757 0 47.0677 13.3212 627 68.2568 1182.85 519.344
1758 0 48.1102 12.7208 612 68.531 1182.8 520.833
1759 0 48.0803 12.188 586 69.8328 1182.59 519.461
1760 0 52.1324 14.7509 769 66.1443 1182.93 517.865
1761 0 52.0787 14.7085 766 66.9034 1182.85 517.47
1762 0 50.1475 13.4403 674 69.5935 1182.18 516.024
1763 0 53.041 13.0465 692 68.9899 1182.76 516.743
1764 0 56.1033 13.083 734 69.827 1183.1 515.35
1765 0 58.1206 14.2635 829 68.6176 1182.24 514.258
1766 0 58.1255 13.1612 765 70.6601 1183.17 513.648
1767 0 62.1633 13.8024 858 69.2075 1183.68 512.994
1768 0 62.1633 13.7702 856 145.873 1184.68 513.006
1769 0 64.1113 12.5875 807 71.9232 1183.63 510.363
1770 0 67.0744 14.2677 957 69.7847 1183.36 509.655
1771 0 69.0383 12.8769 889 72.3656 1183.43 506.758
1772 0 71.0939 12.7015 903 72.2879 1183.29 507.089
1773 0 74.0872 13.6596 1012 70.9279 1183.37 506.515
1774 0 76.19 11.8519 903 72.1938 1182.91 507.326
1775 0 78.0954 13.0866 1022 71.4168 1182.97 504.741
1776 0 80.0855 13.2983 1065 71.2423 1182.85 504.93
1777 1 44.0727 10.5281 464 70.153 1183.03 522.797
1778 0 45.1074 10.9738 495 70.2182 1182.91 522.558
1779 0 45.0952 10.4002 469 71.081 1183.2 521.919
1780 0 47.0278 11.2061 527 70.7628 1183.26 518.677
1781 0 48.0439 12.0515 579 69.551 1183 519.223
1782 0 50.0913 12.8366 643 69.1695 1183.35 516.67
1783 0 51.0818 11.7459 600 70.37 1183.61 516.137
1784 0 54.0454 9.86209 533 72.9137 1183.26 514.392
1785 0 55.0498 12.9701 714 69.3599 1183.61 514.462
1786 0 59.0651 13.5782 802 67.7519 1182.94 515.231
1787 0 60.0483 11.7072 703 69.8592 1182.86 515.323
1788 0 64.0787 10.6432 682 72.5586 1182.93 510.365
1789 0 66.1644 11.2598 745 71.6148 1181.91 511.485
1790 0 66.117 13.0677 864 69.6343 1182.65 510.875
1791 0 68.1514 13.1765 898 70.4532 1182.86 508.808
1792 0 70.0479 12.8055 897 71.4493 1183.26 506.488
1793 0 73.1559 12.7399 932 71.3466 1183.11 506.955
1794 0 75.0465 10.8733 816 73.6618 1182.61 503.837
1795 0 78.0828 12.7045 992 71.6895 1183.43 503.855
1796 0 80.128 12.3677 991 72.1423 1183.32 503.696
1797 0 81.1352 10.8338 879 75.339 1182.3 501.474
1798 0 85.1295 11.042 940 74.0383 1182.49 501.071
1799 1 48.1141 10.2673 494 72.4818 1182.79 519.862
1800 0 48.0479 11.5302 554 71.8231 1182.76 517.834
1801 0 52.0445 11.7784 613 71.0914 1183.21 518.038
1802 0 52.156 10.3344 539 72.7607 1183.41 517.176
1803 0 53.0708 11.0984 589 72.927 1183.12 514.655
1804 0 55.188 11.8323 653 71.1884 1182.86 516.265
1805 0 57.0444 11.2895 644 71.3602 1182.41 515.157
1806 0 59.0246 11.6562 688 70.6454 1182.22 513.807
1807 0 61.0971 11.6863 714 70.5294 1182.13 512.284
1808 0 62.1442 11.4411 711 70.775 1183.09 513.232
1809 0 66.1451 12.3063 814 69.5123 1183.7 511.269
1810 0 67.1152 11.9943 805 70.1975 1183.22 508.717
1811 0 70.2423 12.642 888 68.759 1183.21 509.092
1812 0 72.1112 11.9676 863 69.7578 1182.63 509.149
1813 0 72.21 11.0649 799 71.2103 1182.2 507.512
1814 0 76.1627 11.8431 902 69.9457 1182.11 505.949
1815 1 37.0931 9.03133 335 68.3642 1183.07 526.603
1816 0 39.0305 9.65911 377 67.687 1183.36 524.379
1817 0 39.0569 9.755 381 68.168 1183.33 522.617
1818 0 42.0847 11.3105 476 66.2269 1183.54 520.206
1819 0 43.1836 9.12383 394 67.1066 1183.71 524.437
1820 0 45.0298 11.2592 507 65.6588 1183.47 519.882
1821 0 46.0465 10.5545 486 66.286 1182.54 518.768
1822 0 48.077 12.6048 606 62.8383 1183.02 518.924
1823 0 48.1077 10.1647 489 66.3456 1183.3 518.519
1824 0 51.2291 10.5214 539 65.5084 1182.79 516.831
1825 0 48.1952 9.06729 437 68.9954 1183.26 514.325
1826 0 55.152 10.6252 586 65.0324 1182.75 514.063
1827 0 56.0951 12.4966 701 62.6662 1182.79 513.078
1828 0 56.1478 12.3602 694 62.696 1183.33 511.738
1829 0 59.1704 11.5598 684 63.4825 1183.15 513.117
1830 0 60.2068 9.8826 595 65.2555 1182.73 513.924
1831 0 60.2068 9.78295 589 132.109 1181.77 513.946
1832 0 65.1178 11.4254 744 63.3763 1182.44 507.245
1833 0 70.1258 11.8216 829 62.2123 1182.33 510.913
1834 0 71.0964 11.9275 848 62.717 1182.04 505.829
1835 0 72.2953 11.121 804 64.0137 1182.04 506.118
1836 0 74.2308 11.4508 850 64.4188 1181.88 503.113
1837 0 78.2102 13.1057 1025 61.1268 1181.8 506.381
1838 1 40.0244 10.8933 436 61.7546 1182.93 523.576
1839 0 41.0223 9.9458 408 63.5368 1182.85 522.77
1840 0 43.0497 11.8235 509 60.4951 1182.72 521.658
1841 0 46.0236 11.7549 541 60.2588 1182.43 519.967
1842 0 45.0561 11.2304 506 61.5 1183.15 520.128
1843 0 49.0685 11.596 569 60.0931 1183.07 519.661
1844 0 50.0429 12.1496 608 60.2007 1182.15 516.768
1845 0 51.1579 10.0669 515 62.0932 1182.17 518.546
1846 0 52.1937 11.055 577 61.5962 1181.25 514.861
1847 0 54.127 10.4569 566 62.1466 1181.46 513.428
1848 0 55.1872 10.0929 557 62.088 1181.96 513.711
1849 0 56.0792 10.5922 594 61.4983 1182.25 514.513
1850 0 59.2816 10.3405 613 61.9282 1182.29 511.631
1851 0 61.1277 9.22659 564 62.477 1182.14 512.539
1852 0 63.1454 11.3231 715 60.414 1181.76 507.38
1853 0 68.1726 12.1456 828 58.6232 1181.75 508.064
1854 0 68.2531 10.7541 734 60.4728 1182.4 506.696
1855 0 73.2329 11.1016 813 59.5818 1182.88 504.282
1856 0 74.0975 12.8614 953 57.382 1182.39 504.545
1857 0 77.0922 10.7404 828 60 1182.65 503.344
1858 0 79.2231 11.7642 932 58.6899 1182.46 501.662
1859 0 83.2662 10.4965 874 60.111 1182.08 498.541
1860 0 83.18 11.9861 997 59.4895 1181.82 495.705
1861 1 44.0744 10.9134 481 58.5696 1183.27 518.008
1862 0 46.0671 8.92177 411 60.9805 1183 517.054
1863 0 49.0431 11.8467 581 57.3993 1182.83 519.914
1864 0 51.1207 10.1524 519 60.0713 1182.64 517.073
1865 0 52.1479 12.6755 661 57.935 1182.53 513.354
1866 0 51.0612 10.693 546 60.4377 1183.02 515.073
1867 0 55.1261 12.2628 676 58.5562 1181.79 512.157
1868 0 56.1429 11.4707 644 59.7189 1182.82 511.699
1869 0 57.143 10.5 600 60.66 1182.91 512.122
1870 0 61.2419 12.1159 742 58.1658 1181.97 511.98
1871 0 63.1981 10.8073 683 60.0586 1182 509.731
1872 0 64.2148 11.8508 761 59.0828 1182.06 509.947
1873 0 65.1709 11.3855 742 60.155 1182.24 509.234
1874 0 68.1173 12.3023 838 58.6587 1182.43 507.149
1875 0 71.1763 12.6025 897 58.068 1181.91 505.244
1876 0 69.0851 11.5654 799 59.8723 1182.5 504.981
1877 0 71.1553 10.0766 717 61.7434 1182.76 501.602
1878 0 77.1394 11.9913 925 58.7989 1182.33 502.756
1879 0 77.1343 11.8495 914 60.0438 1181.65 500.833
1880 0 80.1696 12.511 1003 59.1555 1182.21 498.496
1881 0 83.2245 13.6618 1137 57.7291 1182.69 499.363
1882 1 42.026 9.39894 395 61.0684 1183.93 520.344
1883 0 45.0949 12.9726 585 58.1197 1183.84 518.405
1884 0 44.0445 11.0343 486 61.1914 1184.12 516.761
1885 0 46.0773 11.5675 533 60.5891 1183.66 517.572
1886 0 48.0624 11.0065 529 61.0662 1182.96 516.919
1887 0 50.0598 11.2066 561 60.8485 1182.57 517.346
1888 0 50.1226 11.0529 554 61.6895 1182.82 515.069
1889 0 52.0596 11.2755 587 61.4106 1182.46 515.865
1890 0 52.2667 11.537 603 61.9154 1181.84 512.018
1891 0 55.1235 11.3926 628 61.0812 1182.63 513.785
1892 0 57.2574 11.981 686 60.4096 1183.13 513.571
1893 0 61.1126 10.8488 663 61.7677 1181.62 510.519
1894 0 60.1366 12.0226 723 61.8824 1182.15 509.595
1895 0 64.2376 11.8466 761 61.8108 1182.44 508.242
1896 0 66.2177 13.3952 887 59.5637 1182.17 507.55
1897 0 66.1493 12.3962 820 61.3695 1182.19 504.754
1898 0 66.1435 12.4426 823 61.8676 1182.97 503.683
1899 0 72.1404 13.5014 974 59.6212 1182.8 504.852
1900 0 73.2324 13.8873 1017 59.5074 1182.8 503.467
1901 0 74.2818 12.8699 956 60.9038 1182.34 502.007
1902 0 78.1613 12.8836 1007 60.7279 1182.64 501.988
1903 0 80.0457 13.0675 1046 60.7686 1182.46 500.13
1904 0 83.1008 13.1768 1095 60.2977 1182.32 499.768
1905 0 88.1414 13.6712 1205 58.8722 1182.04 500.402
1906 1 46.0797 11.9141 549 60.0856 1182.13 517.587
1907 0 45.0286 11.1263 501 60.8363 1182.96 518.363
1908 0 49.0983 12.5666 617 59.9968 1182.38 516.344
1909 0 47.0672 10.5806 498 62.9538 1182.51 515.442
1910 0 50.0506 13.0867 655 60.7023 1183.19 514.273
1911 0 50.076 12.2015 611 61.6138 1183.11 512.907
1912 0 54.1346 13.1155 710 59.2606 1182.8 514.427
1913 0 55.0854 13.6515 752 59.7487 1182.69 511.561
1914 0 55.0894 10.8914 600 62.5133 1182.39 513.808
1915 0 58.1616 11.9151 693 61.4228 1182.42 511.468
1916 0 60.1631 12.1669 732 61.1257 1183.08 509.934
1917 0 62.0791 12.7418 791 59.9671 1182.96 508.976
1918 0 64.1301 13.0204 835 59.521 1182.24 509.444
1919 0 66.1426 12.3975 820 59.9329 1182.53 508.873
1920 0 66.1483 11.8824 786 61.1489 1183.29 506.235
1921 0 69.0946 11.7665 813 60.7405 1183.13 507.796
1922 0 72.1309 13.2537 956 58.818 1182.65 504.22
1923 0 73.1044 11.2442 822 61.5742 1182.87 505.17
1924 0 76.0525 13.4249 1021 59.1244 1183.32 501.857
1925 0 77.1633 12.7781 986 60.3296 1182.97 500.032
1926 0 79.1084 12.426 983 61.2045 1182.68 498.785
1927 1 42.0179 10.4479 439 60.4533 1183.77 520.326
1928 0 41.023 11.7739 483 60.47 1184.1 519.23
1929 0 43.0307 12.921 556 58.9892 1183.6 519.255
1930 0 44.0188 11.3134 498 61.9839 1183.22 517.46
1931 0 44.0265 11.2432 495 61.699 1183.36 519.646
1932 0 47.0548 13.4949 635 58.9307 1183.29 519.189
1933 0 45.1296 12.2758 554 62.139 1182.78 517.289
1934 0 47.0513 9.52151 448 65.5268 1183.01 516.835
1935 0 51.0368 13.4609 687 60.69 1182.25 515.865
1936 0 51.0657 12.9833 663 61.8884 1182.66 515.357
1937 0 53.1609 12.3023 654 62.8089 1181.38 514.026
1938 0 57.1144 13.6218 778 60.6504 1180.87 515.528
1939 0 55.1009 12.4317 685 63.3445 1181.63 515.219
1940 0 59.1272 13.4625 796 61.7764 1181.29 512.613
1941 0 62.0686 13.8879 862 61.5441 1180.95 512.449
1942 0 62.0862 13.2397 822 62.5341 1181.18 513.248
1943 0 65.2286 12.4638 813 63.711 1181.3 512.364
1944 0 67.0932 12.6838 851 63.9542 1181.33 510.937
1945 0 71.0794 13.6748 972 62.5082 1181.43 509.288
1946 0 71.178 14.1055 1004 62.5269 1180.89 508.416
1947 0 74.0743 13.176 976 63.7654 1180.34 509.012
1948 0 76.2482 11.856 904 65.6648 1180.12 505.396
1949 0 79.1074 12.6537 1001 64.6543 1179.62 505.055
1950 0 79.1165 12.2098 966 65.882 1180.34 502.407
1951 1 43.0537 11.265 485 65.2722 1180.22 521.014
1952 0 44.0215 11.4717 505 65.5941 1180.25 519.978
1953 0 45.1474 10.5654 477 66.2642 1179.57 520.671
1954 0 47.0151 12.4003 583 64.2076 1179.56 519.274
1955 0 47.1159 11.164 526 65.8669 1180.17 520.741
1956 0 49.135 12.2113 600 64.8283 1179.62 516.512
1957 0 50.0268 12.2934 615 64.5268 1180.16 516.878
1958 0 53.0851 12.2068 648 64.4691 1180.28 515.063
1959 0 52.0707 11.3691 592 65.7872 1180.7 514.407
1960 0 56.1015 12.21 685 64.0102 1181 514.326
1961 0 58.0576 12.4704 724 62.8025 1181.05 514.906
1962 0 59.0577 13.7323 811 61.2454 1180.64 514.286
1963 0 61.1072 11.0462 675 63.9541 1180.89 512.052
1964 0 63.059 12.9403 816 62.527 1180.97 509.001
1965 0 63.1192 11.7397 741 63.8016 1181.32 508.406
1966 0 69.074 12.682 876 61.9281 1181.26 507.284
1967 0 69.0663 12.4228 858 62.6748 1181.82 506.787
1968 1 35.0117 11.3105 396 61.0985 1182.72 523.093
1969 0 36.0258 10.5758 381 62.231 1181.77 521.556
1970 0 38.0362 9.93789 378 62.4788 1182.19 522.288
1971 0 39.0598 11.2648 440 60.1841 1182.8 521.2
1972 0 40.0132 11.5212 461 60.6486 1182.51 521.482
1973 0 41.069 11.3468 466 60.4742 1181.92 519.524
1974 0 43.0307 11.6196 500 60.662 1182.88 517.71
1975 0 43.0685 11.354 489 61.1902 1183.03 518.202
1976 0 43.094 10.2567 442 62.7624 1182.04 516.129
1977 0 45.0795 12.1119 546 60.4267 1182.05 517.69
1978 0 46.0499 10.9881 506 61.6344 1182.11 516.792
1979 0 48.0301 11.2221 539 61.974 1182.19 514.865
1980 0 52.1042 12.3215 642 60.1246 1182.57 515.52
1981 0 51.074 11.8456 605 61.2314 1182.17 514.345
1982 0 53.0252 12.4469 660 60.6985 1182.4 512.544
1983 0 55.0462 12.3169 678 60.6667 1181.99 510.945
1984 0 58.1181 12.0789 702 60.8091 1181.76 511.328
1985 0 58.1064 10.7561 625 62.616 1182.6 509.45
1986 0 61.1484 12.0854 739 60.521 1182.62 507.754
1987 0 63.115 11.075 699 61.329 1182.46 509.216
1988 0 64.1015 10.9358 701 61.2739 1183.67 509.322
1989 0 66.1439 13.7125 907 58.366 1183.18 503.184
1990 0 69.1623 8.92104 617 63.2869 1183.23 504.736
1991 0 71.0893 10.9862 781 61.2945 1183.21 502.579
1992 0 69.0893 10.016 692 63.0318 1183.23 503.698
1993 1 40.0607 11.233 450 59.3556 1183.08 519.196
1994 0 41.0986 10.9006 448 59.0022 1182.54 518.31
1995 0 44.0471 10.9428 482 59.168 1183.05 517.544
1996 0 44.0364 12.149 535 58.3271 1183.08 514.798
1997 0 46.1257 10.5798 488 60.043 1183.61 515.555
1998 0 45.1486 9.59055 433 61.6559 1183.51 515.217
1999 0 49.1206 11.828 581 58.6145 1183.06 515.105
2000 0 51.2224 10.9913 563 59.4867 1182.62 514.178
2001 0 52.1668 10.7731 562 60.3897 1182.62 512.146
2002 0 55.1577 11.7119 646 58.9087 1183 512.105
2003 0 56.1497 11.879 667 58.4723 1183.02 511.906
2004 0 58.1584 11.3655 661 58.7337 1182.76 512.623
2005 0 56.1883 8.45372 475 63.16 1183.36 509.171
2006 0 58.2539 9.85342 574 61.8188 1183.14 505.559
2007 0 63.2857 10.0971 639 60.3083 1182.06 507.434
2008 0 64.1349 11.008 706 59.4079 1181.87 505.217
2009 0 66.2012 11.1932 741 59.081 1182.8 504.958
2010 0 69.1454 13.5367 936 56.1442 1181.88 505.476
2011 1 36.2535 9.70941 352 58.8722 1182.48 521.866
2012 0 35.044 10.2728 360 58.7556 1182.79 521.956
2013 0 38.0488 10.3551 394 58.467 1183 518.878
2014 0 39.0483 10.3462 404 58.1262 1182.07 519.468
2015 0 40.0873 12.348 495 56.0929 1182.5 516.846
2016 0 42.2222 11.7947 498 56.3534 1182.69 517.438
2017 0 40.0204 10.7445 430 58.486 1181.9 518.112
2018 0 43.1027 11.9482 515 56.4427 1182.19 516.353
2019 0 43.0951 11.4862 495 57.8182 1182.29 515.741
2020 0 47.0944 12.3369 581 55.7384 1182.27 515.003
2021 0 45.0965 10.7547 485 58.9505 1181.83 513.672
2022 0 49.1447 10.9473 538 58.1822 1181.6 511.156
2023 0 49.1437 10.7033 526 58.8954 1182.45 513.51
2024 0 51.2003 10.6445 545 58.5523 1182.5 514.061
2025 0 55.2186 12.206 674 56.8843 1182.48 513.415
2026 0 54.157 11.8914 644 57.6755 1182.13 510.582
2027 0 58.3338 12.617 736 56.4198 1181.63 510.963
2028 0 58.1643 10.4875 610 59.7967 1181.56 511.589
2029 0 60.2124 10.8616 654 59.2018 1181.48 509.622
2030 0 61.2774 12.37 758 56.6332 1181.66 506.726
2031 0 64.1622 13.4035 860 56.593 1182.13 507.284
2032 0 63.0799 11.3665 717 59.6555 1181.63 505.262
2033 0 69.2747 12.1545 842 57.5629 1181.69 506.195
2034 0 69.2101 11.8624 821 58.6748 1181.51 504.166
2035 0 72.25 10.782 779 59.1643 1181.74 505.398
2036 0 72.1505 11.4899 829 58.9132 1181.13 502.018
2037 1 39.0621 11.3921 445 57.2472 1181.82 522.389
2038 0 39.1463 11.8019 462 57.8117 1182.17 521.242
2039 0 42.0368 11.6327 489 57.8671 1182.31 518.589
2040 0 43.1558 10.1956 440 59.8455 1182.54 518.786
2041 0 43.1957 9.05182 391 61.4962 1181.61 474.161
2042 0 46.1305 9.84164 454 60.6608 1180.95 470.93
2043 1 30.0208 5.26302 158 64.4684 1181.97 507.177
2044 1 47.0818 11.342 534 58.7247 1181.99 516.83
2045 0 49.0477 10.6019 520 59.8269 1181.75 516.435
2046 0 49.0628 10.6802 524 60.1412 1182.83 515.817
2047 0 52.1318 10.5885 552 59.6214 1183.16 515.067
2048 0 52.0308 12.1274 631 58.7147 1182.92 512.146
2049 0 54.204 12.5452 680 58.1721 1182.28 511.557
2050 0 57.0245 11.6441 664 58.5964 1182.1 509.461
2051 0 58.2116 11.7502 684 58.2924 1182.52 511.323
2052 0 61.0935 12.5054 764 57.7278 1181.39 510.67
2053 0 62.1547 12.0345 748 58.2727 1181.18 507.969
2054 0 66.1044 12.7223 841 57.264 1181.56 508.782
2055 0 65.1498 13.6608 890 56.9292 1181.64 506.971
2056 0 70.118 13.1493 922 56.6724 1181.69 506.639
2057 0 68.1236 10.7011 729 60.1632 1182.17 502.534
2058 0 73.2448 11.3455 831 59.1276 1182.03 503.628
2059 1 38.0886 9.32039 355 58.2197 1181.82 524.484
2060 0 37.049 10.4996 389 59.2519 1181.76 524.35
2061 0 38.0876 10.8697 414 59.7295 1181.83 522.077
2062 0 40.0282 12.6161 505 58.3465 1181.58 519.933
2063 0 40.0797 11.4023 457 59.2866 1181.81 520.648
2064 0 41.0943 10.5854 435 60.9287 1182.29 518.694
2065 0 44.1108 13.1714 581 57.4458 1182.1 519.203
2066 0 44.0331 11.0826 488 60.3443 1181.02 518.039
2067 0 45.0891 11.7545 530 59.5528 1181.93 515.866
2068 0 44.0273 9.17612 404 63.7203 1182.02 515.173
2069 0 47.0692 9.7516 459 62.7625 1181.84 515.776
2070 0 50.0677 11.4245 572 60.5052 1182.14 512.806
2071 0 50.1729 10.8026 542 61.5129 1182.01 513.919
2072 0 53.0259 12.7673 677 59.2674 1181.99 511.471
2073 0 53.06 12.2126 648 60.7361 1180.95 510.458
2074 0 56.1072 11.4958 645 61.0713 1180.97 512.905
2075 0 56.0336 11.0648 620 61.7064 1180.51 512.613
2076 0 59.0608 11.9876 708 60.5254 1180.8 509.524
2077 0 61.0344 13.1729 804 58.7886 1180.56 509.374
2078 0 63.1099 12.5495 792 59.904 1181.11 507.374
2079 0 64.0876 10.158 651 62.7849 1180.44 507.573
2080 0 67.0628 12.5256 840 59.6667 1180.23 506.223
2081 0 67.0512 10.753 721 62.1872 1179.73 503.773
2082 0 72.0436 11.5347 831 60.8496 1180.12 504.49
2083 0 74.1084 11.915 883 60.812 1180.22 502.019
2084 0 80.581 11.6281 937 33.6051 1178.23 485.899
2085 1 41.0226 10.0432 412 61.3714 1179.92 518.67
2086 0 41.1026 10.486 431 61.4269 1179.71 518.176
2087 0 44.0436 11.8292 521 59.6315 1180.28 518.209
2088 0 42.0431 11.7023 492 61.1321 1180.8 514.618
2089 0 45.0615 10.5633 476 61.6282 1181.24 515.643
2090 0 45.0813 11.2907 509 61.2279 1180.58 517.853
2091 0 49.1307 11.6831 574 60.3397 1180.43 516.963
2092 0 47.0832 11.5753 545 61.4092 1180.32 516.02
2093 0 50.149 12.3432 619 60.3845 1180.16 514.338
2094 0 53.0821 12.5278 665 59.8346 1180.48 515.34
2095 0 55.0947 12.3242 679 59.754 1180.35 514.604
2096 0 55.0863 13.8691 764 58.4804 1180.33 512.66
2097 0 58.1186 12.5261 728 59.7129 1179.8 513.449
2098 0 57.145 12.0046 686 61.5598 1180.86 512.004
2099 0 59.1216 11.045 653 62.5574 1180.43 510.04
2100 0 62.1079 12.1885 757 61.0964 1180.66 509.112
2101 0 66.2205 13.3191 882 59.127 1181.08 508.844
2102 0 67.2339 12.5383 843 60.1139 1180.66 506.16
2103 0 70.0656 12.5168 877 59.3546 1180.71 508.154
2104 0 70.1083 11.0971 778 62.5463 1180.56 502.641
2105 0 73.2224 11.8679 869 60.7273 1180.91 503.134
2106 0 78.1469 12.4509 973 59.9794 1180.97 499.426
2107 1 38.1171 10.6514 406 60.9015 1180.73 518.825
2108 0 39.0642 10.4444 408 61.2696 1180.23 519.738
2109 0 43.0142 11.81 508 59.0374 1181.2 519.163
2110 0 44.0516 11.5773 510 60.1314 1180.32 517.647
2111 0 46.0771 14.5191 669 55.7728 1179.93 518.489
2112 0 46.0838 10.2422 472 62.1674 1179.9 516.642
2113 0 47.0572 10.5829 498 61.6687 1180.28 516.165
2114 0 50.0769 12.8402 643 58.4572 1180.54 515.907
2115 0 52.0249 13.9548 726 57.3127 1181.53 513.094
2116 0 52.116 12.2803 640 59.5469 1180.3 513.853
2117 0 55.0723 11.9116 656 60.0412 1180.53 513.622
2118 0 55.144 12.7847 705 59.2738 1181.14 510.142
2119 0 56.0417 10.9918 616 62 1181.23 510.468
2120 0 60.1039 12.4784 750 59.0213 1181.23 512.216
2121 0 62.0566 13.0204 808 58.802 1181.04 508.066
2122 0 65.0541 12.6971 826 59.2094 1181.32 509.714
2123 0 64.0766 11.4862 736 61.5136 1181.02 507.601
2124 0 69.1202 11.1545 771 60.5422 1180.42 510.586
2125 0 72.2204 13.4865 974 58.5318 1181.08 505.785
2126 0 73.1737 12.4225 909 59.8977 1180.91 506.608
2127 0 75.1332 14.095 1059 58.1964 1181.07 502.107
2128 0 77.2248 12.5348 968 59.8595 1181.98 504.522
2129 0 81.1048 12.0215 975 60.481 1181.83 502.334
2130 0 82.1076 11.1683 917 61.6619 1181.78 501.395
2131 0 85.0676 13.8713 1180 58.4585 1180.91 499.175
2132 1 44.0829 12.2723 541 59.5638 1180.87 519.477
2133 0 41.0527 10.109 415 63.547 1182.09 518.108
2134 0 47.0563 11.9856 564 59.8989 1181.96 517.566
2135 0 45.153 11.8707 536 60.4198 1181.3 518.056
2136 0 49.0737 12.7156 624 59.2115 1182.18 518.093
2137 0 50.0966 9.54157 478 63.0188 1182.38 517.232
2138 0 52.1846 10.8078 564 61.2287 1182.42 515.215
2139 0 52.1619 12.8255 669 59.4873 1181.55 514.272
2140 0 53.1034 11.2046 595 60.9445 1181.81 514.971
2141 0 57.2199 11.5519 661 59.7156 1182.17 515.186
2142 0 58.2483 12.8072 746 59.0348 1181.66 510.905
2143 0 61.0625 11.9877 732 59.7186 1182.05 512.489
2144 0 62.1845 11.8197 735 60.2639 1181.49 509.718
2145 0 64.0892 11.4996 737 61.1275 1180.68 508.669
2146 0 65.1986 12.6076 822 59.8771 1181.53 507.524
2147 0 68.1206 13.0357 888 59.3266 1181 505.591
2148 0 69.0977 13.3868 925 59.147 1180.4 505.935
2149 0 74.3063 13.8077 1026 57.9396 1181.49 505.141
2150 0 77.3205 14.7697 1142 57.1173 1181 501.521
2151 1 36.1612 11.0339 399 60.8747 1181.47 522.381
2152 0 36.1612 11.0063 398 137.796 1181.47 522.289
2153 0 39.1281 11.1429 436 60.9197 1180.77 523
2154 0 44.2601 11.2969 500 59.752 1180.65 523.272
2155 0 40.0357 12.0642 483 61.5362 1180.1 519.327
2156 0 44.0642 12.0052 529 60.4461 1180.59 518.962
2157 0 46.1856 13.0777 604 59.1457 1180.48 518.98
2158 0 45.1651 11.6904 528 61.8144 1180.28 516.898
2159 0 48.0759 12.7091 611 60.5156 1181.65 517.926
2160 0 49.1115 12.9705 637 59.8697 1180.4 516.923
2161 0 50.0422 12.0299 602 61.3472 1180.72 515.532
2162 0 52.0488 14.2751 743 58.8641 1181.06 513.31
2163 0 54.1384 13.5394 733 59.5784 1181.16 515.259
2164 0 54.0716 12.2615 663 61.2745 1181.76 511.597
2165 0 59.0648 12.4101 733 59.8745 1181.55 513.184
2166 0 58.1766 11.1385 648 61.4707 1180.49 514.27
2167 0 60.0815 12.9324 777 59.6319 1181.06 511.746
2168 0 63.1906 12.8184 810 59.6037 1180.75 509.005
2169 0 62.1885 11.0953 690 61.471 1181.03 511.214
2170 0 67.0457 12.9762 870 59.0253 1181.52 508.01
2171 0 67.1237 10.5924 711 61.8186 1180.49 508.804
2172 0 69.0831 12.1158 837 59.9869 1180.56 506.043
2173 0 74.0727 12.7577 945 59.2508 1180.96 504.338
2174 0 74.0422 12.5739 931 59.7465 1181.54 502.63
2175 0 77.1076 12.6706 977 59.305 1181.2 504.367
2176 1 40.0378 11.8388 474 58.7996 1181.36 521.171
2177 0 39.0256 10.0959 394 60.5457 1181.2 522.168
2178 0 40.0133 9.52184 381 62.4226 1180.98 519.614
2179 0 42.0413 10.8227 455 61.2374 1180.76 518.396
2180 0 45.1048 11.7504 530 60.0623 1180.88 515.968
2181 0 47.0562 10.9444 515 60.9845 1181.2 517.414
2182 0 47.1013 12.3776 583 58.9074 1181.68 518.139
2183 0 48.1117 11.307 544 61.5368 1181.93 514.958
2184 0 49.0837 12.4685 612 59.9902 1182.04 514.206
2185 0 51.0156 10.6438 543 61.814 1181.55 516.379
2186 0 54.0898 13.1633 712 58.7135 1181.23 515.288
2187 0 51.0555 10.3417 528 63.3333 1180.69 512.481
2188 0 57.0761 12.2468 699 60.3147 1181.48 512.162
2189 0 58.0618 11.0744 643 62.1555 1181.6 509.686
2190 0 60.1235 11.2934 679 62.0339 1180.91 509.554
2191 0 62.1364 11.5713 719 61.7872 1180.98 509.556
2192 0 66.054 12.8077 846 60.6052 1181.18 505.825
2193 0 67.0855 12.0145 806 61.5844 1180.86 507.604
2194 0 68.1506 11.592 790 62.4544 1180.19 506.67
2195 0 72.2474 12.471 901 60.9534 1180.8 505.273
2196 0 74.0846 12.9987 963 60.8048 1180.47 502.043
2197 0 79.1095 12.9946 1028 60.035 1180.57 501.538
2198 0 80.177 12.3103 987 61.3962 1180.83 501.765
2199 0 83.1747 12.2273 1017 61.002 1180.57 502.303
2200 1 43.1107 12.0388 519 60.842 1180.63 521.094
2201 0 45.085 12.2657 553 60.783 1180.2 520.307
2202 0 45.1256 12.4763 563 61.7194 1180.89 517.343
2203 0 48.0469 11.0725 532 62.5376 1181.02 519.141
2204 0 48.0879 10.8343 521 63.1516 1180.84 518.04
2205 0 51.0396 12.2062 623 61.2408 1181.73 516.709
2206 0 52.0565 12.0062 625 61.592 1181.42 516.483
2207 0 54.1142 13.8411 749 59.251 1181.1 515.2
2208 0 52.109 11.8597 618 62.7314 1181.48 514.71
2209 0 58.0679 14.7414 856 57.9311 1181.43 514.439
2210 0 57.1395 13.0558 746 60.2614 1181.69 514.92
2211 0 60.1286 13.6541 821 59.24 1181.42 514.564
2212 0 63.0755 12.3186 777 60.9717 1181.14 511.432
2213 0 64.075 13.0628 837 60.2652 1180.91 511.594
2214 0 66.1399 12.2468 810 61.4827 1181.23 509.207
2215 0 67.1436 11.4531 769 62.4968 1181.52 506.873
2216 0 71.1176 11.5443 821 61.5615 1180.88 507.532
2217 0 72.0835 12.6104 909 60.9483 1180.97 503.829
2218 0 75.1211 12.5531 943 60.334 1180.7 506.445
2219 0 77.2175 12.7821 987 60.5917 1180.74 502.065
2220 1 36.0285 8.68757 313 65.2556 1180.83 519.562
2221 0 42.1109 10.5436 444 62.0968 1180.91 519.041
2222 0 42.0172 10.4243 438 63.4064 1181.41 520.644
2223 0 43.032 10.6897 460 63.4065 1181.12 519.02
2224 0 44.0852 11.7727 519 61.9075 1180.98 516.94
2225 0 47.1252 11.9257 562 61.532 1180.83 515.66
2226 0 48.1 12.7859 615 60.5594 1180.75 516.42
2227 0 49.1071 11.8313 581 62.1222 1180.54 515.928
2228 0 50.1209 9.47709 475 64.3032 1180.91 515.261
2229 0 53.1131 11.7485 624 61.6651 1180.81 511.405
2230 0 54.0856 11.8516 641 61.8331 1180.92 511.02
2231 0 54.0581 9.36031 506 64.7075 1180.95 509.789
2232 0 59.0526 11.4305 675 62.1348 1181.37 509.806
2233 0 59.0707 10.3435 611 63.437 1181.37 510.489
2234 0 60.0268 12.3945 744 61.7513 1180.69 506.874
2235 0 58.1151 9.85975 573 65.0576 1181.1 507.382
2236 0 63.1137 9.93445 627 64.5439 1181.48 503.196
2237 0 65.0972 8.89439 579 65.5199 1180.98 499.748
2238 0 68.1398 11.7699 802 63.0973 1180.69 503.294
2239 0 71.0406 9.75499 693 64.9466 1181.41 501.646
2240 0 70.07 9.96147 698 65.2221 1180.71 501.517
2241 0 77.1329 11.6033 895 63.0469 1180.49 499.908
2242 0 79.1917 9.90002 784 65.0995 1181.51 496.495
2243 1 34.1726 8.77896 300 67.7067 1181.79 518.647
2244 0 35.1525 8.84716 311 68.1801 1181.48 517.778
2245 0 41.0673 11.9073 489 64.0368 1181.64 518.738
2246 0 49.0434 13.641 669 59.5067 1181.57 520.472
2247 0 49.0733 14.5904 716 59.3324 1181.3 518.987
2248 0 51.0575 13.5142 690 60.6855 1181.35 516.996
2249 0 52.0847 11.6157 605 62.5372 1181.24 518.296
2250 0 55.0461 13.8974 765 59.9752 1181.43 517.264
2251 0 55.0517 12.8061 705 62.1986 1181.35 514.416
2252 0 56.0282 13.0827 733 61.7203 1181.64 514.879
2253 0 59.0926 12.5058 739 61.4452 1181.21 514.451
2254 0 60.1991 14.0035 843 60.3547 1181.27 512.311
2255 0 63.0877 14.678 926 59.4503 1181.21 511.076
2256 0 63.0935 14.1853 895 59.9084 1181.55 511.365
2257 0 65.1041 14.6381 953 59.5677 1181.54 512.088
2258 0 66.1103 12.1312 802 62.601 1180.79 508.835
2259 0 68.0871 13.8205 941 60.779 1180.69 504.718
2260 0 74.064 14.555 1078 59.0946 1180.64 506.6
2261 0 76.0945 15.5727 1185 58.0084 1181.34 504.766
2262 0 79.0583 14.2174 1124 59.5294 1181.54 501.067
2263 0 81.1998 13.9532 1133 60.1227 1181.09 501.897
2264 0 83.1472 12.6883 1055 61.6028 1181.55 499.722
2265 1 44.0226 12.9933 572 60.4353 1180.72 520.836
2266 0 44.0308 13.218 582 60.5911 1181.23 520.22
2267 0 46.0266 13.2315 609 60.5977 1181.06 520.03
2268 0 48.1117 12.6996 611 60.7807 1180.74 519.718
2269 0 47.071 13.3628 629 60.717 1180.81 518.183
2270 0 49.12 11.0138 541 62.4473 1180.95 519.242
2271 0 51.0605 13.6896 699 60.0858 1180.61 515.748
2272 0 52.1443 12.849 670 61.2985 1180.87 513.71
2273 0 54.228 12.0602 654 62.0642 1180.8 514.353
2274 0 57.1018 13.7649 786 59.7201 1180.73 513.944
2275 0 58.1981 13.3681 778 60.2584 1181.24 512.488
2276 0 62.1068 14.2496 885 58.7107 1180.97 512.618
2277 0 62.09 13.0778 812 61.053 1181.57 508.645
2278 0 65.07 14.3999 937 59.4963 1181.25 507.885
2279 0 67.152 14.4895 973 59.4337 1181.81 506.31
2280 0 69.1164 14.3526 992 60.1583 1181.51 506.61
2281 0 72.446 13.3203 965 61.1907 1181.65 504.031
2282 0 72.1665 12.7622 921 62.6298 1181.02 504.128
2283 0 78.0464 13.8379 1080 61.1222 1181.07 503.632
2284 0 81.0831 13.332 1081 61.234 1181.33 503.124
2285 1 39.0757 11.3114 442 63.7783 1181.78 520.991
2286 0 41.0684 12.5887 517 61.7911 1181.88 520.979
2287 0 43.0656 13.6071 586 61.4249 1181.32 520.126
2288 0 45.048 12.9417 583 62.0892 1181.13 519.017
2289 0 47.0315 11.2478 529 63.913 1181.22 517.541
2290 0 48.0663 13.1485 632 61.5427 1182.12 517.627
2291 0 50.1102 13.8495 694 61.2522 1182.13 515.301
2292 0 52.0199 14.2638 742 60.4636 1181.36 515.691
2293 0 54.1485 13.6661 740 61.2108 1182.14 513.196
2294 0 55.0742 13.3093 733 61.809 1181.84 513.843
2295 0 57.0741 13.2635 757 61.8666 1182.1 512.23
2296 0 57.0334 13.8165 788 61.4683 1181.87 512.237
2297 0 63.0595 14.3832 907 59.8104 1181.54 511.455
2298 0 63.0802 13.8871 876 60.9874 1182.16 510.148
2299 0 65.1183 14.0514 915 61.0262 1182.04 507.11
2300 0 67.0545 14.7641 990 59.298 1182.38 506.538
2301 0 68.1364 13.7959 940 60.5872 1182.34 504.204
2302 0 74.1212 13.9636 1035 59.972 1182.16 503.371
2303 0 75.0766 13.0667 981 61.0632 1182.33 503.949
2304 0 75.1197 12.7397 957 61.8203 1182.15 502.648
2305 0 79.1606 12.4178 983 62.3611 1182.61 500.621
2306 0 82.0844 13.3278 1094 61.8181 1181.93 497.717
2307 1 42.0887 13.5191 569 59.9279 1182.78 519.64
2308 0 44.089 12.0438 531 61.2316 1182.97 519.653
2309 0 45.0519 13.1626 593 60.8735 1182.76 518.705
2310 0 45.0693 9.78493 441 65.2064 1182.56 516.848
2311 0 47.0849 12.0208 566 62.8958 1182.47 513.231
2312 0 50.0828 11.5609 579 63.2522 1182.11 513.28
2313 0 51.0986 12.9553 662 61.8006 1182.56 515.113
2314 0 54.0528 12.7653 690 62.4435 1182.84 512.107
2315 0 56.0489 12.5605 704 61.7642 1182.95 513.678
2316 0 56.0774 12.4471 698 63.1118 1181.44 509.914
2317 0 59.0908 12.0662 713 63.0435 1181.83 509.808
2318 0 60.1584 12.8328 772 62.5466 1181.69 508.392
2319 0 63.2347 12.8411 812 61.9421 1181.86 509.106
2320 0 63.1006 12.5514 792 62.6982 1182.15 508.698
2321 0 65.067 11.4958 748 64.5107 1182.7 502.991
2322 0 67.1326 11.7975 792 64.1578 1181.9 503.724
2323 0 70.1695 12.8831 904 62.7898 1181.34 501.392
2324 0 74.1481 12.4885 926 62.6857 1182.35 502.018
2325 1 36.0541 10.401 375 62.6267 1182.58 521.947
2326 0 39.0173 11.2514 439 62.8132 1182.13 518.353
2327 0 41.11 11.4327 470 63.2574 1182.38 518.292
2328 0 42.0307 11.6106 488 62.6906 1182.1 518.053
2329 0 45.0879 13.1299 592 60.3463 1182.08 518.154
2330 0 46.096 12.5607 579 60.9862 1182.1 517.385
2331 0 45.0233 11.3719 512 63.8223 1182.35 515.783
2332 0 48.125 10.8468 522 63.772 1182.69 515.824
2333 0 50.0441 13.2483 663 60.2655 1182.03 515.228
2334 0 51.0288 11.0526 564 63.8227 1182.79 511.076
2335 0 53.0565 12.4773 662 61.4955 1181.3 512.43
2336 0 53.098 11.507 611 63.2079 1182.08 512.02
2337 0 56.0533 12.7557 715 61.1776 1182.15 511.592
2338 0 59.0126 13.2175 780 60.8218 1182 509.82
2339 0 60.1546 13.4487 809 60.4153 1182.15 510.621
2340 0 62.0763 13.0485 810 60.9099 1183.14 508.359
2341 0 63.0315 11.8036 744 63.0296 1182.32 507.798
2342 0 64.0382 12.2583 785 62.5057 1182.26 507.414
2343 0 67.2415 13.9795 940 60.4745 1182.67 504.607
2344 0 70.0806 13.4559 943 60.7519 1182.25 505.962
2345 0 71.1399 12.7776 909 62.0572 1181.78 501.79
2346 0 72.0395 11.7158 844 63.2168 1181.72 501.758
2347 0 76.1158 13.8342 1053 60.5404 1182.16 500.568
2348 0 79.0787 13.3032 1052 60.98 1182.53 499.359
2349 0 80.0668 11.5029 921 63.5266 1182.26 496.701
2350 1 43.0726 12.4673 537 54.987 1181.6 518.849
2351 0 46.0466 11.2929 520 55.3404 1181.9 517.627
2352 0 45.1401 10.6336 480 56.2271 1182.21 516.479
2353 0 46.059 10.8991 502 55.759 1181.74 516.215
2354 0 48.0946 11.9972 577 55.2894 1181.66 514.541
2355 0 50.0485 12.6278 632 54.5047 1182.1 514.995
2356 0 50.1188 13.9468 699 53.6423 1182.6 513.316
2357 0 51.212 13.1219 672 54.7917 1182.46 511.604
2358 0 52.1148 12.6068 657 55.2801 1182.55 512.181
2359 0 53.1444 12.9835 690 54.6551 1181.93 511.87
2360 0 57.0674 11.758 671 55.8972 1182.35 508.835
2361 0 57.0674 11.8281 675 124.833 1181.35 508.799
2362 0 60.0554 12.7882 768 54.6914 1181.96 507.326
2363 0 65.1298 11.9914 781 54.7759 1181.93 508.548
2364 0 65.0871 12.7521 830 54.6349 1181.97 506.425
2365 0 67.0629 12.1528 815 54.8896 1182.48 504.243
2366 0 69.0957 13.6477 943 53.8155 1181.67 504.666
2367 0 71.0843 12.2953 874 55.143 1181.88 505.975
2368 0 72.047 14.2268 1025 53.6488 1181.81 500.282
2369 0 76.2383 13.589 1036 53.7404 1181.82 501.704
2370 0 78.1662 13.4457 1051 53.6603 1182.03 501.305
2371 0 82.2453 13.5448 1114 53.7226 1182.27 498.709
2372 0 86.2401 12.3492 1065 54.4545 1181.59 498.572
2373 1 46.0618 13.9161 641 53.3354 1181.58 516.739
2374 0 46.0642 9.39993 433 56.7644 1181.8 517.448
2375 0 48.0504 10.8428 521 55.1305 1181.99 517.217
2376 0 49.2115 13.0661 643 54.675 1181.51 515.642
2377 0 51.1201 12.9108 660 55.0333 1181.99 513.053
2378 0 52.0742 12.2902 640 55.9234 1182.12 512.058
2379 0 54.2925 11.9169 647 55.3014 1182.26 514.434
2380 0 54.1813 12.1075 656 56.1601 1182.7 510.483
2381 0 59.1822 12.7403 754 54.7096 1182.28 509.927
2382 0 60.0634 12.3203 740 55.4568 1182.03 508.705
2383 0 62.0499 12.2321 759 54.7286 1182.35 508.444
2384 0 65.1501 13.2156 861 54.0964 1182.31 508.61
2385 0 65.2914 13.5546 885 53.6746 1183.04 508.287
2386 0 67.1227 12.9166 867 54.5398 1182.67 505.884
2387 0 70.123 14.6172 1025 53.2254 1183.04 502.86
2388 0 70.2395 14.2085 998 53.6603 1182.98 503.579
2389 0 74.2179 13.5816 1008 54.0625 1183.66 500.122
2390 0 77.1957 12.2934 949 55.3066 1183.23 497.918
2391 0 80.1112 13.2066 1058 54.1352 1183.54 495.889
2392 0 84.2908 13.7619 1160 53.4957 1184.72 496.099
2393 0 87.0725 12.7825 1113 54.5759 1184.4 494.208
2394 0 89.0908 13.099 1167 54.5853 1184.86 493.008
2395 0 88.2019 13.2197 1166 55.0635 1185.4 491.78
2396 0 93.1246 12.145 1131 55.5402 1184.77 486.383
2397 0 98.1235 14.7161 1444 52.5222 1184.52 490.836
2398 1 49.2022 13.536 666 52.8498 1184.39 511.119
2399 0 50.0619 11.286 565 55.3416 1183.98 510.388
2400 0 53.0392 13.424 712 53.4508 1184.46 509.024
2401 0 54.1929 11.9019 645 55.1566 1184.2 507.733
2402 0 55.0626 11.9864 660 55.0561 1184.69 508.053
2403 0 58.1466 14.3603 835 52.4874 1184.31 505.02
2404 0 60.1199 13.7226 825 53.1248 1184.01 505.407
2405 0 64.1731 12.9182 829 53.5356 1184.23 505.595
2406 0 63.1513 11.6387 735 55.0694 1184.05 502.423
2407 0 69.0752 13.4346 928 53.1282 1184.36 504.408
2408 0 67.0802 12.2093 819 54.4982 1184.74 501.761
2409 0 71.0767 14.2944 1016 52.7313 1184.15 500.337
2410 0 73.12 13.9633 1021 53.1038 1184.08 497.31
2411 0 79.115 13.9923 1107 52.5799 1184.04 498.366
2412 0 78.1708 13.1891 1031 53.8147 1184.45 498.108
2413 0 82.1938 12.5922 1035 54.7063 1184.38 494.088
2414 0 83.0736 10.1837 846 57.3416 1184.01 493.952
2415 0 89.1784 13.1198 1170 54.2795 1184.18 494.796
2416 0 91.162 12.9659 1182 55.2707 1184.22 490.986
2417 1 48.0571 10.758 517 53.9768 1184.45 516.099
2418 0 48.0572 9.63435 463 55.933 1184.32 514.665
2419 0 51.055 12.2417 625 54.5296 1184.04 511.747
2420 0 54.0363 13.0838 707 53.4342 1184.05 511.301
2421 0 55.0494 13.0973 721 54.0694 1184.54 509.564
2422 0 57.0502 12.5854 718 54.4666 1184.95 508.724
2423 0 60.075 11.0029 661 55.9637 1184.37 509.561
2424 0 59.0715 12.1378 717 54.4923 1183.32 509.632
2425 0 63.0403 12.8965 813 54.3641 1183 506.91
2426 0 64.1927 12.0107 771 55.642 1183.43 504.774
2427 0 66.0682 11.3216 748 55.7086 1183.8 506.666
2428 0 71.0896 12.3787 880 54.9841 1183.12 504.584
2429 0 70.0854 11.8855 833 56.0288 1183.67 504.2
2430 0 72.0809 12.2224 881 55.7866 1183.33 499.817
2431 1 38.0159 9.12776 347 55.6744 1183.63 520.706
2432 0 38.061 10.9298 416 55.4303 1183.28 518.601
2433 0 39.0379 11.7834 460 54.9283 1182.74 519.274
2434 0 40.0318 10.2668 411 56.0706 1183.34 519.399
2435 0 43.0594 11.0777 477 54.8637 1183.41 517.795
2436 0 44.0581 12.1658 536 54 1183.49 517.929
2437 0 44.0827 11.6372 513 55.2144 1183.33 516.68
2438 0 44.0352 11.3319 499 56.1062 1183.56 515.104
2439 0 48.0233 12.015 577 54.4177 1183.37 516.745
2440 0 51.0745 11.2385 574 55.4896 1182.64 514.798
2441 0 49.1207 10.7287 527 56.3472 1182.75 513.258
2442 0 52.0536 9.75916 508 56.8504 1183 512.789
2443 0 54.0969 12.2373 662 54.2538 1183.2 512.341
2444 0 57.0895 13.4876 770 52.8312 1183.58 509.757
2445 0 57.1432 12.0399 688 54.561 1182.86 509.257
2446 0 60.0749 14.3321 861 52.1115 1183.01 507.976
2447 0 61.1864 11.8163 723 54.3527 1183.56 511.173
2448 0 63.07 11.4317 721 55.2053 1182.42 506.279
2449 0 66.1763 11.3485 751 55.265 1182.26 507.061
2450 0 67.0828 12.5815 844 54.2346 1182.5 504.521
2451 0 72.0725 12.0573 869 54.3487 1183.01 503.289
2452 0 74.1371 12.6253 936 53.5897 1183.07 503.854
2453 0 71.0628 10.5118 747 56.5596 1182.16 502.068
2454 0 77.0577 11.3421 874 55.405 1183.02 500.754
2455 0 78.0692 11.7332 916 55.3319 1182.6 495.668
2456 0 81.1045 11.5283 935 55.4513 1181.74 497.967
2457 1 41.0083 8.41294 345 57.029 1181.56 516.875
2458 0 44.0558 9.85114 434 55.5991 1180.72 517.138
2459 0 46.0252 10.6681 491 55.0244 1182.22 516.66
2460 0 47.0285 11.7588 553 54.4322 1182.77 514.014
2461 0 48.0432 11.677 561 55.3458 1182.18 514.513
2462 0 50.0822 11.0019 551 55.6897 1182.52 514.227
2463 0 52.0428 11.1639 581 55.2892 1182.22 513.836
2464 0 51.0152 10.0558 513 56.5653 1182.62 514.842
2465 0 56.1059 11.3179 635 55.0268 1182.59 508.443
2466 0 56.1037 11.6392 653 55.6493 1181.94 508.403
2467 0 57.019 9.83883 561 56.9091 1181.47 508.656
2468 0 61.1055 10.6537 651 55.8756 1181.17 506.449
2469 0 64.0824 12.7024 814 53.6118 1182.61 506.205
2470 0 64.131 13.4568 863 53.0718 1181.9 505.206
2471 0 67.2774 12.1883 820 54.0439 1182.14 502.313
2472 0 68.1644 11.3549 774 54.7196 1182.33 503.537
2473 0 72.1595 10.5877 764 53.89 1183.33 507.555
2474 0 74.1634 13.3624 991 52.5086 1182.24 502.362
2475 0 78.2511 11.1308 871 54.3961 1183.23 499.35
2476 0 79.2318 11.8387 938 54.2036 1182.39 496.774
2477 0 83.2643 12.034 1002 53.6377 1182.58 496.95
2478 1 43.1364 10.942 472 52.8284 1183.13 520
2479 0 44.1177 11.1293 491 53.002 1183.73 518.798
2480 0 45.0604 10.0754 454 54.5352 1183.2 514.956
2481 0 49.0313 9.52452 467 54.6959 1183.64 509.91
2482 0 48.1009 9.2306 444 55.5878 1183.38 512.811
2483 0 51.114 11.7972 603 52.7662 1183.34 512.629
2484 0 50.1023 12.1352 608 53.2204 1183.89 509.133
2485 0 53.1616 11.9823 637 53.0706 1183.63 510.89
2486 0 54.0999 12.8096 693 52.4141 1183.46 510.082
2487 0 56.0603 11.113 623 53.4848 1183.25 507.31
2488 0 56.0962 12.1755 683 52.4905 1183.43 508.786
2489 0 58.0393 11.5267 669 53.9028 1183.45 504.753
2490 0 63.1312 10.9138 689 53.3948 1183.87 506.19
2491 0 63.2742 12.0428 762 52.4777 1183.96 505.934
2492 0 66.1275 11.9164 788 52.4911 1183.6 504.189
2493 0 67.0966 13.2048 886 52.2291 1183.24 501.526
2494 0 69.1306 11.471 793 53.652 1182.62 501.525
2495 0 70.1087 10.0843 707 55.0863 1182.64 498.556
2496 0 74.1561 10.4105 772 54.4158 1183.54 499.894
2497 0 78.114 10.8431 847 53.8123 1183.33 495.701
2498 1 44.0796 12.001 529 51.5104 1182.58 516.302
2499 0 42.0749 10.1248 426 54.7512 1183.36 513.782
2500 0 43.1455 9.75768 421 55.3563 1183.54 514.211
2501 0 44.0512 10.17 448 55.2589 1182.32 512.424
2502 0 45.066 10.4957 473 54.9662 1183.11 512.027
2503 0 49.1107 9.89602 486 55.1111 1182.89 508.848
2504 0 49.0263 12.6667 621 53.0274 1182.91 511.456
2505 0 52.0535 11.0847 577 53.8995 1183.64 509.827
2506 0 53.2342 12.3041 655 53.2504 1183.96 508.379
2507 0 54.2589 12.1823 661 53.5522 1183.25 506.374
2508 0 56.1547 9.91902 557 55.6158 1183.73 507.151
2509 0 58.2592 13.4228 782 52.8018 1183.57 507.018
2510 0 62.327 11.3755 709 54.5416 1182.4 502.653
2511 0 63.2017 12.6895 802 53.2818 1182.95 500.642
2512 0 65.2473 12.4909 815 53.9509 1183.54 503.092
2513 0 64.2505 10.7548 691 56.3386 1183.61 498.454
2514 0 69.3132 12.0323 834 53.7578 1183.15 499.142
2515 0 71.1601 10.1321 721 56.6019 1183.18 496.834
2516 0 73.3454 11.1527 818 55.3668 1183.27 498.288
2517 0 78.0883 12.742 995 53.2392 1183.17 495.184
2518 0 78.3028 11.5322 903 54.7121 1183.72 496.125
2519 1 38.2799 11.5988 444 54.2275 1183.44 511.475
2520 0 39.0517 9.34658 365 56.3562 1182.58 512.195
2521 0 41.071 9.76359 401 54.9776 1182.69 514.062
2522 0 44.0639 11.1883 493 53.5598 1183.34 512.929
2523 0 44.0805 11.0707 488 53.5574 1183.43 514.393
2524 0 44.0432 14.0771 620 51.6677 1183.69 511.119
2525 0 45.0485 10.8106 487 54.7721 1183.35 507.864
2526 0 47.0259 11.1215 523 54.675 1183.23 506.063
2527 0 50.1954 11.5549 580 54.3103 1183.77 508.71
2528 0 52.074 12.2518 638 53.3558 1184.26 506.345
2529 0 52.2863 10.9972 575 55.0939 1183.67 503.417
2530 0 54.095 11.5353 624 54.5497 1183.35 502.417
2531 0 55.1009 12.9399 713 53.108 1183.14 506.864
2532 0 58.1273 12.335 717 53.6402 1184.07 504.566
2533 0 62.1252 11.1871 695 54.8835 1184.22 503.055
2534 0 63.0626 12.3845 781 53.7106 1183.67 500.996
2535 0 62.0628 10.4088 646 55.9257 1184.04 500.288
2536 0 67.0456 12.6332 847 53.9233 1184.89 498.172
2537 0 68.0557 12.1812 829 54.5199 1184.69 497.723
2538 0 70.0801 12.6855 889 53.9438 1183.98 494.825
2539 0 72.1264 12.2424 883 54.6942 1184.03 494.943
2540 0 72.1341 11.95 862 55.5162 1184 490.973
2541 0 79.2554 13.4249 1064 53.4389 1184.17 493.167
2542 0 79.1064 11.3518 898 56.2717 1183.56 492.362
2543 1 42.0791 10.7654 453 55.1987 1183.91 513.411
2544 0 44.0319 9.51582 419 55.6897 1184.42 512.678
2545 0 43.0592 9.91659 427 56.74 1184.28 508.653
2546 0 47.0978 10.871 512 55.8144 1184.69 510.465
2547 0 46.072 12.22 563 55.0284 1185.02 509.469
2548 0 50.2502 12.4975 628 54.328 1183.8 507.221
2549 0 51.1073 12.1705 622 54.9727 1184.84 508.116
2550 0 52.0512 12.3724 644 55.146 1184.81 506.048
2551 0 53.0805 11.0022 584 56.363 1183.96 506.103
2552 0 58.0685 11.6242 675 55.3096 1184.12 505.486
2553 0 56.1967 11.4953 646 56.2632 1184.27 503.692
2554 0 58.1924 10.7918 628 56.6959 1184.49 505.89
2555 0 59.0612 11.4119 674 56.5727 1184.5 503.889
2556 0 64.1055 12.5574 805 54.8571 1184.67 501.704
2557 0 65.1481 12.5253 816 55.0748 1184.42 501.159
2558 0 66.1285 11.5684 765 56.085 1183.64 498.383
2559 0 69.144 12.5391 867 54.9031 1184.33 499.343
2560 0 69.1574 12.0161 831 55.6474 1183.73 497.507
2561 0 75.178 13.0224 979 53.7804 1183.77 497.671
2562 0 76.1551 12.9604 987 54.0375 1183.69 491.519
2563 0 76.1406 10.9009 830 55.7892 1184 493.91
2564 1 41.0507 10.4748 430 55.6163 1184 514.133
2565 0 42.0549 12.9355 544 54.8419 1184.3 510.199
2566 0 44.1144 13.737 606 54.1997 1184.13 510.665
2567 0 45.0669 14.2233 641 53.4571 1184 509.992
2568 0 47.1878 12.7787 603 54.6186 1184.17 509.058
2569 0 48.0869 12.7685 614 55.0228 1183.92 509.197
2570 0 51.043 12.4601 636 54.5849 1183.69 508.2
2571 0 51.0631 11.7893 602 55.8605 1183.53 505.04
2572 0 53.2279 13.8461 737 53.8575 1184.14 504.316
2573 0 57.0854 12.4025 708 54.5508 1183.84 505.825
2574 0 55.1427 12.7669 704 55.3608 1182.72 505.091
2575 0 55.108 12.8838 710 55.9028 1183.1 506.132
2576 0 60.1028 15.2572 917 53.0054 1183.68 502.862
2577 0 62.1505 13.5317 841 54.3306 1183.58 503.864
2578 0 64.042 14.428 924 54.026 1183.39 502.61
2579 0 65.1327 14.386 937 53.7471 1183.14 500.404
2580 0 65.233 14.4252 941 54.2423 1182.62 501.611
2581 0 69.0583 13.7565 950 54.4547 1182.8 498.604
2582 0 70.2621 13.4069 942 55.2378 1183.08 497.331
2583 0 75.1124 14.1122 1060 54.1491 1183 494.479
2584 0 76.0874 13.9708 1063 54.6105 1183.36 493.771
2585 0 78.1377 14.0521 1098 54.5091 1182.66 493.365
2586 0 83.1042 14.2351 1183 53.6145 1182.39 493.72
2587 0 82.1072 12.6298 1037 55.1475 1182.59 493.514
2588 0 87.1096 13.0066 1133 54.8976 1182.46 490.207
2589 0 90.159 15.0956 1361 52.7487 1182.46 487.356
2590 1 43.0217 11.2734 485 56.6186 1183.66 509.876
2591 0 46.0468 13.2257 609 54.2742 1183.52 510.31
2592 0 47.0836 12.5734 592 55.0388 1182.87 510
2593 0 50.1709 15.8458 795 52.0528 1183.77 508.006
2594 0 52.0307 12.7233 662 54.2976 1183.24 509.378
2595 0 51.0347 11.6783 596 56.1107 1183.13 506.787
2596 0 53.1368 13.2112 702 54.6168 1182.91 506.433
2597 0 55.067 11.0411 608 56.7516 1183.11 505.586
2598 0 58.1181 13.0424 758 54.4908 1184.6 504.825
2599 0 60.0662 13.2354 795 53.6277 1185.15 503.416
2600 0 60.072 12.3518 742 55.8854 1184.47 501.756
2601 0 62.0478 13.264 823 54.9611 1184.27 500.651
2602 0 64.1571 12.4538 799 55.3817 1183.95 499.443
2603 0 68.0388 16.3289 1111 51.2637 1184.3 498.159
2604 0 70.1232 13.134 921 54.4571 1183.32 498.611
2605 0 71.2724 13.9184 992 54.0605 1183.12 496.653
2606 0 75.2608 14.0445 1057 53.5005 1183.14 494.236
2607 0 76.0373 13.5986 1034 53.8636 1183.2 498.054
2608 0 79.2062 12.0445 954 55.3847 1183.12 491.522
2609 0 84.0987 13.282 1117 54.5909 1183.63 492.964
2610 0 84.1341 13.3358 1122 55.2683 1183.75 491.959
2611 0 89.117 15.1935 1354 53.1573 1183.74 491.374
2612 0 92.2184 15.1488 1397 53.1396 1183.14 491.984
2613 1 48.1002 12.3284 593 56.6256 1183.06 507.73
2614 0 50.2036 11.5131 578 56.8599 1182.48 508.728
2615 0 51.023 11.7202 598 56.9582 1183 509.933
2616 0 56.0812 12.9277 725 55.9517 1183.23 507.312
2617 0 54.1077 12.6969 687 57 1183.06 506.489
2618 0 57.0791 12.2637 700 57.5486 1183.66 504.931
2619 0 60.0268 12.6443 759 56.9038 1184.15 507.043
2620 0 63.0533 13.9564 880 56.1182 1184.64 503.018
2621 0 61.1097 12.273 750 58.66 1183.12 504.547
2622 0 64.1101 12.4473 798 58.8158 1183.29 503.328
2623 0 67.0583 13.0633 876 57.7523 1184.28 502.202
2624 0 69.0444 13.3972 925 58.36 1183.8 499.12
2625 0 72.1414 15.1647 1094 56.4744 1183.64 498.156
2626 0 74.0694 13.5548 1004 58.4632 1183.2 498.443
2627 0 77.082 13.7905 1063 58.3227 1182.84 496.706
2628 0 78.0604 13.6433 1065 58.9024 1182.48 494.695
2629 0 78.0924 12.7925 999 61.008 1182.1 492.247
2630 0 85.2205 14.2571 1215 58.9893 1183.24 492.955
2631 1 45.0568 12.6729 571 59.5201 1182.88 511.94
2632 0 44.0203 11.5628 509 61.0727 1183.97 512.352
2633 0 49.0473 12.0088 589 60.8064 1183.53 511.219
2634 0 47.017 12.5487 590 59.9983 1183.71 513.23
2635 0 47.0702 11.9396 562 62.29 1183.28 509.722
2636 0 52.0239 13.4938 702 59.0484 1183.61 511.279
2637 0 53.0936 11.0559 587 61.7189 1183.47 509.552
2638 0 55.0553 12.3149 678 60.5162 1183.78 508.605
2639 0 57.172 13.9404 797 58.5056 1184.08 507.828
2640 0 57.1262 12.096 691 60.7135 1184.16 507.268
2641 0 58.0563 12.9185 750 60.8067 1183.27 504.517
2642 0 60.0678 14.3005 859 54.177 1182.93 505.262
2643 0 63.0482 14.4017 908 58.3117 1183.06 503.281
2644 0 64.0295 12.1507 778 60.7802 1183.99 504.14
2645 0 68.1054 14.316 975 58.2144 1183.27 503.612
2646 0 69.0464 11.5719 799 61.8936 1183.42 502.957
2647 0 71.1069 12.9805 923 60.5883 1183.98 499.557
2648 0 76.1069 12.4299 946 60.3636 1183.86 502.282
2649 0 76.1883 11.3928 868 61.4758 1183.04 500.116
2650 0 80.0379 12.8189 1026 60.5263 1183.86 497.842
2651 0 82.0726 12.9276 1061 60.1555 1183.65 495.576
2652 0 84.0746 13.5118 1136 60.0387 1183.7 493.245
2653 0 86.0739 13.5465 1166 60.47 1183.56 495.872
2654 0 91.2185 12.2892 1121 61.5923 1184.16 493.077
2655 1 46.0592 9.72662 448 63.4799 1184.51 513.674
2656 0 48.0268 12.264 589 61.073 1183.69 511.793
2657 0 51.0844 11.9998 613 60.7732 1184.16 514.424
2658 0 53.1263 12.2726 652 60.066 1184 513.222
2659 0 53.0272 13.0499 692 60.4393 1183.89 511.259
2660 0 54.0481 12.2484 662 61.9169 1183.8 508.668
2661 0 59.0604 12.7497 753 59.7756 1183.74 510.146
2662 0 59.0881 12.5406 741 61.0958 1184.09 508.217
2663 0 62.0847 13.6749 849 59.0342 1184.09 509.524
2664 0 64.1083 11.6054 744 61.9032 1183.85 507.695
2665 0 67.0941 12.3856 831 60.444 1184.1 507.982
2666 0 67.1316 14.8663 998 58.1222 1184.47 504.797
2667 0 68.1153 12.9633 883 60.7293 1184.24 503.801
2668 0 72.1692 13.4545 971 58.999 1184.45 505.319
2669 0 75.2026 12.1006 910 60.5681 1183.98 501.271
2670 0 76.0725 14.2101 1081 58.0231 1183.45 501.855
2671 0 78.0794 12.372 966 60.4979 1183.98 498.026
2672 0 80.0454 11.4685 918 62.1024 1184.13 498.888
2673 0 84.1257 13.1827 1109 60.2119 1183.24 495.656
2674 1 42.114 9.47429 399 62.1228 1184.64 516.732
2675 0 47.0316 10.2697 483 60.0828 1184.61 517.576
2676 0 44.1385 9.6741 427 62.6862 1185.19 514.7
2677 0 47.0754 11.8958 560 59.9054 1184.95 513.061
2678 0 49.0544 12.5167 614 59.0651 1184.51 512.647
2679 0 51.0393 12.6961 648 59.1111 1183.83 511.833
2680 0 53.0866 12.1123 643 59.0389 1183.68 509.266
2681 0 54.082 10.8539 587 61.1959 1184.02 509.445
2682 0 58.0944 12.4969 726 58.1364 1183.43 508.293
2683 0 59.0784 11.4424 676 59.4615 1184.44 508.337
2684 0 62.0958 10.9186 678 59.7478 1183.7 507.768
2685 0 64.0702 15.2801 979 54.9888 1183.49 506.452
2686 0 67.1762 12.9659 871 57.527 1184.23 503.278
2687 0 69.1166 12.573 869 57.7837 1183.04 504.223
2688 0 73.1519 12.1118 886 57.605 1184.07 503.497
2689 0 74.0812 13.2152 979 57.331 1183.65 502.179
2690 0 75.0701 11.5758 869 58.5984 1183.65 500.404
2691 0 79.1205 12.7274 1007 57.0487 1183.23 502.373
2692 0 82.0879 11.2684 925 58.4508 1183.74 500.758
2693 0 85.1374 12.9085 1099 57.0655 1183.33 497.33
2694 1 46.0673 11.6351 536 56.1716 1184.32 517.054
2695 0 47.0362 11.2892 531 57.3126 1184.28 515.761
2696 0 51.0972 11.5075 588 57.7211 1184.78 514.536
2697 0 53.1048 11.0724 588 58.0935 1184.21 513.083
2698 0 54.1629 12.7024 688 56.1846 1184.18 510.589
2699 0 54.0579 12.7271 688 56.6105 1184.53 509.551
2700 0 56.1407 11.0615 621 58.5105 1184.34 511.56
2701 0 59.2498 11.7806 698 58.2665 1184.31 507.958
2702 0 60.1137 12.6261 759 57.5705 1184.29 506.751
2703 0 61.1068 11.6845 714 58.5336 1183.94 507.578
2704 0 63.1578 13.11 828 56.6075 1183.6 507.006
2705 0 65.1899 13.4837 879 56.339 1183.51 503.353
2706 0 66.2351 12.7425 844 57.34 1183.67 506.836
2707 0 70.1234 12.6634 888 57.0845 1183.89 501.441
2708 0 72.1104 11.8291 853 57.8992 1184.41 501.468
2709 0 76.1825 11.525 878 57.6868 1184.3 502.551
2710 1 39.1212 11.8606 464 56.8858 1184.74 520.627
2711 0 41.0585 10.8382 445 57.0786 1185.05 522.115
2712 0 42.1923 10.4521 441 57.576 1184.62 521.474
2713 0 42.0472 10.6785 449 58.7639 1185.25 519.702
2714 0 46.1583 11.1139 513 57.5595 1184.33 517.349
2715 0 44.0473 11.8963 524 57.5439 1184.6 517.527
2716 0 47.0733 12.0026 565 56.4938 1184.76 519.398
2717 0 49.0887 11.1838 549 57.8944 1184.6 514.135
2718 0 51.2151 13.746 704 54.7557 1184.47 514.386
2719 0 49.044 10.6231 521 58.7678 1185.08 514.18
2720 0 54.118 13.951 755 54.6609 1184.79 513.634
2721 0 55.0623 13.6754 753 54.5618 1184.46 514.06
2722 0 55.0966 12.832 707 55.8798 1184.53 512.383
2723 0 56.1361 12.826 720 56.8764 1184.26 509.838
2724 0 59.0885 14.5206 858 54.3683 1184.22 513.064
2725 0 60.1081 12.8602 773 55.8241 1184.83 513.354
2726 0 62.0601 12.8585 798 56.6178 1184.11 508.162
2727 0 65.1353 14.2012 925 54.8649 1184.9 508.583
2728 0 67.0918 12.1774 817 57.2656 1185.01 506.082
2729 0 67.0426 12.6636 849 56.9458 1184.86 507.13
2730 0 69.117 12.8188 886 56.2483 1185.3 509.318
2731 0 71.0735 11.3685 808 58.0743 1185.09 505.729
2732 0 72.0819 12.6384 911 57.0384 1184.33 503.417
2733 1 39.0464 11.7553 459 56.9259 1185.24 522.205
2734 0 39.0543 12.393 484 57.093 1185.2 521.345
2735 0 41.097 10.7307 441 57.322 1184.69 478.957
2736 0 40.0804 11.3272 454 58.815 1184.69 519.394
2737 0 44.0474 10.9201 481 58.5592 1184.56 519.052
2738 0 46.0708 14.3692 662 55.3988 1184.47 517.331
2739 0 48.1525 14.5371 700 54.7543 1183.72 516.68
2740 0 49.1207 13.8231 679 55.567 1183.9 516.125
2741 0 51.082 11.3347 579 57.9499 1184.7 514.439
2742 0 49.1017 13.1767 647 57.374 1184.26 515.002
2743 0 55.2149 14.3258 791 55.3565 1185.14 514.071
2744 0 56.2375 14.2787 803 55.6862 1185.13 511.049
2745 0 56.053 14.3971 807 56.0979 1184.83 509.465
2746 0 58.0685 15.9122 924 54.1807 1184.59 510.339
2747 0 62.0474 14.6984 912 55.1118 1184.37 508.912
2748 0 61.0876 14.8148 905 55.3668 1184.41 510.917
2749 0 63.0341 16.5625 1044 53.3937 1184.28 508.165
2750 0 64.2468 14.1174 907 56.0463 1184.21 506.74
2751 0 66.0658 12.8508 849 57.3675 1184.52 505.777
2752 0 69.2655 13.903 963 56.3126 1183.91 506.47
2753 0 72.1018 14.4518 1042 55.9741 1184.4 502.795
2754 0 77.0756 16.0492 1237 53.6815 1184.09 503.304
2755 0 76.066 13.909 1058 56.1295 1184.19 500.82
2756 0 79.0908 13.946 1103 55.971 1183.42 501.589
2757 0 82.0625 14.7205 1208 55.6722 1183.84 497.654
2758 0 83.1338 14.194 1180 56.85 1183.91 499.945
2759 1 44.0603 13.4134 591 56.6125 1184.12 518.1
2760 0 42.0545 14.077 592 57.3395 1183.99 515.4
2761 0 46.1939 12.8805 595 57.5714 1184 516.906
2762 0 46.0611 13.3953 617 57.8671 1184.37 516.285
2763 0 47.4162 13.0124 617 58.7066 1184.49 515.919
2764 0 49.09 13.4243 659 57.7602 1184 514.238
2765 0 50.0504 13.4464 673 57.3343 1185.02 515.276
2766 0 51.1119 12.0128 614 59.6401 1184.14 514.423
2767 0 54.1466 12.263 664 59.0693 1183.94 514.28
2768 0 57.0629 14.3701 820 57.0268 1184.51 510.943
2769 0 56.142 14.4455 811 57.7041 1184.55 507.957
2770 0 58.1939 12.3209 717 59.8145 1184.47 508.902
2771 0 62.0887 14.6242 908 56.641 1184.17 508.311
2772 0 62.1177 13.8125 858 57.8636 1184.28 509.24
2773 0 66.1925 13.5967 900 57.4889 1184.04 506.49
2774 0 66.2869 12.8532 852 59.1373 1184.12 507.184
2775 0 69.2757 12.5729 871 59.5786 1183.89 504.69
2776 0 72.2424 13.2055 954 59.0975 1184.13 503.327
2777 0 72.0511 13.1157 945 59.2984 1184.27 501.795
2778 1 38.0456 11.4862 437 60.8764 1184.47 516.998
2779 0 40.075 11.3537 455 60.5341 1184.47 517.547
2780 0 43.285 13.1916 571 58.5394 1183.38 516.422
2781 0 44.1089 12.1064 534 59.1423 1184.37 517.006
2782 0 44.1665 11.4114 504 61.3016 1184.26 514.843
2783 0 46.0336 12.4692 574 59.8049 1184.29 512.911
2784 0 47.0934 12.4646 587 59.7036 1184.59 513.719
2785 0 47.1418 11.8578 559 60.6923 1184.71 514.016
2786 0 50.1093 11.4749 575 60.513 1184.46 512.91
2787 0 50.0461 12.5684 629 59.3132 1183.61 514.335
2788 0 54.2058 13.9468 756 57.75 1184.27 512.299
2789 0 55.092 12.3248 679 60.081 1184.51 509.965
2790 0 57.1679 11.2126 641 61.4696 1185.39 507.727
2791 0 59.0275 15.1624 895 56.6626 1184.71 509.175
2792 0 58.0775 13.2065 767 59.2803 1184.23 508.49
2793 0 65.1322 14.0637 916 57.3035 1184.59 508.008
2794 0 65.2112 16.5922 1082 55.5305 1184.35 504.371
2795 0 67.0748 13.3731 897 58.7848 1184.24 506.025
2796 0 68.1246 15.2074 1036 57.5386 1183.84 504.396
2797 0 69.0832 12.9264 893 60.2027 1183.99 502.671
2798 0 75.0492 12.9382 971 59.4099 1184.18 501.143
2799 0 76.1453 13.9733 1064 59.3205 1184.42 499.387
2800 0 78.1732 12.8689 1006 60.4712 1185.43 501.169
2801 1 42.1503 11.6251 490 61.5776 1185.03 515.567
2802 0 43.0366 10.8048 465 62.8151 1184.65 515.004
2803 0 45.0177 11.4844 517 61.2843 1184.44 517.068
2804 0 47.0618 13.6204 641 59.663 1184.7 515.847
2805 0 48.0253 12.4518 598 61.7525 1184.32 512.557
2806 0 49.0286 13.7063 672 60.5432 1184.09 512.119
2807 0 51.0447 13.5176 690 60.6058 1184.68 510.157
2808 0 52.056 13.447 700 61.2571 1184.69 509.223
2809 0 55.018 12.2869 676 61.6701 1185.08 510.661
2810 0 56.0977 13.0308 731 61.212 1184.1 508.75
2811 0 57.0207 11.9255 680 62.5721 1184.39 508.446
2812 0 59.0206 12.3855 731 61.9316 1184.76 507.109
2813 0 59.1097 11.8255 699 63.4034 1185.41 504.086
2814 0 63.2013 13.275 839 61.3361 1185.17 504.33
2815 0 66.0298 12.6004 832 61.6911 1184.82 503.292
2816 0 68.0342 14.7573 1004 59.5628 1185.5 503.5
2817 0 70.1482 12.1315 851 62.4994 1185.58 502.353
2818 0 71.047 12.2313 869 62.702 1185.04 501.428
2819 0 73.115 14.06 1028 60.9358 1185.32 501.447
2820 0 78.2172 13.3602 1045 60.9962 1185.66 500.234
2821 1 41.0273 10.4808 430 63.4163 1185.45 516.077
2822 0 43.0351 11.3628 489 61.1166 1185.33 518.515
2823 0 45.0618 11.9835 540 61.35 1185.51 516.191
2824 0 48.0333 11.3671 546 61.8919 1185.42 515.379
2825 0 47.117 12.0339 567 62.3933 1185.47 514.229
2826 0 48.0846 12.582 605 61.8909 1185.49 512.902
2827 0 52.0529 12.1415 632 61.7516 1185.63 511.074
2828 0 50.0472 13.2275 662 61.4003 1185.79 512.044
2829 0 54.174 11.6107 629 62.2273 1185.45 512.251
2830 0 54.077 12.9815 702 61.5912 1186.42 509.694
2831 0 57.0612 13.1788 752 61.0346 1186.19 507.261
2832 0 58.1346 12.5227 728 62.2115 1186.11 507.927
2833 0 60.1637 12.599 758 62.3747 1186.03 504.214
2834 0 62.1497 16.0902 1000 57.702 1185.87 503.556
2835 0 62.0358 14.9269 926 59.1102 1185.88 506.241
2836 0 66.0649 14.3344 947 59.7254 1186.26 502.494
2837 0 69.0735 14.5063 1002 59.514 1186.62 501.417
2838 0 71.0735 13.085 930 60.8548 1186.42 500.806
2839 0 74.0807 13.1478 974 60.7906 1186.84 498.908
2840 0 76.2141 14.21 1083 59.7775 1186.12 496.559
2841 0 77.0547 12.1602 937 62.1121 1186.35 495.319
2842 0 79.1102 13.2853 1051 60.4691 1186.25 495.067
2843 0 84.085 13.0463 1097 60.4376 1186.05 493.887
2844 0 85.0784 12.8352 1092 61.033 1185.81 491.233
2845 0 88.158 13.4985 1190 60.7218 1186.08 488.836
2846 0 92.1064 14.1358 1302 59.3564 1186.05 490.045
2847 1 46.0774 9.1368 421 63.8717 1186.74 510.116
2848 0 47.0325 11.9705 563 60.4938 1186.99 510.227
2849 0 50.0359 9.85293 493 62.7383 1186.99 509.087
2850 0 53.1024 11.6002 616 60.2971 1186.73 508.343
2851 0 55.1093 12.1758 671 59.8688 1186.37 505.306
2852 0 55.0297 9.70386 534 63.073 1185.94 504.184
2853 0 57.0794 12.7542 728 59.9904 1186.16 503.859
2854 0 57.0757 12.755 728 60.5508 1186.2 501.518
2855 0 62.1015 13.2203 821 58.9135 1185.52 502.029
2856 0 63.1003 14.0887 889 58.2722 1186.1 499.522
2857 0 64.1335 12.6923 814 60.1794 1186.34 499.559
2858 0 65.0851 12.6296 822 60.2567 1186.37 500.423
2859 0 67.1056 12.6815 851 60.2656 1186.09 496.592
2860 0 68.1503 10.829 738 61.893 1185.45 496.76
2861 0 72.1418 12.2121 881 60.0443 1185.89 494.821
2862 0 74.0628 13.5831 1006 58.5686 1185.39 493.519
2863 0 77.1275 13.0563 1007 59.1569 1186.04 493.301
2864 0 82.1372 13.3557 1097 57.8778 1185.52 493.241
2865 0 82.062 11.4791 942 60.2219 1185.21 491.197
2866 0 85.15 12.8009 1090 58.5495 1185.5 489.354
2867 0 87.202 12.0754 1053 59.812 1185.82 487.147
2868 1 46.1221 10.9926 507 59.497 1185.86 507.46
2869 0 45.1752 8.87656 401 61.3142 1186.47 510.377
2870 0 48.0855 12.0203 578 58.308 1186.37 507.839
2871 0 50.1154 11.4336 573 59.0384 1186.66 507.661
2872 0 52.0626 12.3313 642 57.2134 1186.5 508.593
2873 0 53.128 10.5971 563 60.3393 1185.91 504.938
2874 0 55.178 11.5082 635 58.7102 1185.51 503.161
2875 0 57.143 10.8325 619 60.0436 1185.11 501.533
2876 0 56.0617 11.0236 618 59.5858 1185.48 504.016
2877 0 62.096 11.9331 741 58.0121 1184.81 502.19
2878 0 63.1363 10.4536 660 59.9803 1185.41 500.541
2879 0 63.1409 11.4506 723 58.9779 1185.3 499.788
2880 0 66.0683 11.9725 791 58.5272 1185.2 499.439
2881 0 69.185 13.1242 908 56.4504 1185.19 498.672
2882 0 71.0691 11.4677 815 57.8172 1185.27 499.098
2883 0 74.063 12.7459 944 56.9375 1185.31 497.915
2884 0 76.083 12.2498 932 57.5912 1185.15 494.486
2885 0 78.1226 10.9827 858 58.4662 1184.9 491.05
2886 0 81.2152 11.6358 945 57.5069 1184.53 492.238
2887 0 83.1937 11.8278 984 57.7205 1185.1 492.003
2888 0 88.2179 12.9112 1139 56.1615 1185.01 490.112
2889 1 43.0994 10.557 455 57.3604 1184.81 511.226
2890 0 44.2474 10.3283 457 56.9256 1185.71 512.821
2891 0 47.0987 11.4865 541 56.2033 1186.32 508.802
2892 0 49.0637 10.7004 525 57.5505 1186.7 507.655
2893 0 47.0671 9.32711 439 60.0364 1186.21 506.647
2894 0 53.1149 12.1246 644 56.5512 1186.14 505.446
2895 0 52.0741 10.5043 547 58.4881 1185.05 504.34
2896 0 57.0588 10.8134 617 50.7374 1184.75 507.164
2897 0 54.1711 10.8545 588 58.1616 1185.01 501.476
2898 0 57.1389 10.1332 579 58.6218 1185.86 503.104
2899 0 60.2521 11.1697 673 57.0535 1185.39 502.215
2900 0 62.1033 12.1894 757 56.111 1186.62 501.466
2901 0 64.1917 11.5747 743 56.6097 1185.72 499.546
2902 0 65.2073 11.2411 733 56.6248 1185.48 502.065
2903 0 64.1234 9.76242 626 58.6933 1185.02 497.992
2904 0 69.2026 11.2857 781 56.539 1185.56 498.763
2905 0 73.2081 12.9904 951 54.0294 1185.96 498.933
2906 0 72.1753 11.5968 837 56.4875 1185.89 495.366
2907 0 75.1115 13.7529 1033 54.3901 1185.65 494.242
2908 0 76.1504 11.6611 888 56.259 1185.83 491.956
2909 0 79.1949 10.3668 821 57.6382 1185.56 491.267
2910 0 83.2716 12.117 1009 55.3588 1186.4 492.784
2911 0 83.1447 12.7008 1056 55.1695 1185.9 484.926
2912 0 87.4879 11.8073 1033 55.6292 1186.65 484.667
2913 0 91.1823 11.3509 1035 55.7314 1186.29 485.465
2914 0 92.3701 10.6528 984 56.3699 1186.24 482.936
2915 0 92.3701 10.6203 981 125.096 1187.23 482.937
2916 0 98.2679 8.97547 882 57.8549 1185.74 483.486
2917 0 103.199 11.4052 1177 54.6839 1185.56 486.062
2918 1 55.0197 10.1236 557 55.6625 1187.3 504.348
2919 0 57.0471 10.8857 621 54.8309 1186.66 505.026
2920 0 57.082 9.82796 561 56.1854 1187.29 502.542
2921 0 59.0584 11.277 666 54.6411 1187.16 499.775
2922 0 61.1412 10.4021 636 54.827 1187.44 499.219
2923 0 63.0583 11.9413 753 53.0876 1186.72 500.201
2924 0 64.11 10.5756 678 54.4322 1185.71 498.813
2925 0 67.0833 9.10808 611 55.5123 1185.39 493.854
2926 0 70.1342 13.6453 957 51.0658 1185.75 495.053
2927 0 73.125 11.9111 871 52.5798 1185.9 495.84
2928 0 74.0901 11.2971 837 53.2246 1185.69 492.192
2929 0 77.0917 11.5447 890 52.7393 1185.87 492.499
2930 0 79.2249 10.4891 831 53.9386 1185.7 490.927
2931 0 85.1227 13.4277 1143 50.4077 1185.58 493.245
2932 0 84.1245 10.8411 912 53.0822 1185.8 488.318
2933 0 92.137 13.9466 1285 49.4195 1186.35 491.879
2934 0 91.1471 13.0119 1186 51.172 1186.07 486.82
2935 0 93.153 11.9481 1113 52.4214 1186.41 483.234
2936 0 96.0925 13.3413 1282 50.7465 1185.75 482.642
2937 1 49.1278 11.3785 559 52.0912 1186.45 508.739
2938 0 53.0869 10.6618 566 51.7544 1185.96 508.869
2939 0 50.0439 8.53251 427 54.6557 1185.47 502.82
2940 0 56.0579 11.7379 658 52.3875 1185.82 504.836
2941 0 56.1301 12.4532 699 51.7296 1184.84 502.688
2942 0 57.1266 11.5533 660 52.8545 1185.9 502.689
2943 0 61.1942 12.6319 773 51.4877 1185.72 502.485
2944 0 61.0672 10.513 642 53.2165 1185.16 500.399
2945 0 62.1264 10.7684 669 53.3722 1185.81 498.593
2946 0 65.1748 11.9678 780 51.9487 1186.14 497.84
2947 0 66.0799 11.8796 785 52.0777 1185.91 499.434
2948 0 67.0859 11.8356 794 52.3741 1185.49 499.351
2949 0 70.1865 13.0652 917 51.0916 1186.09 495.581
2950 0 73.2405 12.3975 908 51.7225 1186.12 494.803
2951 0 75.0893 13.6238 1023 50.4018 1186.02 491.499
2952 0 76.3509 11.7615 898 52.2996 1186.24 492.622
2953 0 80.2838 12.4309 998 51.7675 1185.6 489.877
2954 0 83.3077 11.2475 937 52.7375 1185.4 488.266
2955 0 87.3963 14.4056 1259 49.8086 1185.75 489.72
2956 0 89.3068 12.5298 1119 51.6139 1185.36 489.194
2957 0 90.2932 13.9656 1261 50.4314 1185.58 488.688
2958 0 92.2452 11.2093 1034 52.9739 1185.71 488.124
2959 1 50.1091 10.0581 504 53.1925 1185.41 508.173
2960 0 52.0628 10.3913 541 53.5176 1185.48 507.348
2961 0 50.0662 11.9442 598 52.3177 1185.46 508.582
2962 0 55.0431 11.4274 629 52.6884 1185.47 506.897
2963 0 55.1214 11.3567 626 53.0926 1185.33 504.553
2964 0 57.1354 12.6191 721 52.4105 1186.46 502.333
2965 0 61.037 12.4842 762 51.8714 1185.77 501.335
2966 0 61.1544 13.425 821 51.257 1185.35 500.678
2967 0 63.1587 12.1282 766 52.2272 1185.09 498.025
2968 0 64.0588 12.0358 771 52.6433 1184.63 500.489
2969 0 66.0736 11.3056 747 52.8474 1185.29 499.332
2970 0 70.4927 12.9233 911 51.1471 1185.05 497.97
2971 0 70.2281 12.0037 843 52.0652 1185.66 497.403
2972 0 74.1468 12.4213 921 52.1987 1186.07 492.953
2973 0 78.4524 12.1475 953 51.5666 1185.76 496.764
2974 0 80.16 12.9117 1035 50.9324 1185.76 491.338
2975 0 81.1129 12.4395 1009 51.0872 1186.06 493.783
2976 0 84.2222 13.4406 1132 50.6369 1185.68 487.17
2977 0 90.1374 13.4905 1216 46.0386 1186.09 493.678
2978 0 90.1956 12.4396 1122 51.6399 1186.37 482.831
2979 0 92.0875 12.3687 1139 51.8209 1185.97 487.09
2980 1 48.1009 13.243 637 49.0157 1186.75 510.447
2981 0 47.1799 9.98306 471 51.6433 1185.99 511.242
2982 0 48.1131 11.8886 572 50.8689 1186.51 507.114
2983 0 48.0257 12.764 613 50.4861 1187.15 507.625
2984 0 50.0874 10.861 544 51.5496 1185.55 508.579
2985 0 50.0733 12.0823 605 51.157 1186.26 505.253
2986 0 54.103 11.4781 621 51.3253 1186.34 503.578
2987 0 57.0508 12.708 725 49.9531 1186.24 504.53
2988 0 56.0552 11.7384 658 51.0502 1186.16 502.286
2989 0 58.0509 9.9051 575 52.68 1186.15 500.558
2990 0 58.0728 11.0379 641 52.1888 1185.84 499.699
2991 0 62.1071 10.5141 653 51.9495 1185.47 498.378
2992 0 62.1568 11.8732 738 51.0027 1185.7 500.463
2993 0 65.2512 12.812 836 50.2034 1186.18 498.471
2994 0 68.1067 12.0693 822 51.0219 1185.74 494.887
2995 0 70.2049 11.5377 810 51.2198 1186.24 495.454
2996 0 73.081 12.7256 930 50.3484 1185.8 495.241
2997 0 76.2358 12.6581 965 50.371 1185.21 494.368
2998 0 77.0809 13.0383 1005 50.5104 1185.33 489.832
2999 0 79.2594 11.5948 919 51.2372 1185.66 483.733
3000 0 82.1113 11.5088 945 51.8899 1185.94 485.242
3001 1 46.0766 10.0702 464 52.1056 1185.82 506.961
3002 0 48.0611 11.9847 576 51.4323 1185.9 503.358
3003 0 47.1053 11.4849 541 52.4344 1185.36 504.285
3004 0 50.061 11.8655 594 51.6178 1186.48 505.82
3005 0 51.1029 11.6627 596 52.7013 1186.21 503.562
3006 0 53.0479 11.8949 631 52.4818 1186.71 503.025
3007 0 55.2015 11.4127 630 52.8762 1185.89 497.529
3008 0 57.1073 12.2576 700 52.4671 1185.56 499.209
3009 0 59.1511 14.1502 837 50.4361 1184.98 497.925
3010 0 64.0664 12.6275 809 51.6638 1185.61 499.524
3011 0 65.1493 11.5888 755 53.0715 1186.47 496.511
3012 0 68.108 13.0675 890 51.7461 1186.49 495.331
3013 0 69.0904 11.8251 817 53.2326 1186.71 495.137
3014 0 72.1261 11.9929 865 53.1214 1186.93 494.69
3015 0 72.1012 14.1468 1020 51.749 1186.85 492.526
3016 0 75.1453 15.1307 1137 50.606 1186.95 490.171
3017 0 77.0856 12.5575 968 53.0899 1186.97 490.553
3018 0 81.16 12.8635 1044 53.0268 1186.29 488.732
3019 0 82.0955 11.7546 965 54.1596 1186.04 489.446
3020 0 88.0982 13.7006 1207 51.9362 1186.47 489.262
3021 0 90.1595 11.524 1039 54.1819 1185.67 486.106
3022 0 91.2698 12.7753 1166 53.235 1186.1 482.513
3023 0 95.0829 14.3349 1363 52.0455 1186.21 484.366
3024 0 99.2212 11.7112 1162 54.6738 1186.24 480.217
3025 0 100.13 11.6548 1167 54.8449 1185.48 476.862
3026 1 54.0663 10.4686 566 55.6307 1186.17 501.767
3027 0 54.1603 8.82565 478 58.1004 1186.64 498.544
3028 0 58.2774 10.4843 611 55.2799 1186.41 501.524
3029 0 61.0935 12.6691 774 54.0943 1186.33 497.207
3030 0 63.2608 12.0454 762 54.2664 1187.01 499.026
3031 0 64.1419 11.6305 746 55.004 1186.87 496.574
3032 0 66.1938 11.8289 783 54.8352 1186.85 493.673
3033 0 69.171 13.2715 918 53.2233 1186.93 493.605
3034 0 69.2094 11.7325 812 55.2845 1186.85 491.841
3035 0 74.1546 11.1389 826 54.9891 1186.5 491.012
3036 0 73.1566 9.81457 718 56.7967 1186.44 491.008
3037 0 77.1659 11.5725 893 54.9989 1186.68 489.605
3038 0 81.2436 12.2348 994 53.7304 1187.52 490.069
3039 0 82.2222 12.7095 1045 53.2163 1186.86 485.751
3040 0 84.1677 12.0711 1016 54.0226 1186.91 486.944
3041 0 90.1177 12.9275 1165 52.3185 1187.04 485.185
3042 0 91.2574 12.3935 1131 53.3148 1187.31 483.934
3043 0 96.2653 12.0708 1162 52.8967 1186.95 484.197
3044 0 96.2421 12.6868 1221 52.7502 1186.44 482.206
3045 1 42.0492 8.89435 374 53.8155 1187.9 508.468
3046 0 43.1668 10.3783 448 53.4062 1187.57 506.154
3047 0 47.0789 8.51761 401 54.1247 1187.65 506.254
3048 0 48.0842 10.6272 511 52.5793 1187.25 504.268
3049 0 50.0486 12.5678 629 50.5167 1187.54 501.8
3050 0 51.0466 14.2419 727 48.8831 1187.44 501.933
3051 0 53.1241 13.6661 726 49.1419 1186.74 500.49
3052 0 55.0451 9.5013 523 52.3499 1186.94 499.679
3053 0 55.0491 11.5715 637 50.8148 1187.31 498.524
3054 0 58.1115 10.0152 582 52.4691 1186.97 497.16
3055 0 59.0617 11.6488 688 50.8779 1187.08 498.557
3056 0 62.2483 9.65488 601 51.8369 1187.11 499.294
3057 0 62.0774 12.5811 781 49.2881 1187.13 499.408
3058 0 66.0809 12.0458 796 49.9083 1186.7 493.775
3059 0 69.186 12.7193 880 49.0466 1186.33 495.344
3060 0 71.0985 13.1648 936 48.5256 1186.43 493.28
3061 0 73.1078 12.7346 931 48.5951 1186.58 493.415
3062 0 76.0473 12.7684 971 48.3677 1187.24 492.5
3063 0 79.0881 10.9372 865 50.1087 1186.54 489.193
3064 0 81.0851 10.5198 853 50.0188 1186.77 489.055
3065 0 87.1875 11.7219 1022 49.0656 1186.77 486.139
3066 0 88.116 12.0409 1061 48.6183 1186.73 484.216
3067 0 89.0837 12.898 1149 48.4256 1186.86 484.07
3068 0 90.0823 14.187 1278 47.7958 1186.44 481.565
3069 0 97.0479 11.6437 1130 49.0398 1186.78 483.294
3070 0 98.0741 11.7972 1157 49.5065 1186.53 478.235
3071 1 56.1848 10.4833 589 49.2733 1186.43 502.788
3072 0 58.0456 10.9397 635 49.0315 1186.59 504.039
3073 0 59.1184 9.38795 555 50.5946 1186.96 501.968
3074 0 62.032 11.5424 716 49.4567 1187.29 495.686
3075 0 64.0622 11.5669 741 49.1134 1187.37 499.324
3076 0 66.1633 12.8168 848 48.7064 1187.05 497.169
3077 0 65.0574 10.0834 656 50.9162 1186.52 494.651
3078 0 71.0724 12.4099 882 48.7211 1187.34 495.744
3079 0 70.1818 12.2396 859 48.8568 1187.19 494.099
3080 0 72.1847 12.6343 912 48.6349 1186.86 491.864
3081 0 74.1565 11.9612 887 49.3067 1186.7 489.855
3082 0 79.1268 13.4215 1062 47.8267 1187.35 491.652
3083 0 80.104 11.0981 889 50.0079 1186.69 490.108
3084 0 79.1191 10.8571 859 50.6345 1186.89 485.702
3085 0 85.1238 12.9811 1105 48.2 1186.21 486.066
3086 0 90.0919 12.7203 1146 48.226 1186.34 485.964
3087 0 86.1642 10.8514 935 50.7251 1186.4 481.578
3088 0 94.1337 13.9801 1316 47.9126 1187.09 480.119
3089 0 97.1758 11.8034 1147 49.8256 1186.15 479.199
3090 0 99.1782 13.4909 1338 48.2937 1186.26 477.662
3091 0 102.127 13.0328 1331 48.9196 1186.75 474.651
3092 0 104.336 11.6738 1218 50.3112 1186.43 470.878
3093 0 106.189 11.941 1268 49.9645 1186.8 471.02
3094 0 114.103 12.217 1394 49.7059 1186.5 468.689
3095 0 114.261 11.6487 1331 50.1953 1186.49 473.769
3096 1 64.0897 10.2825 659 50.176 1186.52 497.654
3097 0 64.0573 8.97633 575 51.2557 1186.67 497.783
3098 0 69.1184 11.9794 828 48.9577 1186.31 494.771
3099 0 68.084 7.37325 502 52.6853 1186.3 493.108
3100 0 72.0686 11.0034 793 50.2598 1186.49 490.232
3101 0 73.064 13.6729 999 48.035 1186.17 490.423
3102 0 75.188 8.8179 663 51.9367 1185.95 488.885
3103 0 77.131 11.1888 863 50.4716 1186.16 485.839
3104 0 83.097 13.057 1085 48.271 1186.62 486.667
3105 0 86.188 10.5931 913 50.0449 1186.56 481.732
3106 0 88.1018 12.5423 1105 48.5919 1186.35 482.943
3107 0 93.1416 12.4864 1163 48.9372 1187.47 481.559
3108 0 99.2454 13.1593 1306 47.9449 1187.48 481.944
3109 1 58.1552 12.3291 717 47.4519 1186.86 501.388
3110 0 58.0369 10.6312 617 48.8784 1187.59 500.673
3111 0 57.0877 9.12631 521 50.4319 1187.07 498.086
3112 0 64.0992 13.1671 844 46.372 1187.32 500.932
3113 0 64.1651 11.3925 731 48.1053 1186.59 498.86
3114 0 64.0937 7.1926 461 51.7375 1186.22 497.282
3115 0 68.2358 13.424 916 46.4596 1187.11 493.832
3116 0 67.1106 10.356 695 49.5784 1186.78 491.593
3117 0 70.1491 10.1356 711 49.5148 1186.54 490.453
3118 0 75.2201 10.0106 753 49.1501 1186.5 491.4
3119 0 75.19 11.8367 890 48.0494 1186.98 485.51
3120 0 78.0298 10.8164 844 48.9088 1187.47 486.929
3121 0 81.0695 9.41168 763 49.8781 1187.09 483.62
3122 0 84.1673 12.19 1026 47.8177 1187.49 485.976
3123 0 88.1908 12.1328 1070 48.0748 1187.42 482.041
3124 0 91.1961 10.6584 972 49.0432 1187.06 484.906
3125 0 90.1908 9.44664 852 50.2606 1187.59 477.246
3126 0 93.1938 8.72375 813 50.6224 1186.92 476.764
3127 0 101.178 10.4667 1059 49.0434 1187.46 479.3
3128 0 102.191 11.185 1143 48.7962 1187.14 474.467
3129 0 107.237 11.0036 1180 48.8203 1186.87 473.299
3130 1 59.0505 9.60195 567 49.4409 1186.38 496.108
3131 0 59.0695 10.0729 595 48.5311 1186.36 498.462
3132 0 60.0987 11.6974 703 47.7895 1187.24 495.061
3133 0 62.2309 12.068 751 47.7923 1186.45 493.107
3134 0 64.0646 14.142 906 46.021 1186.01 491.841
3135 0 66.1243 12.5521 830 47.3675 1186.57 491.254
3136 0 66.0624 7.79565 515 50.5748 1185.63 491.707
3137 0 73.0442 10.5005 767 48.4628 1186.54 485.656
3138 0 74.1329 11.5199 854 47.452 1186.9 485.74
3139 0 77.154 12.7019 980 46.349 1186.67 484.697
3140 0 80.1102 12.5951 1009 46.3459 1186.68 487.358
3141 0 83.0971 10.5299 875 47.9931 1186.94 481.274
3142 0 84.0871 9.95397 837 48.5986 1186.87 481.143
3143 0 91.1122 11.2279 1023 47.0225 1186.67 482.394
3144 0 92.1426 11.3194 1043 47.395 1185.96 479.403
3145 0 95.2242 9.5879 913 48.3702 1185.67 480.821
3146 0 98.1558 11.5938 1138 47.1678 1186.21 475.854
3147 0 101.127 10.0566 1017 48.1662 1185.61 474.308
3148 0 103.304 12.3035 1271 46.7923 1185.43 471.142
3149 0 110.153 13.2906 1464 46.0171 1185.18 473.744
3150 0 111.207 11.2493 1251 47.7042 1185.66 468.625
3151 0 115.28 10.9126 1258 47.4205 1185.37 474.491
3152 0 120.144 10.9369 1314 47.6552 1185.26 468.324
3153 1 61.0797 8.75905 535 48.5196 1185.1 497.794
3154 0 64.1322 10.8994 699 46.8856 1185.58 495.516
3155 0 63.173 10.6058 670 47.2239 1185.88 492.7
3156 0 68.1022 6.85734 467 49 1184.91 496.859
3157 0 72.1085 9.90175 714 46.9958 1185.07 492.155
3158 0 72.0692 10.1708 733 47.6548 1185.47 488.446
3159 0 75.107 11.8364 889 46.108 1185.65 490.029
3160 0 78.0892 9.45073 738 47.9458 1184.95 485.355
3161 0 80.1296 12.0305 964 45.9938 1184.33 485.58
3162 0 83.2151 12.6179 1050 45.4857 1184.98 484.94
3163 0 87.2051 11.02 961 46.9116 1185.31 486.508
3164 0 87.1484 12.45 1085 46.3318 1185.6 478.709
3165 0 90.2205 10.1307 914 48.2319 1185.71 483.286
3166 0 92.1181 10.8882 1003 47.8365 1184.96 482.889
3167 0 96.2635 11.7698 1133 47.2992 1185 477.546
3168 0 98.1245 10.3032 1011 48.2502 1185.2 480.735
3169 0 104.171 13.2186 1377 46.2585 1185.75 478.045
3170 0 107.324 11.9824 1286 47.2325 1185.08 477.715
3171 0 111.342 11.4871 1279 47.613 1185.21 476.098
3172 1 58.2739 9.72992 567 49.0035 1185.02 494.58
3173 0 61.1367 12.2185 747 47.3802 1184.98 495.739
3174 0 63.1183 11.7874 744 48.0081 1184.73 493.042
3175 0 65.1997 11.2117 731 48.3406 1184.53 493.137
3176 0 68.1426 11.065 754 48.1021 1184.55 492.448
3177 0 71.1446 12.9876 924 46.2955 1185.04 493.381
3178 0 72.18 10.0859 728 48.5385 1185.01 491.964
3179 0 72.1907 12.9102 932 46.6964 1185.46 492.877
3180 0 78.1424 13.2194 1033 46.0436 1184.86 490.775
3181 0 81.0981 10.7894 875 48.2446 1184.31 490.294
3182 0 83.1387 12.3288 1025 46.9766 1184.43 486.094
3183 0 85.1138 11.4435 974 48.078 1184.86 486.081
3184 0 86.1293 11.8775 1023 47.5543 1185.24 486.372
3185 0 92.2076 14.3806 1326 45.0732 1184.59 488.625
3186 0 93.2274 11.7455 1095 47.6676 1185.47 482.983
3187 0 99.2128 11.9541 1186 47.6636 1184.76 479.18
3188 0 100.117 12.8449 1286 47.402 1185 477.853
3189 0 105.172 12.8171 1348 47.5831 1185.16 476.162
3190 1 55.0523 10.154 559 48.7156 1184.57 505.335
3191 0 58.0759 10.8479 630 48.8238 1184.27 499.976
3192 0 58.04 8.32185 483 51.0766 1184.87 498.395
3193 0 61.056 11.039 674 48.454 1184.42 503.39
3194 0 61.0423 14.2524 870 47.0701 1184.24 494.451
3195 0 65.1512 11.6191 757 48.7979 1184.62 496.864
3196 0 67.0889 10.5383 707 49.5658 1184.6 496.723
3197 0 67.1037 11.8622 796 48.809 1184.65 497.089
3198 0 70.1524 12.4728 875 48.2629 1184.84 493.521
3199 0 72.1316 12.2831 886 48.8916 1184.5 492.535
3200 0 76.1485 13.4999 1028 47.2335 1184.32 492.912
3201 0 77.0725 12.0795 931 48.9356 1184.86 491.544
3202 0 79.0976 11.6059 918 49.4423 1185.43 489.315
3203 0 82.1696 12.4864 1026 48.6998 1185.31 488.369
3204 0 86.1104 10.5911 912 50.1809 1185.04 488.341
3205 0 91.1632 12.4502 1135 48.5956 1185.4 483.828
3206 0 93.1272 10.9313 1018 49.6326 1185.08 486.401
3207 0 96.1062 11.8203 1136 49.1461 1184.93 482.354
3208 1 50.0781 7.70797 386 51.5414 1184.43 506.674
3209 0 54.0989 10.5178 569 49.5923 1185.13 503.047
3210 0 52.0683 12.1571 633 49.3365 1185.31 501.092
3211 0 58.1225 11.5618 672 49.1443 1184.59 501.775
3212 0 58.0505 12.024 698 49.0544 1184.88 499.702
3213 0 61.1494 10.2536 627 50.3142 1184.98 498.649
3214 0 61.1413 12.1195 741 49.2807 1184.05 496.27
3215 0 62.1281 14.7115 914 47.3293 1184.98 498.138
3216 0 66.0976 12.3 813 49.1673 1184.98 493.736
3217 0 70.0848 12.1139 849 48.8445 1184.52 494.62
3218 0 71.1522 11.9603 851 49.2045 1184.5 493.13
3219 0 71.1794 11.9698 852 49.6854 1184.83 490.163
3220 0 75.1383 11.592 871 49.6257 1185.04 488.505
3221 0 73.1513 10.3621 758 51.0858 1184.92 486.309
3222 0 84.1382 15.5934 1312 46.2607 1185.01 487.193
3223 0 82.1496 10.6513 875 50.7246 1185.41 483.806
3224 0 84.1019 12.6394 1063 49.3829 1186.08 483.948
3225 0 88.0909 9.94427 876 51.1644 1186.26 483.009
3226 0 91.3106 12.2549 1119 49.6899 1185.82 482.433
3227 0 91.2277 12.3756 1129 49.7972 1185.57 485.354
3228 1 53.1446 10.876 578 49.8183 1185.59 503.31
3229 0 55.0916 10.0923 556 50.5468 1186.3 501.297
3230 0 54.1449 12.9283 700 49.2371 1186.29 496.129
3231 0 56.1106 10.7288 602 50.6993 1186.75 499.359
3232 0 58.164 10.6595 620 50.9903 1186.3 498.969
3233 0 60.0677 9.12304 548 52.1387 1186.39 497.9
3234 0 64.1015 13.2914 852 48.6127 1186.67 497.725
3235 0 66.2189 11.311 749 50.012 1185.84 494.944
3236 0 67.1285 11.7983 792 49.6528 1186.36 492.871
3237 0 67.0928 10.6569 715 51.021 1186.58 490.617
3238 0 71.0965 12.1525 864 50.0613 1185.34 491.696
3239 0 78.2125 12.3637 967 49.3588 1185.66 488.337
3240 0 76.274 11.144 850 50.7976 1185.92 487.216
3241 0 81.1327 11.586 940 50.217 1185.91 488.981
3242 0 84.1322 11.9455 1005 50.1284 1186.47 486.724
3243 0 87.1361 11.3845 992 50.7208 1185.89 488.058
3244 0 88.1804 13.7559 1213 49.3001 1185.69 486.08
3245 0 92.2981 11.8529 1094 51.1252 1186.31 481.611
3246 0 95.1854 12.8486 1223 50.5119 1186.19 483.948
3247 0 97.2277 15.294 1487 48.8964 1186.52 479.892
3248 0 101.195 11.6211 1176 51.8878 1185.73 483.868
3249 0 103.157 13.9787 1442 50.3884 1185.78 478.595
3250 1 54.1374 11.3785 616 52.3247 1185.97 503.323
3251 0 56.0613 12.1296 680 51.7191 1185.91 506.297
3252 0 56.0456 10.5628 592 53.4071 1186.4 503.353
3253 0 58.1308 11.7494 683 52.9927 1186.37 501.612
3254 0 65.0641 12.1111 788 52.4086 1186.03 501.797
3255 0 65.0616 13.956 908 50.8921 1185.83 499.948
3256 0 68.0483 13.608 926 51.0173 1186 501.274
3257 0 72.0648 13.7654 992 51.499 1184.95 497.387
3258 0 71.0721 10.8763 773 54.1863 1184.66 499.116
3259 0 75.1062 13.3278 1001 52.3077 1184.66 495.249
3260 0 77.0735 13.7142 1057 52.122 1184.97 494.249
3261 0 80.1097 14.4052 1154 51.5945 1185.25 493.001
3262 0 84.0713 13.9643 1174 51.7973 1184.65 495.233
3263 0 85.074 12.6125 1073 53.589 1184.19 490.158
3264 0 87.1339 12.5324 1092 54.0641 1184.41 490.527
3265 0 91.1683 12.0327 1097 54.5934 1184.07 488.678
3266 0 94.1854 14.1742 1335 52.3506 1183.74 489.174
3267 0 96.1559 13.2389 1273 53.6214 1183.85 486.606
3268 0 100.102 13.7659 1378 52.9049 1183.48 486.274
3269 1 53.0301 10.4092 552 55.4855 1183.56 507.255
3270 0 55.2311 13.9233 769 53.1886 1183.3 504.52
3271 0 57.027 11.5384 658 54.848 1182.99 506.047
3272 0 60.0495 11.8735 713 54.7377 1183.23 502.062
3273 0 62.0989 12.4318 772 54.4495 1182.65 499.579
3274 0 63.053 13.1477 829 54.1013 1182.57 498.587
3275 0 67.0625 13.987 938 52.9371 1182.28 497.744
3276 0 69.0663 14.0879 973 52.74 1182.04 498.123
3277 0 71.1102 11.5173 819 54.9096 1182.39 497.932
3278 0 73.1232 12.8277 938 54.0821 1182.29 493.581
3279 0 75.0428 12.4063 931 54.3695 1182.07 494.474
3280 0 77.189 12.0224 928 54.7101 1182.74 491.366
3281 0 80.0964 12.7721 1023 54.2395 1182.45 489.797
3282 0 82.1212 12.1041 994 54.7445 1182.35 488.932
3283 0 88.0874 15.4733 1363 51.8701 1182.41 487.744
3284 0 87.1815 13.2597 1156 54.1479 1182 483.016
3285 0 92.2299 12.3387 1138 54.6942 1182.31 481.944
3286 0 94.1047 16.2054 1525 51.4846 1181.63 481.976
3287 0 97.0554 12.6835 1231 54.8749 1182.01 479.213
3288 1 50.0237 12.654 633 54.139 1182.89 503.158
3289 0 51.11 12.1111 619 55.6769 1182.12 502.069
3290 0 53.0894 7.62864 405 58.8667 1182.53 503.281
3291 0 55.0206 11.7229 645 56.1147 1182.95 500.496
3292 0 57.0352 11.7296 669 55.8879 1182.88 497.909
3293 0 60.0444 12.9904 780 54.4372 1182.3 496.501
3294 0 59.3382 11.4597 680 56.1868 1181.6 496.643
3295 0 64.0515 13.3174 853 53.9871 1181.66 496.482
3296 0 63.1811 12.7253 804 54.9639 1181.72 494.403
3297 0 67.1912 11.9658 804 55.7102 1182.5 493.096
3298 0 69.0885 11.8544 819 55.1819 1181.68 492.785
3299 0 69.0436 12.4269 858 55.4464 1182.84 492.158
3300 0 75.0518 13.7238 1030 53.967 1183.15 487.082
3301 0 77.09 12.894 994 54.7032 1183.37 488.397
3302 0 81.039 12.6853 1028 54.9971 1182.64 484.249
3303 0 83.1038 14.6804 1220 53.2279 1182.83 486.435
3304 0 88.0501 12.9131 1137 55.1064 1183.37 482.982
3305 0 87.1438 12.8294 1118 55.4642 1183.26 482.653
3306 0 93.1945 12.1037 1128 56.289 1183.69 478.112
3307 0 96.2207 13.0117 1252 55.7412 1183.36 477.367
3308 1 50.0467 11.1096 556 56.0648 1184.14 502.135
3309 0 50.0321 11.0929 555 56.0973 1184.1 502.261
3310 0 52.1206 12.7397 664 55.3539 1183.01 499.386
3311 0 54.0897 12.849 695 54.9381 1183.94 496.681
3312 0 54.068 10.5238 569 57.6468 1184.3 495.612
3313 0 58.0534 10.3353 600 57.7417 1184.26 492.545
3314 0 59.1974 11.5208 682 56.824 1183.79 492.997
3315 0 62.0334 11.3004 701 56.1355 1184.06 491.18
3316 0 65.1258 12.115 789 55.5805 1183.58 490.736
3317 0 67.2165 12.5713 845 54.8473 1184.54 488.264
3318 0 68.0895 12.2045 831 55.4404 1183.46 487.437
3319 0 71.1675 11.213 798 56.4887 1184.64 485.971
3320 0 76.2126 13.7904 1051 53.254 1184.01 484.647
3321 0 76.1082 13.8356 1053 54.0152 1184.83 484.618
3322 0 79.1049 10.6441 842 56.715 1185.17 484.195
3323 0 83.1781 11.9863 997 55.7513 1185.26 481.813
3324 0 84.2818 11.509 970 56.2742 1185.58 481.956
3325 0 89.1988 13.4755 1202 54.3394 1185.46 481.364
3326 1 45.0194 13.2387 596 54.0034 1185.82 501.596
3327 0 46.0602 11.9626 551 54.9419 1185.55 501.441
3328 0 52.1377 10.6832 557 55.7163 1186.1 499.939
3329 0 52.1164 10.2847 536 56.7892 1185.52 498.789
3330 0 53.101 11.2992 600 55.1933 1185.64 499.498
3331 0 53.0673 11.0237 585 56.4735 1186.11 494.412
3332 0 57.1145 12.3261 704 54.3622 1185.63 496.057
3333 0 59.1269 10.08 596 56.4597 1185.34 494.404
3334 0 61.1638 12.0006 734 54.4918 1185.96 493.699
3335 0 61.0775 11.0188 673 55.636 1185.88 493.637
3336 0 65.0931 11.1686 727 54.6094 1185.67 494.955
3337 0 65.1431 9.54821 622 56.4276 1185.46 489.355
3338 0 70.0555 11.3481 795 54.3107 1185.53 487.569
3339 0 74.1268 13.0587 968 52.186 1185.54 490.937
3340 0 77.1076 12.4501 960 52.7115 1185.24 489.621
3341 0 79.189 12.5649 995 52.7126 1185.5 483.856
3342 0 81.1464 11.5101 934 53.6702 1185.46 485.688
3343 0 87.1664 11.2314 979 53.5363 1184.96 483.445
3344 1 44.1676 10.4375 461 53.9848 1186.69 502.746
3345 0 49.1017 10.1422 498 53.3173 1186.28 503.414
3346 0 50.1166 11.0143 552 53.913 1186.01 499.438
3347 0 51.0668 10.594 541 54.1035 1185.91 497.281
3348 0 54.1246 11.3257 613 53.2349 1185.64 498.871
3349 0 54.2852 10.3343 561 53.8984 1185.85 497.061
3350 0 55.1185 12.2101 673 52.9376 1185.19 495.568
3351 0 61.2364 13.5704 831 50.3345 1185.53 495.903
3352 0 62.1662 12.1931 758 51.3931 1184.8 493.975
3353 0 62.1487 11.0863 689 53.0624 1184.9 494.732
3354 0 65.1129 14.0832 917 50.1898 1185.01 492.977
3355 0 64.2578 11.236 722 53.1496 1184.97 493.375
3356 0 71.3109 10.896 777 52.7259 1184.19 492.625
3357 0 80.1836 11.9975 962 50.5021 1184.6 495.338
3358 0 71.1699 11.9011 847 52.3211 1183.83 489.826
3359 0 75.1375 11.632 874 52.2986 1184.32 489.262
3360 0 85.1455 13.5885 1157 49.0311 1184.27 492.912
3361 0 77.1086 11.9312 920 52.3522 1183.22 485.58
3362 0 83.4451 11.4447 955 52.6366 1184.19 484.774
3363 0 87.0759 12.4719 1086 51.6547 1183.56 483.903
3364 0 87.091 12.0678 1051 52.2854 1183.6 477.968
3365 0 91.1805 11.713 1068 52.7022 1184.35 481.434
3366 0 95.2904 12.1628 1159 52.0121 1183.59 483.9
3367 0 98.1983 11.8027 1159 52.7774 1184.27 479.295
3368 1 47.05 9.35176 440 54.6545 1183.91 449.048
3369 0 55.2125 10.034 554 54.2888 1184.48 502.904
3370 0 58.1319 10.373 603 53.7662 1184.47 499.743
3371 0 58.0883 10.3463 601 54.0666 1184.68 497.163
3372 0 70.2953 12.4617 876 50.6256 1184.05 496.498
3373 0 62.2031 12.6521 787 52.1474 1184.09 495.334
3374 0 74.1738 11.3382 841 51.3389 1184.57 499.668
3375 0 76.3516 14.263 1089 49.0496 1184.36 495.419
3376 0 80.3334 12.8963 1036 49.7259 1184.89 496.858
3377 0 80.207 11.7945 946 51.3192 1183.9 493.014
3378 0 82.2284 14.3016 1176 48.7976 1184.01 491.114
3379 0 86.1081 13.634 1174 49.2334 1184.05 492.454
3380 0 89.1988 12.545 1119 49.9357 1183.86 489.776
3381 0 88.1635 12.1479 1071 50.6545 1184.33 487.8
3382 0 91.2835 13.7812 1258 49.2925 1184.44 488.503
3383 0 97.2392 13.801 1342 48.8249 1183.77 486.728
3384 0 91.268 10.902 995 52.4462 1183.74 478.209
3385 1 3 5.33333 16 51 1183.62 473.188
3386 1 0 0 0 -nan -nan -nan
3387 0 51.1096 9.09809 465 54.1527 1184.36 497.318
3388 0 55.1211 13.8241 762 49.9816 1185.07 499.907
3389 0 56.0661 10.88 610 52.5639 1184.3 496.197
3390 0 62.2534 14.5374 905 48.789 1184.36 500.034
3391 0 64.134 14.61 937 48.3629 1184.43 499.028
3392 0 65.2019 11.7021 763 51.0197 1185.07 498.57
3393 0 70.1259 14.5168 1018 48.2564 1184.81 498.307
3394 0 68.1006 11.7473 800 51.525 1184.78 494
3395 0 70.1809 10.7152 752 52.8431 1184.6 492.226
3396 0 75.1711 16.2562 1222 47.6039 1184.97 489.314
3397 1 88.1713 11.523 1016 50.5413 1185.12 489.911
3398 1 76.0452 12.6635 963 51.5981 1184.67 487.99
3399 0 79.087 11.9109 942 51.7792 1185.36 489.304
3400 0 88.1772 13.7791 1215 49.9259 1185.31 485.657
3401 0 90.2501 14.1053 1273 49.4108 1184.13 488.047
3402 0 92.2659 15.0001 1384 49.2825 1184.72 487.178
3403 0 96.3488 14.707 1417 49.6358 1184.99 482.623
3404 0 100.114 12.5358 1255 51.5896 1184.84 484.555
3405 1 46.0896 11.4993 530 54.2755 1184.55 455.54
3406 0 42.0429 7.8967 332 57.506 1184.45 454.482
3407 0 42.0337 6.87544 289 58.1315 1183.96 453.315
3408 1 11.0028 6.81642 75 38.5467 1185.33 532.6
3409 0 10.0044 6.09735 61 39.7541 1185.48 531.508
3410 0 11.0034 3.63525 40 41.375 1185.25 532.45
3411 0 11.0024 2.99933 33 41.2121 1185.24 532.939
3412 0 2 4 8 39.75 1185.12 527.875
3413 0 11.0094 8.99229 99 38.0505 1186.08 533.242
3414 0 11.0069 9.90285 109 37.6422 1184.51 531.284
3415 0 10.0008 1.59987 16 42.6875 1186.44 534.875
3416 0 3 11.6667 35 38.7143 1183.91 526.829
3417 0 13.0841 9.01859 118 38.9492 1185.68 530.881
3418 1 1 7 7 40.2857 1185.14 526.857
3419 1 12.0096 9.65897 116 38.7069 1185.23 532.371
3420 0 13.0341 5.2171 68 39.8382 1185.26 532.103
3421 0 12.0105 11.7398 141 37.9433 1185.03 531.929
3422 0 11.0768 6.5001 72 40.0694 1184.92 530.514
3423 0 12.1728 6.40775 78 40.1538 1186.08 531.782
3424 0 13.007 4.84356 63 41.5556 1185.37 532.286
3425 0 13.0123 8.14614 106 39.6792 1184.7 531.311
3426 0 14.003 10.2121 143 39.6294 1184.09 531.776
3427 0 13.0099 2.84399 37 42.3514 1184.35 528.568
3428 0 13.004 2.23008 29 43.7586 1184.52 532.724
3429 0 13.0025 7.15245 93 40.7957 1184.43 532.269
3430 0 12.0085 3.49754 42 42.5 1185 532.429
3431 0 12.0164 7.48977 90 41.2333 1185.3 530.589
3432 0 14.0547 8.25348 116 41.0172 1184.5 530.466
3433 0 12.0178 5.82467 70 41.7286 1184.74 532.457
3434 0 14.0055 8.13968 114 40.2807 1184.86 532.175
3435 0 14.0136 7.63543 107 41.0654 1184.58 530.748
3436 0 14.0626 5.54663 78 42.641 1184.99 531.474
3437 0 14.0083 6.56752 92 41.5543 1186.22 530.674
3438 0 13.0255 5.52764 72 42.125 1185.4 531.111
3439 0 16.0649 10.7688 173 39.7572 1184.76 531.11
3440 0 15.0261 8.9178 134 41.2836 1185.2 530.112
3441 0 16.0124 5.808 93 42.4946 1185.05 530.882
3442 0 15.0829 14.3208 216 38.4907 1185.8 529.903
3443 0 17.0256 10.6898 182 40.4396 1185.31 529.687
3444 0 14.0085 6.2819 88 43.5909 1185.3 530.784
3445 0 14.0738 6.46593 91 43.5714 1185 529.494
3446 0 15.007 9.79546 147 42.2789 1185.42 529.973
3447 0 15.0101 5.19652 78 44.359 1185.95 531.769
3448 0 14.0568 12.4495 175 41.4857 1185.75 528.474
3449 0 15.0316 7.7171 116 43.9052 1185.52 530.534
3450 0 15.1151 7.74062 117 44.2564 1185.06 529.436
3451 0 16.0305 7.92241 127 44.3622 1185.02 530.677
3452 0 16.0157 7.11802 114 45.807 1185.65 531.061
3453 0 19.016 8.6769 165 45.1273 1185.1 528.697
3454 0 18.0319 7.87495 142 44.9789 1185.34 528.754
3455 0 18.0102 11.549 208 43.3702 1185.9 528.889
3456 0 18.01 8.55079 154 44.2468 1185.6 530.416
3457 0 16.1565 6.8084 110 46.7727 1185.4 530.618
3458 0 20.0542 9.47433 190 44.4105 1185.44 527.695
3459 0 17.0147 8.3457 142 46.1268 1185.93 529.092
3460 0 19.038 5.56781 106 47.7547 1185.75 527.113
3461 0 20.0149 11.4915 230 43.2609 1185.44 528.161
3462 0 20.0098 12.5439 251 43.1514 1185.25 526.653
3463 0 21.0572 9.78287 206 45.5583 1184.81 526.922
3464 0 20.0811 6.62314 133 47.391 1185.63 527.218
3465 0 19.0086 10.3637 197 45.3706 1185.85 527.183
3466 0 19.1183 8.52588 163 47.2699 1185.52 527.399
3467 0 23.1453 10.11 234 45.6325 1186.14 525.081
3468 0 21.0659 8.11738 171 47.7251 1186.23 526.561
3469 0 21.1939 9.01203 191 47.4764 1185.9 525.539
3470 0 20.0086 9.39595 188 47.1915 1185.18 526.308
3471 0 20.0169 11.4403 229 46.3319 1184.96 525.633
3472 0 22.0054 8.27069 182 48.9231 1185.83 526.615
3473 0 21.0055 8.42638 177 49.2034 1184.6 524.525
3474 0 22.1059 12.4853 276 46.0507 1184.7 524.888
3475 0 23.0773 9.1865 212 47.8585 1185.08 524.986
3476 0 23.0449 8.50515 196 48.5663 1185.26 524.602
3477 0 22.2149 8.86791 197 49.2132 1184.93 526.152
3478 0 22.0566 7.84344 173 50.3584 1185.18 526.902
3479 0 23.0257 11.5089 265 46.6868 1185.33 525.657
3480 0 22.0145 9.49374 209 48.7608 1185.59 526.847
3481 0 23.0455 9.6765 223 49.4574 1185.86 525.928
3482 0 23.0259 8.68587 200 50.65 1185.78 525.01
3483 0 24.0436 9.44116 227 49.7797 1186.11 524.665
3484 0 26.0653 8.24852 215 50.1256 1186.17 525.223
3485 0 25.0276 12.2265 306 48.1699 1185.79 522.634
3486 0 23.0478 11.3677 262 48.5802 1186.08 521.645
3487 0 26.0132 10.6869 278 48.5791 1185.88 524.396
3488 0 24.0108 10.4953 252 49.8095 1185.68 521.171
3489 0 25.0781 7.4567 187 52.2086 1186.45 524.572
3490 0 26.0206 12.4133 323 48.4365 1186.28 523.028
3491 0 26.0316 9.91102 258 50.3256 1185.91 524.961
3492 0 27.0892 9.74558 264 50.7879 1186.75 521.932
3493 0 26.0624 11.3957 297 50.6431 1187.11 523.35
3494 0 27.1043 8.043 218 52.9404 1186.39 524.468
3495 0 26.0141 11.2247 292 50.4315 1186.37 525.01
3496 0 28.0521 10.1597 285 50.9754 1186.61 524.951
3497 0 28.0211 11.2058 314 49.5382 1186.85 526.726
3498 0 28.0131 12.1729 341 49.4516 1186.36 524.328
3499 0 29.0487 11.4291 332 49.5723 1185.81 525.202
3500 0 28.0674 10.7954 303 50.9439 1185.88 526.323
3501 0 29.1013 10.8243 315 51 1186.05 527.073
3502 0 30.0268 11.7229 352 49.8949 1185.91 526.151
3503 0 30.0375 9.72118 292 51.8733 1185.55 527.168
3504 0 28.0265 8.67037 243 53.1152 1185.96 527.782
3505 0 28.034 10.3089 289 52.7301 1185.89 524.436
3506 0 31.0234 11.6686 362 51.4309 1185.67 526.329
3507 0 32.0874 11.4064 366 50.8689 1185.44 527.68
3508 0 32.0353 11.5498 370 52.0162 1185.38 525.068
3509 0 33.0214 12.6887 419 50.5585 1185.24 523.874
3510 0 32.0838 8.72716 280 54.9179 1185.62 527.211
3511 0 32.0156 11.4007 365 52.3671 1184.54 525.241
3512 0 32.091 10.5325 338 53.1243 1185.35 525.086
3513 0 35.1024 10.9109 383 52.3107 1185.69 524.366
3514 0 34.0482 12.4823 425 51.1012 1185.28 524.753
3515 0 31.0583 11.0115 342 53.5731 1184.98 526.617
3516 0 36.0452 10.9307 394 52.5914 1184.68 526.579
3517 0 34.0276 9.55108 325 55.0123 1184.56 525.917
3518 0 36.1191 10.1885 368 53.8886 1184.16 526.913
3519 0 36.0315 11.8507 427 52.9789 1183.94 525.389
3520 0 36.0175 11.2723 406 53.3498 1184.55 524.544
3521 0 36.0203 10.2165 368 54.5815 1184.33 525.677
3522 0 37.1002 12.1293 450 52.7311 1183.92 525.456
3523 0 37.0854 11.9454 443 53.3273 1184.52 524.192
3524 0 37.0306 9.74871 361 55.867 1183.86 524.762
3525 0 38.0728 11.3204 431 54.5684 1184.24 522.905
3526 0 39.0408 9.06743 354 56.3136 1185 525.345
3527 0 38.0496 12.6414 481 53.343 1184.78 522.341
3528 0 38.0379 10.7787 410 54.8902 1184.85 522.978
3529 0 37.0479 10.149 376 55.2686 1184.3 523.737
3530 0 40.0235 11.5432 462 53.1255 1184.74 524.312
3531 0 40.0396 10.5396 422 55.3697 1184.76 522.63
3532 0 40.0352 10.6906 428 54.8692 1184.56 520.28
3533 0 41.0304 12.4054 509 53.4656 1184.57 520.758
3534 0 41.0354 11.1855 459 54.2854 1184.75 521.224
3535 0 42.049 11.6531 490 53.7122 1184.9 520.076
3536 0 38.0177 8.81168 335 58.3522 1185.22 522.215
3537 0 42.0786 14.4254 607 51.2817 1184.6 520.348
3538 0 43.0216 12.5983 542 52.7325 1184.58 521.035
3539 0 41.0618 11.6166 477 54.6436 1184.87 518.943
3540 0 43.0341 12.1067 521 53.6027 1184.61 518.706
3541 0 43.0341 12.1067 521 53.6027 1184.61 518.706
3542 0 42.0774 9.36369 394 56.4112 1184.3 520.162
3543 0 44.0948 11.0671 488 54.4734 1184.64 519.461
3544 0 43.0657 12.2836 529 53.4896 1184.21 518.302
3545 0 44.0722 11.5038 507 54.3294 1184.26 518.538
3546 0 45.0215 11.861 534 54.4794 1184.89 518.648
3547 0 47.0575 12.3891 583 53.5626 1184.61 517.581
3548 0 46.1133 9.99711 461 56.3796 1184.57 520.076
3549 0 48.0206 10.7454 516 56.0213 1184.9 517.775
3550 0 47.1345 10.3746 489 56.9223 1184.71 519.022
3551 0 48.1428 12.2344 589 55.416 1184.12 515.854
3552 0 48.1116 11.1616 537 57.4246 1183.39 518.696
3553 0 49.1145 11.5444 567 57.7954 1183.73 516.61
3554 0 50.2021 13.0273 654 56.1361 1183.33 514.425
3555 0 48.3532 12.7396 616 57.8182 1183.22 516.291
3556 0 48.1957 9.77266 471 60.8811 1183.51 519.607
3557 0 47.4509 11.4855 545 59.6789 1184.19 519.855
3558 0 49.4426 13.1263 649 58.1418 1184.85 515.847
3559 0 47.6422 9.38244 447 62.7808 1184.03 517.438
3560 0 46.3955 12.1995 566 59.947 1184.1 516.364
3561 0 46.3855 12.1158 562 60.4431 1185.05 517.173
3562 0 47.8409 12.9387 619 59.0291 1184.87 516.506
3563 0 46.6955 11.136 520 61.2827 1184.27 518.875
3564 0 45.5945 11.6242 530 61.1358 1184.73 517.143
3565 0 47.5795 13.262 631 58.7163 1185 513.899
3566 0 50.6747 13.0242 660 59.253 1184.88 514.206
3567 0 48.3976 11.5708 560 60.8964 1184.91 514.693
3568 0 48.4948 13.1354 637 59.6107 1184.38 514.149
3569 0 46.6852 11.7596 549 61.2568 1185.07 515.732
3570 0 46.7364 10.3345 483 63.2112 1184.68 515.563
3571 0 50.8247 13.458 684 58.8158 1184.79 512.496
3572 0 47.3493 11.5102 545 61.7101 1185.15 515.031
3573 0 49.8676 10.4477 521 62.3244 1184.08 515.818
3574 1 132.181 6.92235 915 61.0415 1185.24 486.88
3575 0 132.28 6.83397 904 55.3684 1184.62 504.061
3576 0 140.27 4.4557 625 54.0896 1183.24 494.392
