time division length width area intensity CMx CMy
0 0 35.0692 9.98026 350 44.3343 1340.54 512.414
1 0 34.05 11.1601 380 42.9447 1341.1 514.292
2 0 35.0443 8.24672 289 45.9273 1340.68 513.834
3 0 35.1222 9.73743 342 44.576 1340.88 513.395
4 0 35.0691 9.78069 343 44.7405 1341 514.087
5 0 37.0321 10.9634 406 44.3768 1340.97 513.675
6 0 37.048 8.82638 327 47.682 1339.69 513.563
7 0 37.0468 8.88067 329 48.4347 1339.41 511.55
8 0 39.0392 10.3486 404 47.9158 1339.1 513.26
9 0 40.0221 9.46977 379 47.4802 1340.12 511.156
10 0 39.0248 10.173 397 45.9093 1340.65 510.64
11 0 44.0594 10.4858 462 45.9719 1339.67 514.491
12 0 42.0666 10.3883 437 46.6339 1339.96 510.14
13 0 43.0291 11.2249 483 46.0311 1339.81 512.263
14 0 49.1658 12.346 607 44.5173 1340.07 512.125
15 0 50.06 13.7635 689 44.0377 1339.49 511.321
16 0 49.0837 10.1052 496 47.7157 1339.38 506.861
17 0 49.06 10.5993 520 47.1692 1339.49 508.358
18 0 50.0866 11.9194 597 45.6281 1339.49 511.444
19 0 53.1038 11.6941 621 44.4847 1340.75 509.282
20 0 52.0592 10.4112 542 46.69 1339.66 510.17
21 0 56.185 10.1273 569 48.2636 1338.95 507.116
22 0 58.0485 13.4887 783 45.1609 1339.55 506.377
23 0 55.0431 10.1193 557 47.7217 1339.75 506.443
24 0 61.2027 11.9603 732 46.0301 1339.99 506.115
25 0 62.068 10.7141 665 47.7835 1339.55 502.895
26 0 64.1934 15.1573 973 44.483 1340.21 501.286
27 0 64.0518 11.0379 707 48.1782 1340.17 501.181
28 0 65.0521 11.6983 761 48.7911 1339.53 501.577
29 0 68.138 11.2419 766 49.0914 1340.04 497.62
30 0 70.0787 11.7297 822 48.2238 1340.56 498.882
31 0 73.0564 13.25 968 47.4174 1340.48 497.701
32 0 72.0922 13.8989 1002 46.7864 1341.11 496.179
33 0 78.1789 13.7889 1078 48.3776 1340.07 490.962
34 0 78.1177 11.7259 916 49.8592 1340.54 489.362
35 0 81.312 12.5812 1023 49.0147 1340.89 488.709
36 1 35.0408 7.13454 250 47.268 1340.39 515.68
37 0 36.0342 6.63259 239 49.6276 1339.65 512.126
38 0 38.0474 7.38552 281 49.2669 1339.66 512.811
39 0 40.0486 10.8119 433 44.9261 1340.73 513.827
40 0 40.0498 10.3371 414 45.1812 1340.69 514.222
41 0 41.0568 12.641 519 44.21 1340.94 511.987
42 0 42.166 11.1938 472 45.2903 1341.04 510.352
43 0 42.0616 10.3182 434 45.947 1341.16 509.297
44 0 42.1607 9.51122 401 46.9227 1340.76 506.087
45 0 41.0217 7.28883 299 49.9699 1339.91 505.334
46 0 46.026 9.42945 434 47.0507 1341.16 504.461
47 0 46.058 8.92354 411 47.9611 1341.01 503.219
48 0 50.1067 9.24027 463 47.1857 1340.96 506.957
49 0 52.037 8.6669 451 48.4324 1341.08 503.512
50 0 51.0814 8.69201 444 49.0113 1341.25 499.401
51 0 53.0395 9.84172 522 48.4904 1341.25 499.707
52 0 55.0441 9.50147 523 48.8547 1341.3 499.723
53 0 58.0385 10.8893 632 47.4304 1341.88 498.953
54 0 59.0671 10.0056 591 48.7563 1341.63 498.513
55 0 60.0466 8.41013 505 51.6218 1340.93 493.968
56 0 60.1321 9.39599 565 50.7982 1341.56 492.935
57 0 66.0747 9.12603 603 50.9187 1341.58 495.434
58 0 67.0376 11.322 759 48.6851 1342.35 493.988
59 0 69.0898 9.45147 653 51.6631 1341.65 490.354
60 0 69.089 9.90027 684 51.9181 1341.6 487.819
61 1 33.0562 9.65022 319 46.5799 1341.17 509.956
62 0 33.0459 6.99027 231 47.6753 1341.29 510.498
63 0 34.0596 8.16217 278 48.5324 1341.03 509.342
64 0 35.0824 7.46814 262 48.8397 1341.01 509.882
65 0 39.0534 8.29634 324 47.9414 1341.08 509.59
66 0 40.0333 8.59285 344 47.8052 1341.47 507.311
67 0 40.1018 13.5405 543 44.9761 1341.86 507.466
68 0 43.0347 9.13216 393 48.1094 1341.69 503.916
69 0 41.1042 8.68525 357 50.0924 1341.08 502.303
70 0 44.0476 7.40108 326 51.1288 1341.33 500.104
71 0 45.1278 7.24609 327 51.6972 1341.11 500.544
72 0 47.0168 9.69865 456 49.4123 1341.3 504.138
73 0 48.0229 7.91289 380 52.8711 1340.68 497.074
74 0 54.0454 9.86208 533 51.122 1341.23 496.428
75 0 57.0622 12.5828 718 49.6212 1340.79 500.107
76 0 59.0442 9.94171 587 52.0852 1341.07 497.286
77 0 56.0883 10.1804 571 52.7531 1341.09 494.399
78 0 65.1394 11.7748 767 51.5606 1340.37 498.467
79 0 65.0703 11.4953 748 51.2179 1341.34 492.83
80 0 69.1002 11.7655 813 50.5597 1341.85 495.415
81 0 65.0409 9.73233 633 54.3791 1341.46 487.408
82 0 73.071 8.7586 640 53.5156 1341.98 490.216
83 0 74.0712 8.88334 658 54.0973 1342.06 489.652
84 0 75.0346 8.676 651 54.6528 1342.11 486.335
85 0 80.0559 10.78 863 53.4287 1341.33 491.559
86 0 81.0497 12.6836 1028 52.2179 1341.71 488.29
87 0 84.0878 11.7734 990 53.4071 1341.75 485.626
88 0 88.1244 11.5292 1016 54.3652 1341.61 484.48
89 0 87.1067 10.2862 896 55.3013 1342.33 480.704
90 0 89.1856 9.68766 864 55.8438 1342.51 477.843
91 0 94.1733 11.7974 1111 54.0387 1342.63 478.753
92 1 42.059 7.82235 329 51.228 1342.03 501.505
93 0 48.115 9.10319 438 49.274 1342.34 504.582
94 0 46.0545 7.20886 332 51.7741 1342.3 499.015
95 0 48.1185 10.1624 489 50.002 1342.45 501.963
96 0 50.0606 9.08899 455 51.8967 1341.61 502.78
97 0 54.1096 8.96329 485 51.1381 1342.56 498.181
98 0 54.0983 10.37 561 51.9144 1341.9 499.05
99 0 53.1874 11.1493 593 51.1248 1342.52 495.03
100 0 58.0903 8.05642 468 54.4679 1342.04 493.53
101 0 59.071 10.3773 613 53.2104 1341.82 495.974
102 0 65.1541 8.97871 585 53.8838 1341.84 495.031
103 0 59.1354 9.92637 587 53.9557 1342.58 489.307
104 0 63.0403 8.12179 512 55.2012 1342.41 490.787
105 0 70.1247 9.79683 687 55.2154 1341.77 490.236
106 0 68.0684 6.99296 476 56.9244 1342.38 487.099
107 0 76.0776 9.80578 746 55.7172 1341.75 487.618
108 0 75.0533 8.80707 661 58.3464 1341.2 484.21
109 0 76.0972 8.67312 660 57.8348 1342.13 481.502
110 0 82.1072 9.31709 765 57.4758 1341.54 484.718
111 0 86.1255 8.56889 738 58.1043 1342.08 480.744
112 0 87.074 9.33689 813 56.8856 1342.73 479.843
113 1 43.0548 7.9666 343 52.481 1341.75 502.201
114 0 45.0147 5.86475 264 55.6061 1341.73 497.167
115 0 51.0604 11.1437 569 50.007 1342.01 501.434
116 0 46.1358 9.19027 424 50.5212 1342.74 500.167
117 0 49.0371 6.26057 307 54.1857 1342.2 497.287
118 0 55.0476 9.11938 502 51.5618 1342.33 496.723
119 0 51.0234 8.03552 410 53.1317 1342.43 495.902
120 0 56.0952 10.8031 606 51.4769 1342.23 496.685
121 0 58.0407 7.89101 458 53.9782 1342.21 492.557
122 0 60.0673 8.09093 486 54.0741 1342.65 484.568
123 0 60.0988 9.90037 595 53.8 1342.11 489.41
124 0 64.0729 9.30191 596 54.1946 1342.08 487.701
125 0 69.0986 11.158 771 52.524 1342.26 487.318
126 0 71.1151 9.64633 686 54.5933 1342.27 485.296
127 0 73.1656 9.34866 684 55.0789 1342.13 485.7
128 0 77.1525 10.9523 845 54.1183 1342.44 482.929
129 0 77.0839 9.5221 734 57.624 1341.7 480.579
130 0 83.1319 9.25036 769 57.0728 1341.46 484.599
131 0 85.091 9.33118 794 58.2456 1341.24 481.848
132 0 90.1271 9.06498 817 58.0661 1341.68 480.554
133 0 91.1598 9.80695 894 58.3613 1342.13 476.624
134 1 45.1417 5.60457 253 54.8972 1340.96 503.478
135 0 40.1003 8.42885 338 51.9438 1342.26 502.142
136 0 40.08 6.46208 259 53.7529 1342.69 497.614
137 0 39.0818 8.16236 319 52.9718 1342.42 498.652
138 0 39.0226 7.66222 299 54.4147 1342.18 497.311
139 0 49.0461 10.378 509 52.0334 1341.92 497.631
140 0 45.0195 7.06361 318 56.9434 1341.43 495.409
141 0 49.0087 7.14159 350 56.4371 1342.03 492.537
142 0 51.0142 8.37021 427 55.9508 1341.77 491.415
143 0 52.0325 11.8772 618 52.0259 1342.64 492.304
144 0 48.034 9.43082 453 54.4989 1342.85 490.898
145 0 52.2116 7.66113 400 56.6 1342.55 487.61
146 0 51.0859 7.7125 394 57.4365 1342.5 487.632
147 0 59.0239 11.7579 694 54.1628 1342.08 488.925
148 0 58.0816 8.71188 506 58.581 1341.43 485.767
149 0 63.076 7.68914 485 59.4742 1341.54 484.016
150 0 64.0454 8.13485 521 59.3954 1341.57 481.163
151 0 63.0526 9.54758 602 58.309 1342.14 479.811
152 0 62.0807 9.87424 613 58.8222 1341.96 478.465
153 0 62.0267 7.27106 451 62.4834 1341.78 473.368
154 0 71.0666 8.40057 597 61.2094 1341.44 478.784
155 0 70.122 7.45843 523 61.782 1342.55 471.966
156 0 72.119 6.22582 449 63.0802 1342.65 471.784
157 0 78.0506 9.77571 763 59.367 1342.67 471.56
158 1 25.0553 5.34817 134 56.5448 1341.91 497.157
159 0 27.0132 6.36725 172 56.4419 1341.4 496.709
160 0 33.1242 6.2794 208 57.1154 1341.06 499.125
161 0 36.0415 7.5746 273 56.8095 1341.07 499.073
162 0 35.027 6.28086 220 57.6273 1340.99 499.291
163 0 30.0241 6.46147 194 57.7113 1341.9 493.227
164 0 26.0222 9.22288 240 56.1083 1342.15 490.621
165 0 30.0641 8.01619 241 58.0913 1341.87 490.411
166 0 38.0331 5.36375 204 59.2598 1341.94 489.324
167 1 0 0 1 53 1342 471
168 1 54.0577 8.74991 473 54.9345 1342.12 493.655
169 0 55.0379 8.92113 491 54.5377 1342.18 489.02
170 0 52.0414 7.43638 387 57.832 1342.22 486.804
171 0 57.0817 10.0383 573 54.1902 1342.16 492.832
172 0 60.0319 10.4611 628 53.707 1342.5 488.664
173 0 69.0459 10.9348 755 52.0927 1343.23 490.323
174 0 68.1248 7.83855 534 57.0618 1342.5 486.361
175 0 67.0416 7.8608 527 56.7192 1342.83 483.592
176 1 32.0126 7.37211 236 48.4661 1342.8 508.636
177 0 35.0254 9.33607 327 49.1713 1341.98 509.214
178 0 32.0792 8.66605 278 49.7302 1342.02 508.694
179 0 32.0351 6.71138 215 53.9907 1341.83 502.4
180 0 35.0327 10.1334 355 51.4394 1341.4 506.713
181 0 39.0407 10.425 407 51.9484 1340.68 505.956
182 0 41.0459 7.08962 291 54.3849 1340.37 506.79
183 0 39.1154 9.33136 365 53.1945 1340.78 505.466
184 0 44.0472 9.67144 426 53.3521 1340.2 505.366
185 0 46.05 7.38328 340 53.7441 1340.46 507.618
186 0 47.0459 9.4801 446 53.1278 1340.63 503.489
187 0 46.0397 8.90536 410 54.9854 1340.12 502.215
188 0 50.0596 8.0504 403 56.1737 1339.34 504.04
189 0 49.0648 8.86582 435 56.9839 1338.95 502.409
190 0 54.0547 10.5449 570 55.1298 1338.79 501.893
191 0 56.071 10.1835 571 56.2329 1338.15 502.813
192 0 57.0558 9.95517 568 56.5968 1338.32 501.496
193 0 58.0855 7.19629 418 58.3876 1338.21 501.608
194 0 61.0677 11.3972 696 54.7399 1338.42 499.149
195 0 62.0462 10.4761 650 55.3062 1338.55 501.997
196 0 63.204 8.74944 553 56.7468 1338.9 501.054
197 0 65.1265 9.45852 616 57.7192 1338.03 498.731
198 0 70.0441 10.2079 715 57.1329 1338.24 498.028
199 0 70.0491 12.2057 855 55.4713 1338.18 497.722
200 0 74.0812 11.4604 849 55.8033 1338.33 498.198
201 0 73.2142 9.12391 668 59.1153 1337.76 496.198
202 1 38.0463 8.93648 340 52.8824 1338.03 516.344
203 0 36.0176 6.83 246 54.4797 1338.47 515.321
204 0 37.027 6.34671 235 55.4213 1337.86 516.774
205 0 39.0185 7.25298 283 56.5654 1337.49 512.442
206 0 42.0257 7.9951 336 53.9613 1338.29 514.443
207 0 44.0947 8.57246 378 54.9788 1337.56 513.688
208 0 44.0845 7.12268 314 56.5478 1337.22 515.583
209 0 46.0629 7.81539 360 55.1 1337.99 514.189
210 0 49.15 10.5595 519 52.3237 1338.05 514.832
211 0 48.0502 8.61599 414 54.9227 1338.05 511.676
212 0 48.1156 8.79133 423 56.6312 1337.5 509.532
213 0 55.1426 10.8446 598 53.9682 1336.98 511.667
214 0 57.1053 9.8765 564 55.0727 1336.34 513.56
215 0 56.1052 11.5319 647 54.1066 1336.73 512.181
216 0 57.2053 11.1004 635 54.9606 1336.77 508.742
217 0 60.0961 12.2138 734 54.7916 1335.98 507.593
218 0 61.1046 10.4902 641 57.1092 1335.81 506.512
219 1 126.283 9.33615 1179 61.7303 1336.18 474.606
220 0 128.427 11.3606 1459 59.4421 1336.24 474.935
221 0 132.435 13.0781 1732 57.9371 1336.53 473.983
222 0 133.385 9.29641 1240 60.8661 1336.26 478.438
223 0 131.196 7.36304 966 62.4928 1335.97 483.255
224 1 216.366 13.0381 2821 63.5144 1336.53 429.054
225 0 219.533 12.3535 2712 65.406 1336.82 420.065
226 1 148.649 10.4272 1550 61.8252 1336.52 464.326
227 0 150.359 10.2954 1548 63.4516 1336.55 455.113
228 0 155.177 10.6331 1650 63.0982 1335.82 458.552
229 0 155.24 8.00697 1243 66.029 1335.48 453.333
230 0 162.486 9.95779 1618 63.9487 1335.7 452.927
231 1 254.312 12.5987 3204 65.7278 1336.06 407.951
232 0 259.405 12.3783 3211 65.0666 1335.89 415.679
233 1 175.519 11.3321 1989 62.6868 1336.41 448.397
234 0 178.4 10.7455 1917 63.1388 1335.8 450.285
235 1 278.506 12.5096 3484 67.099 1335.82 394.612
236 0 286.514 14.3483 4111 65.1406 1335.92 391.617
237 0 294.831 13.2211 3898 66.521 1336.27 385.036
238 1 247.634 9.95419 2465 66.3801 1336.16 420.495
239 0 257.816 11.0621 2852 66.7738 1335.62 404.708
240 0 264.683 11.4703 3036 66.6459 1336.46 400.758
241 0 271.906 10.739 2920 67.0969 1336.66 398.451
242 0 280.759 12.2596 3442 66.1092 1337.36 387.92
243 0 282.623 6.47505 1830 66.4858 1336.05 429.192
244 0 280.729 6.52586 1832 66 1336.27 432.783
245 1 179.3 11.439 2051 61.6319 1336.66 449.41
246 1 60.0943 10.3504 622 56.0997 1336.41 504.17
247 0 62.0668 9.15143 568 57.6813 1336.98 499.683
248 0 64.0894 6.74058 432 60.1157 1336.39 499.644
249 0 69.0776 11.5667 799 55.7021 1337.01 498.772
250 0 71.1282 9.26496 659 58.7936 1336.92 496.311
251 0 71.1136 9.60435 683 58.183 1337.57 498.078
252 0 75.173 10.5889 796 57.848 1337.04 495.736
253 0 77.1246 11.6954 902 56.6142 1337.3 496.976
254 1 38.0888 9.97669 380 52.6421 1337.39 516.863
255 0 40.0423 10.389 416 52.7981 1337.4 515.144
256 0 42.0489 9.34626 393 55.3282 1336.96 513.593
257 0 43.018 7.55498 325 56.6615 1337.55 512.738
258 0 47.0527 10.9877 517 53.3598 1337.32 514.309
259 0 50.1346 10.4519 524 52.9198 1337.3 515.16
260 0 49.1838 10.2473 504 53.8552 1337.73 513.403
261 0 50.2291 10.3725 521 54.4875 1337.24 512.382
262 0 54.0965 10.9989 595 54.1513 1337.05 511.995
263 0 55.1176 10.7951 595 54.3697 1337.41 508.472
264 0 57.281 9.49704 544 55.9081 1337.48 508.737
265 0 57.0823 8.91695 509 58.2122 1337.17 505.45
266 0 58.1444 8.73686 508 57.4567 1336.87 506.276
267 0 63.0979 10.9037 688 54.6701 1337.52 505.538
268 0 66.1782 10.7437 711 54.4655 1337.6 505.826
269 0 67.1374 10.769 723 55.3513 1337.31 503.293
270 0 69.122 9.20112 636 57.25 1337.2 500.759
271 0 71.2755 11.1539 795 54.8843 1337.6 500.37
272 0 72.1566 9.77042 705 56.9617 1337.48 496.357
273 1 37.0408 8.90909 330 54.3061 1336.04 517.818
274 0 37.1165 7.70546 286 55.0245 1336.67 515.811
275 0 40.0675 9.3592 375 53.216 1336.48 515.744
276 0 42.0475 8.96605 377 53.2653 1336.49 515.642
277 0 45.0934 9.93493 448 52.6027 1336.47 515.058
278 0 43.1214 10.2965 444 52.3964 1337.15 511.331
279 0 45.0774 10.4487 471 52.9851 1336.11 512.796
280 0 47.0946 10.0011 471 53.6518 1336.07 512.824
281 0 48.2792 10.2114 493 53.1927 1336.48 510.004
282 0 50.1642 11.7614 590 51.778 1336.67 510.651
283 0 51.0559 10.5766 540 53.3907 1336.33 509.052
284 0 53.0681 11.212 595 53.0118 1335.94 508.903
285 0 55.0897 11.2907 622 53.0338 1335.43 506.518
286 0 58.0798 11.5531 671 52.1982 1335.7 507.87
287 0 59.1125 10.2178 604 53.6738 1335.94 507.912
288 0 59.0689 10.9025 644 53.5963 1335.68 505.994
289 0 63.1242 11.5328 728 52.7005 1335.68 505.335
290 0 64.0987 10.047 644 54.4379 1335.39 501.547
291 0 67.058 11.5124 772 52.7487 1335.6 502.211
292 0 67.0992 10.7751 723 53.3748 1335.55 501.837
293 0 71.1228 10.0249 713 53.5456 1335.92 501.907
294 0 73.1123 12.0773 883 52.0997 1335.67 499.86
295 0 74.1643 11.9869 889 52.0776 1336.71 494.402
296 0 76.2482 11.4494 873 52.701 1336.13 494.056
297 0 79.1986 11.4648 908 53.2764 1335.47 493.554
298 1 39.063 8.85749 346 54.289 1334.99 511.694
299 0 43.1243 9.94798 429 52.1702 1335.11 512.317
300 0 44.0447 9.87633 435 52.1287 1335.42 512.161
301 0 46.058 12.7231 586 49.6962 1335.22 511.304
302 0 45.0669 7.14493 322 55.3043 1334.58 513.531
303 0 44.0178 8.33753 367 55.1444 1334.82 510.035
304 0 51.0767 11.8449 605 50.5587 1335.19 509.319
305 0 50.0592 11.2267 562 52.1851 1334.63 507.728
306 0 52.1249 11.6835 609 51.6355 1335.34 508.718
307 0 54.0546 11.1924 605 52.6298 1334.85 506.269
308 0 55.0435 9.73776 536 54.4552 1334.47 505.877
309 0 57.0537 12.9352 738 51.5176 1335.17 502.53
310 0 57.0249 12.8365 732 51.6284 1335.14 504.173
311 0 60.0497 10.8077 649 53.5855 1334.8 502.43
312 0 62.0729 11.3576 705 53.2085 1335.56 500.943
313 0 64.0365 10.9 698 53.1934 1335.77 501.228
314 0 68.0872 12.1315 826 52.086 1335.08 500.723
315 0 68.0807 12.7496 868 52.4908 1334.58 496.743
316 0 71.094 11.6466 828 52.814 1335.18 496.786
317 0 75.2513 11.8138 889 52.144 1335.56 499.368
318 0 74.0541 12.0182 890 52.7944 1335.39 496.207
319 0 80.1159 13.805 1106 50.6727 1335.22 494.62
320 0 80.1756 11.2004 898 53.6993 1335.43 493.812
321 1 41.0839 11.9512 491 48.7862 1336.38 513.564
322 0 40.1905 8.43484 339 51.7227 1336.14 514.941
323 0 44.0557 10.2597 452 49.7898 1336.48 513.394
324 0 44.1434 10.5338 465 49.5871 1336.34 512.768
325 0 45.1379 10.8335 489 50.2045 1336.13 511.464
326 0 47.0937 12.507 589 47.7793 1335.78 512.173
327 0 49.0685 11.6776 573 48.9511 1335.37 511.03
328 0 49.0496 8.35889 410 52.1488 1334.63 512.149
329 0 51.0297 10.68 545 50.5688 1335.1 509.716
330 0 51.0938 9.10092 465 52.8 1334.83 507.785
331 0 53.1413 10.1804 541 51.5601 1335.26 507.575
332 0 54.0886 10.8711 588 51.4898 1335.02 509.767
333 0 56.1031 10.5342 591 51.9391 1335.75 504.367
334 0 57.064 11.0753 632 52.4256 1334.24 503.856
335 0 60.0345 11.3935 684 52.4137 1334.22 503.579
336 0 63.1635 9.64164 609 54.0854 1334.15 502.918
337 0 65.1536 11.6187 757 51.3474 1334.92 503.736
338 0 66.1113 11.6016 767 51.575 1335.07 502.22
339 0 67.1121 10.9518 735 52.8095 1335.06 500.201
340 0 69.2374 10.8612 752 52.4242 1335.61 500.922
341 0 70.1814 11.0856 778 52.7815 1335.24 500.645
342 1 35.0124 8.99682 315 53.0127 1335.47 514.838
343 0 36.0377 8.21361 296 54.3378 1335.22 514.794
344 0 39.0122 11.663 455 50.8132 1334.93 514.695
345 0 39.0654 10.4952 410 51.2634 1336.14 512.88
346 0 41.0866 10.7578 442 51.5566 1334.57 513.826
347 0 40.0693 9.9827 400 53.115 1335.16 514.168
348 0 42.083 11.0258 464 52.2414 1334.84 513.205
349 0 43.1034 10.5792 456 53.2434 1335.1 511.474
350 0 42.0366 8.65912 364 55.4423 1335.09 509.354
351 0 46.0389 9.68746 446 53.2354 1335.25 513.025
352 0 47.0394 10.8632 511 52.7339 1335.06 511.386
353 0 48.0818 11.4804 552 52.0688 1335.29 511.168
354 0 52.0249 11.5522 601 51.8985 1335.17 510.694
355 0 52.0668 12.0999 630 52.1619 1334.61 506.754
356 0 55.1814 11.7431 648 52.5741 1334.69 507.934
357 0 55.0333 10.8298 596 54.0218 1334.97 507.401
358 0 54.0471 10.0468 543 54.9558 1335.42 505.556
359 0 57.0669 11.6179 663 52.9276 1335.39 505.676
360 0 60.1057 10.6479 640 53.2344 1335.74 506.466
361 0 61.0639 11.4798 701 53.2653 1335.51 502.7
362 0 63.0572 11.4341 721 54.0666 1335.03 503.32
363 0 64.0921 12.5913 807 52.3259 1335.46 504.118
364 0 66.0889 10.501 694 54.889 1335.51 501.536
365 1 32.0236 8.68109 278 54.946 1335.53 515.878
366 0 35.1878 8.21308 289 53.0934 1336.43 515.72
367 0 35.0096 8.56907 300 53.45 1336.09 515.03
368 0 38.1138 9.10433 347 52.3977 1335.82 514.478
369 0 38.0182 9.49546 361 52.5734 1335.94 514.36
370 0 39.0453 9.7835 382 52.5969 1335.32 515.254
371 0 40.0493 9.78792 392 51.7628 1336.11 514.633
372 0 40.0191 10.1701 407 52.14 1335.84 512.533
373 0 42.0317 10.3255 434 51.6659 1335.87 513.8
374 0 43.0321 9.3651 403 52.5831 1336.41 511.898
375 0 44.0107 11.3382 499 51.2725 1336.32 509.836
376 0 44.0569 9.26075 408 53.0833 1336.06 512.235
377 0 48.0328 10.1805 489 51.6299 1336.65 509.883
378 0 50.0279 11.3737 569 50.6186 1336.17 510.961
379 0 50.0592 10.9271 547 52.2779 1335.92 507.391
380 0 53.0674 11.9094 632 50.3386 1336.4 506.63
381 0 54.0259 11.6055 627 51.4785 1335.6 507.129
382 0 54.0837 11.2233 607 52.2784 1335.47 506.404
383 0 57.1111 11.749 671 50.9732 1335.7 506.589
384 0 60.0513 11.2904 678 51.1018 1336.25 501.088
385 0 60.0775 9.82064 590 52.6102 1336.34 502.419
386 0 62.0715 11.9056 739 50.885 1335.96 502.425
387 0 64.0796 9.83152 630 52.5429 1335.7 502.586
388 0 63.0746 10.5431 665 52.1955 1336.31 498.893
389 0 69.1226 10.6622 737 52.0991 1335.95 495.687
390 0 72.0599 10.0888 727 52.3343 1335.92 495.263
391 0 73.2049 10.6687 781 51.9411 1335.97 493.023
392 1 32.0223 6.12073 196 53.4949 1335.95 513.306
393 0 36.0105 9.6083 346 50.2803 1336.25 510.584
394 0 38.0269 7.86285 299 51.1237 1336.1 514.846
395 0 41.1655 9.40107 387 51.1731 1335.49 511.711
396 0 44.0453 11.3519 500 48.7 1335.91 511.838
397 0 44.0598 10.3496 456 49.9145 1335.99 509.906
398 0 44.0491 8.46782 373 52.1555 1335.65 510.534
399 0 47.0678 8.22219 387 51.199 1335.6 513.568
400 0 46.12 9.49696 438 50.2329 1336.51 511.043
401 0 47.0927 10.5961 499 49.487 1336.59 509.876
402 0 50.0508 10.2896 515 49.9417 1336.71 505.619
403 0 51.047 9.20719 470 51.2957 1336.47 507.049
404 0 54.0934 10.4264 564 50.7748 1335.9 506.989
405 0 52.0322 8.07193 420 53.5881 1335.32 506.526
406 0 55.0449 9.93734 547 51.3729 1335.88 505.654
407 0 57.1502 10.4637 598 50.291 1336.44 505.639
408 0 58.0864 10.1745 591 50.4873 1336.18 507.269
409 0 58.0588 9.69707 563 51.8135 1336.17 502.169
410 0 61.0481 11.4991 702 50.5698 1336.15 501.936
411 0 64.089 11.9833 768 49.8216 1335.95 502.224
412 0 67.0982 11.6993 785 50.3567 1335.75 500.254
413 0 65.0659 10.2358 666 52.0255 1335.84 500.36
414 0 65.0845 9.63363 627 52.4753 1335.92 500.344
415 0 70.0672 11.3891 798 51.104 1335.58 500.158
416 0 71.0484 9.12055 648 53.2886 1335.68 499.168
417 0 75.1244 7.97344 599 53.5843 1335.53 499.621
418 0 76.1586 11.266 858 52.1224 1335.33 494.841
419 0 78.1144 12.2513 957 50.9133 1335.99 496.15
420 0 81.2086 12.0308 977 51.5026 1335.68 494.456
421 0 83.0799 12.4579 1035 51.571 1335.81 490.754
422 1 41.0295 6.8731 282 52.4894 1335.23 514.738
423 0 42.0499 10.4162 438 51.1735 1335.11 509.575
424 0 46.0887 10.8053 498 50.3815 1335.2 512.376
425 0 49.0931 11.1625 548 50.5493 1334.88 510.542
426 0 48.0791 12.105 582 49.9759 1335.15 510.624
427 0 50.1519 10.6078 532 51.3985 1334.76 508.57
428 0 50.0881 9.66298 484 53.0248 1334.96 508.502
429 0 52.0718 10.6584 555 51.1189 1335.56 509.47
430 0 50.058 10.6676 534 51.8371 1335.67 508.217
431 0 56.1544 11.7711 661 50.9682 1335.66 507.1
432 0 57.0883 11.3508 648 50.9954 1336 506.256
433 0 59.0878 10.5944 626 52.155 1335.02 505.345
434 0 62.1442 10.4435 649 52.3482 1335.01 503.798
435 0 64.1049 10.748 689 52.0943 1335.1 501.84
436 0 63.147 10.9269 690 51.7072 1336.03 501.232
437 0 67.0614 10.3636 695 52.0892 1335.74 500.281
438 0 70.1763 10.2456 719 52.5063 1335.82 498.455
439 0 70.152 10.1779 714 52.8992 1335.44 499.214
440 0 74.1803 9.71956 721 52.939 1335.55 494.91
441 0 73.1476 10.2259 748 53.5374 1335.26 492.961
442 0 79.324 12.43 986 51.1197 1335.05 493.719
443 1 41.0955 8.85741 364 51.0989 1335.25 513.409
444 0 44.2738 10.3899 460 49.8174 1335.24 512.383
445 0 45.0924 12.2415 552 48.3786 1335.23 512.344
446 0 46.0445 10.6419 490 50.1776 1335.33 510.345
447 0 47.3267 10.5649 500 50.118 1335.19 509.064
448 0 49.1161 11.5441 567 49.8854 1334.38 507.025
449 0 51.0981 11.0572 565 49.2265 1335.28 508.379
450 0 52.1139 10.8608 566 49.5442 1335.57 505.857
451 0 54.1721 10.2451 555 50.2757 1335.11 505.569
452 0 56.0874 10.6976 600 50.03 1335.26 504.495
453 0 56.1122 11.7978 662 49.1208 1334.98 502.556
454 0 58.1614 12.4825 726 48.0565 1335.61 503.324
455 0 62.2237 11.3944 709 48.615 1335.32 503.468
456 0 58.036 10.4073 604 50.1987 1335.86 500.012
457 0 63.0798 10.9544 691 49.5355 1335.05 502.518
458 0 65.1565 10.5899 690 49.5754 1335.79 502.019
459 0 69.0783 12.7247 879 48.0728 1335.54 499.307
460 0 69.2106 11.1544 772 50.0609 1334.99 497.328
461 0 70.1463 11.0341 774 50.199 1335.51 498.615
462 0 74.1864 10.5275 781 50.991 1335.51 494.791
463 0 73.1209 11.5015 841 50.1736 1335.06 498.448
464 0 75.1071 9.33333 701 52.5478 1335.32 496.312
465 1 42.0508 9.46475 398 48.9296 1335.09 513.663
466 0 43.1423 9.20211 397 49.3199 1334.97 514.045
467 0 44.0174 9.24634 407 50.4447 1334.88 511.762
468 0 46.0975 11.6492 537 48.8175 1334.25 509.182
469 0 47.0314 8.44117 397 50.9194 1334.44 512.539
470 0 47.1543 10.5187 496 50.2016 1334.69 509.115
471 0 46.0546 8.72878 402 51.8632 1334.31 508.704
472 0 48.0656 10.9642 527 50.3378 1334.3 509.482
473 0 52.0244 10.5912 551 49.8621 1335.03 508.412
474 0 50.0323 10.1734 509 50.6248 1335.58 504.295
475 0 54.131 10.7886 584 50.4178 1334.58 504.82
476 0 53.0821 9.7773 519 51.1773 1334.65 507.476
477 0 57.0721 11.4942 656 49.7332 1334.63 503.666
478 0 59.0439 12.2959 726 49.062 1334.23 504.975
479 0 59.1075 9.96489 589 50.7419 1334.59 503.596
480 0 64.1045 9.7029 622 50.3939 1334.22 504.958
481 0 66.082 9.63954 637 50.9922 1333.92 503.929
482 0 65.2053 10.6126 692 50.7269 1333.98 501.663
483 0 68.1569 11.0334 752 49.4561 1335.13 502.594
484 0 68.2304 11.2706 769 50.2549 1334.88 499.593
485 0 72.0766 10.3224 744 50.6116 1334.97 500.685
486 0 73.225 10.9116 799 50.9712 1334.98 496.551
487 0 77.1207 11.0606 853 50.8148 1335.6 495.023
488 0 77.0955 10.8956 840 51.7524 1335.12 493.833
489 0 80.1862 10.7375 861 51.5703 1335.21 496.501
490 1 40.0737 8.48436 340 51.4441 1334.88 515.094
491 0 41.0765 9.56751 393 50.9542 1335.46 511.372
492 0 41.0594 10.0342 412 51.8301 1335.26 510.114
493 0 43.0303 8.71478 375 52.4213 1334.98 514.069
494 0 45.2884 10.2013 462 51.2532 1335.45 511.561
495 0 45.0531 7.08053 319 53.9091 1335.15 513.727
496 0 47.0456 11.2019 527 50.8729 1334.89 513.281
497 0 50.124 10.3344 518 51.749 1334.83 511.693
498 0 50.0473 11.2094 561 51.1212 1335.37 509.417
499 0 51.0946 12.3888 633 50.8547 1334.82 510.64
500 0 54.0906 11.6841 632 51.9478 1334.22 507.687
501 0 53.1151 11.1644 593 52.2513 1334.3 508.68
502 0 54.1823 11.6274 630 52.3016 1334.52 504.286
503 0 59.1106 12.0452 712 51.3118 1334.74 506.831
504 0 61.0766 11.019 673 52.4725 1335.11 503.374
505 0 63.0711 12.1609 767 51.0691 1335.11 505.79
506 0 61.0924 10.2468 626 54.4744 1334.75 500.633
507 0 63.0568 10.7205 676 54.6139 1334.04 500.691
508 0 69.0448 12.4847 862 52.0661 1334.13 503.296
509 0 66.2273 9.67879 641 55.4836 1334.27 500.248
510 0 71.1228 8.70326 619 55.7415 1334.04 501.997
511 0 75.0799 11.1082 834 54.3261 1333.79 498.747
512 0 76.2114 10.4709 798 55.2381 1333.68 499.494
513 0 76.077 11.5541 879 54.9295 1334.09 495.297
514 0 79.1289 11.2854 893 55.7279 1333.89 494.946
515 0 83.1905 7.57298 630 57.6095 1333.96 499.054
516 0 84.244 10.0066 843 56.739 1334.51 493.006
517 0 86.0708 11.6416 1002 55.6956 1334.1 494.393
518 0 86.2142 9.22122 795 57.5296 1334.51 495.192
519 1 43.0791 10.2138 440 54.3886 1333.48 515.236
520 0 46.0724 10.9176 503 54.3738 1333.4 511.543
521 0 48.0988 11.1853 538 53.197 1334.11 511.981
522 0 49.141 11.9045 585 52.4547 1334.04 512.214
523 0 48.0294 10.5768 508 53.8406 1333.83 513.402
524 0 52.0596 11.1219 579 53.152 1334.37 510.541
525 0 54.1315 9.79097 530 54.2245 1334.34 509.268
526 0 54.1509 13.8871 752 51.5904 1334.21 507.557
527 0 53.162 11.0982 590 54.7898 1333.83 507.461
528 0 57.2684 10.5992 607 53.1269 1334.26 511.72
529 0 58.0835 9.96841 579 55.3661 1334 503.71
530 0 60.0971 12.6795 762 53.0407 1334.48 504.147
531 0 64.1667 10.9091 700 54.5829 1334.01 506.053
532 0 65.1206 9.92006 646 54.8034 1334.18 506.847
533 0 66.1083 9.81723 649 56.2696 1334.35 501.393
534 0 67.0684 8.48388 569 57.7979 1333.66 502.845
535 0 71.1569 9.02231 642 57.6931 1333.73 501.576
536 0 74.1182 11.8594 879 55.7759 1333.56 500.431
537 0 76.0561 11.715 891 56.4422 1333.48 497.772
538 0 77.1645 10.9506 845 57.1479 1333.72 498.731
539 0 80.1914 10.6246 852 56.8462 1333.58 501.058
540 0 80.1146 9.58627 768 59.3919 1334.02 497.104
541 0 82.176 12.5949 1035 57.2493 1333.69 494.887
542 0 85.1585 11.6489 992 58.7873 1333.47 491.771
543 0 84.127 9.39056 790 60.4278 1334.31 494.194
544 0 87.1328 11.4653 999 59.1151 1334.19 492.129
545 0 92.156 12.6959 1170 58.1256 1333.87 490.55
546 1 47.0471 9.28855 437 58.0183 1333.67 512.238
547 0 50.1036 11.7357 588 55.6803 1333.89 511.388
548 0 51.1385 12.1435 621 55.5362 1333.6 509.882
549 0 52.0876 13.0549 680 55.1 1333.52 509.528
550 0 54.1185 11.1792 605 56.805 1333.4 509.792
551 0 56.1486 10.9531 615 56.8455 1333.68 508.254
552 0 59.097 12.2849 726 56.1887 1333.4 507.705
553 0 57.3148 9.49143 544 59.5349 1333.76 505.145
554 0 64.0303 11.2915 723 56.9142 1334.25 505.076
555 0 63.0703 11.9391 753 57.3254 1333.63 503.437
556 0 63.1172 11.6133 733 57.5962 1334.46 502.191
557 0 67.076 11.3453 761 57.9869 1333.79 500.825
558 0 68.1408 10.5517 719 59.0195 1333.7 500.796
559 0 72.0549 12.4766 899 57.3281 1333.14 500.269
560 0 73.0849 8.59275 628 61.2675 1333.39 497.439
561 0 78.1421 11.5559 903 58.6279 1333.29 495.455
562 1 40.0401 10.8391 434 56.3687 1333.41 514.998
563 0 39.0448 8.65672 338 58.7337 1333.74 514.556
564 0 40.0113 8.32264 333 59.6577 1333.95 515.511
565 0 43.0125 11.671 502 56.8486 1333.88 511.843
566 0 46.0767 11.8715 547 55.66 1333.83 512.552
567 0 45.0292 11.3482 511 56.8317 1333.25 512.059
568 0 45.0216 9.52877 429 59.3007 1333.44 509.965
569 0 47.1264 10.9705 517 57.8259 1333.23 510.764
570 0 49.0688 11.2699 553 56.3436 1333.59 513.065
571 0 52.0298 11.8586 617 56.4214 1333.41 510.347
572 0 54.0769 11.8905 643 55.126 1334.72 510.17
573 0 55.0241 12.9034 710 55.407 1334.27 507.232
574 0 58.0748 11.5196 669 56.707 1334.05 507.568
575 0 59.0685 11.9184 704 56.5341 1334.2 506.038
576 0 61.1428 12.1682 744 56.4516 1334.15 503.606
577 0 61.1393 11.2366 687 58.1426 1333.51 504.443
578 0 66.107 12.0411 796 56.6759 1334.1 503.008
579 0 66.0955 9.86452 652 59.2899 1334.13 498.571
580 0 71.0886 12.4071 882 55.5351 1335.3 502.057
581 0 70.0214 11.3679 796 57.5766 1335.56 495.258
582 0 73.095 12.518 915 55.9104 1335.89 497.151
583 0 75.1365 9.71565 730 59.1534 1334.96 495.532
584 0 77.1864 11.388 879 57.9386 1334.98 492.034
585 0 81.1318 10.6863 867 58.9031 1334.58 491.952
586 0 84.0985 11.4509 963 57.1994 1335.06 494.999
587 0 86.0966 10.2675 884 59.1029 1335.48 490.486
588 1 44.1495 9.55843 422 57.3839 1334.52 510.621
589 0 47.085 10.5979 499 55.3607 1334.92 511.647
590 0 47.1094 11.1443 525 55.2133 1335.41 510.122
591 0 47.0664 10.9207 514 55.6109 1335.66 507.442
592 0 48.0624 10.1743 489 57.3701 1335.11 505.777
593 0 54.0242 11.9021 643 54.0327 1334.72 508.611
594 0 53.1047 11.1666 593 54.4351 1334.78 509.769
595 0 54.0972 10.2778 556 55.7212 1334.98 508.153
596 0 54.037 7.99452 432 57.956 1334.73 508
597 0 58.0992 10.5681 614 55.6287 1335.21 503.682
598 0 60.0753 11.8185 710 53.8592 1334.98 504.752
599 0 62.0618 9.60334 596 56.2299 1334.94 502.831
600 0 63.0989 11.8069 745 54.4416 1335.22 501.132
601 0 65.1882 9.48025 618 56.5178 1334.84 502.906
602 0 67.2336 11.0361 742 55.2898 1334.92 502.624
603 0 68.1438 10.1843 694 56.2695 1334.69 499.144
604 0 71.1213 11.9373 849 54.5241 1334.74 497.786
605 0 73.0772 10.2084 746 56.0322 1334.62 500.714
606 0 74.2624 11.3786 845 55.1503 1335.52 497.379
607 0 79.1651 12.2908 973 54.148 1335.35 493.681
608 1 38.1293 11.0676 422 53.0569 1335.66 511.964
609 0 39.1181 9.53523 373 54.1689 1335.61 512.517
610 0 42.0785 11.2409 473 51.9958 1335.62 514.03
611 0 45.0443 10.634 479 53.3006 1335.46 510.397
612 0 49.1315 12.5174 615 51.6602 1335.2 508.584
613 0 45.0285 9.41626 424 54.8514 1335.09 509.078
614 0 49.083 11.5111 565 52.7982 1335.2 507.549
615 0 52.079 11.2713 587 52.4327 1335.63 509.206
616 0 54.124 13.0256 705 51.6539 1335.3 504.661
617 0 53.1389 11.2723 599 53.2855 1335.51 506.546
618 0 55.054 9.49976 523 54.0975 1334.86 508.229
619 0 57.1235 12.0966 691 52.7656 1334.83 503.453
620 0 59.1599 12.0521 713 52.4712 1334.84 505.95
621 0 62.0539 11.5867 719 53.3853 1334.78 502.747
622 0 64.0625 12.0195 770 52.7468 1334.89 501.265
623 0 64.0644 11.7694 754 53.4085 1334.73 501.501
624 0 67.1375 11.4243 767 53.2751 1335.25 500.501
625 0 72.1194 13.0062 938 51.3774 1335.06 498.558
626 0 71.0466 11.5136 818 53.9156 1334.66 497.218
627 0 73.146 10.0074 732 55.0984 1334.08 496.727
628 0 78.1979 11.1512 872 54.1972 1333.71 492.788
629 0 79.0846 10.5204 832 54.3329 1334.77 491.912
630 0 84.1736 12.4267 1046 52.7075 1334.1 492.7
631 0 86.1008 10.3135 888 54.1306 1334.28 492.619
632 1 46.0803 9.22303 425 52.0047 1334.54 509.744
633 0 47.0516 10.6054 499 51.4208 1334.15 509.561
634 0 50.0347 10.4328 522 51.1322 1333.9 511.64
635 0 51.087 12.1753 622 49.7653 1334.43 509.14
636 0 52.031 10.3592 539 50.9388 1334.64 509.002
637 0 53.0689 11.0988 589 50.0238 1334.82 509.221
638 0 56.0969 13.0845 734 48.5177 1334.99 507.15
639 0 57.1008 11.9263 681 49.4919 1334.66 506.495
640 0 58.1842 10.5183 612 50.9918 1335.13 502.585
641 0 63.1665 12.2375 773 48.3376 1336.04 501.88
642 0 62.1416 11.2002 696 50.158 1335.29 501.333
643 0 64.0753 8.77094 562 51.4431 1335.15 506.44
644 0 67.1907 12.9333 869 48.7227 1334.3 501.175
645 0 70.1122 12.1805 854 48.9321 1334.85 498.043
646 0 72.0946 11.9426 861 49.223 1335.09 497.826
647 0 76.1984 12.1525 926 48.905 1335.38 495.016
648 0 76.1784 10.6198 809 50.6489 1335.26 493.943
649 0 79.1397 11.5239 912 49.4276 1335.23 494.495
650 0 79.1346 10.7917 854 50.4813 1335.03 493.845
651 0 81.1261 12.0553 978 48.8579 1335.6 495.125
652 0 84.0593 12.0272 1011 49.0544 1335.9 492.212
653 0 87.1763 11.4595 999 49.6827 1335.23 491.655
654 1 43.0687 9.12496 393 50.4071 1334.73 509.15
655 0 46.0548 10.5526 486 48.2346 1335.42 510.829
656 0 46.0815 10.0257 462 49.1905 1335.48 508.569
657 0 49.0677 10.8218 531 48.9379 1335.48 506.757
658 0 50.1138 8.06166 404 50.354 1335.6 510.089
659 0 53.0248 12.6733 672 47.628 1335.24 506.455
660 0 56.0437 8.81454 494 50.3543 1335.57 508.17
661 0 56.1414 12.0767 678 48.7699 1335.24 505.047
662 0 59.1186 11.8068 698 48.8496 1334.8 506.1
663 0 60.053 10.9237 656 49.5915 1335.04 503.462
664 0 62.1103 13.6048 845 48.0982 1334.32 503.12
665 0 65.1482 12.8323 836 48.2727 1334.92 499.7
666 0 66.1371 12.9126 854 48.2963 1335 500.218
667 0 70.212 10.7959 758 50.0409 1334.51 499.736
668 0 72.1558 12.8195 925 48.1103 1335.3 498.058
669 0 75.1489 11.1911 841 49.6801 1334.55 498.212
670 0 76.2172 11.1786 852 49.8251 1334.81 495.529
671 0 80.0674 13.1889 1056 47.2055 1335.89 495.334
672 0 79.0875 11.3924 901 49.556 1335.11 496.335
673 0 83.1011 11.2634 936 48.5182 1335.73 497.761
674 1 42.0322 11.0154 463 48.5032 1335.08 512.957
675 0 43.0711 9.26374 399 49.406 1335.43 511.383
676 0 47.0429 12.1166 570 46.9684 1335.58 509.665
677 0 47.0766 9.72883 458 49.0087 1335.55 509.773
678 0 47.0766 11.2158 528 48.0985 1335.75 506.523
679 0 50.0743 11.0835 555 47.4559 1335.91 509.885
680 0 54.0569 12.4498 673 46.4547 1335.75 506.634
681 0 54.1256 12.046 652 46.8957 1335.99 504.62
682 0 56.0374 10.4216 584 47.9897 1335.76 505.361
683 0 58.0933 10.9823 638 47.4859 1335.57 503.041
684 0 55.07 8.33485 459 49.9237 1336.34 499.869
685 0 62.0816 10.7278 666 47.4459 1336.21 501.093
686 0 65.1795 10.6629 695 47.9914 1335.15 501.504
687 0 65.0654 10.0975 657 48.8174 1335.68 497.28
688 0 64.2212 8.87557 570 50.5228 1335.51 496.695
689 0 68.1514 9.90442 675 49.7793 1335.19 496.191
690 0 70.0433 9.80822 687 49.7831 1335.4 495.611
691 0 76.1241 11.6783 889 47.4274 1335.83 498.89
692 0 77.0752 13.1949 1017 46.5723 1335.44 497.971
693 0 79.0942 10.1777 805 49.1913 1335.08 497.015
694 1 43.0217 10.6923 460 47.4348 1334.2 514.493
695 0 41.0303 10.7481 441 48.0726 1334.41 509.048
696 0 43.0264 9.94738 428 48.5234 1334.1 510.617
697 0 46.044 10.4248 480 47.6188 1334.87 509.256
698 0 46.0363 11.9688 551 47.3358 1335 509.835
699 0 48.0526 11.092 533 48.1201 1334.8 509.63
700 0 51.0427 12.4406 635 46.5433 1335.14 509.589
701 0 52.0616 10.7565 560 48.5232 1334.9 506.796
702 0 54.0443 11.6201 628 48.5478 1334.37 505.393
703 0 59.0683 10.6995 632 48.6598 1334.81 506.263
704 0 59.0627 10.6666 630 48.9571 1335.32 502.494
705 0 56.0807 8.50561 477 51.8721 1334.7 500.658
706 0 62.0822 10.0995 627 50.2743 1334.57 500.738
707 0 66.0875 12.2262 808 48.4988 1334.36 502.004
708 0 66.0611 9.82424 649 50.4422 1334.95 500.396
709 0 70.0723 10.8174 758 48.9551 1335.5 500.438
710 0 75.2291 12.4154 934 48.1113 1334.7 496.985
711 0 76.086 13.5767 1033 47.3514 1335.37 497.975
712 1 37.0372 9.42296 349 49.1232 1334.84 514.45
713 0 37.0305 12.3412 457 46.6455 1334.74 515.72
714 0 39.0402 10.3739 405 48.6494 1334.35 515.007
715 0 41.0345 10.3571 425 48.9247 1334.63 514.266
716 0 41.0253 9.82321 403 50.0422 1334.34 511.375
717 0 46.0818 12.9986 599 46.6093 1334.73 512.584
718 0 45.0882 8.80496 397 49.9295 1335.14 513.695
719 0 45.1412 9.8801 446 50.1502 1335.04 510.303
720 0 50.1686 9.66741 485 50.1113 1334.97 511.441
721 0 52.0909 12.7853 666 48.3243 1334.72 508.341
722 0 53.0739 11.2108 595 49.5126 1334.44 509.879
723 0 58.0562 14.0898 818 47.4328 1333.73 508.682
724 0 58.1339 13.1593 765 48.3608 1334.78 508.183
725 0 57.1075 10.2088 583 51.8422 1334.43 504.726
726 0 63.1362 13.1462 830 48.3373 1334.04 505.823
727 0 63.0609 11.148 703 50.266 1334.62 504.661
728 0 66.1212 13.082 865 48.8127 1334.61 503.551
729 0 69.0742 12.1464 839 49.441 1334.47 504.011
730 0 68.0757 12.3392 840 50.3488 1334.32 499.004
731 0 73.0663 11.4417 836 50.5419 1334.08 500.42
732 0 71.1408 10.177 724 52.355 1333.73 497.181
733 0 76.0613 14.2122 1081 48.7345 1333.74 497.755
734 1 41.0658 11.0798 455 48.4418 1333.48 515.745
735 0 41.056 11.6183 477 47.5556 1334.83 514.499
736 0 42.0192 10.995 462 48.1255 1334.59 513.584
737 0 44.0722 9.50712 419 48.673 1334.39 515.348
738 0 44.0294 11.0154 485 48.868 1334.96 509.893
739 0 47.0297 11.6522 548 48.2555 1334.64 509.827
740 0 47.138 8.74029 412 49.8568 1334.61 513.493
741 0 49.1757 10.6557 524 49.0954 1334.43 510.719
742 0 52.0899 11.4034 594 48.4175 1334.39 510.167
743 0 51.0941 10.7449 549 50.1967 1333.85 506.732
744 0 54.0528 9.17621 496 51.1573 1333.6 507.956
745 0 58.146 12.245 712 48.8216 1333.36 502.746
746 0 57.1028 11.2429 642 50.0358 1333.44 502.78
747 0 58.1203 12.1816 708 49.2006 1334.38 503.02
748 0 62.1697 11.919 741 49.5317 1334.58 502.753
749 0 63.0395 11.1835 705 50.0312 1334.62 500.397
750 0 67.1836 13.1133 881 48.2213 1334.53 498.902
751 0 70.1553 12.2015 856 48.9907 1333.84 499.869
752 0 71.111 9.5344 678 50.8392 1333.61 502.824
753 0 72.2882 10.97 793 49.8966 1334.02 499.28
754 0 74.1918 10.8098 802 50.3504 1334.37 495.739
755 0 77.1366 12.4714 962 49.3274 1333.95 496.214
756 0 77.0942 10.5326 812 50.7167 1333.92 495.836
757 0 84.1367 11.826 995 49.1166 1334.14 494.495
758 0 85.0732 11.4725 976 49.5184 1334.36 493.55
759 0 88.1054 11.9175 1050 49.4505 1333.26 494.671
760 0 92.2193 11.2124 1034 50.06 1333.46 492.41
761 0 94.155 13.4672 1268 48.6972 1333.61 486.513
762 1 52.1368 12.3713 645 47.4465 1333.93 509.057
763 0 48.1177 10.412 501 49.5768 1334.2 510.098
764 0 54.0608 12.5414 678 47.2448 1334.22 506.991
765 0 55.084 10.8017 595 49.3546 1333.67 505.119
766 0 56.1379 14.5 814 45.973 1333.75 508.232
767 0 58.0853 11.1044 645 49.0062 1334.2 505.177
768 0 60.0494 8.99259 540 50.763 1334.1 503.244
769 0 61.089 10.8694 664 49.3524 1334.21 501.992
770 0 60.1774 8.65774 521 51.2764 1334.33 502.754
771 0 62.1023 12.3184 765 48.6497 1334.61 503.376
772 0 65.1139 10.5815 689 50.1321 1334.74 497.044
773 0 68.0727 10.3125 702 50.8818 1333.84 499.49
774 0 72.069 9.75454 703 51.2205 1334.27 496.664
775 0 74.1232 12.1419 900 49.08 1334.35 496.148
776 0 78.1407 13.2453 1035 48.3961 1333.97 495.776
777 0 78.044 10.6607 832 50.7728 1333.92 496.072
778 0 80.0623 11.2163 898 50.8563 1334.72 492.258
779 0 84.1619 11.3472 955 50.3843 1334.99 491.826
780 0 88.1056 12.2013 1075 49.786 1334.89 491.636
781 0 89.0586 11.2959 1006 51.3479 1333.69 487.546
782 1 46.0963 12.2569 565 48.5628 1334.35 512.067
783 0 50.1146 12.8505 644 46.8261 1334.9 513.084
784 0 52.1123 10.5158 548 48.8613 1334.27 514.047
785 0 52.0193 12.8606 669 47.8909 1334.47 510.398
786 0 54.0599 13.855 749 46.9065 1335.2 510.107
787 0 54.1103 10.8297 586 49.7235 1334.97 508.096
788 0 58.1195 12.0614 701 48.9144 1334.24 509.041
789 0 59.1079 10.8953 644 50.295 1334.85 505.604
790 0 59.1079 10.8615 642 126.354 1335.84 505.575
791 0 65.0625 12.0499 784 50.0293 1333.6 503.51
792 0 66.1064 11.7689 778 50.4704 1333.58 503.569
793 0 67.0607 12.2128 819 50.337 1334.55 500.154
794 0 69.0581 9.26756 640 52.3219 1334.6 502.288
795 0 71.2073 10.5186 749 51.777 1334.65 496.215
796 0 74.1004 11.1335 825 50.7358 1334.98 499.624
797 0 77.073 11.6902 901 50.5305 1334.87 496.642
798 0 80.1904 10.8242 868 51.5046 1334.69 492.764
799 0 85.217 11.6291 991 50.669 1334.65 493.845
800 1 41.2102 10.4586 431 48.3364 1335.3 514.397
801 0 43.0713 11.6319 501 47.8782 1335.52 512.327
802 0 45.0915 9.93535 448 49.3214 1335.47 513.181
803 0 47.0676 7.7548 365 50.8767 1335.17 513.874
804 0 48.0463 12.1341 583 48.0943 1335.64 508.666
805 0 51.0587 10.2235 522 49.7165 1335.15 509.644
806 0 51.0932 11.0974 567 49.1217 1335.74 508.282
807 0 55.1672 12.8156 707 47.5474 1334.95 509.081
808 0 56.1521 10.9524 615 49.1008 1334.59 510.172
809 0 58.0754 9.55654 555 50.827 1334.36 507.085
810 0 58.1154 10.8577 631 49.8653 1334.94 505.648
811 0 60.0776 10.2701 617 50.5446 1334.38 502.614
812 0 63.0741 12.8103 808 47.6683 1334.97 505.416
813 0 64.1609 12.4687 800 48.3338 1335.94 502.496
814 0 66.0598 12.4281 821 48.5847 1334.97 501.643
815 0 69.1037 10.6651 737 50.2442 1334.5 502.157
816 0 71.0913 10.8593 772 50.0415 1334.53 499.929
817 0 74.1165 10.7803 799 50.3267 1334.82 499.423
818 0 76.1069 11.9306 908 49.3194 1334.92 497.453
819 0 78.1671 11.1428 871 50.0838 1334.54 496.783
820 0 82.1536 12.0749 992 48.4183 1334.7 500.088
821 1 39.0956 8.28739 324 49.8148 1335.05 513.497
822 0 45.0301 9.43814 425 48.5318 1334.17 514.282
823 0 44.018 9.17807 404 48.552 1335.1 513.597
824 0 45.2029 9.07021 410 49.9341 1334.05 510.724
825 0 49.2269 9.89296 487 48.7988 1334.25 512.066
826 0 50.0813 10.3831 520 48.8058 1334.05 509.59
827 0 52.1066 10.2866 536 48.3358 1334.02 512.103
828 0 53.2108 11.4075 607 47.9506 1334.45 508.759
829 0 54.1199 9.99632 541 49.0222 1334.43 508.815
830 0 57.1819 11.7869 674 47.5905 1334.56 507.402
831 0 58.1064 9.68912 563 49.421 1334.5 505.979
832 0 57.1823 10.4578 598 49.1455 1334.09 503.485
833 0 63.2209 14.4414 913 45.6199 1334.5 504.301
834 0 64.1322 13.9088 892 45.6883 1335.01 503.88
835 0 66.2351 10.6137 703 48.5633 1333.87 502.865
836 0 69.3684 11.3741 789 47.7022 1334.04 504.545
837 0 70.2931 12.832 902 46.9268 1334.3 500.417
838 0 70.1355 9.12519 640 49.6594 1334.33 503.838
839 0 76.2508 12.3671 943 47.3743 1334.01 499.712
840 0 77.1928 9.74184 752 50.0399 1333.64 498.293
841 0 79.228 11.6121 920 48.6543 1333.93 494.47
842 1 41.0954 7.61643 313 49.3067 1334.33 518.738
843 0 42.0561 10.5573 444 46.5495 1334.63 519.694
844 0 42.0965 9.95332 419 47.8831 1335.21 516.284
845 0 46.1998 11.2988 522 46.3774 1334.94 516.929
846 0 44.0516 9.71589 428 49.0467 1334.69 513.752
847 0 49.0826 11.3278 556 47.9784 1333.91 512.227
848 0 49.0429 9.95047 488 48.9816 1334.17 515.127
849 0 52.1526 13.077 682 46.5059 1334.4 512.425
850 0 54.1144 12.5105 677 47.2954 1334.44 511.453
851 0 55.1197 11.212 618 48.445 1334.71 509.348
852 0 57.1251 12.1138 692 47.3931 1334.75 508.462
853 0 57.0434 10.5534 602 48.6196 1335.33 508.14
854 0 57.0481 10.6051 605 49.5207 1335.25 505.942
855 0 63.1082 13.4531 849 46.4817 1334.86 506.98
856 0 65.1244 13.0519 850 47.0753 1334.23 507.711
857 0 65.1652 12.5374 817 47.8703 1334.2 504.616
858 0 67.0636 12.2272 820 47.7866 1334.75 504.501
859 0 68.1671 11.4571 781 48.8284 1334.49 502.1
860 0 72.1397 13.8481 999 46.8629 1334.66 504.228
861 0 75.3362 10.8182 815 50.4847 1333.78 502.795
862 0 74.1396 10.7635 798 50.5125 1335.17 497.362
863 0 78.1395 12.6057 985 48.6518 1335.32 496.441
864 0 81.2207 9.89896 804 50.6256 1334.48 501.1
865 1 42.1471 11.1514 470 47.8979 1334.1 519.526
866 0 41.0567 10.2785 422 49.9929 1334.14 517.206
867 0 42.1612 8.65725 365 51.4247 1334.31 516.66
868 0 44.1232 11.9438 527 48.7287 1334.59 515.269
869 0 47.0779 10.557 497 49.9618 1334.48 514.35
870 0 48.073 11.3577 546 49.2088 1334.27 515.375
871 0 50.1818 11.8967 597 49.2781 1333.57 515.166
872 0 51.0901 11.2351 574 50.3554 1333.81 511.993
873 0 50.0667 10.8855 545 50.7229 1333.64 511.569
874 0 55.0937 13.0686 720 48.9764 1333.38 511.643
875 0 54.1386 11.3413 614 50.5049 1334.02 511.334
876 0 56.1529 11.5577 649 50.7627 1333.64 509.12
877 0 60.2257 13.0841 788 49.0089 1334.08 511.027
878 0 64.1468 11.2554 722 49.9418 1334.29 506.375
879 0 62.085 13.1272 815 48.9791 1333.94 506.735
880 0 66.1198 14.9426 988 47.4069 1334.28 504.494
881 0 70.2048 13.3039 934 48.9154 1334.01 504.324
882 0 71.1445 14.4495 1028 48.1673 1334.07 503.95
883 0 75.2622 12.8086 964 48.9741 1334.27 504.056
884 0 76.0804 13.3674 1017 49.5497 1333.59 502.493
885 0 78.1578 11.6943 914 50.9672 1333.92 499.592
886 0 83.1482 12.7844 1063 50.1675 1334.4 499.346
887 0 86.1405 14.2442 1227 49.1304 1334.19 496.892
888 1 42.0883 8.93361 376 52.266 1333.83 519.242
889 0 44.0405 11.5348 508 50.252 1334.22 516.226
890 0 43.0275 10.3655 446 51.6435 1334.08 517.381
891 0 46.0824 10.6114 489 50.1984 1334.7 518.145
892 0 48.1276 11.8019 568 50 1334.54 515.611
893 0 50.0733 11.9425 598 50.2508 1333.69 515.595
894 0 50.1959 11.3555 570 51.186 1334.28 513.368
895 0 51.0731 12.2374 625 50.6976 1334.13 511.696
896 0 54.0462 12.6188 682 50.4311 1334.1 512.233
897 0 56.1556 13.1599 739 49.2558 1334.86 511.373
898 0 59.1078 11.0814 655 51.5481 1334.52 509.56
899 0 58.1453 11.4541 666 51.8814 1334.05 509.998
900 0 62.1446 11.8273 735 50.5633 1334.77 508.341
901 0 65.1959 12.6542 825 50.0739 1334.47 507.463
902 0 67.0966 12.6236 847 50.0874 1334.61 507.202
903 0 68.1084 10.4833 714 52.395 1334.23 506.269
904 0 69.1627 10.5114 727 52.8294 1334.26 502.95
905 0 71.1732 13.0386 928 51.3491 1333.91 501.783
906 0 75.2319 12.2421 921 51.5907 1334.53 500.27
907 0 78.0649 12.2846 959 51.025 1334.96 499.189
908 0 78.0749 10.1825 795 53.1698 1334.84 496.74
909 1 39.0115 10.279 401 51.0424 1335.76 515.82
910 0 43.0733 11.3063 487 49.961 1335.87 516.355
911 0 43.1046 11.4141 492 50.1789 1335.93 515.146
912 0 47.0728 9.68713 456 50.8092 1335.38 516.684
913 0 43.0687 9.72865 419 51.6897 1336.22 512.107
914 0 48.0868 11.9783 576 50.5208 1335.43 514.163
915 0 51.2877 13.2195 678 49.0796 1335.29 512.636
916 0 54.1402 9.73399 527 51.8748 1334.75 513.442
917 0 55.1793 12.4503 687 49.5881 1335.2 512.492
918 0 58.1358 12.316 716 50.3841 1334.65 509.367
919 0 56.2922 10.4455 588 52.2466 1335.04 507.187
920 0 60.1903 10.6163 639 51.1315 1335.27 510.23
921 0 64.1223 12.6789 813 50.4908 1334.76 507.084
922 0 67.2123 12.215 821 51.1839 1334.4 504.211
923 0 69.2059 12.47 863 50.8806 1334.27 502.848
924 0 69.1199 10.0116 692 53.3078 1334.33 503.043
925 0 73.2369 12.5756 921 51.19 1334.01 502.333
926 1 39.0993 10.4605 409 50.5941 1334.05 520.988
927 0 39.0775 10.5176 411 51.9732 1333.99 518.623
928 0 40.1158 10.9184 438 51.1233 1334.37 517.05
929 0 43.093 11.2779 486 50.7634 1333.91 519.586
930 0 41.0117 10.8018 443 53.1309 1333.69 516.163
931 0 45.0541 10.6982 482 52.8361 1333.98 515.444
932 0 47.0316 11.5242 542 51.7269 1333.98 516.758
933 0 48.0727 12.4603 599 51.1319 1334.49 514.708
934 0 48.1826 11.3527 547 52.4004 1334.63 514.344
935 0 51.1935 13.8885 711 50.4895 1334.65 511.851
936 0 51.1244 12.2251 625 52.7984 1334.5 510.984
937 0 54.1845 13.0111 705 51.7532 1334.61 509.15
938 0 57.1211 13.7777 787 50.7903 1334.79 509.485
939 0 55.1008 12.2503 675 53.1659 1334.64 508.098
940 0 57.0602 11.3915 650 54.2692 1334.26 506.295
941 0 60.2213 13.6165 820 52.6537 1333.89 506.199
942 0 64.0551 13.6289 873 52.0286 1334.4 504.989
943 0 66.08 13.0297 861 52.8269 1334.22 503.761
944 0 68.193 10.6756 728 54.9176 1334.32 502.538
945 0 71.0995 11.7863 838 52.6706 1335.36 503.661
946 0 74.155 12.5413 930 52.6742 1334.81 501.28
947 0 75.0654 12.0828 907 52.8798 1334.82 501.668
948 1 37.0247 10.1824 377 54.4589 1334.72 516.337
949 0 40.0322 10.8163 433 52.5404 1335.44 515.314
950 0 42.0507 11.8191 497 52.0604 1335.32 515.543
951 0 43.0413 12.4532 536 52.4198 1335.12 514.664
952 0 44.0287 11.6742 514 53.3677 1335.08 511.335
953 0 48.0846 11.459 551 53.3503 1335.12 511.254
954 0 49.0319 13.8073 677 51.5229 1335.09 511.829
955 0 50.0918 13.4353 673 52.8692 1334.22 510.153
956 0 53.0622 13.5124 717 52.7378 1334.47 509.727
957 0 53.1549 12.7364 677 53.5185 1335 507.662
958 0 57.1314 12.7951 731 52.7305 1334.93 509.038
959 0 59.0835 13.6417 806 52.6861 1334.66 506.336
960 0 62.1115 12.7352 791 53.4564 1334.83 507.258
961 0 62.0436 13.4583 835 53.0982 1334.82 506.207
962 0 64.1682 14.3062 918 51.9488 1335.65 506.062
963 0 67.0577 12.9292 867 53.9008 1335.14 502.09
964 0 67.0345 13.8436 928 53.1175 1335.68 502.994
965 0 74.1028 14.7903 1096 52.2035 1334.56 502.961
966 0 73.077 13.5337 989 54.2942 1334.74 499.765
967 0 78.0683 13.3345 1041 54.4534 1334.4 496.838
968 0 81.1061 12.7364 1033 54.9429 1334.83 497.04
969 0 85.173 14.8639 1266 52.5719 1335.78 495.735
970 0 84.0845 15.2822 1285 53.6973 1334.55 492.233
971 0 90.1438 15.2534 1375 53.0684 1335.1 493.138
972 1 44.0365 10.9455 482 53.9502 1335.4 515.438
973 0 46.2947 12.0316 557 52.8348 1335.1 515.425
974 0 46.0787 13.3684 616 53.2565 1334.43 512.933
975 0 49.0371 13.3165 653 52.1593 1335.13 513.691
976 0 48.0301 13.7622 661 52.9728 1334.71 512.021
977 0 50.0927 11.0595 554 54.9838 1334.56 511.137
978 0 52.0897 12.0177 626 53.7796 1335 510.704
979 0 52.0794 10.6184 553 55.4177 1335.53 505.139
980 0 58.1546 14.7882 860 51.0407 1335.51 506.086
981 0 57.21 11.7812 674 54.6291 1334.99 505.798
982 0 62.0877 12.0153 746 53.0295 1335.39 505.603
983 0 66.0955 13.2687 877 52.2794 1334.91 503.414
984 0 66.1077 12.5553 830 53.3145 1334.84 503.282
985 0 68.1338 14.3688 979 51.6476 1335.58 500.437
986 0 72.1826 14.8928 1075 50.7349 1335.86 499.82
987 0 72.1437 11.0474 797 53.8105 1335.91 501.649
988 0 75.0948 12.0781 907 53.882 1335.37 498.178
989 0 78.2033 12.9151 1010 52.6851 1335.25 500.482
990 0 81.1206 12.1547 986 54.1075 1334.76 496.963
991 0 82.1598 11.7454 965 54.5544 1334.37 496.969
992 0 84.104 14.601 1228 52.1336 1335.65 493.082
993 1 41.1732 12.1924 502 51.5996 1335.07 514.528
994 0 42.1908 10.9265 461 52.3774 1335.6 513.692
995 0 43.2575 13.9398 603 49.8441 1335.72 514.163
996 0 45.095 11.5534 521 51.9098 1335.61 513.054
997 0 44.1211 11.4231 504 52.2639 1335.37 512.456
998 0 45.0725 8.76366 395 54.8076 1335.02 513.661
999 0 49.0802 10.4523 513 53.2632 1335.34 511.764
1000 0 51.0648 12.0435 615 52.3024 1334.76 510.593
1001 0 53.0716 11.0605 587 52.6184 1334.92 510.596
1002 0 55.0714 11.0584 609 52.931 1335.41 507.525
1003 0 53.1044 10.8089 574 53.5105 1335.41 505.824
1004 0 58.07 10.6768 620 53.4677 1335.12 506.79
1005 0 61.2071 13.969 855 50.5965 1335.2 507.506
1006 0 62.2998 12.0867 753 52.7171 1334.36 508.798
1007 0 66.1261 11.4025 754 53.2467 1334.39 505.093
1008 0 66.1133 14.0668 930 51.3194 1335.07 505.254
1009 0 70.1434 14.4419 1013 51.3297 1334.69 503.611
1010 0 71.1691 9.59686 683 54.9063 1334.7 505.098
1011 0 74.1038 12.0372 892 53.8935 1335.19 499.031
1012 0 78.2735 13.4273 1051 52.3682 1335.34 500.198
1013 0 78.1805 13.1107 1025 53.6663 1334.57 499.762
1014 0 80.2693 12.5702 1009 54.3439 1334.24 500.665
1015 0 79.1168 8.74657 692 57.2197 1334.68 499.876
1016 0 86.217 14.6143 1260 53.2294 1334.73 494.923
1017 0 89.0959 14.0298 1250 53.74 1334.46 494.74
1018 0 90.2744 10.6896 965 57.0518 1334.94 492.549
1019 0 94.1263 11.697 1101 55.5304 1335.5 493.428
1020 0 97.1569 12.063 1172 55.442 1334.99 491.563
1021 1 48.1849 10.605 511 55.6301 1334.65 512.386
1022 0 50.0999 14.032 703 53.3656 1333.98 513.541
1023 0 49.0998 10.5703 519 55.6397 1334.17 514.909
1024 0 49.3252 11.7384 579 54.5216 1334.47 514.2
1025 0 51.1993 11.4845 588 53.6446 1334.39 516.333
1026 0 58.0166 12.6515 734 53.8542 1334.09 512.407
1027 0 57.178 11.1756 639 55.5336 1334.19 512.532
1028 0 60.2123 11.0442 665 56.3519 1333.98 508.502
1029 0 65.102 11.9198 776 56.1263 1332.87 507.624
1030 0 66.0526 12.1721 804 55.7699 1332.75 508.348
1031 0 71.1039 14.6124 1039 53.8065 1333.13 505.626
1032 0 70.1794 9.80345 688 57.7049 1333.31 505.251
1033 0 75.1187 13.7516 1033 55.1762 1333.12 502.801
1034 0 79.0673 11.5218 911 55.5741 1333.44 505.935
1035 0 80.0619 13.0274 1043 55.3135 1333.65 501.582
1036 0 83.1695 14.1157 1174 55.2428 1332.88 500.313
1037 0 86.1568 13.5915 1171 55.3023 1333.31 502.245
1038 1 40.0794 14.1968 569 53.9824 1333.26 520.077
1039 0 41.1044 10.5098 432 58.2685 1332.5 519.845
1040 0 43.0944 13.366 576 56.4167 1332.38 518.302
1041 0 46.0211 13.3634 615 55.9252 1332.39 518.833
1042 0 47.0334 13.1821 620 55.4258 1333.05 519.415
1043 0 49.0409 14.0495 689 55.209 1333.1 516.599
1044 0 52.2346 15.1241 790 53.519 1333.48 517.729
1045 0 50.061 12.4648 624 57.6907 1332.44 517.228
1046 0 51.0841 12.039 615 58.3203 1332.75 515.8
1047 0 57.0761 15.4881 884 55.0113 1332.68 514.471
1048 0 55.0442 13.0259 717 58.0195 1332.44 514.096
1049 0 59.2039 14.7625 874 56.2735 1333.1 512.382
1050 0 61.0473 14.5297 887 56.894 1333.05 511.672
1051 0 64.1468 12.8455 824 58.3532 1332.41 512.93
1052 0 63.1206 13.5613 856 58.8797 1332.68 510.044
1053 0 68.1481 16.6696 1136 56 1332.24 509.693
1054 0 70.2029 15.6261 1097 57.1021 1332.59 509.716
1055 0 71.112 14.1748 1008 59.2629 1332.43 504.563
1056 0 73.201 14.508 1062 58.952 1332.87 505.009
1057 0 77.206 15.3744 1187 57.6832 1332.94 505.05
1058 0 78.2008 14.7697 1155 59.2554 1332.68 504.776
1059 0 81.1298 12.819 1040 60.4308 1332.71 504.507
1060 0 84.1758 14.2915 1203 58.7382 1333.15 502.185
1061 1 40.0583 13.2806 532 58.0038 1332.96 523.769
1062 0 41.0187 11.4582 470 60.3128 1332.38 522.953
1063 0 41.0164 13.5068 554 58.8087 1332.46 522.998
1064 0 41.1413 13.4901 555 58 1333.31 522.971
1065 0 45.1623 14.2597 644 57.1118 1333.36 522.898
1066 0 43.0669 12.8173 552 59.7029 1333.42 519.801
1067 0 47.0727 13.5747 639 58.2942 1333.53 520.1
1068 0 47.0523 13.0068 612 58.6961 1333.27 521.454
1069 0 48.1953 12.4286 599 59.182 1333.55 519.871
1070 0 52.0963 14.4156 751 57.6751 1333.19 520.579
1071 0 51.0965 12.8972 659 59.9879 1332.96 518.757
1072 0 53.094 14.1824 753 58.664 1333.27 519.384
1073 0 56.0977 13.6904 768 58.9596 1333.44 516.156
1074 0 56.0734 13.6785 767 59.9765 1333.39 514.93
1075 0 57.0667 12.5292 715 60.579 1333.16 515.782
1076 0 60.1657 12.8977 776 59.5206 1333.45 517.379
1077 0 60.33 14.0892 850 60.6635 1333.26 512.305
1078 0 63.122 14.971 945 60.2317 1332.89 510.616
1079 0 65.1382 13.3869 872 61.8085 1333.3 508.975
1080 0 68.2541 14.0944 962 61.2568 1333.53 507.39
1081 0 71.1214 14.89 1059 61.1473 1332.76 509.859
1082 0 72.097 14.1615 1021 60.0548 1333.67 510.973
1083 0 75.1296 17.8358 1340 57.6194 1334.02 506.76
1084 0 77.2125 13.8708 1071 61.8898 1333.8 505.401
1085 0 80.1959 13.8286 1109 61.1425 1334.23 503.575
1086 0 83.1727 14.2475 1185 61.8093 1333.73 500.576
1087 0 83.2363 15.8464 1319 60.2024 1333.37 502.025
1088 0 90.3366 13.8703 1253 61.6185 1333.45 501.788
1089 0 90.2196 14.6975 1326 61.5754 1333.53 496.638
1090 0 93.6133 12.4555 1166 64.3937 1333.14 497.439
1091 0 96.3444 14.635 1410 62.0823 1333.31 496.513
1092 0 98.3174 14.5447 1430 62.5678 1333.41 495.461
1093 0 106.179 15.3137 1626 61.3149 1332.9 494.589
1094 0 104.527 14.7043 1537 61.8809 1334.22 491.022
1095 1 53.2055 14.303 761 60.0762 1334.29 516.811
1096 0 55.2862 12.5709 695 61.8748 1334.47 514.145
1097 0 57.0624 15.3166 874 60.5515 1333.99 513.412
1098 0 62.2784 14.9329 930 61.2935 1333.61 512.033
1099 0 63.1552 15.0423 950 60.8116 1333.65 510.812
1100 0 64.2625 14.752 948 61.1308 1333.73 510.419
1101 0 67.3206 14.3789 968 61.7975 1333.74 508.996
1102 0 67.2963 11.8283 796 64.2023 1333.99 508.951
1103 0 70.1583 14.0397 985 62.7604 1333.83 505.918
1104 0 74.2508 14.6126 1085 61.5917 1333.65 507.403
1105 0 76.3199 14.1772 1082 62.4621 1333.92 506.586
1106 0 78.4486 14.7868 1160 62.2241 1334.05 504.709
1107 0 81.2984 14.17 1152 63.2196 1334.16 501.646
1108 1 37.2201 13.5948 506 59.6146 1333.71 524.451
1109 0 37.1855 14.5487 541 59.1017 1333.83 523.856
1110 0 38.1943 12.4102 474 60.5802 1334.25 523.8
1111 0 37.2087 11.5564 430 62.6674 1333.8 524.874
1112 0 38.185 11.8895 454 62.6256 1334.07 523.073
1113 0 41.1153 13.6202 560 59.6679 1334.7 523.414
1114 0 42.1744 13.2545 559 62.0608 1333.91 521.19
1115 0 44.2559 16.2916 721 59.3024 1333.78 521.641
1116 0 45.2285 14.0177 634 61.1814 1334.28 519.995
1117 0 47.2858 13.9788 661 61.8699 1334 519.289
1118 0 47.2756 13.5376 640 62.525 1333.99 519.759
1119 0 49.3374 14.6137 721 62.4882 1333.69 517.976
1120 0 49.1142 13.2141 649 64.8413 1333.71 516.197
1121 0 52.3509 13.0466 683 63.2284 1334.2 517.436
1122 0 52.1395 14.5571 759 63.6601 1334.24 514.644
1123 0 55.217 13.1844 728 65.1195 1334.28 514.591
1124 0 57.1262 15.457 883 63.2356 1334.67 513.587
1125 0 57.3347 13.4648 772 65.1541 1334.82 511.939
1126 0 60.3643 14.9923 905 63.6453 1335.12 510.015
1127 0 62.3887 14.6821 916 64.7817 1334.65 509.736
1128 0 62.3056 14.1881 884 65.5023 1334.43 510.54
1129 0 65.199 13.7886 899 66.2881 1334.67 508.627
1130 0 70.2897 15.3223 1077 63.637 1334.51 509.439
1131 0 69.1836 15.4372 1068 65.661 1334.27 506.053
1132 0 73.3044 12.414 910 67.8187 1333.9 505.762
1133 0 75.1494 14.3448 1078 66.8043 1333.42 504.229
1134 0 77.0743 14.9336 1151 65.3884 1334.48 501.735
1135 0 80.1556 14.2473 1142 65.563 1334.69 500.003
1136 0 82.1986 14.9273 1227 64.8394 1334.74 499.72
1137 0 85.1556 13.763 1172 65.8473 1334.17 501.152
1138 0 88.1678 14.1775 1250 65.4896 1333.9 502.035
1139 0 91.2471 15.2334 1390 65.7835 1334.14 494.229
1140 0 94.3444 14.5743 1375 65.3222 1334.28 500.268
1141 0 95.2918 15.7096 1497 65.5591 1334.5 495.768
1142 0 100.414 14.8585 1492 65.8432 1334.66 495.489
1143 0 102.201 14.5106 1483 67.5152 1334.44 492.288
1144 0 103.144 12.9043 1331 70.1811 1334.02 492.227
1145 0 108.182 16.6941 1806 65.4817 1334.14 492.13
1146 0 111.342 14.424 1606 68.5423 1334.36 488.788
1147 0 117.267 15.2131 1784 67.4961 1334.47 486.433
1148 0 120.235 16.9336 2036 66.5609 1333.98 484.355
1149 0 124.304 15.4862 1925 68.853 1334.39 483.581
1150 1 65.2921 14.4275 942 68.1953 1333.99 510.144
1151 0 65.1532 14.0592 916 69.8537 1334.04 508.377
1152 0 68.1836 13.9476 951 68.612 1334.14 507.589
1153 0 69.1203 15.0462 1040 68.0048 1333.89 509.036
1154 0 72.1914 15.3481 1108 67.8944 1333.58 506.945
1155 0 73.3128 14.1312 1036 69.2548 1333.93 504.629
1156 0 77.2774 13.3674 1033 69.5382 1333.93 504.936
1157 0 77.1667 15.6803 1210 68.6603 1333.81 501.069
1158 0 81.2461 15.7177 1277 68.242 1333.88 499.693
1159 0 86.3299 14.0971 1217 68.5382 1334.18 501.719
1160 0 86.3236 14.0634 1214 69.9786 1334.29 498.429
1161 0 87.2381 13.8815 1211 71.8819 1333.83 493.581
1162 0 93.2688 12.9196 1205 71.7917 1333.5 496.59
1163 0 94.2487 14.345 1352 69.8114 1333.68 496.916
1164 0 98.2603 14.9501 1469 70.6937 1334.1 491.215
1165 0 100.164 13.0286 1305 72.8115 1333.64 493.267
1166 0 101.266 13.2621 1343 73.443 1334.22 486.507
1167 0 106.367 13.6508 1452 72.7004 1334.34 486.581
1168 0 113.248 15.5941 1766 69.4117 1334.37 488.89
1169 0 113.227 14.7227 1667 71.6989 1334.37 484.944
1170 0 118.159 13.8881 1641 71.7776 1334.67 487.214
1171 0 122.579 13.9828 1714 72.14 1334.1 485.214
1172 0 123.381 14.4106 1778 73.0219 1333.81 480.502
1173 0 127.197 13.6952 1742 73.8944 1334.29 479.476
1174 0 131.225 12.5433 1646 74.1009 1334.96 479.443
1175 0 137.245 12.9185 1773 73.6842 1334.48 476.257
1176 0 141.257 14.3992 2034 72.4543 1334.53 471.272
1177 0 144.24 13.7271 1980 72.4131 1335.16 472.823
1178 0 149.425 13.8397 2068 72.4681 1335.69 469.258
1179 0 153.232 15.1796 2326 71.2334 1334.93 467.515
1180 0 157.385 13.6036 2141 73.8655 1334.56 463.256
1181 0 163.406 13.8367 2261 73.2835 1334.09 463.776
1182 0 169.335 14.6928 2488 72.3392 1334.03 461.6
1183 1 130.39 12.9764 1692 72.7394 1334.25 478.639
1184 0 132.384 13.4986 1787 72.0392 1335.02 475.649
1185 0 138.411 15.7935 2186 68.9927 1334.7 475.61
1186 0 142.42 13.5024 1923 71.4763 1333.94 475.82
1187 0 149.437 14.9762 2238 69.3677 1333.8 472.472
1188 0 153.365 13.9276 2136 70.5627 1334.14 468.629
1189 0 156.4 13.8044 2159 71.5072 1333.6 466.574
1190 0 160.341 12.4547 1997 73.0055 1334.56 461.661
1191 0 166.345 13.2316 2201 71.811 1334.19 462.625
1192 0 173.251 15.1803 2630 69.9703 1334.06 455.758
1193 0 179.297 14.8692 2666 69.59 1334.6 456.62
1194 0 183.346 13.4936 2474 72.1871 1335.09 449.01
1195 0 188.429 14.2759 2690 70.6729 1334.44 454.196
1196 0 195.41 16.0842 3143 68.721 1335.3 446.476
1197 0 203.251 16.551 3364 68.3142 1334.94 443.766
1198 0 207.363 15.2052 3153 70.8513 1334.61 442.195
1199 0 213.332 14.1845 3026 72.1494 1334.27 439.464
1200 0 218.521 13.5456 2960 72.8622 1334.95 440.101
1201 0 224.352 14.2677 3201 72.9978 1335.18 430.018
1202 0 230.369 14.5723 3357 72.5118 1334.62 430.811
1203 0 237.509 15.1447 3597 72.1523 1334.54 425.746
1204 0 246.544 16.5245 4074 70.123 1334.58 418.789
1205 0 252.4 13.9065 3510 73.3601 1334.97 418.458
1206 1 134.439 12.7642 1716 70.7803 1334.53 477.821
1207 0 140.295 12.8016 1796 70.6136 1334.52 475.194
1208 1 93.3616 13.4424 1255 69.1418 1335.03 494.366
1209 0 98.3392 14.7042 1446 67.2988 1335.02 492.787
1210 0 102.25 14.9927 1533 66.0209 1335.25 495.238
1211 0 106.487 15.5512 1656 66.0803 1334.4 493.22
1212 0 107.315 15.9158 1708 66.7073 1334.52 489.374
1213 0 112.66 14.3796 1620 67.8889 1334.86 490.291
1214 0 115.352 14.2868 1648 68.1948 1335.36 486.149
1215 0 115.532 13.07 1510 70.9642 1334.92 483.372
1216 0 122.319 15.3452 1877 67.2099 1335.03 485.592
1217 0 127.207 14.9127 1897 68.2688 1334.84 481.665
1218 1 57.2605 13.5696 777 68.601 1335.05 513.318
1219 0 58.1786 14.7649 859 68.2293 1334.99 511.4
1220 0 59.1012 13.35 789 70.0824 1334.5 514.142
1221 0 64.2315 14.51 932 68.6266 1334.6 510.921
1222 0 65.2763 14.5382 949 69.3709 1334.63 510.098
1223 0 67.08 13.0739 877 70.4036 1334.93 511.596
1224 0 67.0981 12.5488 842 71.3124 1335.44 510.381
1225 0 69.1338 11.7887 815 72.411 1335.78 507.135
1226 0 71.2719 14.8305 1057 69.4522 1335.88 504.381
1227 0 76.1892 15.094 1150 68.98 1335.23 505.177
1228 0 78.3474 14.5633 1141 69.0999 1335.31 505.279
1229 0 79.3545 16.2436 1289 67.8363 1335.15 503.266
1230 0 83.2278 15.2834 1272 68.3538 1335.52 502.244
1231 0 82.2665 12.4109 1021 73.714 1335.09 498.318
1232 0 86.2748 12.4718 1076 72.4461 1334.36 501.879
1233 1 39.0714 14.2559 557 65.7253 1334.85 521.057
1234 0 38.0784 13.551 516 65.7403 1335.45 521.078
1235 0 42.1936 12.5848 531 67.1977 1334.82 520.537
1236 0 40.2375 12.4014 499 68.9299 1334.69 521.349
1237 0 43.1061 13.2464 571 67.1226 1335.11 520.974
1238 0 44.1566 11.9801 529 67.1361 1335.59 520.722
1239 0 43.2395 12.6042 545 69.4294 1334.8 519.262
1240 0 45.13 14.3364 647 66.8068 1334.63 520.057
1241 0 47.0948 13.1012 617 68.6418 1335 518.548
1242 0 46.21 13.0708 604 68.7765 1335.14 518.823
1243 0 49.1195 12.9073 634 70.1215 1335.54 517.121
1244 0 50.3034 13.9156 700 69.6743 1334.97 519.071
1245 0 52.181 12.5525 655 69.4992 1335.13 520.866
1246 0 51.0999 13.0137 665 69.3654 1335.34 520.759
1247 0 53.0622 13.324 707 69.9293 1334.83 520.397
1248 0 51.1771 14.909 763 69.194 1335.15 520.493
1249 0 50.0545 14.644 733 70.0355 1335.59 521.744
1250 1 14.0042 8.64028 121 63.719 1335.35 537.876
1251 0 15.0821 9.68033 146 64.4178 1336.01 536.781
1252 0 16.0279 8.73479 140 66.2071 1335.64 538.636
1253 0 16.0153 9.05384 145 67.2828 1335.57 539.2
1254 0 15.0222 9.31955 140 68.75 1335.14 538.7
1255 1 50.1735 13.8519 695 73.7108 1335.36 522.932
1256 0 54.1298 13.948 755 65.8848 1335.25 517.661
1257 0 51.0724 12.9033 659 64.3247 1335.02 517.929
1258 0 53.1751 10.3996 553 60.17 1335.45 519.926
1259 0 54.4556 11.9914 653 57.8484 1335.1 520.067
1260 1 19.0611 14.06 268 53.1493 1335.28 533.899
1261 0 19.1355 14.1099 270 58.3111 1334.43 533.659
1262 0 21.043 9.21924 194 62.3402 1333.74 534.799
1263 0 20.1499 13.2507 267 58.0037 1334.6 533.408
1264 0 22.0666 17.4925 386 53.9197 1333.66 534.21
1265 0 20.1743 16.1096 325 57.1169 1333.96 534.492
1266 0 21.4177 14.4273 309 56.5631 1334.3 534.544
1267 0 20.2148 15.3353 310 56.6032 1334.9 532.029
1268 0 21.1641 14.742 312 55.8942 1335.09 532.583
1269 0 24.0972 15.23 367 54.4414 1335.03 531.965
1270 0 20.0975 13.1857 265 59.4717 1333.83 533.781
1271 0 22.1153 15.374 340 55.8382 1334.1 533.782
1272 0 21.2459 16.0972 342 54.9532 1334.81 533.175
1273 0 22.2414 14.8822 331 56.7764 1334.3 533.193
1274 0 21.1769 13.7886 292 57.863 1334.1 533.757
1275 0 23.1545 13.3451 309 56.2136 1334.14 533.861
1276 0 18.0772 12.2807 222 48.5135 1335.43 534.279
1277 0 18.1438 9.59005 174 51.7586 1334.35 534.299
1278 0 18.1263 9.48896 172 50.3605 1334.77 535.32
1279 0 17.1497 10.0294 172 50.0058 1335.16 535.471
1280 0 19.1448 10.2378 196 49.4541 1335.08 534.658
1281 0 19.1967 9.74124 187 50 1334.99 533.963
1282 1 114.577 13.2487 1518 59.8669 1334.72 488.918
1283 0 114.296 12.8614 1470 60.3095 1335.21 485.75
1284 0 114.538 9.82206 1125 62.6151 1335.72 484.245
1285 0 118.668 12.5223 1486 60.1716 1335.72 485.949
1286 0 120.507 11.6093 1399 61.3667 1335.43 483.401
1287 0 125.218 13.4725 1687 58.5584 1335.95 486.865
1288 0 127.484 13.7665 1755 58.9219 1335.55 483.9
1289 0 130.272 15.2604 1988 57.4487 1335.07 484.844
1290 0 132.968 13.2287 1759 60.2678 1334.96 480.139
1291 0 135.705 14.9515 2029 58.342 1335.49 478.285
1292 0 137.812 12.9306 1782 60.1824 1335.01 480.558
1293 0 140.721 13.8003 1942 60.1493 1334.58 473.836
1294 1 99.3797 10.3542 1029 59.3304 1335.18 497.243
1295 0 100.463 10.8597 1091 59.9019 1334.44 495.562
1296 0 102.535 8.83597 906 62.2726 1334.91 490.18
1297 0 104.601 11.4626 1199 59.3028 1334.89 493.531
