time division length width area intensity CMx CMy
0 0 53.0956 11.2627 598 82.0368 736.528 503.177
1 0 54.0434 12.3604 668 80.241 735.777 503.238
2 0 58.131 12.4202 722 79.2465 736.198 502.176
3 0 60.0739 13.6499 820 76.7951 736.08 503.132
4 0 62.1038 12.3825 769 78.9675 736.385 502.195
5 0 63.0429 12.1505 766 79.5444 736.603 502.623
6 0 66.0877 12.4078 820 78.8268 735.645 500.93
7 0 69.0911 13.8223 955 76.3927 735.408 498.312
8 0 68.1902 11.7026 798 80.1015 735.422 497.365
9 0 74.2272 12.4887 927 77.9288 735.297 497.024
10 0 77.1472 12.6382 975 77.2964 734.967 496.574
11 0 78.05 13.581 1060 76.567 735.176 494.131
12 1 41.0659 11.7129 481 76.9231 735.156 514.69
13 0 41.0584 10.1806 418 81.6675 734.79 512.541
14 0 42.0518 12.6511 532 77.3252 735.739 513.483
15 0 45.1146 12.9892 586 77.1263 735.067 510.3
16 0 47.0589 12.3887 583 77.47 734.532 511.4
17 0 50.2118 13.9808 702 73.6467 734.234 510.308
18 0 50.1082 13.5307 678 75.6578 734.146 507.981
19 0 52.0458 12.2777 639 77.4757 733.953 508.865
20 0 52.0427 12.8164 667 77.1724 733.912 506.441
21 0 56.1888 12.9563 728 75.9327 734.251 507.698
22 0 56.0817 13.0167 730 76.6164 733.938 506.056
23 0 57.0588 13.1443 750 76.164 734.236 505.881
24 0 59.0462 13.1592 777 76.1441 733.749 506.194
25 0 61.1669 12.6539 774 76.9173 733.656 503.757
26 0 63.0726 13.4765 850 75.7012 733.749 502.628
27 0 63.0736 12.7787 806 77.7878 733.7 500.701
28 0 69.0986 13.0683 903 75.8549 732.824 501.38
29 0 70.1831 13.0801 918 76.2026 733.098 500.293
30 0 72.1273 13.601 981 75.3191 733.714 499.678
31 0 72.2239 12.5305 905 77.9989 733.907 497.068
32 0 75.075 14.0659 1056 75.5568 733.415 496.235
33 0 78.0405 13.9799 1091 75.516 733.09 493.978
34 0 78.1448 13.4878 1054 76.999 732.538 495.653
35 1 40.0124 12.946 518 77.6776 732.736 513.469
36 0 40.0762 10.8294 434 81.6613 733.134 514.323
37 0 42.06 11.9353 502 80.6295 733.418 513.102
38 0 42.0253 11.6358 489 82.6483 733.217 510.691
39 0 44.0481 12.895 568 81.1391 733.389 508.887
40 0 47.0663 13.4704 634 79.0789 733.967 511.418
41 0 47.1667 13.8657 654 79.6483 733.304 508.706
42 0 49.124 13.3947 658 80.9058 734.058 507.843
43 0 49.054 12.0683 592 84.0828 733.549 508.385
44 0 50.0866 13.3169 667 82.3733 734.067 506.769
45 0 54.1389 14.3889 779 79.1926 733.956 507.012
46 0 53.073 13.4908 716 82.514 732.915 504.87
47 0 56.1687 13.5307 760 81.8763 733.432 503.655
48 0 57.0904 13.032 744 83.3952 733.411 502.038
49 0 60.2581 13.8073 832 81.8906 733.279 501.857
50 0 63.1161 13.9584 881 81.0953 733.9 501.881
51 0 64.1576 13.1551 844 82.8175 733.95 501.262
52 0 66.105 12.6919 839 84.1561 733.569 498.757
53 0 68.1063 13.6845 932 82.3916 733.548 498.567
54 0 71.164 14.9654 1065 79.4113 733.867 498.654
55 0 73.0535 14.8521 1085 79.2055 733.932 500.196
56 0 74.0647 14.4063 1067 81.5829 733.78 494.549
57 1 40.0628 12.2058 489 86.501 733.272 511.335
58 0 38.0671 11.2433 428 89.229 732.645 510.797
59 0 43.0702 12.6073 543 85.418 732.788 511.188
60 0 42.1215 11.3244 477 88.478 732.895 511.214
61 0 44.1937 12.8525 568 85.6637 733.074 510.829
62 0 45.0611 11.6065 523 88.4436 732.954 509.3
63 0 48.093 12.7669 614 85.5195 733.153 508.787
64 0 49.0264 13.2786 651 84.4685 733.244 508.831
65 0 52.1539 13 678 84.3953 732.366 508.426
66 0 52.1637 13.4001 699 84.8555 733.213 507.509
67 0 55.0851 15.4488 851 80.4078 733.126 506.831
68 0 55.12 13.389 738 84.7574 732.633 506.039
69 0 55.0711 12.62 695 86.8115 732.341 506.406
70 0 58.1313 14.02 815 83.8982 732.395 504.523
71 0 59.0964 13.1818 779 85.801 732.574 502.897
72 0 61.1219 13.6612 835 84.9784 732.649 502.493
73 0 64.1534 13.4677 864 84.3947 733.135 501.991
74 0 65.2058 12.6216 823 86.158 732.543 500.593
75 0 68.1269 13.8125 941 83.4814 733.083 500.06
76 0 68.1817 14.0947 961 83.769 733.228 499.873
77 0 72.1013 12.5379 904 85.5808 732.853 499.878
78 0 74.1622 13.2952 986 83.712 732.955 498.558
79 1 40.0597 11.9821 480 84.4604 733.327 512.877
80 0 39.1377 10.8847 426 87.2958 733.709 513.099
81 0 42.0706 11.5045 484 85.2397 733.7 511.837
82 0 41.0716 12.4417 511 84.9452 733.605 510.914
83 0 43.0584 12.4017 534 83.8333 733.257 511.878
84 0 45.1439 12.7813 577 82.8458 732.946 510.076
85 0 46.2009 11.6232 537 83.9441 732.674 510.365
86 0 46.1093 11.8848 548 85.2938 733.403 507.81
87 0 49.1144 11.5648 568 84.0299 732.894 508.493
88 0 51.1062 12.3273 630 82.7048 733.436 506.329
89 0 51.072 13.3733 683 81.6706 733.161 505.35
90 0 54.1 12.9575 701 81.3695 733.205 506.542
91 0 56.0722 13.1259 736 81.7731 733.428 504.838
92 0 57.1293 13.3732 764 81.1832 733.025 503.531
93 0 57.0936 12.5408 716 82.7779 733.242 504.254
94 0 59.0576 12.1068 715 83.0084 733.45 505.217
95 0 60.0821 12.2998 739 83.1719 733.478 503.968
96 0 61.0347 12.8779 786 82.4542 734.039 502.738
97 0 66.0776 15.2245 1006 77.0338 733.482 501.421
98 0 65.0841 13.229 861 81.6574 733.29 500.49
99 0 67.0714 13.344 895 81.2022 733.218 499.773
100 0 71.1006 12.7988 910 81.1813 733.545 498.923
101 0 71.1175 13.1472 935 81.0963 733.52 498.144
102 0 75.1088 13.6868 1028 79.3959 733.495 498.633
103 0 76.1183 13.5184 1029 80.1399 733.864 497.473
104 0 78.1051 13.4818 1053 80.3571 733.912 495.847
105 0 82.2003 13.5766 1116 79.4767 733.288 495.002
106 0 84.2082 14.5473 1225 78.2147 733.051 493.022
107 1 43.0587 10.4508 450 84.7911 734.431 512.098
108 0 45.0306 10.504 473 84.6258 733.516 510.793
109 0 48.0232 12.14 583 81.1132 733.576 510.163
110 0 50.1103 13.131 658 79.2295 733.02 508.964
111 0 51.0701 12.5318 640 80.1438 733.441 509.588
112 0 51.0919 12.2329 625 82.0208 733.469 508.278
113 0 53.0843 11.6419 618 82.5307 733.482 508.506
114 0 55.1131 12.556 692 80.8454 733.285 508.652
115 0 54.1011 12.7169 688 81.3794 733.564 507.99
116 0 58.0342 13.1302 762 80.2966 733.114 506.159
117 0 57.1804 13.0814 748 82.0374 733.304 503.925
118 0 60.0491 14.1551 850 79.7718 733.936 502.396
119 0 61.0661 14.5744 890 79.1663 733.458 502.274
120 0 62.148 12.969 806 81.8846 733.54 502.361
121 0 66.0418 14.082 930 79.3269 733.82 500.706
122 0 68.0499 13.9163 947 79.6093 733.615 499.769
123 0 67.083 13.2671 890 81.8135 732.38 498.996
124 0 72.0817 15.205 1096 77.0794 733.11 497.992
125 0 74.1432 14.1618 1050 78.401 733.031 497.784
126 0 75.0955 13.6892 1028 79.8376 732.989 496.475
127 0 77.105 13.3454 1029 80.2196 733.194 496.089
128 0 82.1123 14.5045 1191 77.3946 733.613 494.176
129 1 40.0222 10.5941 424 81.6368 733.493 514.193
130 0 41.0326 10.845 445 81.7888 733.162 513.391
131 0 44.0255 11.9703 527 78.2011 732.901 513.653
132 0 44.0659 12.8444 566 77.8145 733.297 512.991
133 0 46.0415 12.0109 553 79.7251 733.631 511.394
134 0 46.0209 11.6903 538 81.4071 734.009 511.589
135 0 46.0105 11.7799 542 81.2454 734.256 511.745
136 0 50.0178 13.0553 653 78.1378 734.436 509.734
137 0 51.0479 11.7732 601 81.1581 733.684 509.268
138 0 52.0553 14.5422 757 76.2127 733.494 507.329
139 0 52.0623 12.7155 662 79.9245 733.746 507.758
140 0 54.0231 12.291 664 79.8795 732.831 508.361
141 0 56.0242 12.5124 701 79.6534 732.994 507.114
142 0 57.0376 11.9044 679 81.3947 733.246 506.096
143 0 60.1072 13.6423 820 77.4476 732.523 505.394
144 0 60.0359 13.7251 824 77.9879 732.658 503.857
145 0 61.0567 13.5284 826 78.7349 733.201 503.074
146 0 64.0498 12.8338 822 78.9307 733.664 504.467
147 0 64.0872 13.5128 866 79.4388 733.364 500.935
148 0 67.0589 12.4368 834 80.06 733.642 503.624
149 0 69.0656 13.755 950 78.7095 733.312 499.866
150 0 70.0336 11.7229 821 82.6346 733.111 499.155
151 0 73.0844 13.0534 954 79.8417 732.548 498.26
152 1 39.0162 11.5081 449 80.294 732.909 516.501
153 0 41.0302 10.7725 442 81.9728 733.328 514.801
154 0 40.0594 11.6577 467 82.728 733.745 514.724
155 0 43.0213 12.2033 525 80.9657 733.143 513.185
156 0 44.0547 11.3722 501 82.9361 733.429 512.252
157 0 46.0669 12.1345 559 80.9481 733.254 512.281
158 0 46.0475 12.5522 578 80.5709 733.14 512.687
159 0 46.0327 11.557 532 83.7989 733.09 511.731
160 0 48.0836 13.1646 633 81.158 732.319 510.757
161 0 52.0688 13.7703 717 78.4672 732.555 509.011
162 0 49.0417 13.2336 649 82.0431 732.952 508.148
163 0 52.0627 12.8499 669 81.8027 732.91 508.19
164 0 56.0318 13.7065 768 79.043 733.113 507.53
165 0 56.0715 12.1987 684 82.7164 732.499 507.449
166 0 58.1025 13.0975 761 80.6491 732.328 505.398
167 0 58.0733 13.9651 811 80.0592 732.414 504.568
168 0 62.0614 15.2107 944 76.822 732.314 504.421
169 0 63.049 12.3396 778 82.5848 732.104 503.904
170 0 64.1018 13.8374 887 79.8523 732.352 504.561
171 0 68.0426 13.7267 934 79.5653 732.388 503.91
172 0 70.0292 13.1802 923 81.104 732.752 500.794
173 0 71.078 14.5615 1035 78.6338 732.18 500.252
174 0 73.0527 13.237 967 81.3878 732.093 499.522
175 1 37.0091 10.4839 388 86.9098 732.763 516.688
176 0 38.0137 12.627 480 83.9688 732.954 515.219
177 0 38.0239 11.1772 425 87.1506 732.873 514.791
178 0 41.1474 12.7104 523 83.9503 732.973 513.744
179 0 42.022 12.779 537 84.6853 733.318 513.074
180 0 46.0255 12.4931 575 83.2904 732.369 513.795
181 0 45.0332 12.7684 575 84.5948 731.35 512.061
182 0 45.0598 12.2282 551 86.2142 731.515 512.205
183 0 47.0158 12.868 605 84.8099 731.374 511.302
184 0 49.0214 12.8311 629 84.3975 731.486 510.051
185 0 52.0859 12.9018 672 83.9598 731.616 510.284
186 0 51.0309 13.2665 677 84.5554 731.733 508.758
187 0 52.031 11.8007 614 87.2394 731.62 509.006
188 0 55.0609 13.8574 763 82.8991 731.611 507.358
189 0 56.0413 13.615 763 84.3604 732.174 506.346
190 0 58.0445 13.0589 758 85.2744 732.161 503.954
191 0 59.0302 12.9425 764 86.212 732.395 504.865
192 0 60.0443 13.7732 827 84.5224 732.446 505.121
193 0 63.0367 12.2151 770 87.5273 732.464 503.758
194 0 66.0432 12.7341 841 85.9453 732.258 502.735
195 0 68.0931 14.7005 1001 82.2917 732.462 501.794
196 0 68.1178 13.1684 897 86.2475 732.721 502.234
197 0 71.0222 13.9815 993 84.6072 732.642 499.508
198 0 74.1165 13.128 973 85.668 732.969 499.543
199 0 76.0684 14.132 1075 84.4502 732.999 497.522
200 1 40.0499 11.5855 464 90.0819 732.694 515.043
201 0 41.0655 12.9549 532 87.6523 732.669 514.669
202 0 42.0596 11.341 477 91.6184 732.43 514.625
203 0 43.0911 11.8818 512 91.1797 732.564 513.146
204 0 47.032 14.841 698 83.3324 732.874 513.691
205 0 47.0726 13.5323 637 86.8179 731.901 512.945
206 0 49.028 12.6662 621 89.38 732.047 511.124
207 0 50.0364 14.0098 701 86.8859 732.545 511.619
208 0 51.0495 12.7915 653 87.5207 731.905 510.865
209 0 54.0506 14.8379 802 83.0012 732.145 508.93
210 0 55.0337 14.1368 778 84.581 731.692 508.806
211 0 55.015 13.6145 749 86.8318 732.338 508.216
212 0 56.0251 13.3869 750 87.488 731.851 507.583
213 0 58.0309 14.2855 829 86.0217 731.959 505.585
214 0 60.0218 13.9783 839 86.1967 731.905 506.678
215 0 63.0425 15.2437 961 83.692 731.884 504.701
216 0 64.0528 14.0821 902 86.4612 731.696 505.178
217 0 65.0428 14.206 924 87.3788 731.497 502.802
218 0 66.031 13.7814 910 88.3088 731.429 502.112
219 0 68.1147 13.1836 898 89.7751 731.984 502.335
220 0 71.073 13.9434 991 88.0918 731.536 500.341
221 0 74.059 13.9889 1036 87.0145 730.851 499.566
222 0 74.0286 13.2246 979 90.3636 731.249 499.528
223 1 40.0219 12.4182 497 92.2093 730.903 513.63
224 0 40.0481 12.9594 519 91.7553 730.946 513.227
225 0 41.0944 12.5321 515 93.4738 730.847 513.144
226 0 45.093 13.1728 594 90.1549 731.453 514.609
227 0 46.0261 12.5146 576 92.1181 731.184 514.054
228 0 45.0144 12.1517 547 93.9835 731.033 513.918
229 0 47.014 12.3155 579 94.247 731.416 513.522
230 0 50.044 14.0476 703 89.808 731.521 511.438
231 0 49.0802 13.5289 664 93.1084 731.761 511.036
232 0 52.0147 15.188 790 87.9405 731.739 511.182
233 0 51.0797 13.5279 691 93.5398 731.373 509.531
234 0 54.0538 12.4875 675 95.3215 731.24 508.259
235 0 56.1129 14.1857 796 90.9108 731.874 508.42
236 0 58.0672 13.226 768 92.7578 731.206 507.797
237 0 58.0324 13.6131 790 93.4506 731.881 506.401
238 0 59.0511 13.1581 777 94.5714 731.512 506.309
239 0 61.1308 13.0867 800 94.9375 731.84 505.51
240 0 61.0977 14.0758 860 94.2349 732.129 502.842
241 0 63.0359 12.9767 818 96.6345 732.072 502.207
242 0 64.0647 13.7361 880 94.4693 731.548 502.584
243 0 66.0241 14.2675 942 93.3355 731.188 502.035
244 0 68.0663 14.0157 954 94.3176 731.397 501.509
245 0 71.1535 13.8292 984 94.4492 731.847 500.561
246 0 72.0443 13.6444 983 95.2136 731.657 498.909
247 0 74.0337 13.9531 1033 94.0397 731.504 499.955
248 0 77.1639 14.5794 1125 93.2062 731.135 496.413
249 0 77.0554 14.0678 1084 95.3625 731.253 494.81
250 0 81.173 14.4876 1176 93.7662 731.014 493.685
251 1 42.039 12.4408 523 98.1568 731.128 511.518
252 0 42.0213 11.8987 500 100.756 731.744 513.512
253 0 48.0184 13.12 630 94.627 732.025 513.614
254 0 48.0332 12.3456 593 97.6678 731.531 512.41
255 0 51.0402 12.833 655 95.1756 731.771 512.301
256 0 50.0326 13.6711 684 95.7018 731.73 510.105
257 0 50.0443 14.2274 712 94.7992 731.506 509.479
258 0 53.0702 14.6033 775 92.8594 731.657 509.01
259 0 52.0153 13.3807 696 96.5517 732.174 509.28
260 0 56.0369 13.4554 754 95.0225 732.271 507.708
261 0 58.0413 13.7833 800 93.5725 732.102 506.529
262 0 58.0186 14.0645 816 93.777 732.274 505.384
263 0 61.0428 14.2687 871 91.5201 732.284 505.475
264 0 63.0462 12.8636 811 94.3181 732.243 505.308
265 0 63.1006 12.7733 806 95.1365 732.005 503.357
266 0 65.0314 13.4704 876 93.831 732.837 502.984
267 0 68.0403 12.8159 872 93.8142 732.197 503.49
268 0 68.0402 13.8888 945 92.4984 731.626 500.524
269 0 72.1154 14.144 1020 91.1274 732.319 499.515
270 1 34.0318 11.0191 375 96.9653 731.875 518.197
271 0 36.1055 11.8542 428 95.7033 731.706 517.262
272 0 38.0406 12.7758 486 91.6255 731.811 517.167
273 0 39.0186 13.4551 525 91 731.821 515.985
274 0 40.0273 13.3159 533 91.4503 732.557 515.266
275 0 43.0724 13.5586 584 89.2551 731.889 515.786
276 0 44.0321 13.4674 593 89.6307 732.108 513.811
277 0 44.0236 12.7659 562 92.0569 731.852 513.635
278 0 43.0795 12.4189 535 94.3009 731.628 512.045
279 0 47.0849 13.9323 656 88.0198 731.358 511.904
280 0 47.1212 13.3698 630 90.6603 731.321 512.103
281 0 46.0714 12.6326 582 93.1478 731.191 511.751
282 0 50.0245 14.4329 722 88.1759 731.346 510.686
283 0 50.0975 13.853 694 89.8574 731.872 510.125
284 0 52.0392 13.2592 690 91.2275 731.661 508.988
285 0 53.1284 13.4203 713 90.4446 731.372 509.105
286 0 56.0243 14.1189 791 87.6485 731.11 508.954
287 0 54.0288 12.6414 683 92.713 731.571 507.312
288 0 58.0237 14.8043 859 87.3481 732.065 505.868
289 0 59.1135 13.8547 819 89.453 732.33 505.965
290 0 61.0689 14.8521 907 86.9283 731.849 503.985
291 0 63.0262 13.6134 858 89.4545 732.612 505.434
292 0 68.0579 14.1644 964 86.2614 732.277 506.108
293 0 67.02 14.0704 943 88.2662 732.023 502.288
294 0 71.0705 14.1972 1009 86.3429 732.901 502.997
295 1 35.0397 12.072 423 92.3522 732.199 518.085
296 0 36.0387 12.0704 435 91.4069 732.342 518.853
297 0 38.0138 13.6266 518 88.8649 732.624 516.938
298 0 38.0128 12.7062 483 91.6253 732.298 516.306
299 0 40.0554 12.6575 507 91.3156 732.049 514.31
300 0 41.0401 13.0604 536 90.2705 731.478 514.282
301 0 42.014 13.6145 572 88.9336 732.14 513.579
302 0 43.0195 14.2493 613 88.0555 731.884 513.031
303 0 46.0551 13.4187 618 88.1165 732.081 513.892
304 0 46.0681 13.1978 608 89.551 732.021 512.301
305 0 45.0208 12.6608 570 92.2579 731.302 511.202
306 0 49.0495 13.3538 655 88.8275 730.998 511.298
307 0 48.024 13.4516 646 89.7833 731.31 510.913
308 0 50.0477 13.0475 653 89.7672 730.985 510.499
309 0 52.0918 14.1289 736 87.3451 730.999 509.837
310 0 54.0371 13.8979 751 87.8003 731.225 508.907
311 0 54.0386 12.7872 691 90.3994 730.755 509.009
312 0 56.0894 13.8351 776 88.5606 731.237 506.755
313 0 59.0898 14.3172 846 86.5449 731.294 506.33
314 0 60.0356 13.9917 840 87.1869 731.129 506.964
315 0 62.0713 14.9344 927 85.1456 731.093 503.956
316 0 64.0924 14.4791 928 87.0269 730.758 504.342
317 0 65.0655 14.2164 925 87.853 731.012 502.319
318 0 70.0299 14.1939 994 86.7616 730.668 501.238
319 1 34.0213 11.7867 401 91.601 730.167 518.127
320 0 37.055 11.7933 437 92.1693 730.062 514.995
321 0 38.0302 12.0168 457 91.1116 730.398 515.7
322 0 37.0198 13.8034 511 90.3581 731.125 514.652
323 0 40.0244 13.9415 558 89.8961 731.165 514.165
324 0 41.0185 12.7016 521 92.286 730.582 514.392
325 0 42.0455 13.4378 565 90.4796 730.95 513.03
326 0 43.0169 14.7151 633 88.6777 730.829 510.859
327 0 45.0724 14.0219 632 89.9905 731.207 511.25
328 0 46.0288 13.296 612 91.5784 731.008 510.75
329 0 47.0909 14.1216 665 90.3865 731.122 511.332
330 0 48.0372 12.5111 601 93.0482 731.443 511.877
331 0 50.0344 13.2709 664 91.4187 732.008 510.896
332 0 51.0343 14.6568 748 88.4572 731.602 510.594
333 0 52.1082 13.5871 708 90.9124 731.685 508.511
334 0 55.0794 15.7954 870 84.9207 731.483 509.792
335 0 55.0554 14.3855 792 88.7008 731.582 508.845
336 0 56.1002 14.0106 786 89.2583 731.623 509.344
337 0 57.0668 13.1951 753 92.2351 731.948 507.815
338 0 59.0329 14.8222 875 88.1383 731.696 507.161
339 0 59.0987 13.469 796 91.6357 731.188 506.448
340 0 61.0755 14.3429 876 89.0559 731.168 506.283
341 0 64.07 14.2969 916 88.8384 731.515 504.235
342 0 66.0521 14.2312 940 89.1 731.495 503.895
343 0 68.0194 14.2165 967 89.0207 731.595 502.112
344 0 68.1269 13.1372 895 91.3229 731.792 502.356
345 0 71.092 13.0113 925 91.9989 731.683 500.606
346 0 74.0589 14.1239 1046 89.2189 731.622 499.529
347 0 75.2247 13.4929 1015 90.7025 730.962 499.221
348 1 38.0339 12.3574 470 94.2064 731.113 515.985
349 0 39.0364 12.7317 497 93.2676 730.612 514.879
350 0 39.0734 12.4637 487 95.6632 730.899 513.366
351 0 43.1097 15.0546 649 88.2265 730.658 514.302
352 0 45.0651 14.3348 646 88.9551 730.689 514.141
353 0 43.0796 13.3242 574 93.4199 730.864 513.807
354 0 45.1112 13.3891 604 93.25 731.04 511.816
355 0 47.1318 13.9821 659 91.8907 731.469 511.399
356 0 49.0378 14.5602 714 89.8796 731.594 510.633
357 0 50.0205 14.2342 712 90.2317 731.177 510.205
358 0 51.0396 14.7141 751 89.0133 729.674 507.893
359 0 54.0905 15.4001 833 86.4022 730.371 509.164
360 0 54.0865 15.4752 837 87.3967 730.104 508.308
361 0 56.0858 14.9057 836 88.6531 731.077 506.523
362 0 57.094 14.2747 815 90.2478 731.491 506.334
363 0 58.0577 14.1411 821 90.2607 731.734 506.325
364 0 60.1598 14.3451 863 90.2665 731.67 504.725
365 0 62.0393 13.8138 857 91.266 731.281 504.547
366 0 65.065 15.3539 999 86.974 731.494 504.649
367 0 66.0845 14.6025 965 89.7637 731.32 502.781
368 0 68.0459 13.873 944 91.375 731.618 502.023
369 0 70.0808 13.7555 964 91.2095 731.441 502.538
370 1 35.053 12.3813 434 95.6613 731.316 516.44
371 0 37.0104 13.888 514 93.7082 730.823 515.084
372 0 39.0321 14.2447 556 92.5881 730.266 512.896
373 0 40.0399 13.3867 536 95.222 730.325 512.724
374 0 42.0209 14.5166 610 92.318 730.938 511.444
375 0 42.0289 13.229 556 96.4317 731.083 511.189
376 0 42.1575 13.2835 560 96.0214 732.02 514.586
377 0 45.063 13.1815 594 95.5438 732.104 513.657
378 0 45.065 14.0908 635 95.3685 731.998 511.654
379 0 46.1348 13.7423 634 95.6688 731.339 511.91
380 0 48.117 14.1738 682 94.3636 731.199 510.746
381 0 50.0689 14.0007 701 93.99 731.962 510.034
382 0 52.0796 16.2252 845 89.3562 731.189 510.262
383 0 53.148 15.5039 824 90.8386 731.095 509.598
384 0 53.043 13.8755 736 94.8003 731.549 507.329
385 0 57.0247 15.011 856 91.0935 731.864 507.815
386 0 57.0866 14.0488 802 93.9526 731.646 505.751
387 0 59.087 14.284 844 93.6197 731.994 505.168
388 0 61.0623 14.1659 865 93.3399 731.284 505.24
389 0 63.1322 13.6064 859 94.2189 731.917 504.66
390 0 65.0774 15.5507 1012 90.6255 731.753 502.441
391 0 67.1023 14.4853 972 93.5051 732.071 501.451
392 0 69.133 14.6674 1014 93.0069 731.672 501.972
393 0 72.102 14.951 1078 92.0751 731.512 499.55
394 0 73.0591 14.673 1072 92.3414 731.534 501.007
395 0 77.0409 14.7454 1136 91.7896 731.505 498.766
396 0 79.105 14.5629 1152 91.9227 731.608 499.291
397 0 80.048 14.2415 1140 93.0939 731.575 497.135
398 1 41.0271 14.8195 608 93.1891 731.456 514.704
399 0 43.1193 13.2887 573 94.5166 730.73 513.679
400 0 45.0936 13.9709 630 91.0683 731.189 514.119
401 0 45.0374 14.3436 646 92.0557 731.755 514.201
402 0 48.0615 13.566 652 92.316 731.673 514.14
403 0 47.0914 14.0578 662 94.3006 731.68 511.384
404 0 48.0738 13.7289 660 94.2758 731.341 511.888
405 0 52.0577 15.7325 819 88.1636 731.834 511.062
406 0 53.0439 14.9687 794 90.7859 732.165 509.955
407 0 53.0726 15.5824 827 90.347 731.591 508.169
408 0 56.0475 15.4869 868 89.3007 731.804 508.535
409 0 58.1244 14.3657 835 90.2838 732.14 508.847
410 0 59.1641 14.7556 873 90.7216 732.016 506.945
411 0 61.057 13.7249 838 92.8174 732.194 506.635
412 0 62.0935 13.995 869 92.5316 732.677 507.092
413 0 66.1027 16.5803 1096 86.5356 732.536 504.596
414 0 67.0852 14.3996 966 91.5983 732.322 503.038
415 0 70.1429 14.8269 1040 89.7048 732.595 502.845
416 0 71.0502 14.5109 1031 91.3385 732.437 500.957
417 1 36.0193 13.6316 491 92.9328 732.116 517.605
418 0 36.0178 12.6049 454 94.7203 732.046 518.833
419 0 37.0349 13.9598 517 93.4043 732.19 516.762
420 0 39.041 14.5232 567 90.3333 731.938 517.813
421 0 41.0213 13.3102 546 93.381 732.068 516.247
422 0 41.0481 14.7388 605 91.2777 731.871 514.86
423 0 42.0376 12.917 543 93.6575 732.709 516.418
424 0 44.049 13.6212 600 92.755 732.495 515.497
425 0 43.0397 13.6153 586 93.8225 732.266 515.461
426 0 44.0375 12.83 565 95.3912 731.625 515.266
427 0 47.045 14.0929 663 91.7813 731.822 514.519
428 0 49.0533 14.6983 721 90.5659 731.709 513.569
429 0 50.0249 14.1929 710 91.5282 731.801 512.363
430 0 51.1155 14.5944 746 91.2346 731.638 511.296
431 0 53.1608 14.1081 750 90.8493 732.013 512.607
432 0 53.0425 14.0076 743 92.5209 731.968 511.629
433 0 54.0845 14.1076 763 93.7785 731.657 509.488
434 0 57.1562 13.8918 794 93.4748 732.331 510.009
435 0 58.0304 14.7853 858 92.1853 732.015 509.779
436 0 60.1151 13.8068 830 93.9289 731.849 509.375
437 0 62.0904 14.0279 871 94.1102 732.012 508.082
438 0 63.0368 13.2938 838 96.1146 732.323 507.439
439 0 64.1044 13.868 889 95.4769 732.246 505.922
440 0 67.124 14.5105 974 93.3398 731.897 505.633
441 0 69.1425 13.5228 935 96.0257 732.576 504.066
442 0 72.0634 14.8897 1073 92.9432 732.241 503.085
443 0 74.0394 14.6949 1088 92.9458 731.818 502.789
444 0 74.0427 14.5997 1081 94.7123 732.085 500.143
445 0 74.0427 14.6267 1083 170.904 732.086 500.156
446 1 34.0309 13.282 452 97.1217 731.956 519.9
447 0 34.0317 14.0163 477 96.6059 731.918 519.449
448 0 37.0398 14.0659 521 95.0595 732.24 517.81
449 0 37.023 13.181 488 97.9139 731.879 518.338
450 0 38.0334 14.461 550 95.8 732.127 518.329
451 0 38.0448 14.0887 536 97.2351 732.34 517.284
452 0 40.0587 14.0044 561 96.533 732.38 517.234
453 0 41.0578 14.6623 602 94.2458 732.482 517.605
454 0 43.044 15.217 655 92.5496 732.13 515.765
455 0 43.013 14.019 603 95.2653 732.133 515.287
456 0 44.0488 14.2796 629 95.7583 732.213 514.504
457 0 45.0253 15.036 677 93.0148 732.281 514.069
458 0 46.0966 14.1876 654 94.7141 732.948 515.044
459 0 48.0776 13.7486 661 95.9864 732.631 513.749
460 0 49.0672 13.8789 681 96.1674 732.762 513.084
461 0 52.0193 15.3405 798 91.9925 732.539 511.001
462 0 52.0948 14.1665 738 94.9499 732.618 511.554
463 0 55.0563 15.3298 844 92.8673 733.017 509.264
464 0 55.2092 13.6934 756 96.3717 732.317 510.758
465 0 57.0399 14.7967 844 93.7607 732.495 510.385
466 0 56.0521 15.1823 851 94.9224 732.798 508.306
467 0 58.0647 14.6733 852 96.1502 732.411 507.953
468 0 61.0406 14.6788 896 95.2567 732.615 507.137
469 0 63.0342 15.1981 958 93.7213 732.226 506.811
470 0 65.0352 14.2384 926 96.405 732.147 504.595
471 0 67.0453 14.3038 959 96.1887 731.414 502.466
472 0 68.0384 14.6094 994 95.3823 731.674 502.559
473 0 72.0485 14.7678 1064 94.8214 731.798 500.367
474 0 71.0646 14.916 1060 95.6519 731.41 499.192
475 0 76.0609 15.9214 1211 91.8059 731.495 498.989
476 0 75.0512 14.9764 1124 95.3683 731.286 497.25
477 0 80.0603 15.0636 1206 93.5945 731.399 496.204
478 0 81.1234 14.8416 1204 94.1927 731.756 496.88
479 0 83.0766 14.7214 1223 94.5511 732.543 495.035
480 1 34.013 11.4368 389 96.3702 732.62 519.71
481 0 35.0137 12.0239 421 96.1164 733.076 518.57
482 0 38.0393 12.4345 473 94.2241 732.839 517.562
483 0 37.0376 13.0678 484 94.8223 733.159 516.99
484 0 37.0364 13.6082 504 93.5913 732.837 516.702
485 0 40.0692 13.4517 539 91.8367 732.64 516.269
486 0 42.0079 13.4261 564 92.0869 732.472 515.764
487 0 44.073 14.2264 627 88.9553 733.262 514.901
488 0 43.0189 13.3895 576 91.0851 733.212 514.651
489 0 46.0318 13.8817 639 89.313 733.38 513.214
490 0 46.0445 12.4228 572 91.7045 732.362 512.74
491 0 49.1066 13.5623 666 87.6862 732.188 513.294
492 0 48.1368 13.0877 630 90.2444 732.357 510.995
493 0 51.0453 13.3803 683 88.6252 732.758 511.148
494 0 52.0871 14.111 735 86.3184 732.792 510.933
495 0 53.049 14.1756 752 86.8058 732.844 506.862
496 0 54.0745 13.7033 741 87.5641 733.008 507.44
497 0 57.0688 14.1759 809 85.5439 732.713 505.79
498 0 58.0588 14.3647 834 84.5851 732.418 504.426
499 0 59.0708 13.9324 823 85.4751 732.869 506.146
500 0 61.0156 13.2753 810 86.384 732.499 505.479
501 0 63.0895 14.4874 914 83.7823 732.323 504.347
502 0 66.0539 13.6101 899 84.5984 732.188 503.968
503 0 67.0596 14.6884 985 82.0822 731.864 503.865
504 0 71.1127 13.7669 979 82.7293 731.735 503.394
505 1 34.0315 12.3121 419 86.8544 731.921 518.59
506 0 37.0681 13.5966 504 82.6746 731.647 516.335
507 0 36.0216 11.7707 424 87.0967 731.561 517.495
508 0 39.0304 13.3742 522 82.6456 731.617 516.431
509 0 40.0388 13.0124 521 82.4856 731.825 516.635
510 0 43.047 13.1252 565 81.0726 732.255 516.228
511 0 40.032 12.7398 510 84.8274 732.441 513.343
512 0 44.0403 12.3296 543 83.4788 732.667 514.599
513 0 45.0238 12.8376 578 81.974 732.432 515.042
514 0 46.1893 12.4488 575 83.7026 732.41 511.826
515 0 49.0252 13.6664 670 80.6866 732.34 512.44
516 0 48.1032 13.5958 654 81.104 732.196 512.74
517 0 50.0376 13.1301 657 84.0989 731.556 510.904
518 0 52.159 13.5739 708 82.7401 731.968 511.559
519 0 53.06 12.7403 676 85.2263 731.778 509.925
520 0 53.075 13.0193 691 85.424 731.941 508.185
521 0 56.0678 13.7155 769 82.9025 731.931 508.333
522 0 59.1084 13.3484 789 83.0646 731.724 506.261
523 0 59.0213 12.487 737 85.2999 732.122 506.164
524 0 62.0879 13.4809 837 82.7276 731.62 504.448
525 0 64.047 13.3496 855 82.8632 731.853 501.496
526 0 65.1068 12.8251 835 83.6419 732.061 502.321
527 0 68.0762 13.2058 899 81.5973 731.745 501.761
528 1 35.0457 11.0712 388 84.7423 731.433 516.232
529 0 35.0293 11.9043 417 85.4964 732.177 515.079
530 0 38.0397 12.1189 461 82.5011 731.813 515.594
531 0 39.0345 11.9638 467 82.8201 732.071 514.182
532 0 40.0733 12.1777 488 82.5717 731.615 513.746
533 0 40.0332 11.8152 473 83.6512 731.698 513.042
534 0 41.0135 12.1911 500 83.294 730.984 512.8
535 0 45.0159 12.7733 575 80.687 730.358 511.997
536 0 45.0844 12.6873 572 81.9773 730.984 510.519
537 0 45.1571 12.3126 556 82.8849 731.308 510.696
538 0 48.0294 13.0128 625 81.0608 732.554 510.934
539 0 48.0657 12.8158 616 82.1575 732.607 508.136
540 0 50.0736 11.9624 599 83.5977 732.118 506.878
541 0 51.0463 12.0871 617 83.6402 732.394 506.849
542 0 55.0322 11.9566 658 82.5821 732.512 505.506
543 0 54.1147 11.3093 612 83.8824 732.168 506.173
544 0 56.018 12.2639 687 82.2111 731.886 505.042
545 0 61.1008 12.6349 772 79.6347 731.722 504.534
546 0 62.1019 12.1735 756 80.8664 731.247 501.557
547 0 63.0542 12.5289 790 80.0696 732.252 502.213
548 0 65.1256 12.7139 828 80.1437 731.82 498.694
549 0 68.061 13.2822 904 77.7522 732.093 500.143
550 0 69.1645 12.5498 868 78.5611 732.07 500.091
551 0 72.0384 13.9787 1007 75.9007 732.399 498.017
552 0 73.1246 11.9932 877 79.9966 731.503 495.792
553 0 76.1486 12.7645 972 78.6121 731.83 493.808
554 0 78.0811 11.4624 895 79.8492 732.306 496.991
555 0 80.0548 11.8044 945 80.1429 731.944 491.774
556 1 44.1148 10.994 485 80.7629 731.816 510.082
557 0 45.0379 11.6124 523 80.7075 731.765 509.65
558 0 48.1129 12.8656 619 77.3538 732.094 508.624
559 0 48.0287 11.6597 560 80.0232 732.075 507.055
560 0 50.0784 13.1194 657 76.5662 732.28 505.697
561 0 52.0514 12.2955 640 77.6609 731.247 507.391
562 0 53.0984 12.5616 667 77.5532 731.328 505.594
563 0 54.119 11.9921 649 78.5763 731.451 504.334
564 0 56.0787 13.4097 752 75.7234 731.146 503.08
565 0 55.0546 10.9346 602 80.3488 731.297 504.115
566 0 58.0884 11.5514 671 78.3741 731.118 503.933
567 0 62.0265 12.0916 750 77.1267 730.717 500.076
568 0 64.0634 12.4564 798 75.2982 730.92 501.752
569 0 64.0419 11.0553 708 77.8616 731.075 500.929
570 0 66.0743 11.5325 762 76.668 731.258 498.278
571 0 70.0559 12.5757 881 74.4064 731.782 498.095
572 0 69.0424 10.8629 750 78.088 731.843 497.377
573 0 72.0457 11.4927 828 76.2319 731.693 494.174
574 0 76.0599 12.4244 945 73.8984 731.997 493.979
575 0 79.0464 12.6002 996 72.8715 731.711 493.134
576 0 80.1076 11.3472 909 75.121 731.81 491.791
577 1 41.043 9.40478 386 74.2953 731.031 510.935
578 0 42.0451 9.72765 409 73.8313 731.298 511.614
579 0 43.0407 11.5937 499 71.1262 731.571 509.246
580 0 45.0065 11.2206 505 71.9188 731.671 508.242
581 0 47.0921 10.7449 506 72.0593 731.348 509.885
582 0 47.0619 10.1143 476 73.8866 732.048 509.563
583 0 48.0616 10.8195 520 73.5827 731.788 507.077
584 0 51.0276 11.0724 565 72.7947 731.655 506.338
585 0 54.1248 12.619 683 70.3221 731.422 505.817
586 0 55.0448 12.0266 662 71.1178 731.769 505.202
587 0 56.1481 11.2203 630 71.9413 732.227 505.564
588 0 59.1459 11.6323 688 70.9084 731.612 505.532
589 0 60.3494 10.8369 654 72.2569 731.96 503.876
590 0 61.0298 10.9946 671 72.5618 732.244 502.095
591 0 64.0909 12.1234 777 70.7722 732.6 499.614
592 0 66.0589 10.6723 705 73.1574 732.814 499.919
593 0 69.1043 11.8951 822 70.7567 732.825 499.552
594 0 70.0744 11.0454 774 72.3721 732.933 499.035
595 0 72.0712 12.6403 911 70.6015 732.852 493.957
596 0 76.099 12.0764 919 70.8988 732.728 494.378
597 0 80.0771 11.7012 937 70.2679 732.677 496.652
598 0 81.0682 11.5335 935 71.9765 732.767 492.215
599 1 42.0275 10.3504 435 69.6437 732.292 513.08
600 0 43.0245 11.6445 501 68.5329 732.441 510.97
601 0 42.0266 9.13708 384 72.7396 732.648 512.667
602 0 46.082 10.7634 496 69.8448 732.474 510.399
603 0 46.0146 9.77951 450 71 732.367 512.004
604 0 48.051 11.5502 555 69.2973 732.434 506.955
605 0 49.0443 11.4386 561 69.4938 732.864 508.299
606 0 51.0888 10.8634 555 70.4252 732.346 506.353
607 0 52.0767 10.5421 549 70.5082 732.417 508.106
608 0 54.0417 12.1388 656 69.2927 732.494 506.154
609 0 55.0483 12.6616 697 68.8034 732.509 505.049
610 0 56.0494 12.3998 695 69.7971 732.594 502.682
611 0 57.025 11.2232 640 71.8984 732.227 504.419
612 0 59.1132 11.4188 675 71.6296 732.516 503.181
613 0 61.0543 11.3014 690 71.8478 732.503 502.613
614 0 62.0875 11.21 696 72.2773 732.293 502.759
615 0 64.1353 11.6005 744 71.6573 732.106 501.655
616 0 66.0208 11.1026 733 71.9236 732.454 502.172
617 0 67.1291 10.3979 698 74.2478 732.493 499.761
618 0 70.1283 11.7214 822 71.9307 732.237 499.041
619 0 71.0781 11.6914 831 72.8375 732.598 495.958
620 0 73.1392 12.2506 896 71.8583 732.353 497.215
621 1 37.0312 10.0186 371 74.0593 732.059 513.774
622 0 39.0434 10.6548 416 72.262 732.767 514.998
623 0 41.0419 11.7685 483 70.1408 732.195 513.942
624 0 41.0191 10.8486 445 72.4697 731.829 513.222
625 0 39.0266 8.84013 345 76.0406 731.69 513.391
626 0 44.0476 10.8973 480 73.025 731.935 510.225
627 0 46.0361 11.5779 533 70.8799 731.764 510.874
628 0 47.1347 11.1595 526 72.3441 731.913 509.289
629 0 50.0244 12.234 612 70.0703 732.024 509.917
630 0 48.029 11.0766 532 73.4568 732.184 508.774
631 0 52.0235 12.3598 643 71.1322 731.762 507.616
632 0 53.0684 11.1366 591 73.4315 731.937 508.347
633 0 55.0291 12.0663 664 72.3132 731.958 507.199
634 0 58.0483 11.6455 676 72.6953 732.744 506.854
635 0 57.0533 11.796 673 73.6716 732.605 502.93
636 0 61.031 13.485 823 70.0863 732.066 503.385
637 0 59.0576 11.4465 676 74.1627 732.055 502.759
638 0 63.0418 12.0079 757 73.1149 732.168 501.267
639 0 64.0697 12.2367 784 72.8189 732.149 501.551
640 0 65.0269 11.7182 762 74.4042 732.52 501.428
641 0 69.0852 13.0563 902 71.5233 732.286 498.936
642 0 69.0372 13.3551 922 71.6367 731.658 497.862
643 1 35.0207 9.13746 320 76.9125 732.369 516.762
644 0 36.0792 10.9759 396 74.8687 732.28 515.419
645 0 38.036 10.9633 417 75.5324 732.568 514.005
646 0 40.0277 11.3671 455 74.3363 732.068 514.901
647 0 42.0471 11.9152 501 72.523 732.643 515.405
648 0 43.0813 11.8149 509 74.1709 732.597 512.566
649 0 44.1576 10.8701 480 75.5438 731.544 511.31
650 0 46.1507 11.6575 538 74.5037 731.6 510.706
651 0 46.0184 10.9521 504 76.2976 731.597 511.004
652 0 47.0618 11.0918 522 76.0421 731.649 510.638
653 0 49.0543 12.4964 613 73.969 731.891 508.855
654 0 50.1128 12.6315 633 74.4708 731.561 507.749
655 0 52.1862 13.1261 685 73.6847 731.492 507.603
656 0 53.1433 12.6827 674 75.2789 731.42 506.819
657 0 53.1662 11.9625 636 77.0409 731.511 505.711
658 0 55.0765 11.4568 631 78.1284 731.772 503.753
659 0 59.2631 12.6048 747 75.3226 731.992 503.845
660 0 59.064 12.7827 755 75.7417 731.478 502.656
661 0 61.1062 12.7483 779 76.371 731.72 499.474
662 0 62.1529 13.3381 829 75.2678 731.866 500.949
663 0 64.236 12.9522 832 75.5589 732.025 501.03
664 0 68.2326 13.2488 904 74.4237 732.042 499.15
665 0 68.147 13.2214 901 75.4717 732.244 497.777
666 0 69.1028 12.3295 852 78.0411 732.358 496.982
667 1 35.0737 10.1786 357 81.2633 731.695 513.087
668 0 38.0396 11.304 430 79.593 731.958 511.533
669 0 40.0452 11.8366 474 78.5548 731.496 510.549
670 0 39.0535 11.8555 463 79.2765 731.648 511.352
671 0 43.1139 12.0379 519 76.5992 731.69 512.809
672 0 44.099 12.4493 549 76.8925 731.61 509.248
673 0 45.0507 12.0975 545 77.6587 731.839 508.585
674 0 48.1133 13.1357 632 74.913 731.706 509.171
675 0 48.1515 11.0692 533 79.182 731.953 508.49
676 0 48.0592 11.2986 543 79.954 731.527 507.785
677 0 50.1153 12.2916 616 77.2175 731.352 508.117
678 0 51.0516 11.9291 609 78.9573 731.486 505.499
679 0 53.0472 11.2353 596 79.802 731.705 506.356
680 0 54.1338 11.7671 637 79.9513 731.71 502.956
681 0 57.1456 12.8619 735 76.8163 731.516 505
682 0 57.0479 12.6736 723 77.9848 731.524 503.242
683 0 61.1101 13.533 827 75.2479 730.649 503.103
684 0 62.0747 13.0005 807 77.0706 730.836 502.581
685 0 62.0959 12.1586 755 79.755 730.673 499.995
686 0 63.1012 12.3611 780 79.4744 730.518 499.063
687 0 67.0637 13.5841 911 76.5269 730.794 499.617
688 0 69.1415 13.9713 966 75.8561 730.826 498.709
689 0 69.0198 12.1414 838 80.2912 730.549 495.465
690 0 74.0751 13.5673 1005 76.9751 730.952 493.83
691 0 74.031 12.076 894 80.5123 731.337 495.672
692 1 40.0331 11.7653 471 81.431 731.106 510.938
693 0 42.0636 11.3637 478 82.1151 730.726 510.268
694 0 42.0734 11.884 500 82.034 730.612 511.512
695 0 45.0501 13.0743 589 80.3124 730.733 510.068
696 0 44.0596 11.7568 518 84.4228 730.658 508.255
697 0 47.0957 13.2921 626 80.9553 731.046 507.165
698 0 47.062 13.1954 621 82.6119 730.858 505.818
699 0 50.0822 12.8189 642 82.6682 731.642 505.246
700 0 52.0729 12.3673 644 82.8168 730.927 504.84
701 0 53.0916 13.6556 725 81.1724 731.123 504.044
702 0 54.0259 13.5491 732 82.8989 731.913 503.579
703 0 56.0393 12.5269 702 84.7607 731.826 503.014
704 0 57.152 12.8604 735 84.7701 731.457 501.978
705 0 59.1981 13.5308 801 83.9313 731.217 499.828
706 0 62.1092 13.2509 823 83.9174 731.583 498.886
707 0 63.1123 13.7533 868 83.273 731.736 498.629
708 0 63.037 12.3261 777 86.1454 731.583 499.241
709 0 67.0549 13.4964 905 83.4155 731.812 496.507
710 0 69.0763 12.8988 891 84.4478 732.036 496.701
711 0 71.0707 12.7619 907 84.2878 731.901 495.042
712 0 74.061 14.029 1039 79.6574 731.988 493.144
713 0 76.0729 13.6842 1041 79.9078 731.582 492.825
714 1 41.1049 11.4585 471 85.8875 731.979 505.847
715 0 43.0644 11.7498 506 83.8241 732.538 507.581
716 0 44.0351 10.8323 477 86.3669 732.138 506.442
717 0 47.0917 12.8685 606 82.1353 731.881 505.342
718 0 47.0175 13.6332 641 80.8003 732.164 503.95
719 0 49.094 14.6454 719 78.3894 731.834 504.236
720 0 51.149 12.9426 662 80.6072 732.024 504.106
721 0 53.1324 13.8522 736 79.4565 731.882 502.232
722 0 54.113 14.1925 768 79.1745 731.818 501.294
723 0 56.151 12.7157 714 81.542 731.641 503.241
724 0 55.0646 13.4751 742 81.8585 731.22 498.803
725 0 58.0938 12.8585 747 82.1727 731.83 500.608
726 0 60.1047 12.4782 750 82.756 732.164 500.424
727 0 61.0379 13.2213 807 81.8017 732.114 499.59
728 0 63.0828 12.65 798 82.8634 732.322 497.304
729 0 65.0483 13.1902 858 81.9802 732.177 496.887
730 0 66.0642 12.9571 856 82.8622 731.936 496.737
731 0 70.0625 15.2435 1068 77.6994 731.684 494.59
732 0 71.06 13.1438 934 82.2238 732.256 494.028
733 0 71.0278 13.0935 930 83.0419 731.896 492.34
734 0 75.0443 13.6453 1024 81.5869 731.713 491
735 0 77.046 14.2772 1100 79.9927 731.943 492.257
736 0 79.0989 13.717 1085 81.4488 731.809 488.044
737 0 82.0743 14.8768 1221 78.9967 731.381 486.459
738 0 84.1244 13.3136 1120 82.3071 731.882 486.55
739 0 84.042 13.8502 1164 81.8935 732.068 485.514
740 0 88.0715 13.3074 1172 82.3319 732.508 485.438
741 0 93.1733 14.6179 1362 78.8231 732.379 484.252
742 1 53.1066 11.6181 617 85.3322 732.148 502.19
743 0 56.0345 11.5822 649 85.2173 732.638 501.832
744 0 59.1184 11.7392 694 84.0303 732.225 501.852
745 0 59.0253 13.5535 800 82.1125 732.099 499.798
746 0 62.015 12.2228 758 83.9683 732.694 498.847
747 0 63.04 12.5317 790 84.4823 732.272 496.615
748 0 66.037 12.0538 796 83.7563 732.995 497.388
749 0 68.0595 13.0768 890 82.691 732.466 494.282
750 0 68.046 13.05 888 83.9809 732.038 492.178
751 0 69.078 11.1323 769 87.7945 731.962 493.205
752 0 72.0662 12.3359 889 85.73 731.964 491.161
753 0 75.0763 12.0278 903 85.68 732.239 492.282
754 0 79.0455 13.1949 1043 83.1927 732.165 488.448
755 0 82.073 13.7439 1128 82.2438 731.994 488.277
756 0 84.1029 12.7344 1071 84.3922 732.229 486.272
757 0 88.0844 12.9421 1140 83.1175 732.325 486.612
758 0 89.0549 12.4867 1112 84.4424 732.101 483.322
759 0 90.092 13.131 1183 83.4768 732.088 483.852
760 0 96.0872 12.7801 1228 83.2573 732.164 482.59
761 1 49.0457 9.88874 485 85.3113 731.984 504.412
762 0 51.0663 10.8878 556 84.6942 732.309 501.82
763 0 52.0491 11.3162 589 81.163 732.346 502.384
764 0 55.0898 12.1983 672 77.6295 732.268 504.012
765 0 56.0914 11.6417 653 79.9035 732.311 501.144
766 0 60.064 10.7552 646 80.5 732.046 501.128
767 0 59.1226 11.7552 695 79.0878 731.886 499.915
768 0 62.0807 11.3884 707 79.3564 732.69 498.955
769 0 62.035 11.5902 719 79.7385 731.811 497.95
770 0 67.0902 11.969 803 77.1395 731.552 498.892
771 0 67.0778 11.1363 747 79.7497 731.673 498.052
772 0 69.0676 11.6842 807 79.5812 732.296 495.408
773 0 70.0736 10.9028 764 81.0013 731.95 495.331
774 0 73.0819 12.356 903 78.0554 731.708 495.088
775 0 75.0624 12.1765 914 78.361 731.822 493.268
776 0 77.0574 11.1475 859 79.3562 731.059 493.894
777 1 41.0399 10.2583 421 76.5938 731.209 510.641
778 0 42.0523 11.1528 469 76.6439 731.252 508.588
779 0 43.0675 10.9363 471 75.7983 730.622 510.484
780 0 45.0455 9.8567 444 78.7883 730.457 508.11
781 0 46.0554 10.8348 499 76.8517 729.89 506.83
782 0 47.0549 11.901 560 74.9804 730.671 506.773
783 0 48.0559 11.2577 541 75.7745 730.429 505.813
784 0 48.0196 10.6623 512 77.5156 731.133 505.088
785 0 52.0269 11.5709 602 74.8621 731.448 504.618
786 0 52.1005 11.9193 621 74.9952 731.071 503.477
787 0 54.0768 11.4837 621 74.7134 730.911 501.593
788 0 55.0399 10.9557 603 75.3035 731.347 502.046
789 0 57.0498 11.7792 672 73.4137 731.048 502.018
790 0 58.0469 11.3012 656 74.7287 731.444 498.872
791 0 61.1114 11.9127 728 72.1456 731.659 497.559
792 0 61.0278 11.2408 686 72.6006 731.482 498.468
793 0 63.064 12.6538 798 70.5501 731.816 494.821
794 0 66.0909 11.7565 777 71.3501 732.046 496.929
795 0 69.1224 12.7021 878 69.4624 732.323 495.067
796 0 68.0984 10.1911 694 73.951 732.101 495.209
797 0 72.2458 11.1425 805 71.3068 731.829 493.455
798 0 74.2928 10.3375 768 72.7474 731.719 491.047
799 0 77.1861 11.0642 854 71.0422 730.882 491.925
800 0 81.0916 11.5672 938 70.3252 731.524 489.678
801 0 83.1136 12.6333 1050 69.4543 731.533 488.449
802 1 41.0499 8.7211 358 71.9916 731.95 510.511
803 0 44.0721 9.32564 411 70.9538 731.397 507.864
804 0 45.1218 9.95084 449 70.7461 731.414 505.472
805 0 48.1051 9.5624 460 71.6609 731.639 505.663
806 0 47.1696 10.1761 480 70.9604 731.5 506.285
807 0 49.2082 11.0551 544 69.7335 731.59 504.733
808 0 48.0287 8.32836 400 75.5425 731.775 502.42
809 0 53.2412 12.5655 669 67.8146 731.438 502.507
810 0 55.1641 12.0006 662 68.8021 731.337 501.669
811 0 55.0601 10.2615 565 73.0991 731.122 501.683
812 0 57.093 10.6668 609 72.1593 731.57 501.91
813 0 56.0496 9.83058 551 75.7786 731.916 499.118
814 0 61.0138 10.6369 649 73.0971 731.669 498.909
815 0 61.0623 12.2662 749 70.4486 731.535 497.961
816 0 63.0102 11.0776 698 72.7436 731.797 495.572
817 0 63.042 10.5644 666 73.0661 731.886 495.165
818 0 66.0739 10.0645 665 73.4466 731.792 495.926
819 0 68.1007 11.1306 758 72.0251 732.212 493.814
820 0 70.0865 10.0733 706 72.9547 732.011 494.61
821 0 73.0562 10.3345 755 73.1232 731.842 491.76
822 0 74.0516 10.5872 784 72.838 732.195 491.802
823 1 37.0087 9.24106 342 73.7018 731.997 509.968
824 0 39.0666 10.7765 421 70.3444 731.311 510.39
825 0 41.0898 11.122 457 68.8775 731.114 508.046
826 0 41.0695 12.1501 499 67.984 731.531 508.068
827 0 43.0307 11.3175 487 69.653 730.805 506.25
828 0 43.048 10.8948 469 71.1898 731.672 507.166
829 0 45.0678 10.2512 462 70.3939 731.881 504.911
830 0 47.0423 11.1389 524 67.9141 731.09 507.677
831 0 46.028 10.7109 493 68.8844 731.531 506.454
832 0 49.0929 11.5088 565 67.3823 731.63 505.386
833 0 52.034 12.9531 674 65.4614 731.393 504.721
834 0 52.0478 11.1244 579 68.8808 731.361 504.069
835 0 54.0992 10.3144 558 69.9946 731.116 504.376
836 0 55.0995 10.9257 602 69.9302 731.505 502.855
837 0 58.1227 11.0112 640 69.5312 731.634 500.27
838 0 59.0849 12.1351 717 67.8633 731.834 500.495
839 0 59.0619 10.5821 625 70.8368 732.09 499.936
840 0 61.0611 11.4148 697 69.6026 732.618 499.04
841 0 64.0715 11.9866 768 68.6497 732.069 495.348
842 0 65.1202 10.3501 674 70.9674 732.524 496.712
843 0 70.1387 12.1046 849 68.6525 732.164 496.525
844 0 72.132 10.869 784 70.4605 732.089 494.781
845 0 73.1468 12.7415 932 67.8004 732.585 492.737
846 0 76.1317 11.1255 847 69.8548 732.57 492.615
847 1 39.0095 8.51074 332 72.9126 732.542 511.325
848 0 41.1163 10.7013 440 70.8477 732.245 508.677
849 0 40.0945 10.3256 414 72.0725 731.99 508.341
850 0 43.0276 10.4584 450 71.3978 731.74 506.582
851 0 46.0375 10.991 506 67.7411 732.158 506.68
852 0 46.0322 11.5354 531 67.3371 732.1 505.476
853 0 49.0215 11.9743 587 65.8143 732.087 504.237
854 0 48.0118 10.6849 513 68.6179 731.994 504.565
855 0 52.0713 11.8107 615 65.5691 731.87 504.846
856 0 53.0404 10.5014 557 68.0341 731.794 502.384
857 0 54.0608 12.005 649 65.9214 731.949 502.912
858 0 56.054 10.918 612 67.3252 732.134 500.655
859 0 56.0824 10.1993 572 68.1399 732.038 500.119
860 0 60.0391 10.8429 651 66.4194 731.831 502.137
861 0 60.0537 10.7904 648 67.7948 732.691 498.569
862 0 64.1312 11.8663 761 65.6938 732.31 499.582
863 0 66.2155 11.6438 771 66.3774 732.016 497.719
864 0 67.1422 11.4384 768 66.7174 731.676 498.302
865 0 69.1656 10.6411 736 67.5367 732.876 496.556
866 0 69.2333 11.2374 778 66.9357 732.67 495.848
867 0 70.2685 10.8014 759 67.7932 732.553 493.34
868 0 75.157 12.6801 953 64.5635 732.302 492.422
869 0 75.1193 12.4469 935 64.5112 732.294 493.871
870 0 80.1318 11.6808 936 65.7447 732.774 491.908
871 1 41.0191 9.65403 396 66.9899 732.659 510.371
872 0 41.0322 11.162 458 66.2445 733.007 508.262
873 0 44.0662 11.5508 509 65.9155 732.13 506.953
874 0 47.0692 12.3223 580 63.9207 732.295 507.828
875 0 45.0222 11.039 497 67.4306 732.01 504.318
876 0 45.0312 11.0146 496 66.9819 732.415 505.391
877 0 49.0479 11.8252 580 65.1224 732.943 505.819
878 0 49.0977 10.7133 526 67.0114 733.053 504.97
879 0 51.0663 12.0823 617 65.5981 732.6 504.013
880 0 53.0622 10.8929 578 67.4654 733.059 502.946
881 0 53.029 12.1254 643 66.2037 732.992 502.243
882 0 56.038 11.8313 663 67.0272 732.757 500.504
883 0 56.0709 12.181 683 66.8609 732.553 501.255
884 0 58.0268 12.4598 723 67.3154 732.898 498.819
885 0 60.0227 12.5286 752 67.1263 733.528 498.82
886 0 62.0276 13.6874 849 65.7562 733.092 498.044
887 0 66.0874 13.8453 915 64.7333 733.258 497.517
888 0 66.041 14.385 950 64.7137 733.228 497.855
889 0 67.0486 13.2889 891 66.1717 732.451 497.141
890 0 70.0154 11.8974 833 68.6939 732.299 496.595
891 0 72.0227 13.2597 955 67.4513 732.645 494.388
892 1 37.0462 10.4734 388 69.8144 732.353 511.01
893 0 38.073 10.2435 390 70.7974 732.828 509.969
894 0 40.0141 12.0957 484 69.2376 732.163 508.593
895 0 42.0126 11.2109 471 69.9936 732.688 509.032
896 0 41.0445 11.183 459 71.5861 731.893 507.584
897 0 45.0258 12.193 549 69.2313 732.931 507.936
898 0 44.0227 12.4027 546 70.3828 732.744 506.5
899 0 47.0377 12.8833 606 68.8812 732.381 507.261
900 0 47.0228 12.6747 596 70.0034 731.802 506.458
901 0 48.0101 12.3724 594 70.6751 731.902 506.623
902 0 52.0235 13.3786 696 68.4555 732.441 506.182
903 0 50.039 11.6309 582 73.5412 732.241 504.964
904 0 54.0395 14.952 808 67.7698 731.376 503.833
905 0 53.0486 12.3283 654 73.4174 731.992 500.988
906 0 56.0596 13.2537 743 71.6406 732.459 500.509
907 0 58.023 12.8225 744 71.9785 732.388 500.891
908 0 61.0633 12.2496 748 72.7914 732.1 499.743
909 0 64.0475 14.1301 905 69.9171 732.69 498.406
910 0 66.0406 13.6583 902 70.3459 732.389 498.375
911 0 65.0621 13.8176 899 71.7252 732.59 496.463
912 0 66.0346 13.2506 875 73.7177 732.766 494.587
913 1 37.0489 11.2554 417 74.6139 732.904 510.921
914 0 38.0126 12.0486 458 73.4148 732.321 511.216
915 0 40.0267 12.042 482 74.5228 732.129 508.954
916 0 40.0093 10.7975 432 77.0139 731.808 508.44
917 0 43.0728 12.2119 526 73.249 731.709 508.983
918 0 45.0131 12.5297 564 73.3511 731.108 507.489
919 0 45.0295 12.1476 547 75.5338 731.965 506.832
920 0 47.0708 11.5571 544 76.5735 732.188 506.763
921 0 45.0351 13.4784 607 76.2224 731.847 504.102
922 0 48.0272 13.6589 656 74.8156 732.354 505.457
923 0 49.0661 14.348 704 73.7301 732.795 506.257
924 0 50.0312 12.6721 634 78.2334 733.385 505.284
925 0 51.0285 12.9731 662 78.5483 732.988 503.13
926 0 53.02 13.0705 693 78.1717 732.9 502.274
927 0 55.0317 14.0101 771 76.6693 733.403 501.75
928 0 55.0457 13.0255 717 79.1158 732.576 501.893
929 0 57.0653 12.4419 710 80.1028 732.496 501.914
930 0 58.0471 12.5243 727 80.0523 732.806 501.07
931 0 60.0356 13.9084 835 78.2647 732.568 497.261
932 0 62.0405 13.7491 853 79.2098 732.243 496.406
933 0 66.0444 13.3849 884 79.7262 732.475 495.785
934 1 36.0321 11.2955 407 83.6093 732.285 509.833
935 0 38.0588 11.7187 446 81.7578 732.899 510.052
936 0 38.015 12.4688 474 81.9852 732.631 509.911
937 0 39.0143 11.97 467 83.015 732.593 508.445
938 0 42.0479 12.7474 536 80.5634 732.341 507.142
939 0 43.0463 13.3113 573 79.8883 732.281 507.044
940 0 43.0258 11.0864 477 84.2411 732.929 506.887
941 0 45.1014 13.2812 599 81.409 733.028 504.658
942 0 47.0253 13.4396 632 80.6614 733.12 505.277
943 0 47.0323 14.3093 673 80.4056 733.264 503.287
944 0 49.0545 13.1894 647 82.221 733.138 504.762
945 0 50.0474 12.8478 643 83.3079 732.897 504.358
946 0 51.0222 13.1903 673 83.0669 732.634 503.429
947 0 51.1163 12.5987 644 86.0295 732.07 500.338
948 0 53.0169 12.8638 682 85.0821 732.24 501.716
949 0 56.0453 13.2393 742 83.0202 732.899 500.794
950 0 58.019 12.944 751 83.6218 732.706 501.342
951 0 61.0473 13.7434 839 81.1156 732.394 500.217
952 0 60.0362 12.9589 778 84.7057 732.857 497.855
953 0 63.0468 12.8952 813 84.4711 732.319 497.076
954 0 63.0274 12.1217 764 85.784 732.432 499.423
955 0 66.0584 13.1248 867 84.0311 731.392 495.97
956 0 68.0713 13.6328 928 82.0539 732.146 494.145
957 0 72.0419 13.8947 1001 81.3207 732.132 491.908
