time division length width area intensity CMx CMy
0 0 52.1088 12.1477 633 57.1532 730.752 522.148
1 0 54.123 12.3423 668 57.0509 729.54 520.647
2 0 53.1231 10.8239 575 59.4278 729.649 524.245
3 0 55.1967 12.9174 713 57.0715 730.199 522.412
4 0 57.2506 10.9344 626 59.0032 729.649 521.805
5 0 58.1339 12.6088 733 56.8322 729.715 522.147
6 0 61.2025 11.993 734 57.2425 729.609 522.941
7 0 62.0664 13.0505 810 56.8506 729.131 518.735
8 0 64.1635 12.5305 804 57.199 729.274 519.04
9 0 64.1742 10.7208 688 59.6948 728.315 518.924
10 0 65.1625 11.9701 780 58.4667 728.205 519.523
11 0 66.3106 12.5169 830 58.6723 728.629 514.47
12 0 70.0526 13.0188 912 57.3202 728.853 515.395
13 0 71.1682 11.6485 829 59.4391 729.27 515.128
14 0 76.2212 14.2086 1083 55.88 729.286 515.03
15 0 77.1823 12.2437 945 58.7683 729.192 513.601
16 1 37.035 10.5036 389 59.2545 729.794 534.707
17 0 40.0271 11.1425 446 59.1614 729.594 532.751
18 0 39.0753 11.3627 444 59.2635 728.894 534.541
19 0 42.0519 10.8675 457 60.3435 729.151 531.206
20 0 41.1181 11.2846 464 60.7586 730.03 532.778
21 0 42.0915 11.6651 491 60.1589 729.813 531.953
22 0 44.0596 12.9143 569 59.6221 729.283 529.007
23 0 45.064 11.406 514 61.4786 727.628 530.064
24 0 48.0792 12.4794 600 59.9483 728.437 529.502
25 0 46.0856 9.74274 449 64.6637 728.421 527.817
26 0 47.0902 11.1276 524 63.2863 728.687 525.794
27 0 50.0531 12.3469 618 61.9353 729.398 525.963
28 0 51.1115 13.539 692 60.4364 728.993 527.103
29 0 51.0434 11.8331 604 63.1026 729.176 527.258
30 0 55.0215 12.486 687 61.9651 729.608 525.921
31 0 55.1268 13.4417 741 61.9204 729.606 523.896
32 0 55.035 13.6277 750 61.8467 729.268 521.947
33 0 59.0501 11.5156 680 64.2338 728.646 521.447
34 0 60.0676 13.2184 794 61.8249 729.377 523.936
35 0 60.122 11.4101 686 64.3819 729.261 523.392
36 0 62.0137 11.3685 705 64.4043 730.421 521.678
37 0 64.0331 11.088 710 65.0338 729.983 521.163
38 0 66.0788 12.364 817 64.3758 729.212 518.548
39 0 66.1039 10.9676 725 65.9021 729.077 518.403
40 0 71.0943 12.8984 917 63.3817 730.193 518.208
41 0 72.0588 10.5608 761 66.0263 728.879 519.163
42 0 73.0288 11.3791 831 65.6799 730.349 517.939
43 0 75.0936 12.3712 929 65.5813 729.876 513.795
44 0 78.2471 12.4094 971 65.3934 730.717 513.09
45 1 40.0394 11.4887 460 64.6978 730.598 532.354
46 0 40.0547 11.4344 458 64.8035 730.841 531.441
47 0 42.0477 11.1064 467 65.5546 731.31 530.831
48 0 42.0831 10.5981 446 66.9798 730.962 530.02
49 0 43.028 9.15682 394 67.3452 731.566 531.723
50 0 45.051 12.6301 569 64.5325 730.905 528.139
51 0 46.0628 11.9185 549 65.5319 731.785 527.317
52 0 47.0092 9.76406 459 67.5251 731.499 528.965
53 0 49.0113 12.0584 591 64.5973 730.883 526.882
54 0 51.0532 13.0648 667 63.0675 731.358 525.495
55 0 51.0268 11.7585 600 64.8883 731.048 525.807
56 0 53.0226 10.3352 548 66.4526 731.073 524.128
57 0 54.0414 10.9916 594 66.1633 731.264 522.564
58 0 56.1022 10.8908 611 65.1898 732.187 523.185
59 0 59.0758 12.3062 727 64.0138 730.916 521.378
60 0 61.0299 12.5348 765 64.1595 731.665 519.452
61 0 63.0426 11.6271 733 65.206 730.952 518.432
62 0 63.1114 11.1073 701 66.3752 730.834 518.669
63 0 64.1134 11.1677 716 66.9553 731.112 516.852
64 0 71.059 13.0314 926 64.1793 730.877 517.192
65 0 73.0376 13.3356 974 64.2454 731.336 516.537
66 0 76.2076 12.9777 989 65.4307 731.613 513.249
67 0 75.138 11.5388 867 68.2976 730.777 512.712
68 0 81.037 12.3154 998 66.9439 730.364 512.55
69 0 81.0873 11.9131 966 68.7598 730.838 509.707
70 1 43.0139 12.3913 533 64.4315 730.585 530.846
71 0 44.0447 11.0115 485 66.5175 731.008 531.188
72 0 45.0268 12.4148 559 65.5206 730.576 530.004
73 0 46.0539 11.6168 535 67.2654 730.043 528.344
74 0 47.0711 12.8741 606 66.302 730.591 526.705
75 0 49.0179 12.016 589 67.0645 731.121 526.698
76 0 49.0331 11.8695 582 67.7784 731.27 525.321
77 0 50.0874 10.0824 505 69.2238 730.954 527.192
78 0 54.0653 12.2445 662 66.6541 730.902 522.305
79 0 56.1266 13.9684 784 64.2411 730.686 523.189
80 0 55.1557 10.7695 594 69.1296 731.205 521.874
81 0 57.0954 10.3161 589 69.4601 730.985 521.448
82 0 62.0632 13.1801 818 65.1125 731.473 520.727
83 0 64.0581 12.6292 809 66.2336 730.972 518.278
84 0 66.1372 11.3249 749 66.996 731.442 521.336
85 0 69.0746 11.9002 822 66.7567 731.651 518.468
86 0 69.045 10.5149 726 68.3375 731.869 518.142
87 0 72.0297 12.8697 927 66.1888 731.698 514.861
88 0 75.059 12.5235 940 66.6266 731.594 512.417
89 1 36.0196 10.2167 368 65.9946 732.087 533.38
90 0 36.0304 10.4356 376 67.0931 731.178 531.931
91 0 40.0345 11.4901 460 65.8478 731.694 531.041
92 0 40.0397 12.5625 503 64.6422 731.903 530.36
93 0 41.0807 11.8791 488 66.127 731.598 530.119
94 0 43.0224 10.9943 473 66.4102 731.567 530.603
95 0 44.0225 11.1307 490 67.1898 731.567 528.61
96 0 44.1494 11.7555 519 67.0308 730.963 528.008
97 0 46.1036 11.1922 516 67.4787 732.048 527.764
98 0 47.0748 11.3649 535 68.615 731.475 526.849
99 0 47.0255 10.7176 504 69.2202 731.782 529.216
100 0 47.0393 11.99 564 69.0355 731.837 526.172
101 0 50.0584 11.9261 597 69.5209 731.643 523.832
102 0 52.0855 12.8443 669 67.9791 731.453 523.254
103 0 52.0949 13.341 695 67.6245 731.632 524.23
104 0 54.101 13.0312 705 67.7688 732.248 524.597
105 0 57.0772 12.667 723 69.0844 731.783 520.823
106 0 59.0531 12.9036 762 68.7349 731.884 520.377
107 0 60.0871 11.8994 715 70.1217 732.589 520.256
108 0 62.0689 14.4195 895 66.9598 731.898 518.622
109 0 65.1041 12.1959 794 69.2393 732.321 520.684
110 0 64.1352 13.1441 843 69.5753 730.972 516.172
111 0 67.111 13.0083 873 69.7491 729.98 516.43
112 1 33.034 9.59616 317 71.3186 731.584 533.729
113 0 35.0348 10.3326 362 70.1768 731.895 531.787
114 0 36.0048 10.8041 389 70.6915 731.725 529.923
115 0 37.0524 11.6052 430 69.5 731.888 529.193
116 0 38.0274 10.8606 413 71.3995 731.525 530.361
117 0 40.0157 11.8953 476 68.9874 732.87 529.515
118 0 40.0216 12.3933 496 68.8145 733.002 528.06
119 0 42.0567 11.9125 501 69.3553 732.94 527.762
120 0 44.0541 13.9374 614 66.3111 732.45 528.021
121 0 44.0707 10.9824 484 70.7707 731.452 528.213
122 0 44.0338 11.0597 487 71.3162 732.363 526.643
123 0 48.0134 11.7051 562 69.7295 731.897 525.034
124 0 48.0203 11.1828 537 71.1602 732.754 523.924
125 0 49.0576 11.0279 541 71.7579 731.442 522.579
126 0 52.0386 12.8366 668 68.6946 731.349 522.883
127 0 51.0752 12.2956 628 70.258 731.481 521.25
128 0 53.085 11.2461 597 71.3802 731.528 521.866
129 0 55.0539 10.6078 584 72.762 732.279 520.74
130 0 55.1049 11.1968 617 72.4263 731.971 520.305
131 0 59.1635 13.2683 785 68.6803 730.837 519.353
132 0 60.0641 11.3379 681 71.4743 731.526 518.282
133 0 61.1588 11.5274 705 71.3972 732.094 515.626
134 0 63.2071 12.9574 819 69.5653 731.253 516.195
135 0 65.1735 13.1035 854 68.8852 731.273 515.211
136 0 67.1214 11.5909 778 71.0476 731.941 515.934
137 1 32.0733 8.85471 284 71.4824 732.539 531.345
138 0 34.0162 10.0834 343 70.0758 732.19 530.082
139 0 36.0372 10.8776 392 68.5128 732.066 529.559
140 0 36.014 7.38602 266 72.4774 733.15 531.109
141 0 40.0193 10.295 412 69.1019 732.459 529.172
142 0 40.0199 11.9191 477 66.9434 732.138 528.419
143 0 42.0675 12.3136 518 66.1834 731.411 525.359
144 0 45.1654 12.4431 562 64.7972 731.687 526.989
145 0 44.0363 10.9455 482 68.4606 732.564 525.448
146 0 45.0424 11.0562 498 68.1084 732.056 524.426
147 0 48.0584 11.2155 539 67.1744 732.067 525.451
148 0 47.0395 11.7136 551 66.5318 731.55 525.566
149 0 50.1128 10.6959 536 67.5336 731.614 523.032
150 0 52.0274 13.0508 679 64.4654 731.236 520.82
151 0 52.0223 12.0333 626 65.738 732.685 522.396
152 0 56.0146 11.1935 627 65.5136 731.774 521.367
153 0 57.0756 12.9127 737 63.5427 731.889 519.84
154 0 57.0328 12.1684 694 65.062 730.996 518.839
155 0 59.1003 11.3536 671 65.5902 730.958 517.58
156 0 61.0441 10.9593 669 66.1973 732.182 518.25
157 0 63.1021 12.0598 761 64.0381 731.644 515.89
158 0 66.1081 12.646 836 62.61 732.006 516.847
159 0 66.097 12.1791 805 63.7453 732.229 515.482
160 0 69.0882 13.3163 920 62.5098 732.137 511.323
161 0 72.098 12.0114 866 64.0323 732.612 511.293
162 0 74.0813 12.4053 919 63.3395 731.742 510.889
163 0 77.0997 12.62 973 62.9044 731.942 511.539
164 0 78.0925 11.6016 906 64.4525 732.348 509.088
165 0 81.0802 11.7291 951 64.816 732.573 506.206
166 0 84.1932 13.0058 1095 63.3425 733.099 503.157
167 1 45.0118 10.1751 458 64.4629 733.079 525.4
168 0 45.0148 10.752 484 63.8264 733.345 525.076
169 0 47.0237 10.8031 508 64.3287 733.329 520.904
170 0 48.0403 13.9883 672 60.4702 732.756 522.323
171 0 50.037 10.5922 530 64.6434 732.379 520.374
172 0 48.0361 10.2423 492 65.9248 732.116 520.398
173 0 53.073 12.1342 644 63.0093 731.893 519.396
174 0 54.1093 11.2735 610 63.9984 732.249 520.334
175 0 54.0743 10.8369 586 64.6775 731.55 519.01
176 0 56.0261 11.6374 652 63.8022 730.735 518.305
177 0 58.0273 12.0288 698 63.3926 731.109 516.287
178 0 60.1597 11.3864 685 63.9562 731.152 514.546
179 0 63.0968 11.7122 739 62.8999 731.852 517.008
180 0 63.1116 11.9471 754 63.3064 731.276 514.851
181 0 66.0386 11.2359 742 63.6024 730.167 515.414
182 0 67.0628 12.6598 849 62.0966 730.554 514.114
183 0 68.057 10.9467 745 64.4899 729.76 512.842
184 0 71.1115 11.5874 824 63.9539 729.574 511.731
185 0 74.1533 12.11 898 62.8898 729.68 509.783
186 0 76.156 10.833 825 64.463 729.808 509.199
187 0 75.108 8.09501 608 67.523 729.516 506.326
188 1 39.0188 8.20118 320 64.05 730.116 527.388
189 0 41.0464 11.2799 463 60.4168 730.123 527.177
190 0 40.0415 7.54217 302 66.0232 729.159 524.735
191 0 41.1158 9.55837 393 64.14 728.517 526.812
192 0 45.0612 10.5412 475 61.8484 728.29 524.463
193 0 46.0433 9.64309 444 63.2162 727.885 526.169
194 0 48.0263 10.057 483 62.0538 727.992 525.625
195 0 49.1093 8.57272 421 64.0166 727.299 527.876
196 0 51.1872 10.8035 553 61.6275 728.036 526.02
197 0 52.0642 9.66115 503 63.3022 728.495 523.75
198 0 54.1017 9.38972 508 63.6988 728.14 524.502
199 0 55.1503 10.8794 600 62.3233 727.842 522.982
200 0 57.1464 9.86939 564 63.4539 727.514 521.77
201 0 58.1093 9.49934 552 63.5634 726.844 523.326
202 0 62.1187 13.12 815 59.4736 726.439 520.783
203 0 62.1687 11.5492 718 61.1964 727.148 522.831
204 0 65.0704 11.111 723 61.7026 727.116 523.328
205 0 65.1037 9.83046 640 63.85 726.539 519.722
206 0 69.1233 11.5446 798 61.3672 727.598 517.588
207 0 72.0948 10.292 742 63.004 727.86 517.999
208 0 72.0559 10.2421 738 63.6463 727.722 516.131
209 0 75.0883 11.5065 864 62.287 727.812 515.248
210 0 78.0572 12.3243 962 61.789 726.634 512.373
211 0 79.1157 9.88425 782 63.8018 727.29 515.903
212 1 40.0762 8.78327 352 64.1932 727.793 533.216
213 0 44.0223 10.4947 462 62.1623 726.963 532.288
214 0 45.0514 10.2771 463 63.1814 726.477 531.633
215 0 47.0349 13.0329 613 59.0555 726.546 533.052
216 0 50.0564 12.9854 650 59.2846 726.305 531.458
217 0 49.0929 10.4699 514 63.8249 725.399 528.885
218 0 50.0666 12.4035 621 60.9791 725.237 528.837
219 0 50.0815 11.3016 566 63.1625 725.11 528.145
220 0 53.0647 11.0997 589 63.0968 724.511 527.051
221 0 53.0976 12.1286 644 62.4503 725.189 526.443
222 0 55.0629 11.387 627 62.1962 725.389 528.384
223 0 57.0879 13.7683 786 59.855 725.914 523.954
224 0 58.1349 11.8001 686 62.5758 725.407 523.401
225 0 59.0531 11.786 696 62.1322 725.401 524.74
226 0 61.1 12.5041 764 60.8429 725.544 523.729
227 0 64.126 12.647 811 61.016 725.65 520.65
228 0 66.0552 11.4753 758 62.7348 725.759 519.339
229 0 67.0989 12.2804 824 61.8362 725.371 516.812
230 0 70.0426 12.2069 855 62.1743 725.275 517.23
231 0 71.0831 12.3939 881 62.067 724.041 513.473
232 0 74.1345 11.9108 883 62.0487 726.132 516.978
233 0 76.215 12.3335 940 62.2192 725.856 512.063
234 0 81.1206 13.6094 1104 60.4574 724.851 513.278
235 0 82.138 10.738 882 64.8084 725.045 512.707
236 0 85.1439 11.2163 955 64.3749 725.688 510.898
237 0 86.2491 11.3277 977 64.8506 725.192 506.414
238 1 44.0832 9.75428 430 66.186 725.714 528.03
239 0 47.0331 11.1836 526 64.2871 726.036 526.16
240 0 50.0792 11.4019 571 64.1208 725.657 525.434
241 0 50.0977 11.2979 566 65.4364 725.39 522.163
242 0 50.0425 10.4311 522 67.0843 726.605 523.613
243 0 51.0352 10.385 530 66.6811 726.219 522.289
244 0 54.0694 10.1906 551 67.3412 724.657 521.94
245 0 53.0689 10.4204 553 137.177 723.633 521.908
246 0 57.0635 10.4445 596 66.7148 725.57 519.156
247 0 58.0886 10.3635 602 66.3821 726.096 520.528
248 0 61.1058 11.6028 709 64.8082 725.859 518.252
249 0 62.149 10.8288 673 65.6909 726.52 518.407
250 0 63.1462 11.9564 755 65.2821 725.396 514.383
251 0 69.2374 11.41 790 64.319 726.114 518.433
252 0 68.1419 14.5725 993 61.1531 726.566 515.573
253 0 70.0779 11.9867 840 64.694 725.514 515.132
254 0 74.1994 11.0783 822 64.8625 727.281 518.236
255 0 74.1785 9.69283 719 67.9458 726.77 514.586
256 0 77.1417 10.202 787 67.5629 726.121 512.402
257 0 79.1268 10.0977 799 67.4518 727.134 512.103
258 0 83.1138 13.0063 1081 63.6531 726.701 511.277
259 0 87.1862 13.0869 1141 63.0219 726.053 511.513
260 1 47.0371 10.1835 479 65.1587 727.113 530.472
261 0 48.0771 11.5439 555 63.7369 727.286 529.508
262 0 49.0641 10.7207 526 65.1711 726.12 528.943
263 0 49.0268 10.5249 516 65.6415 726.347 529.488
264 0 52.0163 12.2462 637 63.6907 727.088 527.148
265 0 53.09 12.7708 678 63.1534 725.732 526.414
266 0 55.0742 11.2394 619 64.7044 724.997 526.677
267 0 54.0707 10.9486 592 65.7669 725.074 523.302
268 0 49.0508 8.56254 420 70.4548 725.402 522.855
269 0 51.1662 7.34861 376 70.9894 726.043 517.545
270 0 53.0482 8.16239 433 69.5866 725.139 514.697
271 0 61.1396 10.5496 645 65.6837 726.464 522.702
272 0 65.0966 12.7349 829 62.8661 725.464 520.503
273 0 68.0394 11.6109 790 63.8089 724.554 519.661
274 0 70.0846 11.5147 807 63.4634 725.131 518.133
275 0 73.1058 13.4189 981 60.6371 725.111 518.264
276 0 75.0897 11.3198 850 62.8471 725.935 516.086
277 0 77.0994 12.0105 926 62.0616 725.477 515.635
278 0 76.1511 10.1771 775 64.6594 725.293 513.294
279 0 81.1734 11.2229 911 63.0637 725.335 512.205
280 0 83.1272 10.4057 865 64.3988 724.565 508.405
281 0 87.273 12.1802 1063 61.6952 724.853 509.128
282 0 87.0772 10.5653 920 64.462 724.821 505.866
283 0 92.2305 11.8399 1092 62.413 724.764 508.16
284 0 94.2098 11.1453 1050 63.8676 724.492 502.613
285 0 97.3604 11.4523 1115 63.4233 724.367 502.436
286 1 50.2265 10.5124 528 63.0246 723.869 525.153
287 0 52.0774 9.67791 504 63.5794 724.157 526.373
288 0 54.0467 11.083 599 63.2888 723.624 524.544
289 0 56.0476 11.5259 646 62.7415 724.19 523.167
290 0 56.0552 10.5967 594 64.5303 723.987 523.249
291 0 57.0519 10.5518 602 64.5781 724.435 521.772
292 0 64.1136 12.3999 795 65.4088 724.211 461.599
293 0 66.1236 11.4634 758 66.7863 724.216 457.274
294 0 66.0885 10.7129 708 68.6497 724.244 455.469
295 0 69.0804 12.015 830 66.8036 723.914 449.996
296 0 70.0476 10.9069 764 69.2304 723.647 447.228
297 0 67.1058 10.4611 702 66.1738 724.09 515.725
298 0 75.0832 12.7192 955 62.2366 724.332 517.302
299 0 75.1263 11.1279 836 64.9342 724.013 517.781
300 0 78.0948 12.1647 950 64.2716 724.51 513.18
301 0 80.1197 11.4204 915 65.6011 724.398 511.365
302 0 85.1917 13.2407 1128 62.5266 723.025 512.507
303 0 85.1738 11.9403 1017 64.7561 722.98 510.747
304 0 88.1598 11.5018 1014 65.4892 723.495 507.919
305 0 91.2261 12.3539 1127 64.5661 723.416 504.748
306 1 50.096 11.478 575 62.5183 723.976 529.084
307 0 48.0419 9.63741 463 65.987 724.132 526.661
308 0 51.0599 10.6737 545 63.8972 724.822 527.712
309 0 52.1674 10.6388 555 64.1135 724.296 524.368
310 0 54.0475 10.2317 553 64.5588 724.859 526.07
311 0 58.0501 11.8691 689 62.2656 724.338 523.209
312 0 59.0574 12.2423 723 61.7912 723.657 522.373
313 0 57.0509 10.2014 582 65.2526 723.775 519.141
314 0 61.1001 11.8985 727 62.1142 724.23 521.619
315 0 63.1039 9.84091 621 64.7762 724.147 517.729
316 0 65.2356 10.9909 717 62.9526 723.987 519.771
317 0 67.1191 12.2618 823 61.4982 724.497 516.763
318 0 68.2384 11.0788 756 63.0119 724.169 516.337
319 0 70.0726 9.19047 644 64.7453 724.475 515.534
320 0 73.1374 10.8836 796 62.0704 723.541 514.372
321 0 77.1363 12.9381 998 59.7786 723.861 511.171
322 0 79.1465 11.2197 888 61.6453 724.445 510.738
323 0 83.1576 12.0975 1006 60.0815 724.243 510.586
324 0 85.2485 12.094 1031 60.2095 724.163 510.37
325 0 87.0859 13.0905 1140 59.2447 724.503 507.873
326 0 90.2688 11.5987 1047 61.1385 725.253 505.338
327 1 46.0263 10.9503 504 59.6171 725.016 528.224
328 0 46.0214 11.8858 547 59.0969 725.395 529.901
329 0 45.076 9.14012 412 62.9102 724.668 529.274
330 0 48.0834 12.1872 586 59.8754 724.693 526.561
331 0 48.0773 9.13113 439 63.6743 724.46 525.895
332 0 51.0814 11.1782 571 61.4431 723.643 527.48
333 0 53.0536 11.7429 623 60.4334 724.629 527.095
334 0 54.0836 10.7611 582 62.4433 724.668 523.05
335 0 54.1688 10.3011 558 63.7688 723.937 522.287
336 0 53.202 9.15378 487 65.9979 724.162 518.388
337 0 55.3172 8.6953 481 67.1871 724.077 517.865
338 1 24.0292 7.5325 181 66.8398 722.762 500.702
339 1 0 0 1.04732e-303 -nan 300 -0.0310026
340 0 0 0 0 -nan -nan -nan
341 0 0 0 0 -nan -nan -nan
342 0 0 0 0 -nan -nan -nan
343 1 44.2346 4.15964 184 74.2283 724.875 509.136
344 1 0 0 0 -nan -nan -nan
345 1 52.1622 3.60414 188 73.766 724.324 515.383
346 1 0 0 0 -nan -nan -nan
347 1 50.0866 1.65713 83 74.494 724.06 527.145
348 0 50.0859 3.25441 163 73 724.822 522.466
349 1 75.3083 8.19299 617 69.0081 723.198 498.618
350 0 76.155 4.84538 369 71.9052 723.645 491.304
351 1 29.0439 4.717 137 72.1314 725.182 520.73
352 0 36.2265 5.3828 195 69.0051 724.385 516.805
353 0 42.0476 6.18347 260 69.0462 724.915 519.592
354 0 43.0672 10.3791 447 65.5928 724.497 470.306
355 0 44.0395 7.99282 352 67.3892 725.008 520.102
356 0 43.0406 7.80658 336 67.6161 725.39 517.199
357 0 47.052 9.20258 433 65.3857 725.102 515.797
358 0 48.0556 8.15722 392 66.7526 725.296 515.357
359 0 43.0559 5.34189 230 69.5565 725.248 514.587
360 0 47.0748 7.32876 345 66.1739 724.861 512.026
361 1 60.0849 11.4172 686 63.9344 724.926 458.758
362 0 53.0403 7.74883 411 65.8467 724.482 508.163
363 0 58.0669 8.59353 499 65.0982 725.395 510.946
364 0 57.1072 3.86991 221 68.552 725.023 500.244
365 0 55.0671 8.22632 453 65.5121 725.097 503.464
366 0 63.1282 7.06498 446 66.4978 726.213 504.233
367 0 60.1265 4.80653 289 68.2318 725.422 499.093
368 0 56.1733 7.24543 407 66.258 725.811 497.373
369 1 70.2317 8.64282 607 65.112 725.768 502.135
370 0 72.2573 7.76392 561 65.5294 725.237 504.417
371 0 78.2236 9.44728 739 63.9148 724.954 504.852
372 0 76.1256 6.84395 521 66.5067 724.85 494.894
373 0 73.1769 4.94691 362 67.6906 724.124 485.215
374 1 127.452 7.95597 1014 70.0217 724.17 438.937
375 1 159.143 2.01706 321 77.2399 724.941 437.171
376 1 123.125 5.08426 626 70.5288 724.923 454.366
377 1 159.059 0.905327 144 80.0208 724.743 426.569
378 0 160.101 3.10429 497 72.171 724.996 479.217
379 0 156.143 1.21684 190 78.0895 724.768 451.421
380 1 136.296 1.57745 215 77.907 724.637 437.033
381 1 41.0958 5.49935 226 67.2257 724.42 512.385
382 0 42.1116 9.87852 416 64.0168 723.916 513.731
383 0 50.1898 10.1614 510 63.1098 723.99 514.157
384 0 42.0261 5.37761 226 68.8142 724.42 511.084
385 0 45.0963 4.14668 187 68.5936 723.487 506.888
386 0 47.0955 6.58237 310 66.1 724.594 506.835
387 1 26.0593 7.67481 200 64.9 724.27 497.335
388 1 176.133 2.79334 492 77.1138 724.632 404.49
389 1 127.176 6.93528 882 68.7256 724.16 434.697
390 0 132.192 4.68257 619 70.433 724.682 462.473
391 0 138.288 6.26951 867 68.8201 725.495 458.91
392 1 84.0564 6.92392 582 69.4656 724.756 435.423
393 1 146.162 7.88167 1152 66.987 724.398 440.221
394 0 147.196 4.74199 698 71.3324 724.15 439.245
395 0 154.276 6.82544 1053 69.0712 724.883 441.76
396 0 161.228 8.0817 1303 68.0836 724.976 448.521
397 1 136.243 9.24083 1259 67.7514 725.307 436.54
398 1 150.151 4.41554 663 73.6742 725.115 438.32
399 0 148.624 11.6603 1733 65.0929 725.175 431.078
400 0 153.476 10.2622 1575 66.9664 724.742 422.853
401 0 144.199 6.5881 950 68.8642 724.753 453.196
402 1 121.24 4.07456 494 73.3441 725.587 442.931
403 0 112.383 9.99261 1123 66.9662 725.598 441.474
404 1 145.325 4.69294 682 72.0117 725.757 455.654
405 1 106.408 6.08978 648 71.1636 725.951 446.716
406 0 108.27 5.9758 647 66.6368 725.091 469.992
407 1 61.0937 9.52636 582 65.8007 725.23 463.397
408 0 63.2035 10.3159 652 64.4877 725.018 461.068
409 0 65.2045 9.81527 640 65.4812 724.75 458.817
410 0 68.1009 10.6607 726 64.6584 723.952 453.844
411 1 114.307 6.65753 761 67.883 724.74 478.604
412 1 55.1075 5.82498 321 71.8349 724.414 451.393
413 0 59.0844 7.49775 443 69.0971 724.533 453.321
414 0 59.1117 6.68226 395 69.0304 724.625 454.808
415 0 57.1341 6.03842 345 64.3971 724.661 501.443
416 1 0 0 1 53 724 477
417 0 0 0 0 -nan -nan -nan
418 0 0 0 0 -nan -nan -nan
419 0 0 0 0 -nan -nan -nan
420 1 32.0209 6.37085 204 65.9216 724.873 493.647
421 0 33.0053 7.12007 235 65.4979 725.085 490.626
422 0 33.0103 6.36165 210 63.819 725.471 521.605
423 1 47.0405 9.84259 463 62.7559 724.821 482.363
424 0 50.0296 11.2334 562 61.2082 724.354 477.568
425 0 52.0607 10.4493 544 62.2224 725.241 478.077
426 0 53.0527 10.7629 571 61.7426 724.856 477.907
427 0 56.0576 9.61511 539 63.8349 724.967 474.666
428 0 57.0733 10.7055 611 62.5106 724.61 468.447
429 0 58.1175 11.752 683 62.265 723.738 471.826
430 1 96.1249 5.04552 485 68.2433 725.381 476.887
431 1 113.092 8.29415 938 69.7708 724.997 444.236
432 0 112.154 5.04663 566 70.3057 725.394 456.378
433 1 155.076 0.902783 140 77.2 725.45 471.579
434 0 153.146 1.07087 164 80.9817 724.439 431.732
435 1 109.131 7.08325 773 69.3765 724.877 450.427
436 0 114.115 6.9404 792 68.423 725.149 466.224
437 0 121.125 5.82046 705 69.3801 725.61 455.905
438 0 130.086 6.37272 829 69.351 725.487 455.641
439 1 73.1455 10.6227 777 67.9176 725.547 447.946
440 1 59.1015 6.73418 398 67.0226 724.854 504.807
441 0 61.1153 8.4267 515 65.2602 725.278 503.858
442 0 60.0756 8.58917 516 67.343 725.709 509.512
443 0 65.0711 9.34363 608 66.2993 726.132 507.416
444 0 59.078 8.10792 479 68.215 725.438 501.165
445 0 68.0467 5.49623 374 70.8128 725.233 502.84
446 1 32.0072 6.77972 217 69.2166 725.143 524.065
447 0 32.0069 7.27967 233 69.0258 725.142 523.901
448 0 38.0595 7.54083 287 68.3519 724.707 522.972
449 0 34.0273 8.25807 281 67.9324 724.737 519.562
450 0 41.0341 9.55302 392 67.7704 725.88 523.702
451 0 41.0474 9.64737 396 67.2904 725.338 521.48
452 0 42.0141 8.85416 372 68.3172 725.452 520.761
453 0 41.052 7.77064 319 70.2915 725.533 520.313
454 0 45.0327 6.01785 271 71.2583 724.893 522.347
455 0 47.0196 9.82568 462 67.1169 725.76 519.398
456 0 49.0669 8.41708 413 69.3874 725.489 520.119
457 0 52.0931 9.92455 517 67.7621 725.155 517.965
458 0 52.073 8.33445 434 70.0645 725.629 518.005
459 0 53.0447 10.2178 542 68.6181 725.71 516.103
460 0 58.0336 10.7007 621 68.3752 724.436 514.066
461 0 59.1007 10.1014 597 69.2814 724.729 515.595
462 0 59.1328 8.35407 494 71.6316 725.053 512.87
463 0 65.0788 9.91107 645 69.8775 724.045 514.501
464 0 67.2515 9.85851 663 69.7572 724.109 513.727
465 0 71.1612 9.92114 706 68.9193 724.086 514.424
466 0 73.0328 11.6249 849 67.9329 725.101 510.881
467 0 75.0926 9.40172 706 70.4193 725.429 510.861
468 0 77.0406 11.0591 852 68.7406 725.299 507.962
469 1 41.0236 9.77486 401 69.4738 725.229 527.973
470 0 38.0334 8.6503 329 72.4498 724.538 525.359
471 0 42.0331 8.2316 346 71.2775 725.454 525.569
472 0 42.0918 9.31299 392 70.8367 724.814 523.916
473 0 44.0201 10.2453 451 70.2173 724.514 525.601
474 0 45.0078 8.59852 387 70.7623 724.264 520.594
475 0 46.028 8.95107 412 71.3665 725.078 521.653
476 0 48.0826 9.40049 452 70.4934 724.091 519.763
477 0 50.2176 10.0961 507 70.1538 724.643 523.919
478 0 52.0384 10.0503 523 70.065 724.748 523.002
479 0 54.0839 9.6147 520 70.4385 724.771 523.304
480 0 58.0456 12.1112 703 67.5861 724.644 521.728
481 0 59.0321 10.435 616 70.401 723.891 520.261
482 0 59.1005 9.03546 534 72.0992 723.768 519.348
483 0 67.1499 14.3708 965 64.7596 724.842 520.165
484 0 71.1732 13.5023 961 65.4318 724.583 518.783
485 0 71.152 12.1009 861 67.6632 724.401 519.51
486 0 72.0706 14.3054 1031 66.1038 725.24 514.418
487 0 73.2319 11.7981 864 69.213 724.975 516.404
488 0 79.1822 13.1721 1043 67.4305 724.833 514.649
489 0 82.3247 13.4953 1111 67.1017 724.933 514.457
490 0 82.1786 11.7062 962 70.2391 724.891 512.892
491 1 45.0656 10.0298 452 70.4181 724.531 531.608
492 0 46.0674 12.0041 553 68.8264 725.242 528.96
493 0 48.0428 12.9468 622 68.1849 723.971 531.22
494 0 48.0723 12.71 611 69.1031 724.939 528.921
495 0 51.058 13.8078 705 67.1021 725.35 530.07
496 0 51.0939 11.6452 595 70.1765 723.274 530.047
497 0 54.0436 12.3974 670 69.0731 724.045 529.109
498 0 55.03 12.266 675 69.3793 724.522 528.781
499 0 55.0628 12.0226 662 71.1586 724.482 526.236
500 0 58.1093 12.6658 736 68.8329 724.863 527.386
501 0 59.0949 13.2499 783 69.0319 724.444 524.78
502 0 61.0963 12.6849 775 69.1781 724.972 526.526
503 0 61.0438 12.4009 757 70.6209 724.141 524.289
504 0 66.1087 13.9921 925 68.6043 724.444 522.627
505 0 66.1056 12.4498 823 70.2248 724.752 524.143
506 0 71.16 13.2659 944 69.2087 725.447 521.476
507 0 71.1771 12.6586 901 70.4739 724.983 520.248
508 0 74.0982 12.9423 959 69.2565 724.676 521.919
509 0 75.1916 13.7914 1037 70.0309 724.214 519.271
510 0 78.1173 13.787 1077 69.6834 723.971 518.323
511 0 78.1202 13.1336 1026 72.1637 723.862 517.78
512 0 81.1557 12.8395 1042 72.3119 724.173 517.392
513 0 84.2148 13.24 1115 72.13 723.635 515.564
514 0 88.1048 15.2886 1347 69.778 724.483 515.361
515 0 90.1144 14.304 1289 71.73 724.234 512.718
516 1 47.0799 13.339 628 71.6354 724.317 533.42
517 0 48.0995 13.5968 654 71.8914 724.477 532.884
518 0 50.0991 12.096 606 74.4076 725.101 531.625
519 0 50.0389 11.4911 575 75.3374 724.454 532.703
520 0 50.1988 11.9126 598 76.2993 723.965 528.701
521 0 52.23 13.7469 718 74.0404 724.636 528.478
522 0 50.1623 9.80817 492 79.9919 724.793 527.569
523 0 54.1075 11.6989 633 77.8404 724.458 524.953
524 0 51.024 10.4657 534 79.412 724.622 520.002
525 0 47.0607 8.98839 423 83.2671 724.442 520.109
526 0 51.1152 8.82321 451 82.0621 724.339 514.222
527 0 52.0796 9.04384 471 83 724.093 515.217
528 0 50.0943 6.08852 305 86.7082 723.849 513.997
529 0 59.0312 8.23293 486 82.6317 724.636 511.144
530 0 59.0467 9.46708 559 82.0841 724.567 510.648
531 0 60.1545 10.1738 612 82.281 724.974 514.413
532 0 66.0379 10.3577 684 81.3947 724.213 512.867
533 0 67.0322 9.5924 643 82.9611 724.341 511.045
534 0 72.1068 9.99905 721 82.4743 724.412 513.846
535 0 73.0694 10.5927 774 82.2028 724.293 512.736
536 0 79.0583 9.37283 741 82.9123 724.676 510.571
537 0 81.0332 10.3908 842 81.8397 724.657 506.205
538 1 46.0196 13.6246 627 74.0032 724.254 531.976
539 0 47.2099 12.0526 569 76.2953 724.04 531.685
540 0 47.0782 11.7889 555 76.8072 724.054 531.577
541 0 49.096 11.8951 584 76.4812 724.303 530.966
542 0 51.1911 13.0101 666 73.9234 723.892 530.39
543 0 51.1034 11.7018 598 76.8779 724.913 529.938
544 0 54.1317 12.5804 681 75.232 724.979 528.272
545 0 57.0624 12.5301 715 74.5217 725.215 528.361
546 0 58.061 13.1586 764 74.2003 724.4 526.072
547 0 61.0981 14.2067 868 71.8813 724.036 527.653
548 0 62.07 12.792 794 74.0353 724.334 524.498
549 0 64.1758 12.793 821 73.8124 724.004 524.072
550 0 65.2113 12.7432 831 74.6246 723.872 523.487
551 0 68.1507 13.4848 919 73.3156 724.204 522.831
552 0 70.0341 14.4073 1009 72.1942 723.638 522.941
553 0 72.1121 13.1046 945 74.6074 724.497 519.369
554 0 72.1822 12.136 876 76.8539 725.075 517.529
555 0 77.1864 13.9792 1079 73.0222 725.261 518.778
556 0 78.0535 12.2865 959 76.4056 725.149 517.201
557 0 80.0601 12.3157 986 77.0294 724.883 515.754
558 0 82.1167 12.3361 1013 77.1905 724.36 514.875
559 0 85.0197 13.5733 1154 75.5971 724.249 513.409
560 0 88.1459 13.2167 1165 76.1013 723.96 510.773
561 0 91.1604 14.2386 1298 74.4646 725.046 511.401
562 1 42.0888 11.6183 489 77.9673 725.454 533.02
563 0 44.0729 10.8003 476 78.4685 724.912 533.359
564 0 47.0469 11.988 564 76.5479 724.45 534.294
565 0 47.0807 11.4272 538 77.8086 724.812 530.121
566 0 49.1169 13.3152 654 74.6667 724.647 530.532
567 0 50.0457 12.7284 637 75.5306 724.76 529.714
568 0 51.039 13.088 668 76.1198 724.548 529.629
569 0 53.0314 12.3512 655 76.4061 724.486 530.313
570 0 55.0346 13.4824 742 74.0418 724.6 529.675
571 0 57.0769 11.2655 643 77.6921 724.039 527.7
572 0 58.0379 11.8715 689 76.9637 724.964 527.364
573 0 59.0416 12.9908 767 76.4329 724.664 525.92
574 0 62.1597 12.9023 802 76.0362 724.733 525.703
575 0 65.0468 13.4211 873 76.3597 725.346 522.203
576 0 67.1346 13.2421 889 75.9629 725.226 523.729
577 0 69.1495 12.943 895 76.667 725.613 522.158
578 0 72.0756 13.028 939 76.3035 725.915 522.124
579 0 72.1497 13.2364 955 77.1497 726.176 520.452
580 0 75.2128 12.7771 961 77.5973 727.395 520.062
581 0 78.0417 14.4794 1130 75.6522 727.034 518.474
582 0 79.1727 14.3736 1138 75.7021 727.377 516.492
583 0 83.0797 13.2523 1101 76.4242 727.246 517.339
584 0 83.0918 12.9134 1073 77.9059 726.211 516.128
585 0 85.1543 13.3757 1139 77.8402 726.152 514.585
586 0 88.0929 13.6787 1205 77.0158 726.152 514.624
587 0 89.2041 12.9927 1159 79.3218 726.543 512.205
588 1 52.0976 12.1119 631 77.6101 726.002 531.878
589 0 51.0691 14.6076 746 76.9866 725.177 527.304
590 0 54.0488 13.7283 742 76.8639 725.263 529.19
591 0 53.0983 12.7688 678 79.2389 725.438 528.942
592 0 57.193 13.9528 798 77.7005 725.132 526.628
593 0 59.0806 13.9809 826 76.9116 726.345 526.709
594 0 60.1065 13.9419 838 76.2017 725.325 527.678
595 0 62.065 13.9048 863 78.2178 724.998 521.45
596 0 65.145 12.3264 803 78.6812 724.47 525.65
597 0 68.106 13.3909 912 77.5768 724.927 522.387
598 0 67.1006 12.7123 853 78.5276 724.728 522.816
599 0 72.1129 13.4095 967 77.1293 724.795 520.327
600 0 74.0454 13.7483 1018 76.0864 724.615 521.245
601 0 77.1021 14.6818 1132 75.6678 724.993 516.776
602 0 80.1261 13.2167 1059 77.4051 725.609 518.281
603 0 81.101 13.773 1117 76.4942 725.761 516.729
604 1 41.0628 12.2739 504 75.4444 725.819 535.339
605 0 41.0935 12.1917 501 75.4371 725.896 536.048
606 0 43.1424 11.7981 509 76.7859 725.674 534.499
607 0 44.0554 12.9383 570 75.1912 724.826 533.31
608 0 45.1178 13.232 597 75.2697 725.511 531.548
609 0 47.1827 12.2502 578 75.5156 725.325 532.55
610 0 48.0365 14.4682 695 73.0388 725.971 529.885
611 0 51.0579 14.5717 744 72.2325 725.388 530.778
612 0 51.1089 12.7179 650 74.72 725.44 529.308
613 0 52.0725 13.3852 697 73.8278 725.89 529.164
614 0 54.1498 13.0748 708 74.0141 725.812 528.589
615 0 56.0649 13.9303 781 72.7017 726.697 528.16
616 0 59.0805 14.184 838 71.7017 726.288 523.881
617 0 61.1406 12.2995 752 74.2194 726.311 525.543
618 0 61.1767 13.8125 845 73.0757 725.631 524.063
619 0 65.103 14.1622 922 71.4653 725.174 522.028
620 0 66.108 12.4644 824 73.5704 725.489 522.623
621 0 69.1338 13.6836 946 72.481 725.781 518.438
622 0 71.1251 13.427 955 72.244 725.51 519.69
623 0 72.1666 13.1501 949 73.1402 725.235 518.532
624 0 74.0479 11.9922 888 74.5529 725.593 516.976
625 0 77.1007 13.9169 1073 71.5713 725.888 516.104
626 1 40.1222 11.0413 443 74.0113 725.569 532.729
627 0 40.0273 12.2167 489 72.2904 725.816 532.448
628 0 40.1067 12.1426 487 72.6099 724.93 534.058
629 0 41.0378 10.868 446 74.2982 725.594 532.509
630 0 44.0438 11.6248 512 72.7773 725.404 532.66
631 0 44.034 12.6947 559 72.4097 725.619 529.937
632 0 46.0777 12.5006 576 71.7552 725.005 530.727
633 0 47.1671 12.6783 598 71.3696 726.308 529.329
634 0 46.0591 12.2668 565 73.5558 726.595 528.235
635 0 52.066 12.8299 668 70.6946 726.642 529.157
636 0 52.1609 12.7874 667 71.3208 726.16 527.505
637 0 53.1504 13.49 717 70.795 727.095 526.331
638 0 55.1939 12.1753 672 72.1875 727.042 524.394
639 0 57.173 12.5409 717 71.3794 725.999 523.714
640 0 59.1228 12.1273 717 71.5523 726.252 524.091
641 0 61.0705 12.4119 758 72.1003 726.437 522.343
642 0 64.114 12.6961 814 71.9128 725.649 519.038
643 0 68.0914 13.0266 887 71.1353 725.741 521.454
644 0 69.0992 12.3012 850 71.7835 724.735 521.701
645 0 72.2085 13.5718 980 70.7326 725.351 519.443
646 0 75.0828 12.8791 967 71.879 725.367 518.466
647 0 78.2265 12.3104 963 72.5898 724.872 517.918
648 0 80.0921 13.9839 1120 71.1741 725.229 516.129
649 0 83.1345 13.5804 1129 71.7538 725.672 515.596
650 0 85.0827 12.7053 1081 73.222 725.633 514.142
651 1 44.0442 12.0334 530 72.2943 726.726 533.245
652 0 45.1146 12.834 579 72.3333 726.133 531.929
653 0 45.1101 12.2811 554 73.4079 726.283 532.051
654 0 48.0267 12.4098 596 72.6661 726.226 531.222
655 0 49.1207 13.1106 644 72.5668 726.022 529.769
656 0 51.0445 15.0457 768 69.1341 725.7 530.695
657 0 53.141 13.7935 733 71.09 726.338 527.982
658 0 55.1281 15.7089 866 68.6882 726.097 529.154
659 0 55.1253 14.0045 772 71.351 725.347 528.501
660 0 59.2482 13.6544 809 71.4734 725.483 527.154
661 0 58.1236 13.5917 790 72.3899 726.048 526.068
662 0 60.1215 13.0403 784 72.9222 726.125 524.885
663 0 63.3157 13.4406 851 71.9906 725.885 524.402
664 0 63.0748 12.5724 793 74.0479 726.018 522.275
665 0 69.2315 13.6932 948 70.0338 725.886 521.997
666 0 70.1578 13.6122 955 71.2429 725.952 518.72
667 0 72.1155 14.8512 1071 70.0616 725.951 518.649
668 0 72.2165 13.9165 1005 71.7642 725.854 518.7
669 0 75.2585 11.693 880 74.2511 725.869 518.217
670 0 80.1341 14.2012 1138 70.4526 726.216 515.199
671 0 82.3332 14.162 1166 70.4443 725.959 513.232
672 0 84.2444 13.9357 1174 70.5767 726.036 514.687
673 1 42.03 13.0859 550 68.7182 726.36 536.025
674 0 41.045 12.2305 502 71.5279 727.064 533.659
675 0 42.0804 12.9276 544 70.7923 726.25 533.577
676 0 43.0469 13.2414 570 70.1737 726.204 533.502
677 0 45.0504 13.0742 589 69.9542 726.727 532.879
678 0 46.0287 12.0577 555 71.6937 726.413 532.088
679 0 48.0729 13.1259 631 69.4485 725.943 531.696
680 0 47.0353 12.5013 588 70.9337 725.77 531.794
681 0 49.0746 11.9614 587 71.7206 726.363 531.313
682 0 51.0719 11.2978 577 71.9047 726.686 530.7
683 0 53.0404 12.613 669 70.0703 727.013 529.543
684 0 54.0172 12.9959 702 69.9587 727.238 527.167
685 0 56.0626 12.9141 724 70.1851 727.015 527.348
686 0 58.0832 13.2224 768 69.7826 726.714 527.15
687 0 59.0896 12.5911 744 70.6801 726.984 524.405
688 0 61.0419 13.6136 831 69.7569 726.072 523.724
689 0 63.1439 13.303 840 70.4619 726.782 523.75
690 0 66.0445 13.9754 923 68.8288 726.633 522.174
691 0 69.0431 14.1071 974 68.4446 727.533 522.508
692 0 71.075 12.8174 911 70.7464 727.912 522.401
693 0 74.0456 13.0055 963 69.8079 726.945 522.355
694 0 74.1156 11.8194 876 72.492 726.524 519.484
695 0 78.1878 15.2454 1192 67.6091 726.376 517.231
696 1 39.029 11.0943 433 72.2356 725.37 535.152
697 0 43.0175 12.9017 555 68.0721 725.757 535.301
698 0 43.0249 10.9239 470 71.0872 726.398 535.415
699 0 45.058 10.7195 483 71.2215 725.468 536.462
700 0 46.0375 11.7513 541 69.5194 726.041 534.246
701 0 47.0278 11.5038 541 71.1072 726.896 532.584
702 0 48.0187 12.4118 596 69.8624 726.091 530.035
703 0 53.1242 13.7037 728 65.9615 726.174 531.507
704 0 51.0332 12.051 615 69.2846 726.049 531.811
705 0 53.0572 12.1944 647 69.6816 725.946 528.779
706 0 54.019 11.7736 636 70.5959 726.16 526.904
707 0 57.0394 12.7105 725 68.5559 725.481 527.199
708 0 58.0314 11.4765 666 71.0435 725.018 525.48
709 0 60.0553 11.5394 693 69.5022 725.605 527.247
710 0 63.0596 11.7667 742 69.5512 725.617 525.536
711 0 65.0847 14.0432 914 66.1576 725.699 523.304
712 0 67.0598 11.5569 775 70.0542 725.504 521.621
713 0 68.0653 11.6065 790 70.3633 725.785 522.746
714 0 69.0623 11.743 811 70.4994 725.65 522.138
715 0 72.1777 12.0259 868 69.9539 725.8 519.963
716 0 77.087 14.3863 1109 66.0857 725.555 518.326
717 0 79.117 12.9808 1027 68.6748 726.002 517.05
718 0 82.1001 12.6675 1040 68.8779 725.842 517.529
719 1 43.0892 10.8612 468 70.4551 725.859 533.938
720 0 44.0496 12.1908 537 68.5102 726.207 533.743
721 0 45.0325 11.4584 516 69.6957 725.973 533.909
722 0 45.0606 11.9838 540 69.8537 726.241 532.359
723 0 48.048 13.4865 648 67.6543 725.662 531.014
724 0 47.1115 10.1462 478 72.3933 725.724 532.389
725 0 50.0392 12.9698 649 68.7966 725.855 529.381
726 0 53.0213 12.1649 645 68.6016 726.042 530.929
727 0 53.0973 12.1852 647 69.4111 726.17 530.235
728 0 55.0584 11.6059 639 70.0626 725.554 529.596
729 0 57.0826 11.9476 682 69.2273 725.519 528.13
730 0 60.1398 13.1361 790 66.3899 725.632 529.257
731 0 59.0912 11.8969 703 69.7795 724.7 526.845
732 0 62.1051 12.656 786 69.2672 724.798 523.704
733 0 65.0574 12.4505 810 67.7346 725.27 527.033
734 0 65.1033 13.2098 860 67.9837 725.119 523.052
735 0 68.0555 13.4155 913 67.2618 726.068 522.439
736 0 71.131 13.1166 933 67.2487 726.263 520.638
737 0 73.0509 12.6624 925 68.1784 726.424 518.083
738 0 74.1678 12.8492 953 68.1301 725.737 518.701
739 0 76.1418 13.396 1020 66.7706 725.968 520.641
740 0 78.1424 11.2743 881 70.3564 726.22 518.445
741 1 41.0678 11.5175 473 67.2622 726.615 536.076
742 0 43.0319 11.201 482 69.7012 726.803 533.643
743 0 45.0461 12.1209 546 67.3718 726.423 533.96
744 0 45.0844 11.4452 516 70.4031 726.335 530.816
745 0 47.0434 12.3715 582 68.177 725.68 532.514
746 0 46.035 11.5781 533 70.1764 725.546 532.69
747 0 49.0509 12.538 615 68.6764 724.551 530.771
748 0 52.071 12.7518 664 67.8795 724.521 531.223
749 0 53.0414 11.7833 625 69.2832 725.611 529.6
750 0 55.073 12.7104 700 66.9057 725.846 530.441
751 0 55.0397 12.7726 703 67.744 725.57 528.72
752 0 58.0608 12.3491 717 67.6862 725.845 527.423
753 0 59.0688 11.7151 692 68.6951 726.422 528.234
754 0 62.054 12.8436 797 67.1418 725.483 526.12
755 0 62.0769 12.1301 753 68.3094 725.8 526.448
756 0 65.0734 13.5385 881 66.067 725.91 524.395
757 0 65.0493 12.8518 836 68.2416 725.404 521.77
758 0 69.033 11.8639 819 68.7387 726.311 523.484
759 0 70.1083 12.6518 887 67.8128 726.419 521.347
760 0 72.0998 12.136 875 68.6526 725.925 519.763
761 0 75.1193 13.4586 1011 65.8635 725.606 520.772
762 0 76.1472 11.8849 905 69.0099 725.246 518.614
763 0 79.0587 11.4978 909 69.615 725.345 517.607
764 0 80.067 12.0025 961 69.3871 725.994 515.895
765 1 45.0269 10.3049 464 68.9741 725.526 534.92
766 0 45.0515 10.7433 484 68.4112 726.081 535.242
767 0 46.0415 10.9249 503 69.2843 725.501 533.189
768 0 48.0724 11.8363 569 68.6907 724.322 530.617
769 0 49.0644 11.3524 557 69.14 724.539 529.824
770 0 50.0651 11.505 576 68.533 724.575 530.193
771 0 53.0237 12.4284 659 67.2443 725.628 530.285
772 0 54.049 11.4156 617 69.2464 726.104 528.609
773 0 55.045 12.517 689 68.1219 725.655 528.386
774 0 56.0388 12.3843 694 69.0317 724.993 526.084
775 0 57.0482 11.499 656 70.2012 725.79 526.681
776 0 59.0364 13.3646 789 67.1838 725.283 526.07
777 0 62.0707 12.0347 747 68.3695 724.734 525.746
778 0 65.0352 12.4855 812 68.4643 725.302 522.887
779 0 65.0452 12.7296 828 67.4674 725.565 523.278
780 0 68.0432 13.7707 937 66.1537 725.204 521.702
781 0 70.1255 12.5062 877 67.4458 725.536 521.344
782 0 71.0832 12.2532 871 67.6797 725.811 523.398
783 0 75.279 12.4072 934 67.0707 726.016 519.041
784 0 77.0626 12.9375 997 66.2879 725.194 517.917
785 0 79.1095 12.6407 1000 66.127 725.75 518.455
786 0 81.2424 11.9396 970 67.0485 725.208 515.122
787 1 43.0795 11.56 498 64.7209 725.582 534.88
788 0 45.1062 10.8632 490 64.5245 725.298 535.443
789 0 43.098 10.6502 459 66.4139 725.42 535.66
790 0 47.0981 10.9134 514 65.93 724.669 532.862
791 0 48.0516 11.3836 547 65.8611 724.976 532.267
792 0 48.0782 11.7725 566 66.0442 725.534 531.203
793 0 51.0627 11.8678 606 65.5759 725.132 531.185
794 0 52.0255 12.1671 633 64.7251 726.228 530.122
795 0 56.0618 14.2164 797 62.2685 725.956 527.265
796 0 56.1092 11.5667 649 66.2989 725.621 528.324
797 0 57.0454 12.1482 693 65.6508 724.86 527.329
798 0 58.0196 10.7205 622 67.4019 725.408 527.812
799 0 62.0293 12.8488 797 63.7742 725.311 527.218
800 0 65.0978 12.9037 840 63.7452 724.955 523.436
801 0 66.0718 12.0172 794 64.9458 725.467 522.631
802 0 67.0431 12.5293 840 64.6988 724.754 523.458
803 0 71.0387 9.98048 709 72.8209 725.862 450.748
804 0 72.0642 11.24 810 65.3951 725.205 521.184
805 0 76.0616 12.6608 963 62.866 725.087 518.69
806 0 78.159 10.7985 844 64.6943 725.136 519.405
807 0 81.1336 11.8816 964 63.6629 725.636 516.647
808 0 82.0959 11.9738 983 64.3662 725.068 515.025
809 0 84.2073 11.9942 1010 64.2683 725.333 514.111
810 0 85.1872 10.9289 931 65.2116 725.056 514.129
811 1 45.0535 9.49982 428 63.9463 726.266 534.154
812 0 45.027 10.5936 477 63.3417 726.606 531.839
813 0 48.0931 10.4173 501 62.6567 726.036 532.988
814 0 49.0387 12.0517 591 61.0355 725.931 532.073
815 0 48.0165 9.3093 447 65.1946 726.28 530.468
816 0 51.0345 11.9919 612 62.0131 725.997 529.73
817 0 53.1089 12.1825 647 61.6553 725.544 528.98
818 0 54.1355 12.9675 702 60.7279 724.484 527.066
819 0 54.1438 10.9338 592 62.9578 724.61 528.463
820 0 57.1968 11.7314 671 61.9806 725.526 525.626
821 0 56.089 9.55624 536 64.5989 725.983 525.504
822 0 60.1517 10.9224 657 62.0411 726.154 527.333
823 0 61.1406 11.6453 712 61.6938 725.802 524.343
824 0 63.1523 10.926 690 62.3449 725.687 524.709
825 0 64.1908 12.1669 781 61.2727 726.129 522.25
826 0 66.1723 12.271 812 61.3732 725.879 520.767
827 0 70.096 10.9136 765 62.2471 725.004 519.616
828 0 71.084 11.9999 853 61.7433 724.941 519.06
829 0 73.1915 12.1326 888 61.7128 725.109 517.793
830 0 77.1751 12.5299 967 61.1779 725.885 515.895
831 0 78.1479 12.4891 976 61.2234 725.95 518.384
832 0 82.1686 11.1843 919 62.5245 725.803 515.625
833 0 83.079 11.0979 922 62.9143 725.694 516.053
834 0 87.3071 13.1375 1147 60.5039 725.439 514.245
835 0 89.2186 13.9097 1241 60.1942 725.525 511.475
836 1 43.0475 9.84958 424 62.9198 724.922 536.031
837 0 48.0265 10.9315 525 61.9752 724.876 533.459
838 0 48.1085 11.7858 567 62.4568 725.718 530.305
839 0 47.0236 9.01676 424 66.816 725.366 531.361
840 0 51.1087 11.3484 580 63.9086 726.003 528.638
841 0 53.0373 11.03 585 63.7949 725.778 531.463
842 0 53.0942 11.9034 632 63.4842 725.72 531.354
843 0 56.0864 11.7854 661 63.5567 724.729 529.189
844 0 60.0626 12.104 727 62.8074 724.915 527.396
845 0 60.0671 12.0033 721 62.8849 726 527.78
846 0 60.0683 13.3515 802 62.0923 725.903 526.682
847 0 63.1055 12.075 762 63.6916 725.406 525.234
848 0 64.0731 13.2193 847 62.6021 725.901 522.816
849 0 66.0907 13.1183 867 62.609 725.915 523.354
850 0 69.0633 12.6985 877 62.8073 724.745 523.836
851 0 69.1901 12.3139 852 63.8392 724.345 521.268
852 0 73.0697 11.7559 859 63.0326 725.216 524.546
853 0 74.1408 12.7056 942 63.0191 726.187 520.326
854 0 76.1461 12.279 935 63.8428 725.756 519.46
855 0 80.1225 13.1174 1051 62.7165 725.539 518.794
856 0 81.0824 13.7514 1115 62.8682 725.339 516.634
857 0 82.0613 10.8699 892 66.574 725.269 515.547
858 0 86.1816 11.4642 988 66.6376 724.335 513.233
859 0 90.0958 13.53 1219 63.8589 725.574 511.364
860 0 90.1205 13.6484 1230 57.9325 724.734 513.862
861 1 48.0583 10.4457 502 68.5339 726.086 531.976
862 0 48.1053 10.4354 502 69.5319 725.474 531.028
863 0 51.0966 11.6838 597 66.7069 726.286 533.948
864 0 54.0586 11.5615 625 67.584 726.098 531.235
865 0 56.0453 13.2214 741 65.668 725.823 529.775
866 0 57.0923 12.8739 735 65.5796 725.786 530.521
867 0 57.0893 12.822 732 67.056 725.731 527.22
868 0 57.1513 12.0732 690 68.8739 725.641 526.275
869 0 60.1014 12.246 736 68.1427 726.499 526.5
870 0 61.0508 10.8434 662 70.0317 725.387 525.956
871 0 65.1149 12.0556 785 68.4115 725.344 524.783
872 0 66.0522 11.8694 784 68.935 725.005 523.693
873 0 69.1368 13.2636 917 66.3577 724.95 522.792
874 0 70.0528 12.3764 867 68.1119 725.405 521.806
875 0 72.0648 12.3361 889 68.3352 724.312 522.094
876 0 73.1011 11.9287 872 69.2099 724.646 521.071
877 0 73.0334 11.4057 833 70.4226 724.686 519.383
878 0 79.0454 13.2076 1044 67.3774 724.669 518.823
879 0 81.2572 13.1311 1067 67.6139 724.72 516.441
880 0 83.1215 13.4502 1118 67.3345 724.79 515.795
881 0 86.115 13.6562 1176 67.2704 724.551 514.952
882 0 88.0592 12.7528 1123 68.9314 724.24 513.541
883 0 92.1254 13.6661 1259 67.5314 724.847 513.108
884 0 92.1081 13.039 1201 69.4055 724.669 511.569
885 0 95.1958 12.301 1171 70.848 724.338 509.733
886 0 96.1288 12.192 1172 71.6681 725.577 505.309
887 0 101.142 12.784 1293 70.8732 725.549 506.371
888 0 104.271 13.2059 1377 69.7233 725.344 507.076
889 0 109.108 13.4454 1467 69.589 725.671 502.847
890 0 111.177 13.1502 1462 70.1293 724.951 501.722
891 0 115.217 11.6476 1342 72.497 725.768 499.741
892 1 59.0945 10.4578 618 72.5631 726.217 525.796
893 0 62.0573 11.9245 740 70.4351 726.342 523.838
894 0 63.0873 11.492 725 71.2772 726.175 523.843
895 0 67.1188 10.6677 716 72.2193 725.947 523.934
896 0 66.0857 12.2719 811 70.9605 726.51 521.583
897 0 70.1014 11.2266 787 72.2541 726.25 520.128
898 0 71.1807 12.5034 890 70.5708 725.707 521.415
899 0 70.112 9.51335 667 75.6762 725.829 518.22
900 0 73.0901 10.7675 787 73.1029 725.994 514.525
901 0 78.1294 11.4809 897 71.8261 726.165 514.87
902 0 81.1927 11.2202 911 71.8167 726.513 514.418
903 0 85.1533 12.8239 1092 68.7766 725.86 515.058
904 0 88.1819 13.6763 1206 67.8217 725.54 513.561
905 0 89.101 12.2221 1089 69.831 725.803 513.242
906 0 91.084 11.6925 1065 70.3211 725.558 511.01
907 0 94.1124 12.2194 1150 69.7017 725.284 507.625
908 0 98.2043 11.4048 1120 69.7911 725.538 509.401
909 0 99.1155 11.0376 1094 71.0393 726.306 507.819
910 0 101.052 11.3704 1149 71.0714 726.042 505.654
911 1 40.0987 10.6487 427 68.1312 726.794 534.927
912 0 40.0498 9.86272 395 68.957 726.891 535.2
913 0 41.0382 9.86885 405 69.7012 727.8 534.015
914 0 43.0282 9.31947 401 69.6584 726.998 531.197
915 0 46.0493 11.0751 510 67.2255 727.104 532.631
916 0 47.0622 11.6442 548 66.5858 726.533 531.571
917 0 49.0271 10.6268 521 67.785 726.879 532.167
918 0 49.0354 10.8697 533 68.1614 725.595 529.373
919 0 51.0905 10.8435 554 67.8375 725.462 530.509
920 0 53.1745 12.0358 640 66.1734 726.009 529.508
921 0 55.0542 10.9165 601 67.7737 725.802 528.198
922 0 57.108 11.6271 664 66.8464 725.973 528.337
923 0 58.0399 11.9056 691 66.5572 725.573 527.366
924 0 59.0598 10.2947 608 68.7368 724.938 526.01
925 0 62.0352 12.4929 775 66.2064 724.944 523.381
926 0 64.0933 11.9513 766 67.1018 725.235 523.805
927 0 65.1196 11.5326 751 67.6045 725.083 523.594
928 0 69.1072 12.676 876 66.0571 725.927 522.505
929 0 70.1779 11.3568 797 67.2823 725.274 524.289
930 0 73.0507 12.6761 926 65.7214 725.134 522.13
931 1 36.0348 9.68509 349 66.384 725.49 538.713
932 0 38.0289 11.6227 442 64.5588 725.355 537.622
933 0 37.0077 8.86301 328 67.8628 724.75 539.11
934 0 39.022 11.6601 455 65.3429 725.848 536.589
935 0 42.0299 11.9201 501 64.5649 725.531 535.293
936 0 41.0255 11.7488 482 65.7469 725.309 536.23
937 0 43.0428 10.9194 470 66.3085 725.47 535.006
938 0 44.0891 11.1819 493 66.3327 725.185 534.704
939 0 46.1195 10.5595 487 66.7864 725.335 534.924
940 0 47.0962 11.5508 544 66.4816 725.268 532.257
941 0 49.0945 11.1825 549 66.2605 724.914 532.823
942 0 49.0548 11.1304 546 66.9432 725.379 531.344
943 0 51.066 12.4936 638 65.5 725.307 529.077
944 0 53.2176 12.12 645 65.8248 724.825 528.933
945 0 53.048 11.7064 621 65.9807 724.092 530.003
946 0 56.1171 11.975 672 64.8973 725.225 528.488
947 0 57.0891 11.5784 661 65.6097 726.005 527.088
948 0 59.0985 12.2507 724 64.1008 725.622 526.345
949 0 62.0579 14.277 886 61.3036 725.914 527.09
950 0 64.1262 12.4286 797 62.877 726.721 525.493
951 0 66.1083 11.8593 784 63.5816 726.438 525.353
952 0 63.1255 10.9623 692 65.6301 726.11 525.127
953 0 66.0859 12.1962 806 64.6303 726.393 520.212
954 0 70.0771 13.1997 925 63.0984 725.866 519.343
955 0 73.0974 12.5312 916 63.4727 725.901 519.078
956 0 74.0658 11.7868 873 64.8912 724.33 517.765
957 0 76.0683 10.2145 777 67.1622 725.457 515.748
958 0 78.0872 12.3067 961 64.6139 725.354 517.631
959 0 83.0847 11.2054 931 65.1837 725.499 517.628
960 1 45.0384 10.7908 486 64.9568 725.735 533.387
961 0 44.0245 10.2443 451 65.5942 725.745 534.04
962 0 44.0693 10.7785 475 65.5979 725.756 533.747
963 0 46.0565 11.5293 531 65.1394 725.407 530.584
964 0 50.0582 13.2246 662 62.3278 726.251 530.769
965 0 49.0987 10.4891 515 67.0097 726.73 529.602
966 0 50.0112 11.5174 576 65.8229 726.703 528.382
967 0 53.0519 12.2144 648 64.0849 726.551 530.005
968 0 54.0955 11.5351 624 65.1522 725.601 528.684
969 0 56.0498 13.5237 758 63.2559 726.223 526.951
970 0 57.091 12.4888 713 64.6424 726.435 526.436
971 0 57.081 12.5786 718 65.3078 725.671 525.228
972 0 59.0841 11.7121 692 66.078 726.321 525.114
973 0 61.098 12.6191 771 65.3385 726.38 524.003
974 0 64.0452 12.0852 774 65.4432 726.724 523.943
975 0 67.0526 13.4521 902 63.6164 727.088 524.401
976 0 69.2196 13.3488 924 64.2944 726.237 521.804
977 0 71.1995 12.1911 868 65.2753 726.172 522.935
978 0 70.0635 12.8027 897 66.7001 726.524 520.028
979 0 73.0953 13.4892 986 65.7444 727.172 519.551
980 0 77.056 13.9379 1074 65.0363 726.374 518.34
981 0 79.1025 12.566 994 67.158 726.338 519.148
982 0 81.0852 12.382 1004 67.742 726.072 518.33
983 0 84.0978 13.7697 1158 66.6615 726.101 514.059
984 0 85.1528 12.6948 1081 68.6392 725.305 514.839
985 1 46.052 10.9007 502 70.4542 726.791 532.982
986 0 47.0363 11.6293 547 69.5539 725.896 532.486
987 0 49.0665 12.9824 637 67.4788 726.322 532.204
988 0 49.0729 13.5309 664 67.8464 726.146 530.914
989 0 52.0394 12.356 643 68.7854 726.205 531.367
990 0 51.0659 12.102 618 69.6828 725.712 531.985
991 0 52.1599 11.0046 574 71.9059 726.066 530.568
992 0 55.0501 12.3705 681 69.7974 725.874 531.383
993 0 56.0822 13.1593 738 70.0447 726.336 527.473
994 0 59.1392 12.9187 764 70.0314 726.048 527.554
995 0 59.0957 12.5221 740 70.9649 725.862 527.505
996 0 61.0613 13.1343 802 70.7307 725.848 525.232
997 0 64.0942 13.1993 846 69.7293 726.13 526.293
998 0 66.0978 13.0564 863 70.9954 726.233 524.958
999 0 68.104 15.1239 1030 68.934 726.145 522.703
1000 0 70.0928 14.3809 1008 69.5992 726.4 521.591
1001 0 71.183 13.1492 936 71.8408 725.662 519.562
1002 0 76.0691 14.3028 1088 70.1535 725.654 519.321
1003 0 78.0773 13.8453 1081 70.7419 726.055 518.277
1004 0 80.1591 13.2611 1063 71.8278 725.7 517.948
1005 0 80.0906 13.1476 1053 73.282 725.82 515.616
1006 0 82.1165 12.4823 1025 74.7415 725.654 513.51
1007 0 86.1457 12.8039 1103 73.6156 726.145 513.304
1008 1 42.0097 10.1643 427 74.6651 726.724 535.304
1009 0 43.097 10.4648 451 75.2129 725.818 534.45
1010 0 45.0174 11.3734 512 73.373 726.234 534.518
1011 0 46.0629 12.7869 589 72.0238 726.282 532.187
1012 0 46.0539 11.2043 516 74.4186 725.874 533.963
1013 0 48.1377 12.4435 599 72.621 725.736 529.815
1014 0 50.07 12.9219 647 71.7852 725.195 529.345
1015 0 50.1463 11.8653 595 73.5597 725.116 528.35
1016 0 51.0212 10.9954 561 74.2906 725.143 529.166
1017 0 54.0247 11.106 600 73.82 724.22 528.038
1018 0 59.0621 13.1726 778 69.9023 725.149 527.028
1019 0 60.1518 12.5516 755 70.9166 725.242 526.417
1020 0 62.0253 13.1559 816 69.1654 724.828 528.52
1021 0 65.1451 12.618 822 70.511 724.529 526.019
1022 0 66.1302 13.7305 908 69.0837 724.804 524.772
1023 0 66.2314 12.1997 808 71.7203 724.813 523.79
1024 0 69.0732 11.9004 822 71.8114 724.894 522.246
1025 0 73.0635 13.2761 970 69.199 724.801 522.667
1026 0 73.0315 11.8168 863 71.2688 724.684 522.418
1027 0 76.0868 12.2886 935 71.4674 724.077 518.742
1028 0 77.0397 12.4611 960 71.3438 724.405 518.323
1029 0 83.1108 13.8249 1149 68.8216 724.748 517.969
1030 0 84.0997 12.9132 1086 69.9668 724.216 517.774
1031 0 86.0845 12.6155 1086 71.4788 723.825 513.583
1032 1 47.0164 10.4857 493 70.3164 724.6 536.148
1033 0 46.063 12.0487 555 69.2919 724.834 534.897
1034 0 48.13 11.1365 536 70.8843 723.976 534.64
1035 0 47.0163 10.9749 516 70.7888 724.273 534.833
1036 0 52.0821 11.2707 587 69.3373 724.225 534.535
1037 0 51.0306 13.149 671 68.7064 724.726 531.049
1038 0 54.0863 12.1842 659 69.2033 724.197 532.332
1039 0 56.0277 11.3872 638 69.6113 724.691 533.4
1040 0 57.027 13.2744 757 67.3593 724.304 530.642
1041 0 58.1106 12.2869 714 68.9384 723.608 530.868
1042 0 58.0708 12.6397 734 69.2738 723.366 529.424
1043 0 61.0615 11.5457 705 71.2213 723.594 526.383
1044 0 63.1144 13.531 854 68.2611 723.692 526.1
1045 0 65.1211 12.8683 838 69.0895 722.951 525.396
1046 0 66.1109 13.4168 887 69.0068 723.796 523.135
1047 0 68.1385 12.7241 867 69.6102 723.42 525.867
1048 0 72.0761 13.5967 980 68.1908 723.712 523.216
1049 0 73.052 13.9763 1021 67.8315 723.599 524.638
1050 0 75.1613 13.6773 1028 69.18 723.084 521.715
1051 0 78.1034 12.2914 960 70.6885 723.895 523.777
1052 0 79.0453 11.2594 890 72.4449 723.338 521.318
1053 0 83.0806 13.9984 1163 69.4695 723.23 518.107
1054 0 86.0304 12.7629 1098 71.551 723.256 517.906
1055 0 89.1396 14.2361 1269 69.4421 723.152 514.899
1056 1 48.0404 12.3022 591 70.5076 723.394 535.846
1057 0 50.1204 12.6495 634 69.8296 723.893 535.311
1058 0 49.0206 12.3009 603 70.1874 724.073 536.385
1059 0 50.0788 11.8014 591 71.5042 724.252 533.706
1060 0 53.077 13.9797 742 68.3679 723.678 533.964
1061 0 54.0833 13.923 753 68.2417 724.519 534.4
1062 0 54.0507 14.0794 761 69.1603 724.56 532.903
1063 0 54.0324 10.2531 554 73.2978 724.13 534.348
1064 0 59.0276 14.3323 846 67.8593 723.749 533.018
1065 0 59.0249 12.2152 721 70.6006 724.164 534.544
1066 0 62.1191 13.2488 823 69.4921 724.281 532.024
1067 0 63.126 12.8948 814 70.731 724.253 530.009
1068 0 64.0424 12.8509 823 71.1021 723.869 528.357
1069 0 67.2129 13.6581 918 70.0632 723.608 528.227
1070 0 68.1358 10.9047 743 74.2355 724.218 527.993
1071 0 72.0917 12.5535 905 71.7271 724.337 525.28
1072 0 72.0821 12.4858 900 72.6044 725.25 524.919
1073 0 74.1873 12.8459 953 72.2991 724.391 522.612
1074 0 79.1586 14.313 1133 69.7546 724.114 523.838
1075 0 79.0373 13.2343 1046 71.3996 724.68 523.911
1076 1 42.0151 13.4714 566 70.7156 724.269 539.716
1077 0 43.1435 12.5396 541 70.7209 725.013 540.399
1078 0 46.2321 13.389 619 69.7367 724.538 538.659
1079 0 44.0489 11.7143 516 73.3488 724.688 538.266
1080 0 48.0591 13.2545 637 70.5777 725.336 537.513
1081 0 46.0399 13.0104 599 73.2988 724.638 534.893
1082 0 50.1678 12.7572 640 72.2234 724.722 535.789
1083 0 50.0529 11.8275 592 74.9307 724.539 534.983
1084 0 51.0286 11.9933 612 74.6111 724.154 534.727
1085 0 53.0344 14.4623 767 71.4355 723.707 532.923
1086 0 54.0661 12.9471 700 73.8457 724.29 532.666
1087 0 56.0815 13.2842 745 73.6765 724.058 529.436
1088 0 58.0479 12.283 713 73.871 725.079 533.3
1089 0 59.0226 12.7409 752 75.0758 725.056 529.58
1090 0 61.1697 13.2092 808 74.651 724.619 531.379
1091 0 64.0732 14.0464 900 72.8733 724.49 527.72
1092 0 66.053 14.0796 930 73.6312 723.782 528.173
1093 0 67.1123 11.8309 794 75.9181 723.542 529.17
1094 0 69.0945 12.6493 874 75.5298 723.327 525.824
1095 0 72.1444 13.6393 984 73.9461 723.691 525.285
1096 0 75.0535 13.5503 1017 73.3894 724.603 524.358
1097 0 78.058 14.2458 1112 72.8148 724.84 523.648
1098 0 80.0746 13.6997 1097 73.7438 724.242 523.049
1099 0 79.2395 14.0082 1110 73.8928 724.654 520.814
1100 0 82.124 13.3457 1096 74.5675 724.815 520.13
1101 0 87.1165 13.063 1138 74.5018 724.853 519.427
1102 1 42.0934 11.4507 482 76.0456 724.085 539.828
1103 0 45.1263 13.5398 611 73.3322 724.257 538.041
1104 0 46.0675 12.2863 566 75.1979 724.214 537.693
1105 0 47.0545 13.665 643 72.8289 724.033 537.93
1106 0 47.078 13.2546 624 74.1138 725.027 536.226
1107 0 48.0222 11.578 556 76.4838 725.531 535.284
1108 0 54.0383 12.2321 661 74.4781 725.23 535.546
1109 0 53.1006 11.9584 635 75.5402 724.517 535.378
1110 0 54.1214 11.7883 638 75.4154 724.853 533.158
1111 0 55.0648 12.5125 689 75.1219 725.267 532.575
1112 0 56.0277 11.655 653 75.4686 725.43 533.103
1113 1 121.138 14.4793 1754 74.24 724.902 501.377
1114 0 121.194 12.1128 1468 77.7384 725.192 497.853
1115 0 128.191 11.7247 1503 76.7771 724.477 501.697
1116 0 133.195 12.4178 1654 76.1814 724.038 496.63
1117 0 135.247 11.7488 1589 76.7785 724.261 496.836
1118 0 139.177 11.9129 1658 76.76 725.586 493.109
1119 0 146.169 13.8402 2023 74.5116 724.625 489.481
1120 1 71.0856 12.8859 916 73.3515 724.472 522.44
1121 0 73.0838 12.4378 909 73.2717 725.117 523.374
1122 0 76.0877 12.6827 965 72.4332 725.511 523.919
1123 0 78.057 13.0674 1020 72.7333 725.407 519.561
1124 0 79.0544 11.2707 891 75.633 725.163 516.528
1125 1 42.0144 12.2101 513 70.6374 725.604 536.784
1126 0 42.1182 11.6339 490 71.8326 725.357 536.68
1127 0 44.061 11.938 526 71.1331 726.373 535.354
1128 0 48.0335 10.9091 524 69.9447 726.168 535.952
1129 0 48.1824 12.0583 581 69.9208 725.861 533.461
1130 0 49.1064 11.7907 579 70.3195 724.748 534.176
1131 0 49.091 12.8129 629 70.0238 725.019 531.216
1132 0 51.0951 11.6254 594 71.1835 725.672 530.769
1133 0 53.0501 10.6692 566 72.3922 724.417 530.687
1134 0 57.0446 11.7277 669 70.4813 724.008 529.353
1135 0 57.0691 12.3009 702 70.4615 724.165 527.006
1136 0 60.0961 12.1805 732 70.4618 725.238 528.105
1137 0 62.0864 12.6759 787 69.6582 724.705 524.851
1138 0 63.1192 11.7555 742 71.4097 724.98 524.159
1139 0 64.0564 11.8021 756 71.4497 724.717 524.624
1140 0 68.1734 11.3241 772 71.8718 724.703 524.003
1141 0 73.0898 12.5873 920 69.4978 724.345 523.925
1142 0 74.2124 12.7337 945 69.7175 724.754 520.475
1143 0 74.1165 10.5375 781 73.2945 724.519 520.277
1144 0 78.1221 11.546 902 71.2583 724.706 518.899
1145 1 42.0483 9.96474 419 70.79 725.384 535.041
1146 0 44.0293 9.153 403 70.8784 725.283 537.089
1147 0 47.0397 11.7773 554 67.8195 725.466 533.381
1148 0 46.024 9.23432 425 71.6424 725.939 534.52
1149 0 48.0534 10.7172 515 70.4233 725.27 531.907
1150 0 49.0832 10.9814 539 70.0668 725.048 531.605
1151 0 53.0824 12.6219 670 67.2433 724.393 530.11
1152 0 51.1451 10.2063 522 70.8008 725.054 529.525
1153 0 56.0463 12.1685 682 67.7566 725.342 527.683
1154 0 58.0582 12.0396 699 67.1059 725.143 528.727
1155 0 60.122 12.3915 745 67.596 725.565 526.228
1156 0 60.099 12.0135 722 67.7396 724.652 525.781
1157 0 61.0932 11.016 673 69.8068 724.394 524.022
1158 0 65.0847 13.2597 863 66.0892 724.107 523.02
1159 0 65.1599 11.0804 722 69.2784 724.36 523.108
1160 0 69.0719 11.6835 807 68.6097 724.375 520.34
1161 0 71.0715 12.4945 888 67.6374 724.229 520.41
1162 0 72.0719 12.1961 879 68.1422 724.135 517.936
1163 0 75.0656 11.3368 851 68.7955 724.18 517.341
1164 0 76.0704 11.5682 880 68.8023 725.118 517.062
1165 0 80.1169 11.3085 906 68.9768 724.543 515.812
1166 0 83.0853 11.9155 990 68.0384 724.609 513.083
1167 1 42.057 10.8186 455 69.044 725.2 533.851
1168 0 43.0367 10.2703 442 69.871 726.104 533.106
1169 0 46.0155 10.127 466 69.6931 725.927 532.44
1170 0 48.0089 11.852 569 67.283 725.982 531.685
1171 0 48.0637 11.9009 572 67.7535 725.79 532.407
1172 0 50.0554 12.4462 623 67.2151 725.86 532.319
1173 0 53.0951 11.7902 626 66.4776 725.337 532.789
1174 0 52.0592 12.5242 652 67.2883 725.468 529.4
1175 0 53.0274 10.9566 581 68.043 724.917 532.143
1176 0 56.0919 11.5881 650 67.1308 724.942 529.349
1177 0 57.1418 12.7752 730 66.3014 725.173 526.86
1178 0 60.0494 12.3898 744 66.0497 726.207 528.735
1179 0 59.2069 12.4985 740 66.7446 725.582 526.673
1180 0 60.1432 12.2042 734 66.9332 725.7 526.605
1181 0 64.1381 12.9564 831 65.5836 725.008 526.521
1182 0 66.0714 12.3351 815 66.1693 724.942 526.082
1183 0 68.1377 12.871 877 65.2417 725.034 524.474
1184 0 70.0451 12.7204 891 65.1493 725.003 524.255
1185 0 72.1244 12.5339 904 65.8927 725.435 519.183
1186 0 75.095 12.4109 932 65.0483 725.843 522.116
1187 0 77.1246 12.0065 926 65.6242 725.488 519.59
1188 0 77.1064 11.8537 914 66.5372 725.581 518.057
1189 0 81.1265 11.4636 930 67.1978 724.917 516.644
1190 0 84.0803 13.1898 1109 65.248 725.444 514.231
1191 0 85.1243 10.5023 894 68.5973 724.892 513.438
1192 0 87.0852 11.7586 1024 67.3809 725.096 513.316
1193 1 48.2297 11.3416 547 66.7038 726.346 531.468
1194 0 48.1312 11.1154 535 67.6916 726.617 531.538
1195 0 51.1606 11.9428 611 66.4043 726.108 529.257
1196 0 54.1373 12.3944 671 65.3279 725.756 529.371
1197 0 54.0238 12.7536 689 65.5327 725.575 529.283
1198 0 55.0636 11.8227 651 66.3118 725.591 529.063
1199 0 57.0776 12.229 698 66.4685 724.997 526.529
1200 0 59.1462 12.0042 710 66.5634 724.745 525.67
1201 0 61.1421 11.5632 707 67.1075 725.588 525.786
1202 0 64.1606 12.157 780 65.8987 725.528 524.896
1203 0 64.1641 11.3771 730 67.226 725.545 525.416
1204 0 69.1596 12.7531 882 65.2812 725.222 523.618
1205 0 66.0468 12.9151 853 66.4338 725.142 520.135
1206 0 68.0827 11.207 763 68.8493 725.408 520.233
1207 0 74.0958 12.1869 903 66.7719 724.515 520.019
1208 0 76.1933 13.4133 1022 66.0675 725.121 517.112
1209 0 77.098 11.3751 877 68.8985 725.619 516.397
1210 1 43.0678 10.4022 448 67.0915 725.971 536.491
1211 0 41.0124 9.16797 376 68.016 725.572 538.229
1212 0 43.0155 10.9263 470 68.0298 725.366 534.577
1213 0 46.0363 12.1643 560 66.6411 724.855 534.489
1214 0 48.0388 11.0952 533 67.2833 725.289 535.049
1215 0 49.055 11.1711 548 68.2628 724.781 531.982
1216 0 49.0663 10.9851 539 68.9981 725.818 531.62
1217 0 50.0355 11.4519 573 68.534 725.529 529.209
1218 0 51.1118 9.37162 479 71.4718 725.881 530.537
1219 0 53.2199 11.0673 589 69.034 726.059 530.446
1220 0 54.2038 10.8664 589 69.9202 726.404 527.608
1221 0 58.1718 12.2052 710 67.6113 726.041 526.59
1222 0 55.0471 10.3366 569 71.167 725.935 524.337
1223 0 62.0415 11.8469 735 67.7701 726.604 526.182
1224 0 61.083 10.7559 657 70.4764 725.74 523.619
1225 0 65.0954 12.3665 805 66.7044 726.195 525.528
1226 0 68.1771 12.4235 847 67.2385 726.241 521.823
1227 0 67.0841 9.28684 623 71.4045 726.406 521.186
1228 0 69.1312 9.77851 676 71.1154 726.139 518.232
1229 0 75.128 12.5386 942 65.8822 726.028 520.607
1230 0 75.088 11.4266 858 68.5606 725.923 515.358
1231 0 79.1683 12.6187 999 66.6627 726.219 515.056
1232 0 83.1216 12.4877 1038 66.3468 725.694 517.502
1233 0 86.1666 14.2747 1230 64.0528 726.059 513.631
1234 1 45.0884 10.0248 452 66.8894 726.838 532.487
1235 0 44.0835 9.59543 423 68.9551 725.868 531.007
1236 0 46.0444 9.70801 447 68.7629 726.673 531.953
1237 0 52.0643 11.6202 605 65.5339 725.688 531.111
1238 0 51.0905 12.0766 617 64.128 725.687 532.681
1239 0 52.2333 10.8168 565 66.3734 725.846 529.432
1240 0 53.0693 10.4015 552 67.25 725.928 527.553
1241 0 54.1101 12.567 680 64.3912 725.776 528.444
1242 0 57.0828 12.1052 691 64.5818 725.32 526.396
1243 0 59.0332 11.6206 686 64.9898 725.895 523.353
1244 0 61.1461 12.2657 750 64.0707 726.009 523.875
1245 0 61.0756 12.591 769 63.7334 726.225 521.714
1246 0 64.117 13.5222 867 62.1603 726.543 521.466
1247 0 65.0656 11.3117 736 65.3995 726.211 521.842
1248 0 67.1386 12.72 854 63.7682 726.386 520.13
1249 0 71.2152 12.4692 888 63.7432 726.136 520.428
1250 0 70.0953 11.2133 786 65.9148 726.286 518.262
1251 0 76.096 12.5894 958 63.5438 726.139 517.728
1252 0 77.1766 11.0526 853 65.2884 726.434 518.242
1253 0 77.0254 12.1389 935 64.4128 726.424 517.006
1254 0 81.0762 10.8663 881 65.5914 726.016 517.664
1255 1 41.0442 10.8176 444 63.9392 725.867 535.471
1256 0 43.0455 9.87327 425 65.6165 725.682 533.193
1257 0 44.06 11.2574 496 63.4194 725.292 535.615
1258 0 46.0365 9.57935 441 65.7302 725.59 533.753
1259 0 48.1415 10.4899 505 64.6218 726.194 532.768
1260 0 49.0427 10.4603 513 64.768 727.177 531.152
1261 0 50.0897 11.0202 552 64.7899 726.645 530.58
1262 0 52.0715 11.4266 595 64.4471 726.151 528.498
1263 0 52.1915 10.7489 561 65.4866 725.724 528.152
1264 0 55.0619 10.6426 586 65.3754 725.55 528.526
1265 0 56.0847 11.7679 660 64.3303 724.406 528.148
1266 0 58.1071 11.6853 679 64.4065 725.99 526.43
1267 0 59.1428 11.058 654 65.5658 725.674 525.79
1268 0 62.1311 11.2987 702 65.4872 725.449 524.766
1269 0 65.0749 12.0169 782 64.1125 726.132 524.698
1270 0 65.185 10.3551 675 66.3852 724.782 524.683
1271 0 66.0798 13.9377 921 62.6602 724.651 520.782
1272 0 70.121 13.4197 941 62.1605 724.887 522.843
1273 0 71.1391 12.0328 856 64 724.285 523.901
1274 0 73.0733 12.4122 907 64.1158 724.462 519.837
1275 0 75.048 11.939 896 64.9754 723.791 519.977
1276 0 78.1969 11.9186 932 65.1041 724.394 519.656
1277 0 79.1671 11.8105 935 65.9241 724.658 517.142
1278 0 80.2033 11.8324 949 66.3404 726.341 516.426
1279 0 86.0831 12.7087 1094 65.16 726.03 514.324
1280 1 45.055 9.65486 435 66.2552 726.687 534.588
1281 0 45.1003 10.1773 459 66.2396 726.575 535.767
1282 0 46.07 12.0252 554 65.2292 725.94 533.543
1283 0 50.0866 12.3586 619 64.294 726.322 531.777
1284 0 51.0259 11.7195 598 65.6672 725.712 529.456
1285 0 53.0977 12.7312 676 63.8595 726.087 531.225
1286 0 53.0769 12.0391 639 65.7136 725.609 531.078
1287 0 55.1067 12.2853 677 65.0827 725.346 529.111
1288 0 55.0618 10.9695 604 67.0795 725.967 529.225
1289 0 58.1358 11.9032 692 65.7731 725.59 529.962
1290 0 59.0507 12.0405 711 66.0591 724.896 526.298
1291 0 63.2136 12.7188 804 64.6269 725.001 525.305
1292 0 64.1238 10.8072 693 67.5483 725.857 524.684
1293 0 67.1625 11.7327 788 65.6041 725.699 522.994
1294 0 68.1144 12.9194 880 64.0761 726.019 523.775
1295 0 70.0744 12.815 898 64.0312 725.708 523.888
1296 0 73.0813 11.713 856 65.5876 724.667 521.243
1297 0 74.0953 10.9993 815 66.4429 726.472 517.24
1298 0 77.1072 11.0885 855 65.793 725.647 521.297
1299 1 40.032 11.5408 462 63.1212 725.918 536.411
1300 0 39.0362 10.1444 396 64.8712 725.871 538.048
1301 0 42.0471 10.9639 461 63.7592 726.056 537.393
1302 0 46.0465 12.8783 593 61.6661 726.143 534.511
1303 0 46.057 11.8332 545 64.4771 726.222 533.002
1304 0 47.0726 11.4716 540 63.587 726.285 535.283
1305 0 49.1278 11.3785 559 64.1771 726.707 531.598
1306 0 50.1194 10.9538 549 64.2659 726.368 529.8
1307 0 50.0912 12.6968 636 63.4607 725.871 529.848
1308 0 52.0829 13.5169 704 62.2742 726.293 529.058
1309 0 54.03 11.142 602 64.0465 726.719 531.252
1310 0 57.0765 11.9664 683 63.0307 726.228 528.157
1311 0 58.0984 12.9952 755 61.9113 725.77 526.448
1312 0 58.0754 12.1738 707 63.4837 726.587 526.83
1313 0 62.1469 10.8775 676 64.3284 725.885 526.919
1314 0 63.0981 11.3633 717 63.7573 725.805 526.764
1315 0 64.1245 12.1171 777 63.0798 725.713 524.21
1316 0 68.0473 12.7558 868 62.0415 725.607 525.384
1317 0 69.0881 11.1597 771 63.7951 726.163 523.741
1318 0 71.1224 13.5682 965 61.3399 725.266 519.202
1319 0 73.26 12.6809 929 62.0118 725.094 521.05
1320 1 37.0274 9.66852 358 64.2486 725.642 537.983
1321 0 40.0319 10.8414 434 62.6912 725.357 536.892
1322 0 42.0525 12.2466 515 61.2 726.284 536.198
1323 0 43.0816 11.7219 505 62.0238 725.743 535.386
1324 0 42.136 8.70989 367 65.8202 725.869 535.507
1325 0 45.0312 11.9029 536 62.2743 725.841 534.131
1326 0 46.1214 12.3153 568 62.0035 725.081 532.407
1327 0 47.0951 10.001 471 64.0318 725.176 531.851
1328 0 48.0911 11.0623 532 62.9887 725.462 533.397
1329 0 52.0895 13.304 693 60.254 725.708 531.668
1330 0 53.1167 11.3524 603 62.3201 726.131 529.755
1331 0 54.1246 11.2333 608 62.5066 725.785 529.656
1332 0 53.033 11.3703 603 63.5622 725.597 529.096
1333 0 55.0538 12.0428 663 62.3258 726.098 529.014
1334 0 59.126 12.9385 765 61.4928 725.758 526.39
1335 0 59.0629 10.1079 597 65.0335 726.621 526.543
1336 0 63.1999 14.1772 896 60.0681 725.323 526.768
1337 0 64.0498 13.9735 895 60.3274 725.913 522.983
1338 0 67.0717 12.9712 870 61.0609 725.824 522.015
1339 0 68.0644 10.8868 741 63.5128 724.976 522.026
1340 0 70.0903 12.812 898 61.7405 725.594 524.384
1341 0 72.0622 12.5447 904 62.3606 725.825 520.573
1342 0 75.0669 12.682 952 62.2605 725.014 520.757
1343 0 75.0767 12.1476 912 63.4496 725.962 519.052
1344 1 39.0339 10.8624 424 64.3326 725.592 538.021
1345 0 45.0454 11.9657 539 61.9388 726.21 536.839
1346 0 45.0252 11.7934 531 63.5631 725.61 535.663
1347 0 48.068 12.8776 619 61.7334 725.603 535.656
1348 0 50.0467 13.7072 686 60.7974 725.656 534.245
1349 0 50.0509 12.9069 646 62.0774 726.071 533.573
1350 0 50.0703 12.3027 616 63.6623 725.162 532.557
1351 0 54.0964 12.8474 695 62.2504 724.974 531.181
1352 0 55.2615 12.8661 711 62.4402 724.928 529.017
1353 0 56.2149 11.8296 665 63.1955 725.699 530.135
1354 0 56.1089 10.7826 605 65.1339 725.967 529.26
1355 0 57.0192 13.0482 744 62.8105 725.387 529.551
1356 0 62.1245 13.7949 857 60.4796 725.391 528.254
1357 0 62.0259 11.2534 698 64.4957 724.918 527.072
1358 0 66.0199 12.2539 809 62.335 725.028 526.78
1359 0 69.1479 13.3771 925 60.8886 725.092 524.428
1360 0 70.2155 11.9062 836 62.7536 725.063 523.051
1361 0 72.0873 12.582 907 62.2668 725.248 519.948
1362 0 74.0517 12.5723 931 62.2932 724.742 519.822
1363 0 74.2376 10.8974 809 63.4326 725.677 521.943
1364 0 79.1029 12.4395 984 61.7815 724.997 518.75
1365 0 83.1392 13.4233 1116 60.129 724.967 518.028
1366 1 41.16 10.933 450 61.42 725.778 537.151
1367 0 44.0544 11.622 512 61.1348 725.654 535.221
1368 0 45.0434 11.944 538 60.5539 725.775 534.18
1369 0 46.0842 10.8063 498 61.6566 725.556 533.699
1370 0 51.0243 11.7983 602 60.309 724.618 533.347
1371 0 50.0359 10.1927 510 62.6039 724.935 531.531
1372 0 51.2225 11.9284 611 61.0671 725.63 531.774
1373 0 52.0928 10.2701 535 62.5327 725.546 530.557
1374 0 53.0376 14.1409 750 58.448 726.136 529.329
1375 0 58.1566 13.1713 766 58.9478 726.136 529.965
1376 0 59.0671 13.036 770 59.3727 725.291 526.078
1377 0 62.0946 11.8368 735 60.4626 724.827 526.336
1378 0 62.1022 13.1235 815 59.5485 725.514 524.632
1379 0 65.1295 13.9107 906 44.8411 724.919 528.733
1380 0 65.1174 11.3334 738 61.6314 725.329 523.866
1381 0 66.1139 10.739 710 62.1197 725.656 524.768
1382 0 69.0469 11.3546 784 62.0217 725.804 521.675
1383 0 72.185 11.7476 848 61.1851 725.731 521.807
1384 0 75.1701 11.7467 883 60.9309 725.802 520.193
1385 0 76.0725 11.5942 882 61.6746 725.151 520.296
1386 0 80.1292 12.3675 991 60.4016 726.278 515.285
1387 0 83.0797 11.0617 919 61.3395 725.445 518.082
1388 1 42.0612 11.3644 478 60.1695 726.199 538.902
1389 0 44.0338 10.1059 445 61.9011 726.658 535.996
1390 0 46.0694 13.0021 599 59.1636 726.235 533.684
1391 0 50.0909 12.4773 625 58.696 725.95 535.118
1392 0 50.0713 12.1826 610 59.8279 724.752 532.631
1393 0 50.0853 11.8997 596 60.3809 725.376 532.436
1394 0 52.0245 11.2255 584 61.0377 725.241 530.142
1395 0 56.0313 11.9219 668 59.3443 725.954 531.834
1396 0 57.1349 11.6041 663 60.2881 726.293 529.127
1397 0 57.0459 11.9027 679 60.0692 726.566 530.239
1398 0 61.0612 12.2828 750 58.996 726.441 530.488
1399 0 62.0963 12.6739 787 59.5426 725.569 525.342
1400 0 64.1817 11.67 749 60.8825 725.797 526.489
1401 0 68.1823 12.2172 833 59.8595 725.654 525.779
1402 0 68.1481 13.0598 890 59.6775 726.671 522.176
1403 0 70.0253 13.1095 918 59.939 726.199 520.837
1404 0 75.0976 13.6888 1028 58.5866 726.855 521.578
1405 0 75.1569 12.6668 952 60.5998 726.34 518.972
1406 1 38.0509 10.8802 414 60.5797 725.717 538.659
1407 0 40.0735 10.1314 406 61.633 725.749 538.628
1408 0 41.0417 10.6233 436 60.8372 725.294 538.562
1409 0 42.1272 12.2723 517 59.8124 725.689 535.329
1410 0 44.1134 11.4251 504 60.9464 726.143 534.367
1411 0 47.0724 11.3867 536 60.3563 727.7 536.946
1412 0 46.1017 12.1471 560 60.9125 726.595 535.729
1413 0 49.1572 12.043 592 60.9932 726.318 533.649
1414 0 49.1398 13.2886 653 60.4778 726.22 531.969
1415 0 51.1126 10.4671 535 63.3626 726.322 534.419
1416 0 52.0873 10.54 549 51.6029 725.643 533.362
1417 0 54.161 12.389 671 61.0119 726.282 531.744
1418 0 57.3074 13.2444 759 59.8248 725.766 531.348
1419 0 57.1753 12.3305 705 61.0369 725.956 529.516
1420 0 62.1383 12.5848 782 60.2174 726.402 528.871
1421 0 62.1655 13.1423 817 60.0918 726.097 528.894
1422 0 63.1328 12.7984 808 61.3032 726.602 526.271
1423 0 66.1429 13.0929 866 60.7217 726.916 525.113
1424 0 66.0508 12.127 801 62.6142 726.037 523.694
1425 0 68.1713 10.5323 718 64.2326 725.925 524.496
1426 0 71.2299 13.8706 988 60.6073 726.243 522.194
1427 0 74.1477 13.2573 983 61.175 726.609 523.258
1428 0 75.1191 11.6881 878 63.4624 726.437 520.145
1429 0 78.1329 13.0291 1018 61.9862 726.468 518.072
1430 0 81.1188 13.3385 1082 61.6701 726.653 517.043
1431 0 84.0757 11.4896 966 63.5518 726.541 519.503
1432 0 88.1778 12.9625 1143 61.9869 726.395 516.057
1433 0 89.1052 12.7602 1137 63.248 725.964 513.409
1434 0 92.1767 13.268 1223 62.731 726.048 512.233
1435 1 47.09 11.2975 532 63.2331 726.274 536.216
1436 0 48.0968 11.3937 548 63.3723 726.148 534.901
1437 0 49.2111 12.4565 613 61.3442 726.781 535.338
1438 0 51.1893 12.6394 647 60.8006 726.705 534.144
1439 0 52.1414 10.7017 558 62.7939 726.461 534.493
1440 0 54.0794 11.9084 644 61.8711 726.318 530.571
1441 0 54.1238 11.5476 625 62.6704 725.67 530.976
1442 0 58.0219 11.151 647 62.4019 725.649 531.151
1443 0 61.0875 13.2433 809 59.471 725.661 529.456
1444 0 63.1334 12.0697 762 60.7598 725.242 529.155
1445 0 62.1791 11.5634 719 62.0167 725.56 526.164
1446 0 65.0914 13.8421 901 58.8535 726.102 527.181
1447 0 65.0941 12.3667 805 61.4149 726.46 525.12
1448 0 67.0516 11.4986 771 62.4306 726.274 524.764
1449 0 70.0775 11.9439 837 62.5842 726.34 521.411
1450 0 73.0686 11.5918 847 62.804 726.045 521.576
1451 0 74.1266 10.5495 782 64.2033 727.304 521.434
1452 0 76.1047 11.0243 839 63.522 725.759 521.689
1453 0 79.0891 11.8853 940 63.3266 725.436 517.18
1454 0 80.0988 10.5869 848 64.842 724.271 518.275
1455 1 44.0222 11.267 496 63.1653 725.314 535.411
1456 0 48.2079 10.6414 513 62.4912 725.522 537.265
1457 0 47.0898 11.5736 545 63.1284 725.578 535.416
1458 0 49.1131 13.4994 663 60.9397 725.374 533.916
1459 0 50.0413 11.4306 572 64.0018 724.872 533.437
1460 0 50.13 11.53 578 63.9706 725.573 531.479
1461 0 53.0534 12.233 649 63.1525 725.576 530.755
1462 0 56.0641 11.6295 652 63.8129 725.618 529.115
1463 0 57.1452 12.3195 704 63.8508 725.146 528.271
1464 0 57.1673 11.7725 673 65.0565 725.391 529.603
1465 0 60.1997 12.525 754 63.1008 726.351 530.761
1466 0 62.2655 11.9328 743 63.9973 725.743 530.378
1467 0 64.0609 12.5818 806 64.3226 726.215 525.134
1468 0 68.0512 13.578 924 62.2424 725.902 526.035
1469 0 69.1572 13.0861 905 63.421 725.639 525.635
1470 0 72.1984 12.1748 879 64.5472 725.116 525.129
1471 0 74.0894 13.8481 1026 62.9688 725.855 522.861
1472 0 75.1136 12.5676 944 65.5943 725.922 520.551
1473 0 78.1265 11.8526 926 66.0432 725.68 521.188
1474 0 80.2833 12.6552 1016 65.8258 725.865 518.372
1475 0 84.0854 12.1543 1022 66.6429 725.317 518.537
1476 1 42.1871 9.88454 417 69.5875 725.156 539.947
1477 0 45.084 12.4213 560 66.7321 724.861 537.843
1478 0 47.0338 11.6299 547 67.7824 725.395 538.112
1479 0 48.089 13.0175 626 66.7444 725.759 535.96
1480 0 49.0864 12.0604 592 68.6385 725.042 535.304
1481 0 51.0705 12.9037 659 67.8771 725.524 535.153
1482 0 51.0816 12.3332 630 68.8508 725.127 533.23
1483 0 53.1146 12.8213 681 68.4626 724.521 532.297
1484 0 53.1193 12.7825 679 68.7997 725.705 532.211
1485 0 57.0895 12.9621 740 68.0419 725.377 532.776
1486 0 59.1237 12.8882 762 68.689 725.446 530.782
1487 0 59.0773 12.1536 718 70.0543 724.95 528.482
1488 0 64.0643 13.5801 870 67.7391 725.855 527.946
1489 0 65.0945 12.0594 785 70.4153 725.543 525.978
1490 0 68.2443 13.8766 947 67.1531 725.909 526.251
1491 0 71.2236 13.8437 986 67.5193 724.728 524.853
1492 0 73.2672 13.1846 966 68.0901 724.745 526.018
1493 0 72.1092 11.2884 814 71.9054 723.888 522.338
1494 0 80.3391 13.0447 1048 68.5611 723.712 522.084
1495 0 82.2146 13.7567 1131 67.6118 724.035 521.475
1496 1 42.1626 12.8076 540 68.8148 724.748 538.15
1497 0 42.1754 13.0171 549 68.7268 724.982 537.805
1498 0 45.1462 12.6921 573 69.4468 724.572 536.122
1499 0 46.0359 12.512 576 69.5104 725.458 538.071
1500 0 47.0623 12.8341 604 70.1109 725.435 535.318
1501 0 49.0387 12.378 607 69.972 725.654 536.521
1502 0 51.0641 13.1012 669 69.2556 725.495 534.138
1503 0 52.0322 11.5698 602 70.4003 725.332 535.955
1504 0 54.0542 11.655 630 70.4143 725.175 534.729
1505 0 57.1115 13.2898 759 68.0711 724.966 531.794
1506 0 58.1294 13.6764 795 67.2616 724.965 531.972
1507 0 60.0546 12.5885 756 68.7659 724.71 532.325
1508 0 59.0536 13.0221 769 69.6554 724.124 529.568
1509 0 62.0485 14.1986 881 67.3541 725.243 527.541
1510 0 65.0966 13.841 901 68.4739 724.654 525.885
1511 0 65.0901 13.4429 875 69.0457 724.865 525.371
1512 0 67.238 12.716 855 69.8386 725.44 523.616
1513 0 71.0574 12.131 862 69.9188 725.099 523.774
1514 0 74.0722 14.5129 1075 66.2912 724.942 524.897
1515 0 77.0919 13.9055 1072 67.7537 725.121 521.06
1516 0 78.2423 14.0206 1097 68.1048 725.14 518.777
1517 0 79.1097 12.5522 993 70.3857 725.541 521.383
1518 1 44.1233 13.145 580 69.8259 725.452 536.791
1519 0 45.0501 14.8279 668 68.271 725.407 535
1520 0 45.1554 12.0694 545 72.444 724.73 533.839
1521 0 50.1602 14.8524 745 67.9423 724.396 533.736
1522 0 49.1881 13.2552 652 70.7178 725.169 533.673
1523 0 49.0776 14.2835 701 70.3609 724.392 530.131
1524 0 53.0999 15.0471 799 67.9462 724.996 531.263
1525 0 54.1056 15.3589 831 67.5788 723.981 530.742
1526 0 55.2531 13.411 741 70.17 725.409 529.351
1527 0 56.1275 12.5072 702 70.698 725.111 530.175
1528 0 60.065 12.9193 776 69.7938 725.711 526.692
1529 0 61.0905 13.6846 836 68.2452 725.429 528.237
1530 0 62.0674 12.0675 749 71.0534 724.878 525.716
1531 0 65.0635 13.6328 887 68.8534 724.977 525.149
1532 0 67.1391 13.2561 890 69.8584 724.884 523.413
1533 0 69.2061 13.2936 920 68.8641 725.409 522.785
1534 0 72.0621 13.3496 962 68.896 725.188 523.641
1535 0 75.0896 13.2375 994 68.5191 724.422 523.72
1536 0 77.1247 12.7586 984 69.6067 724.846 522.692
1537 0 79.0868 14.0226 1109 68.3156 724.939 521.167
1538 0 79.0664 13.242 1047 70.5702 725.18 518.185
1539 0 86.1287 15.4885 1334 66.6229 725.33 516.801
1540 0 88.0998 14.109 1243 68.3636 725.005 516.94
1541 1 44.109 13.1266 579 69.506 725.111 536.093
1542 0 42.0369 12.8458 540 72.3667 723.968 534.032
1543 0 43.0882 11.8362 510 73.7569 725.047 535.327
1544 0 47.0929 12.7832 602 71.9784 724.922 535.151
1545 0 49.0694 14.3878 706 69.5071 724.647 532.67
1546 0 50.0433 13.4883 675 70.9793 726.098 531.387
1547 0 49.0686 13.0633 641 72.2605 725.376 528.708
1548 0 56.0471 14.5057 813 68.1451 724.711 529.888
1549 0 57.056 14.3719 820 68.4183 724.902 530.424
1550 0 57.1105 15.2336 870 67.731 725.424 527.953
1551 0 62.0721 15.192 943 66.7572 724.585 528.34
1552 0 62.2122 14.3862 895 68.781 724.81 526.52
1553 0 64.0717 14.952 958 67.6399 724.976 525.712
1554 0 68.0608 14.3107 974 68.0585 725.142 525.724
1555 0 67.1279 13.4221 901 69.6315 724.559 523.423
1556 0 71.076 14.0976 1002 68.3792 724.632 523.355
1557 0 73.0925 13.394 979 69.7865 723.938 523.546
1558 0 77.095 13.8012 1064 68.5808 723.858 521.692
1559 0 78.1667 14.4819 1132 68.3887 723.938 519.481
1560 0 83.1735 15.8103 1315 66.0106 724.536 518.759
1561 0 85.1248 14.884 1267 67.4088 724.45 517.901
1562 0 88.1245 14.9902 1321 67.0984 724.621 516.847
1563 0 91.1571 13.9101 1268 68.5623 724.558 515.732
1564 0 94.2146 13.9575 1315 68.9658 724.644 514.301
1565 0 97.094 15.3254 1488 67.4247 724.167 512.317
1566 1 49.0918 12.3238 605 70.4909 724.693 536.045
1567 0 49.0368 10.9102 535 72.5047 724.89 534.964
1568 0 50.1023 13.4924 676 70.1036 724.558 532.913
1569 0 53.1218 13.1584 699 69.5222 724.614 532.95
1570 0 54.0664 14.2047 768 68.5169 724.086 530.54
1571 0 55.1345 15.0722 831 67.0132 723.975 532.667
1572 0 58.1232 13.7811 801 68.2909 724.474 530.38
1573 0 61.03 14.7632 901 67.0466 724.748 528.584
1574 0 61.0508 14.7091 898 67.471 724.271 528.323
1575 0 66.1111 14.6572 969 66.1765 723.723 528.144
1576 0 66.0413 14.4758 956 67.3138 724.319 525.187
1577 0 70.1107 14.3202 1004 66.7988 724.309 526.093
1578 0 71.0906 14.3338 1019 67.6899 724.446 524.446
1579 0 73.0725 14.5609 1064 67.6955 724.468 523.76
1580 0 76.2785 14.1062 1076 67.5809 723.669 523.358
1581 0 79.118 14.8512 1175 67.4953 724.053 519.521
1582 0 80.143 14.9358 1197 67.3526 723.982 521.9
1583 0 85.0874 14.2207 1210 68.7 724.411 516.104
1584 0 86.1444 13.5702 1169 70.0325 723.432 516.226
1585 0 89.1448 13.6856 1220 70.0926 723.149 513.899
1586 0 94.0853 14.0298 1320 68.7121 724.4 513.677
1587 0 95.2518 14.152 1348 69.2025 724.606 512.196
1588 0 99.1614 14.6831 1456 68.3152 724.272 511.337
1589 1 52.1043 12.878 671 69.2459 724.015 534.447
1590 0 51.1081 12.6007 644 70.5062 724.443 533.126
1591 0 55.1969 15.6712 865 66.9017 724.629 531.298
1592 0 57.0739 15.2609 871 67.3708 724.139 530.476
1593 0 60.336 14.9993 905 67.3547 725.133 529.955
1594 0 59.1273 14.3419 848 69.6722 724.331 527.936
1595 0 63.2158 15.1386 957 68.1108 724.345 526.622
1596 0 64.1209 14.2387 913 69.4984 723.843 526.175
1597 0 66.1239 13.5201 894 70.3524 723.41 525.218
1598 0 70.1292 13.689 960 69.9312 723.005 525.57
1599 0 70.0691 14.6712 1028 69.8035 722.485 522.646
1600 0 73.0416 13.8825 1014 70.8649 722.931 520.737
1601 0 77.2408 14.1117 1090 70.1706 724.059 520.872
1602 0 79.1939 13.0692 1035 71.4145 723.75 521.268
1603 0 82.1548 14.1197 1160 69.7569 724.11 520.816
1604 1 43.0345 13.6867 589 67.9389 724.025 538.589
1605 0 45.0319 14.0567 633 68.0616 723.882 539.916
1606 0 42.2136 13.9765 590 70.7186 725.292 537.542
1607 0 42.1005 12.9452 545 72.811 724.807 536.297
1608 0 48.15 13.9772 673 69.2734 724.831 535.857
1609 0 49.2025 13.6782 673 69.7756 724.918 535.284
1610 0 50.1079 14.2293 713 68.9271 724.909 535.297
1611 0 51.2412 13.7389 704 69.8494 725.645 531.77
1612 0 54.0807 12.7217 688 69.7413 725.424 534.513
1613 0 57.0823 13.5944 776 68.7693 724.869 531.308
1614 0 58.1211 13.8332 804 68.1505 724.558 530.711
1615 0 58.0474 12.6793 736 69.3438 725.068 530.231
1616 0 60.3069 13.9619 842 67.6829 724.249 529.57
1617 0 65.1748 14.1006 919 67.296 724.473 528.616
1618 0 65.0625 14.2478 927 68.0313 724.817 526.336
1619 0 66.0479 12.4152 820 70.3659 724.75 524.921
1620 0 69.0764 13.5357 935 68.3241 724.927 525.468
1621 0 71.0988 12.7147 904 69.2987 724.171 524.246
1622 0 74.1981 14.1917 1053 68.0532 725.346 519.83
1623 0 75.1496 13.0406 980 70.1429 724.944 519.155
1624 0 81.192 14.4226 1171 66.9991 724.862 518.761
1625 1 42.0443 11.9636 503 68.8887 724.499 536.519
1626 0 41.0259 12.4312 510 69.2059 725.763 536.612
1627 0 44.2387 13.9245 616 67.0373 724.877 534.701
1628 0 45.2847 12.3441 559 69.5957 725.331 533.787
1629 0 43.1558 11.0993 479 72.3194 724.353 531.501
1630 0 48.0395 13.2183 635 68.3654 724.398 533.246
1631 0 50.0409 12.1101 606 70.1848 724.294 531.031
1632 0 53.1439 13.2847 706 68.6034 723.727 531.02
1633 0 55.0622 12.9671 714 69.0574 724.148 530.695
1634 0 54.0994 11.4604 620 72.0323 723.874 530.066
1635 0 58.0516 13.1952 766 69.299 724.505 528.025
1636 0 59.1108 12.1467 718 70.9972 724.713 526.354
1637 0 61.0733 14.1797 866 68.8048 724.09 526.221
1638 0 62.0923 13.1739 818 70.7127 725.249 527.174
1639 0 66.0632 14.1683 936 68.8814 724.95 525.967
1640 0 68.0569 14.0765 958 69.5564 724.837 522.634
1641 0 70.1318 14.3729 1008 69.0427 725.319 523.201
1642 0 70.1204 12.8921 904 72.1692 724.927 523.716
1643 0 73.0504 12.3066 899 73.4905 724.689 521.402
1644 0 77.0423 14.3038 1102 70.5581 724.652 521.044
1645 0 80.332 13.3446 1072 71.834 724.919 519.608
1646 1 42.1933 12.6797 535 72.2523 725.43 536.264
1647 0 42.0204 13.3745 562 72.4502 725.224 536.041
1648 0 45.0591 11.8067 532 73.6128 725.235 536.835
1649 0 46.0332 13.4251 618 72.7362 725.05 535.11
1650 0 46.0113 12.7795 588 74.3418 725.99 534.43
1651 0 50.0936 13.335 668 73.1811 726.008 534.201
1652 0 50.118 13.7675 690 73.3739 724.936 533.796
1653 0 52.0578 13.0624 680 74.5662 723.763 532.981
1654 0 53.1975 13.4029 713 74.9481 723.854 531.147
1655 0 55.063 12.0952 666 77.018 724.002 530.21
1656 0 56.2109 12.0439 677 76.6588 724.301 530.151
1657 0 59.1553 13.0673 773 75.5071 724.351 528.732
1658 0 62.0899 14.624 908 74.0826 724.931 528.498
1659 0 63.2658 14.447 914 73.8796 724.825 527.621
1660 0 65.2047 13.8794 905 75.4011 725.182 525.077
1661 0 65.0567 13.6189 886 75.8476 724.527 524.845
1662 0 71.0786 14.7302 1047 73.1184 724.711 523.418
1663 0 70.1514 13.029 914 77.0974 724.467 521.86
1664 0 74.2362 14.2249 1056 74.7746 724.55 520.89
1665 0 77.0992 14.851 1145 73.5624 723.482 520.643
1666 0 81.1923 14.2132 1154 75.3345 724.571 517.503
1667 0 80.0608 13.2774 1063 77.825 724.564 517.985
1668 0 84.0766 13.2022 1110 77.5514 725.264 516.35
1669 0 88.0871 14.3608 1265 75.1241 724.56 516.21
1670 0 90.1655 13.9078 1254 76.3931 724.655 514.794
1671 0 93.0689 14.731 1371 75.2072 723.751 511.793
1672 1 50.1129 11.7535 589 76.1154 724.526 535.278
1673 0 52.0409 13.0282 678 75.5929 724.665 532.658
1674 0 52.0872 12.3831 645 77.1736 723.927 532.602
1675 0 55.1331 14.4922 799 73.2741 724.461 533.534
1676 0 55.1023 13.6473 752 75.3763 724.207 531.653
1677 0 57.0837 13.8919 793 74.4691 725.217 530.62
1678 0 59.0656 13.5781 802 74.2893 725.188 528.152
1679 0 61.059 12.5616 767 75.867 725.428 527.587
1680 0 65.1499 13.3538 870 73.9713 724.829 526.495
1681 0 66.1112 12.6605 837 74.9056 723.956 524.656
1682 0 67.0889 12.5207 840 75.119 723.587 524.802
1683 0 70.1498 14.1126 990 72.6434 724.166 521.74
1684 0 70.1522 13.2711 931 73.4801 724.068 522.229
1685 0 73.1425 13.7676 1007 73.5879 723.597 519.123
1686 0 78.1832 12.4323 972 72.894 724.313 520.694
1687 0 81.1299 14.5446 1180 70.7008 724.863 517.747
1688 0 81.0781 13.8262 1121 71.8822 724.244 516.654
1689 0 83.2048 13.2444 1102 72.2505 724.054 515.861
1690 0 87.0714 12.9204 1125 72.0791 723.72 516.895
1691 0 88.1127 13.6303 1201 71.8202 724.579 510.518
1692 0 92.1005 13.1487 1211 72.0165 724.211 512.585
1693 0 94.0507 12.7272 1197 71.9967 724.774 512.136
1694 1 48.1932 14.0891 679 69.4006 724.227 532.847
1695 0 50.1439 10.5097 527 73.7856 724.657 531.951
1696 0 52.1039 14.1256 736 68.8899 724.573 530.985
1697 0 52.0547 13.0824 681 70.7636 724.899 531.059
1698 0 54.0494 12.0445 651 71.9002 724.184 530.585
1699 0 56.159 12.0551 677 71.3043 724.517 529.207
1700 0 59.0421 13.7529 812 69.5653 724.262 527.321
1701 0 60.0651 14.3844 864 68.5567 724.686 527.281
1702 0 63.1138 13.9114 878 68.6059 724.93 526.753
1703 0 66.1702 13.9338 922 68.1518 725.166 526.32
1704 0 66.1656 10.5795 700 71.37 724.689 528.14
1705 0 69.1007 13.6902 946 68.4577 724.649 524.222
1706 0 71.0602 13.0594 928 69.319 722.994 522.907
1707 0 73.2486 13.5566 993 68.6747 725.187 519.856
1708 0 75.1057 12.3959 931 69.4415 724.449 520.307
1709 0 79.0558 11.9915 948 68.8502 724.166 520.033
1710 0 81.117 13.3511 1083 67.8652 724.502 518.214
1711 0 83.1656 12.0603 1003 68.993 724.652 516.941
1712 0 85.278 13.0866 1116 68.9677 724.313 513.807
1713 0 87.1524 13.4133 1169 68.0145 724.315 515.546
1714 0 89.1819 12.4241 1108 69.9323 724.432 509.452
1715 0 94.0838 12.7546 1200 68.9508 723.731 509.548
1716 0 94.1455 12.2151 1150 70.8548 723.372 506.781
1717 0 99.232 13.4634 1336 68.5142 724.813 509.627
1718 0 99.1139 12.6521 1254 70.0622 724.211 506.074
1719 1 55.0966 15.736 867 65.8074 724.877 530.121
1720 0 54.0627 12.3745 669 69.7459 724.164 529.037
1721 0 57.0338 13.1501 750 67.4973 723.976 530.951
1722 0 58.0709 12.1403 705 69.8383 724.058 525.437
1723 0 65.0991 9.20135 599 70.6745 723.696 530.339
1724 0 67.1208 12.6786 851 68.3537 723.893 526.282
1725 0 66.0429 13.1278 867 68.5721 724.181 524.905
1726 0 70.0728 12.9865 910 67.6571 724.221 526.985
1727 0 68.1081 11.5405 786 70.7595 724.939 522.441
1728 0 73.0972 13.913 1017 68.3815 723.764 522.276
1729 0 75.1103 13.3803 1005 69.0478 724.386 522.863
1730 1 40.0158 13.0948 524 69.1813 725.076 540.147
1731 0 42.0206 12.4939 525 70.1676 724.364 538.977
1732 0 41.0296 13.1612 540 70.4593 724.728 537.793
1733 0 45.0891 12.7969 577 70.7816 725.404 537.594
1734 0 47.0528 12.5391 590 71.3898 725.141 538.285
1735 0 48.0521 14.0889 677 70.2984 725.205 536.211
1736 0 49.0994 14.0939 692 70.9017 724.289 533.83
1737 0 49.1653 13.9529 686 71.3382 724.507 534.068
1738 0 52.0489 14.9283 777 69.9961 723.857 532.386
1739 0 52.225 13.5567 708 72.226 725.01 532.722
1740 0 54.0764 13.5549 733 71.5648 725.027 532.483
1741 0 56.1019 13.6181 764 72.1361 724.585 529.245
1742 0 58.3397 14.0556 820 71.3866 723.789 530.743
1743 0 60.0445 13.873 833 71.1933 724.515 530.663
1744 0 64.0785 13.2026 846 71.9409 724.858 528.502
1745 0 64.0715 13.6098 872 71.4576 724.584 527.849
1746 0 68.1764 15.2399 1039 69.4832 724.79 526.024
1747 0 71.0322 14.2471 1012 70.4575 724.265 525.217
1748 0 72.0835 14.1919 1023 71.1271 723.848 523.068
1749 0 72.0835 14.3167 1032 147.127 723.901 522.89
1750 1 35.0536 11.6964 410 73.8195 724.351 540.52
1751 0 40.0413 14.0105 561 70.9768 724.538 538.836
1752 0 40.1243 13.9816 561 70.8574 725.506 538.92
1753 0 43.0655 12.9802 559 71.6064 725.227 539.165
1754 0 42.0427 13.0819 550 72.1982 725.942 538.271
1755 0 44.1284 14.2992 631 70.4913 725.287 536.43
1756 0 44.1332 13.1647 581 71.7315 725.184 537.033
1757 0 45.1001 13.0377 588 73.1786 725.318 533.969
1758 0 50.1 13.1736 660 71.1621 725.248 534.142
1759 0 47.0329 14.6068 687 70.7453 724.639 533.639
1760 0 50.0495 15.3848 770 69.1779 724.625 534.503
1761 0 54.1415 13.6679 740 70.6432 724.892 531.391
1762 0 54.1319 14.7972 801 70.4082 724.368 530.744
1763 0 55.0671 14.0011 771 70.5979 725.458 533.069
1764 0 59.2315 13.5232 801 71.6067 725.297 529.708
1765 0 60.0459 12.3406 741 72.9015 725.217 530.634
1766 0 61.0414 14.5966 891 70.9551 725.162 528.263
1767 0 65.2095 16.746 1092 67.3379 725.033 527.408
1768 0 67.1922 15.0315 1010 70.0347 724.474 527.438
1769 0 69.138 14.3481 992 71.2359 725.015 526.448
1770 0 71.2306 15.878 1131 69.1919 725.073 525.628
1771 0 74.2147 15.4552 1147 70.3609 725.114 523.538
1772 0 75.1 13.1691 989 73.543 724.854 521.78
1773 0 77.0865 14.6848 1132 71.6475 724.531 518.66
1774 0 81.2001 15.2093 1235 70.0381 725.62 520.348
1775 0 82.1823 14.0785 1157 72.1253 724.252 520.187
1776 1 43.1259 15.2345 657 71.2314 724.752 538.527
1777 0 43.1741 13.9667 603 73.5638 725.015 536.725
1778 0 47.259 13.5424 640 73.9625 724.125 535.509
1779 0 47.0534 14.0904 663 73.2353 724.703 535.321
1780 0 49.0664 13.2066 648 74.1142 725.258 533.914
1781 0 50.1844 14.9847 752 71.7952 724.9 533.906
1782 0 52.1803 13.76 718 72.9944 724.659 532.829
1783 0 53.2585 15.2088 810 70.5827 723.964 532.772
1784 0 54.0928 14.0684 761 72.3784 724.896 532.285
1785 0 56.0835 15.2273 854 71.3829 724.686 530.055
1786 0 58.2401 14.0796 820 73.0341 724.145 527.944
1787 0 62.3258 13.6861 853 73.5768 724.801 527.778
1788 0 65.0512 15.5416 1011 69.4985 725.171 528.269
1789 0 67.1375 15.148 1017 71.3736 724.792 524.641
1790 0 70.1291 14.6302 1026 71.385 724.5 522.659
1791 0 70.2602 13.2934 934 73.7634 724.803 523.244
1792 0 72.3257 12.9968 940 75.2213 724.112 521.129
1793 0 77.2287 14.7484 1139 71.8692 723.78 520.94
1794 0 79.0435 14.3718 1136 72.7711 723.901 519.322
1795 1 39.1332 12.7258 498 73.8173 725.528 538.195
1796 0 39.0356 14.3459 560 73.6375 725.245 536.773
1797 0 40.0659 14.6259 586 73.5683 725.292 536.983
1798 0 43.1084 15.287 659 71.2519 724.815 535.652
1799 0 45.1516 13.1335 593 73.3626 724.895 535.572
1800 0 46.1072 14.0759 649 73.3421 724.302 532.854
1801 0 45.07 13.3792 603 75.5323 723.955 532.322
1802 0 48.1479 14.3724 692 73.8916 724.756 531.068
1803 0 49.1553 16.2139 797 71.1079 724.941 532.045
1804 0 51.1124 12.5801 643 75.6501 725.299 533.017
1805 0 52.2024 13.0071 679 75.7187 724.957 529.838
1806 0 55.2742 14.4733 800 73.7175 725.244 530.079
1807 0 60.2459 14.1918 855 72.4842 724.745 528.444
1808 0 57.0597 14.8091 845 73.5929 724.748 528.404
1809 0 62.1442 15.7376 978 71.3108 724.905 528.25
1810 0 65.2274 14.8711 970 72.4144 725.018 526.147
1811 0 67.3729 14.7685 995 72.99 725.831 522.856
1812 0 69.2753 14.796 1025 72.7444 725.49 523.116
1813 0 69.451 13.9667 970 75.3567 724.679 521.156
1814 0 73.0934 14.8303 1084 73.5867 724.701 521.486
1815 0 74.0849 12.9986 963 76.3738 724.235 521.776
1816 0 77.374 15.69 1214 73.1944 724.228 517.717
1817 0 80.0828 13.8981 1113 75.8832 723.801 515.788
1818 0 84.1885 14.9545 1259 73.4686 724.652 517.246
1819 0 85.1338 14.6475 1247 73.9318 724.511 517.059
1820 0 89.2077 15.4919 1382 72.4624 724.852 515.905
1821 0 91.1136 16.2983 1485 71.5374 724.726 514.263
1822 1 44.1488 13.7943 609 75.2939 725.299 533.337
1823 0 48.2792 13.4012 647 75.3818 724.175 533.717
1824 0 48.2203 14.2679 688 75.1977 725.25 531.125
1825 0 49.266 12.7877 630 76.7936 724.998 531.181
1826 0 52.3184 14.6029 764 73.3037 724.74 531.082
1827 0 54.164 14.3453 777 73.668 725.063 528.906
1828 0 56.2936 14.2822 804 72.2239 725.047 529.798
1829 0 57.3874 14.1146 810 74.1037 724.505 528.818
1830 0 58.5702 14.4271 845 73.1834 724.109 528.441
1831 0 59.2337 14.0629 833 73.3806 724.565 529.948
1832 0 62.1301 13.7293 853 72.8839 725.233 530
1833 0 64.2155 13.735 882 73.7426 724.313 526.427
1834 0 69.2653 16.1986 1122 69.5784 723.976 523.458
1835 0 68.2626 12.6424 863 75.3163 722.902 523.384
1836 0 72.1801 14.921 1077 72.0418 723.657 521.223
1837 0 75.24 14.4205 1085 71.7972 723.114 521.996
1838 0 78.3072 15.0944 1182 70.736 724.315 520.019
1839 0 81.2805 13.6564 1110 73.2117 724.104 518.575
1840 0 81.2103 13.3357 1083 73.0896 724.379 517.886
1841 0 86.3816 15.0842 1303 70.2279 724.219 515.635
1842 0 89.2252 14.738 1315 70.2182 723.572 513.63
1843 1 44.1789 11.5666 511 74.8689 723.814 533.299
1844 0 49.5229 15.0435 745 69.5933 723.803 533.166
1845 0 50.1174 14.1268 708 70.8503 723.64 532.894
1846 0 52.3433 13.5452 709 71.3836 723.76 531.409
1847 0 55.2272 14.0148 774 69.6873 722.789 531.078
1848 0 56.2741 14.3583 808 70.1547 722.524 528.875
1849 0 58.4465 14.0128 819 70.4066 723.369 528.637
1850 0 56.1635 12.1609 683 74.1625 723.468 527.634
1851 0 60.1809 13.4428 809 72.3758 723.471 525.169
1852 0 62.2468 14.5228 904 70.4159 723.72 524.732
1853 0 65.5374 15.1364 992 68.6704 724.154 523.615
1854 0 65.3651 14.4879 947 70.5565 723.485 522.861
1855 0 71.515 14.6123 1045 69.3483 723.902 521.03
1856 0 74.5413 14.1398 1054 69.1973 723.614 522.723
1857 0 74.3096 13.4437 999 71.0651 723.8 519.303
1858 0 77.277 15.4121 1191 68.8178 724.029 519.176
1859 0 79.3344 15.63 1240 68.2508 723.878 515.981
1860 0 84.2311 14.1634 1193 69.8432 723.865 516.03
1861 1 42.4277 11.879 504 71.4464 723.595 537.536
1862 0 44.2773 12.9863 575 70.6156 724.362 535.059
1863 0 48.3033 12.7942 618 69.8301 724.744 536.762
1864 0 46.1004 14.0997 650 70.4892 725.258 532.785
1865 0 48.3937 12.109 586 72.5631 724.706 532.478
1866 0 51.2725 13.282 681 70.4758 724.803 532.624
1867 0 53.3481 14.0211 748 69.4091 724.853 532.336
1868 0 54.3162 13.7896 749 69.3044 723.836 531.491
1869 0 57.511 14.2234 818 67.7103 723.972 532.323
1870 0 59.3378 14.1731 841 68.3115 724.92 526.857
1871 0 60.1719 14.6746 883 67.8686 724.641 528.163
1872 0 62.3462 14.5157 905 67.7702 724.4 527.68
1873 0 65.2555 14.6808 958 67.1409 724.952 526.108
1874 0 68.4433 13.7486 941 68.1987 724.711 524.708
1875 0 69.6504 13.9123 969 67.4634 724.652 525.06
1876 0 70.4436 13.1311 925 68.8065 724 522.734
1877 0 72.4854 13.6027 986 68.2505 724.188 520.86
1878 0 76.2768 14.0279 1070 67.5776 723.816 521.223
1879 0 79.2133 15.4141 1221 66.5471 724.833 517.942
1880 0 80.1536 12.214 979 70.2349 724.867 518.234
1881 0 85.238 14.2659 1216 67.4688 724.548 517.109
1882 1 41.3288 14.2516 589 68.7912 724.506 534.499
1883 0 43.3029 14.5025 628 67.6656 725.088 536.14
1884 0 43.3186 12.7428 552 70.1794 725.178 535.706
1885 0 46.3667 15.0108 696 67.9713 724.79 534.835
1886 0 46.2561 14.0522 650 69.8246 724.622 534.172
1887 0 47.355 12.9448 613 71.5546 724.085 533.316
1888 0 51.322 14.3603 737 69.3148 723.75 531.788
1889 0 51.479 14.6662 755 69.1391 724.564 530.785
1890 0 54.1922 14.3563 778 68.1067 724.481 531.537
1891 0 54.4295 15.047 819 68.5507 723.659 529.733
1892 0 56.4276 14.0357 792 68.7677 723.332 531.571
1893 0 58.2231 17.1066 996 65.5944 724.092 527.812
1894 0 60.3029 11.9729 722 72.3366 724.783 529.165
1895 0 62.2949 13.9498 869 70.2324 724.644 526.749
1896 0 65.3926 14.4206 943 69.9989 724.515 523.924
1897 0 66.3255 15.0922 1001 69.5514 724.935 520.376
1898 0 67.2389 13.519 909 71.4928 724.483 521.095
1899 0 70.1562 15.551 1091 69.1714 723.945 519.918
1900 0 76.4398 14.2203 1087 69.5419 725.317 519.822
1901 0 76.3337 14.5021 1107 69.7245 725.276 517.828
1902 1 36.2643 13.8153 501 70.6886 725.451 534.848
1903 0 35.314 12.0349 425 73.4306 724.694 536.355
1904 0 39.2378 12.488 490 72.7714 724.01 536.002
1905 0 39.2931 14.1246 555 71.1153 724.189 537.24
1906 0 41.3601 14.1924 587 71.1499 724.545 533.39
1907 0 45.2697 15.0211 680 68.6471 724.798 534.909
1908 0 42.3408 14.6195 619 71.8708 724.985 532.688
1909 0 44.2751 16.6233 736 68.4701 724.353 533.258
1910 0 46.293 14.9915 694 70.5965 724.578 532.066
1911 0 49.4033 14.5335 718 70.4777 724.244 531.224
1912 0 49.3588 14.5466 718 70.0655 724.341 531.795
1913 0 50.6306 13.5096 684 72.4152 724.316 530.48
1914 0 53.2212 14.3552 764 70.6584 724.361 529.062
1915 0 55.6857 14.4741 806 70.5918 724.819 528.166
1916 0 57.4032 14.5114 833 69.6879 725.547 528.719
1917 0 57.6663 14.3064 825 70.1891 725.568 529.907
1918 0 60.296 14.6113 881 69.7492 724.72 527.529
1919 0 61.4367 13.1843 810 71.663 725.174 526.159
1920 0 66.2219 12.7903 847 71.0992 725.635 527.197
1921 0 66.323 12.5296 831 72.414 725.029 525.567
1922 0 70.1702 13.9233 977 70.348 724.787 524.046
1923 0 70.1847 13.6782 960 71.7677 725.111 520.841
1924 0 73.3228 13.3383 978 71.91 724.883 520.747
1925 0 75.2966 14.4495 1088 70.8024 725.595 519.05
1926 1 37.2308 14.2087 529 71.2987 725.285 536.953
1927 0 38.2786 14.3161 548 70.2664 724.77 537.188
1928 0 41.3026 14.7206 608 68.926 725.053 538.016
1929 0 40.4928 12.8171 519 71.7572 725.274 538.428
1930 0 43.2209 13.1649 569 70.6854 724.61 538.815
1931 0 43.2596 13.5923 588 71.2041 724.609 538.486
1932 0 46.363 13.5669 629 70.6773 724.176 536.804
1933 0 44.1485 13.4093 592 72.2686 725.546 535.721
1934 0 47.3171 14.8995 705 70.1603 724.394 535.834
1935 0 49.3583 14.4454 713 69.9691 724.693 536.67
1936 0 52.2192 14.1136 737 70.1696 724.723 535.579
1937 0 54.2609 14.7067 798 68.6554 724.615 536.531
1938 0 56.4425 15.3608 867 69.4544 724.028 533.006
1939 0 58.1994 13.4022 780 70.959 724.265 534.955
1940 0 57.2516 14.445 827 71.4522 723.657 533.201
1941 0 58.1681 13.9595 812 72.2562 724.498 532.746
1942 0 63.2032 15.5846 985 68.8477 723.615 533.887
1943 0 65.1201 15.1413 986 70.7454 723.223 530.886
1944 0 66.336 14.2155 943 71.509 723.416 533.105
1945 0 66.2928 13.8326 917 73.3828 722.96 529.969
1946 0 72.2468 14.0767 1017 72.6912 722.729 529.877
1947 0 72.2914 14.4001 1041 73.1614 723.076 526.853
1948 0 74.2597 12.9141 959 75.2878 722.551 525.533
1949 0 78.5682 14.9933 1178 72.2487 722.432 523.352
1950 0 81.2054 17.0432 1384 69.4971 722.447 523.174
1951 0 84.2112 15.3305 1291 71.9225 721.448 521.596
1952 0 86.2282 15.2038 1311 72.1381 721.395 519.137
1953 1 42.1801 12.6837 535 76.6019 720.936 539.292
1954 0 46.3412 13.9185 645 73.5969 722.259 538.98
1955 0 48.2118 14.3533 692 73.0809 722.347 539.416
1956 0 48.3441 14.1486 684 74.0219 722.377 537.848
1957 0 50.1089 14.5284 728 73.4451 722.172 539.617
1958 0 49.1578 14.4229 709 76.1072 722.049 535.267
1959 0 54.1979 14.9821 812 73.7094 721.629 537.07
1960 0 52.2116 14.3838 751 75.755 722.608 534.999
1961 0 55.3065 15.1158 836 74.5227 722.757 534.694
1962 0 56.2071 15.7987 888 74.2793 722.179 531.811
1963 0 59.2953 15.583 924 74.4697 722.442 531.104
1964 0 61.2208 15.6973 961 73.8855 722.736 531.239
1965 0 64.2378 16.5479 1063 72.5917 722.781 529.433
1966 0 66.359 16.7423 1111 72.7354 723.114 526.675
1967 0 69.1752 16.7112 1156 72.2068 723.479 527.613
1968 0 71.2282 15.9768 1138 73.913 723.563 525.134
1969 0 73.2546 16.1355 1182 73.7868 723.752 522.761
1970 0 75.3769 15.2036 1146 74.9956 723.881 524.129
1971 0 75.1765 14.2199 1069 77.2862 724.059 520.048
1972 0 79.3784 15.4072 1223 75.2756 723.779 519.64
1973 0 82.3576 15.3356 1263 75.2462 723.091 519.247
1974 0 84.1954 15.2859 1287 75.4297 723.796 516.5
1975 0 90.3365 15.9847 1444 73.2777 723.89 515.947
1976 0 94.1606 16.2063 1526 72.2582 723.701 516.563
1977 0 97.4543 16.223 1581 72.4535 723.777 513.719
1978 0 99.3941 15.4134 1532 73.3094 723.745 514.168
1979 0 102.31 15.0425 1539 74.1624 724.112 511.977
1980 1 49.5715 15.3717 762 74.3701 724.894 534.31
1981 0 49.4131 14.0448 694 77.2911 724.468 533.287
1982 0 50.2125 13.9407 700 77.3514 723.963 534.293
1983 0 53.2106 13.5687 722 77.2355 724.78 533.069
1984 0 55.2425 15.7669 871 74.473 723.877 533.07
1985 0 57.4022 14.4594 830 76.0904 724.814 531.79
1986 0 57.1416 14.4378 825 77.1006 724.379 531.199
1987 0 60.2364 15.5056 934 75.4925 724.807 528.988
1988 0 61.1914 16.7344 1024 73.7383 724.211 528.621
1989 0 62.2013 14.1637 881 78.1271 724.078 526.418
1990 0 64.2512 14.1476 909 78.2013 725.284 525.754
1991 0 66.1917 14.2163 941 78.526 724.337 523.916
1992 0 70.278 14.7272 1035 77.3063 724.408 524.091
1993 0 71.2102 16.7813 1195 74.836 724.796 521.547
1994 0 74.3833 14.7883 1100 76.43 725.496 521.541
1995 0 75.3878 15.3871 1160 76.6371 725.596 520.845
1996 0 80.3576 15.8168 1271 75.9709 724.367 517.917
1997 0 83.3665 15.8337 1320 75.7189 724.218 515.436
1998 0 84.4522 16.4708 1391 75.1395 723.976 516.284
1999 0 89.2767 16.3649 1461 74.4798 724.668 515.068
2000 0 92.3099 15.7405 1453 75.2436 724.685 514.257
2001 0 95.3321 15.21 1450 75.6697 724.112 513.958
2002 0 99.4571 15.7455 1566 74.2829 724.227 513.681
2003 1 48.1567 13.9752 673 77.8039 723.49 534.037
2004 0 50.5533 15.1523 766 75.6554 723.439 533.486
2005 0 52.2706 15.7832 825 73.6618 724.953 534.196
2006 0 51.2254 14.6607 751 77.1585 724.684 531.569
2007 0 54.259 14.7625 801 76.6954 724.924 530.04
2008 0 56.1936 15.0729 847 75.0862 725.152 531.468
2009 0 55.3101 14.2831 790 77.9076 724.924 529.56
2010 0 59.1858 15.4936 917 75.0131 724.19 529.673
2011 0 58.1359 13.6921 796 78.8907 723.706 528.167
2012 0 62.4605 15.1616 947 76.0486 722.733 529.544
2013 0 63.2581 14.1484 895 78.5218 723.601 524.948
2014 0 67.2406 15.452 1039 75.589 723.757 525.8
2015 0 69.2674 15.9382 1104 75.308 723.5 523.483
2016 0 71.2698 15.9394 1136 74.9613 723.967 524.184
2017 0 74.1983 15.3103 1136 76.5185 722.776 522.737
2018 0 77.5015 16.1158 1249 74.9824 722.539 518.563
2019 0 79.2007 15.7069 1244 75.6358 723.105 519.526
2020 0 82.2079 15.9109 1308 74.9365 723.353 517.609
2021 0 84.3978 15.2729 1289 75.9566 723.355 516.727
2022 0 87.3383 15.0908 1318 75.7269 723.958 513.572
2023 0 90.1783 15.0923 1361 75.4585 723.625 513.259
2024 0 94.248 14.3557 1353 76.4523 723.545 513.124
2025 0 97.4783 15.6035 1521 74.1795 723.723 512.134
2026 1 44.1755 14.0123 619 76.7981 724.667 535.767
2027 0 44.4162 13.1709 585 78.6923 724.161 535.525
2028 0 48.1908 14.4218 695 75.7957 723.597 536.164
2029 0 51.2483 15.7664 808 74.5792 723.718 533.02
2030 0 53.1957 15.5464 827 74.3083 724.227 533.363
2031 0 55.2926 16.1323 892 74.3061 724.089 531.925
2032 0 54.3027 13.0564 709 79.299 723.704 532.037
2033 0 57.2321 14.4325 826 76.7942 723.746 530.776
2034 0 57.4891 14.4897 833 77.8223 723.564 529.176
2035 0 60.3185 14.6721 885 76.4429 724.127 530.256
2036 0 61.1986 16.3402 1000 74.287 722.393 528.956
2037 0 63.1534 15.7078 992 75.4597 722.347 528.879
2038 0 65.0894 14.6568 954 76.3396 723.292 528.558
2039 0 67.2354 15.8994 1069 75.3798 724.145 525.072
2040 0 70.1891 16.9399 1189 74.0833 723.918 524.185
2041 0 71.0656 14.5077 1031 77.4025 723.802 525.508
2042 0 75.1677 15.9111 1196 75.464 724.103 522.309
2043 0 76.1447 17.4273 1327 73.2517 724.209 523.594
2044 0 78.1848 14.7855 1156 77.1825 723.658 520.632
2045 0 81.3393 16.4865 1341 74.0254 723.561 520.324
2046 0 83.5555 15.6543 1308 75.7164 722.488 519.062
2047 0 87.4461 15.4724 1353 75.7886 723.6 516.408
2048 0 90.3827 18.3 1654 71.1499 723.809 518.002
2049 0 94.4742 15.3799 1453 75.5774 723.689 515.264
2050 0 95.2296 14.5018 1381 76.8574 723.584 514.596
2051 0 94.7041 13.5263 1281 79.0664 723.614 511.715
2052 0 102.483 16.2466 1665 74.2474 723.514 511.046
2053 0 106.075 15.8379 1680 74.244 723.579 510.262
2054 0 108.56 15.0884 1638 76.011 722.911 508.485
2055 0 112.424 15.2459 1714 76.2672 722.196 504.63
2056 0 116.478 16.1662 1883 74.744 723.535 503.54
2057 1 53.2919 15.2181 811 76.36 722.977 532.734
2058 0 53.2909 14.5053 773 77.282 723.256 532.806
2059 0 54.3474 14.2417 774 78.5439 722.851 531.19
2060 0 57.25 15.179 869 79.3705 722.99 531.452
2061 0 59.3118 14.331 850 81.2106 722.374 530.605
2062 0 62.2864 14.7544 919 80.7214 722.095 530.276
2063 0 62.4877 13.8587 866 81.6882 721.505 530.515
2064 0 63.2581 14.2116 899 82.2814 722.545 528.873
2065 0 66.1707 15.9436 1055 79.0682 722.644 528.698
2066 0 68.3556 15.4925 1059 80.4108 722.399 525.991
2067 0 71.1362 16.2365 1155 78.4649 722.591 526.597
2068 0 72.1431 15.3999 1111 79.8011 722.683 524.624
2069 0 76.0793 15.7073 1195 79.4845 722.854 522.696
2070 0 78.3343 14.9615 1172 80.3242 722.153 521.776
2071 0 78.0605 15.488 1209 80.3416 722.706 521.066
2072 0 84.3114 16.3442 1378 77.6139 721.782 519.036
2073 0 86.2507 15.9767 1378 79.0058 721.741 516.758
2074 0 88.1812 15.3888 1357 79.3441 721.749 517.71
2075 0 91.248 15.2223 1389 79.6638 721.509 515.346
2076 0 97.4336 15.5593 1516 78.2546 721.255 514.184
2077 1 40.3983 14.7778 597 78.268 721.906 539.161
2078 0 41.2377 13.3616 551 80.3485 722.134 540.027
2079 0 40.1444 13.7255 551 81.4374 721.886 538.123
2080 0 43.2018 14.9994 648 78.6574 722.093 536.951
2081 0 42.3376 14.9749 634 79.623 722.229 537.282
2082 0 43.2251 13.8808 600 82.2217 723.197 536.242
2083 0 46.3149 14.5957 676 79.7574 723.515 536.919
2084 0 48.1934 15.251 735 78.7946 722.648 536.498
2085 0 50.1529 14.9543 750 79.7867 722.895 533.797
2086 0 51.1146 15.5729 796 78.2374 722.859 534.523
2087 0 51.1177 14.9459 764 81.3704 722.126 531.653
2088 0 53.0809 16.2959 865 78.6705 722.403 532.984
2089 0 56.0731 14.8913 835 79.9305 722.388 531.563
2090 0 56.1995 14.4663 813 81.556 723.288 530.368
2091 0 57.32 14.2533 817 82.0379 722.786 529.3
2092 0 59.2362 16.3245 967 78.7622 721.934 528.957
2093 0 59.2827 14.7429 874 82.5137 722.357 527.381
2094 0 62.0924 14.7039 913 81.2552 721.47 529.142
2095 0 62.0707 14.999 931 81.6155 722.436 525.958
2096 0 65.1383 14.8146 965 81.1306 722.39 527.195
2097 0 66.2288 14.8274 982 82.0377 722.276 524.145
2098 0 69.1135 15.9159 1100 80.3155 722.575 524.593
2099 0 71.3091 15.1734 1082 80.9556 721.874 524.793
2100 0 72.1315 15.8322 1142 80.1375 723.184 524.11
2101 0 75.2222 15.2083 1144 81.6547 722.407 520.828
2102 0 76.148 16.3629 1246 79.8018 722.968 521.697
2103 0 80.2131 14.4241 1157 82.1011 722.605 521.368
2104 0 81.1388 15.7385 1277 81.1872 722.646 518.031
2105 0 84.158 16.2076 1364 80.5095 722.233 517.216
2106 0 86.0725 14.6388 1260 83.5706 722.333 517.074
2107 0 89.212 14.2021 1267 84.1034 723.234 514.947
2108 1 42.1685 14.2761 602 83.4867 722.658 538.141
2109 0 43.2657 14.3069 619 84.672 722.25 538.25
2110 0 45.0468 14.2296 641 85.6303 722.097 535.601
2111 0 44.0924 14.3335 632 86.4478 722.222 535.035
2112 0 48.1463 14.7052 708 84.9887 722.939 533.999
2113 0 48.1049 16.9214 814 82.7224 721.409 532.915
2114 0 48.1214 15.2531 734 85.9332 721.609 534.097
2115 0 50.039 15.6678 784 85.236 722.352 531.964
2116 0 52.2077 14.1933 741 86.4116 723.196 533.775
2117 0 52.2077 14.1742 740 164.938 724.189 533.805
2118 0 56.092 15.7063 881 84.3587 722.697 532.157
2119 0 56.255 15.3942 866 84.7506 722.135 531.591
2120 0 60.1407 15.7464 947 83.1035 721.882 530.51
2121 0 61.0869 16.0263 979 82.5608 722.944 529.064
2122 0 64.1243 16.7487 1074 80.9367 722.914 527.798
2123 0 65.0794 15.8422 1031 82.0592 722.707 527.69
2124 0 70.1538 18.0318 1265 77.3739 722.99 527.033
2125 0 68.2921 14.6576 1001 83.5534 722.608 525.615
2126 0 73.1744 15.4289 1129 81.4012 723.139 524.975
2127 0 73.4551 14.8254 1089 82.8108 723.397 522.956
2128 0 75.1907 15.1481 1139 81.9262 722.768 521.145
2129 0 78.2266 14.8671 1163 81.9931 722.815 519.149
2130 0 82.2864 15.0815 1241 80.5576 722.884 519.194
2131 0 86.2391 15.6657 1351 79.2176 722.729 516.281
2132 0 87.3152 15.3582 1341 80.1037 722.294 514.533
2133 0 91.2972 16.5722 1513 77.6682 722.944 514.551
2134 0 94.4554 16.8545 1592 76.8807 722.55 512.508
2135 0 95.1902 15.6214 1487 79.3564 722.489 509.741
2136 1 42.2667 13.817 584 81.5719 723.692 536.856
2137 0 45.2362 13.4627 609 82.4335 723.703 535.767
2138 0 46.2127 13.7192 634 82.3943 724.205 534.139
2139 0 47.2963 15.202 719 80.1947 723.944 535.178
2140 0 51.1677 16.143 826 77.477 723.228 536.412
2141 0 52.3611 14.7247 771 79.6057 722.484 534.851
2142 0 51.2441 15.9628 818 79.4658 723.323 531.704
2143 0 52.1169 14.8896 776 81.4201 724.17 531.696
2144 0 55.0907 14.8301 817 80.1285 723.602 533.213
2145 0 54.1988 15.0926 818 82.2848 723.084 529.892
2146 0 56.4122 15.7413 888 80.6408 723.394 530.032
2147 0 58.1925 15.5175 903 80.3699 722.951 531.738
2148 0 60.2661 14.7181 887 82.5186 721.947 529.259
2149 0 61.0923 15.0101 917 81.8222 721.239 530.457
2150 0 63.1316 14.6361 924 82.3604 721.696 529.661
2151 0 65.2357 15.0531 982 81.6436 721.97 527.909
2152 0 70.2266 15.9626 1121 79.5763 721.341 525.233
2153 0 72.1082 15.449 1114 78.9004 721.249 528.165
2154 0 74.2573 15.5002 1151 79.1755 722.297 524.476
2155 0 76.2199 15.1929 1158 80.3808 722.028 521.933
2156 0 80.2137 15.6208 1253 78.1006 722.386 522.649
2157 0 82.3358 15.5218 1278 77.4992 722.709 521.822
2158 0 85.2578 14.6731 1251 78.8002 722.074 520.301
2159 0 89.1677 15.4877 1381 77.7125 722.284 519.108
2160 0 90.172 15.8586 1430 77.3678 722.604 518.396
2161 0 93.2226 16.1227 1503 76.9268 723.157 516.941
2162 0 97.1495 16.4386 1597 76.7401 722.485 514.282
2163 1 42.1372 14.8325 625 78.6416 722.283 539.616
2164 0 45.3044 15.4952 702 77.3276 722.553 539.622
2165 0 42.4854 12.6867 539 82.9091 722.468 539.135
2166 0 47.2056 15.2101 718 79.2047 722.584 537.405
2167 0 46.2774 15.3639 711 80.7553 722.096 536.03
2168 0 48.1992 15.1662 731 80.9152 723.323 535.729
2169 0 48.1685 14.4078 694 81.6729 722.476 537.558
2170 0 50.3931 15.776 795 80.166 722.891 535.021
2171 0 52.2467 16.5943 867 79.1845 722.513 535.713
2172 0 51.4804 14.6852 756 83.2302 722.083 534.18
2173 0 53.2306 16.2688 866 80.8568 722.63 534.067
2174 0 55.3552 15.3193 848 82.0531 722.783 534.637
2175 0 57.3175 16.3301 936 80.125 722.8 533.806
2176 0 58.3483 14.6362 854 82.1956 722.273 533.707
2177 0 61.2535 16.3746 1003 79.5553 722.882 533.106
2178 0 61.6589 15.1154 932 81.8991 722.399 531.855
2179 0 65.4382 15.0371 984 80.7988 722.254 529.672
2180 0 65.3748 15.4341 1009 81.1427 722.339 528.338
2181 0 67.2605 13.7822 927 83.0766 722.128 527.441
2182 0 69.3091 14.4137 999 81.5506 722.196 527.001
2183 0 72.6217 16.1797 1175 79.4017 722.377 523.773
2184 0 77.3133 14.9651 1157 79.7571 722.766 525.401
2185 0 78.4585 15.8428 1243 78.9332 722.58 523.329
2186 0 82.248 14.8575 1222 79.8568 722.219 523.573
2187 0 83.2562 15.4583 1287 79.4499 721.692 522.828
2188 0 84.4644 15.2609 1289 80.27 722.379 521.216
2189 0 88.2568 15.6702 1383 79.9704 722.302 518.161
2190 0 91.4029 16.5859 1516 78.1234 722.95 516.287
2191 0 93.2628 15.2687 1424 80.1594 722.972 517.442
2192 0 94.7235 14.1253 1338 82.8572 722.602 513.242
2193 0 99.6 13.8052 1375 82.8873 722.801 512.079
2194 0 103.285 14.6294 1511 81.2085 722.664 514.075
2195 1 52.1867 15.5404 811 81.3169 722.836 534.953
2196 0 51.4835 15.1893 782 82.8849 723.023 534.242
2197 0 52.1408 13.8471 722 84.5235 722.517 535.839
2198 0 55.5046 13.9268 773 83.3415 722.594 535.288
2199 0 55.459 14.8578 824 83.8325 722.391 531.515
2200 0 57.3632 15.6372 897 82.7079 722.244 532.417
2201 0 59.4938 15.6655 932 82.9131 722.341 531.309
2202 0 63.4555 16.9725 1077 79.7075 722.859 532.275
2203 0 61.5334 15.5038 954 84.1677 723.465 528.548
2204 0 63.3282 14.1801 898 85.6559 722.714 530.951
2205 0 66.2903 16.111 1068 82.6554 722.105 528.341
2206 0 69.5872 15.7213 1094 81.9799 722.05 530.055
2207 0 70.404 15.5247 1093 83.7072 722.611 526.917
2208 0 73.5689 15.2918 1125 83.3947 722.237 525.729
2209 0 75.3772 15.1505 1142 82.9475 722.26 526.243
2210 0 76.4963 14.3013 1094 84.7514 722.469 524.132
2211 0 81.4206 16.6174 1353 80.3126 722.248 523.622
2212 0 83.3525 15.2845 1274 82.4027 722.56 520.36
2213 0 85.4211 14.6217 1249 83.0256 722.917 520.114
2214 0 90.4449 15.3795 1391 81.1122 722.613 518.931
2215 0 95.5983 16.7681 1603 77.816 722.468 518.603
2216 0 97.4186 15.7875 1538 79.8726 721.911 517.552
2217 0 99.3934 15.011 1492 81.5844 721.42 514.284
2218 1 44.2217 12.9122 571 83.7863 721.895 538.783
2219 0 48.5044 14.576 707 80.4823 722.038 538.397
2220 0 49.2888 15.1759 748 81.0401 721.381 537.198
2221 0 51.3993 15.3115 787 80.3215 721.657 537.504
2222 0 51.0779 14.3311 732 83.2773 722.862 537.228
2223 0 53.5449 15.3516 822 81.5158 721.922 535.175
2224 0 54.3383 15.79 858 80.9545 722.143 536.952
2225 0 56.4074 16.7531 945 79.8021 722.157 535.978
2226 0 56.2055 14.8918 837 83.8076 722.48 534.413
2227 0 60.3373 15.5294 937 81.571 722.667 534.008
2228 0 61.3151 15.8199 970 81.9113 722.774 534.022
2229 0 61.2929 15.6136 957 83.7785 721.866 532.31
2230 0 61.2797 14.6378 897 86.7035 722.072 531.52
2231 0 65.3033 16.7985 1097 83.0055 721.522 530.069
2232 0 65.5546 16.0629 1053 84.4663 722.475 528.844
2233 0 67.3401 14.2263 958 87.0846 722.824 530.623
2234 0 69.3349 14.9852 1039 86.2666 723.142 528.837
2235 0 73.6415 16.6482 1226 82.0351 723.182 529.635
2236 0 74.3113 16.3367 1214 83.7422 722.073 525.78
2237 0 76.3676 14.7183 1124 86.6263 721.832 525.833
2238 0 79.4232 15.6755 1245 84.4064 722.12 524.676
2239 0 81.5193 15.3461 1251 85.263 722.44 523.695
2240 0 83.2725 15.6354 1302 84.8026 722.391 523.102
2241 0 88.2827 15.6542 1382 83.8915 722.217 521.846
2242 0 89.3733 15.6646 1400 84.4221 723.239 519.856
2243 0 94.57 15.1211 1430 84.2028 723.058 519.443
2244 0 97.4304 14.749 1437 84.9673 723.439 519.196
2245 1 51.4481 15.0637 775 84.5768 723.472 537.409
2246 0 53.3903 14.6656 783 84.1162 723.428 538.637
2247 0 54.4741 14.6308 797 84.9862 722.586 537.346
2248 0 55.4362 15.9823 886 83.8578 722.635 536.104
2249 0 56.4242 14.4442 815 85.4184 722.577 537.014
2250 0 60.2791 15.5278 936 83.0865 723.244 536.447
2251 0 61.3603 15.4497 948 84.6635 722.76 534.634
2252 0 62.6282 16.1429 1011 84.1108 723.134 532.278
2253 0 66.3276 16.3281 1083 82.7618 722.986 532.092
2254 0 64.2743 15.2316 979 86.1338 721.86 531.482
2255 0 67.5454 14.8049 1000 85.995 723.203 531.978
2256 0 70.2518 15.658 1100 84.2918 722.815 530.822
2257 0 70.3855 14.5769 1026 87.0127 724.054 529.029
2258 0 74.2566 15.635 1161 84.9156 723.704 527.554
2259 0 77.3065 15.9236 1231 83.4557 723.284 527.866
2260 0 79.4982 16.4155 1305 83.3931 722.159 523.791
2261 0 80.7166 15.6721 1265 84.8166 723.367 524.368
2262 0 80.3045 14.9307 1199 86.3903 723.73 524.037
2263 0 85.4494 15.7052 1342 84.5857 723.059 522.795
2264 0 87.6816 14.7579 1294 85.6816 723.081 522.045
2265 0 89.3639 14.9053 1332 85.2335 723.576 520.632
2266 0 92.6669 15.0755 1397 85.1539 723.595 518.802
2267 1 42.5051 12.6808 539 86.3377 723.818 542.729
2268 0 43.374 13.1876 572 86.5315 722.928 540.773
2269 0 46.4096 14.7814 686 83.7799 723.089 539.939
2270 0 48.2502 14.487 699 83.7153 722.844 539.801
2271 0 48.512 13.44 652 86.1917 723.755 539.408
2272 0 49.3305 14.0684 694 85.611 722.938 538.269
2273 0 53.4474 15.997 855 81.8444 723.747 537.724
2274 0 54.3623 14.1458 769 84.7048 724.081 537.649
2275 0 54.424 14.3319 780 85.5205 723.269 537.633
2276 0 55.2277 14.7209 813 85.8708 722.824 534.485
2277 0 56.1706 14.1355 794 85.7846 722.47 535.878
2278 0 59.3999 14.798 879 84.182 722.976 534.547
2279 0 62.3889 15.179 947 82.8342 722.732 533.692
2280 0 63.3133 14.8942 943 84.0106 722.978 532.629
2281 0 65.4031 14.51 949 84.3656 723.603 532.541
2282 0 63.3584 13.0527 827 88.2322 723.099 529.066
2283 0 67.2074 14.4032 968 85.2975 723.023 529.958
2284 0 68.385 13.7311 939 86.0948 723.179 529.036
2285 0 72.2614 15.4301 1115 83.1578 723.674 527.264
2286 0 74.4043 13.3863 996 85.0171 723.237 527.27
2287 0 75.3682 13.706 1033 85.3253 723.321 525.554
2288 0 76.2926 12.4914 953 87.9234 723.416 523.081
2289 0 80.2774 13.4284 1078 85.244 722.992 521.987
2290 0 85.3925 15.0833 1288 81.7811 723.671 522.372
2291 0 86.2367 14.008 1208 83.7492 723.166 521.247
2292 0 89.278 15.5357 1387 81.3035 723.624 519.115
2293 0 91.1981 13.3775 1220 84.2312 723.716 516.877
2294 0 94.3725 12.7262 1201 85.3672 723.503 516.221
2295 1 49.2441 12.8949 635 83.6882 723.707 538.154
2296 0 52.1873 13.5474 707 83.2164 724.406 535.322
2297 0 54.1959 15.4993 840 78.7512 723.875 536.92
2298 0 55.2485 15.1678 838 79.6062 723.203 535.87
2299 0 56.3888 13.868 782 81.6918 723.728 534.059
2300 0 57.1837 14.4971 829 79.0917 723.89 533.544
2301 0 59.2078 14.39 852 79.3157 723.596 532.636
2302 0 61.3875 13.8465 850 79.5788 724.099 531.935
2303 0 63.5336 14.3074 909 78.066 724.512 532.201
2304 0 64.2474 13.3079 855 80.3076 724.672 529.866
2305 0 66.2774 14.0168 929 79.0431 724.108 529.292
2306 0 70.3831 15.2736 1075 76.6521 724.346 528.749
2307 0 71.3741 14.2909 1020 78.2549 723.739 527.592
2308 0 74.2835 14.9024 1107 77.4101 724.454 525.379
2309 0 76.1176 14.1492 1077 78.3658 724.396 525.297
2310 0 77.1249 14.0292 1082 78.3392 724.177 525.519
2311 0 78.3949 13.4192 1052 79.7795 724.122 523.536
2312 0 81.4151 14.2357 1159 77.7757 723.677 523.186
2313 0 85.1869 14.8849 1268 76.8525 723.23 519.948
2314 0 88.2284 14.5305 1282 76.8775 723.504 520.67
2315 0 91.1493 15.1181 1378 76.0697 723.977 518.035
2316 0 93.4677 13.9941 1308 76.8685 724.589 517.633
2317 1 46.2006 15.6491 723 74.2863 724.366 537.308
2318 0 48.2674 13.5288 653 75.5835 724.074 538.576
2319 0 49.1303 15.5505 764 73.394 723.937 537.02
2320 0 49.2485 14.6604 722 75.0623 723.946 535.985
2321 0 50.2467 12.9362 650 77.7446 724.088 533.355
2322 0 53.2814 14.414 768 74.4883 723.742 535.49
2323 0 54.1258 14.5587 788 74.0432 724.736 534.902
2324 0 56.1741 14.3483 806 74.6204 723.787 532.909
2325 0 56.3411 13.8087 778 74.9974 723.756 533.018
2326 0 60.3733 13.665 825 74.7406 723.727 530.788
2327 0 61.2898 14.2112 871 74.5947 724.103 530.503
2328 0 64.1681 14.6802 942 72.9851 724.399 530.102
2329 0 65.1775 14.2227 927 73.6321 723.516 528.881
2330 0 68.1297 15.2944 1042 72.1305 723.94 528.047
2331 0 70.3922 14.2345 1002 73.8543 723.582 526.313
2332 0 72.113 14.5882 1052 72.9753 723.581 525.791
2333 0 73.3055 13.1232 962 75.5499 724.304 523.868
2334 0 76.1712 14.9663 1140 73.3658 723.682 522.637
2335 0 77.4101 14.6751 1136 73.4225 723.971 522.915
2336 0 79.4278 14.2016 1128 74.2668 724.474 521.387
2337 0 84.4052 13.8736 1171 74.3032 723.776 519.221
2338 0 86.3837 14.2967 1235 74.1474 723.317 519.456
2339 0 89.1685 14.6801 1309 74.0252 723.499 516.423
2340 1 46.1959 11.7543 543 74.7974 723.622 539.482
2341 0 48.3977 13.9883 677 73.0458 723.238 537.213
2342 0 49.2906 14.6072 720 72.3056 724.119 536.143
2343 0 53.3496 14.9392 797 70.7265 724.204 537.184
2344 0 54.4788 15.1068 823 71.2673 724.362 536.068
2345 0 52.4446 12.4894 655 75.7939 724.907 535.398
2346 0 55.2524 14.4066 796 73.5565 724.629 533.606
2347 0 57.2347 13.7155 785 73.9911 724.055 533.912
2348 0 58.4413 13.6376 797 74.7854 724.345 532.878
2349 0 60.3256 13.394 808 75.5037 724.552 531.72
2350 0 63.5699 15.5891 991 65.4521 724.182 530.708
2351 0 64.3527 14.203 914 66.3381 723.955 528.882
2352 0 67.215 14.4611 972 65.8333 724.041 530.115
2353 0 69.2255 15.8034 1094 64.3684 723.844 528.548
2354 0 70.2379 15.1058 1061 65.8501 723.31 526.815
2355 0 74.2455 16.3108 1211 64.3551 723.064 525.977
2356 0 75.314 15.9333 1200 65.0692 723.735 524.89
2357 0 78.5433 15.9912 1256 64.8129 723.779 524.201
2358 0 78.319 13.6493 1069 68.826 723.51 520.819
2359 0 83.2683 15.5401 1294 66.0255 723.413 520.332
2360 0 87.3954 15.5386 1358 65.8093 723.895 520.739
2361 0 87.4764 15.3184 1340 66.2918 724.032 519.688
2362 0 91.2559 15.2209 1389 66.3996 723.291 515.718
2363 0 92.3028 14.1599 1307 67.762 723.803 517.31
2364 0 97.2173 14.2773 1388 66.9856 724.935 515.054
2365 0 98.268 14.5317 1428 67.4475 724.018 513.683
2366 1 49.1451 14.3046 703 66.0925 724.057 536.757
2367 0 49.1952 14.4526 711 66.5724 724.256 536.103
2368 0 52.5267 14.8305 779 66.5854 723.851 534.7
2369 0 53.3145 15.6243 833 65.0012 724.011 536.001
2370 0 53.4972 16.1878 866 65.4942 723.759 534.018
2371 0 54.2629 14.7246 799 67.1702 723.523 534.184
2372 0 57.2949 15.2195 872 66 723.286 533.989
2373 0 59.4952 15.329 912 66.386 723.603 533.452
2374 0 57.2308 14.4503 827 68.6131 723.973 532.18
2375 0 59.4057 14.6956 873 68.6919 723.827 529.444
2376 0 64.2406 16.0024 1028 66.7831 723.358 531.065
2377 0 64.2749 15.8071 1016 67.4272 722.591 530.795
2378 0 64.4645 15.7451 1015 67.9202 723.484 530.3
2379 0 68.3808 17.2417 1179 66.1018 723.483 528.177
2380 0 70.2771 14.699 1033 69.0823 723.46 529.183
2381 0 72.2978 16.349 1182 66.0558 723.926 528.286
2382 0 75.2555 16.0254 1206 66.942 724.233 526.039
2383 0 75.5232 15.5052 1171 67.9573 722.722 523.636
2384 0 77.2596 14.5742 1126 68.9796 723.564 521.688
2385 0 81.2727 16.623 1351 66.336 723.873 520.616
2386 0 83.4455 15.4113 1286 67.2916 723.75 518.512
2387 0 88.2786 14.5788 1287 68.2914 723.509 517.308
2388 0 91.347 15.9392 1456 65.7541 724.159 518.128
2389 0 92.4953 15.2116 1407 66.8408 724.876 511.285
2390 0 99.5079 15.4963 1542 65.8975 725.227 511.724
2391 0 100.373 15.004 1506 66.8938 725.558 509.384
2392 0 105.276 15.8251 1666 65.5696 725.235 508.529
2393 0 110.677 14.7185 1629 66.5322 725.381 506.719
2394 0 113.493 16.8204 1909 64.2106 726.234 504.034
2395 1 57.3513 13.5481 777 68.2265 726.685 530.023
2396 0 59.2822 14.2201 843 67.5326 726.979 528.51
2397 0 61.3349 15.3746 943 66.5154 726.806 526.539
2398 0 61.329 14.838 910 66.778 726.28 528.463
2399 0 64.2182 14.3729 923 67.4518 726.38 527.244
2400 0 67.3142 15.5836 1049 66.7579 725.753 525.119
2401 0 70.3217 16.5809 1166 65.3842 725.512 525.173
2402 0 70.2549 14.0488 987 68.3181 725.238 525.913
2403 0 73.4538 14.7031 1080 67.35 724.568 523.231
2404 0 77.3804 15.0813 1167 66.9169 725.303 522.139
2405 0 79.4992 15.6102 1241 66.1483 725.458 521.658
2406 0 80.4129 15.1593 1219 66.7744 725.37 521.291
2407 0 83.7484 15.6899 1314 65.9193 725.38 520.196
2408 0 87.5595 15.0069 1314 66.7626 725.215 517.982
2409 0 89.4158 14.3711 1285 67.7759 725.752 515.563
2410 0 93.3538 16.0465 1498 65.1929 724.971 513.462
2411 0 94.3601 14.964 1412 66.9816 725.065 512.322
2412 0 99.5613 15.5683 1550 66.1368 724.912 510.239
2413 0 103.352 15.8198 1635 65.1474 725.571 510.695
2414 0 107.342 17.1415 1840 63.8011 725.365 509.088
2415 0 110.27 14.8908 1642 66.4062 725.224 507.482
2416 0 113.509 14.7477 1674 66.7431 725.46 504.84
2417 1 54.1944 14.8724 806 65.6911 724.856 530.494
2418 0 57.3036 14.938 856 65.5736 725.325 530.759
2419 0 59.2348 15.2444 903 65.6811 725.203 529.811
2420 0 62.2089 16.8786 1050 62.9371 725.074 531.404
2421 0 61.257 16.6185 1018 65.0629 725.413 527.759
2422 0 62.3144 15.6304 974 66.576 725.338 527.917
2423 0 65.3493 16.144 1055 66.3469 725.195 526.845
2424 0 65.4206 13.9559 913 68.0668 725.055 529.653
2425 0 69.4337 15.684 1089 66.9467 725.443 527.379
2426 0 69.3802 15.9844 1109 67.3129 725.414 525.807
2427 0 71.3109 15.7479 1123 67.9074 724.961 524.461
2428 0 73.745 15.3366 1131 68.405 724.722 524.782
2429 0 76.3027 15.7137 1199 68.1835 724.812 523.493
2430 0 76.2719 15.1039 1152 69.4861 725.051 519.713
2431 0 79.1947 17.0845 1353 67.1471 726.46 521.43
2432 0 83.6921 15.5212 1299 68.4442 725.336 521.577
2433 0 86.1611 17.0843 1472 67.1311 725.087 518.904
2434 0 87.2407 16.5175 1441 68.3407 725.543 515.745
2435 0 88.3012 13.5445 1196 71.6839 725.174 517.39
2436 0 94.5267 15.932 1506 67.7563 724.627 517.677
2437 0 95.3494 14.9031 1421 69.8346 724.49 515.65
2438 0 100.391 15.7982 1586 68.1387 724.908 511.526
2439 0 105.556 15.6599 1653 67.8923 725.231 510.134
2440 0 107.641 16.072 1730 67.8225 725.622 508.101
2441 1 51.1114 14.576 745 67.1973 725.154 535.605
2442 0 54.3074 14.9335 811 66.8792 725.163 533.409
2443 0 52.2625 15.9196 832 67.0865 725.263 532.438
2444 0 55.1091 14.5348 801 68.181 724.981 532.815
2445 0 55.5743 14.917 829 69.2437 724.608 531.515
2446 0 58.1896 15.5354 904 67.812 724.409 533.376
2447 0 60.2726 15.2308 918 67.8257 725.138 533.383
2448 0 59.4381 14.8558 883 70.0192 725.228 531.706
2449 0 60.4208 14.2501 861 71.324 725.001 531.487
2450 0 64.5276 14.4899 935 70.1294 725.079 531.048
2451 0 66.1418 15.3609 1016 68.626 724.952 531.084
2452 0 67.4214 15.4847 1044 69.6159 725.331 528.034
2453 0 68.2551 16.16 1103 69.4651 724.934 526.309
2454 0 70.6353 16.0826 1136 69.0431 724.119 527.07
2455 0 74.308 16.1624 1201 68.2889 725.535 524.56
2456 0 77.338 17.3912 1345 66.6714 724.411 524.474
2457 0 77.7022 15.9712 1241 68.2611 724.738 523.799
2458 0 81.4533 16.709 1361 67.9243 723.792 520.576
2459 0 82.3499 15.3249 1262 70.1561 724.623 520.433
2460 0 87.611 16.9956 1489 67.0087 724.319 519.78
2461 0 89.3042 15.7887 1410 68.9617 724.471 518.657
2462 0 91.239 15.6841 1431 69.2991 724.697 517.843
2463 0 93.3923 16.9179 1580 68.2525 724.555 513.408
2464 0 97.4354 17.7759 1732 67.0127 724.342 513.094
2465 0 101.419 17.127 1737 67.1606 724.628 513.126
2466 0 102.478 18.3748 1883 66.6617 724.576 509.3
2467 0 107.499 17.5257 1884 66.7245 724.584 510.283
2468 0 110.176 16.4645 1814 68.1202 724.341 507.789
2469 0 114.602 16.6139 1904 68.1964 724.387 506.141
2470 0 119.691 17.2779 2068 66.9826 724.879 504.638
2471 1 62.6205 15.8574 993 67.8963 723.95 530.273
2472 0 63.2503 15.4308 976 69.167 724.601 528.7
2473 0 65.4593 16.2849 1066 67.8555 723.971 529.582
2474 0 68.3981 14.6203 1000 69.928 725.526 529.428
2475 0 67.1793 14.7962 994 70.5634 724.345 527.147
2476 0 70.3602 15.847 1115 69.4134 724.643 525.455
2477 0 71.3467 16.2306 1158 69.386 724.968 525.624
2478 0 71.3467 16.2166 1157 149.157 724.961 525.57
2479 0 76.3098 14.9129 1138 70.5228 724.661 524.564
2480 0 79.173 15.2704 1209 70.244 723.708 522.424
2481 0 80.331 15.8843 1276 69.6536 723.324 521.201
2482 0 82.5988 15.7145 1298 69.8505 724.666 517.606
2483 0 85.3919 13.7601 1175 71.0519 724.44 520.26
2484 0 90.2624 16.4742 1487 67.0733 724.326 518.85
2485 0 91.3687 16.3842 1497 67.9699 724.102 515.436
2486 0 95.4524 14.8241 1415 69.4622 724.59 514.202
2487 0 97.1605 16.4779 1601 67.6009 723.918 511.078
2488 0 101.443 16.423 1666 67.114 724.241 511.764
2489 0 105.511 15.7519 1662 68.1143 724.623 509.276
2490 0 105.294 14.6448 1542 70.2108 724.202 506.553
2491 1 55.2436 15.0606 832 67.9639 724.314 531.78
2492 0 58.3421 14.2436 831 68.6667 724.43 530.422
2493 0 59.3725 13.39 795 71.112 724.127 529.65
2494 0 60.3027 14.4935 874 69.4691 723.998 529.402
2495 0 61.3525 13.8381 849 70.9058 724.135 528.171
2496 0 65.1945 15.9829 1042 67.7313 724.433 529.572
2497 0 67.3539 15.8268 1066 68.1379 724.113 526.886
2498 0 69.1255 16.0578 1110 67.9009 723.524 527.425
2499 0 70.1381 17.3515 1217 67.5234 724.584 523.702
2500 0 72.6558 14.8784 1081 71.0879 724.515 523.594
2501 0 72.2909 13.4595 973 72.1192 725.804 524.36
2502 0 75.5456 15.1564 1145 71.3249 725.35 521.429
2503 0 77.2824 16.6015 1283 69.7303 725.597 521.124
2504 0 79.3102 15.4961 1229 71.0862 725.312 520.631
2505 0 82.2441 14.5299 1195 71.8008 724.548 520.777
2506 0 84.2031 16.8996 1423 70.2959 725.498 515.352
2507 0 87.2896 14.9159 1302 72.2988 726.382 516.058
2508 0 89.4189 15.9474 1426 71.0842 724.961 515.226
2509 0 92.393 16.7004 1543 70.3338 725.357 511.962
2510 0 95.1794 15.2344 1450 72.0738 724.806 510.57
2511 0 98.1467 15.9251 1563 71.2828 724.971 508.539
2512 0 101.541 16.22 1647 70.782 724.756 506.885
2513 0 104.364 15.5417 1622 71.529 725.061 505.099
2514 0 108.683 17.1509 1864 68.9109 725.456 501.995
2515 0 113.478 16.7434 1900 69.7405 724.842 501.578
2516 0 116.533 16.7935 1957 70.1436 724.512 502.055
2517 0 119.4 14.8576 1774 72.761 724.551 498.964
2518 0 122.35 16.51 2020 70.4787 724.597 496.991
2519 0 124.423 14.5712 1813 73.7397 724.74 496.24
2520 1 67.3214 14.7056 990 72.1434 724.905 523.497
2521 0 67.2272 14.4882 974 73.3172 724.526 524.256
2522 0 71.3684 13.3813 955 73.5152 724.009 524.479
2523 0 74.5254 15.6591 1167 71.6744 723.276 520.8
2524 0 75.3673 15.4576 1165 72.7657 723.945 517.355
2525 0 76.2109 14.3155 1091 74.7965 724.629 519.564
2526 0 79.3755 15.9117 1263 72.9786 725.045 516.698
2527 0 81.4438 15.2375 1241 74.7067 724.785 516.061
2528 0 83.4579 15.8403 1322 74.2927 724.685 514.082
2529 0 87.3568 15.2478 1332 74.1952 724.646 515.083
2530 0 90.2672 16.8611 1522 72.4041 725.188 513.083
2531 0 92.4264 14.6495 1354 76.2445 724.138 512.707
2532 0 93.385 15.7199 1468 75.2677 724.423 510.666
2533 0 98.4286 15.4223 1518 74.8893 724.796 512.706
2534 0 99.3248 15.102 1500 75.1953 725.098 510.995
2535 0 104.425 17.0553 1781 72.306 725.277 508.898
2536 0 106.254 14.87 1580 76.3981 725.334 503.036
2537 0 111.399 15.3413 1709 74.6109 725.731 503.528
2538 0 115.443 15.4535 1784 74.3941 725.951 501.999
2539 0 116.32 14.8555 1728 75.6418 726.104 497.262
2540 0 121.277 14.7101 1784 75.5376 726.09 499.223
2541 0 126.437 15.4939 1959 74.7938 725.358 494.891
2542 0 131.549 16.6934 2196 72.4904 724.641 497.302
2543 1 66.2374 15.3086 1014 74.497 724.859 524.964
2544 0 66.2315 13.8907 920 77.0913 725.494 524.088
2545 0 71.2969 15.2181 1085 75.1558 725.17 521.655
2546 0 71.2065 15.0689 1073 75.301 725.486 521.361
2547 0 74.2012 14.8785 1104 76.8433 726.076 518.163
2548 0 77.5553 15.1505 1175 76.3421 726.147 517.924
2549 0 80.3762 17.1817 1381 73.16 725.495 516.897
2550 0 81.4873 15.7693 1285 75.4918 725.563 515.817
2551 0 83.2909 14.5514 1212 76.6865 725.332 516.529
2552 0 87.2872 16.4973 1440 73.6083 725.244 514.668
2553 0 88.5515 16.3069 1444 74.4564 725.618 513.939
2554 0 91.4832 15.3034 1400 75.6257 725.278 512.739
2555 0 95.5448 16.3483 1562 73.436 724.823 511.79
2556 0 97.309 15.4559 1504 74.0412 726.108 510.969
2557 0 102.592 16.5997 1703 72.2137 726.227 506.746
2558 0 102.32 14.7186 1506 75.4681 725.596 506.377
2559 0 106.531 15.7418 1677 73.6685 725.323 503.57
2560 0 112.605 16.4114 1848 71.7338 725.586 503.195
2561 0 115.383 18.3389 2116 68.732 725.749 502.982
2562 0 118.503 15.392 1824 72.8295 725.266 500.23
2563 0 122.199 14.3373 1752 73.149 725.236 502.409
2564 0 122.235 14.1122 1725 75.0377 724.408 495.932
2565 0 130.52 16.0282 2092 71.3384 724.97 494.322
2566 0 132.419 14.1067 1868 74.4218 725.166 495.383
2567 0 138.48 16.6739 2309 70.4656 725.347 488.379
2568 0 142.451 15.9353 2270 71.6295 726.069 488.086
2569 0 145.696 14.7498 2149 73.5086 725.46 488.056
2570 1 67.6584 14.7949 1001 72.0879 725.001 524.77
2571 0 69.2468 15.3653 1064 71.3496 724.944 524.474
2572 0 72.2632 15.0837 1090 71.6 724.63 522.85
2573 0 72.2289 14.0249 1013 73.7937 725.001 522.277
2574 0 74.1674 15.5594 1154 72.9827 725.667 517.823
2575 0 77.3052 15.3547 1187 72.7978 724.798 519.84
2576 0 80.4857 15.655 1260 71.6373 724.716 518.958
2577 0 83.5387 15.8848 1327 71.324 724.446 518.503
2578 0 82.4293 13.5753 1119 75.0483 724.801 516.521
2579 0 86.5804 15.5578 1347 71.5642 724.48 515.814
2580 0 90.3723 15.3587 1388 71.9013 724.198 514.37
2581 0 91.5842 15.6468 1433 71.753 723.885 511.93
2582 0 94.4555 15.2241 1438 72.3178 724.11 512.953
2583 0 98.472 16.0553 1581 71.024 724.975 510.45
2584 0 103.526 18.1114 1875 67.5541 724.559 508.236
2585 0 106.491 15.0717 1605 71.7022 724.012 505.805
2586 0 106.258 16.093 1710 71.4088 724 504.4
2587 0 112.179 16.2508 1823 71.1975 723.171 503.02
2588 0 116.498 15.1933 1770 71.4808 724.32 503.33
2589 0 120.329 15.1086 1818 71.4433 723.627 500.276
2590 0 122.383 14.5445 1780 73.4865 723.867 496.943
2591 0 125.48 14.4326 1811 73.1088 724.358 494.399
2592 1 57.1723 14.6574 838 70.321 724.329 529.49
2593 0 57.5849 14.0662 810 70.463 724.738 529.548
2594 0 57.3402 14.1088 809 71.4425 724.728 526.669
2595 0 59.1695 14.2979 846 71.8121 724.372 526.606
2596 0 62.2615 15.7561 981 70.2385 724.532 523.71
2597 0 66.2363 15.1428 1003 68.7866 723.937 528.961
2598 0 67.4422 16.3844 1105 68.3321 725.275 524.97
2599 0 66.2721 13.2333 877 72.374 726.025 523.344
2600 0 69.2495 15.6247 1082 70.7477 726.518 521.928
2601 0 70.5237 14.9453 1054 72.6442 725.249 521.028
2602 0 73.359 14.913 1094 71.6856 724.719 519.51
2603 0 76.3895 14.7664 1128 71.6791 724.859 519.074
2604 0 76.312 14.9518 1141 71.872 724.831 515.954
2605 0 80.5064 15.1168 1217 70.8077 724.569 517.825
2606 0 84.6257 16.378 1386 68.3449 724.634 516.939
2607 0 84.1783 14.9207 1256 71.0183 724.791 514.73
2608 0 87.4558 14.6131 1278 71.4429 725.108 514.314
2609 0 91.687 16.1746 1483 69.4444 724.315 511.437
2610 0 93.4589 15.9428 1490 69.1725 724.683 511.297
2611 0 94.359 14.4024 1359 71.3458 724.764 511.325
2612 1 51.4112 13.0516 671 71.0209 726.411 532.152
2613 0 52.6989 15.0288 792 69.8194 724.986 529.345
2614 0 52.3425 13.8129 723 71.2559 725.001 529.209
2615 0 54.3593 14.6985 799 70.5144 724.224 528.742
2616 0 57.4334 16.5235 949 68.3899 724.671 526.467
2617 0 59.3936 14.6649 871 69.9323 724.328 527.565
2618 0 59.6567 14.6505 874 71.1773 724.696 524.436
2619 0 62.6745 15.4608 969 68.7936 725.297 526.663
2620 0 63.54 15.9899 1016 68.4409 725.842 526.206
2621 0 63.2759 15.6774 992 69.7319 725.405 523.28
2622 0 64.6866 14.5316 940 71.5053 724.913 522.968
2623 0 66.3869 15.3645 1020 70.4804 725.636 519.755
2624 0 71.4521 14.9051 1065 69.7286 725.693 522.604
2625 0 70.888 14.6005 1035 70.4135 725.449 521.924
2626 0 73.6115 14.4135 1061 71.3525 724.509 519.047
2627 0 77.3744 15.509 1200 69.0158 725.371 521.122
2628 0 77.5037 15.3154 1187 70.2797 725.07 516.655
2629 0 77.3154 13.5549 1048 73.0744 723.76 515.066
2630 0 81.1963 15.7643 1280 70.1438 723.616 515.644
2631 0 83.6604 13.6863 1145 72.248 723.73 516.024
2632 0 87.623 15.5895 1366 69.7753 724.49 513.281
2633 0 89.43 15.9566 1427 69.6391 724.873 511.751
2634 0 91.5598 16.4373 1505 68.6957 724.811 513.129
2635 0 92.3011 15.6661 1446 71.0145 724.486 508.755
2636 0 94.3531 14.1702 1337 72.0284 724.755 510.793
2637 0 98.8274 16.2506 1606 69.472 724.222 506.826
2638 0 100.509 16.0085 1609 70.1212 723.764 506.323
2639 0 102.663 14.3284 1471 71.6825 723.777 507.502
2640 0 105.38 14.8415 1564 70.9693 724.983 505.171
2641 0 108.382 16.082 1743 70.3161 724.831 501.773
2642 0 114.246 17.2697 1973 67.777 724.89 502.285
2643 0 118.427 15.8916 1882 69.3225 725.269 500.996
2644 0 119.559 14.4781 1731 71.8608 724.791 498.879
2645 0 123.697 16.2494 2010 69.5751 724.602 496.991
2646 0 128.566 15.2528 1961 71.1356 724.847 497.152
2647 1 66.3386 14.5918 968 70.2025 725.183 526.22
2648 0 67.4821 13.737 927 72.2945 725.161 524.371
2649 0 69.406 14.9123 1035 70.9014 724.853 524.198
2650 0 70.2881 14.341 1008 70.7242 725.682 526.715
2651 0 72.3779 14.2861 1034 71.7514 725.132 524.541
2652 0 74.4362 15.1405 1127 70.6167 725.444 523.039
2653 0 74.2515 15.0973 1121 71.7672 725.393 523.026
2654 0 77.5892 14.6412 1136 71.7342 725.178 521.415
2655 0 81.3942 14.8659 1210 70.8744 724.369 522.294
2656 0 82.5826 15.4149 1273 71.2639 724.584 520.862
2657 0 85.5441 16.1905 1385 69.8989 725.235 519.608
2658 0 89.5166 16.4104 1469 68.6249 725.572 518.15
2659 0 92.4535 15.5754 1440 69.4924 725.102 516.578
2660 0 91.4733 13.8838 1270 71.7835 725.843 516.045
2661 0 94.1804 15.6083 1470 70.1878 725.974 512.695
2662 0 97.693 15.6101 1525 69.8131 725.997 513.354
2663 0 101.56 14.7893 1502 70.5566 725.865 513.162
2664 0 102.257 13.9159 1423 72.5973 724.944 511.883
2665 0 106.461 14.5593 1550 71.2097 725.35 510.621
2666 0 108.525 13.8218 1500 72.678 725.544 507.721
2667 0 113.46 16.1291 1830 69.6924 725.488 505.78
2668 0 116.476 14.9902 1746 70.449 725.787 507.043
2669 0 120.544 15.8614 1912 69.1993 725.048 503.401
2670 0 123.759 16.1846 2003 69.2811 725.495 500.63
2671 0 127.287 14.4005 1833 71.8363 724.939 499.72
2672 0 131.458 15.1684 1994 70.4147 724.74 502.82
2673 0 136.526 14.7737 2017 71.8676 724.787 498.606
2674 1 72.2147 14.2907 1032 71.4583 724.985 525.886
2675 0 72.3195 13.7584 995 72.9729 725.235 524.421
2676 0 75.3384 15.1716 1143 70.608 725.147 523.767
2677 0 74.6488 14.5481 1086 72.1832 725.29 523.886
2678 0 77.1756 14.4476 1115 73.0072 725.381 522.053
2679 0 81.278 13.7553 1118 74.3113 725.05 519.818
2680 0 83.2944 15.7393 1311 71.2899 724.615 521.478
2681 0 84.2558 14.8951 1255 73.306 724.759 521.06
2682 0 87.3949 16.4083 1434 71.5265 725.248 519.75
2683 0 88.397 15.6793 1386 73.0837 725.51 518.151
2684 0 92.3492 15.4414 1426 73.3093 725.109 517.67
2685 0 92.6022 14.0709 1303 75.2379 724.356 517.746
2686 0 95.3051 13.5355 1290 76.014 725.055 518.991
2687 0 96.3061 14.4539 1392 75.375 724.335 516.565
2688 0 101.393 14.7544 1496 74.4545 725.354 515.727
2689 0 103.271 15.9581 1648 75.3064 724.623 509.455
2690 0 107.585 15.1694 1632 74.8364 724.002 510.747
2691 0 111.837 15.7014 1756 74.0661 724.477 508.298
2692 0 113.268 14.1964 1608 75.3862 724.875 510.446
2693 0 118.387 15.0017 1776 75.152 724.77 508.757
2694 0 121.494 14.7497 1792 76.4849 724.942 501.854
2695 0 125.328 16.0299 2009 74.2374 725.386 503.664
2696 0 130.461 16.1504 2107 74.1661 724.538 502.17
2697 1 62.2518 12.7386 793 78.2093 724.812 532.122
2698 0 67.4119 14.226 959 76.3785 725.371 530.206
2699 0 69.3577 15.1533 1051 75.9201 725.379 528.2
2700 0 68.7373 14.0681 967 78.1386 726.625 529.46
2701 0 71.3613 14.1253 1008 79.0595 725.743 525.118
2702 0 74.3722 15.3283 1140 76.371 725.669 527.283
2703 0 75.5695 13.6034 1028 78.9874 725.091 526.989
2704 0 77.3431 14.0284 1085 78.1327 725.288 526.075
2705 0 80.6748 14.9489 1206 77.3408 725.643 522.022
2706 0 81.4597 14.3015 1165 78.7614 725.417 520.815
2707 0 85.4282 15.0887 1289 77.0186 725.154 522.074
2708 0 88.4229 15.6973 1388 77.1095 725.54 519.236
2709 0 88.47 15.1012 1336 79.3248 725.269 516.716
2710 0 91.4902 15.1929 1390 77.9914 724.788 520.13
2711 0 95.6731 15.1558 1450 78.1345 724.97 516.662
2712 0 97.3562 14.3596 1398 78.8762 725.892 517.295
2713 0 101.437 15.4677 1569 77.6227 725.982 513.692
2714 0 103.67 13.9867 1450 79.5055 726.301 512.428
2715 0 107.457 15.1316 1626 77.4895 725.803 511.868
2716 0 112.283 15.9241 1788 76.4653 724.621 509.148
2717 0 116.705 15.1836 1772 77.2844 724.899 507.876
2718 0 118.535 15.2023 1802 77.712 725.868 505.748
2719 0 124.02 15.046 1866 77.634 725.767 504.043
2720 0 128.407 16.214 2082 75.1945 726.212 503.007
2721 0 132.618 15.3524 2036 76.2804 726.366 503.307
2722 0 135.462 15.6576 2121 76.1292 726.223 497.347
2723 0 139.741 15.7434 2200 76.4895 726.304 498.09
2724 0 143.563 14.9203 2142 78.0663 725.86 494.51
2725 1 75.4159 14.3338 1081 78.0139 725.896 528.842
2726 0 77.6249 14.4412 1121 76.8876 725.49 527.898
2727 0 79.3892 13.6165 1081 78.8936 725.505 525.532
2728 0 82.4632 14.9885 1236 77.4498 725.502 524.104
2729 0 84.5703 14.7333 1246 77.4053 725.692 522.726
2730 0 86.9501 15.0316 1307 75.8126 725.893 525.663
2731 0 88.5803 15.0372 1332 76.7613 726.213 522.254
2732 0 91.5634 16.1855 1482 75.357 726.721 519.465
2733 0 94.9449 15.0087 1425 76.1025 726.062 520.592
2734 0 94.4115 14.2567 1346 78.2288 725.267 517.914
2735 0 99.5024 16.7132 1663 73.6849 724.808 517.044
2736 0 101.474 16.0238 1626 75.3198 724.999 513.761
2737 0 105.675 15.8221 1672 74.9169 725.144 513.702
2738 0 108.661 14.7799 1606 77.0423 725.645 511.271
2739 0 110.482 15.1699 1676 75.9845 725.09 510.394
2740 0 116.92 15.4893 1811 75.0756 725.216 506.829
2741 1 60.4778 14.1705 857 75.8728 724.708 532.314
2742 0 61.4311 13.3483 820 77.3207 724.918 532.685
2743 0 65.7087 15.7057 1032 74.3159 725.512 530.142
2744 0 66.4288 16.2279 1078 74.2254 725.33 527.994
2745 0 71.6121 14.5925 1045 74.3856 725.315 530.285
2746 0 72.4894 15.823 1147 72.8692 725.477 528.43
2747 0 73.7871 14.6638 1082 75.3845 725.455 526.708
2748 0 77.6177 14.5714 1131 75.0875 725.492 526.11
2749 0 76.6589 14.8841 1141 75.624 724.742 524.009
2750 0 78.5385 14.4006 1131 76.4942 724.787 522.657
2751 0 84.6803 16.4501 1393 71.8622 725.361 522.737
2752 0 85.423 15.2535 1303 75.1005 725.408 521.106
2753 0 87.7831 15.413 1353 74.5418 726.305 519.05
2754 0 90.6315 16.7491 1518 72.6713 725.767 515.898
2755 0 93.6261 15.4337 1445 73.7931 725.637 515.921
2756 0 95.4194 14.8817 1420 74.2676 725.193 515.643
2757 0 99.5998 16.0743 1601 72.5278 725.557 513.446
2758 0 102.619 16.7805 1722 72.1109 725.455 509.348
2759 0 106.664 16.0504 1712 71.8218 725.85 510.983
2760 0 109.555 16.0194 1755 71.9556 725.407 507.58
2761 0 111.74 15.7151 1756 72.6862 725.825 506.956
2762 1 57.6557 13.6326 786 73.3575 726.434 534.281
2763 0 57.569 12.7325 733 75.0982 725.587 533.703
2764 0 61.7008 14.9269 921 70.4929 725.328 533.96
2765 0 60.9387 13.2428 807 74.3247 726.337 531.456
2766 0 61.8401 14.4243 892 73.5617 725.88 531.448
2767 0 67.6564 14.8692 1006 72.0219 725.46 530.264
2768 0 66.625 13.2833 885 74.6746 725.83 528.249
2769 0 68.5133 14.3038 980 73.4031 726.102 528.729
2770 0 72.5187 14.6445 1062 72.7514 726.767 527.563
2771 0 73.5157 15.4117 1133 71.6028 726.521 526.136
2772 0 75.525 15.624 1180 72.0576 726.17 524.961
2773 0 75.504 13.5225 1021 74.5289 726.372 523.341
2774 0 77.5203 13.9189 1079 74.2122 726.477 523.883
2775 0 81.4053 17.0996 1392 70.1602 727.077 520.796
2776 0 83.71 13.6543 1143 75.2345 726.397 520.256
2777 0 85.5908 14.1721 1213 74.3735 726.899 519.791
2778 0 88.6128 15.7088 1392 71.995 726.929 518.31
2779 0 90.6542 15.675 1421 71.6657 726.268 518.209
2780 0 94.6433 15.1094 1430 72.3301 726.178 516.143
2781 0 94.4078 15.4648 1460 72.5089 725.829 512.151
2782 0 97.7041 15.025 1468 73.1485 725.31 513.283
2783 0 101.693 16.4121 1669 71.0749 725.687 510.897
2784 0 103.53 14.305 1481 73.4328 725.847 512.766
2785 0 107.641 16.7315 1801 70.2926 726.046 507.263
2786 0 112.534 15.9596 1796 70.6047 726.024 509.591
2787 0 115.029 14.405 1657 72.443 726.364 508.619
2788 0 116.608 14.2443 1661 73.4275 725.822 504.573
2789 0 120.699 15.0706 1819 72.0962 726.115 503.932
2790 0 125.518 18.0611 2267 67.3264 725.433 505.397
2791 1 63.4258 14.584 925 70.8886 725.745 531.093
2792 0 62.7786 10.6565 669 76.9088 727.287 527.761
2793 0 66.5256 12.4914 831 73.8303 727.407 530.798
2794 0 71.6078 15.3056 1096 70.677 726.978 528.401
2795 0 70.3805 14.3648 1011 72.4599 726.492 526.963
2796 0 71.6586 15.4483 1107 71.9919 726.084 526.727
2797 0 74.5243 14.975 1116 72.9337 725.54 523.198
2798 0 77.3877 15.067 1166 72.4211 726.848 524.217
2799 0 81.5459 14.826 1209 72.6476 725.772 523.35
2800 0 82.5113 15.2464 1258 72.217 726.196 522.12
2801 0 83.5181 14.9189 1246 73.3194 726.744 521.574
2802 0 85.6651 14.6734 1257 73.7255 726.512 519.346
2803 0 88.9132 14.6435 1302 73.6574 726.293 518.641
2804 0 92.0976 15.2338 1403 71.9815 726.337 519.263
2805 0 93.5299 14.5836 1364 73.0081 726.541 516.235
2806 0 98.3733 15.7258 1547 71.2579 726.025 513.807
2807 0 102.552 14.9681 1535 72.2971 725.943 512.016
2808 0 105.743 15.6038 1650 70.8352 726.324 510.141
2809 0 106.59 14.1571 1509 73.1995 726.457 509.172
2810 0 112.608 14.9101 1679 71.8946 726.329 507.683
2811 0 114.402 14.4665 1655 72.8224 725.94 505.029
2812 1 56.656 14.2086 805 71.1106 726.589 532.712
2813 0 56.4116 13.4901 761 72.1091 726.821 533.38
2814 0 56.4414 11.0734 625 76.0144 727.338 531.166
2815 0 58.4284 15.181 887 72.0958 727.096 530.439
2816 0 62.638 14.0649 881 72.3485 726.995 529.914
2817 0 62.5781 14.0145 877 73.1357 726.426 527.583
2818 0 64.5182 15.5305 1002 71.4631 726.896 529.122
2819 0 64.3739 13.0643 841 74.9845 726.769 530.332
2820 0 68.675 15.4933 1064 71.5179 726.554 527.443
2821 0 69.4645 14.7413 1024 71.9648 726.794 528.833
2822 0 72.6507 15.5952 1133 71.5825 727.305 526.654
2823 0 74.6725 16.9808 1268 70.0741 727.13 525.36
2824 0 78.6554 15.943 1254 70.9617 726.729 525.49
2825 0 76.4567 15.5905 1192 72.6636 727.572 522.094
2826 0 79.7116 16.3213 1301 71.0523 727.905 522.96
2827 0 83.4113 17.7434 1480 68.3831 727.305 522.095
2828 0 83.4389 15.4005 1285 72.0833 727.169 521.441
2829 0 85.3798 16.3271 1394 71.056 726.944 518.91
2830 0 87.951 16.6115 1461 70.3682 727.503 519.1
2831 0 92.3171 17.4074 1607 69.0604 727.392 518.541
2832 0 92.6508 15.1321 1402 72.8759 727.456 515.772
2833 0 98.2508 15.7352 1546 71.284 727.281 518.064
2834 0 99.6288 16.3507 1629 70.7102 727.014 515.176
2835 0 104.619 17.3774 1818 68.5038 727.001 513.677
2836 0 107.635 17.039 1834 68.9847 726.799 513.293
2837 0 108.462 16.946 1838 69.6562 727.163 511.845
2838 0 111.944 18.2323 2041 68.121 726.717 507.728
2839 0 115.439 16.8487 1945 69.3445 727.248 511.384
2840 0 118.875 16.4795 1959 70.5181 726.984 505.808
2841 1 54.448 12.9481 705 74.3816 727.854 532.634
2842 0 57.06 14.1781 809 72.309 728.095 533.099
2843 0 58.5749 14.7845 866 72.2032 727.754 532.054
2844 0 59.439 13.8798 825 73.5915 727.304 531.972
2845 0 63.599 16.7613 1066 69.7739 727.951 531.558
2846 0 64.6499 14.3078 925 73.3622 727.115 529.467
2847 0 66.8383 14.3181 957 73.6531 726.335 529.33
2848 0 66.6944 16.3882 1093 72.7877 726.29 526.162
2849 0 67.7431 15.1012 1023 73.8651 726.937 527.801
2850 0 70.4286 16.1582 1138 72.0018 727.093 527.042
2851 0 71.5712 14.7545 1056 74.482 726.686 525.932
2852 0 73.393 16.5275 1213 72.6257 727.099 522.515
2853 0 76.8338 16.0606 1234 72.329 726.793 523.955
2854 0 78.8753 15.4928 1222 73.5483 727.71 523.432
2855 0 80.7808 14.9293 1206 74.0116 727.478 523.128
2856 0 80.8266 14.5002 1172 75.4625 727.563 522.451
2857 0 84.5776 14.6493 1239 74.5956 727.355 521.704
2858 0 86.687 15.654 1357 74.2483 727.918 517.453
2859 0 88.5544 16.8145 1489 72.8905 728.024 516.478
2860 0 90.8699 14.7904 1344 74.5409 728.356 518.728
2861 0 95.081 18.0898 1720 70.3954 726.625 516.133
2862 0 95.5675 16.2922 1557 74.1734 726.13 512.764
2863 0 97.87 15.6738 1534 74.631 726.531 513.404
2864 0 103.602 17.6252 1826 71.2508 726.793 513.735
2865 0 104.682 15.3704 1609 75.0044 726.784 511.615
2866 0 107.68 16.3726 1763 73.7357 727.807 509.154
2867 0 108.571 15.7593 1711 75.9036 727.634 508.499
2868 0 113.676 15.4738 1759 75.8619 727.504 509.092
2869 0 115.696 16.2754 1883 75.8731 726.919 504.74
2870 0 117.694 15.5488 1830 77.5202 726.97 503.709
2871 0 120.693 15.6928 1894 77.8337 727.824 503.195
2872 0 125.515 17.0975 2146 75.7041 728.143 500.277
2873 1 58.6954 13.0845 768 77.8828 727.526 534.398
2874 0 60.5776 13.6024 824 78.4357 727.638 532.465
2875 0 60.5985 13.2677 804 80.0721 727.058 532.682
2876 0 64.7456 15.1516 981 77.0734 726.926 530.961
2877 0 65.6975 14.2471 936 79.1496 726.687 529.763
2878 0 65.6184 14.5843 957 79.2268 726.886 529.956
2879 0 67.3612 15.7658 1062 78.6365 727.733 529.138
2880 0 67.6847 14.3312 970 80.2691 728.01 531.51
2881 0 69.4571 14.9445 1038 79.5973 727.492 530.458
2882 0 70.6698 13.6409 964 82.7085 727.357 528.498
2883 0 72.6457 13.8618 1007 83.3893 727.427 527.723
2884 0 76.7226 16.501 1266 78.7085 727.436 526.519
2885 0 75.5341 15.9001 1201 80.9226 727.248 525.582
2886 0 76.6075 15.0246 1151 83.0096 726.833 524.202
2887 0 77.6732 14.2005 1103 84.7144 726.81 525.262
2888 0 80.6378 14.7573 1190 83.263 727.424 525.382
2889 0 83.9444 14.3547 1205 83.6216 728.265 524.098
2890 0 84.7052 15.2883 1295 82.9521 727.123 521.678
2891 0 86.6088 14.3288 1241 84.975 727.479 519.355
2892 0 91.7861 16.3097 1497 80.6366 727.535 516.354
2893 0 91.7856 15.3183 1406 82.9047 727.392 517.316
2894 0 96.7969 17.0976 1655 80.0828 728.009 515.568
2895 0 100.521 16.6532 1674 80.2616 727.403 512.912
2896 0 102.831 16.5708 1704 80.196 727.269 513.344
2897 0 105.814 16.7559 1773 80.2149 727.001 510.837
2898 0 110.154 16.3589 1802 80.1493 727.557 509.957
2899 0 111.783 15.888 1776 81.1104 728.155 507.224
2900 0 115.71 16.8698 1952 79.2188 727.409 506.596
2901 0 120.532 16.3608 1972 79.7657 727.253 507.351
2902 0 124.681 16.1692 2016 80.1285 727.259 503.1
2903 0 127.747 16.5405 2113 79.8277 727.331 498.658
2904 0 131.631 16.0373 2111 80.172 727.678 499.836
2905 0 137.665 16.7798 2310 77.8732 727.252 500.051
2906 0 137.836 15.7724 2174 80.4108 727.594 494.853
2907 1 60.4504 14.5078 877 80.0958 727.41 533.491
2908 0 62.7042 13.3643 838 81.4177 727.495 532.512
2909 0 64.6962 13.7411 889 81.1046 727.246 533.367
2910 1 21.3972 12.1044 259 76.3514 728.344 549.792
2911 0 24.3048 11.3969 277 73.13 728.433 551.065
2912 0 22.2955 11.4822 256 74.0859 728.926 550.894
2913 0 23.253 12.4715 290 73.4759 728.445 550.572
2914 0 21.325 11.2075 239 75.9456 728.372 550.004
2915 0 22.2661 10.644 237 76.1941 728.342 549.262
2916 0 22.4493 11.5816 260 76.1115 728.45 549.046
2917 0 23.4102 12.1314 284 74.2007 727.701 550.021
2918 0 21.5487 10.2558 221 77.5656 728.778 550.502
2919 0 21.1458 12.5794 266 76.1015 728.571 549.049
2920 0 25.5564 12.2865 314 73.0159 728.29 549.35
2921 0 23.2896 11.8078 275 74.6618 728.931 549.331
2922 0 24.2394 13.6555 331 70.7613 728.48 549.541
2923 0 23.3719 11.0817 259 76.1236 728.992 549.452
2924 0 23.5609 9.88926 233 76.4764 729.09 550.099
2925 0 26.3805 13.9118 367 71.3515 728.433 548.921
2926 0 25.4168 10.6623 271 75.0922 729.111 548.782
2927 1 103.822 14.5442 1510 79.1616 727.942 513.446
2928 0 106.921 15.1982 1625 78.1865 727.676 511.84
2929 0 107.74 15.0826 1625 79.2148 727.647 508.136
2930 0 112.914 14.7103 1661 78.3576 726.836 509.697
2931 0 114.139 15.341 1751 77.7664 726.859 506.632
2932 0 119.723 15.7947 1891 76.2374 726.699 507.108
2933 0 121.754 15.3424 1868 76.273 727.692 507.881
2934 0 127.2 15.9827 2033 75.9366 727.537 501.093
2935 0 128.291 14.9036 1912 77.8274 727.647 499.692
2936 0 131.708 15.3445 2021 76.2207 728.076 499.845
2937 1 29.4817 13.5338 399 77.9023 728.185 546.469
2938 0 29.2895 16.593 486 74.0391 728.123 545.899
2939 0 32.555 14.4064 469 75.8465 728.627 544.953
2940 0 32.5489 13.1802 429 78.8228 728.026 545.338
2941 0 33.5414 14.6685 492 76.0935 728.833 544.868
2942 0 34.4267 14.146 487 77.7844 727.214 545.513
2943 0 35.2435 15.0099 529 76.4858 727.781 544.423
2944 0 36.4308 16.1676 589 75.056 727.783 543.681
2945 0 37.3298 15.055 562 77.3754 727.861 542.089
2946 0 38.1031 16.0879 613 76.0881 727.763 542.339
2947 0 38.3542 16.1651 620 76.05 727.952 542.881
2948 0 41.3546 14.6538 606 77.8696 727.092 542.079
2949 0 42.3448 15.3502 650 77.7862 727.58 541.574
2950 0 42.274 15.3286 648 78.1312 727.324 540.554
2951 0 43.2293 17.0486 737 75.772 727.117 539.086
2952 0 47.339 16.9839 804 74.6629 727.663 538.675
2953 0 48.3649 17.492 846 75.1123 727.411 537.762
2954 0 51.2219 15.7745 808 76.6151 727.679 536.668
2955 0 51.1651 15.7138 804 77.7736 726.708 535.991
2956 0 54.1961 17.0492 924 75.7532 727.193 532.995
2957 0 54.2077 16.6582 903 76.6512 727.658 534.484
2958 0 59.0929 16.2964 963 75.73 727.155 533.345
2959 0 58.1755 18.5301 1078 73.6939 726.947 531.452
2960 0 60.165 16.1722 973 76.8376 726.543 531.288
2961 0 63.3051 17.2182 1090 75.745 727.399 528.714
2962 0 64.0961 15.664 1004 77.5219 727.194 530.334
2963 0 66.2093 16.0703 1064 77.1917 726.822 529.061
2964 0 70.0866 15.8946 1114 77.5978 728.049 526.364
2965 0 73.3725 15.3327 1125 77.808 727.473 526.343
2966 0 73.0906 13.9963 1023 80.0068 727.196 527.196
2967 0 78.2955 17.1913 1346 74.9413 726.729 523.469
2968 0 78.3492 14.7289 1154 78.9523 726.892 522.868
2969 0 80.2354 14.9934 1203 78.197 726.995 523.756
2970 0 86.1116 16.1186 1388 76.2334 727.164 519.324
2971 1 55.0407 13.9897 770 83.0935 727.079 535.212
2972 0 58.071 15.6705 910 80.7506 727.186 533.569
2973 0 59.0389 15.0409 888 81.3536 727.48 532.895
2974 0 61.2325 15.2697 935 80.3326 727.143 533.374
2975 0 63.04 14.2608 899 82.9911 727.287 531.492
2976 0 64.1593 14.1523 908 82.8789 727.205 531.469
2977 0 64.0793 15.3248 982 82.2811 727.566 530.062
2978 0 68.0292 16.0372 1091 81.7635 727.596 528.265
2979 0 70.0432 15.6618 1097 82.0356 727.673 528.882
2980 0 72.0995 16.1582 1165 81.1966 727.78 527.242
2981 0 74.1052 16.0313 1188 81.7189 727.844 525.68
2982 0 77.1035 16.2379 1252 81.8834 727.976 523.965
2983 0 77.1371 15.829 1221 82.3186 728.178 525.685
2984 0 81.2046 16.7355 1359 80.9875 727.682 523.216
2985 0 83.0634 15.747 1308 83.4755 726.828 522.124
2986 0 86.1752 15.2016 1310 83.458 727.218 521.665
2987 0 88.149 15.8255 1395 82.7871 727.437 518.303
2988 0 89.0687 14.9997 1336 83.7118 727.006 519.59
2989 0 93.0919 17.2518 1606 80.2839 727.132 518.142
2990 0 95.1436 15.7762 1501 83.0533 727.299 514.579
2991 1 39.0759 14.4079 563 85.5169 726.844 542.387
2992 0 41.0709 14.7306 605 83.9636 727.74 542.643
2993 0 42.0616 14.027 590 86.5017 727.91 541.175
2994 0 42.0303 15.2747 642 86.2866 728.16 539.15
2995 0 42.0765 16.066 676 85.2293 729.324 539.556
2996 0 43.1027 15.0106 647 87.4961 728.27 539.646
2997 0 45.0337 15.3885 693 87.8225 729.205 538.981
2998 0 47.0578 15.0028 706 87.6629 728.445 539.618
2999 0 47.0351 14.4573 680 90.3529 727.284 537.982
3000 0 49.2093 16.1961 797 87.6524 727.767 536.588
3001 0 50.0812 16.034 803 87.0797 727.923 537.447
3002 0 51.1166 15.2201 778 91.2429 727.787 534.644
3003 0 52.0771 15.4771 806 90.0645 728.068 535.636
3004 0 54.048 15.2087 822 91.4185 728.191 534.4
3005 0 55.0432 17.5317 965 88.6705 727.126 533.765
3006 0 57.0602 16.7542 956 90.2971 727.7 532.539
3007 0 59.0475 16.9525 1001 90.3157 727.396 530.65
3008 0 61.1815 17.064 1044 89.5987 727.289 530.624
3009 0 61.0867 16.01 978 93.0184 727.222 530.594
3010 0 64.0399 15.506 993 93.3998 728.179 528.803
3011 0 67.0497 16.361 1097 91.5843 727.616 528.89
3012 0 68.0261 16.6701 1134 92.1041 727.747 527.883
3013 0 69.0473 16.4525 1136 93.0889 726.961 529.106
3014 0 71.0996 16.5683 1178 93.5696 726.841 527.548
3015 0 73.1662 15.8953 1163 95.1307 727.78 525.782
3016 0 76.1385 16.6539 1268 92.9267 728.129 522.735
3017 0 78.1163 16.2194 1267 93.2502 728.438 525.953
3018 0 81.0409 16.3251 1323 93.8587 728.054 524.367
3019 0 84.1528 17.8841 1505 90.5628 727.325 521.393
3020 0 85.0948 15.042 1280 96.882 728.138 520.597
3021 0 87.1694 15.8771 1384 94.7905 727.185 519.652
3022 0 89.0938 15.0964 1345 96.171 727.996 518.445
3023 0 93.1475 16.4148 1529 94.3205 728.048 518.315
3024 1 38.0327 13.3832 509 103.281 728.354 541.786
3025 0 40.0494 16.6544 667 97.7406 728.601 539.762
3026 0 42.1022 13.9423 587 100.632 728.811 541.1
3027 0 43.0984 15.1514 653 100.263 728.741 539.525
3028 0 44.0641 15.1144 666 99.3934 729.279 540.006
3029 0 45.0615 16.2223 731 97.4788 728.576 539.674
3030 0 46.0298 16.0765 740 99.9635 727.966 538.146
3031 0 48.0156 15.7657 757 99.2444 729.417 538.182
3032 0 47.0783 15.5061 730 101.555 728.206 537.425
3033 0 47.0314 14.9262 702 103.412 728.912 536.893
3034 0 52.0559 16.367 852 98.3592 729.077 537.587
3035 0 51.1823 16.1384 826 100.251 728.804 535.691
3036 0 52.2122 15.4561 807 101.038 728.773 537.057
3037 0 55.0531 15.0945 831 100.383 727.871 535.25
3038 0 55.1294 16.4341 906 99.4614 728.279 534.32
3039 0 57.0588 16.3515 933 99.075 729.215 533.158
3040 0 58.0354 16.8001 975 98.5672 729.836 533.272
3041 0 59.1067 15.1083 893 101.087 729.187 532.689
3042 0 62.1176 15.8892 987 99.462 728.51 532.156
3043 0 64.0769 15.8247 1014 98.5582 727.907 531.335
3044 0 65.0969 15.9762 1040 99.0663 729.061 529.838
3045 0 68.1325 16.9816 1157 95.6932 728.338 528.345
3046 0 69.0973 14.2118 982 101.396 728.532 527.826
3047 0 71.061 16.3522 1162 96.6781 728.508 527.175
3048 0 72.0654 14.584 1051 100.179 727.781 526.27
3049 0 75.0501 15.8028 1186 97.3735 727.3 523.289
3050 1 37.0584 13.789 511 98.6888 728.233 543.284
3051 0 38.0482 14.5605 554 97.2256 728.2 543.173
3052 0 37.0806 14.2662 529 99.9244 728.185 543.015
3053 0 39.0391 14.3702 561 100.321 727.922 540.398
3054 0 38.0204 14.0977 536 103.623 727.692 541.192
3055 0 40.036 14.487 580 101.964 728.134 539.519
3056 0 40.0846 13.9206 558 103.624 728.188 541.158
3057 0 42.0394 15.9374 670 99.9716 729.073 540.361
3058 0 42.0178 14.4701 608 105.049 728.304 540.383
3059 0 43.0697 15.7651 679 103.511 728.268 538.782
3060 0 45.0288 14.946 673 103.26 728.41 540.321
3061 0 45.0408 15.4749 697 105.313 728.504 538.897
3062 0 44.1064 15.3492 677 106.186 728.49 538.885
3063 0 48.1598 15.3863 741 104.413 728.29 538.75
3064 0 49.0573 15.2271 747 105.261 728.052 538.983
3065 0 51.1024 15.694 802 104.842 728.036 537.035
3066 0 51.0319 16.5583 845 103.271 727.641 536.607
3067 0 52.3241 16.5125 864 105.337 727.743 536.532
3068 0 54.0534 15.9102 860 106.612 727.906 534.343
3069 0 55.0669 15.9079 876 106.463 728.029 533.271
3070 0 56.157 15.4032 865 107.701 728.269 532.991
3071 0 59.1812 15.8327 937 105.804 728.321 530.308
3072 0 60.279 15.1131 911 107.721 727.841 531.071
3073 0 64.0842 16.4939 1057 102.581 728.073 530.025
3074 0 65.1344 16.5811 1080 102.576 728.44 528.232
3075 0 67.0929 16.2312 1089 102.963 727.922 528.152
3076 0 67.1448 15.4889 1040 105.136 728.548 526.877
3077 0 70.1033 16.5613 1161 101.717 728.545 526.157
3078 0 74.185 17.6046 1306 97.258 728.28 524.359
3079 0 75.1316 16.5709 1245 98.3494 727.965 525.32
3080 0 77.1053 15.9392 1229 99.7347 728.158 524.755
3081 0 79.1861 15.533 1230 100.585 728.642 522.724
3082 0 81.0728 16.2817 1320 99.0697 728.339 520.022
3083 0 85.0705 16.3864 1394 97.924 728.428 519.981
3084 0 87.1854 15.8628 1383 98.1497 728.957 517.955
3085 0 90.0779 15.642 1409 97.5458 729.107 518.094
3086 1 42.1133 14.8172 624 99.2532 728.506 539.707
3087 0 43.1063 14.8702 641 100.736 728.404 539.304
3088 0 45.0492 14.4509 651 100.618 728.445 539.263
3089 0 45.0931 15.1464 683 100.236 728.779 539.158
3090 0 46.0923 15.4907 714 98.9398 728.975 537.889
3091 0 47.0757 15.9105 749 97.8999 729.199 537.411
3092 0 46.0524 16.5898 764 98.1597 729.759 535.877
3093 0 47.1241 16.1064 759 98.5863 728.644 536.357
3094 0 51.0936 16.0098 818 97.4951 728.226 534.955
3095 0 51.0259 16.4426 839 98.3123 728.007 533.254
3096 0 53.0876 14.9564 794 101.01 727.814 534.044
3097 0 54.0514 15.3557 830 99.8663 728.334 533.119
3098 0 54.0656 16.369 885 98.2972 727.694 532.564
3099 0 57.0907 15.7469 899 98.3915 727.741 531.478
3100 0 56.1193 15.1285 849 100.144 729.053 533.067
3101 0 60.0523 16.1193 968 96.8388 728.851 528.893
3102 0 62.0479 16.6323 1032 94.9855 728.392 531.073
3103 0 64.0938 16.6943 1070 94.3561 729.266 529.783
3104 0 66.1089 16.4123 1085 94.8194 728.021 528.506
3105 0 68.1884 16.3664 1116 93.7213 728.029 527.196
3106 0 71.0771 16.9956 1208 90.774 728.542 527.158
3107 0 73.0889 17.1572 1254 90.3549 728.351 525.904
3108 0 73.0828 15.1609 1108 95.0641 727.792 523.579
3109 0 77.0514 16.2748 1254 91.7297 727.966 521.117
3110 0 80.081 16.8829 1352 88.8432 728.494 521.405
3111 0 83.0654 17.6969 1470 86.9898 728.45 518.552
3112 0 84.088 16.126 1356 90.163 729.736 518.792
3113 0 88.0863 15.9843 1408 89.2493 728.881 517.918
3114 0 90.1103 16.8682 1520 87.8263 727.944 516.478
3115 0 92.1579 15.6688 1444 89.4848 728.692 512.895
3116 0 96.1331 16.4772 1584 87.9394 728.366 511.481
3117 1 42.0186 15.041 632 91.174 729.055 538.521
3118 0 46.0204 14.059 647 92.9567 728.807 536.167
3119 0 47.0484 15.4734 728 89.4258 728.661 536.278
3120 0 48.0763 16.2658 782 88.8235 728.266 535.721
3121 0 48.0936 15.158 729 91.3292 728.918 536.492
3122 0 49.0189 14.9942 735 92.1742 729.631 536.037
3123 0 50.042 14.3679 719 93.9847 728.007 535.107
3124 0 52.0372 16.1615 841 89.6766 728.491 534.537
3125 0 54.0607 17.1844 929 88.1432 729.236 532.948
3126 0 57.1194 16.0541 917 89.6489 729.318 532.117
3127 0 56.0655 15.0538 844 93.4775 728.947 531.584
3128 0 58.0762 16.2201 942 90.7219 728.883 530.935
3129 0 61.05 15.3808 939 91.4963 728.768 529.872
3130 0 62.0786 15.6254 970 91.335 728.579 527.356
3131 0 63.075 16.2346 1024 91.2969 728.27 526.511
3132 0 67.1402 16.5028 1108 88.8926 728.783 526.994
3133 0 69.1763 16.7832 1161 88.379 728.873 524.434
3134 0 73.1093 16.5779 1212 86.92 729.705 523.672
3135 0 72.1502 15.6479 1129 89.8158 728.667 523.375
3136 0 76.1146 15.9496 1214 87.9893 728.082 522.858
3137 0 78.1401 17.2895 1351 84.8542 728.604 521.369
3138 0 82.1133 16.6477 1367 85.21 728.224 519.386
3139 0 84.2192 17.4307 1468 83.4162 728.205 518.088
3140 0 87.176 17.6081 1535 82.6287 728.257 516.982
3141 0 90.0996 19.1233 1723 80.1132 729.149 516.316
3142 0 92.1618 16.981 1565 83.9712 729.235 513.37
3143 0 96.3221 16.6836 1607 83.9745 729.538 512.589
3144 1 44.0807 15.086 665 87.6632 728.481 537.236
3145 0 45.0372 14.3659 647 89.7079 728.246 535.822
3146 0 46.1483 14.6701 677 88.8671 728.51 536.523
3147 0 48.1288 14.5859 702 88.8048 728.4 536.558
3148 0 50.0998 15.3094 767 88.528 728.301 534.262
3149 0 51.0618 15.3735 785 87.6943 727.897 534.633
3150 0 52.0806 15.8216 824 87.358 727.95 535.021
3151 0 53.1285 16.413 872 87.578 727.604 533.273
3152 0 53.1412 15.5435 826 89.4286 728.044 534.286
3153 0 55.3242 17.2619 955 86.4147 727.445 533.749
3154 0 56.0981 17.4159 977 86.1054 727.867 533.754
3155 0 58.1038 15.9714 928 88.9192 728.304 531.752
3156 0 60.1477 17.5235 1054 86.166 727.77 531.371
3157 0 60.2281 16.4209 989 89.0162 727.908 529.6
3158 0 63.0998 16.4977 1041 87.2123 727.222 530.53
3159 0 63.0562 15.954 1006 88.5229 727.418 529.981
3160 0 64.1171 15.1442 971 90.1339 725.839 527.993
3161 0 65.0854 15.1186 984 90.5102 726.737 527.589
3162 0 70.0637 17.0274 1193 84.8843 726.802 525.759
3163 0 73.1325 16.7641 1226 85.1281 726.79 524.918
3164 0 74.0897 15.5892 1155 86.968 726.541 523.727
3165 0 77.083 16.0606 1238 85.8837 726.809 522.09
3166 0 78.0775 14.4856 1131 88.3254 726.73 520.443
3167 0 82.0625 16.6459 1366 84.4736 726.914 520.048
3168 0 85.1133 17.5883 1497 82.1757 727.094 518.887
3169 0 86.061 15.582 1341 85.6048 726.799 519.047
3170 0 88.1135 14.5267 1280 87.6031 726.817 518.002
3171 1 44.0335 14.6252 644 87.8214 727.863 537.871
3172 0 46.1016 16.1166 743 84.5155 727.3 537.744
3173 0 47.089 14.462 681 87.0323 727.348 538.545
3174 0 47.048 14.5171 683 88.2679 727.184 538.144
3175 0 48.0509 14.0684 676 90.3669 727.207 537.089
3176 0 51.2426 15.3973 789 86.8695 726.304 537.357
3177 0 53.0769 15.9203 845 86.8781 726.671 536.306
3178 0 54.0461 15.3573 830 87.8699 727.214 535.532
3179 0 53.0352 14.8958 790 90.8076 727.051 533.805
3180 0 55.1025 15.2806 842 89.2945 727.468 534.045
3181 0 59.0639 14.6621 866 89.5393 726.966 532.742
3182 0 58.0988 15.0089 872 90.1984 727.162 531.219
3183 0 63.0701 17.2506 1088 85.33 726.666 531.624
3184 0 64.1013 15.6003 1000 88.299 726.73 531.386
3185 0 66.1674 15.219 1007 88.5899 726.538 530.721
3186 0 68.045 15.8865 1081 87.4385 726.92 530.251
3187 0 69.0696 16.7223 1155 87.7195 726.41 526.772
3188 0 72.0904 15.9938 1153 88.5178 727.391 525.825
3189 0 75.149 16.4207 1234 86.611 727.916 524.722
3190 0 77.0474 16.3536 1260 86.5024 727.851 524.498
3191 0 79.1641 16.7879 1329 85.617 726.911 523.125
3192 0 78.1321 15.269 1193 89.5272 726.829 521.772
3193 0 83.0828 14.8406 1233 89.0787 727.327 521.106
3194 0 87.0949 16.0744 1400 86.4093 727.604 519.36
3195 0 86.228 15.1111 1303 89.5119 727.526 517.018
3196 1 42.0697 15.2128 640 88.0938 727.511 538.719
3197 0 42.0246 13.3969 563 92.7673 727.572 539.107
3198 0 45.0404 14.4093 649 90.2989 727.348 539.005
3199 0 44.0174 14.4943 638 92.8307 727.694 536.984
3200 0 45.0641 14.1354 637 93.7959 726.981 537.427
3201 0 48.0314 16.3643 786 88.4517 726.317 536.424
3202 0 48.0724 15.3518 738 91.7886 727.369 536.099
3203 0 51.0981 15.3626 785 90.7032 727.25 536.19
3204 0 50.0749 15.5367 778 92.7609 727.229 534.875
3205 0 52.0718 15.1329 788 93.8249 727.302 532.709
3206 0 54.1363 15.11 818 93.2775 727.236 533.466
3207 0 56.0391 16.0602 900 91.5511 727.304 531.9
3208 0 58.0464 14.6262 849 93.9835 728.005 533.338
3209 0 59.1203 16.2888 963 90.6023 727.151 530.832
3210 0 60.0569 17.7165 1064 88.3703 728.057 529.982
3211 0 61.0247 16.0263 978 92.2393 728.57 529.277
3212 0 64.0722 17.1681 1100 88.9436 727.551 527.981
3213 0 65.0529 16.2483 1057 90.9886 727.767 528.426
3214 0 69.0843 16.1542 1116 90.2536 727.283 526.659
3215 0 70.0362 16.4344 1151 89.6646 727.335 525.98
3216 0 71.1084 15.1459 1077 92.6527 727.493 523.429
3217 0 76.1988 16.6801 1271 87.4138 727.799 523.152
3218 0 77.1106 15.4972 1195 90.313 728.198 521.665
3219 0 80.1099 15.4538 1238 90.332 728.099 520.147
3220 0 81.1704 14.2416 1156 92.6133 728.418 520.738
3221 1 39.078 14.7654 577 92.9324 728.234 538.229
3222 0 40.088 13.8944 557 93.4201 727.395 538.684
3223 0 40.0817 13.5473 543 95.8527 727.392 537.602
3224 0 42.1022 14.5361 612 92.786 727.296 538.325
3225 0 44.0507 15.0281 662 92.5816 727.041 535.577
3226 0 46.0532 14.7438 679 92.1281 726.692 535.822
3227 0 45.0444 15.4292 695 92.5583 727.55 535.619
3228 0 47.0264 15.7359 740 91.6324 727.473 535.022
3229 0 48.0166 15.328 736 92.1114 728.178 533.651
3230 0 51.098 15.5583 795 90.4742 728.348 534.599
3231 0 52.0996 16.3533 852 89.4143 728.433 534.951
3232 0 53.0171 16.3532 867 90.8201 728.168 533.293
3233 0 55.0334 15.1544 834 91.9281 728.104 532.959
3234 0 55.1277 15.6546 863 91.8111 727.951 532.461
3235 0 56.1522 15.2087 854 93.1323 727.354 530.385
3236 0 59.1285 14.6799 868 93.9585 728.712 531.792
3237 0 61.07 15.7852 964 91.9575 728.706 529.843
3238 0 62.1924 15.9666 993 92.4512 728.96 528.825
3239 0 63.0427 16.1161 1016 93.125 728.532 528.509
3240 0 67.0726 16.7729 1125 90.4533 728.243 528.032
3241 0 66.0626 14.8798 983 95.4527 728.161 527.371
3242 0 70.1462 15.8098 1109 92.0424 727.617 526.345
3243 0 71.1823 15.5516 1107 93.1346 727.352 525.874
3244 0 75.0761 16.2635 1221 91.3538 727.709 524.507
3245 0 77.1336 16.439 1268 90.3683 728.066 524.886
3246 0 79.0705 15.834 1252 91.6574 728.577 522.841
3247 0 80.0513 14.8655 1190 93.5605 727.869 523.042
3248 0 84.247 16.5822 1397 89.1496 727.352 522.457
3249 0 87.167 15.2695 1331 92.2795 727.706 520.071
3250 0 89.104 15.611 1391 91.0575 728.549 519.846
3251 1 41.0652 15.8772 652 91.9893 727.584 542.367
3252 0 40.0927 15.0651 604 96.2053 728.848 539.768
3253 0 42.0645 14.4302 607 96.2883 727.712 539.992
3254 0 43.1005 16.6587 718 93.2047 728.41 539.642
3255 0 43.0227 14.4342 621 97.7665 727.477 540.14
3256 0 44.0339 15.5335 684 96.5175 727.116 538.496
3257 0 46.0557 14.9819 690 96.7188 728.064 539.067
3258 0 47.0521 14.4946 682 97.3416 727.262 538.811
3259 0 50.0311 14.8708 744 96.9597 726.548 537.063
3260 0 50.0535 15.1638 759 97.6258 726.095 536.15
3261 0 52.0468 15.5437 809 95.2991 726.075 538.129
3262 0 53.1066 16.0244 851 95.671 725.961 536.738
3263 0 55.0792 14.7787 814 98.5061 725.806 534.979
3264 0 56.0742 15.6578 878 96.9408 725.468 535.48
3265 0 58.1208 14.4871 842 99.5036 725.33 534.24
3266 0 61.0548 16.3132 996 95.0783 725.462 532.507
3267 0 64.0861 16.1814 1037 94.4986 725.267 533.213
3268 0 65.0428 15.2207 990 96.603 725.33 531.801
3269 0 65.0821 15.5957 1015 96.597 725.687 529.564
3270 0 68.0319 15.5074 1055 96.3355 725.282 529.718
3271 0 70.1479 15.2535 1070 96.8056 725.664 528.467
3272 0 72.2288 15.714 1135 95.2062 725.194 525.725
3273 0 73.0728 15.0535 1100 97.4718 724.832 525.323
3274 1 36.1168 13.844 500 99.19 725.06 542.99
3275 0 36.0223 13.7415 495 100.046 725.4 542.022
3276 0 38.0435 16.0868 612 94.2892 724.351 542.44
3277 0 38.0283 14.1736 539 100.02 724.516 540.015
3278 0 40.0261 15.315 613 96.7096 723.599 538.92
3279 0 41.021 14.456 593 98.4924 723.032 539.745
3280 0 43.0246 16.0838 692 94.0535 722.764 537.618
3281 0 42.0657 15.3569 646 97.1099 722.694 538.574
3282 0 45.1445 15.5058 700 95.1086 722.591 539.833
3283 0 45.1181 14.6504 661 98.2678 723.375 538.201
3284 0 48.0677 16.5392 795 93.4566 724.219 536.175
3285 0 49.0958 15.7855 775 95.8426 723.791 535.304
3286 0 49.1333 15.285 751 97.5726 723.059 535.213
3287 0 52.0633 15.7309 819 94.4103 724.129 534.75
3288 0 55.0459 16.4953 908 92.1927 723.98 534.237
3289 0 55.054 15.5484 856 95.5 724.006 532.633
3290 0 58.1242 16.6196 966 91.9534 723.458 531.8
3291 0 59.2474 15.3762 911 94.5576 724.396 532.187
3292 0 60.0624 15.6337 939 95.197 724.4 531.039
3293 0 62.0615 15.533 964 94.5674 724.759 529.432
3294 0 63.0883 15.0424 949 95.9884 724.248 528.941
3295 0 68.0549 15.6491 1065 92.3962 724.474 529.238
3296 0 68.1753 15.2548 1040 94.5808 724.401 526.601
3297 0 71.1262 15.2968 1088 92.614 724.664 527.08
3298 0 71.0519 14.4683 1028 94.4261 724.523 526.588
3299 0 74.0543 14.6514 1085 93.7419 724.187 524.932
3300 1 35.0784 14.1113 495 94.4 724.265 543.503
3301 0 35.0397 14.6405 513 94.7641 724.875 541.733
3302 0 36.0299 14.1549 510 95.1627 725.249 540.965
3303 0 36.0252 15.1283 545 91.0128 725.686 542.187
3304 0 37.0136 16.8046 622 90.6849 725.889 539.195
3305 0 37.0859 14.2911 530 95.3679 726.285 537.823
3306 0 38.0092 14.0229 533 93.9099 726.008 538.981
3307 0 41.0538 15.1509 622 91.217 726.281 537.481
3308 0 39.03 14.143 552 94.1884 725.496 537.201
3309 0 43.0777 14.3926 620 92.3323 725.974 536.269
3310 0 44.0246 15.1279 666 90.042 726.641 535.571
3311 0 44.0741 15.3151 675 90.6163 726.465 534.944
3312 0 46.0687 14.2613 657 90.9361 725.928 535.268
3313 0 48.0477 17.1496 824 84.9721 725.39 534.284
3314 0 50.0791 15.5953 781 88.9232 726.435 532.53
3315 0 50.0708 15.7777 790 88.3038 726.061 533.004
3316 0 51.0182 15.3671 784 89.0829 726.249 531.103
3317 0 50.065 14.7608 739 91.5683 725.867 530.42
3318 0 54.032 15.8425 856 88.7652 725.758 528.421
3319 0 56.0513 15.9318 893 87.2777 726.437 528.996
3320 0 56.0485 14.1841 795 90.9547 725.903 528.231
3321 0 59.2472 16.4227 973 86.2857 726.078 527.165
3322 0 60.0263 14.4437 867 90.7659 726.01 527.167
3323 0 61.0618 16.033 979 88.0174 726.773 527.659
3324 0 62.1964 15.8691 987 88.0365 726.765 526.578
3325 0 63.0339 15.2934 964 89.7095 727.199 525.84
3326 0 66.1301 15.0461 995 89.0241 726.742 525.668
3327 0 69.0599 16.3916 1132 86.8065 726.721 524.093
3328 0 70.0304 15.8503 1110 87.3072 727.212 524.052
3329 0 73.1288 15.5206 1135 87.5004 727.186 522.69
3330 1 33.011 14.0862 465 90.6581 727.26 540.374
3331 0 36.0235 14.4073 519 89 727.711 539.819
3332 0 34.1516 13.9379 476 92.2479 727.431 540.151
3333 0 36.0162 14.077 507 90.9862 727.647 539.028
3334 0 37.0898 14.4784 537 89.5084 727.371 540.147
3335 0 38.0974 17.0878 651 86.1244 727.287 538.828
3336 0 39.0194 15.9408 622 88.3071 727.503 538.4
3337 0 40.0623 16.1499 647 88.3524 727.952 537.728
3338 0 41.2164 16.0373 661 87.9501 727.468 538.118
3339 0 42.0797 16.3737 689 88.6154 727.656 538.144
3340 0 44.2082 14.9972 663 89.8899 727.626 538.149
3341 0 43.0399 15.3811 662 92.2236 727.047 535.872
3342 0 44.0862 14.8573 655 92.1756 727.131 536.536
3343 0 47.0471 15.3038 720 90.6111 727.014 534.571
3344 0 47.0446 15.5597 732 90.8251 727.686 536.087
3345 0 49.0437 16.6178 815 88.2307 727.849 535.598
3346 0 52.1409 16.7239 872 87.5275 727.677 532.948
3347 0 53.085 16.1062 855 87.9357 726.99 533.392
3348 0 55.0407 16.4787 907 87.3208 727.008 533.074
3349 0 55.0416 16.6056 914 88.3775 727.386 532.642
3350 0 57.1012 15.814 903 89.0997 727.514 532.076
3351 0 60.071 16.5304 993 86.4512 726.878 529.664
3352 0 61.1427 16.4697 1007 88.2234 726.309 530.111
3353 0 62.0763 14.8205 920 90.5174 726.148 531.075
3354 0 65.1547 15.8085 1030 88.5699 726.25 528.324
3355 0 66.0819 16.646 1100 87.44 726.6 528.144
3356 0 68.095 16.3007 1110 88.0162 726.209 527.253
3357 0 71.0825 15.5734 1107 88.636 726.652 527.014
3358 0 73.0807 16.516 1207 86.6645 725.298 526.74
3359 0 76.1117 16.6203 1265 85.4506 726.085 526.793
3360 0 77.0757 15.647 1206 87.3126 726.085 525.072
3361 0 80.2089 16.457 1320 85.5492 725.517 523.425
3362 1 36.0213 13.6863 493 90.1846 725.497 543.669
3363 0 38.0099 16.6799 634 84.7981 725.325 542.699
3364 0 37.0182 13.6689 506 91.0099 725.727 543.217
3365 0 37.1326 12.9805 482 93.639 725.691 542.722
3366 0 39.0408 14.1134 551 90.7822 725.033 541.717
3367 0 41.0226 14.7724 606 89.9786 725.327 540.47
3368 0 43.0458 14.7749 636 88.7799 725.657 541.621
3369 0 44.0125 14.9049 656 89.0198 725.151 540.948
3370 0 44.1294 15.4772 683 86.6105 726.117 541.704
3371 0 45.0745 15.4189 695 89.1036 725.643 538.423
3372 0 47.0429 15.9216 749 87.008 725.672 538.466
3373 0 47.0858 14.5479 685 91.1431 725.926 537.333
3374 0 49.0739 16.3834 804 87.0398 726.837 536.051
3375 0 52.0611 15.2513 794 87.5202 725.671 536.346
3376 0 52.0852 15.3978 802 88.5773 726.069 535.945
3377 0 55.0861 15.9205 877 86.4584 726.47 534.538
3378 0 54.0695 17.0521 922 85.5683 726.318 534.636
3379 0 57.0707 15.402 879 87.066 725.845 533.736
3380 0 58.0459 15.2121 883 87.7622 725.353 533.761
3381 0 59.1669 15.4985 917 88.1603 725.968 531.712
3382 0 61.0249 15.3544 937 88.5411 725.332 531.376
3383 0 63.1394 15.7429 994 87.2616 726.031 529.797
3384 0 66.1034 16.4591 1088 85.8373 725.275 528.299
3385 0 66.0582 15.6831 1036 87.9691 724.745 526.368
3386 0 68.0557 14.6792 999 89.3724 725.589 527.52
3387 0 73.1292 16.8743 1234 83.6904 725.24 526.757
3388 0 74.0983 15.25 1130 87.2062 726.283 526.535
3389 0 74.1051 14.5739 1080 88.7954 726.506 525.29
3390 1 37.0108 13.8068 511 89.3327 726.53 543.055
3391 0 37.0309 13.4212 497 90.3582 726.867 542.604
3392 0 38.0437 13.9314 530 89.9472 725.83 542.438
3393 0 38.1633 13.4684 514 89.7549 725.823 543.64
3394 0 39.0306 13.1179 512 92.1836 726.486 541.379
3395 0 41.0332 15.7677 647 87.5394 726.478 540.552
3396 0 42.0492 14.6733 617 89.9724 726.348 539.206
3397 0 44.0431 16.1206 710 86.0789 726.941 539.687
3398 0 45.0226 15.7921 711 87.294 726.647 538.823
3399 0 46.0654 14.805 682 88.8988 726.375 539.331
3400 0 47.048 15.6011 734 88.6063 726.147 537.335
3401 0 49.078 15.4448 758 88.0079 726.112 537.772
3402 0 49.0414 15.334 752 89.6463 725.41 536.519
3403 0 50.0707 15.4581 774 90.1357 725.696 536.249
3404 0 54.0221 15.7343 850 87.9388 726.076 535.744
3405 0 53.0342 12.935 686 94.6195 725.975 535.824
3406 0 57.008 14.6646 836 89.5598 726.226 534.801
3407 0 57.0569 16.282 929 88.3154 726.832 533.279
3408 0 58.0382 14.8695 863 91.8146 726.572 533.811
3409 0 62.0744 15.6264 970 88.965 726.987 533.087
3410 0 63.1071 15.7985 997 88.678 726.8 531.018
3411 0 67.0295 15.3962 1032 88.9273 726.592 529.927
3412 0 66.0887 14.9345 987 91.3627 726.32 529.375
3413 0 67.0182 14.6826 984 91.6443 725.805 530.011
3414 0 70.1373 15.0419 1055 90.8142 726.675 527.859
3415 0 73.081 14.6413 1070 91.3738 727.312 526.256
3416 0 75.0732 15.5182 1165 88.806 726.821 525.508
3417 0 76.1145 14.938 1137 90.5075 726.552 524.186
3418 1 37.0254 13.8283 512 93.4473 727.346 542.615
3419 0 39.0297 14.963 584 91.1644 726.637 541.956
3420 0 40.0196 15.3924 616 90.8068 726.997 541.05
3421 0 40.0225 13.6173 545 95.5835 727.097 539.774
3422 0 43.1643 14.5722 629 90.9873 726.652 539.916
3423 0 43.0314 15.4306 664 90.009 726.923 539.119
3424 0 45.0489 14.3178 645 92.0108 726.667 537.685
3425 0 45.0349 13.6783 616 93.9854 726.114 537.487
3426 0 46.0375 14.5534 670 92.706 725.821 536.185
3427 0 47.0853 13.38 630 94.9635 725.648 536.152
3428 0 50.0349 15.3093 766 89.8603 726.375 535.124
3429 0 52.0543 15.4838 806 88.1328 726.365 536.118
3430 0 51.058 14.4542 738 91.1992 725.832 534.354
3431 0 55.0893 16.3371 900 86.8911 726.788 532.594
3432 0 56.0611 14.8766 834 89.2422 725.956 532.386
3433 0 58.0787 15.7545 915 87.5224 725.986 530.968
3434 0 60.131 16.8133 1011 85.1919 725.253 530.563
3435 0 62.0219 15.2204 944 88.0752 725.93 529.246
3436 0 65.1136 15.5728 1014 86.7071 725.547 528.031
3437 0 65.0412 14.7753 961 89.3288 726.302 528.083
3438 0 65.036 14.4228 938 90.79 725.98 526.241
3439 0 69.0405 14.5712 1006 88.7505 727.649 527.567
3440 0 71.0862 14.5176 1032 90.032 726.501 524.733
3441 0 73.0571 15.6453 1143 87.2371 726.982 524.94
3442 0 76.1077 15.9248 1212 86.1419 726.907 523.323
3443 0 79.1252 16.4423 1301 84.4835 726.374 521.802
3444 1 36.0148 13.7443 495 92.0929 726.052 540.42
3445 0 38.0505 14.034 534 90.4963 726.796 539.946
3446 0 38.1157 13.013 496 91.8548 727.601 541.298
3447 0 38.0352 14.0133 533 93.5047 727.58 538.79
3448 0 41.0522 14.5668 598 90.1388 727.769 538.607
3449 0 39.0421 13.8056 539 92.666 727.013 538.499
3450 0 42.0935 14.8717 626 90.0192 727.072 537.118
3451 0 43.0448 15.4723 666 87.7012 727.407 537.508
3452 0 46.0631 15.8261 729 85.4829 727.329 536.392
3453 0 46.1089 14.9863 691 87.4168 727.056 537.185
3454 0 47.0172 15.3135 720 85.4639 726.917 537.176
3455 0 49.0214 15.2382 747 85.9545 727.205 535.19
3456 0 50.1527 14.5356 729 86.6104 727.811 534.856
3457 0 51.0701 15.0186 767 85.5176 727.456 532.928
3458 0 53.0621 16.2451 862 82.5893 727.596 531.715
3459 0 54.0945 14.7335 797 84.9912 727.321 531.969
3460 0 57.0355 15.2186 868 82.8721 727.186 531.484
3461 0 57.0359 14.7977 844 84.0036 728.039 529.216
3462 0 60.0557 16.2183 974 81.2977 727.17 528.448
3463 0 64.0324 16.3042 1044 79.7672 726.911 527.825
3464 0 65.116 15.9408 1038 80.7986 726.338 526.193
3465 0 67.0578 14.8976 999 82.4484 726.347 524.474
3466 0 67.0748 14.5509 976 83.7285 726.083 523.544
3467 0 69.0493 15.0617 1040 82.6529 726.609 522.188
3468 0 72.0534 14.6558 1056 82.3002 726.218 522.803
3469 0 76.092 15.4287 1174 80.2112 726.437 520.228
3470 0 77.0549 14.9504 1152 81.5972 726.629 518.162
3471 0 79.094 14.0845 1114 82.7136 726.616 518.04
3472 0 83.0402 16.4017 1362 78.5169 726.998 515.66
3473 0 85.1262 15.9058 1354 78.9719 726.261 516.376
3474 1 39.0475 12.6513 494 85.7895 727.049 538.358
3475 0 40.0483 14.108 565 83.908 726.414 537.593
3476 0 42.0286 14.1095 593 83.6138 727.288 536.182
3477 0 44.1027 15.1691 669 82.6966 726.882 535.118
3478 0 45.0521 15.7151 708 81.5099 726.983 535.138
3479 0 48.1392 15.7668 759 79.9684 727.007 534.585
3480 0 47.167 15.4133 727 81.7208 727.063 534.666
3481 0 49.0142 15.7913 774 80.9419 726.965 533.127
3482 0 51.0756 16.1917 827 79.971 727.857 533.085
3483 0 53.0492 15.2311 808 81.854 727.95 531.651
3484 0 55.0827 16.9019 931 77.4554 727.701 531.928
3485 0 56.02 15.7444 882 80.2653 727.661 530.042
3486 0 57.0732 15.3312 875 81.7726 727.009 528.965
3487 0 58.184 15.8463 922 81.0846 727.43 528.6
3488 0 62.0604 15.4044 956 80.9372 727.23 529.001
3489 0 63.0936 15.8812 1002 80.6098 727.426 527.143
3490 0 64.1166 15.3315 983 82.4049 727.668 526.808
3491 0 68.0637 16.9253 1152 79.1615 727.232 526.152
3492 0 69.2008 14.4073 997 83.2758 727.661 526.83
3493 0 72.112 16.2109 1169 80.3567 728.16 525.139
3494 0 74.0901 16.0885 1192 80.4505 728.425 525.272
3495 0 75.0285 15.0476 1129 82.3206 727.935 523.825
3496 0 78.0927 18.2732 1427 76.3868 727.861 523.008
3497 1 35.111 14.4114 506 84.2372 728.296 542.64
3498 0 35.0425 13.184 462 87.8398 728.452 542.524
3499 0 35.0245 14.0759 493 86.4402 728.11 541.994
3500 0 37.0838 16.5032 612 81.3676 727.866 541.51
3501 0 38.0332 13.0938 498 86.8273 727.833 541.849
3502 0 40.2094 14.5986 587 83.7325 727.574 540.717
3503 0 39.0452 14.0863 550 85.4891 726.909 541.787
3504 0 42.0732 15.782 664 80.5045 726.947 542.905
3505 0 43.0386 15.2886 658 81.6337 727.067 539.822
3506 0 44.2053 16.2876 720 80.0264 727.231 540.629
3507 0 46.0395 15.5736 717 80.7294 726.724 540.61
3508 0 48.0446 15.5272 746 80.8592 727.409 538.938
3509 0 47.038 16.5398 778 80.2545 727.455 538.078
3510 0 51.2171 16.186 829 79.7491 727.288 537.208
3511 0 51.0291 15.6577 799 79.6808 727.498 539.239
3512 0 52.0855 16.3193 850 79.7894 726.496 536.251
3513 0 55.0848 16.0662 885 79.817 727.336 535.564
3514 0 56.0313 16.7585 939 78.8104 726.691 535.332
3515 0 58.0667 16.0333 931 79.9431 726.66 535.056
3516 0 57.0439 16.0052 913 81.2147 726.31 533.223
3517 0 59.0562 16.1202 952 80.9454 726.582 533.221
3518 0 62.1363 15.643 972 81.0628 725.96 534.696
3519 0 61.1672 16.1688 989 81.3246 726.471 533.41
3520 0 64.0787 15.9647 1023 80.7977 726.694 532.81
3521 0 67.1621 17.4652 1173 78.8832 726.165 530.548
3522 0 69.0703 17.0117 1175 79.5251 726.36 529.466
3523 0 70.0722 15.9264 1116 81.897 726.368 529.279
3524 0 73.0713 16.7097 1221 80.1261 726.234 526.55
3525 0 76.0596 16.8421 1281 79.1249 725.84 528.564
3526 0 77.1483 16.1507 1246 81.2295 725.968 524.05
3527 0 78.0514 15.2336 1189 83.1169 726.144 525.22
3528 1 37.0335 13.6903 507 85.0513 726.479 545.258
3529 0 40.0132 14.4452 578 84.135 725.991 543.42
3530 0 39.076 14.2799 558 86.3118 725.389 541.688
3531 0 42.1756 15.1747 640 83.5594 725.295 542.398
3532 0 42.192 14.434 609 85.1806 726.87 541.803
3533 0 44.1111 15.3249 676 84.7382 726.633 539.102
3534 0 44.0827 15.176 669 86.3408 726.012 538.901
3535 0 45.0412 15.0973 680 85.4471 726.253 539.36
3536 0 46.0445 15.0724 694 86.7478 726.304 537.771
3537 0 50.0533 15.1438 758 85.2691 726.679 537.162
3538 0 51.1035 16.0263 819 83.0501 726.173 537.256
3539 0 53.0229 15.5593 825 83.8242 725.339 536.288
3540 0 51.0486 15.2208 777 87.0283 726.623 534.578
3541 0 55.0635 14.8919 820 85.9049 726.344 533.211
3542 0 56.0356 15.2938 857 84.923 727.279 533.723
3543 0 58.0594 15.2602 886 85.8612 725.93 533.341
3544 0 60.0238 16.1769 971 84.759 726.556 530.674
3545 0 59.0232 15.4346 911 69.3941 726.552 533.42
3546 1 46.0941 8.6562 399 50.3083 727.328 526.556
3547 0 47.2048 11.4395 540 51.513 727.411 530.222
3548 1 27.1771 10.4868 285 63.2386 728.716 542.298
3549 0 28.1568 11.6846 329 63.8116 727.863 542.122
3550 1 47.3026 12.9803 614 59.9674 726.972 531.883
3551 0 49.0931 15.9289 782 56.3222 726.748 531.036
3552 0 46.1339 12.8756 594 60.9242 727.566 531.956
3553 0 47.1761 13.5874 641 60.3791 726.867 530.718
3554 0 47.1488 14.2952 674 59.7433 726.476 529.828
3555 0 47.1197 14.4738 682 60.3284 726.934 531.364
3556 0 45.1469 12.714 574 63.4112 726.315 531.53
3557 0 45.1674 13.5939 614 62.4088 727.399 530.891
3558 0 46.1955 12.6852 586 63.7969 727.213 530.428
3559 0 46.2132 13.0699 604 63.3411 726.778 529.288
3560 0 44.1147 12.4448 549 65.745 726.408 530.342
3561 0 47.1068 12.7795 602 64.3538 727.211 530.322
3562 0 46.2173 12.2898 568 65.463 727.412 531.5
3563 0 45.1671 11.2029 506 68.1621 726.557 531.587
3564 0 43.1941 12.5249 541 66.7338 727.065 531.211
3565 0 44.2117 12.7116 562 66.7651 727.393 530.532
3566 0 42.2109 11.4899 485 70.6371 727.039 529.86
3567 0 43.1604 11.5384 498 69.8775 727.657 529.444
3568 0 43.126 10.5737 456 70.5592 727.717 531.774
3569 0 43.0777 11.723 505 69.5307 727.822 531.467
3570 0 43.1897 11.8084 510 69.7137 728.047 532.378
3571 0 43.0995 12.3667 533 69.758 727.302 530.165
3572 0 45.0974 11.8632 535 69.3458 726.985 532.996
3573 0 44.1388 11.9623 528 70.1231 727 530.612
3574 0 44.2342 12.6373 559 69.3363 727.279 532.018
3575 0 42.1312 10.6334 448 72.7299 726.875 531.875
3576 0 45.1195 12.6331 570 68.7105 726.682 532.996
3577 0 45.0728 11.6256 524 70.0649 727.399 533.321
3578 0 43.0787 10.8638 468 72.5748 726.662 531.968
3579 0 45.0537 10.7427 484 71.8471 727.355 534.174
3580 0 45.0592 12.7166 573 69.623 727.382 533.213
3581 0 44.0934 10.9767 484 72.1074 728.219 532.822
3582 0 44.2352 10.5572 467 71.4604 727.662 534.27
3583 0 47.1391 12.5162 590 68.0305 728.068 533.9
3584 0 46.0821 12.5211 577 69.1542 727.657 533.123
3585 0 44.1743 11.1377 492 71.7256 727.205 533.301
3586 0 47.1055 10.6994 504 71.7004 726.794 533.631
3587 0 48.0797 11.3561 546 70.6172 727.452 533.663
3588 0 47.1819 12.4836 589 69.343 727.506 532.231
3589 0 48.0563 12.4229 597 68.6834 727.276 533.003
3590 0 45.0361 11.6795 526 72.1673 727.481 531.338
3591 0 47.1513 11.3677 536 70.6287 727.674 533.603
3592 0 48.1454 11.403 549 70.663 727.364 532.475
3593 0 45.1878 10.733 485 72.4021 727.72 534.311
3594 0 48.1597 11.2957 544 70.875 727.943 533.739
3595 0 46.1161 12.3818 571 69.9772 728.128 532.382
3596 0 48.1747 11.8112 569 69.7575 728.518 533.395
3597 0 50.2048 11.9112 598 68.3395 729.194 535.528
3598 0 48.2162 11.2618 543 69.7993 728.845 535.482
3599 0 46.1253 10.6016 489 72.9448 729.258 534.039
3600 0 49.1127 11.4838 564 70.0124 729.124 534.215
3601 0 47.1559 13.2751 626 68.5911 728.449 532.008
3602 0 49.1302 10.8487 533 69.8743 728.642 536.18
3603 0 48.1138 12.3457 594 69.3771 729.234 534.901
3604 0 48.0436 10.9276 525 70.6724 728.592 535.93
3605 0 49.1108 11.3213 556 69.1547 728.917 536.89
3606 0 51.257 11.9008 610 68.4639 728.369 534.959
3607 0 49.1933 10.7942 531 70.9755 728.066 535.559
3608 0 51.199 13.3792 685 65.8088 727.704 535.961
3609 0 50.2082 11.8108 593 69.113 727.502 534.818
